"trial_type","trial_index","time_elapsed","internal_node_id","subject","participantCode","walkNumber","success","rt","stimulus","key_press","test_part","leftProb","midProb","rightProb","generatedNum","correct"
"pavlovia",0,1130,"0.0-0.0","qdne7zrt6yogwtk",8,"16.csv","","","","","",NA,NA,NA,NA,""
"fullscreen",1,4976,"0.0-1.0","qdne7zrt6yogwtk",8,"16.csv","true","","","","",NA,NA,NA,NA,""
"html-keyboard-response",2,28993,"0.0-2.0-0.0","qdne7zrt6yogwtk",8,"16.csv","","24013","<p><font size='6'>Arrrgh!</p></font><p>Can you be the best pirate? Try to find lots of gold! But beware, some islands have more gold than others, and over time, the island with the most gold may change. Can YOU figure it out? </p><font size='6'>GOOD LUCK, CAPTAIN!!!</font><p>Press any key to begin</p>","32","",NA,NA,NA,NA,""
"image-keyboard-response",3,31997,"0.0-2.0-1.0","qdne7zrt6yogwtk",8,"16.csv","","null","resources/image_sets/111.png","null","",NA,NA,NA,NA,""
"image-keyboard-response",4,45347,"0.0-2.0-2.0","qdne7zrt6yogwtk",8,"16.csv","","13348","resources/image_sets/left_highlight.png","37","",NA,NA,NA,NA,""
"image-keyboard-response",5,50584,"0.0-2.0-3.0","qdne7zrt6yogwtk",8,"16.csv","","5236.000000000007","resources/image_sets/mid_highlight.png","38","",NA,NA,NA,NA,""
"image-keyboard-response",6,51974,"0.0-2.0-4.0","qdne7zrt6yogwtk",8,"16.csv","","1388","resources/image_sets/right_highlight.png","39","",NA,NA,NA,NA,""
"image-keyboard-response",7,56178,"0.0-2.0-5.0","qdne7zrt6yogwtk",8,"16.csv","","4203","resources/image_sets/111.png","13","",NA,NA,NA,NA,""
"image-keyboard-response",8,59582,"0.0-2.0-6.0","qdne7zrt6yogwtk",8,"16.csv","","3401","resources/images/coin2.png","13","",NA,NA,NA,NA,""
"image-keyboard-response",9,62855,"0.0-2.0-7.0","qdne7zrt6yogwtk",8,"16.csv","","3271","resources/images/fishbone.png","13","",NA,NA,NA,NA,""
"html-keyboard-response",10,72954,"0.0-2.0-8.0","qdne7zrt6yogwtk",8,"16.csv","","10099","<p>Your first journey will be a long one, but you will get a well deserved break at the end</p><p>After the break you will have four more journeys, but each will be much shorter than the first, and you will have breaks in between each</p><p>Press Enter to begin</p>","13","",NA,NA,NA,NA,""
"image-keyboard-response",11,74729,"0.0-3.0-0.0","qdne7zrt6yogwtk",8,"16.csv","","1774","resources/trios/L1T1A3.jpg","38","restless",0.9,0.3,0.7,0.218989229752321,"true"
"image-keyboard-response",12,75133,"0.0-3.0-1.0","qdne7zrt6yogwtk",8,"16.csv","","null","resources/maskTrios/BT1B.jpg","null","",NA,NA,NA,NA,""
"image-keyboard-response",13,76339,"0.0-3.0-2.0","qdne7zrt6yogwtk",8,"16.csv","","null","resources/images/coin2.png","null","",NA,NA,NA,NA,""
"image-keyboard-response",14,77932,"0.0-3.1-0.1","qdne7zrt6yogwtk",8,"16.csv","","1590.0000000000146","resources/trios/L1T1A2.jpg","37","restless",0.9,0.3,0.7,0.0350663907567847,"true"
"image-keyboard-response",15,78335,"0.0-3.1-1.1","qdne7zrt6yogwtk",8,"16.csv","","null","resources/maskTrios/L1BB.jpg","null","",NA,NA,NA,NA,""
"image-keyboard-response",16,79540,"0.0-3.1-2.1","qdne7zrt6yogwtk",8,"16.csv","","null","resources/images/coin2.png","null","",NA,NA,NA,NA,""
"image-keyboard-response",17,81514,"0.0-3.2-0.2","qdne7zrt6yogwtk",8,"16.csv","","1971.9999999999854","resources/trios/L2T4A3.jpg","37","restless",0.9,0.3,0.7,0.343909666611572,"true"
"image-keyboard-response",18,81917,"0.0-3.2-1.2","qdne7zrt6yogwtk",8,"16.csv","","null","resources/maskTrios/L2BB.jpg","null","",NA,NA,NA,NA,""
"image-keyboard-response",19,83122,"0.0-3.2-2.2","qdne7zrt6yogwtk",8,"16.csv","","null","resources/images/coin2.png","null","",NA,NA,NA,NA,""
"image-keyboard-response",20,84168,"0.0-3.3-0.3","qdne7zrt6yogwtk",8,"16.csv","","1044","resources/trios/L1T1A3.jpg","38","restless",0.9,0.3,0.7,0.370335895838146,"false"
"image-keyboard-response",21,84571,"0.0-3.3-1.3","qdne7zrt6yogwtk",8,"16.csv","","null","resources/maskTrios/BT1B.jpg","null","",NA,NA,NA,NA,""
"image-keyboard-response",22,85774,"0.0-3.3-2.3","qdne7zrt6yogwtk",8,"16.csv","","null","resources/images/fishbone.png","null","",NA,NA,NA,NA,""
"image-keyboard-response",23,86819,"0.0-3.4-0.4","qdne7zrt6yogwtk",8,"16.csv","","1044","resources/trios/L1T4A3.jpg","37","restless",0.8,0.3,0.7,0.950074278432742,"false"
"image-keyboard-response",24,87224,"0.0-3.4-1.4","qdne7zrt6yogwtk",8,"16.csv","","null","resources/maskTrios/L1BB.jpg","null","",NA,NA,NA,NA,""
"image-keyboard-response",25,88429,"0.0-3.4-2.4","qdne7zrt6yogwtk",8,"16.csv","","null","resources/images/fishbone.png","null","",NA,NA,NA,NA,""
"image-keyboard-response",26,89122,"0.0-3.5-0.5","qdne7zrt6yogwtk",8,"16.csv","","690.9999999999854","resources/trios/L1T1A2.jpg","38","restless",0.8,0.3,0.7,0.0584907808177386,"true"
"image-keyboard-response",27,89527,"0.0-3.5-1.5","qdne7zrt6yogwtk",8,"16.csv","","null","resources/maskTrios/BT1B.jpg","null","",NA,NA,NA,NA,""
"image-keyboard-response",28,90732,"0.0-3.5-2.5","qdne7zrt6yogwtk",8,"16.csv","","null","resources/images/coin2.png","null","",NA,NA,NA,NA,""
"image-keyboard-response",29,93256,"0.0-3.6-0.6","qdne7zrt6yogwtk",8,"16.csv","","2522","resources/trios/L2T1A2.jpg","37","restless",0.8,0.3,0.8,0.710948027398323,"true"
"image-keyboard-response",30,93659,"0.0-3.6-1.6","qdne7zrt6yogwtk",8,"16.csv","","null","resources/maskTrios/L2BB.jpg","null","",NA,NA,NA,NA,""
"image-keyboard-response",31,94865,"0.0-3.6-2.6","qdne7zrt6yogwtk",8,"16.csv","","null","resources/images/coin2.png","null","",NA,NA,NA,NA,""
"image-keyboard-response",32,95665,"0.0-3.7-0.7","qdne7zrt6yogwtk",8,"16.csv","","797","resources/trios/L2T4A2.jpg","37","restless",0.7,0.3,0.8,0.216420715357548,"true"
"image-keyboard-response",33,96070,"0.0-3.7-1.7","qdne7zrt6yogwtk",8,"16.csv","","null","resources/maskTrios/L2BB.jpg","null","",NA,NA,NA,NA,""
"image-keyboard-response",34,97274,"0.0-3.7-2.7","qdne7zrt6yogwtk",8,"16.csv","","null","resources/images/coin2.png","null","",NA,NA,NA,NA,""
"image-keyboard-response",35,97858,"0.0-3.8-0.8","qdne7zrt6yogwtk",8,"16.csv","","582","resources/trios/L1T4A3.jpg","38","restless",0.7,0.3,0.8,0.251109874517935,"true"
"image-keyboard-response",36,98263,"0.0-3.8-1.8","qdne7zrt6yogwtk",8,"16.csv","","null","resources/maskTrios/BT4B.jpg","null","",NA,NA,NA,NA,""
"image-keyboard-response",37,99466,"0.0-3.8-2.8","qdne7zrt6yogwtk",8,"16.csv","","null","resources/images/coin2.png","null","",NA,NA,NA,NA,""
"image-keyboard-response",38,99915,"0.0-3.9-0.9","qdne7zrt6yogwtk",8,"16.csv","","447","resources/trios/L1T4A2.jpg","37","restless",0.7,0.3,0.8,0.56274700301092,"true"
"image-keyboard-response",39,100320,"0.0-3.9-1.9","qdne7zrt6yogwtk",8,"16.csv","","null","resources/maskTrios/L1BB.jpg","null","",NA,NA,NA,NA,""
"image-keyboard-response",40,101523,"0.0-3.9-2.9","qdne7zrt6yogwtk",8,"16.csv","","null","resources/images/coin2.png","null","",NA,NA,NA,NA,""
"image-keyboard-response",41,102041,"0.0-3.10-0.10","qdne7zrt6yogwtk",8,"16.csv","","517.0000000000146","resources/trios/L2T4A3.jpg","37","restless",0.6,0.3,0.7,0.279798407420087,"true"
"image-keyboard-response",42,102446,"0.0-3.10-1.10","qdne7zrt6yogwtk",8,"16.csv","","null","resources/maskTrios/L2BB.jpg","null","",NA,NA,NA,NA,""
"image-keyboard-response",43,103652,"0.0-3.10-2.10","qdne7zrt6yogwtk",8,"16.csv","","null","resources/images/coin2.png","null","",NA,NA,NA,NA,""
"image-keyboard-response",44,104188,"0.0-3.11-0.11","qdne7zrt6yogwtk",8,"16.csv","","533.9999999999854","resources/trios/L2T4A2.jpg","38","restless",0.6,0.3,0.6,0.532513613755927,"false"
"image-keyboard-response",45,104591,"0.0-3.11-1.11","qdne7zrt6yogwtk",8,"16.csv","","null","resources/maskTrios/BT4B.jpg","null","",NA,NA,NA,NA,""
"image-keyboard-response",46,105795,"0.0-3.11-2.11","qdne7zrt6yogwtk",8,"16.csv","","null","resources/images/fishbone.png","null","",NA,NA,NA,NA,""
"image-keyboard-response",47,107604,"0.0-3.12-0.12","qdne7zrt6yogwtk",8,"16.csv","","1806.9999999999854","resources/trios/L2T4A2.jpg","37","restless",0.6,0.3,0.6,0.283345953370626,"true"
"image-keyboard-response",48,108006,"0.0-3.12-1.12","qdne7zrt6yogwtk",8,"16.csv","","null","resources/maskTrios/L2BB.jpg","null","",NA,NA,NA,NA,""
"image-keyboard-response",49,109210,"0.0-3.12-2.12","qdne7zrt6yogwtk",8,"16.csv","","null","resources/images/coin2.png","null","",NA,NA,NA,NA,""
"image-keyboard-response",50,110077,"0.0-3.13-0.13","qdne7zrt6yogwtk",8,"16.csv","","865.0000000000146","resources/trios/L2T1A2.jpg","37","restless",0.6,0.3,0.6,0.0278094877726752,"true"
"image-keyboard-response",51,110479,"0.0-3.13-1.13","qdne7zrt6yogwtk",8,"16.csv","","null","resources/maskTrios/L2BB.jpg","null","",NA,NA,NA,NA,""
"image-keyboard-response",52,111685,"0.0-3.13-2.13","qdne7zrt6yogwtk",8,"16.csv","","null","resources/images/coin2.png","null","",NA,NA,NA,NA,""
"image-keyboard-response",53,112198,"0.0-3.14-0.14","qdne7zrt6yogwtk",8,"16.csv","","512","resources/trios/L1T4A2.jpg","38","restless",0.6,0.3,0.6,0.102661779013388,"true"
"image-keyboard-response",54,112603,"0.0-3.14-1.14","qdne7zrt6yogwtk",8,"16.csv","","null","resources/maskTrios/BT4B.jpg","null","",NA,NA,NA,NA,""
"image-keyboard-response",55,113809,"0.0-3.14-2.14","qdne7zrt6yogwtk",8,"16.csv","","null","resources/images/coin2.png","null","",NA,NA,NA,NA,""
"image-keyboard-response",56,114149,"0.0-3.15-0.15","qdne7zrt6yogwtk",8,"16.csv","","339","resources/trios/L1T4A3.jpg","37","restless",0.7,0.3,0.6,0.360741147758669,"true"
"image-keyboard-response",57,114552,"0.0-3.15-1.15","qdne7zrt6yogwtk",8,"16.csv","","null","resources/maskTrios/L1BB.jpg","null","",NA,NA,NA,NA,""
"image-keyboard-response",58,115758,"0.0-3.15-2.15","qdne7zrt6yogwtk",8,"16.csv","","null","resources/images/coin2.png","null","",NA,NA,NA,NA,""
"image-keyboard-response",59,116090,"0.0-3.16-0.16","qdne7zrt6yogwtk",8,"16.csv","","330","resources/trios/L1T1A2.jpg","37","restless",0.7,0.2,0.6,0.255718947035149,"true"
"image-keyboard-response",60,116495,"0.0-3.16-1.16","qdne7zrt6yogwtk",8,"16.csv","","null","resources/maskTrios/L1BB.jpg","null","",NA,NA,NA,NA,""
"image-keyboard-response",61,117700,"0.0-3.16-2.16","qdne7zrt6yogwtk",8,"16.csv","","null","resources/images/coin2.png","null","",NA,NA,NA,NA,""
"image-keyboard-response",62,118081,"0.0-3.17-0.17","qdne7zrt6yogwtk",8,"16.csv","","378.00000000001455","resources/trios/L2T4A2.jpg","38","restless",0.7,0.2,0.6,0.437266782098534,"false"
"image-keyboard-response",63,118486,"0.0-3.17-1.17","qdne7zrt6yogwtk",8,"16.csv","","null","resources/maskTrios/BT4B.jpg","null","",NA,NA,NA,NA,""
"image-keyboard-response",64,119688,"0.0-3.17-2.17","qdne7zrt6yogwtk",8,"16.csv","","null","resources/images/fishbone.png","null","",NA,NA,NA,NA,""
"image-keyboard-response",65,120587,"0.0-3.18-0.18","qdne7zrt6yogwtk",8,"16.csv","","896","resources/trios/L1T4A2.jpg","37","restless",0.7,0.2,0.6,0.691889383267735,"true"
"image-keyboard-response",66,120992,"0.0-3.18-1.18","qdne7zrt6yogwtk",8,"16.csv","","null","resources/maskTrios/L1BB.jpg","null","",NA,NA,NA,NA,""
"image-keyboard-response",67,122194,"0.0-3.18-2.18","qdne7zrt6yogwtk",8,"16.csv","","null","resources/images/coin2.png","null","",NA,NA,NA,NA,""
"image-keyboard-response",68,122615,"0.0-3.19-0.19","qdne7zrt6yogwtk",8,"16.csv","","419","resources/trios/L2T1A2.jpg","37","restless",0.7,0.2,0.6,0.0892908356624934,"true"
"image-keyboard-response",69,123019,"0.0-3.19-1.19","qdne7zrt6yogwtk",8,"16.csv","","null","resources/maskTrios/L2BB.jpg","null","",NA,NA,NA,NA,""
"image-keyboard-response",70,124223,"0.0-3.19-2.19","qdne7zrt6yogwtk",8,"16.csv","","null","resources/images/coin2.png","null","",NA,NA,NA,NA,""
"image-keyboard-response",71,124602,"0.0-3.20-0.20","qdne7zrt6yogwtk",8,"16.csv","","378","resources/trios/L1T4A2.jpg","38","restless",0.7,0.3,0.6,0.803739589577151,"false"
"image-keyboard-response",72,125007,"0.0-3.20-1.20","qdne7zrt6yogwtk",8,"16.csv","","null","resources/maskTrios/BT4B.jpg","null","",NA,NA,NA,NA,""
"image-keyboard-response",73,126212,"0.0-3.20-2.20","qdne7zrt6yogwtk",8,"16.csv","","null","resources/images/fishbone.png","null","",NA,NA,NA,NA,""
"image-keyboard-response",74,126594,"0.0-3.21-0.21","qdne7zrt6yogwtk",8,"16.csv","","379","resources/trios/L2T1A3.jpg","37","restless",0.7,0.3,0.6,0.716519987450535,"false"
"image-keyboard-response",75,126999,"0.0-3.21-1.21","qdne7zrt6yogwtk",8,"16.csv","","null","resources/maskTrios/L2BB.jpg","null","",NA,NA,NA,NA,""
"image-keyboard-response",76,128204,"0.0-3.21-2.21","qdne7zrt6yogwtk",8,"16.csv","","null","resources/images/fishbone.png","null","",NA,NA,NA,NA,""
"image-keyboard-response",77,129131,"0.0-3.22-0.22","qdne7zrt6yogwtk",8,"16.csv","","925","resources/trios/L1T1A3.jpg","39","restless",0.7,0.2,0.6,0.416318344498419,"true"
"image-keyboard-response",78,129534,"0.0-3.22-1.22","qdne7zrt6yogwtk",8,"16.csv","","null","resources/maskTrios/BBA3.jpg","null","",NA,NA,NA,NA,""
"image-keyboard-response",79,130739,"0.0-3.22-2.22","qdne7zrt6yogwtk",8,"16.csv","","null","resources/images/coin2.png","null","",NA,NA,NA,NA,""
"image-keyboard-response",80,131085,"0.0-3.23-0.23","qdne7zrt6yogwtk",8,"16.csv","","343.9999999999709","resources/trios/L2T4A3.jpg","39","restless",0.7,0.2,0.5,0.278504690516114,"true"
"image-keyboard-response",81,131487,"0.0-3.23-1.23","qdne7zrt6yogwtk",8,"16.csv","","null","resources/maskTrios/BBA3.jpg","null","",NA,NA,NA,NA,""
"image-keyboard-response",82,132692,"0.0-3.23-2.23","qdne7zrt6yogwtk",8,"16.csv","","null","resources/images/coin2.png","null","",NA,NA,NA,NA,""
"image-keyboard-response",83,133045,"0.0-3.24-0.24","qdne7zrt6yogwtk",8,"16.csv","","351","resources/trios/L1T1A3.jpg","38","restless",0.6,0.2,0.5,0.663234683060096,"false"
"image-keyboard-response",84,133450,"0.0-3.24-1.24","qdne7zrt6yogwtk",8,"16.csv","","null","resources/maskTrios/BT1B.jpg","null","",NA,NA,NA,NA,""
"image-keyboard-response",85,134653,"0.0-3.24-2.24","qdne7zrt6yogwtk",8,"16.csv","","null","resources/images/fishbone.png","null","",NA,NA,NA,NA,""
"image-keyboard-response",86,135955,"0.0-3.25-0.25","qdne7zrt6yogwtk",8,"16.csv","","1300","resources/trios/L2T1A2.jpg","39","restless",0.6,0.2,0.5,0.975447134505695,"false"
"image-keyboard-response",87,136359,"0.0-3.25-1.25","qdne7zrt6yogwtk",8,"16.csv","","null","resources/maskTrios/BBA2.jpg","null","",NA,NA,NA,NA,""
"image-keyboard-response",88,137563,"0.0-3.25-2.25","qdne7zrt6yogwtk",8,"16.csv","","null","resources/images/fishbone.png","null","",NA,NA,NA,NA,""
"image-keyboard-response",89,137879,"0.0-3.26-0.26","qdne7zrt6yogwtk",8,"16.csv","","314","resources/trios/L2T1A3.jpg","37","restless",0.6,0.2,0.5,0.511588543101521,"true"
"image-keyboard-response",90,138284,"0.0-3.26-1.26","qdne7zrt6yogwtk",8,"16.csv","","null","resources/maskTrios/L2BB.jpg","null","",NA,NA,NA,NA,""
"image-keyboard-response",91,139487,"0.0-3.26-2.26","qdne7zrt6yogwtk",8,"16.csv","","null","resources/images/coin2.png","null","",NA,NA,NA,NA,""
"image-keyboard-response",92,139883,"0.0-3.27-0.27","qdne7zrt6yogwtk",8,"16.csv","","394","resources/trios/L2T4A2.jpg","37","restless",0.6,0.2,0.5,0.998113584499261,"false"
"image-keyboard-response",93,140288,"0.0-3.27-1.27","qdne7zrt6yogwtk",8,"16.csv","","null","resources/maskTrios/L2BB.jpg","null","",NA,NA,NA,NA,""
"image-keyboard-response",94,141493,"0.0-3.27-2.27","qdne7zrt6yogwtk",8,"16.csv","","null","resources/images/fishbone.png","null","",NA,NA,NA,NA,""
"image-keyboard-response",95,141833,"0.0-3.28-0.28","qdne7zrt6yogwtk",8,"16.csv","","338","resources/trios/L1T1A2.jpg","39","restless",0.6,0.2,0.4,0.897029959249409,"false"
"image-keyboard-response",96,142236,"0.0-3.28-1.28","qdne7zrt6yogwtk",8,"16.csv","","null","resources/maskTrios/BBA2.jpg","null","",NA,NA,NA,NA,""
"image-keyboard-response",97,143441,"0.0-3.28-2.28","qdne7zrt6yogwtk",8,"16.csv","","null","resources/images/fishbone.png","null","",NA,NA,NA,NA,""
"image-keyboard-response",98,143825,"0.0-3.29-0.29","qdne7zrt6yogwtk",8,"16.csv","","382","resources/trios/L2T4A3.jpg","38","restless",0.6,0.2,0.4,0.31708835075009,"false"
"image-keyboard-response",99,144227,"0.0-3.29-1.29","qdne7zrt6yogwtk",8,"16.csv","","null","resources/maskTrios/BT4B.jpg","null","",NA,NA,NA,NA,""
"image-keyboard-response",100,145430,"0.0-3.29-2.29","qdne7zrt6yogwtk",8,"16.csv","","null","resources/images/fishbone.png","null","",NA,NA,NA,NA,""
"image-keyboard-response",101,146459,"0.0-3.30-0.30","qdne7zrt6yogwtk",8,"16.csv","","1026","resources/trios/L1T1A2.jpg","38","restless",0.6,0.2,0.4,0.2101367703567,"false"
"image-keyboard-response",102,146863,"0.0-3.30-1.30","qdne7zrt6yogwtk",8,"16.csv","","null","resources/maskTrios/BT1B.jpg","null","",NA,NA,NA,NA,""
"image-keyboard-response",103,148068,"0.0-3.30-2.30","qdne7zrt6yogwtk",8,"16.csv","","null","resources/images/fishbone.png","null","",NA,NA,NA,NA,""
"image-keyboard-response",104,149034,"0.0-3.31-0.31","qdne7zrt6yogwtk",8,"16.csv","","963","resources/trios/L1T1A2.jpg","37","restless",0.6,0.2,0.4,0.282054263351657,"true"
"image-keyboard-response",105,149438,"0.0-3.31-1.31","qdne7zrt6yogwtk",8,"16.csv","","null","resources/maskTrios/L1BB.jpg","null","",NA,NA,NA,NA,""
"image-keyboard-response",106,150641,"0.0-3.31-2.31","qdne7zrt6yogwtk",8,"16.csv","","null","resources/images/coin2.png","null","",NA,NA,NA,NA,""
"image-keyboard-response",107,151918,"0.0-3.32-0.32","qdne7zrt6yogwtk",8,"16.csv","","1275","resources/trios/L2T4A2.jpg","38","restless",0.6,0.2,0.4,0.721543871079024,"false"
"image-keyboard-response",108,152323,"0.0-3.32-1.32","qdne7zrt6yogwtk",8,"16.csv","","null","resources/maskTrios/BT4B.jpg","null","",NA,NA,NA,NA,""
"image-keyboard-response",109,153527,"0.0-3.32-2.32","qdne7zrt6yogwtk",8,"16.csv","","null","resources/images/fishbone.png","null","",NA,NA,NA,NA,""
"image-keyboard-response",110,153941,"0.0-3.33-0.33","qdne7zrt6yogwtk",8,"16.csv","","411","resources/trios/L1T1A3.jpg","37","restless",0.6,0.2,0.4,0.0761138197288619,"true"
"image-keyboard-response",111,154346,"0.0-3.33-1.33","qdne7zrt6yogwtk",8,"16.csv","","null","resources/maskTrios/L1BB.jpg","null","",NA,NA,NA,NA,""
"image-keyboard-response",112,155551,"0.0-3.33-2.33","qdne7zrt6yogwtk",8,"16.csv","","null","resources/images/coin2.png","null","",NA,NA,NA,NA,""
"image-keyboard-response",113,155963,"0.0-3.34-0.34","qdne7zrt6yogwtk",8,"16.csv","","410","resources/trios/L1T4A3.jpg","37","restless",0.5,0.2,0.4,0.421404750658987,"true"
"image-keyboard-response",114,156366,"0.0-3.34-1.34","qdne7zrt6yogwtk",8,"16.csv","","null","resources/maskTrios/L1BB.jpg","null","",NA,NA,NA,NA,""
"image-keyboard-response",115,157580,"0.0-3.34-2.34","qdne7zrt6yogwtk",8,"16.csv","","null","resources/images/coin2.png","null","",NA,NA,NA,NA,""
"image-keyboard-response",116,158000,"0.0-3.35-0.35","qdne7zrt6yogwtk",8,"16.csv","","419","resources/trios/L1T1A2.jpg","37","restless",0.5,0.2,0.4,0.228134687751176,"true"
"image-keyboard-response",117,158403,"0.0-3.35-1.35","qdne7zrt6yogwtk",8,"16.csv","","null","resources/maskTrios/L1BB.jpg","null","",NA,NA,NA,NA,""
"image-keyboard-response",118,159606,"0.0-3.35-2.35","qdne7zrt6yogwtk",8,"16.csv","","null","resources/images/coin2.png","null","",NA,NA,NA,NA,""
"image-keyboard-response",119,160088,"0.0-3.36-0.36","qdne7zrt6yogwtk",8,"16.csv","","478.9999999999709","resources/trios/L2T1A3.jpg","37","restless",0.4,0.2,0.4,0.106125803374361,"true"
"image-keyboard-response",120,160490,"0.0-3.36-1.36","qdne7zrt6yogwtk",8,"16.csv","","null","resources/maskTrios/L2BB.jpg","null","",NA,NA,NA,NA,""
"image-keyboard-response",121,161694,"0.0-3.36-2.36","qdne7zrt6yogwtk",8,"16.csv","","null","resources/images/coin2.png","null","",NA,NA,NA,NA,""
"image-keyboard-response",122,162114,"0.0-3.37-0.37","qdne7zrt6yogwtk",8,"16.csv","","417","resources/trios/L1T1A2.jpg","37","restless",0.4,0.2,0.4,0.623179033339596,"false"
"image-keyboard-response",123,162516,"0.0-3.37-1.37","qdne7zrt6yogwtk",8,"16.csv","","null","resources/maskTrios/L1BB.jpg","null","",NA,NA,NA,NA,""
"image-keyboard-response",124,163719,"0.0-3.37-2.37","qdne7zrt6yogwtk",8,"16.csv","","null","resources/images/fishbone.png","null","",NA,NA,NA,NA,""
"image-keyboard-response",125,164123,"0.0-3.38-0.38","qdne7zrt6yogwtk",8,"16.csv","","402","resources/trios/L2T1A3.jpg","39","restless",0.4,0.2,0.4,0.546881067042979,"false"
"image-keyboard-response",126,164527,"0.0-3.38-1.38","qdne7zrt6yogwtk",8,"16.csv","","null","resources/maskTrios/BBA3.jpg","null","",NA,NA,NA,NA,""
"image-keyboard-response",127,165732,"0.0-3.38-2.38","qdne7zrt6yogwtk",8,"16.csv","","null","resources/images/fishbone.png","null","",NA,NA,NA,NA,""
"image-keyboard-response",128,166063,"0.0-3.39-0.39","qdne7zrt6yogwtk",8,"16.csv","","329.9999999999709","resources/trios/L1T1A3.jpg","38","restless",0.4,0.2,0.4,0.891007320045282,"false"
"image-keyboard-response",129,166468,"0.0-3.39-1.39","qdne7zrt6yogwtk",8,"16.csv","","null","resources/maskTrios/BT1B.jpg","null","",NA,NA,NA,NA,""
"image-keyboard-response",130,167673,"0.0-3.39-2.39","qdne7zrt6yogwtk",8,"16.csv","","null","resources/images/fishbone.png","null","",NA,NA,NA,NA,""
"image-keyboard-response",131,168264,"0.0-3.40-0.40","qdne7zrt6yogwtk",8,"16.csv","","589","resources/trios/L2T1A2.jpg","37","restless",0.4,0.2,0.4,0.861510813578175,"false"
"image-keyboard-response",132,168669,"0.0-3.40-1.40","qdne7zrt6yogwtk",8,"16.csv","","null","resources/maskTrios/L2BB.jpg","null","",NA,NA,NA,NA,""
"image-keyboard-response",133,169872,"0.0-3.40-2.40","qdne7zrt6yogwtk",8,"16.csv","","null","resources/images/fishbone.png","null","",NA,NA,NA,NA,""
"image-keyboard-response",134,172115,"0.0-3.41-0.41","qdne7zrt6yogwtk",8,"16.csv","","2241.000000000029","resources/trios/L1T4A2.jpg","39","restless",0.4,0.2,0.4,0.914667068265394,"false"
"image-keyboard-response",135,172520,"0.0-3.41-1.41","qdne7zrt6yogwtk",8,"16.csv","","null","resources/maskTrios/BBA2.jpg","null","",NA,NA,NA,NA,""
"image-keyboard-response",136,173722,"0.0-3.41-2.41","qdne7zrt6yogwtk",8,"16.csv","","null","resources/images/fishbone.png","null","",NA,NA,NA,NA,""
"image-keyboard-response",137,174159,"0.0-3.42-0.42","qdne7zrt6yogwtk",8,"16.csv","","434","resources/trios/L2T4A2.jpg","38","restless",0.4,0.2,0.4,0.26873424933653,"false"
"image-keyboard-response",138,174561,"0.0-3.42-1.42","qdne7zrt6yogwtk",8,"16.csv","","null","resources/maskTrios/BT4B.jpg","null","",NA,NA,NA,NA,""
"image-keyboard-response",139,175765,"0.0-3.42-2.42","qdne7zrt6yogwtk",8,"16.csv","","null","resources/images/fishbone.png","null","",NA,NA,NA,NA,""
"image-keyboard-response",140,176616,"0.0-3.43-0.43","qdne7zrt6yogwtk",8,"16.csv","","849","resources/trios/L1T1A3.jpg","37","restless",0.4,0.2,0.4,0.100654552672522,"true"
"image-keyboard-response",141,177018,"0.0-3.43-1.43","qdne7zrt6yogwtk",8,"16.csv","","null","resources/maskTrios/L1BB.jpg","null","",NA,NA,NA,NA,""
"image-keyboard-response",142,178223,"0.0-3.43-2.43","qdne7zrt6yogwtk",8,"16.csv","","null","resources/images/coin2.png","null","",NA,NA,NA,NA,""
"image-keyboard-response",143,179937,"0.0-3.44-0.44","qdne7zrt6yogwtk",8,"16.csv","","1712","resources/trios/L1T1A2.jpg","37","restless",0.4,0.2,0.4,0.810353886234904,"false"
"image-keyboard-response",144,180340,"0.0-3.44-1.44","qdne7zrt6yogwtk",8,"16.csv","","null","resources/maskTrios/L1BB.jpg","null","",NA,NA,NA,NA,""
"image-keyboard-response",145,181543,"0.0-3.44-2.44","qdne7zrt6yogwtk",8,"16.csv","","null","resources/images/fishbone.png","null","",NA,NA,NA,NA,""
"image-keyboard-response",146,181862,"0.0-3.45-0.45","qdne7zrt6yogwtk",8,"16.csv","","316","resources/trios/L2T4A2.jpg","38","restless",0.4,0.3,0.4,0.347348464016452,"false"
"image-keyboard-response",147,182267,"0.0-3.45-1.45","qdne7zrt6yogwtk",8,"16.csv","","null","resources/maskTrios/BT4B.jpg","null","",NA,NA,NA,NA,""
"image-keyboard-response",148,183472,"0.0-3.45-2.45","qdne7zrt6yogwtk",8,"16.csv","","null","resources/images/fishbone.png","null","",NA,NA,NA,NA,""
"image-keyboard-response",149,183638,"0.0-3.46-0.46","qdne7zrt6yogwtk",8,"16.csv","","164.0000000000291","resources/trios/L1T4A3.jpg","39","restless",0.4,0.3,0.3,0.749664351594221,"false"
"image-keyboard-response",150,184042,"0.0-3.46-1.46","qdne7zrt6yogwtk",8,"16.csv","","null","resources/maskTrios/BBA3.jpg","null","",NA,NA,NA,NA,""
"image-keyboard-response",151,185245,"0.0-3.46-2.46","qdne7zrt6yogwtk",8,"16.csv","","null","resources/images/fishbone.png","null","",NA,NA,NA,NA,""
"image-keyboard-response",152,186877,"0.0-3.47-0.47","qdne7zrt6yogwtk",8,"16.csv","","1629","resources/trios/L1T1A3.jpg","37","restless",0.4,0.3,0.3,0.801807184132931,"false"
"image-keyboard-response",153,187280,"0.0-3.47-1.47","qdne7zrt6yogwtk",8,"16.csv","","null","resources/maskTrios/L1BB.jpg","null","",NA,NA,NA,NA,""
"image-keyboard-response",154,188485,"0.0-3.47-2.47","qdne7zrt6yogwtk",8,"16.csv","","null","resources/images/fishbone.png","null","",NA,NA,NA,NA,""
"image-keyboard-response",155,189987,"0.0-3.48-0.48","qdne7zrt6yogwtk",8,"16.csv","","1500","resources/trios/L1T4A2.jpg","38","restless",0.4,0.4,0.3,0.814036704457496,"false"
"image-keyboard-response",156,190389,"0.0-3.48-1.48","qdne7zrt6yogwtk",8,"16.csv","","null","resources/maskTrios/BT4B.jpg","null","",NA,NA,NA,NA,""
"image-keyboard-response",157,191592,"0.0-3.48-2.48","qdne7zrt6yogwtk",8,"16.csv","","null","resources/images/fishbone.png","null","",NA,NA,NA,NA,""
"image-keyboard-response",158,192383,"0.0-3.49-0.49","qdne7zrt6yogwtk",8,"16.csv","","790","resources/trios/L1T1A3.jpg","38","restless",0.5,0.4,0.3,0.755390555991256,"false"
"image-keyboard-response",159,192788,"0.0-3.49-1.49","qdne7zrt6yogwtk",8,"16.csv","","null","resources/maskTrios/BT1B.jpg","null","",NA,NA,NA,NA,""
"image-keyboard-response",160,193991,"0.0-3.49-2.49","qdne7zrt6yogwtk",8,"16.csv","","null","resources/images/fishbone.png","null","",NA,NA,NA,NA,""
"image-keyboard-response",161,194708,"0.0-3.50-0.50","qdne7zrt6yogwtk",8,"16.csv","","715","resources/trios/L1T4A3.jpg","37","restless",0.5,0.4,0.3,0.74717670650546,"false"
"image-keyboard-response",162,195113,"0.0-3.50-1.50","qdne7zrt6yogwtk",8,"16.csv","","null","resources/maskTrios/L1BB.jpg","null","",NA,NA,NA,NA,""
"image-keyboard-response",163,196318,"0.0-3.50-2.50","qdne7zrt6yogwtk",8,"16.csv","","null","resources/images/fishbone.png","null","",NA,NA,NA,NA,""
"image-keyboard-response",164,196839,"0.0-3.51-0.51","qdne7zrt6yogwtk",8,"16.csv","","520","resources/trios/L1T4A3.jpg","39","restless",0.5,0.4,0.2,0.791104835265218,"false"
"image-keyboard-response",165,197241,"0.0-3.51-1.51","qdne7zrt6yogwtk",8,"16.csv","","null","resources/maskTrios/BBA3.jpg","null","",NA,NA,NA,NA,""
"image-keyboard-response",166,198446,"0.0-3.51-2.51","qdne7zrt6yogwtk",8,"16.csv","","null","resources/images/fishbone.png","null","",NA,NA,NA,NA,""
"image-keyboard-response",167,199442,"0.0-3.52-0.52","qdne7zrt6yogwtk",8,"16.csv","","995","resources/trios/L1T4A2.jpg","37","restless",0.6,0.4,0.2,0.819678903970197,"false"
"image-keyboard-response",168,199847,"0.0-3.52-1.52","qdne7zrt6yogwtk",8,"16.csv","","null","resources/maskTrios/L1BB.jpg","null","",NA,NA,NA,NA,""
"image-keyboard-response",169,201049,"0.0-3.52-2.52","qdne7zrt6yogwtk",8,"16.csv","","null","resources/images/fishbone.png","null","",NA,NA,NA,NA,""
"image-keyboard-response",170,201355,"0.0-3.53-0.53","qdne7zrt6yogwtk",8,"16.csv","","304","resources/trios/L2T1A2.jpg","38","restless",0.6,0.4,0.2,0.133985949738024,"true"
"image-keyboard-response",171,201760,"0.0-3.53-1.53","qdne7zrt6yogwtk",8,"16.csv","","null","resources/maskTrios/BT1B.jpg","null","",NA,NA,NA,NA,""
"image-keyboard-response",172,202963,"0.0-3.53-2.53","qdne7zrt6yogwtk",8,"16.csv","","null","resources/images/coin2.png","null","",NA,NA,NA,NA,""
"image-keyboard-response",173,203338,"0.0-3.54-0.54","qdne7zrt6yogwtk",8,"16.csv","","373","resources/trios/L2T1A3.jpg","39","restless",0.6,0.4,0.2,0.127546031355731,"true"
"image-keyboard-response",174,203743,"0.0-3.54-1.54","qdne7zrt6yogwtk",8,"16.csv","","null","resources/maskTrios/BBA3.jpg","null","",NA,NA,NA,NA,""
"image-keyboard-response",175,204948,"0.0-3.54-2.54","qdne7zrt6yogwtk",8,"16.csv","","null","resources/images/coin2.png","null","",NA,NA,NA,NA,""
"image-keyboard-response",176,205430,"0.0-3.55-0.55","qdne7zrt6yogwtk",8,"16.csv","","480","resources/trios/L2T1A2.jpg","37","restless",0.6,0.4,0.3,0.507221944752433,"true"
"image-keyboard-response",177,205835,"0.0-3.55-1.55","qdne7zrt6yogwtk",8,"16.csv","","null","resources/maskTrios/L2BB.jpg","null","",NA,NA,NA,NA,""
"image-keyboard-response",178,207040,"0.0-3.55-2.55","qdne7zrt6yogwtk",8,"16.csv","","null","resources/images/coin2.png","null","",NA,NA,NA,NA,""
"image-keyboard-response",179,207312,"0.0-3.56-0.56","qdne7zrt6yogwtk",8,"16.csv","","268.9999999999709","resources/trios/L2T4A2.jpg","38","restless",0.6,0.4,0.3,0.063217470453975,"true"
"image-keyboard-response",180,207714,"0.0-3.56-1.56","qdne7zrt6yogwtk",8,"16.csv","","null","resources/maskTrios/BT4B.jpg","null","",NA,NA,NA,NA,""
"image-keyboard-response",181,208917,"0.0-3.56-2.56","qdne7zrt6yogwtk",8,"16.csv","","null","resources/images/coin2.png","null","",NA,NA,NA,NA,""
"image-keyboard-response",182,209047,"0.0-3.57-0.57","qdne7zrt6yogwtk",8,"16.csv","","128","resources/trios/L2T1A2.jpg","39","restless",0.6,0.4,0.3,0.102760512497579,"true"
"image-keyboard-response",183,209452,"0.0-3.57-1.57","qdne7zrt6yogwtk",8,"16.csv","","null","resources/maskTrios/BBA2.jpg","null","",NA,NA,NA,NA,""
"image-keyboard-response",184,210657,"0.0-3.57-2.57","qdne7zrt6yogwtk",8,"16.csv","","null","resources/images/coin2.png","null","",NA,NA,NA,NA,""
"image-keyboard-response",185,210967,"0.0-3.58-0.58","qdne7zrt6yogwtk",8,"16.csv","","308","resources/trios/L2T1A3.jpg","37","restless",0.6,0.4,0.3,0.320085592443284,"true"
"image-keyboard-response",186,211369,"0.0-3.58-1.58","qdne7zrt6yogwtk",8,"16.csv","","null","resources/maskTrios/L2BB.jpg","null","",NA,NA,NA,NA,""
"image-keyboard-response",187,212574,"0.0-3.58-2.58","qdne7zrt6yogwtk",8,"16.csv","","null","resources/images/coin2.png","null","",NA,NA,NA,NA,""
"image-keyboard-response",188,212780,"0.0-3.59-0.59","qdne7zrt6yogwtk",8,"16.csv","","204.0000000000291","resources/trios/L1T4A3.jpg","38","restless",0.6,0.4,0.2,0.28222733447054,"true"
"image-keyboard-response",189,213184,"0.0-3.59-1.59","qdne7zrt6yogwtk",8,"16.csv","","null","resources/maskTrios/BT4B.jpg","null","",NA,NA,NA,NA,""
"image-keyboard-response",190,214390,"0.0-3.59-2.59","qdne7zrt6yogwtk",8,"16.csv","","null","resources/images/coin2.png","null","",NA,NA,NA,NA,""
"image-keyboard-response",191,214651,"0.0-3.60-0.60","qdne7zrt6yogwtk",8,"16.csv","","259","resources/trios/L1T4A2.jpg","39","restless",0.6,0.5,0.2,0.72456766236281,"false"
"image-keyboard-response",192,215056,"0.0-3.60-1.60","qdne7zrt6yogwtk",8,"16.csv","","null","resources/maskTrios/BBA2.jpg","null","",NA,NA,NA,NA,""
"image-keyboard-response",193,216260,"0.0-3.60-2.60","qdne7zrt6yogwtk",8,"16.csv","","null","resources/images/fishbone.png","null","",NA,NA,NA,NA,""
"image-keyboard-response",194,216392,"0.0-3.61-0.61","qdne7zrt6yogwtk",8,"16.csv","","130.0000000000291","resources/trios/L1T1A2.jpg","37","restless",0.6,0.5,0.2,0.0523111542445907,"true"
"image-keyboard-response",195,216797,"0.0-3.61-1.61","qdne7zrt6yogwtk",8,"16.csv","","null","resources/maskTrios/L1BB.jpg","null","",NA,NA,NA,NA,""
"image-keyboard-response",196,218000,"0.0-3.61-2.61","qdne7zrt6yogwtk",8,"16.csv","","null","resources/images/coin2.png","null","",NA,NA,NA,NA,""
"image-keyboard-response",197,218212,"0.0-3.62-0.62","qdne7zrt6yogwtk",8,"16.csv","","210","resources/trios/L2T1A3.jpg","38","restless",0.6,0.5,0.2,0.00247011753745552,"true"
"image-keyboard-response",198,218617,"0.0-3.62-1.62","qdne7zrt6yogwtk",8,"16.csv","","null","resources/maskTrios/BT1B.jpg","null","",NA,NA,NA,NA,""
"image-keyboard-response",199,219820,"0.0-3.62-2.62","qdne7zrt6yogwtk",8,"16.csv","","null","resources/images/coin2.png","null","",NA,NA,NA,NA,""
"image-keyboard-response",200,219964,"0.0-3.63-0.63","qdne7zrt6yogwtk",8,"16.csv","","142.9999999999709","resources/trios/L2T4A3.jpg","39","restless",0.6,0.5,0.2,0.938889903244244,"false"
"image-keyboard-response",201,220367,"0.0-3.63-1.63","qdne7zrt6yogwtk",8,"16.csv","","null","resources/maskTrios/BBA3.jpg","null","",NA,NA,NA,NA,""
"image-keyboard-response",202,221569,"0.0-3.63-2.63","qdne7zrt6yogwtk",8,"16.csv","","null","resources/images/fishbone.png","null","",NA,NA,NA,NA,""
"image-keyboard-response",203,222206,"0.0-3.64-0.64","qdne7zrt6yogwtk",8,"16.csv","","634.9999999999709","resources/trios/L1T4A2.jpg","37","restless",0.6,0.5,0.2,0.195917900188411,"true"
"image-keyboard-response",204,222608,"0.0-3.64-1.64","qdne7zrt6yogwtk",8,"16.csv","","null","resources/maskTrios/L1BB.jpg","null","",NA,NA,NA,NA,""
"image-keyboard-response",205,223813,"0.0-3.64-2.64","qdne7zrt6yogwtk",8,"16.csv","","null","resources/images/coin2.png","null","",NA,NA,NA,NA,""
"image-keyboard-response",206,224332,"0.0-3.65-0.65","qdne7zrt6yogwtk",8,"16.csv","","516.9999999999709","resources/trios/L1T1A3.jpg","38","restless",0.6,0.5,0.2,0.116897423012262,"true"
"image-keyboard-response",207,224737,"0.0-3.65-1.65","qdne7zrt6yogwtk",8,"16.csv","","null","resources/maskTrios/BT1B.jpg","null","",NA,NA,NA,NA,""
"image-keyboard-response",208,225940,"0.0-3.65-2.65","qdne7zrt6yogwtk",8,"16.csv","","null","resources/images/coin2.png","null","",NA,NA,NA,NA,""
"image-keyboard-response",209,226291,"0.0-3.66-0.66","qdne7zrt6yogwtk",8,"16.csv","","349.0000000000291","resources/trios/L2T4A2.jpg","37","restless",0.6,0.5,0.3,0.385639163413783,"true"
"image-keyboard-response",210,226694,"0.0-3.66-1.66","qdne7zrt6yogwtk",8,"16.csv","","null","resources/maskTrios/L2BB.jpg","null","",NA,NA,NA,NA,""
"image-keyboard-response",211,227897,"0.0-3.66-2.66","qdne7zrt6yogwtk",8,"16.csv","","null","resources/images/coin2.png","null","",NA,NA,NA,NA,""
"image-keyboard-response",212,228247,"0.0-3.67-0.67","qdne7zrt6yogwtk",8,"16.csv","","348","resources/trios/L2T4A2.jpg","38","restless",0.6,0.5,0.3,0.532043943921816,"false"
"image-keyboard-response",213,228652,"0.0-3.67-1.67","qdne7zrt6yogwtk",8,"16.csv","","null","resources/maskTrios/BT4B.jpg","null","",NA,NA,NA,NA,""
"image-keyboard-response",214,229857,"0.0-3.67-2.67","qdne7zrt6yogwtk",8,"16.csv","","null","resources/images/fishbone.png","null","",NA,NA,NA,NA,""
"image-keyboard-response",215,230190,"0.0-3.68-0.68","qdne7zrt6yogwtk",8,"16.csv","","331","resources/trios/L2T4A2.jpg","37","restless",0.6,0.5,0.3,0.0898675542526267,"true"
"image-keyboard-response",216,230594,"0.0-3.68-1.68","qdne7zrt6yogwtk",8,"16.csv","","null","resources/maskTrios/L2BB.jpg","null","",NA,NA,NA,NA,""
"image-keyboard-response",217,231797,"0.0-3.68-2.68","qdne7zrt6yogwtk",8,"16.csv","","null","resources/images/coin2.png","null","",NA,NA,NA,NA,""
"image-keyboard-response",218,232077,"0.0-3.69-0.69","qdne7zrt6yogwtk",8,"16.csv","","278.0000000000291","resources/trios/L2T1A3.jpg","37","restless",0.6,0.5,0.4,0.564930665331186,"true"
"image-keyboard-response",219,232481,"0.0-3.69-1.69","qdne7zrt6yogwtk",8,"16.csv","","null","resources/maskTrios/L2BB.jpg","null","",NA,NA,NA,NA,""
"image-keyboard-response",220,233686,"0.0-3.69-2.69","qdne7zrt6yogwtk",8,"16.csv","","null","resources/images/coin2.png","null","",NA,NA,NA,NA,""
"image-keyboard-response",221,234002,"0.0-3.70-0.70","qdne7zrt6yogwtk",8,"16.csv","","314","resources/trios/L2T4A3.jpg","37","restless",0.6,0.4,0.4,0.861912602210039,"false"
"image-keyboard-response",222,234407,"0.0-3.70-1.70","qdne7zrt6yogwtk",8,"16.csv","","null","resources/maskTrios/L2BB.jpg","null","",NA,NA,NA,NA,""
"image-keyboard-response",223,235610,"0.0-3.70-2.70","qdne7zrt6yogwtk",8,"16.csv","","null","resources/images/fishbone.png","null","",NA,NA,NA,NA,""
"image-keyboard-response",224,235744,"0.0-3.71-0.71","qdne7zrt6yogwtk",8,"16.csv","","131.9999999999709","resources/trios/L2T1A2.jpg","39","restless",0.6,0.4,0.4,0.187272723677608,"true"
"image-keyboard-response",225,236146,"0.0-3.71-1.71","qdne7zrt6yogwtk",8,"16.csv","","null","resources/maskTrios/BBA2.jpg","null","",NA,NA,NA,NA,""
"image-keyboard-response",226,237349,"0.0-3.71-2.71","qdne7zrt6yogwtk",8,"16.csv","","null","resources/images/coin2.png","null","",NA,NA,NA,NA,""
"image-keyboard-response",227,237853,"0.0-3.72-0.72","qdne7zrt6yogwtk",8,"16.csv","","502","resources/trios/L1T4A2.jpg","38","restless",0.6,0.4,0.4,0.501878110411862,"false"
"image-keyboard-response",228,238258,"0.0-3.72-1.72","qdne7zrt6yogwtk",8,"16.csv","","null","resources/maskTrios/BT4B.jpg","null","",NA,NA,NA,NA,""
"image-keyboard-response",229,239463,"0.0-3.72-2.72","qdne7zrt6yogwtk",8,"16.csv","","null","resources/images/fishbone.png","null","",NA,NA,NA,NA,""
"image-keyboard-response",230,239770,"0.0-3.73-0.73","qdne7zrt6yogwtk",8,"16.csv","","305","resources/trios/L1T1A2.jpg","39","restless",0.6,0.4,0.4,0.119554277710447,"true"
"image-keyboard-response",231,240174,"0.0-3.73-1.73","qdne7zrt6yogwtk",8,"16.csv","","null","resources/maskTrios/BBA2.jpg","null","",NA,NA,NA,NA,""
"image-keyboard-response",232,241380,"0.0-3.73-2.73","qdne7zrt6yogwtk",8,"16.csv","","null","resources/images/coin2.png","null","",NA,NA,NA,NA,""
"image-keyboard-response",233,241521,"0.0-3.74-0.74","qdne7zrt6yogwtk",8,"16.csv","","139","resources/trios/L2T4A3.jpg","39","restless",0.6,0.4,0.4,0.247558811903585,"true"
"image-keyboard-response",234,241922,"0.0-3.74-1.74","qdne7zrt6yogwtk",8,"16.csv","","null","resources/maskTrios/BBA3.jpg","null","",NA,NA,NA,NA,""
"image-keyboard-response",235,243127,"0.0-3.74-2.74","qdne7zrt6yogwtk",8,"16.csv","","null","resources/images/coin2.png","null","",NA,NA,NA,NA,""
"image-keyboard-response",236,243281,"0.0-3.75-0.75","qdne7zrt6yogwtk",8,"16.csv","","151.9999999999709","resources/trios/L2T1A3.jpg","39","restless",0.6,0.4,0.4,0.437825207991883,"false"
"image-keyboard-response",237,243686,"0.0-3.75-1.75","qdne7zrt6yogwtk",8,"16.csv","","null","resources/maskTrios/BBA3.jpg","null","",NA,NA,NA,NA,""
"image-keyboard-response",238,244889,"0.0-3.75-2.75","qdne7zrt6yogwtk",8,"16.csv","","null","resources/images/fishbone.png","null","",NA,NA,NA,NA,""
"image-keyboard-response",239,245063,"0.0-3.76-0.76","qdne7zrt6yogwtk",8,"16.csv","","171.9999999999709","resources/trios/L2T4A2.jpg","37","restless",0.6,0.4,0.4,0.159688088165776,"true"
"image-keyboard-response",240,245468,"0.0-3.76-1.76","qdne7zrt6yogwtk",8,"16.csv","","null","resources/maskTrios/L2BB.jpg","null","",NA,NA,NA,NA,""
"image-keyboard-response",241,246669,"0.0-3.76-2.76","qdne7zrt6yogwtk",8,"16.csv","","null","resources/images/coin2.png","null","",NA,NA,NA,NA,""
"image-keyboard-response",242,247007,"0.0-3.77-0.77","qdne7zrt6yogwtk",8,"16.csv","","336","resources/trios/L1T1A2.jpg","37","restless",0.6,0.4,0.4,0.543137369172511,"true"
"image-keyboard-response",243,247412,"0.0-3.77-1.77","qdne7zrt6yogwtk",8,"16.csv","","null","resources/maskTrios/L1BB.jpg","null","",NA,NA,NA,NA,""
"image-keyboard-response",244,248620,"0.0-3.77-2.77","qdne7zrt6yogwtk",8,"16.csv","","null","resources/images/coin2.png","null","",NA,NA,NA,NA,""
"image-keyboard-response",245,248838,"0.0-3.78-0.78","qdne7zrt6yogwtk",8,"16.csv","","213","resources/trios/L1T4A3.jpg","37","restless",0.6,0.4,0.4,0.0618235836782723,"true"
"image-keyboard-response",246,249240,"0.0-3.78-1.78","qdne7zrt6yogwtk",8,"16.csv","","null","resources/maskTrios/L1BB.jpg","null","",NA,NA,NA,NA,""
"image-keyboard-response",247,250445,"0.0-3.78-2.78","qdne7zrt6yogwtk",8,"16.csv","","null","resources/images/coin2.png","null","",NA,NA,NA,NA,""
"image-keyboard-response",248,250753,"0.0-3.79-0.79","qdne7zrt6yogwtk",8,"16.csv","","304.9999999999709","resources/trios/L2T4A2.jpg","37","restless",0.6,0.4,0.4,0.35609787153416,"true"
"image-keyboard-response",249,251155,"0.0-3.79-1.79","qdne7zrt6yogwtk",8,"16.csv","","null","resources/maskTrios/L2BB.jpg","null","",NA,NA,NA,NA,""
"image-keyboard-response",250,252358,"0.0-3.79-2.79","qdne7zrt6yogwtk",8,"16.csv","","null","resources/images/coin2.png","null","",NA,NA,NA,NA,""
"image-keyboard-response",251,252671,"0.0-3.80-0.80","qdne7zrt6yogwtk",8,"16.csv","","311","resources/trios/L1T1A3.jpg","37","restless",0.6,0.4,0.4,0.353919320797554,"true"
"image-keyboard-response",252,253076,"0.0-3.80-1.80","qdne7zrt6yogwtk",8,"16.csv","","null","resources/maskTrios/L1BB.jpg","null","",NA,NA,NA,NA,""
"image-keyboard-response",253,254279,"0.0-3.80-2.80","qdne7zrt6yogwtk",8,"16.csv","","null","resources/images/coin2.png","null","",NA,NA,NA,NA,""
"image-keyboard-response",254,254572,"0.0-3.81-0.81","qdne7zrt6yogwtk",8,"16.csv","","290.9999999999418","resources/trios/L1T1A2.jpg","37","restless",0.6,0.4,0.4,0.977938902066897,"false"
"image-keyboard-response",255,254978,"0.0-3.81-1.81","qdne7zrt6yogwtk",8,"16.csv","","null","resources/maskTrios/L1BB.jpg","null","",NA,NA,NA,NA,""
"image-keyboard-response",256,256180,"0.0-3.81-2.81","qdne7zrt6yogwtk",8,"16.csv","","null","resources/images/fishbone.png","null","",NA,NA,NA,NA,""
"image-keyboard-response",257,256228,"0.0-3.82-0.82","qdne7zrt6yogwtk",8,"16.csv","","46","resources/trios/L2T4A2.jpg","38","restless",0.6,0.4,0.4,0.170780256701701,"true"
"image-keyboard-response",258,256632,"0.0-3.82-1.82","qdne7zrt6yogwtk",8,"16.csv","","null","resources/maskTrios/BT4B.jpg","null","",NA,NA,NA,NA,""
"image-keyboard-response",259,257837,"0.0-3.82-2.82","qdne7zrt6yogwtk",8,"16.csv","","null","resources/images/coin2.png","null","",NA,NA,NA,NA,""
"image-keyboard-response",260,257972,"0.0-3.83-0.83","qdne7zrt6yogwtk",8,"16.csv","","133","resources/trios/L1T4A2.jpg","38","restless",0.6,0.4,0.4,0.60965731692099,"false"
"image-keyboard-response",261,258375,"0.0-3.83-1.83","qdne7zrt6yogwtk",8,"16.csv","","null","resources/maskTrios/BT4B.jpg","null","",NA,NA,NA,NA,""
"image-keyboard-response",262,259583,"0.0-3.83-2.83","qdne7zrt6yogwtk",8,"16.csv","","null","resources/images/fishbone.png","null","",NA,NA,NA,NA,""
"image-keyboard-response",263,259591,"0.0-3.84-0.84","qdne7zrt6yogwtk",8,"16.csv","","6.000000000058208","resources/trios/L1T4A3.jpg","39","restless",0.6,0.4,0.4,0.649608258440186,"false"
"image-keyboard-response",264,259996,"0.0-3.84-1.84","qdne7zrt6yogwtk",8,"16.csv","","null","resources/maskTrios/BBA3.jpg","null","",NA,NA,NA,NA,""
"image-keyboard-response",265,261199,"0.0-3.84-2.84","qdne7zrt6yogwtk",8,"16.csv","","null","resources/images/fishbone.png","null","",NA,NA,NA,NA,""
"image-keyboard-response",266,261304,"0.0-3.85-0.85","qdne7zrt6yogwtk",8,"16.csv","","103","resources/trios/L2T1A3.jpg","39","restless",0.6,0.4,0.4,0.689282160037925,"false"
"image-keyboard-response",267,261707,"0.0-3.85-1.85","qdne7zrt6yogwtk",8,"16.csv","","null","resources/maskTrios/BBA3.jpg","null","",NA,NA,NA,NA,""
"image-keyboard-response",268,262912,"0.0-3.85-2.85","qdne7zrt6yogwtk",8,"16.csv","","null","resources/images/fishbone.png","null","",NA,NA,NA,NA,""
"image-keyboard-response",269,263325,"0.0-3.86-0.86","qdne7zrt6yogwtk",8,"16.csv","","411","resources/trios/L1T4A2.jpg","37","restless",0.6,0.4,0.4,0.339789135935121,"true"
"image-keyboard-response",270,263730,"0.0-3.86-1.86","qdne7zrt6yogwtk",8,"16.csv","","null","resources/maskTrios/L1BB.jpg","null","",NA,NA,NA,NA,""
"image-keyboard-response",271,264935,"0.0-3.86-2.86","qdne7zrt6yogwtk",8,"16.csv","","null","resources/images/coin2.png","null","",NA,NA,NA,NA,""
"image-keyboard-response",272,265202,"0.0-3.87-0.87","qdne7zrt6yogwtk",8,"16.csv","","265","resources/trios/L2T4A2.jpg","37","restless",0.7,0.4,0.4,0.195553098803364,"true"
"image-keyboard-response",273,265606,"0.0-3.87-1.87","qdne7zrt6yogwtk",8,"16.csv","","null","resources/maskTrios/L2BB.jpg","null","",NA,NA,NA,NA,""
"image-keyboard-response",274,266813,"0.0-3.87-2.87","qdne7zrt6yogwtk",8,"16.csv","","null","resources/images/coin2.png","null","",NA,NA,NA,NA,""
"image-keyboard-response",275,266942,"0.0-3.88-0.88","qdne7zrt6yogwtk",8,"16.csv","","126.00000000005821","resources/trios/L2T4A2.jpg","37","restless",0.7,0.4,0.4,0.434064964053215,"true"
"image-keyboard-response",276,267347,"0.0-3.88-1.88","qdne7zrt6yogwtk",8,"16.csv","","null","resources/maskTrios/L2BB.jpg","null","",NA,NA,NA,NA,""
"image-keyboard-response",277,268550,"0.0-3.88-2.88","qdne7zrt6yogwtk",8,"16.csv","","null","resources/images/coin2.png","null","",NA,NA,NA,NA,""
"image-keyboard-response",278,268725,"0.0-3.89-0.89","qdne7zrt6yogwtk",8,"16.csv","","173","resources/trios/L2T4A2.jpg","37","restless",0.7,0.4,0.3,0.303044699294376,"true"
"image-keyboard-response",279,269130,"0.0-3.89-1.89","qdne7zrt6yogwtk",8,"16.csv","","null","resources/maskTrios/L2BB.jpg","null","",NA,NA,NA,NA,""
"image-keyboard-response",280,270335,"0.0-3.89-2.89","qdne7zrt6yogwtk",8,"16.csv","","null","resources/images/coin2.png","null","",NA,NA,NA,NA,""
"image-keyboard-response",281,270397,"0.0-3.90-0.90","qdne7zrt6yogwtk",8,"16.csv","","60","resources/trios/L2T4A3.jpg","37","restless",0.7,0.5,0.3,0.59133453892613,"true"
"image-keyboard-response",282,270802,"0.0-3.90-1.90","qdne7zrt6yogwtk",8,"16.csv","","null","resources/maskTrios/L2BB.jpg","null","",NA,NA,NA,NA,""
"image-keyboard-response",283,272007,"0.0-3.90-2.90","qdne7zrt6yogwtk",8,"16.csv","","null","resources/images/coin2.png","null","",NA,NA,NA,NA,""
"image-keyboard-response",284,272251,"0.0-3.91-0.91","qdne7zrt6yogwtk",8,"16.csv","","243","resources/trios/L1T1A2.jpg","37","restless",0.7,0.5,0.3,0.082776363813707,"true"
"image-keyboard-response",285,272656,"0.0-3.91-1.91","qdne7zrt6yogwtk",8,"16.csv","","null","resources/maskTrios/L1BB.jpg","null","",NA,NA,NA,NA,""
"image-keyboard-response",286,273861,"0.0-3.91-2.91","qdne7zrt6yogwtk",8,"16.csv","","null","resources/images/coin2.png","null","",NA,NA,NA,NA,""
"image-keyboard-response",287,274089,"0.0-3.92-0.92","qdne7zrt6yogwtk",8,"16.csv","","225","resources/trios/L2T4A2.jpg","37","restless",0.7,0.6,0.3,0.731922630607679,"false"
"image-keyboard-response",288,274494,"0.0-3.92-1.92","qdne7zrt6yogwtk",8,"16.csv","","null","resources/maskTrios/L2BB.jpg","null","",NA,NA,NA,NA,""
"image-keyboard-response",289,275697,"0.0-3.92-2.92","qdne7zrt6yogwtk",8,"16.csv","","null","resources/images/fishbone.png","null","",NA,NA,NA,NA,""
"image-keyboard-response",290,276016,"0.0-3.93-0.93","qdne7zrt6yogwtk",8,"16.csv","","318","resources/trios/L2T1A3.jpg","38","restless",0.7,0.6,0.3,0.921788471116964,"false"
"image-keyboard-response",291,276421,"0.0-3.93-1.93","qdne7zrt6yogwtk",8,"16.csv","","null","resources/maskTrios/BT1B.jpg","null","",NA,NA,NA,NA,""
"image-keyboard-response",292,277626,"0.0-3.93-2.93","qdne7zrt6yogwtk",8,"16.csv","","null","resources/images/fishbone.png","null","",NA,NA,NA,NA,""
"image-keyboard-response",293,278358,"0.0-3.94-0.94","qdne7zrt6yogwtk",8,"16.csv","","730","resources/trios/L2T1A3.jpg","39","restless",0.7,0.6,0.3,0.694843828600265,"false"
"image-keyboard-response",294,278763,"0.0-3.94-1.94","qdne7zrt6yogwtk",8,"16.csv","","null","resources/maskTrios/BBA3.jpg","null","",NA,NA,NA,NA,""
"image-keyboard-response",295,279968,"0.0-3.94-2.94","qdne7zrt6yogwtk",8,"16.csv","","null","resources/images/fishbone.png","null","",NA,NA,NA,NA,""
"image-keyboard-response",296,280558,"0.0-3.95-0.95","qdne7zrt6yogwtk",8,"16.csv","","588","resources/trios/L1T1A3.jpg","37","restless",0.7,0.6,0.3,0.800301796350612,"false"
"image-keyboard-response",297,280963,"0.0-3.95-1.95","qdne7zrt6yogwtk",8,"16.csv","","null","resources/maskTrios/L1BB.jpg","null","",NA,NA,NA,NA,""
"image-keyboard-response",298,282166,"0.0-3.95-2.95","qdne7zrt6yogwtk",8,"16.csv","","null","resources/images/fishbone.png","null","",NA,NA,NA,NA,""
"image-keyboard-response",299,282505,"0.0-3.96-0.96","qdne7zrt6yogwtk",8,"16.csv","","337","resources/trios/L2T4A2.jpg","38","restless",0.7,0.6,0.3,0.770477235145067,"false"
"image-keyboard-response",300,282910,"0.0-3.96-1.96","qdne7zrt6yogwtk",8,"16.csv","","null","resources/maskTrios/BT4B.jpg","null","",NA,NA,NA,NA,""
"image-keyboard-response",301,284112,"0.0-3.96-2.96","qdne7zrt6yogwtk",8,"16.csv","","null","resources/images/fishbone.png","null","",NA,NA,NA,NA,""
"image-keyboard-response",302,284410,"0.0-3.97-0.97","qdne7zrt6yogwtk",8,"16.csv","","295.9999999999418","resources/trios/L1T1A3.jpg","39","restless",0.7,0.6,0.3,0.598778031757368,"false"
"image-keyboard-response",303,284815,"0.0-3.97-1.97","qdne7zrt6yogwtk",8,"16.csv","","null","resources/maskTrios/BBA3.jpg","null","",NA,NA,NA,NA,""
"image-keyboard-response",304,286017,"0.0-3.97-2.97","qdne7zrt6yogwtk",8,"16.csv","","null","resources/images/fishbone.png","null","",NA,NA,NA,NA,""
"image-keyboard-response",305,287752,"0.0-3.98-0.98","qdne7zrt6yogwtk",8,"16.csv","","1734","resources/trios/L2T4A3.jpg","37","restless",0.7,0.6,0.3,0.190772892296048,"true"
"image-keyboard-response",306,288155,"0.0-3.98-1.98","qdne7zrt6yogwtk",8,"16.csv","","null","resources/maskTrios/L2BB.jpg","null","",NA,NA,NA,NA,""
"image-keyboard-response",307,289360,"0.0-3.98-2.98","qdne7zrt6yogwtk",8,"16.csv","","null","resources/images/coin2.png","null","",NA,NA,NA,NA,""
"image-keyboard-response",308,289641,"0.0-3.99-0.99","qdne7zrt6yogwtk",8,"16.csv","","280","resources/trios/L1T1A3.jpg","37","restless",0.7,0.5,0.3,0.164680400252907,"true"
"image-keyboard-response",309,290046,"0.0-3.99-1.99","qdne7zrt6yogwtk",8,"16.csv","","null","resources/maskTrios/L1BB.jpg","null","",NA,NA,NA,NA,""
"image-keyboard-response",310,291249,"0.0-3.99-2.99","qdne7zrt6yogwtk",8,"16.csv","","null","resources/images/coin2.png","null","",NA,NA,NA,NA,""
"image-keyboard-response",311,291385,"0.0-3.100-0.100","qdne7zrt6yogwtk",8,"16.csv","","130","resources/trios/L2T1A3.jpg","37","restless",0.7,0.5,0.3,0.051199352787578,"true"
"image-keyboard-response",312,291790,"0.0-3.100-1.100","qdne7zrt6yogwtk",8,"16.csv","","null","resources/maskTrios/L2BB.jpg","null","",NA,NA,NA,NA,""
"image-keyboard-response",313,292995,"0.0-3.100-2.100","qdne7zrt6yogwtk",8,"16.csv","","null","resources/images/coin2.png","null","",NA,NA,NA,NA,""
"image-keyboard-response",314,293988,"0.0-3.101-0.101","qdne7zrt6yogwtk",8,"16.csv","","991","resources/trios/L1T1A3.jpg","37","restless",0.7,0.5,0.4,0.28943686205446,"true"
"image-keyboard-response",315,294392,"0.0-3.101-1.101","qdne7zrt6yogwtk",8,"16.csv","","null","resources/maskTrios/L1BB.jpg","null","",NA,NA,NA,NA,""
"image-keyboard-response",316,295597,"0.0-3.101-2.101","qdne7zrt6yogwtk",8,"16.csv","","null","resources/images/coin2.png","null","",NA,NA,NA,NA,""
"image-keyboard-response",317,295885,"0.0-3.102-0.102","qdne7zrt6yogwtk",8,"16.csv","","285","resources/trios/L2T4A3.jpg","37","restless",0.7,0.5,0.4,0.447956628916995,"true"
"image-keyboard-response",318,296290,"0.0-3.102-1.102","qdne7zrt6yogwtk",8,"16.csv","","null","resources/maskTrios/L2BB.jpg","null","",NA,NA,NA,NA,""
"image-keyboard-response",319,297493,"0.0-3.102-2.102","qdne7zrt6yogwtk",8,"16.csv","","null","resources/images/coin2.png","null","",NA,NA,NA,NA,""
"image-keyboard-response",320,299131,"0.0-3.103-0.103","qdne7zrt6yogwtk",8,"16.csv","","1636.0000000000582","resources/trios/L1T1A2.jpg","37","restless",0.7,0.5,0.4,0.842010041290212,"false"
"image-keyboard-response",321,299536,"0.0-3.103-1.103","qdne7zrt6yogwtk",8,"16.csv","","null","resources/maskTrios/L1BB.jpg","null","",NA,NA,NA,NA,""
"image-keyboard-response",322,300740,"0.0-3.103-2.103","qdne7zrt6yogwtk",8,"16.csv","","null","resources/images/fishbone.png","null","",NA,NA,NA,NA,""
"image-keyboard-response",323,300931,"0.0-3.104-0.104","qdne7zrt6yogwtk",8,"16.csv","","189","resources/trios/L2T1A3.jpg","37","restless",0.7,0.5,0.4,0.23543897805186,"true"
"image-keyboard-response",324,301333,"0.0-3.104-1.104","qdne7zrt6yogwtk",8,"16.csv","","null","resources/maskTrios/L2BB.jpg","null","",NA,NA,NA,NA,""
"image-keyboard-response",325,302540,"0.0-3.104-2.104","qdne7zrt6yogwtk",8,"16.csv","","null","resources/images/coin2.png","null","",NA,NA,NA,NA,""
"image-keyboard-response",326,303496,"0.0-3.105-0.105","qdne7zrt6yogwtk",8,"16.csv","","954","resources/trios/L1T4A3.jpg","37","restless",0.7,0.4,0.4,0.276931498112123,"true"
"image-keyboard-response",327,303901,"0.0-3.105-1.105","qdne7zrt6yogwtk",8,"16.csv","","null","resources/maskTrios/L1BB.jpg","null","",NA,NA,NA,NA,""
"image-keyboard-response",328,305104,"0.0-3.105-2.105","qdne7zrt6yogwtk",8,"16.csv","","null","resources/images/coin2.png","null","",NA,NA,NA,NA,""
"image-keyboard-response",329,306176,"0.0-3.106-0.106","qdne7zrt6yogwtk",8,"16.csv","","1069.9999999999418","resources/trios/L2T1A2.jpg","37","restless",0.8,0.4,0.4,0.937005922203431,"false"
"image-keyboard-response",330,306583,"0.0-3.106-1.106","qdne7zrt6yogwtk",8,"16.csv","","null","resources/maskTrios/L2BB.jpg","null","",NA,NA,NA,NA,""
"image-keyboard-response",331,307788,"0.0-3.106-2.106","qdne7zrt6yogwtk",8,"16.csv","","null","resources/images/fishbone.png","null","",NA,NA,NA,NA,""
"image-keyboard-response",332,308789,"0.0-3.107-0.107","qdne7zrt6yogwtk",8,"16.csv","","999","resources/trios/L2T1A2.jpg","37","restless",0.8,0.4,0.4,0.70452762678913,"true"
"image-keyboard-response",333,309194,"0.0-3.107-1.107","qdne7zrt6yogwtk",8,"16.csv","","null","resources/maskTrios/L2BB.jpg","null","",NA,NA,NA,NA,""
"image-keyboard-response",334,310400,"0.0-3.107-2.107","qdne7zrt6yogwtk",8,"16.csv","","null","resources/images/coin2.png","null","",NA,NA,NA,NA,""
"image-keyboard-response",335,310625,"0.0-3.108-0.108","qdne7zrt6yogwtk",8,"16.csv","","224.0000000000582","resources/trios/L1T4A3.jpg","37","restless",0.8,0.4,0.4,0.375136565632518,"true"
"image-keyboard-response",336,311027,"0.0-3.108-1.108","qdne7zrt6yogwtk",8,"16.csv","","null","resources/maskTrios/L1BB.jpg","null","",NA,NA,NA,NA,""
"image-keyboard-response",337,312230,"0.0-3.108-2.108","qdne7zrt6yogwtk",8,"16.csv","","null","resources/images/coin2.png","null","",NA,NA,NA,NA,""
"image-keyboard-response",338,312268,"0.0-3.109-0.109","qdne7zrt6yogwtk",8,"16.csv","","36","resources/trios/L2T4A2.jpg","37","restless",0.8,0.4,0.4,0.879861115057436,"false"
"image-keyboard-response",339,312671,"0.0-3.109-1.109","qdne7zrt6yogwtk",8,"16.csv","","null","resources/maskTrios/L2BB.jpg","null","",NA,NA,NA,NA,""
"image-keyboard-response",340,313874,"0.0-3.109-2.109","qdne7zrt6yogwtk",8,"16.csv","","null","resources/images/fishbone.png","null","",NA,NA,NA,NA,""
"image-keyboard-response",341,314051,"0.0-3.110-0.110","qdne7zrt6yogwtk",8,"16.csv","","175.9999999999418","resources/trios/L1T1A3.jpg","37","restless",0.8,0.4,0.4,0.978902273729949,"false"
"image-keyboard-response",342,314456,"0.0-3.110-1.110","qdne7zrt6yogwtk",8,"16.csv","","null","resources/maskTrios/L1BB.jpg","null","",NA,NA,NA,NA,""
"image-keyboard-response",343,315661,"0.0-3.110-2.110","qdne7zrt6yogwtk",8,"16.csv","","null","resources/images/fishbone.png","null","",NA,NA,NA,NA,""
"image-keyboard-response",344,315907,"0.0-3.111-0.111","qdne7zrt6yogwtk",8,"16.csv","","245","resources/trios/L2T1A3.jpg","37","restless",0.8,0.4,0.4,0.749141910095522,"true"
"image-keyboard-response",345,316313,"0.0-3.111-1.111","qdne7zrt6yogwtk",8,"16.csv","","null","resources/maskTrios/L2BB.jpg","null","",NA,NA,NA,NA,""
"image-keyboard-response",346,317519,"0.0-3.111-2.111","qdne7zrt6yogwtk",8,"16.csv","","null","resources/images/coin2.png","null","",NA,NA,NA,NA,""
"image-keyboard-response",347,317554,"0.0-3.112-0.112","qdne7zrt6yogwtk",8,"16.csv","","33","resources/trios/L1T4A3.jpg","37","restless",0.8,0.4,0.4,0.124430770200473,"true"
"image-keyboard-response",348,317959,"0.0-3.112-1.112","qdne7zrt6yogwtk",8,"16.csv","","null","resources/maskTrios/L1BB.jpg","null","",NA,NA,NA,NA,""
"image-keyboard-response",349,319164,"0.0-3.112-2.112","qdne7zrt6yogwtk",8,"16.csv","","null","resources/images/coin2.png","null","",NA,NA,NA,NA,""
"image-keyboard-response",350,319207,"0.0-3.113-0.113","qdne7zrt6yogwtk",8,"16.csv","","41.99999999994179","resources/trios/L2T1A3.jpg","37","restless",0.8,0.4,0.4,0.305071400124991,"true"
"image-keyboard-response",351,319612,"0.0-3.113-1.113","qdne7zrt6yogwtk",8,"16.csv","","null","resources/maskTrios/L2BB.jpg","null","",NA,NA,NA,NA,""
"image-keyboard-response",352,320818,"0.0-3.113-2.113","qdne7zrt6yogwtk",8,"16.csv","","null","resources/images/coin2.png","null","",NA,NA,NA,NA,""
"image-keyboard-response",353,320852,"0.0-3.114-0.114","qdne7zrt6yogwtk",8,"16.csv","","32","resources/trios/L1T1A2.jpg","37","restless",0.8,0.4,0.4,0.4837461717814,"true"
"image-keyboard-response",354,321255,"0.0-3.114-1.114","qdne7zrt6yogwtk",8,"16.csv","","null","resources/maskTrios/L1BB.jpg","null","",NA,NA,NA,NA,""
"image-keyboard-response",355,322458,"0.0-3.114-2.114","qdne7zrt6yogwtk",8,"16.csv","","null","resources/images/coin2.png","null","",NA,NA,NA,NA,""
"image-keyboard-response",356,322470,"0.0-3.115-0.115","qdne7zrt6yogwtk",8,"16.csv","","11","resources/trios/L2T1A3.jpg","37","restless",0.8,0.4,0.4,0.390945910783982,"true"
"image-keyboard-response",357,322873,"0.0-3.115-1.115","qdne7zrt6yogwtk",8,"16.csv","","null","resources/maskTrios/L2BB.jpg","null","",NA,NA,NA,NA,""
"image-keyboard-response",358,324078,"0.0-3.115-2.115","qdne7zrt6yogwtk",8,"16.csv","","null","resources/images/coin2.png","null","",NA,NA,NA,NA,""
"image-keyboard-response",359,324231,"0.0-3.116-0.116","qdne7zrt6yogwtk",8,"16.csv","","151","resources/trios/L2T1A3.jpg","37","restless",0.8,0.4,0.4,0.420092120957114,"true"
"image-keyboard-response",360,324634,"0.0-3.116-1.116","qdne7zrt6yogwtk",8,"16.csv","","null","resources/maskTrios/L2BB.jpg","null","",NA,NA,NA,NA,""
"image-keyboard-response",361,325837,"0.0-3.116-2.116","qdne7zrt6yogwtk",8,"16.csv","","null","resources/images/coin2.png","null","",NA,NA,NA,NA,""
"image-keyboard-response",362,325984,"0.0-3.117-0.117","qdne7zrt6yogwtk",8,"16.csv","","145.9999999999418","resources/trios/L1T4A2.jpg","37","restless",0.8,0.4,0.4,0.833072317131852,"false"
"image-keyboard-response",363,326386,"0.0-3.117-1.117","qdne7zrt6yogwtk",8,"16.csv","","null","resources/maskTrios/L1BB.jpg","null","",NA,NA,NA,NA,""
"image-keyboard-response",364,327588,"0.0-3.117-2.117","qdne7zrt6yogwtk",8,"16.csv","","null","resources/images/fishbone.png","null","",NA,NA,NA,NA,""
"image-keyboard-response",365,327835,"0.0-3.118-0.118","qdne7zrt6yogwtk",8,"16.csv","","246","resources/trios/L1T1A2.jpg","37","restless",0.8,0.4,0.4,0.480236571336763,"true"
"image-keyboard-response",366,328238,"0.0-3.118-1.118","qdne7zrt6yogwtk",8,"16.csv","","null","resources/maskTrios/L1BB.jpg","null","",NA,NA,NA,NA,""
"image-keyboard-response",367,329441,"0.0-3.118-2.118","qdne7zrt6yogwtk",8,"16.csv","","null","resources/images/coin2.png","null","",NA,NA,NA,NA,""
"image-keyboard-response",368,329656,"0.0-3.119-0.119","qdne7zrt6yogwtk",8,"16.csv","","213","resources/trios/L2T4A2.jpg","37","restless",0.8,0.4,0.4,0.336095277486669,"true"
"image-keyboard-response",369,330060,"0.0-3.119-1.119","qdne7zrt6yogwtk",8,"16.csv","","null","resources/maskTrios/L2BB.jpg","null","",NA,NA,NA,NA,""
"image-keyboard-response",370,331263,"0.0-3.119-2.119","qdne7zrt6yogwtk",8,"16.csv","","null","resources/images/coin2.png","null","",NA,NA,NA,NA,""
"image-keyboard-response",371,331428,"0.0-3.120-0.120","qdne7zrt6yogwtk",8,"16.csv","","163","resources/trios/L2T4A2.jpg","37","restless",0.8,0.4,0.4,0.867270166729671,"false"
"image-keyboard-response",372,331832,"0.0-3.120-1.120","qdne7zrt6yogwtk",8,"16.csv","","null","resources/maskTrios/L2BB.jpg","null","",NA,NA,NA,NA,""
"image-keyboard-response",373,333037,"0.0-3.120-2.120","qdne7zrt6yogwtk",8,"16.csv","","null","resources/images/fishbone.png","null","",NA,NA,NA,NA,""
"image-keyboard-response",374,333127,"0.0-3.121-0.121","qdne7zrt6yogwtk",8,"16.csv","","88","resources/trios/L1T4A3.jpg","37","restless",0.8,0.4,0.4,0.389751767211917,"true"
"image-keyboard-response",375,333532,"0.0-3.121-1.121","qdne7zrt6yogwtk",8,"16.csv","","null","resources/maskTrios/L1BB.jpg","null","",NA,NA,NA,NA,""
"image-keyboard-response",376,334734,"0.0-3.121-2.121","qdne7zrt6yogwtk",8,"16.csv","","null","resources/images/coin2.png","null","",NA,NA,NA,NA,""
"image-keyboard-response",377,334875,"0.0-3.122-0.122","qdne7zrt6yogwtk",8,"16.csv","","136.0000000000582","resources/trios/L1T1A3.jpg","37","restless",0.8,0.4,0.5,0.159517914854581,"true"
"image-keyboard-response",378,335277,"0.0-3.122-1.122","qdne7zrt6yogwtk",8,"16.csv","","null","resources/maskTrios/L1BB.jpg","null","",NA,NA,NA,NA,""
"image-keyboard-response",379,336481,"0.0-3.122-2.122","qdne7zrt6yogwtk",8,"16.csv","","null","resources/images/coin2.png","null","",NA,NA,NA,NA,""
"image-keyboard-response",380,336631,"0.0-3.123-0.123","qdne7zrt6yogwtk",8,"16.csv","","148","resources/trios/L1T4A3.jpg","37","restless",0.8,0.3,0.5,0.712192652893562,"true"
"image-keyboard-response",381,337038,"0.0-3.123-1.123","qdne7zrt6yogwtk",8,"16.csv","","null","resources/maskTrios/L1BB.jpg","null","",NA,NA,NA,NA,""
"image-keyboard-response",382,338241,"0.0-3.123-2.123","qdne7zrt6yogwtk",8,"16.csv","","null","resources/images/coin2.png","null","",NA,NA,NA,NA,""
"image-keyboard-response",383,338361,"0.0-3.124-0.124","qdne7zrt6yogwtk",8,"16.csv","","118","resources/trios/L2T4A2.jpg","37","restless",0.7,0.3,0.5,0.889640554759711,"false"
"image-keyboard-response",384,338766,"0.0-3.124-1.124","qdne7zrt6yogwtk",8,"16.csv","","null","resources/maskTrios/L2BB.jpg","null","",NA,NA,NA,NA,""
"image-keyboard-response",385,339971,"0.0-3.124-2.124","qdne7zrt6yogwtk",8,"16.csv","","null","resources/images/fishbone.png","null","",NA,NA,NA,NA,""
"image-keyboard-response",386,341906,"0.0-3.125-0.125","qdne7zrt6yogwtk",8,"16.csv","","1934","resources/trios/L2T1A2.jpg","38","restless",0.7,0.3,0.6,0.817299027423323,"false"
"image-keyboard-response",387,342311,"0.0-3.125-1.125","qdne7zrt6yogwtk",8,"16.csv","","null","resources/maskTrios/BT1B.jpg","null","",NA,NA,NA,NA,""
"image-keyboard-response",388,343514,"0.0-3.125-2.125","qdne7zrt6yogwtk",8,"16.csv","","null","resources/images/fishbone.png","null","",NA,NA,NA,NA,""
"image-keyboard-response",389,343818,"0.0-3.126-0.126","qdne7zrt6yogwtk",8,"16.csv","","301.9999999999418","resources/trios/L2T4A3.jpg","37","restless",0.7,0.4,0.6,0.0641364514028608,"true"
"image-keyboard-response",390,344223,"0.0-3.126-1.126","qdne7zrt6yogwtk",8,"16.csv","","null","resources/maskTrios/L2BB.jpg","null","",NA,NA,NA,NA,""
"image-keyboard-response",391,345428,"0.0-3.126-2.126","qdne7zrt6yogwtk",8,"16.csv","","null","resources/images/coin2.png","null","",NA,NA,NA,NA,""
"image-keyboard-response",392,348691,"0.0-3.127-0.127","qdne7zrt6yogwtk",8,"16.csv","","3261","resources/trios/L2T1A2.jpg","37","restless",0.7,0.4,0.6,0.518401034791605,"true"
"image-keyboard-response",393,349098,"0.0-3.127-1.127","qdne7zrt6yogwtk",8,"16.csv","","null","resources/maskTrios/L2BB.jpg","null","",NA,NA,NA,NA,""
"image-keyboard-response",394,350303,"0.0-3.127-2.127","qdne7zrt6yogwtk",8,"16.csv","","null","resources/images/coin2.png","null","",NA,NA,NA,NA,""
"image-keyboard-response",395,350735,"0.0-3.128-0.128","qdne7zrt6yogwtk",8,"16.csv","","430","resources/trios/L2T4A3.jpg","37","restless",0.7,0.4,0.6,0.127506490308555,"true"
"image-keyboard-response",396,351138,"0.0-3.128-1.128","qdne7zrt6yogwtk",8,"16.csv","","null","resources/maskTrios/L2BB.jpg","null","",NA,NA,NA,NA,""
"image-keyboard-response",397,352343,"0.0-3.128-2.128","qdne7zrt6yogwtk",8,"16.csv","","null","resources/images/coin2.png","null","",NA,NA,NA,NA,""
"image-keyboard-response",398,352550,"0.0-3.129-0.129","qdne7zrt6yogwtk",8,"16.csv","","206","resources/trios/L1T4A2.jpg","37","restless",0.7,0.4,0.6,0.996193307695898,"false"
"image-keyboard-response",399,352956,"0.0-3.129-1.129","qdne7zrt6yogwtk",8,"16.csv","","null","resources/maskTrios/L1BB.jpg","null","",NA,NA,NA,NA,""
"image-keyboard-response",400,354159,"0.0-3.129-2.129","qdne7zrt6yogwtk",8,"16.csv","","null","resources/images/fishbone.png","null","",NA,NA,NA,NA,""
"image-keyboard-response",401,359280,"0.0-3.130-0.130","qdne7zrt6yogwtk",8,"16.csv","","5119","resources/trios/L1T1A2.jpg","37","restless",0.7,0.4,0.6,0.726770529796598,"false"
"image-keyboard-response",402,359685,"0.0-3.130-1.130","qdne7zrt6yogwtk",8,"16.csv","","null","resources/maskTrios/L1BB.jpg","null","",NA,NA,NA,NA,""
"image-keyboard-response",403,360890,"0.0-3.130-2.130","qdne7zrt6yogwtk",8,"16.csv","","null","resources/images/fishbone.png","null","",NA,NA,NA,NA,""
"image-keyboard-response",404,361239,"0.0-3.131-0.131","qdne7zrt6yogwtk",8,"16.csv","","347","resources/trios/L2T1A2.jpg","39","restless",0.7,0.4,0.6,0.145003584042872,"true"
"image-keyboard-response",405,361641,"0.0-3.131-1.131","qdne7zrt6yogwtk",8,"16.csv","","null","resources/maskTrios/BBA2.jpg","null","",NA,NA,NA,NA,""
"image-keyboard-response",406,362844,"0.0-3.131-2.131","qdne7zrt6yogwtk",8,"16.csv","","null","resources/images/coin2.png","null","",NA,NA,NA,NA,""
"image-keyboard-response",407,362899,"0.0-3.132-0.132","qdne7zrt6yogwtk",8,"16.csv","","52","resources/trios/L2T4A2.jpg","39","restless",0.6,0.4,0.6,0.569586562949588,"true"
"image-keyboard-response",408,363302,"0.0-3.132-1.132","qdne7zrt6yogwtk",8,"16.csv","","null","resources/maskTrios/BBA2.jpg","null","",NA,NA,NA,NA,""
"image-keyboard-response",409,364504,"0.0-3.132-2.132","qdne7zrt6yogwtk",8,"16.csv","","null","resources/images/coin2.png","null","",NA,NA,NA,NA,""
"image-keyboard-response",410,364804,"0.0-3.133-0.133","qdne7zrt6yogwtk",8,"16.csv","","298","resources/trios/L2T4A2.jpg","39","restless",0.6,0.4,0.6,0.246496915736421,"true"
"image-keyboard-response",411,365207,"0.0-3.133-1.133","qdne7zrt6yogwtk",8,"16.csv","","null","resources/maskTrios/BBA2.jpg","null","",NA,NA,NA,NA,""
"image-keyboard-response",412,366412,"0.0-3.133-2.133","qdne7zrt6yogwtk",8,"16.csv","","null","resources/images/coin2.png","null","",NA,NA,NA,NA,""
"image-keyboard-response",413,366834,"0.0-3.134-0.134","qdne7zrt6yogwtk",8,"16.csv","","419.9999999999418","resources/trios/L2T1A3.jpg","39","restless",0.6,0.5,0.6,0.623262296208704,"false"
"image-keyboard-response",414,367239,"0.0-3.134-1.134","qdne7zrt6yogwtk",8,"16.csv","","null","resources/maskTrios/BBA3.jpg","null","",NA,NA,NA,NA,""
"image-keyboard-response",415,368444,"0.0-3.134-2.134","qdne7zrt6yogwtk",8,"16.csv","","null","resources/images/fishbone.png","null","",NA,NA,NA,NA,""
"image-keyboard-response",416,368876,"0.0-3.135-0.135","qdne7zrt6yogwtk",8,"16.csv","","427","resources/trios/L1T1A2.jpg","38","restless",0.7,0.5,0.5,0.939720083964199,"false"
"image-keyboard-response",417,369281,"0.0-3.135-1.135","qdne7zrt6yogwtk",8,"16.csv","","null","resources/maskTrios/BT1B.jpg","null","",NA,NA,NA,NA,""
"image-keyboard-response",418,370486,"0.0-3.135-2.135","qdne7zrt6yogwtk",8,"16.csv","","null","resources/images/fishbone.png","null","",NA,NA,NA,NA,""
"image-keyboard-response",419,370790,"0.0-3.136-0.136","qdne7zrt6yogwtk",8,"16.csv","","302","resources/trios/L1T4A2.jpg","37","restless",0.7,0.5,0.5,0.81027142584247,"false"
"image-keyboard-response",420,371191,"0.0-3.136-1.136","qdne7zrt6yogwtk",8,"16.csv","","null","resources/maskTrios/L1BB.jpg","null","",NA,NA,NA,NA,""
"image-keyboard-response",421,372393,"0.0-3.136-2.136","qdne7zrt6yogwtk",8,"16.csv","","null","resources/images/fishbone.png","null","",NA,NA,NA,NA,""
"image-keyboard-response",422,372791,"0.0-3.137-0.137","qdne7zrt6yogwtk",8,"16.csv","","396","resources/trios/L1T1A2.jpg","38","restless",0.7,0.6,0.6,0.427402666178181,"true"
"image-keyboard-response",423,373196,"0.0-3.137-1.137","qdne7zrt6yogwtk",8,"16.csv","","null","resources/maskTrios/BT1B.jpg","null","",NA,NA,NA,NA,""
"image-keyboard-response",424,374399,"0.0-3.137-2.137","qdne7zrt6yogwtk",8,"16.csv","","null","resources/images/coin2.png","null","",NA,NA,NA,NA,""
"image-keyboard-response",425,374741,"0.0-3.138-0.138","qdne7zrt6yogwtk",8,"16.csv","","339.9999999999418","resources/trios/L2T4A2.jpg","38","restless",0.7,0.6,0.7,0.802683514315947,"false"
"image-keyboard-response",426,375146,"0.0-3.138-1.138","qdne7zrt6yogwtk",8,"16.csv","","null","resources/maskTrios/BT4B.jpg","null","",NA,NA,NA,NA,""
"image-keyboard-response",427,376351,"0.0-3.138-2.138","qdne7zrt6yogwtk",8,"16.csv","","null","resources/images/fishbone.png","null","",NA,NA,NA,NA,""
"image-keyboard-response",428,376385,"0.0-3.139-0.139","qdne7zrt6yogwtk",8,"16.csv","","30","resources/trios/L2T4A2.jpg","39","restless",0.7,0.6,0.7,0.581268294165675,"true"
"image-keyboard-response",429,376790,"0.0-3.139-1.139","qdne7zrt6yogwtk",8,"16.csv","","null","resources/maskTrios/BBA2.jpg","null","",NA,NA,NA,NA,""
"image-keyboard-response",430,377993,"0.0-3.139-2.139","qdne7zrt6yogwtk",8,"16.csv","","null","resources/images/coin2.png","null","",NA,NA,NA,NA,""
"image-keyboard-response",431,378364,"0.0-3.140-0.140","qdne7zrt6yogwtk",8,"16.csv","","369","resources/trios/L2T4A2.jpg","39","restless",0.7,0.6,0.7,0.233731863288641,"true"
"image-keyboard-response",432,378767,"0.0-3.140-1.140","qdne7zrt6yogwtk",8,"16.csv","","null","resources/maskTrios/BBA2.jpg","null","",NA,NA,NA,NA,""
"image-keyboard-response",433,379972,"0.0-3.140-2.140","qdne7zrt6yogwtk",8,"16.csv","","null","resources/images/coin2.png","null","",NA,NA,NA,NA,""
"image-keyboard-response",434,380344,"0.0-3.141-0.141","qdne7zrt6yogwtk",8,"16.csv","","369.9999999999418","resources/trios/L2T4A2.jpg","39","restless",0.7,0.6,0.7,0.036481204145796,"true"
"image-keyboard-response",435,380748,"0.0-3.141-1.141","qdne7zrt6yogwtk",8,"16.csv","","null","resources/maskTrios/BBA2.jpg","null","",NA,NA,NA,NA,""
"image-keyboard-response",436,381953,"0.0-3.141-2.141","qdne7zrt6yogwtk",8,"16.csv","","null","resources/images/coin2.png","null","",NA,NA,NA,NA,""
"image-keyboard-response",437,382395,"0.0-3.142-0.142","qdne7zrt6yogwtk",8,"16.csv","","437","resources/trios/L1T1A3.jpg","39","restless",0.7,0.6,0.7,0.800174269035327,"false"
"image-keyboard-response",438,382800,"0.0-3.142-1.142","qdne7zrt6yogwtk",8,"16.csv","","null","resources/maskTrios/BBA3.jpg","null","",NA,NA,NA,NA,""
"image-keyboard-response",439,384006,"0.0-3.142-2.142","qdne7zrt6yogwtk",8,"16.csv","","null","resources/images/fishbone.png","null","",NA,NA,NA,NA,""
"image-keyboard-response",440,384304,"0.0-3.143-0.143","qdne7zrt6yogwtk",8,"16.csv","","296","resources/trios/L2T4A3.jpg","39","restless",0.7,0.6,0.7,0.365580144619112,"true"
"image-keyboard-response",441,384707,"0.0-3.143-1.143","qdne7zrt6yogwtk",8,"16.csv","","null","resources/maskTrios/BBA3.jpg","null","",NA,NA,NA,NA,""
"image-keyboard-response",442,385912,"0.0-3.143-2.143","qdne7zrt6yogwtk",8,"16.csv","","null","resources/images/coin2.png","null","",NA,NA,NA,NA,""
"image-keyboard-response",443,386209,"0.0-3.144-0.144","qdne7zrt6yogwtk",8,"16.csv","","295","resources/trios/L1T4A2.jpg","39","restless",0.6,0.6,0.7,0.299542251172576,"true"
"image-keyboard-response",444,386614,"0.0-3.144-1.144","qdne7zrt6yogwtk",8,"16.csv","","null","resources/maskTrios/BBA2.jpg","null","",NA,NA,NA,NA,""
"image-keyboard-response",445,387819,"0.0-3.144-2.144","qdne7zrt6yogwtk",8,"16.csv","","null","resources/images/coin2.png","null","",NA,NA,NA,NA,""
"image-keyboard-response",446,388156,"0.0-3.145-0.145","qdne7zrt6yogwtk",8,"16.csv","","335","resources/trios/L1T1A2.jpg","39","restless",0.6,0.6,0.7,0.392392144388589,"true"
"image-keyboard-response",447,388561,"0.0-3.145-1.145","qdne7zrt6yogwtk",8,"16.csv","","null","resources/maskTrios/BBA2.jpg","null","",NA,NA,NA,NA,""
"image-keyboard-response",448,389766,"0.0-3.145-2.145","qdne7zrt6yogwtk",8,"16.csv","","null","resources/images/coin2.png","null","",NA,NA,NA,NA,""
"image-keyboard-response",449,390037,"0.0-3.146-0.146","qdne7zrt6yogwtk",8,"16.csv","","269","resources/trios/L2T4A3.jpg","39","restless",0.6,0.6,0.7,0.0928688836391823,"true"
"image-keyboard-response",450,390442,"0.0-3.146-1.146","qdne7zrt6yogwtk",8,"16.csv","","null","resources/maskTrios/BBA3.jpg","null","",NA,NA,NA,NA,""
"image-keyboard-response",451,391647,"0.0-3.146-2.146","qdne7zrt6yogwtk",8,"16.csv","","null","resources/images/coin2.png","null","",NA,NA,NA,NA,""
"image-keyboard-response",452,391920,"0.0-3.147-0.147","qdne7zrt6yogwtk",8,"16.csv","","272","resources/trios/L1T1A3.jpg","39","restless",0.6,0.6,0.7,0.627019615012756,"true"
"image-keyboard-response",453,392325,"0.0-3.147-1.147","qdne7zrt6yogwtk",8,"16.csv","","null","resources/maskTrios/BBA3.jpg","null","",NA,NA,NA,NA,""
"image-keyboard-response",454,393531,"0.0-3.147-2.147","qdne7zrt6yogwtk",8,"16.csv","","null","resources/images/coin2.png","null","",NA,NA,NA,NA,""
"image-keyboard-response",455,394942,"0.0-3.148-0.148","qdne7zrt6yogwtk",8,"16.csv","","1408","resources/trios/L1T1A3.jpg","39","restless",0.6,0.6,0.7,0.489652541201367,"true"
"image-keyboard-response",456,395349,"0.0-3.148-1.148","qdne7zrt6yogwtk",8,"16.csv","","null","resources/maskTrios/BBA3.jpg","null","",NA,NA,NA,NA,""
"image-keyboard-response",457,396554,"0.0-3.148-2.148","qdne7zrt6yogwtk",8,"16.csv","","null","resources/images/coin2.png","null","",NA,NA,NA,NA,""
"image-keyboard-response",458,396882,"0.0-3.149-0.149","qdne7zrt6yogwtk",8,"16.csv","","327","resources/trios/L1T4A2.jpg","39","restless",0.6,0.7,0.7,0.491021724578392,"true"
"image-keyboard-response",459,397287,"0.0-3.149-1.149","qdne7zrt6yogwtk",8,"16.csv","","null","resources/maskTrios/BBA2.jpg","null","",NA,NA,NA,NA,""
"image-keyboard-response",460,398490,"0.0-3.149-2.149","qdne7zrt6yogwtk",8,"16.csv","","null","resources/images/coin2.png","null","",NA,NA,NA,NA,""
"image-keyboard-response",461,398958,"0.0-3.150-0.150","qdne7zrt6yogwtk",8,"16.csv","","467","resources/trios/L2T1A2.jpg","39","restless",0.6,0.7,0.7,0.928457211707581,"false"
"image-keyboard-response",462,399363,"0.0-3.150-1.150","qdne7zrt6yogwtk",8,"16.csv","","null","resources/maskTrios/BBA2.jpg","null","",NA,NA,NA,NA,""
"image-keyboard-response",463,400568,"0.0-3.150-2.150","qdne7zrt6yogwtk",8,"16.csv","","null","resources/images/fishbone.png","null","",NA,NA,NA,NA,""
"image-keyboard-response",464,400949,"0.0-3.151-0.151","qdne7zrt6yogwtk",8,"16.csv","","378.0000000000582","resources/trios/L2T4A2.jpg","37","restless",0.6,0.7,0.7,0.254529206203545,"true"
"image-keyboard-response",465,401353,"0.0-3.151-1.151","qdne7zrt6yogwtk",8,"16.csv","","null","resources/maskTrios/L2BB.jpg","null","",NA,NA,NA,NA,""
"image-keyboard-response",466,402561,"0.0-3.151-2.151","qdne7zrt6yogwtk",8,"16.csv","","null","resources/images/coin2.png","null","",NA,NA,NA,NA,""
"image-keyboard-response",467,402945,"0.0-3.152-0.152","qdne7zrt6yogwtk",8,"16.csv","","382","resources/trios/L1T4A3.jpg","37","restless",0.6,0.7,0.7,0.552429518323694,"true"
"image-keyboard-response",468,403350,"0.0-3.152-1.152","qdne7zrt6yogwtk",8,"16.csv","","null","resources/maskTrios/L1BB.jpg","null","",NA,NA,NA,NA,""
"image-keyboard-response",469,404553,"0.0-3.152-2.152","qdne7zrt6yogwtk",8,"16.csv","","null","resources/images/coin2.png","null","",NA,NA,NA,NA,""
"image-keyboard-response",470,404945,"0.0-3.153-0.153","qdne7zrt6yogwtk",8,"16.csv","","391","resources/trios/L2T1A2.jpg","37","restless",0.6,0.7,0.7,0.129673278769616,"true"
"image-keyboard-response",471,405348,"0.0-3.153-1.153","qdne7zrt6yogwtk",8,"16.csv","","null","resources/maskTrios/L2BB.jpg","null","",NA,NA,NA,NA,""
"image-keyboard-response",472,406553,"0.0-3.153-2.153","qdne7zrt6yogwtk",8,"16.csv","","null","resources/images/coin2.png","null","",NA,NA,NA,NA,""
"image-keyboard-response",473,406855,"0.0-3.154-0.154","qdne7zrt6yogwtk",8,"16.csv","","301","resources/trios/L2T4A3.jpg","37","restless",0.6,0.7,0.7,0.964340840254117,"false"
"image-keyboard-response",474,407263,"0.0-3.154-1.154","qdne7zrt6yogwtk",8,"16.csv","","null","resources/maskTrios/L2BB.jpg","null","",NA,NA,NA,NA,""
"image-keyboard-response",475,408468,"0.0-3.154-2.154","qdne7zrt6yogwtk",8,"16.csv","","null","resources/images/fishbone.png","null","",NA,NA,NA,NA,""
"image-keyboard-response",476,408973,"0.0-3.155-0.155","qdne7zrt6yogwtk",8,"16.csv","","502.0000000000582","resources/trios/L1T4A3.jpg","38","restless",0.6,0.8,0.7,0.434637120347533,"true"
"image-keyboard-response",477,409377,"0.0-3.155-1.155","qdne7zrt6yogwtk",8,"16.csv","","null","resources/maskTrios/BT4B.jpg","null","",NA,NA,NA,NA,""
"image-keyboard-response",478,410583,"0.0-3.155-2.155","qdne7zrt6yogwtk",8,"16.csv","","null","resources/images/coin2.png","null","",NA,NA,NA,NA,""
"image-keyboard-response",479,410866,"0.0-3.156-0.156","qdne7zrt6yogwtk",8,"16.csv","","281","resources/trios/L2T4A2.jpg","38","restless",0.5,0.8,0.6,0.20191952683179,"true"
"image-keyboard-response",480,411270,"0.0-3.156-1.156","qdne7zrt6yogwtk",8,"16.csv","","null","resources/maskTrios/BT4B.jpg","null","",NA,NA,NA,NA,""
"image-keyboard-response",481,412474,"0.0-3.156-2.156","qdne7zrt6yogwtk",8,"16.csv","","null","resources/images/coin2.png","null","",NA,NA,NA,NA,""
"image-keyboard-response",482,412859,"0.0-3.157-0.157","qdne7zrt6yogwtk",8,"16.csv","","381.0000000000582","resources/trios/L1T4A2.jpg","38","restless",0.5,0.8,0.6,0.697745433771474,"true"
"image-keyboard-response",483,413264,"0.0-3.157-1.157","qdne7zrt6yogwtk",8,"16.csv","","null","resources/maskTrios/BT4B.jpg","null","",NA,NA,NA,NA,""
"image-keyboard-response",484,414469,"0.0-3.157-2.157","qdne7zrt6yogwtk",8,"16.csv","","null","resources/images/coin2.png","null","",NA,NA,NA,NA,""
"image-keyboard-response",485,414685,"0.0-3.158-0.158","qdne7zrt6yogwtk",8,"16.csv","","214","resources/trios/L2T1A2.jpg","38","restless",0.4,0.8,0.6,0.03832930911048,"true"
"image-keyboard-response",486,415090,"0.0-3.158-1.158","qdne7zrt6yogwtk",8,"16.csv","","null","resources/maskTrios/BT1B.jpg","null","",NA,NA,NA,NA,""
"image-keyboard-response",487,416293,"0.0-3.158-2.158","qdne7zrt6yogwtk",8,"16.csv","","null","resources/images/coin2.png","null","",NA,NA,NA,NA,""
"image-keyboard-response",488,416651,"0.0-3.159-0.159","qdne7zrt6yogwtk",8,"16.csv","","356","resources/trios/L2T4A2.jpg","38","restless",0.4,0.8,0.6,0.128778658854518,"true"
"image-keyboard-response",489,417054,"0.0-3.159-1.159","qdne7zrt6yogwtk",8,"16.csv","","null","resources/maskTrios/BT4B.jpg","null","",NA,NA,NA,NA,""
"image-keyboard-response",490,418259,"0.0-3.159-2.159","qdne7zrt6yogwtk",8,"16.csv","","null","resources/images/coin2.png","null","",NA,NA,NA,NA,""
"image-keyboard-response",491,418672,"0.0-3.160-0.160","qdne7zrt6yogwtk",8,"16.csv","","407","resources/trios/L2T1A2.jpg","38","restless",0.4,0.8,0.6,0.993810249478878,"false"
"image-keyboard-response",492,419077,"0.0-3.160-1.160","qdne7zrt6yogwtk",8,"16.csv","","null","resources/maskTrios/BT1B.jpg","null","",NA,NA,NA,NA,""
"image-keyboard-response",493,420282,"0.0-3.160-2.160","qdne7zrt6yogwtk",8,"16.csv","","null","resources/images/fishbone.png","null","",NA,NA,NA,NA,""
"image-keyboard-response",494,420692,"0.0-3.161-0.161","qdne7zrt6yogwtk",8,"16.csv","","408","resources/trios/L1T4A3.jpg","38","restless",0.4,0.8,0.6,0.15202458907651,"true"
"image-keyboard-response",495,421094,"0.0-3.161-1.161","qdne7zrt6yogwtk",8,"16.csv","","null","resources/maskTrios/BT4B.jpg","null","",NA,NA,NA,NA,""
"image-keyboard-response",496,422299,"0.0-3.161-2.161","qdne7zrt6yogwtk",8,"16.csv","","null","resources/images/coin2.png","null","",NA,NA,NA,NA,""
"image-keyboard-response",497,422650,"0.0-3.162-0.162","qdne7zrt6yogwtk",8,"16.csv","","350","resources/trios/L2T4A3.jpg","38","restless",0.3,0.8,0.5,0.979242585105076,"false"
"image-keyboard-response",498,423055,"0.0-3.162-1.162","qdne7zrt6yogwtk",8,"16.csv","","null","resources/maskTrios/BT4B.jpg","null","",NA,NA,NA,NA,""
"image-keyboard-response",499,424260,"0.0-3.162-2.162","qdne7zrt6yogwtk",8,"16.csv","","null","resources/images/fishbone.png","null","",NA,NA,NA,NA,""
"image-keyboard-response",500,424601,"0.0-3.163-0.163","qdne7zrt6yogwtk",8,"16.csv","","337.0000000000582","resources/trios/L1T1A2.jpg","39","restless",0.3,0.8,0.5,0.563727999539502,"false"
"image-keyboard-response",501,425004,"0.0-3.163-1.163","qdne7zrt6yogwtk",8,"16.csv","","null","resources/maskTrios/BBA2.jpg","null","",NA,NA,NA,NA,""
"image-keyboard-response",502,426209,"0.0-3.163-2.163","qdne7zrt6yogwtk",8,"16.csv","","null","resources/images/fishbone.png","null","",NA,NA,NA,NA,""
"image-keyboard-response",503,426415,"0.0-3.164-0.164","qdne7zrt6yogwtk",8,"16.csv","","204","resources/trios/L1T1A3.jpg","37","restless",0.3,0.7,0.5,0.133640571808531,"true"
"image-keyboard-response",504,426820,"0.0-3.164-1.164","qdne7zrt6yogwtk",8,"16.csv","","null","resources/maskTrios/L1BB.jpg","null","",NA,NA,NA,NA,""
"image-keyboard-response",505,428023,"0.0-3.164-2.164","qdne7zrt6yogwtk",8,"16.csv","","null","resources/images/coin2.png","null","",NA,NA,NA,NA,""
"image-keyboard-response",506,428368,"0.0-3.165-0.165","qdne7zrt6yogwtk",8,"16.csv","","343.9999999999418","resources/trios/L1T1A3.jpg","37","restless",0.3,0.7,0.5,0.585682679872061,"false"
"image-keyboard-response",507,428771,"0.0-3.165-1.165","qdne7zrt6yogwtk",8,"16.csv","","null","resources/maskTrios/L1BB.jpg","null","",NA,NA,NA,NA,""
"image-keyboard-response",508,429974,"0.0-3.165-2.165","qdne7zrt6yogwtk",8,"16.csv","","null","resources/images/fishbone.png","null","",NA,NA,NA,NA,""
"image-keyboard-response",509,430466,"0.0-3.166-0.166","qdne7zrt6yogwtk",8,"16.csv","","488.9999999999418","resources/trios/L2T4A2.jpg","38","restless",0.2,0.7,0.5,0.748711467558759,"false"
"image-keyboard-response",510,430868,"0.0-3.166-1.166","qdne7zrt6yogwtk",8,"16.csv","","null","resources/maskTrios/BT4B.jpg","null","",NA,NA,NA,NA,""
"image-keyboard-response",511,432071,"0.0-3.166-2.166","qdne7zrt6yogwtk",8,"16.csv","","null","resources/images/fishbone.png","null","",NA,NA,NA,NA,""
"image-keyboard-response",512,432363,"0.0-3.167-0.167","qdne7zrt6yogwtk",8,"16.csv","","290.0000000000582","resources/trios/L1T1A3.jpg","39","restless",0.2,0.7,0.5,0.769902285215882,"false"
"image-keyboard-response",513,432768,"0.0-3.167-1.167","qdne7zrt6yogwtk",8,"16.csv","","null","resources/maskTrios/BBA3.jpg","null","",NA,NA,NA,NA,""
"image-keyboard-response",514,433973,"0.0-3.167-2.167","qdne7zrt6yogwtk",8,"16.csv","","null","resources/images/fishbone.png","null","",NA,NA,NA,NA,""
"image-keyboard-response",515,434255,"0.0-3.168-0.168","qdne7zrt6yogwtk",8,"16.csv","","278","resources/trios/L2T4A2.jpg","39","restless",0.2,0.7,0.5,0.508868659556484,"false"
"image-keyboard-response",516,434659,"0.0-3.168-1.168","qdne7zrt6yogwtk",8,"16.csv","","null","resources/maskTrios/BBA2.jpg","null","",NA,NA,NA,NA,""
"image-keyboard-response",517,435861,"0.0-3.168-2.168","qdne7zrt6yogwtk",8,"16.csv","","null","resources/images/fishbone.png","null","",NA,NA,NA,NA,""
"image-keyboard-response",518,436210,"0.0-3.169-0.169","qdne7zrt6yogwtk",8,"16.csv","","346.9999999999418","resources/trios/L2T4A2.jpg","39","restless",0.2,0.7,0.5,0.345013679602364,"true"
"image-keyboard-response",519,436612,"0.0-3.169-1.169","qdne7zrt6yogwtk",8,"16.csv","","null","resources/maskTrios/BBA2.jpg","null","",NA,NA,NA,NA,""
"image-keyboard-response",520,437817,"0.0-3.169-2.169","qdne7zrt6yogwtk",8,"16.csv","","null","resources/images/coin2.png","null","",NA,NA,NA,NA,""
"image-keyboard-response",521,438079,"0.0-3.170-0.170","qdne7zrt6yogwtk",8,"16.csv","","260","resources/trios/L1T1A3.jpg","39","restless",0.2,0.7,0.5,0.512347821197699,"false"
"image-keyboard-response",522,438484,"0.0-3.170-1.170","qdne7zrt6yogwtk",8,"16.csv","","null","resources/maskTrios/BBA3.jpg","null","",NA,NA,NA,NA,""
"image-keyboard-response",523,439689,"0.0-3.170-2.170","qdne7zrt6yogwtk",8,"16.csv","","null","resources/images/fishbone.png","null","",NA,NA,NA,NA,""
"image-keyboard-response",524,439785,"0.0-3.171-0.171","qdne7zrt6yogwtk",8,"16.csv","","94","resources/trios/L1T4A3.jpg","39","restless",0.2,0.7,0.5,0.815290843228824,"false"
"image-keyboard-response",525,440188,"0.0-3.171-1.171","qdne7zrt6yogwtk",8,"16.csv","","null","resources/maskTrios/BBA3.jpg","null","",NA,NA,NA,NA,""
"image-keyboard-response",526,441393,"0.0-3.171-2.171","qdne7zrt6yogwtk",8,"16.csv","","null","resources/images/fishbone.png","null","",NA,NA,NA,NA,""
"image-keyboard-response",527,442361,"0.0-3.172-0.172","qdne7zrt6yogwtk",8,"16.csv","","966","resources/trios/L2T4A2.jpg","39","restless",0.2,0.7,0.6,0.257247069644629,"true"
"image-keyboard-response",528,442766,"0.0-3.172-1.172","qdne7zrt6yogwtk",8,"16.csv","","null","resources/maskTrios/BBA2.jpg","null","",NA,NA,NA,NA,""
"image-keyboard-response",529,443969,"0.0-3.172-2.172","qdne7zrt6yogwtk",8,"16.csv","","null","resources/images/coin2.png","null","",NA,NA,NA,NA,""
"image-keyboard-response",530,444243,"0.0-3.173-0.173","qdne7zrt6yogwtk",8,"16.csv","","269","resources/trios/L2T4A2.jpg","39","restless",0.2,0.7,0.6,0.666624548021264,"false"
"image-keyboard-response",531,444647,"0.0-3.173-1.173","qdne7zrt6yogwtk",8,"16.csv","","null","resources/maskTrios/BBA2.jpg","null","",NA,NA,NA,NA,""
"image-keyboard-response",532,445853,"0.0-3.173-2.173","qdne7zrt6yogwtk",8,"16.csv","","null","resources/images/fishbone.png","null","",NA,NA,NA,NA,""
"image-keyboard-response",533,446107,"0.0-3.174-0.174","qdne7zrt6yogwtk",8,"16.csv","","252","resources/trios/L1T4A3.jpg","39","restless",0.2,0.7,0.6,0.367827806468434,"true"
"image-keyboard-response",534,446512,"0.0-3.174-1.174","qdne7zrt6yogwtk",8,"16.csv","","null","resources/maskTrios/BBA3.jpg","null","",NA,NA,NA,NA,""
"image-keyboard-response",535,447717,"0.0-3.174-2.174","qdne7zrt6yogwtk",8,"16.csv","","null","resources/images/coin2.png","null","",NA,NA,NA,NA,""
"image-keyboard-response",536,448051,"0.0-3.175-0.175","qdne7zrt6yogwtk",8,"16.csv","","333","resources/trios/L2T1A3.jpg","39","restless",0.2,0.7,0.6,0.147218902591663,"true"
"image-keyboard-response",537,448456,"0.0-3.175-1.175","qdne7zrt6yogwtk",8,"16.csv","","null","resources/maskTrios/BBA3.jpg","null","",NA,NA,NA,NA,""
"image-keyboard-response",538,449661,"0.0-3.175-2.175","qdne7zrt6yogwtk",8,"16.csv","","null","resources/images/coin2.png","null","",NA,NA,NA,NA,""
"image-keyboard-response",539,449956,"0.0-3.176-0.176","qdne7zrt6yogwtk",8,"16.csv","","289","resources/trios/L1T1A3.jpg","39","restless",0.2,0.7,0.6,0.138345300394171,"true"
"image-keyboard-response",540,450361,"0.0-3.176-1.176","qdne7zrt6yogwtk",8,"16.csv","","null","resources/maskTrios/BBA3.jpg","null","",NA,NA,NA,NA,""
"image-keyboard-response",541,451567,"0.0-3.176-2.176","qdne7zrt6yogwtk",8,"16.csv","","null","resources/images/coin2.png","null","",NA,NA,NA,NA,""
"image-keyboard-response",542,451907,"0.0-3.177-0.177","qdne7zrt6yogwtk",8,"16.csv","","339","resources/trios/L2T4A2.jpg","39","restless",0.2,0.7,0.6,0.0439283052839567,"true"
"image-keyboard-response",543,452310,"0.0-3.177-1.177","qdne7zrt6yogwtk",8,"16.csv","","null","resources/maskTrios/BBA2.jpg","null","",NA,NA,NA,NA,""
"image-keyboard-response",544,453512,"0.0-3.177-2.177","qdne7zrt6yogwtk",8,"16.csv","","null","resources/images/coin2.png","null","",NA,NA,NA,NA,""
"image-keyboard-response",545,454300,"0.0-3.178-0.178","qdne7zrt6yogwtk",8,"16.csv","","786","resources/trios/L1T1A3.jpg","39","restless",0.2,0.7,0.6,0.934115195692177,"false"
"image-keyboard-response",546,454705,"0.0-3.178-1.178","qdne7zrt6yogwtk",8,"16.csv","","null","resources/maskTrios/BBA3.jpg","null","",NA,NA,NA,NA,""
"image-keyboard-response",547,455908,"0.0-3.178-2.178","qdne7zrt6yogwtk",8,"16.csv","","null","resources/images/fishbone.png","null","",NA,NA,NA,NA,""
"image-keyboard-response",548,456346,"0.0-3.179-0.179","qdne7zrt6yogwtk",8,"16.csv","","435.9999999999418","resources/trios/L2T4A2.jpg","39","restless",0.2,0.7,0.6,0.39980781484889,"true"
"image-keyboard-response",549,456750,"0.0-3.179-1.179","qdne7zrt6yogwtk",8,"16.csv","","null","resources/maskTrios/BBA2.jpg","null","",NA,NA,NA,NA,""
"image-keyboard-response",550,457957,"0.0-3.179-2.179","qdne7zrt6yogwtk",8,"16.csv","","null","resources/images/coin2.png","null","",NA,NA,NA,NA,""
"image-keyboard-response",551,458325,"0.0-3.180-0.180","qdne7zrt6yogwtk",8,"16.csv","","366.9999999999418","resources/trios/L1T4A3.jpg","39","restless",0.2,0.7,0.6,0.599329898164627,"true"
"image-keyboard-response",552,458730,"0.0-3.180-1.180","qdne7zrt6yogwtk",8,"16.csv","","null","resources/maskTrios/BBA3.jpg","null","",NA,NA,NA,NA,""
"image-keyboard-response",553,459935,"0.0-3.180-2.180","qdne7zrt6yogwtk",8,"16.csv","","null","resources/images/coin2.png","null","",NA,NA,NA,NA,""
"image-keyboard-response",554,460255,"0.0-3.181-0.181","qdne7zrt6yogwtk",8,"16.csv","","317","resources/trios/L1T4A3.jpg","39","restless",0.2,0.7,0.6,0.400352236538823,"true"
"image-keyboard-response",555,460660,"0.0-3.181-1.181","qdne7zrt6yogwtk",8,"16.csv","","null","resources/maskTrios/BBA3.jpg","null","",NA,NA,NA,NA,""
"image-keyboard-response",556,461866,"0.0-3.181-2.181","qdne7zrt6yogwtk",8,"16.csv","","null","resources/images/coin2.png","null","",NA,NA,NA,NA,""
"image-keyboard-response",557,462215,"0.0-3.182-0.182","qdne7zrt6yogwtk",8,"16.csv","","347","resources/trios/L2T4A2.jpg","39","restless",0.2,0.7,0.6,0.643182317082029,"false"
"image-keyboard-response",558,462619,"0.0-3.182-1.182","qdne7zrt6yogwtk",8,"16.csv","","null","resources/maskTrios/BBA2.jpg","null","",NA,NA,NA,NA,""
"image-keyboard-response",559,463823,"0.0-3.182-2.182","qdne7zrt6yogwtk",8,"16.csv","","null","resources/images/fishbone.png","null","",NA,NA,NA,NA,""
"image-keyboard-response",560,464127,"0.0-3.183-0.183","qdne7zrt6yogwtk",8,"16.csv","","303","resources/trios/L2T1A3.jpg","39","restless",0.2,0.7,0.6,0.502574467662575,"true"
"image-keyboard-response",561,464530,"0.0-3.183-1.183","qdne7zrt6yogwtk",8,"16.csv","","null","resources/maskTrios/BBA3.jpg","null","",NA,NA,NA,NA,""
"image-keyboard-response",562,465733,"0.0-3.183-2.183","qdne7zrt6yogwtk",8,"16.csv","","null","resources/images/coin2.png","null","",NA,NA,NA,NA,""
"image-keyboard-response",563,466480,"0.0-3.184-0.184","qdne7zrt6yogwtk",8,"16.csv","","745","resources/trios/L2T4A3.jpg","39","restless",0.2,0.7,0.5,0.826027120705066,"false"
"image-keyboard-response",564,466883,"0.0-3.184-1.184","qdne7zrt6yogwtk",8,"16.csv","","null","resources/maskTrios/BBA3.jpg","null","",NA,NA,NA,NA,""
"image-keyboard-response",565,468088,"0.0-3.184-2.184","qdne7zrt6yogwtk",8,"16.csv","","null","resources/images/fishbone.png","null","",NA,NA,NA,NA,""
"image-keyboard-response",566,472015,"0.0-3.185-0.185","qdne7zrt6yogwtk",8,"16.csv","","3925","resources/trios/L2T1A3.jpg","39","restless",0.2,0.7,0.5,0.255585696754613,"true"
"image-keyboard-response",567,472418,"0.0-3.185-1.185","qdne7zrt6yogwtk",8,"16.csv","","null","resources/maskTrios/BBA3.jpg","null","",NA,NA,NA,NA,""
"image-keyboard-response",568,473620,"0.0-3.185-2.185","qdne7zrt6yogwtk",8,"16.csv","","null","resources/images/coin2.png","null","",NA,NA,NA,NA,""
"image-keyboard-response",569,474693,"0.0-3.186-0.186","qdne7zrt6yogwtk",8,"16.csv","","1070","resources/trios/L1T4A2.jpg","39","restless",0.2,0.7,0.5,0.774825756500699,"false"
"image-keyboard-response",570,475096,"0.0-3.186-1.186","qdne7zrt6yogwtk",8,"16.csv","","null","resources/maskTrios/BBA2.jpg","null","",NA,NA,NA,NA,""
"image-keyboard-response",571,476299,"0.0-3.186-2.186","qdne7zrt6yogwtk",8,"16.csv","","null","resources/images/fishbone.png","null","",NA,NA,NA,NA,""
"image-keyboard-response",572,477414,"0.0-3.187-0.187","qdne7zrt6yogwtk",8,"16.csv","","1114","resources/trios/L1T1A2.jpg","39","restless",0.2,0.7,0.5,0.27381570584222,"true"
"image-keyboard-response",573,477817,"0.0-3.187-1.187","qdne7zrt6yogwtk",8,"16.csv","","null","resources/maskTrios/BBA2.jpg","null","",NA,NA,NA,NA,""
"image-keyboard-response",574,479021,"0.0-3.187-2.187","qdne7zrt6yogwtk",8,"16.csv","","null","resources/images/coin2.png","null","",NA,NA,NA,NA,""
"image-keyboard-response",575,479152,"0.0-3.188-0.188","qdne7zrt6yogwtk",8,"16.csv","","128","resources/trios/L1T4A2.jpg","39","restless",0.3,0.7,0.5,0.990612945943458,"false"
"image-keyboard-response",576,479554,"0.0-3.188-1.188","qdne7zrt6yogwtk",8,"16.csv","","null","resources/maskTrios/BBA2.jpg","null","",NA,NA,NA,NA,""
"image-keyboard-response",577,480759,"0.0-3.188-2.188","qdne7zrt6yogwtk",8,"16.csv","","null","resources/images/fishbone.png","null","",NA,NA,NA,NA,""
"image-keyboard-response",578,480845,"0.0-3.189-0.189","qdne7zrt6yogwtk",8,"16.csv","","84","resources/trios/L2T4A3.jpg","39","restless",0.3,0.7,0.5,0.653305499244732,"false"
"image-keyboard-response",579,481247,"0.0-3.189-1.189","qdne7zrt6yogwtk",8,"16.csv","","null","resources/maskTrios/BBA3.jpg","null","",NA,NA,NA,NA,""
"image-keyboard-response",580,482450,"0.0-3.189-2.189","qdne7zrt6yogwtk",8,"16.csv","","null","resources/images/fishbone.png","null","",NA,NA,NA,NA,""
"image-keyboard-response",581,482677,"0.0-3.190-0.190","qdne7zrt6yogwtk",8,"16.csv","","223.9999999999418","resources/trios/L2T1A2.jpg","39","restless",0.3,0.7,0.5,0.705606539818032,"false"
"image-keyboard-response",582,483079,"0.0-3.190-1.190","qdne7zrt6yogwtk",8,"16.csv","","null","resources/maskTrios/BBA2.jpg","null","",NA,NA,NA,NA,""
"image-keyboard-response",583,484281,"0.0-3.190-2.190","qdne7zrt6yogwtk",8,"16.csv","","null","resources/images/fishbone.png","null","",NA,NA,NA,NA,""
"image-keyboard-response",584,484419,"0.0-3.191-0.191","qdne7zrt6yogwtk",8,"16.csv","","136","resources/trios/L2T4A2.jpg","39","restless",0.3,0.7,0.5,0.243853313719987,"true"
"image-keyboard-response",585,484821,"0.0-3.191-1.191","qdne7zrt6yogwtk",8,"16.csv","","null","resources/maskTrios/BBA2.jpg","null","",NA,NA,NA,NA,""
"image-keyboard-response",586,486024,"0.0-3.191-2.191","qdne7zrt6yogwtk",8,"16.csv","","null","resources/images/coin2.png","null","",NA,NA,NA,NA,""
"image-keyboard-response",587,486028,"0.0-3.192-0.192","qdne7zrt6yogwtk",8,"16.csv","","2","resources/trios/L2T4A2.jpg","39","restless",0.4,0.7,0.5,0.709235410575046,"false"
"image-keyboard-response",588,486433,"0.0-3.192-1.192","qdne7zrt6yogwtk",8,"16.csv","","null","resources/maskTrios/BBA2.jpg","null","",NA,NA,NA,NA,""
"image-keyboard-response",589,487638,"0.0-3.192-2.192","qdne7zrt6yogwtk",8,"16.csv","","null","resources/images/fishbone.png","null","",NA,NA,NA,NA,""
"image-keyboard-response",590,487674,"0.0-3.193-0.193","qdne7zrt6yogwtk",8,"16.csv","","31.999999999941792","resources/trios/L2T4A2.jpg","39","restless",0.4,0.8,0.5,0.520883819888784,"false"
"image-keyboard-response",591,488079,"0.0-3.193-1.193","qdne7zrt6yogwtk",8,"16.csv","","null","resources/maskTrios/BBA2.jpg","null","",NA,NA,NA,NA,""
"image-keyboard-response",592,489284,"0.0-3.193-2.193","qdne7zrt6yogwtk",8,"16.csv","","null","resources/images/fishbone.png","null","",NA,NA,NA,NA,""
"image-keyboard-response",593,489403,"0.0-3.194-0.194","qdne7zrt6yogwtk",8,"16.csv","","117","resources/trios/L1T4A3.jpg","39","restless",0.4,0.8,0.5,0.415590465477351,"true"
"image-keyboard-response",594,489806,"0.0-3.194-1.194","qdne7zrt6yogwtk",8,"16.csv","","null","resources/maskTrios/BBA3.jpg","null","",NA,NA,NA,NA,""
"image-keyboard-response",595,491008,"0.0-3.194-2.194","qdne7zrt6yogwtk",8,"16.csv","","null","resources/images/coin2.png","null","",NA,NA,NA,NA,""
"image-keyboard-response",596,491167,"0.0-3.195-0.195","qdne7zrt6yogwtk",8,"16.csv","","158","resources/trios/L2T4A2.jpg","39","restless",0.4,0.8,0.5,0.723850188183515,"false"
"image-keyboard-response",597,491569,"0.0-3.195-1.195","qdne7zrt6yogwtk",8,"16.csv","","null","resources/maskTrios/BBA2.jpg","null","",NA,NA,NA,NA,""
"image-keyboard-response",598,492776,"0.0-3.195-2.195","qdne7zrt6yogwtk",8,"16.csv","","null","resources/images/fishbone.png","null","",NA,NA,NA,NA,""
"image-keyboard-response",599,492850,"0.0-3.196-0.196","qdne7zrt6yogwtk",8,"16.csv","","70.99999999994179","resources/trios/L2T1A3.jpg","39","restless",0.4,0.7,0.5,0.955919521332519,"false"
"image-keyboard-response",600,493255,"0.0-3.196-1.196","qdne7zrt6yogwtk",8,"16.csv","","null","resources/maskTrios/BBA3.jpg","null","",NA,NA,NA,NA,""
"image-keyboard-response",601,494460,"0.0-3.196-2.196","qdne7zrt6yogwtk",8,"16.csv","","null","resources/images/fishbone.png","null","",NA,NA,NA,NA,""
"image-keyboard-response",602,494653,"0.0-3.197-0.197","qdne7zrt6yogwtk",8,"16.csv","","188","resources/trios/L1T1A2.jpg","39","restless",0.4,0.7,0.5,0.593035490495385,"false"
"image-keyboard-response",603,495058,"0.0-3.197-1.197","qdne7zrt6yogwtk",8,"16.csv","","null","resources/maskTrios/BBA2.jpg","null","",NA,NA,NA,NA,""
"image-keyboard-response",604,496260,"0.0-3.197-2.197","qdne7zrt6yogwtk",8,"16.csv","","null","resources/images/fishbone.png","null","",NA,NA,NA,NA,""
"image-keyboard-response",605,496261,"0.0-3.198-0.198","qdne7zrt6yogwtk",8,"16.csv","","0","resources/trios/L1T1A3.jpg","39","restless",0.4,0.7,0.5,0.439792359032558,"true"
"image-keyboard-response",606,496666,"0.0-3.198-1.198","qdne7zrt6yogwtk",8,"16.csv","","null","resources/maskTrios/BBA3.jpg","null","",NA,NA,NA,NA,""
"image-keyboard-response",607,497871,"0.0-3.198-2.198","qdne7zrt6yogwtk",8,"16.csv","","null","resources/images/coin2.png","null","",NA,NA,NA,NA,""
"image-keyboard-response",608,498061,"0.0-3.199-0.199","qdne7zrt6yogwtk",8,"16.csv","","187.9999999999418","resources/trios/L1T4A3.jpg","39","restless",0.4,0.7,0.5,0.916391290462853,"false"
"image-keyboard-response",609,498465,"0.0-3.199-1.199","qdne7zrt6yogwtk",8,"16.csv","","null","resources/maskTrios/BBA3.jpg","null","",NA,NA,NA,NA,""
"image-keyboard-response",610,499670,"0.0-3.199-2.199","qdne7zrt6yogwtk",8,"16.csv","","null","resources/images/fishbone.png","null","",NA,NA,NA,NA,""
"image-keyboard-response",611,499838,"0.0-3.200-0.200","qdne7zrt6yogwtk",8,"16.csv","","166","resources/trios/L1T1A2.jpg","39","restless",0.4,0.7,0.5,0.574551291623746,"false"
"image-keyboard-response",612,500242,"0.0-3.200-1.200","qdne7zrt6yogwtk",8,"16.csv","","null","resources/maskTrios/BBA2.jpg","null","",NA,NA,NA,NA,""
"image-keyboard-response",613,501447,"0.0-3.200-2.200","qdne7zrt6yogwtk",8,"16.csv","","null","resources/images/fishbone.png","null","",NA,NA,NA,NA,""
"image-keyboard-response",614,501488,"0.0-3.201-0.201","qdne7zrt6yogwtk",8,"16.csv","","38.99999999994179","resources/trios/L1T1A2.jpg","39","restless",0.4,0.7,0.5,0.451704748640078,"true"
"image-keyboard-response",615,501893,"0.0-3.201-1.201","qdne7zrt6yogwtk",8,"16.csv","","null","resources/maskTrios/BBA2.jpg","null","",NA,NA,NA,NA,""
"image-keyboard-response",616,503098,"0.0-3.201-2.201","qdne7zrt6yogwtk",8,"16.csv","","null","resources/images/coin2.png","null","",NA,NA,NA,NA,""
"image-keyboard-response",617,503300,"0.0-3.202-0.202","qdne7zrt6yogwtk",8,"16.csv","","198","resources/trios/L2T4A2.jpg","39","restless",0.4,0.7,0.5,0.308112508260044,"true"
"image-keyboard-response",618,503703,"0.0-3.202-1.202","qdne7zrt6yogwtk",8,"16.csv","","null","resources/maskTrios/BBA2.jpg","null","",NA,NA,NA,NA,""
"image-keyboard-response",619,504905,"0.0-3.202-2.202","qdne7zrt6yogwtk",8,"16.csv","","null","resources/images/coin2.png","null","",NA,NA,NA,NA,""
"image-keyboard-response",620,505025,"0.0-3.203-0.203","qdne7zrt6yogwtk",8,"16.csv","","116.99999999994179","resources/trios/L2T4A3.jpg","39","restless",0.4,0.7,0.5,0.637196050346573,"false"
"image-keyboard-response",621,505429,"0.0-3.203-1.203","qdne7zrt6yogwtk",8,"16.csv","","null","resources/maskTrios/BBA3.jpg","null","",NA,NA,NA,NA,""
"image-keyboard-response",622,506631,"0.0-3.203-2.203","qdne7zrt6yogwtk",8,"16.csv","","null","resources/images/fishbone.png","null","",NA,NA,NA,NA,""
"image-keyboard-response",623,506666,"0.0-3.204-0.204","qdne7zrt6yogwtk",8,"16.csv","","33.00000000005821","resources/trios/L1T4A3.jpg","39","restless",0.4,0.7,0.5,0.430532747381169,"true"
"image-keyboard-response",624,507068,"0.0-3.204-1.204","qdne7zrt6yogwtk",8,"16.csv","","null","resources/maskTrios/BBA3.jpg","null","",NA,NA,NA,NA,""
"image-keyboard-response",625,508270,"0.0-3.204-2.204","qdne7zrt6yogwtk",8,"16.csv","","null","resources/images/coin2.png","null","",NA,NA,NA,NA,""
"image-keyboard-response",626,508487,"0.0-3.205-0.205","qdne7zrt6yogwtk",8,"16.csv","","217","resources/trios/L2T1A2.jpg","39","restless",0.4,0.8,0.5,0.0710497769758336,"true"
"image-keyboard-response",627,508893,"0.0-3.205-1.205","qdne7zrt6yogwtk",8,"16.csv","","null","resources/maskTrios/BBA2.jpg","null","",NA,NA,NA,NA,""
