"trial_type","trial_index","time_elapsed","internal_node_id","subject","participantCode","walkNumber","success","rt","stimulus","key_press","test_part","leftProb","midProb","rightProb","generatedNum","correct"
"pavlovia",0,1005,"0.0-0.0","kxgbh2g2qsksukj",547,"26.csv","","","","","",NA,NA,NA,NA,""
"fullscreen",1,5033,"0.0-1.0","kxgbh2g2qsksukj",547,"26.csv","true","","","","",NA,NA,NA,NA,""
"html-keyboard-response",2,27675,"0.0-2.0-0.0","kxgbh2g2qsksukj",547,"26.csv","","22640.200000047684","<p><font size='6'>Arrrgh!</p></font><p>Can you be the best pirate? Try to find lots of gold! But beware, some islands have more gold than others, and over time, the island with the most gold may change. Can YOU figure it out? </p><font size='6'>GOOD LUCK, CAPTAIN!!!</font><p>Press any key to begin</p>","32","",NA,NA,NA,NA,""
"image-keyboard-response",3,30682,"0.0-2.0-1.0","kxgbh2g2qsksukj",547,"26.csv","","null","resources/image_sets/111.png","null","",NA,NA,NA,NA,""
"image-keyboard-response",4,41652,"0.0-2.0-2.0","kxgbh2g2qsksukj",547,"26.csv","","10968.100000023842","resources/image_sets/left_highlight.png","37","",NA,NA,NA,NA,""
"image-keyboard-response",5,45665,"0.0-2.0-3.0","kxgbh2g2qsksukj",547,"26.csv","","4010.2000000476837","resources/image_sets/mid_highlight.png","38","",NA,NA,NA,NA,""
"image-keyboard-response",6,48311,"0.0-2.0-4.0","kxgbh2g2qsksukj",547,"26.csv","","2644.399999976158","resources/image_sets/right_highlight.png","39","",NA,NA,NA,NA,""
"image-keyboard-response",7,52243,"0.0-2.0-5.0","kxgbh2g2qsksukj",547,"26.csv","","3930.399999976158","resources/image_sets/111.png","13","",NA,NA,NA,NA,""
"image-keyboard-response",8,56509,"0.0-2.0-6.0","kxgbh2g2qsksukj",547,"26.csv","","4263","resources/images/coin2.png","13","",NA,NA,NA,NA,""
"image-keyboard-response",9,59252,"0.0-2.0-7.0","kxgbh2g2qsksukj",547,"26.csv","","2741.5999999046326","resources/images/fishbone.png","13","",NA,NA,NA,NA,""
"html-keyboard-response",10,68056,"0.0-2.0-8.0","kxgbh2g2qsksukj",547,"26.csv","","8802.899999976158","<p>Your first journey will be a long one, but you will get a well deserved break at the end</p><p>After the break you will have four more journeys, but each will be much shorter than the first, and you will have breaks in between each</p><p>Press Enter to begin</p>","13","",NA,NA,NA,NA,""
"image-keyboard-response",11,73729,"0.0-3.0-0.0","kxgbh2g2qsksukj",547,"26.csv","","5670.600000023842","resources/trios/L4T4A2.jpg","38","restless",0.7,0.9,0.3,0.778922207717025,"true"
"image-keyboard-response",12,74136,"0.0-3.0-1.0","kxgbh2g2qsksukj",547,"26.csv","","null","resources/maskTrios/BT4B.jpg","null","",NA,NA,NA,NA,""
"image-keyboard-response",13,75342,"0.0-3.0-2.0","kxgbh2g2qsksukj",547,"26.csv","","null","resources/images/coin2.png","null","",NA,NA,NA,NA,""
"image-keyboard-response",14,79514,"0.0-3.1-0.1","kxgbh2g2qsksukj",547,"26.csv","","4169.600000023842","resources/trios/L1T4A3.jpg","38","restless",0.7,0.9,0.3,0.695996788940605,"true"
"image-keyboard-response",15,79921,"0.0-3.1-1.1","kxgbh2g2qsksukj",547,"26.csv","","null","resources/maskTrios/BT4B.jpg","null","",NA,NA,NA,NA,""
"image-keyboard-response",16,81129,"0.0-3.1-2.1","kxgbh2g2qsksukj",547,"26.csv","","null","resources/images/coin2.png","null","",NA,NA,NA,NA,""
"image-keyboard-response",17,82551,"0.0-3.2-0.2","kxgbh2g2qsksukj",547,"26.csv","","1419.5999999046326","resources/trios/L1T4A3.jpg","38","restless",0.7,0.8,0.3,0.639053745879215,"true"
"image-keyboard-response",18,82959,"0.0-3.2-1.2","kxgbh2g2qsksukj",547,"26.csv","","null","resources/maskTrios/BT4B.jpg","null","",NA,NA,NA,NA,""
"image-keyboard-response",19,84166,"0.0-3.2-2.2","kxgbh2g2qsksukj",547,"26.csv","","null","resources/images/coin2.png","null","",NA,NA,NA,NA,""
"image-keyboard-response",20,87375,"0.0-3.3-0.3","kxgbh2g2qsksukj",547,"26.csv","","3206.2999999523163","resources/trios/L1T2A3.jpg","38","restless",0.7,0.8,0.3,0.424228533865225,"true"
"image-keyboard-response",21,87781,"0.0-3.3-1.3","kxgbh2g2qsksukj",547,"26.csv","","null","resources/maskTrios/BT2B.jpg","null","",NA,NA,NA,NA,""
"image-keyboard-response",22,88986,"0.0-3.3-2.3","kxgbh2g2qsksukj",547,"26.csv","","null","resources/images/coin2.png","null","",NA,NA,NA,NA,""
"image-keyboard-response",23,90404,"0.0-3.4-0.4","kxgbh2g2qsksukj",547,"26.csv","","1415.8000000715256","resources/trios/L4T4A3.jpg","38","restless",0.7,0.7,0.3,0.673076998564575,"true"
"image-keyboard-response",24,90812,"0.0-3.4-1.4","kxgbh2g2qsksukj",547,"26.csv","","null","resources/maskTrios/BT4B.jpg","null","",NA,NA,NA,NA,""
"image-keyboard-response",25,92015,"0.0-3.4-2.4","kxgbh2g2qsksukj",547,"26.csv","","null","resources/images/coin2.png","null","",NA,NA,NA,NA,""
"image-keyboard-response",26,93511,"0.0-3.5-0.5","kxgbh2g2qsksukj",547,"26.csv","","1494.2000000476837","resources/trios/L4T2A2.jpg","38","restless",0.7,0.7,0.3,0.121296052779107,"true"
"image-keyboard-response",27,93917,"0.0-3.5-1.5","kxgbh2g2qsksukj",547,"26.csv","","null","resources/maskTrios/BT2B.jpg","null","",NA,NA,NA,NA,""
"image-keyboard-response",28,95122,"0.0-3.5-2.5","kxgbh2g2qsksukj",547,"26.csv","","null","resources/images/coin2.png","null","",NA,NA,NA,NA,""
"image-keyboard-response",29,96212,"0.0-3.6-0.6","kxgbh2g2qsksukj",547,"26.csv","","1087.8999999761581","resources/trios/L1T4A2.jpg","38","restless",0.7,0.7,0.3,0.898560945194304,"false"
"image-keyboard-response",30,96619,"0.0-3.6-1.6","kxgbh2g2qsksukj",547,"26.csv","","null","resources/maskTrios/BT4B.jpg","null","",NA,NA,NA,NA,""
"image-keyboard-response",31,97827,"0.0-3.6-2.6","kxgbh2g2qsksukj",547,"26.csv","","null","resources/images/fishbone.png","null","",NA,NA,NA,NA,""
"image-keyboard-response",32,99163,"0.0-3.7-0.7","kxgbh2g2qsksukj",547,"26.csv","","1334.5999999046326","resources/trios/L4T2A3.jpg","38","restless",0.7,0.7,0.3,0.546865220962182,"true"
"image-keyboard-response",33,99571,"0.0-3.7-1.7","kxgbh2g2qsksukj",547,"26.csv","","null","resources/maskTrios/BT2B.jpg","null","",NA,NA,NA,NA,""
"image-keyboard-response",34,100777,"0.0-3.7-2.7","kxgbh2g2qsksukj",547,"26.csv","","null","resources/images/coin2.png","null","",NA,NA,NA,NA,""
"image-keyboard-response",35,103867,"0.0-3.8-0.8","kxgbh2g2qsksukj",547,"26.csv","","3088.100000023842","resources/trios/L1T4A2.jpg","37","restless",0.7,0.7,0.3,0.247059680917568,"true"
"image-keyboard-response",36,104272,"0.0-3.8-1.8","kxgbh2g2qsksukj",547,"26.csv","","null","resources/maskTrios/L1BB.jpg","null","",NA,NA,NA,NA,""
"image-keyboard-response",37,105479,"0.0-3.8-2.8","kxgbh2g2qsksukj",547,"26.csv","","null","resources/images/coin2.png","null","",NA,NA,NA,NA,""
"image-keyboard-response",38,106557,"0.0-3.9-0.9","kxgbh2g2qsksukj",547,"26.csv","","1075.2000000476837","resources/trios/L1T4A2.jpg","38","restless",0.7,0.7,0.3,0.0896965677694113,"true"
"image-keyboard-response",39,106964,"0.0-3.9-1.9","kxgbh2g2qsksukj",547,"26.csv","","null","resources/maskTrios/BT4B.jpg","null","",NA,NA,NA,NA,""
"image-keyboard-response",40,108170,"0.0-3.9-2.9","kxgbh2g2qsksukj",547,"26.csv","","null","resources/images/coin2.png","null","",NA,NA,NA,NA,""
"image-keyboard-response",41,110182,"0.0-3.10-0.10","kxgbh2g2qsksukj",547,"26.csv","","2010","resources/trios/L4T4A3.jpg","37","restless",0.7,0.8,0.3,0.955851931368411,"false"
"image-keyboard-response",42,110587,"0.0-3.10-1.10","kxgbh2g2qsksukj",547,"26.csv","","null","resources/maskTrios/L4BB.jpg","null","",NA,NA,NA,NA,""
"image-keyboard-response",43,111790,"0.0-3.10-2.10","kxgbh2g2qsksukj",547,"26.csv","","null","resources/images/fishbone.png","null","",NA,NA,NA,NA,""
"image-keyboard-response",44,112593,"0.0-3.11-0.11","kxgbh2g2qsksukj",547,"26.csv","","799.7000000476837","resources/trios/L1T4A3.jpg","38","restless",0.6,0.8,0.3,0.599458596763762,"true"
"image-keyboard-response",45,113000,"0.0-3.11-1.11","kxgbh2g2qsksukj",547,"26.csv","","null","resources/maskTrios/BT4B.jpg","null","",NA,NA,NA,NA,""
"image-keyboard-response",46,114202,"0.0-3.11-2.11","kxgbh2g2qsksukj",547,"26.csv","","null","resources/images/coin2.png","null","",NA,NA,NA,NA,""
"image-keyboard-response",47,114815,"0.0-3.12-0.12","kxgbh2g2qsksukj",547,"26.csv","","610.6000000238419","resources/trios/L1T4A3.jpg","38","restless",0.6,0.8,0.3,0.432019680017365,"true"
"image-keyboard-response",48,115219,"0.0-3.12-1.12","kxgbh2g2qsksukj",547,"26.csv","","null","resources/maskTrios/BT4B.jpg","null","",NA,NA,NA,NA,""
"image-keyboard-response",49,116422,"0.0-3.12-2.12","kxgbh2g2qsksukj",547,"26.csv","","null","resources/images/coin2.png","null","",NA,NA,NA,NA,""
"image-keyboard-response",50,117914,"0.0-3.13-0.13","kxgbh2g2qsksukj",547,"26.csv","","1489.1999999284744","resources/trios/L4T2A3.jpg","38","restless",0.5,0.8,0.3,0.216796738860266,"true"
"image-keyboard-response",51,118318,"0.0-3.13-1.13","kxgbh2g2qsksukj",547,"26.csv","","null","resources/maskTrios/BT2B.jpg","null","",NA,NA,NA,NA,""
"image-keyboard-response",52,119525,"0.0-3.13-2.13","kxgbh2g2qsksukj",547,"26.csv","","null","resources/images/coin2.png","null","",NA,NA,NA,NA,""
"image-keyboard-response",53,119983,"0.0-3.14-0.14","kxgbh2g2qsksukj",547,"26.csv","","455.2999999523163","resources/trios/L1T2A2.jpg","38","restless",0.5,0.8,0.3,0.942088003905172,"false"
"image-keyboard-response",54,120390,"0.0-3.14-1.14","kxgbh2g2qsksukj",547,"26.csv","","null","resources/maskTrios/BT2B.jpg","null","",NA,NA,NA,NA,""
"image-keyboard-response",55,121597,"0.0-3.14-2.14","kxgbh2g2qsksukj",547,"26.csv","","null","resources/images/fishbone.png","null","",NA,NA,NA,NA,""
"image-keyboard-response",56,122177,"0.0-3.15-0.15","kxgbh2g2qsksukj",547,"26.csv","","577.8999999761581","resources/trios/L4T2A3.jpg","38","restless",0.5,0.8,0.3,0.927088691675252,"false"
"image-keyboard-response",57,122582,"0.0-3.15-1.15","kxgbh2g2qsksukj",547,"26.csv","","null","resources/maskTrios/BT2B.jpg","null","",NA,NA,NA,NA,""
"image-keyboard-response",58,123788,"0.0-3.15-2.15","kxgbh2g2qsksukj",547,"26.csv","","null","resources/images/fishbone.png","null","",NA,NA,NA,NA,""
"image-keyboard-response",59,124166,"0.0-3.16-0.16","kxgbh2g2qsksukj",547,"26.csv","","375.89999997615814","resources/trios/L1T2A3.jpg","39","restless",0.5,0.8,0.3,0.95325602039115,"false"
"image-keyboard-response",60,124574,"0.0-3.16-1.16","kxgbh2g2qsksukj",547,"26.csv","","null","resources/maskTrios/BBA3.jpg","null","",NA,NA,NA,NA,""
"image-keyboard-response",61,125779,"0.0-3.16-2.16","kxgbh2g2qsksukj",547,"26.csv","","null","resources/images/fishbone.png","null","",NA,NA,NA,NA,""
"image-keyboard-response",62,126468,"0.0-3.17-0.17","kxgbh2g2qsksukj",547,"26.csv","","687.5","resources/trios/L1T2A3.jpg","37","restless",0.5,0.8,0.3,0.868110681634648,"false"
"image-keyboard-response",63,126875,"0.0-3.17-1.17","kxgbh2g2qsksukj",547,"26.csv","","null","resources/maskTrios/L1BB.jpg","null","",NA,NA,NA,NA,""
"image-keyboard-response",64,128082,"0.0-3.17-2.17","kxgbh2g2qsksukj",547,"26.csv","","null","resources/images/fishbone.png","null","",NA,NA,NA,NA,""
"image-keyboard-response",65,129182,"0.0-3.18-0.18","kxgbh2g2qsksukj",547,"26.csv","","1098","resources/trios/L1T4A3.jpg","37","restless",0.5,0.7,0.2,0.429197536044891,"true"
"image-keyboard-response",66,129589,"0.0-3.18-1.18","kxgbh2g2qsksukj",547,"26.csv","","null","resources/maskTrios/L1BB.jpg","null","",NA,NA,NA,NA,""
"image-keyboard-response",67,130793,"0.0-3.18-2.18","kxgbh2g2qsksukj",547,"26.csv","","null","resources/images/coin2.png","null","",NA,NA,NA,NA,""
"image-keyboard-response",68,131695,"0.0-3.19-0.19","kxgbh2g2qsksukj",547,"26.csv","","900.3999999761581","resources/trios/L1T4A2.jpg","38","restless",0.5,0.7,0.2,0.442086862556587,"true"
"image-keyboard-response",69,132102,"0.0-3.19-1.19","kxgbh2g2qsksukj",547,"26.csv","","null","resources/maskTrios/BT4B.jpg","null","",NA,NA,NA,NA,""
"image-keyboard-response",70,133304,"0.0-3.19-2.19","kxgbh2g2qsksukj",547,"26.csv","","null","resources/images/coin2.png","null","",NA,NA,NA,NA,""
"image-keyboard-response",71,133870,"0.0-3.20-0.20","kxgbh2g2qsksukj",547,"26.csv","","564","resources/trios/L1T4A2.jpg","38","restless",0.5,0.7,0.2,0.305604970909206,"true"
"image-keyboard-response",72,134277,"0.0-3.20-1.20","kxgbh2g2qsksukj",547,"26.csv","","null","resources/maskTrios/BT4B.jpg","null","",NA,NA,NA,NA,""
"image-keyboard-response",73,135484,"0.0-3.20-2.20","kxgbh2g2qsksukj",547,"26.csv","","null","resources/images/coin2.png","null","",NA,NA,NA,NA,""
"image-keyboard-response",74,136260,"0.0-3.21-0.21","kxgbh2g2qsksukj",547,"26.csv","","774","resources/trios/L1T2A3.jpg","38","restless",0.5,0.7,0.2,0.664349195635617,"true"
"image-keyboard-response",75,136667,"0.0-3.21-1.21","kxgbh2g2qsksukj",547,"26.csv","","null","resources/maskTrios/BT2B.jpg","null","",NA,NA,NA,NA,""
"image-keyboard-response",76,137871,"0.0-3.21-2.21","kxgbh2g2qsksukj",547,"26.csv","","null","resources/images/coin2.png","null","",NA,NA,NA,NA,""
"image-keyboard-response",77,138587,"0.0-3.22-0.22","kxgbh2g2qsksukj",547,"26.csv","","713.3999999761581","resources/trios/L4T4A3.jpg","38","restless",0.5,0.7,0.2,0.634122234430373,"true"
"image-keyboard-response",78,138989,"0.0-3.22-1.22","kxgbh2g2qsksukj",547,"26.csv","","null","resources/maskTrios/BT4B.jpg","null","",NA,NA,NA,NA,""
"image-keyboard-response",79,140196,"0.0-3.22-2.22","kxgbh2g2qsksukj",547,"26.csv","","null","resources/images/coin2.png","null","",NA,NA,NA,NA,""
"image-keyboard-response",80,140745,"0.0-3.23-0.23","kxgbh2g2qsksukj",547,"26.csv","","546.5999999046326","resources/trios/L1T2A3.jpg","38","restless",0.5,0.7,0.2,0.0562083418064694,"true"
"image-keyboard-response",81,141152,"0.0-3.23-1.23","kxgbh2g2qsksukj",547,"26.csv","","null","resources/maskTrios/BT2B.jpg","null","",NA,NA,NA,NA,""
"image-keyboard-response",82,142359,"0.0-3.23-2.23","kxgbh2g2qsksukj",547,"26.csv","","null","resources/images/coin2.png","null","",NA,NA,NA,NA,""
"image-keyboard-response",83,142703,"0.0-3.24-0.24","kxgbh2g2qsksukj",547,"26.csv","","341.59999990463257","resources/trios/L1T2A3.jpg","37","restless",0.5,0.7,0.2,0.560332836482886,"false"
"image-keyboard-response",84,143110,"0.0-3.24-1.24","kxgbh2g2qsksukj",547,"26.csv","","null","resources/maskTrios/L1BB.jpg","null","",NA,NA,NA,NA,""
"image-keyboard-response",85,144316,"0.0-3.24-2.24","kxgbh2g2qsksukj",547,"26.csv","","null","resources/images/fishbone.png","null","",NA,NA,NA,NA,""
"image-keyboard-response",86,144588,"0.0-3.25-0.25","kxgbh2g2qsksukj",547,"26.csv","","269.60000002384186","resources/trios/L4T2A2.jpg","38","restless",0.5,0.7,0.2,0.359180502021196,"true"
"image-keyboard-response",87,144991,"0.0-3.25-1.25","kxgbh2g2qsksukj",547,"26.csv","","null","resources/maskTrios/BT2B.jpg","null","",NA,NA,NA,NA,""
"image-keyboard-response",88,146199,"0.0-3.25-2.25","kxgbh2g2qsksukj",547,"26.csv","","null","resources/images/coin2.png","null","",NA,NA,NA,NA,""
"image-keyboard-response",89,146593,"0.0-3.26-0.26","kxgbh2g2qsksukj",547,"26.csv","","391.60000002384186","resources/trios/L1T4A3.jpg","38","restless",0.5,0.7,0.2,0.864755018520031,"false"
"image-keyboard-response",90,147000,"0.0-3.26-1.26","kxgbh2g2qsksukj",547,"26.csv","","null","resources/maskTrios/BT4B.jpg","null","",NA,NA,NA,NA,""
"image-keyboard-response",91,148204,"0.0-3.26-2.26","kxgbh2g2qsksukj",547,"26.csv","","null","resources/images/fishbone.png","null","",NA,NA,NA,NA,""
"image-keyboard-response",92,148546,"0.0-3.27-0.27","kxgbh2g2qsksukj",547,"26.csv","","339.59999990463257","resources/trios/L1T4A3.jpg","38","restless",0.5,0.7,0.2,0.780949269418426,"false"
"image-keyboard-response",93,148954,"0.0-3.27-1.27","kxgbh2g2qsksukj",547,"26.csv","","null","resources/maskTrios/BT4B.jpg","null","",NA,NA,NA,NA,""
"image-keyboard-response",94,150158,"0.0-3.27-2.27","kxgbh2g2qsksukj",547,"26.csv","","null","resources/images/fishbone.png","null","",NA,NA,NA,NA,""
"image-keyboard-response",95,151432,"0.0-3.28-0.28","kxgbh2g2qsksukj",547,"26.csv","","1271.8999999761581","resources/trios/L4T2A3.jpg","39","restless",0.5,0.7,0.2,0.589752179121453,"false"
"image-keyboard-response",96,151839,"0.0-3.28-1.28","kxgbh2g2qsksukj",547,"26.csv","","null","resources/maskTrios/BBA3.jpg","null","",NA,NA,NA,NA,""
"image-keyboard-response",97,153046,"0.0-3.28-2.28","kxgbh2g2qsksukj",547,"26.csv","","null","resources/images/fishbone.png","null","",NA,NA,NA,NA,""
"image-keyboard-response",98,153419,"0.0-3.29-0.29","kxgbh2g2qsksukj",547,"26.csv","","371.2000000476837","resources/trios/L4T4A3.jpg","38","restless",0.5,0.7,0.2,0.725167868524927,"false"
"image-keyboard-response",99,153827,"0.0-3.29-1.29","kxgbh2g2qsksukj",547,"26.csv","","null","resources/maskTrios/BT4B.jpg","null","",NA,NA,NA,NA,""
"image-keyboard-response",100,155034,"0.0-3.29-2.29","kxgbh2g2qsksukj",547,"26.csv","","null","resources/images/fishbone.png","null","",NA,NA,NA,NA,""
"image-keyboard-response",101,156130,"0.0-3.30-0.30","kxgbh2g2qsksukj",547,"26.csv","","1094.2999999523163","resources/trios/L1T2A3.jpg","38","restless",0.5,0.7,0.2,0.062910394907649,"true"
"image-keyboard-response",102,156537,"0.0-3.30-1.30","kxgbh2g2qsksukj",547,"26.csv","","null","resources/maskTrios/BT2B.jpg","null","",NA,NA,NA,NA,""
"image-keyboard-response",103,157741,"0.0-3.30-2.30","kxgbh2g2qsksukj",547,"26.csv","","null","resources/images/coin2.png","null","",NA,NA,NA,NA,""
"image-keyboard-response",104,158275,"0.0-3.31-0.31","kxgbh2g2qsksukj",547,"26.csv","","531.7000000476837","resources/trios/L4T2A3.jpg","38","restless",0.5,0.7,0.2,0.210853186073063,"true"
"image-keyboard-response",105,158682,"0.0-3.31-1.31","kxgbh2g2qsksukj",547,"26.csv","","null","resources/maskTrios/BT2B.jpg","null","",NA,NA,NA,NA,""
"image-keyboard-response",106,159889,"0.0-3.31-2.31","kxgbh2g2qsksukj",547,"26.csv","","null","resources/images/coin2.png","null","",NA,NA,NA,NA,""
"image-keyboard-response",107,160531,"0.0-3.32-0.32","kxgbh2g2qsksukj",547,"26.csv","","639.3999999761581","resources/trios/L1T4A3.jpg","37","restless",0.5,0.7,0.2,0.539855830514941,"false"
"image-keyboard-response",108,160935,"0.0-3.32-1.32","kxgbh2g2qsksukj",547,"26.csv","","null","resources/maskTrios/L1BB.jpg","null","",NA,NA,NA,NA,""
"image-keyboard-response",109,162139,"0.0-3.32-2.32","kxgbh2g2qsksukj",547,"26.csv","","null","resources/images/fishbone.png","null","",NA,NA,NA,NA,""
"image-keyboard-response",110,162398,"0.0-3.33-0.33","kxgbh2g2qsksukj",547,"26.csv","","257.2999999523163","resources/trios/L1T4A2.jpg","38","restless",0.5,0.7,0.2,0.811260250630656,"false"
"image-keyboard-response",111,162806,"0.0-3.33-1.33","kxgbh2g2qsksukj",547,"26.csv","","null","resources/maskTrios/BT4B.jpg","null","",NA,NA,NA,NA,""
"image-keyboard-response",112,164008,"0.0-3.33-2.33","kxgbh2g2qsksukj",547,"26.csv","","null","resources/images/fishbone.png","null","",NA,NA,NA,NA,""
"image-keyboard-response",113,164357,"0.0-3.34-0.34","kxgbh2g2qsksukj",547,"26.csv","","347.1999999284744","resources/trios/L4T2A2.jpg","37","restless",0.5,0.7,0.2,0.539768449339263,"false"
"image-keyboard-response",114,164764,"0.0-3.34-1.34","kxgbh2g2qsksukj",547,"26.csv","","null","resources/maskTrios/L4BB.jpg","null","",NA,NA,NA,NA,""
"image-keyboard-response",115,165969,"0.0-3.34-2.34","kxgbh2g2qsksukj",547,"26.csv","","null","resources/images/fishbone.png","null","",NA,NA,NA,NA,""
"image-keyboard-response",116,166344,"0.0-3.35-0.35","kxgbh2g2qsksukj",547,"26.csv","","372.1999999284744","resources/trios/L4T2A3.jpg","39","restless",0.5,0.7,0.2,0.0192388336656999,"true"
"image-keyboard-response",117,166751,"0.0-3.35-1.35","kxgbh2g2qsksukj",547,"26.csv","","null","resources/maskTrios/BBA3.jpg","null","",NA,NA,NA,NA,""
"image-keyboard-response",118,167956,"0.0-3.35-2.35","kxgbh2g2qsksukj",547,"26.csv","","null","resources/images/coin2.png","null","",NA,NA,NA,NA,""
"image-keyboard-response",119,168679,"0.0-3.36-0.36","kxgbh2g2qsksukj",547,"26.csv","","720.6999999284744","resources/trios/L4T4A3.jpg","38","restless",0.4,0.7,0.3,0.63938468520895,"true"
"image-keyboard-response",120,169082,"0.0-3.36-1.36","kxgbh2g2qsksukj",547,"26.csv","","null","resources/maskTrios/BT4B.jpg","null","",NA,NA,NA,NA,""
"image-keyboard-response",121,170288,"0.0-3.36-2.36","kxgbh2g2qsksukj",547,"26.csv","","null","resources/images/coin2.png","null","",NA,NA,NA,NA,""
"image-keyboard-response",122,170623,"0.0-3.37-0.37","kxgbh2g2qsksukj",547,"26.csv","","332.39999997615814","resources/trios/L1T4A2.jpg","38","restless",0.4,0.7,0.3,0.349552691299685,"true"
"image-keyboard-response",123,171028,"0.0-3.37-1.37","kxgbh2g2qsksukj",547,"26.csv","","null","resources/maskTrios/BT4B.jpg","null","",NA,NA,NA,NA,""
"image-keyboard-response",124,172235,"0.0-3.37-2.37","kxgbh2g2qsksukj",547,"26.csv","","null","resources/images/coin2.png","null","",NA,NA,NA,NA,""
"image-keyboard-response",125,172534,"0.0-3.38-0.38","kxgbh2g2qsksukj",547,"26.csv","","296.5","resources/trios/L1T2A2.jpg","38","restless",0.4,0.7,0.3,0.883223358194787,"false"
"image-keyboard-response",126,172938,"0.0-3.38-1.38","kxgbh2g2qsksukj",547,"26.csv","","null","resources/maskTrios/BT2B.jpg","null","",NA,NA,NA,NA,""
"image-keyboard-response",127,174144,"0.0-3.38-2.38","kxgbh2g2qsksukj",547,"26.csv","","null","resources/images/fishbone.png","null","",NA,NA,NA,NA,""
"image-keyboard-response",128,175080,"0.0-3.39-0.39","kxgbh2g2qsksukj",547,"26.csv","","932.8000000715256","resources/trios/L4T4A3.jpg","38","restless",0.5,0.7,0.3,0.93156525976308,"false"
"image-keyboard-response",129,175487,"0.0-3.39-1.39","kxgbh2g2qsksukj",547,"26.csv","","null","resources/maskTrios/BT4B.jpg","null","",NA,NA,NA,NA,""
"image-keyboard-response",130,176694,"0.0-3.39-2.39","kxgbh2g2qsksukj",547,"26.csv","","null","resources/images/fishbone.png","null","",NA,NA,NA,NA,""
"image-keyboard-response",131,177183,"0.0-3.40-0.40","kxgbh2g2qsksukj",547,"26.csv","","486.10000002384186","resources/trios/L1T2A2.jpg","39","restless",0.6,0.7,0.3,0.938106552338833,"false"
"image-keyboard-response",132,177588,"0.0-3.40-1.40","kxgbh2g2qsksukj",547,"26.csv","","null","resources/maskTrios/BBA2.jpg","null","",NA,NA,NA,NA,""
"image-keyboard-response",133,178791,"0.0-3.40-2.40","kxgbh2g2qsksukj",547,"26.csv","","null","resources/images/fishbone.png","null","",NA,NA,NA,NA,""
"image-keyboard-response",134,179821,"0.0-3.41-0.41","kxgbh2g2qsksukj",547,"26.csv","","1027.6000000238419","resources/trios/L1T4A3.jpg","39","restless",0.6,0.7,0.4,0.724119433669987,"false"
"image-keyboard-response",135,180228,"0.0-3.41-1.41","kxgbh2g2qsksukj",547,"26.csv","","null","resources/maskTrios/BBA3.jpg","null","",NA,NA,NA,NA,""
"image-keyboard-response",136,181435,"0.0-3.41-2.41","kxgbh2g2qsksukj",547,"26.csv","","null","resources/images/fishbone.png","null","",NA,NA,NA,NA,""
"image-keyboard-response",137,181986,"0.0-3.42-0.42","kxgbh2g2qsksukj",547,"26.csv","","548.8999999761581","resources/trios/L4T2A3.jpg","37","restless",0.5,0.7,0.4,0.818077553227493,"false"
"image-keyboard-response",138,182390,"0.0-3.42-1.42","kxgbh2g2qsksukj",547,"26.csv","","null","resources/maskTrios/L4BB.jpg","null","",NA,NA,NA,NA,""
"image-keyboard-response",139,183596,"0.0-3.42-2.42","kxgbh2g2qsksukj",547,"26.csv","","null","resources/images/fishbone.png","null","",NA,NA,NA,NA,""
"image-keyboard-response",140,184025,"0.0-3.43-0.43","kxgbh2g2qsksukj",547,"26.csv","","427.10000002384186","resources/trios/L1T2A3.jpg","38","restless",0.5,0.7,0.5,0.249049543817422,"true"
"image-keyboard-response",141,184429,"0.0-3.43-1.43","kxgbh2g2qsksukj",547,"26.csv","","null","resources/maskTrios/BT2B.jpg","null","",NA,NA,NA,NA,""
"image-keyboard-response",142,185633,"0.0-3.43-2.43","kxgbh2g2qsksukj",547,"26.csv","","null","resources/images/coin2.png","null","",NA,NA,NA,NA,""
"image-keyboard-response",143,186098,"0.0-3.44-0.44","kxgbh2g2qsksukj",547,"26.csv","","463","resources/trios/L1T4A3.jpg","38","restless",0.5,0.7,0.5,0.228007833281583,"true"
"image-keyboard-response",144,186503,"0.0-3.44-1.44","kxgbh2g2qsksukj",547,"26.csv","","null","resources/maskTrios/BT4B.jpg","null","",NA,NA,NA,NA,""
"image-keyboard-response",145,187710,"0.0-3.44-2.44","kxgbh2g2qsksukj",547,"26.csv","","null","resources/images/coin2.png","null","",NA,NA,NA,NA,""
"image-keyboard-response",146,188075,"0.0-3.45-0.45","kxgbh2g2qsksukj",547,"26.csv","","361.89999997615814","resources/trios/L1T4A2.jpg","38","restless",0.5,0.6,0.6,0.95912274445253,"false"
"image-keyboard-response",147,188482,"0.0-3.45-1.45","kxgbh2g2qsksukj",547,"26.csv","","null","resources/maskTrios/BT4B.jpg","null","",NA,NA,NA,NA,""
"image-keyboard-response",148,189687,"0.0-3.45-2.45","kxgbh2g2qsksukj",547,"26.csv","","null","resources/images/fishbone.png","null","",NA,NA,NA,NA,""
"image-keyboard-response",149,190152,"0.0-3.46-0.46","kxgbh2g2qsksukj",547,"26.csv","","462","resources/trios/L4T2A3.jpg","39","restless",0.5,0.6,0.6,0.281748676549603,"true"
"image-keyboard-response",150,190559,"0.0-3.46-1.46","kxgbh2g2qsksukj",547,"26.csv","","null","resources/maskTrios/BBA3.jpg","null","",NA,NA,NA,NA,""
"image-keyboard-response",151,191766,"0.0-3.46-2.46","kxgbh2g2qsksukj",547,"26.csv","","null","resources/images/coin2.png","null","",NA,NA,NA,NA,""
"image-keyboard-response",152,192237,"0.0-3.47-0.47","kxgbh2g2qsksukj",547,"26.csv","","468.1999999284744","resources/trios/L1T2A2.jpg","39","restless",0.5,0.6,0.6,0.558085666347625,"true"
"image-keyboard-response",153,192645,"0.0-3.47-1.47","kxgbh2g2qsksukj",547,"26.csv","","null","resources/maskTrios/BBA2.jpg","null","",NA,NA,NA,NA,""
"image-keyboard-response",154,193848,"0.0-3.47-2.47","kxgbh2g2qsksukj",547,"26.csv","","null","resources/images/coin2.png","null","",NA,NA,NA,NA,""
"image-keyboard-response",155,194187,"0.0-3.48-0.48","kxgbh2g2qsksukj",547,"26.csv","","337","resources/trios/L4T2A2.jpg","39","restless",0.5,0.6,0.6,0.192464471589756,"true"
"image-keyboard-response",156,194592,"0.0-3.48-1.48","kxgbh2g2qsksukj",547,"26.csv","","null","resources/maskTrios/BBA2.jpg","null","",NA,NA,NA,NA,""
"image-keyboard-response",157,195799,"0.0-3.48-2.48","kxgbh2g2qsksukj",547,"26.csv","","null","resources/images/coin2.png","null","",NA,NA,NA,NA,""
"image-keyboard-response",158,196063,"0.0-3.49-0.49","kxgbh2g2qsksukj",547,"26.csv","","262","resources/trios/L1T4A3.jpg","39","restless",0.5,0.6,0.6,0.969222605968215,"false"
"image-keyboard-response",159,196467,"0.0-3.49-1.49","kxgbh2g2qsksukj",547,"26.csv","","null","resources/maskTrios/BBA3.jpg","null","",NA,NA,NA,NA,""
"image-keyboard-response",160,197671,"0.0-3.49-2.49","kxgbh2g2qsksukj",547,"26.csv","","null","resources/images/fishbone.png","null","",NA,NA,NA,NA,""
"image-keyboard-response",161,198549,"0.0-3.50-0.50","kxgbh2g2qsksukj",547,"26.csv","","875.3999999761581","resources/trios/L1T2A3.jpg","37","restless",0.5,0.5,0.6,0.0291664474442708,"true"
"image-keyboard-response",162,198956,"0.0-3.50-1.50","kxgbh2g2qsksukj",547,"26.csv","","null","resources/maskTrios/L1BB.jpg","null","",NA,NA,NA,NA,""
"image-keyboard-response",163,200164,"0.0-3.50-2.50","kxgbh2g2qsksukj",547,"26.csv","","null","resources/images/coin2.png","null","",NA,NA,NA,NA,""
"image-keyboard-response",164,200506,"0.0-3.51-0.51","kxgbh2g2qsksukj",547,"26.csv","","339.90000009536743","resources/trios/L4T4A3.jpg","37","restless",0.5,0.4,0.6,0.331240370618479,"true"
"image-keyboard-response",165,200914,"0.0-3.51-1.51","kxgbh2g2qsksukj",547,"26.csv","","null","resources/maskTrios/L4BB.jpg","null","",NA,NA,NA,NA,""
"image-keyboard-response",166,202118,"0.0-3.51-2.51","kxgbh2g2qsksukj",547,"26.csv","","null","resources/images/coin2.png","null","",NA,NA,NA,NA,""
"image-keyboard-response",167,202421,"0.0-3.52-0.52","kxgbh2g2qsksukj",547,"26.csv","","300.8000000715256","resources/trios/L1T4A2.jpg","37","restless",0.5,0.4,0.6,0.404417661288755,"true"
"image-keyboard-response",168,202825,"0.0-3.52-1.52","kxgbh2g2qsksukj",547,"26.csv","","null","resources/maskTrios/L1BB.jpg","null","",NA,NA,NA,NA,""
"image-keyboard-response",169,204033,"0.0-3.52-2.52","kxgbh2g2qsksukj",547,"26.csv","","null","resources/images/coin2.png","null","",NA,NA,NA,NA,""
"image-keyboard-response",170,204318,"0.0-3.53-0.53","kxgbh2g2qsksukj",547,"26.csv","","283","resources/trios/L4T4A2.jpg","37","restless",0.5,0.4,0.6,0.778062259687696,"false"
"image-keyboard-response",171,204725,"0.0-3.53-1.53","kxgbh2g2qsksukj",547,"26.csv","","null","resources/maskTrios/L4BB.jpg","null","",NA,NA,NA,NA,""
"image-keyboard-response",172,205932,"0.0-3.53-2.53","kxgbh2g2qsksukj",547,"26.csv","","null","resources/images/fishbone.png","null","",NA,NA,NA,NA,""
"image-keyboard-response",173,206220,"0.0-3.54-0.54","kxgbh2g2qsksukj",547,"26.csv","","284.89999997615814","resources/trios/L1T2A2.jpg","39","restless",0.5,0.4,0.6,0.741287500656368,"false"
"image-keyboard-response",174,206627,"0.0-3.54-1.54","kxgbh2g2qsksukj",547,"26.csv","","null","resources/maskTrios/BBA2.jpg","null","",NA,NA,NA,NA,""
"image-keyboard-response",175,207830,"0.0-3.54-2.54","kxgbh2g2qsksukj",547,"26.csv","","null","resources/images/fishbone.png","null","",NA,NA,NA,NA,""
"image-keyboard-response",176,208068,"0.0-3.55-0.55","kxgbh2g2qsksukj",547,"26.csv","","235","resources/trios/L1T2A2.jpg","38","restless",0.5,0.4,0.6,0.640748644340829,"false"
"image-keyboard-response",177,208471,"0.0-3.55-1.55","kxgbh2g2qsksukj",547,"26.csv","","null","resources/maskTrios/BT2B.jpg","null","",NA,NA,NA,NA,""
"image-keyboard-response",178,209674,"0.0-3.55-2.55","kxgbh2g2qsksukj",547,"26.csv","","null","resources/images/fishbone.png","null","",NA,NA,NA,NA,""
"image-keyboard-response",179,210214,"0.0-3.56-0.56","kxgbh2g2qsksukj",547,"26.csv","","537.5","resources/trios/L4T4A3.jpg","37","restless",0.5,0.4,0.6,0.682036860078755,"false"
"image-keyboard-response",180,210620,"0.0-3.56-1.56","kxgbh2g2qsksukj",547,"26.csv","","null","resources/maskTrios/L4BB.jpg","null","",NA,NA,NA,NA,""
"image-keyboard-response",181,211827,"0.0-3.56-2.56","kxgbh2g2qsksukj",547,"26.csv","","null","resources/images/fishbone.png","null","",NA,NA,NA,NA,""
"image-keyboard-response",182,212171,"0.0-3.57-0.57","kxgbh2g2qsksukj",547,"26.csv","","341.89999997615814","resources/trios/L4T2A2.jpg","39","restless",0.4,0.4,0.6,0.428562817573985,"true"
"image-keyboard-response",183,212579,"0.0-3.57-1.57","kxgbh2g2qsksukj",547,"26.csv","","null","resources/maskTrios/BBA2.jpg","null","",NA,NA,NA,NA,""
"image-keyboard-response",184,213786,"0.0-3.57-2.57","kxgbh2g2qsksukj",547,"26.csv","","null","resources/images/coin2.png","null","",NA,NA,NA,NA,""
"image-keyboard-response",185,214637,"0.0-3.58-0.58","kxgbh2g2qsksukj",547,"26.csv","","848.2999999523163","resources/trios/L1T2A3.jpg","37","restless",0.4,0.4,0.6,0.849830710556374,"false"
"image-keyboard-response",186,215041,"0.0-3.58-1.58","kxgbh2g2qsksukj",547,"26.csv","","null","resources/maskTrios/L1BB.jpg","null","",NA,NA,NA,NA,""
"image-keyboard-response",187,216244,"0.0-3.58-2.58","kxgbh2g2qsksukj",547,"26.csv","","null","resources/images/fishbone.png","null","",NA,NA,NA,NA,""
"image-keyboard-response",188,216500,"0.0-3.59-0.59","kxgbh2g2qsksukj",547,"26.csv","","253","resources/trios/L4T2A2.jpg","39","restless",0.4,0.4,0.6,0.0410165176630415,"true"
"image-keyboard-response",189,216903,"0.0-3.59-1.59","kxgbh2g2qsksukj",547,"26.csv","","null","resources/maskTrios/BBA2.jpg","null","",NA,NA,NA,NA,""
"image-keyboard-response",190,218109,"0.0-3.59-2.59","kxgbh2g2qsksukj",547,"26.csv","","null","resources/images/coin2.png","null","",NA,NA,NA,NA,""
"image-keyboard-response",191,218452,"0.0-3.60-0.60","kxgbh2g2qsksukj",547,"26.csv","","340.7999999523163","resources/trios/L4T4A2.jpg","39","restless",0.3,0.4,0.6,0.515964921735408,"true"
"image-keyboard-response",192,218859,"0.0-3.60-1.60","kxgbh2g2qsksukj",547,"26.csv","","null","resources/maskTrios/BBA2.jpg","null","",NA,NA,NA,NA,""
"image-keyboard-response",193,220063,"0.0-3.60-2.60","kxgbh2g2qsksukj",547,"26.csv","","null","resources/images/coin2.png","null","",NA,NA,NA,NA,""
"image-keyboard-response",194,220317,"0.0-3.61-0.61","kxgbh2g2qsksukj",547,"26.csv","","251.90000009536743","resources/trios/L4T4A2.jpg","39","restless",0.3,0.3,0.5,0.782052247646408,"false"
"image-keyboard-response",195,220723,"0.0-3.61-1.61","kxgbh2g2qsksukj",547,"26.csv","","null","resources/maskTrios/BBA2.jpg","null","",NA,NA,NA,NA,""
"image-keyboard-response",196,221930,"0.0-3.61-2.61","kxgbh2g2qsksukj",547,"26.csv","","null","resources/images/fishbone.png","null","",NA,NA,NA,NA,""
"image-keyboard-response",197,222167,"0.0-3.62-0.62","kxgbh2g2qsksukj",547,"26.csv","","234.29999995231628","resources/trios/L4T4A3.jpg","38","restless",0.3,0.3,0.5,0.671810828883528,"false"
"image-keyboard-response",198,222570,"0.0-3.62-1.62","kxgbh2g2qsksukj",547,"26.csv","","null","resources/maskTrios/BT4B.jpg","null","",NA,NA,NA,NA,""
"image-keyboard-response",199,223777,"0.0-3.62-2.62","kxgbh2g2qsksukj",547,"26.csv","","null","resources/images/fishbone.png","null","",NA,NA,NA,NA,""
"image-keyboard-response",200,224124,"0.0-3.63-0.63","kxgbh2g2qsksukj",547,"26.csv","","344.8000000715256","resources/trios/L4T2A3.jpg","38","restless",0.3,0.3,0.5,0.498019014603702,"false"
"image-keyboard-response",201,224531,"0.0-3.63-1.63","kxgbh2g2qsksukj",547,"26.csv","","null","resources/maskTrios/BT2B.jpg","null","",NA,NA,NA,NA,""
"image-keyboard-response",202,225736,"0.0-3.63-2.63","kxgbh2g2qsksukj",547,"26.csv","","null","resources/images/fishbone.png","null","",NA,NA,NA,NA,""
"image-keyboard-response",203,226008,"0.0-3.64-0.64","kxgbh2g2qsksukj",547,"26.csv","","269.7999999523163","resources/trios/L1T4A2.jpg","38","restless",0.2,0.3,0.5,0.780958149011245,"false"
"image-keyboard-response",204,226414,"0.0-3.64-1.64","kxgbh2g2qsksukj",547,"26.csv","","null","resources/maskTrios/BT4B.jpg","null","",NA,NA,NA,NA,""
"image-keyboard-response",205,227620,"0.0-3.64-2.64","kxgbh2g2qsksukj",547,"26.csv","","null","resources/images/fishbone.png","null","",NA,NA,NA,NA,""
"image-keyboard-response",206,227892,"0.0-3.65-0.65","kxgbh2g2qsksukj",547,"26.csv","","269.89999997615814","resources/trios/L4T2A3.jpg","37","restless",0.2,0.3,0.5,0.973985391541709,"false"
"image-keyboard-response",207,228298,"0.0-3.65-1.65","kxgbh2g2qsksukj",547,"26.csv","","null","resources/maskTrios/L4BB.jpg","null","",NA,NA,NA,NA,""
"image-keyboard-response",208,229504,"0.0-3.65-2.65","kxgbh2g2qsksukj",547,"26.csv","","null","resources/images/fishbone.png","null","",NA,NA,NA,NA,""
"image-keyboard-response",209,229760,"0.0-3.66-0.66","kxgbh2g2qsksukj",547,"26.csv","","253.5","resources/trios/L4T4A3.jpg","37","restless",0.2,0.3,0.5,0.60632368705978,"false"
"image-keyboard-response",210,230165,"0.0-3.66-1.66","kxgbh2g2qsksukj",547,"26.csv","","null","resources/maskTrios/L4BB.jpg","null","",NA,NA,NA,NA,""
"image-keyboard-response",211,231372,"0.0-3.66-2.66","kxgbh2g2qsksukj",547,"26.csv","","null","resources/images/fishbone.png","null","",NA,NA,NA,NA,""
"image-keyboard-response",212,231653,"0.0-3.67-0.67","kxgbh2g2qsksukj",547,"26.csv","","280","resources/trios/L4T2A2.jpg","39","restless",0.2,0.3,0.5,0.987316104913789,"false"
"image-keyboard-response",213,232061,"0.0-3.67-1.67","kxgbh2g2qsksukj",547,"26.csv","","null","resources/maskTrios/BBA2.jpg","null","",NA,NA,NA,NA,""
"image-keyboard-response",214,233268,"0.0-3.67-2.67","kxgbh2g2qsksukj",547,"26.csv","","null","resources/images/fishbone.png","null","",NA,NA,NA,NA,""
"image-keyboard-response",215,233565,"0.0-3.68-0.68","kxgbh2g2qsksukj",547,"26.csv","","294.60000002384186","resources/trios/L4T4A3.jpg","38","restless",0.2,0.3,0.6,0.0458665109877507,"true"
"image-keyboard-response",216,233969,"0.0-3.68-1.68","kxgbh2g2qsksukj",547,"26.csv","","null","resources/maskTrios/BT4B.jpg","null","",NA,NA,NA,NA,""
"image-keyboard-response",217,235171,"0.0-3.68-2.68","kxgbh2g2qsksukj",547,"26.csv","","null","resources/images/coin2.png","null","",NA,NA,NA,NA,""
"image-keyboard-response",218,235250,"0.0-3.69-0.69","kxgbh2g2qsksukj",547,"26.csv","","76.29999995231628","resources/trios/L1T2A3.jpg","38","restless",0.2,0.3,0.6,0.145802400212163,"true"
"image-keyboard-response",219,235653,"0.0-3.69-1.69","kxgbh2g2qsksukj",547,"26.csv","","null","resources/maskTrios/BT2B.jpg","null","",NA,NA,NA,NA,""
"image-keyboard-response",220,236860,"0.0-3.69-2.69","kxgbh2g2qsksukj",547,"26.csv","","null","resources/images/coin2.png","null","",NA,NA,NA,NA,""
"image-keyboard-response",221,236899,"0.0-3.70-0.70","kxgbh2g2qsksukj",547,"26.csv","","35.700000047683716","resources/trios/L4T4A3.jpg","38","restless",0.2,0.3,0.6,0.735050950232982,"false"
"image-keyboard-response",222,237306,"0.0-3.70-1.70","kxgbh2g2qsksukj",547,"26.csv","","null","resources/maskTrios/BT4B.jpg","null","",NA,NA,NA,NA,""
"image-keyboard-response",223,238508,"0.0-3.70-2.70","kxgbh2g2qsksukj",547,"26.csv","","null","resources/images/fishbone.png","null","",NA,NA,NA,NA,""
"image-keyboard-response",224,239373,"0.0-3.71-0.71","kxgbh2g2qsksukj",547,"26.csv","","863.1000000238419","resources/trios/L1T4A2.jpg","37","restless",0.2,0.3,0.6,0.870094552424377,"false"
"image-keyboard-response",225,239779,"0.0-3.71-1.71","kxgbh2g2qsksukj",547,"26.csv","","null","resources/maskTrios/L1BB.jpg","null","",NA,NA,NA,NA,""
"image-keyboard-response",226,240985,"0.0-3.71-2.71","kxgbh2g2qsksukj",547,"26.csv","","null","resources/images/fishbone.png","null","",NA,NA,NA,NA,""
"image-keyboard-response",227,241281,"0.0-3.72-0.72","kxgbh2g2qsksukj",547,"26.csv","","293.60000002384186","resources/trios/L4T2A3.jpg","39","restless",0.2,0.3,0.6,0.321677089196023,"true"
"image-keyboard-response",228,241685,"0.0-3.72-1.72","kxgbh2g2qsksukj",547,"26.csv","","null","resources/maskTrios/BBA3.jpg","null","",NA,NA,NA,NA,""
"image-keyboard-response",229,242889,"0.0-3.72-2.72","kxgbh2g2qsksukj",547,"26.csv","","null","resources/images/coin2.png","null","",NA,NA,NA,NA,""
"image-keyboard-response",230,243271,"0.0-3.73-0.73","kxgbh2g2qsksukj",547,"26.csv","","379.7999999523163","resources/trios/L4T2A2.jpg","39","restless",0.2,0.3,0.6,0.226989488238199,"true"
"image-keyboard-response",231,243679,"0.0-3.73-1.73","kxgbh2g2qsksukj",547,"26.csv","","null","resources/maskTrios/BBA2.jpg","null","",NA,NA,NA,NA,""
"image-keyboard-response",232,244885,"0.0-3.73-2.73","kxgbh2g2qsksukj",547,"26.csv","","null","resources/images/coin2.png","null","",NA,NA,NA,NA,""
"image-keyboard-response",233,245520,"0.0-3.74-0.74","kxgbh2g2qsksukj",547,"26.csv","","632.1000000238419","resources/trios/L1T2A3.jpg","39","restless",0.2,0.3,0.6,0.954151722726751,"false"
"image-keyboard-response",234,245927,"0.0-3.74-1.74","kxgbh2g2qsksukj",547,"26.csv","","null","resources/maskTrios/BBA3.jpg","null","",NA,NA,NA,NA,""
"image-keyboard-response",235,247130,"0.0-3.74-2.74","kxgbh2g2qsksukj",547,"26.csv","","null","resources/images/fishbone.png","null","",NA,NA,NA,NA,""
"image-keyboard-response",236,247359,"0.0-3.75-0.75","kxgbh2g2qsksukj",547,"26.csv","","226.29999995231628","resources/trios/L4T4A3.jpg","37","restless",0.3,0.3,0.6,0.346418665595511,"false"
"image-keyboard-response",237,247766,"0.0-3.75-1.75","kxgbh2g2qsksukj",547,"26.csv","","null","resources/maskTrios/L4BB.jpg","null","",NA,NA,NA,NA,""
"image-keyboard-response",238,248973,"0.0-3.75-2.75","kxgbh2g2qsksukj",547,"26.csv","","null","resources/images/fishbone.png","null","",NA,NA,NA,NA,""
"image-keyboard-response",239,249214,"0.0-3.76-0.76","kxgbh2g2qsksukj",547,"26.csv","","239.19999992847443","resources/trios/L1T2A2.jpg","38","restless",0.3,0.3,0.6,0.554689875587794,"false"
"image-keyboard-response",240,249621,"0.0-3.76-1.76","kxgbh2g2qsksukj",547,"26.csv","","null","resources/maskTrios/BT2B.jpg","null","",NA,NA,NA,NA,""
"image-keyboard-response",241,250828,"0.0-3.76-2.76","kxgbh2g2qsksukj",547,"26.csv","","null","resources/images/fishbone.png","null","",NA,NA,NA,NA,""
"image-keyboard-response",242,251079,"0.0-3.77-0.77","kxgbh2g2qsksukj",547,"26.csv","","248.40000009536743","resources/trios/L1T4A3.jpg","39","restless",0.3,0.4,0.6,0.839738261822244,"false"
"image-keyboard-response",243,251485,"0.0-3.77-1.77","kxgbh2g2qsksukj",547,"26.csv","","null","resources/maskTrios/BBA3.jpg","null","",NA,NA,NA,NA,""
"image-keyboard-response",244,252692,"0.0-3.77-2.77","kxgbh2g2qsksukj",547,"26.csv","","null","resources/images/fishbone.png","null","",NA,NA,NA,NA,""
"image-keyboard-response",245,252987,"0.0-3.78-0.78","kxgbh2g2qsksukj",547,"26.csv","","293","resources/trios/L4T4A3.jpg","37","restless",0.4,0.4,0.6,0.97373008373951,"false"
"image-keyboard-response",246,253395,"0.0-3.78-1.78","kxgbh2g2qsksukj",547,"26.csv","","null","resources/maskTrios/L4BB.jpg","null","",NA,NA,NA,NA,""
"image-keyboard-response",247,254601,"0.0-3.78-2.78","kxgbh2g2qsksukj",547,"26.csv","","null","resources/images/fishbone.png","null","",NA,NA,NA,NA,""
"image-keyboard-response",248,254874,"0.0-3.79-0.79","kxgbh2g2qsksukj",547,"26.csv","","270.10000002384186","resources/trios/L1T4A2.jpg","37","restless",0.4,0.4,0.6,0.420400845568977,"false"
"image-keyboard-response",249,255281,"0.0-3.79-1.79","kxgbh2g2qsksukj",547,"26.csv","","null","resources/maskTrios/L1BB.jpg","null","",NA,NA,NA,NA,""
"image-keyboard-response",250,256485,"0.0-3.79-2.79","kxgbh2g2qsksukj",547,"26.csv","","null","resources/images/fishbone.png","null","",NA,NA,NA,NA,""
"image-keyboard-response",251,256728,"0.0-3.80-0.80","kxgbh2g2qsksukj",547,"26.csv","","241.10000002384186","resources/trios/L1T4A2.jpg","38","restless",0.4,0.4,0.6,0.509394838914946,"false"
"image-keyboard-response",252,257135,"0.0-3.80-1.80","kxgbh2g2qsksukj",547,"26.csv","","null","resources/maskTrios/BT4B.jpg","null","",NA,NA,NA,NA,""
"image-keyboard-response",253,258342,"0.0-3.80-2.80","kxgbh2g2qsksukj",547,"26.csv","","null","resources/images/fishbone.png","null","",NA,NA,NA,NA,""
"image-keyboard-response",254,258529,"0.0-3.81-0.81","kxgbh2g2qsksukj",547,"26.csv","","185.10000002384186","resources/trios/L1T2A2.jpg","38","restless",0.4,0.4,0.6,0.936281714777237,"false"
"image-keyboard-response",255,258935,"0.0-3.81-1.81","kxgbh2g2qsksukj",547,"26.csv","","null","resources/maskTrios/BT2B.jpg","null","",NA,NA,NA,NA,""
"image-keyboard-response",256,260140,"0.0-3.81-2.81","kxgbh2g2qsksukj",547,"26.csv","","null","resources/images/fishbone.png","null","",NA,NA,NA,NA,""
"image-keyboard-response",257,260486,"0.0-3.82-0.82","kxgbh2g2qsksukj",547,"26.csv","","344.7999999523163","resources/trios/L4T2A3.jpg","39","restless",0.4,0.4,0.6,0.668213224270887,"false"
"image-keyboard-response",258,260892,"0.0-3.82-1.82","kxgbh2g2qsksukj",547,"26.csv","","null","resources/maskTrios/BBA3.jpg","null","",NA,NA,NA,NA,""
"image-keyboard-response",259,262094,"0.0-3.82-2.82","kxgbh2g2qsksukj",547,"26.csv","","null","resources/images/fishbone.png","null","",NA,NA,NA,NA,""
"image-keyboard-response",260,262373,"0.0-3.83-0.83","kxgbh2g2qsksukj",547,"26.csv","","276.3000000715256","resources/trios/L1T4A3.jpg","38","restless",0.4,0.4,0.6,0.448508924057358,"false"
"image-keyboard-response",261,262778,"0.0-3.83-1.83","kxgbh2g2qsksukj",547,"26.csv","","null","resources/maskTrios/BT4B.jpg","null","",NA,NA,NA,NA,""
"image-keyboard-response",262,263984,"0.0-3.83-2.83","kxgbh2g2qsksukj",547,"26.csv","","null","resources/images/fishbone.png","null","",NA,NA,NA,NA,""
"image-keyboard-response",263,264469,"0.0-3.84-0.84","kxgbh2g2qsksukj",547,"26.csv","","482.60000002384186","resources/trios/L1T2A2.jpg","38","restless",0.4,0.4,0.6,0.776217136633025,"false"
"image-keyboard-response",264,264874,"0.0-3.84-1.84","kxgbh2g2qsksukj",547,"26.csv","","null","resources/maskTrios/BT2B.jpg","null","",NA,NA,NA,NA,""
"image-keyboard-response",265,266079,"0.0-3.84-2.84","kxgbh2g2qsksukj",547,"26.csv","","null","resources/images/fishbone.png","null","",NA,NA,NA,NA,""
"image-keyboard-response",266,266365,"0.0-3.85-0.85","kxgbh2g2qsksukj",547,"26.csv","","283.3000000715256","resources/trios/L1T4A2.jpg","37","restless",0.4,0.4,0.6,0.647871382682718,"false"
"image-keyboard-response",267,266769,"0.0-3.85-1.85","kxgbh2g2qsksukj",547,"26.csv","","null","resources/maskTrios/L1BB.jpg","null","",NA,NA,NA,NA,""
"image-keyboard-response",268,267971,"0.0-3.85-2.85","kxgbh2g2qsksukj",547,"26.csv","","null","resources/images/fishbone.png","null","",NA,NA,NA,NA,""
"image-keyboard-response",269,268268,"0.0-3.86-0.86","kxgbh2g2qsksukj",547,"26.csv","","294.2000000476837","resources/trios/L1T2A3.jpg","39","restless",0.4,0.4,0.6,0.480170224535627,"true"
"image-keyboard-response",270,268675,"0.0-3.86-1.86","kxgbh2g2qsksukj",547,"26.csv","","null","resources/maskTrios/BBA3.jpg","null","",NA,NA,NA,NA,""
"image-keyboard-response",271,269882,"0.0-3.86-2.86","kxgbh2g2qsksukj",547,"26.csv","","null","resources/images/coin2.png","null","",NA,NA,NA,NA,""
"image-keyboard-response",272,270160,"0.0-3.87-0.87","kxgbh2g2qsksukj",547,"26.csv","","275.39999997615814","resources/trios/L4T2A3.jpg","39","restless",0.4,0.4,0.6,0.249990553250987,"true"
"image-keyboard-response",273,270564,"0.0-3.87-1.87","kxgbh2g2qsksukj",547,"26.csv","","null","resources/maskTrios/BBA3.jpg","null","",NA,NA,NA,NA,""
"image-keyboard-response",274,271769,"0.0-3.87-2.87","kxgbh2g2qsksukj",547,"26.csv","","null","resources/images/coin2.png","null","",NA,NA,NA,NA,""
"image-keyboard-response",275,271936,"0.0-3.88-0.88","kxgbh2g2qsksukj",547,"26.csv","","164.39999997615814","resources/trios/L4T2A3.jpg","39","restless",0.4,0.4,0.6,0.93646816368656,"false"
"image-keyboard-response",276,272340,"0.0-3.88-1.88","kxgbh2g2qsksukj",547,"26.csv","","null","resources/maskTrios/BBA3.jpg","null","",NA,NA,NA,NA,""
"image-keyboard-response",277,273547,"0.0-3.88-2.88","kxgbh2g2qsksukj",547,"26.csv","","null","resources/images/fishbone.png","null","",NA,NA,NA,NA,""
"image-keyboard-response",278,273791,"0.0-3.89-0.89","kxgbh2g2qsksukj",547,"26.csv","","240.90000009536743","resources/trios/L1T2A3.jpg","39","restless",0.4,0.4,0.6,0.975171102587672,"false"
"image-keyboard-response",279,274197,"0.0-3.89-1.89","kxgbh2g2qsksukj",547,"26.csv","","null","resources/maskTrios/BBA3.jpg","null","",NA,NA,NA,NA,""
"image-keyboard-response",280,275402,"0.0-3.89-2.89","kxgbh2g2qsksukj",547,"26.csv","","null","resources/images/fishbone.png","null","",NA,NA,NA,NA,""
"image-keyboard-response",281,275546,"0.0-3.90-0.90","kxgbh2g2qsksukj",547,"26.csv","","142","resources/trios/L1T4A3.jpg","39","restless",0.4,0.4,0.6,0.849969918043509,"false"
"image-keyboard-response",282,275953,"0.0-3.90-1.90","kxgbh2g2qsksukj",547,"26.csv","","null","resources/maskTrios/BBA3.jpg","null","",NA,NA,NA,NA,""
"image-keyboard-response",283,277160,"0.0-3.90-2.90","kxgbh2g2qsksukj",547,"26.csv","","null","resources/images/fishbone.png","null","",NA,NA,NA,NA,""
"image-keyboard-response",284,277468,"0.0-3.91-0.91","kxgbh2g2qsksukj",547,"26.csv","","305.3000000715256","resources/trios/L1T4A2.jpg","37","restless",0.4,0.4,0.7,0.876337092350328,"false"
"image-keyboard-response",285,277875,"0.0-3.91-1.91","kxgbh2g2qsksukj",547,"26.csv","","null","resources/maskTrios/L1BB.jpg","null","",NA,NA,NA,NA,""
"image-keyboard-response",286,279082,"0.0-3.91-2.91","kxgbh2g2qsksukj",547,"26.csv","","null","resources/images/fishbone.png","null","",NA,NA,NA,NA,""
"image-keyboard-response",287,279347,"0.0-3.92-0.92","kxgbh2g2qsksukj",547,"26.csv","","262.89999997615814","resources/trios/L4T4A2.jpg","39","restless",0.4,0.4,0.7,0.747121181363373,"false"
"image-keyboard-response",288,279755,"0.0-3.92-1.92","kxgbh2g2qsksukj",547,"26.csv","","null","resources/maskTrios/BBA2.jpg","null","",NA,NA,NA,NA,""
"image-keyboard-response",289,280961,"0.0-3.92-2.92","kxgbh2g2qsksukj",547,"26.csv","","null","resources/images/fishbone.png","null","",NA,NA,NA,NA,""
"image-keyboard-response",290,281280,"0.0-3.93-0.93","kxgbh2g2qsksukj",547,"26.csv","","316","resources/trios/L4T4A3.jpg","38","restless",0.4,0.4,0.7,0.0430433091062392,"true"
"image-keyboard-response",291,281684,"0.0-3.93-1.93","kxgbh2g2qsksukj",547,"26.csv","","null","resources/maskTrios/BT4B.jpg","null","",NA,NA,NA,NA,""
"image-keyboard-response",292,282891,"0.0-3.93-2.93","kxgbh2g2qsksukj",547,"26.csv","","null","resources/images/coin2.png","null","",NA,NA,NA,NA,""
"image-keyboard-response",293,283023,"0.0-3.94-0.94","kxgbh2g2qsksukj",547,"26.csv","","130","resources/trios/L1T2A3.jpg","38","restless",0.4,0.4,0.7,0.504955244512242,"false"
"image-keyboard-response",294,283430,"0.0-3.94-1.94","kxgbh2g2qsksukj",547,"26.csv","","null","resources/maskTrios/BT2B.jpg","null","",NA,NA,NA,NA,""
"image-keyboard-response",295,284634,"0.0-3.94-2.94","kxgbh2g2qsksukj",547,"26.csv","","null","resources/images/fishbone.png","null","",NA,NA,NA,NA,""
"image-keyboard-response",296,284899,"0.0-3.95-0.95","kxgbh2g2qsksukj",547,"26.csv","","263","resources/trios/L4T2A3.jpg","37","restless",0.4,0.4,0.7,0.407358217125597,"false"
"image-keyboard-response",297,285305,"0.0-3.95-1.95","kxgbh2g2qsksukj",547,"26.csv","","null","resources/maskTrios/L4BB.jpg","null","",NA,NA,NA,NA,""
"image-keyboard-response",298,286512,"0.0-3.95-2.95","kxgbh2g2qsksukj",547,"26.csv","","null","resources/images/fishbone.png","null","",NA,NA,NA,NA,""
"image-keyboard-response",299,286700,"0.0-3.96-0.96","kxgbh2g2qsksukj",547,"26.csv","","186.39999997615814","resources/trios/L1T4A3.jpg","39","restless",0.3,0.5,0.8,0.146401775257459,"true"
"image-keyboard-response",300,287106,"0.0-3.96-1.96","kxgbh2g2qsksukj",547,"26.csv","","null","resources/maskTrios/BBA3.jpg","null","",NA,NA,NA,NA,""
"image-keyboard-response",301,288313,"0.0-3.96-2.96","kxgbh2g2qsksukj",547,"26.csv","","null","resources/images/coin2.png","null","",NA,NA,NA,NA,""
"image-keyboard-response",302,288557,"0.0-3.97-0.97","kxgbh2g2qsksukj",547,"26.csv","","242","resources/trios/L1T4A2.jpg","39","restless",0.3,0.5,0.8,0.495452069517681,"true"
"image-keyboard-response",303,288963,"0.0-3.97-1.97","kxgbh2g2qsksukj",547,"26.csv","","null","resources/maskTrios/BBA2.jpg","null","",NA,NA,NA,NA,""
"image-keyboard-response",304,290170,"0.0-3.97-2.97","kxgbh2g2qsksukj",547,"26.csv","","null","resources/images/coin2.png","null","",NA,NA,NA,NA,""
"image-keyboard-response",305,290317,"0.0-3.98-0.98","kxgbh2g2qsksukj",547,"26.csv","","144.89999997615814","resources/trios/L1T4A3.jpg","39","restless",0.3,0.5,0.8,0.00985673044330571,"true"
"image-keyboard-response",306,290724,"0.0-3.98-1.98","kxgbh2g2qsksukj",547,"26.csv","","null","resources/maskTrios/BBA3.jpg","null","",NA,NA,NA,NA,""
"image-keyboard-response",307,291928,"0.0-3.98-2.98","kxgbh2g2qsksukj",547,"26.csv","","null","resources/images/coin2.png","null","",NA,NA,NA,NA,""
"image-keyboard-response",308,292231,"0.0-3.99-0.99","kxgbh2g2qsksukj",547,"26.csv","","301.2000000476837","resources/trios/L4T4A2.jpg","39","restless",0.3,0.6,0.8,0.516044669853861,"true"
"image-keyboard-response",309,292638,"0.0-3.99-1.99","kxgbh2g2qsksukj",547,"26.csv","","null","resources/maskTrios/BBA2.jpg","null","",NA,NA,NA,NA,""
"image-keyboard-response",310,293845,"0.0-3.99-2.99","kxgbh2g2qsksukj",547,"26.csv","","null","resources/images/coin2.png","null","",NA,NA,NA,NA,""
"image-keyboard-response",311,294158,"0.0-3.100-0.100","kxgbh2g2qsksukj",547,"26.csv","","311.10000002384186","resources/trios/L4T2A3.jpg","39","restless",0.2,0.6,0.8,0.0374423291348136,"true"
"image-keyboard-response",312,294563,"0.0-3.100-1.100","kxgbh2g2qsksukj",547,"26.csv","","null","resources/maskTrios/BBA3.jpg","null","",NA,NA,NA,NA,""
"image-keyboard-response",313,295770,"0.0-3.100-2.100","kxgbh2g2qsksukj",547,"26.csv","","null","resources/images/coin2.png","null","",NA,NA,NA,NA,""
"image-keyboard-response",314,296068,"0.0-3.101-0.101","kxgbh2g2qsksukj",547,"26.csv","","295.09999990463257","resources/trios/L4T4A2.jpg","39","restless",0.2,0.6,0.8,0.937586076829266,"false"
"image-keyboard-response",315,296470,"0.0-3.101-1.101","kxgbh2g2qsksukj",547,"26.csv","","null","resources/maskTrios/BBA2.jpg","null","",NA,NA,NA,NA,""
"image-keyboard-response",316,297677,"0.0-3.101-2.101","kxgbh2g2qsksukj",547,"26.csv","","null","resources/images/fishbone.png","null","",NA,NA,NA,NA,""
"image-keyboard-response",317,297991,"0.0-3.102-0.102","kxgbh2g2qsksukj",547,"26.csv","","311","resources/trios/L1T4A3.jpg","38","restless",0.1,0.6,0.9,0.490834092306502,"true"
"image-keyboard-response",318,298398,"0.0-3.102-1.102","kxgbh2g2qsksukj",547,"26.csv","","null","resources/maskTrios/BT4B.jpg","null","",NA,NA,NA,NA,""
"image-keyboard-response",319,299602,"0.0-3.102-2.102","kxgbh2g2qsksukj",547,"26.csv","","null","resources/images/coin2.png","null","",NA,NA,NA,NA,""
"image-keyboard-response",320,300041,"0.0-3.103-0.103","kxgbh2g2qsksukj",547,"26.csv","","437","resources/trios/L4T4A3.jpg","38","restless",0.1,0.6,0.9,0.859147000342548,"false"
"image-keyboard-response",321,300448,"0.0-3.103-1.103","kxgbh2g2qsksukj",547,"26.csv","","null","resources/maskTrios/BT4B.jpg","null","",NA,NA,NA,NA,""
"image-keyboard-response",322,301654,"0.0-3.103-2.103","kxgbh2g2qsksukj",547,"26.csv","","null","resources/images/fishbone.png","null","",NA,NA,NA,NA,""
"image-keyboard-response",323,302049,"0.0-3.104-0.104","kxgbh2g2qsksukj",547,"26.csv","","392.40000009536743","resources/trios/L4T2A3.jpg","39","restless",0.1,0.7,0.9,0.673601855850956,"true"
"image-keyboard-response",324,302452,"0.0-3.104-1.104","kxgbh2g2qsksukj",547,"26.csv","","null","resources/maskTrios/BBA3.jpg","null","",NA,NA,NA,NA,""
"image-keyboard-response",325,303659,"0.0-3.104-2.104","kxgbh2g2qsksukj",547,"26.csv","","null","resources/images/coin2.png","null","",NA,NA,NA,NA,""
"image-keyboard-response",326,305284,"0.0-3.105-0.105","kxgbh2g2qsksukj",547,"26.csv","","1623.3999999761581","resources/trios/L4T2A2.jpg","37","restless",0.1,0.7,0.9,0.94642245702155,"false"
"image-keyboard-response",327,305692,"0.0-3.105-1.105","kxgbh2g2qsksukj",547,"26.csv","","null","resources/maskTrios/L4BB.jpg","null","",NA,NA,NA,NA,""
"image-keyboard-response",328,306899,"0.0-3.105-2.105","kxgbh2g2qsksukj",547,"26.csv","","null","resources/images/fishbone.png","null","",NA,NA,NA,NA,""
"image-keyboard-response",329,307676,"0.0-3.106-0.106","kxgbh2g2qsksukj",547,"26.csv","","775.5","resources/trios/L4T4A3.jpg","38","restless",0.1,0.7,0.9,0.281683609607845,"true"
"image-keyboard-response",330,308083,"0.0-3.106-1.106","kxgbh2g2qsksukj",547,"26.csv","","null","resources/maskTrios/BT4B.jpg","null","",NA,NA,NA,NA,""
"image-keyboard-response",331,309290,"0.0-3.106-2.106","kxgbh2g2qsksukj",547,"26.csv","","null","resources/images/coin2.png","null","",NA,NA,NA,NA,""
"image-keyboard-response",332,310796,"0.0-3.107-0.107","kxgbh2g2qsksukj",547,"26.csv","","1504.1000000238419","resources/trios/L1T4A3.jpg","39","restless",0.1,0.7,0.9,0.681205711550164,"true"
"image-keyboard-response",333,311199,"0.0-3.107-1.107","kxgbh2g2qsksukj",547,"26.csv","","null","resources/maskTrios/BBA3.jpg","null","",NA,NA,NA,NA,""
"image-keyboard-response",334,312403,"0.0-3.107-2.107","kxgbh2g2qsksukj",547,"26.csv","","null","resources/images/coin2.png","null","",NA,NA,NA,NA,""
"image-keyboard-response",335,314289,"0.0-3.108-0.108","kxgbh2g2qsksukj",547,"26.csv","","1884.2000000476837","resources/trios/L1T4A3.jpg","38","restless",0.1,0.7,0.9,0.034625279727952,"true"
"image-keyboard-response",336,314694,"0.0-3.108-1.108","kxgbh2g2qsksukj",547,"26.csv","","null","resources/maskTrios/BT4B.jpg","null","",NA,NA,NA,NA,""
"image-keyboard-response",337,315901,"0.0-3.108-2.108","kxgbh2g2qsksukj",547,"26.csv","","null","resources/images/coin2.png","null","",NA,NA,NA,NA,""
"image-keyboard-response",338,317666,"0.0-3.109-0.109","kxgbh2g2qsksukj",547,"26.csv","","1762.8999999761581","resources/trios/L1T2A2.jpg","37","restless",0.1,0.7,0.9,0.777979724871525,"false"
"image-keyboard-response",339,318069,"0.0-3.109-1.109","kxgbh2g2qsksukj",547,"26.csv","","null","resources/maskTrios/L1BB.jpg","null","",NA,NA,NA,NA,""
"image-keyboard-response",340,319274,"0.0-3.109-2.109","kxgbh2g2qsksukj",547,"26.csv","","null","resources/images/fishbone.png","null","",NA,NA,NA,NA,""
"image-keyboard-response",341,320169,"0.0-3.110-0.110","kxgbh2g2qsksukj",547,"26.csv","","893.2999999523163","resources/trios/L1T2A2.jpg","38","restless",0.1,0.7,0.8,0.453375283165662,"true"
"image-keyboard-response",342,320572,"0.0-3.110-1.110","kxgbh2g2qsksukj",547,"26.csv","","null","resources/maskTrios/BT2B.jpg","null","",NA,NA,NA,NA,""
"image-keyboard-response",343,321779,"0.0-3.110-2.110","kxgbh2g2qsksukj",547,"26.csv","","null","resources/images/coin2.png","null","",NA,NA,NA,NA,""
"image-keyboard-response",344,322553,"0.0-3.111-0.111","kxgbh2g2qsksukj",547,"26.csv","","771.7000000476837","resources/trios/L4T2A2.jpg","38","restless",0.1,0.7,0.8,0.830742010450344,"false"
"image-keyboard-response",345,322960,"0.0-3.111-1.111","kxgbh2g2qsksukj",547,"26.csv","","null","resources/maskTrios/BT2B.jpg","null","",NA,NA,NA,NA,""
"image-keyboard-response",346,324167,"0.0-3.111-2.111","kxgbh2g2qsksukj",547,"26.csv","","null","resources/images/fishbone.png","null","",NA,NA,NA,NA,""
"image-keyboard-response",347,325294,"0.0-3.112-0.112","kxgbh2g2qsksukj",547,"26.csv","","1124.5","resources/trios/L4T2A2.jpg","39","restless",0.1,0.7,0.8,0.157792837586614,"true"
"image-keyboard-response",348,325701,"0.0-3.112-1.112","kxgbh2g2qsksukj",547,"26.csv","","null","resources/maskTrios/BBA2.jpg","null","",NA,NA,NA,NA,""
"image-keyboard-response",349,326904,"0.0-3.112-2.112","kxgbh2g2qsksukj",547,"26.csv","","null","resources/images/coin2.png","null","",NA,NA,NA,NA,""
"image-keyboard-response",350,327990,"0.0-3.113-0.113","kxgbh2g2qsksukj",547,"26.csv","","1083","resources/trios/L1T4A3.jpg","37","restless",0.1,0.7,0.8,0.358447090604744,"false"
"image-keyboard-response",351,328397,"0.0-3.113-1.113","kxgbh2g2qsksukj",547,"26.csv","","null","resources/maskTrios/L1BB.jpg","null","",NA,NA,NA,NA,""
"image-keyboard-response",352,329599,"0.0-3.113-2.113","kxgbh2g2qsksukj",547,"26.csv","","null","resources/images/fishbone.png","null","",NA,NA,NA,NA,""
"image-keyboard-response",353,330216,"0.0-3.114-0.114","kxgbh2g2qsksukj",547,"26.csv","","614.5","resources/trios/L1T4A2.jpg","38","restless",0.1,0.7,0.8,0.506520473200992,"true"
"image-keyboard-response",354,330621,"0.0-3.114-1.114","kxgbh2g2qsksukj",547,"26.csv","","null","resources/maskTrios/BT4B.jpg","null","",NA,NA,NA,NA,""
"image-keyboard-response",355,331824,"0.0-3.114-2.114","kxgbh2g2qsksukj",547,"26.csv","","null","resources/images/coin2.png","null","",NA,NA,NA,NA,""
"image-keyboard-response",356,332782,"0.0-3.115-0.115","kxgbh2g2qsksukj",547,"26.csv","","955.7999999523163","resources/trios/L1T4A2.jpg","38","restless",0.1,0.7,0.8,0.204967361526338,"true"
"image-keyboard-response",357,333189,"0.0-3.115-1.115","kxgbh2g2qsksukj",547,"26.csv","","null","resources/maskTrios/BT4B.jpg","null","",NA,NA,NA,NA,""
"image-keyboard-response",358,334393,"0.0-3.115-2.115","kxgbh2g2qsksukj",547,"26.csv","","null","resources/images/coin2.png","null","",NA,NA,NA,NA,""
"image-keyboard-response",359,335456,"0.0-3.116-0.116","kxgbh2g2qsksukj",547,"26.csv","","1060.6999999284744","resources/trios/L4T2A3.jpg","39","restless",0.1,0.7,0.8,0.0766953165888256,"true"
"image-keyboard-response",360,335861,"0.0-3.116-1.116","kxgbh2g2qsksukj",547,"26.csv","","null","resources/maskTrios/BBA3.jpg","null","",NA,NA,NA,NA,""
"image-keyboard-response",361,337068,"0.0-3.116-2.116","kxgbh2g2qsksukj",547,"26.csv","","null","resources/images/coin2.png","null","",NA,NA,NA,NA,""
"image-keyboard-response",362,338342,"0.0-3.117-0.117","kxgbh2g2qsksukj",547,"26.csv","","1272.3999999761581","resources/trios/L1T2A3.jpg","39","restless",0.1,0.7,0.8,0.776916721163043,"true"
"image-keyboard-response",363,338750,"0.0-3.117-1.117","kxgbh2g2qsksukj",547,"26.csv","","null","resources/maskTrios/BBA3.jpg","null","",NA,NA,NA,NA,""
"image-keyboard-response",364,339957,"0.0-3.117-2.117","kxgbh2g2qsksukj",547,"26.csv","","null","resources/images/coin2.png","null","",NA,NA,NA,NA,""
"image-keyboard-response",365,341125,"0.0-3.118-0.118","kxgbh2g2qsksukj",547,"26.csv","","1165.8999999761581","resources/trios/L1T2A3.jpg","39","restless",0.1,0.7,0.8,0.565933386226125,"true"
"image-keyboard-response",366,341531,"0.0-3.118-1.118","kxgbh2g2qsksukj",547,"26.csv","","null","resources/maskTrios/BBA3.jpg","null","",NA,NA,NA,NA,""
"image-keyboard-response",367,342734,"0.0-3.118-2.118","kxgbh2g2qsksukj",547,"26.csv","","null","resources/images/coin2.png","null","",NA,NA,NA,NA,""
"image-keyboard-response",368,345817,"0.0-3.119-0.119","kxgbh2g2qsksukj",547,"26.csv","","3080.7000000476837","resources/trios/L1T4A3.jpg","38","restless",0.1,0.7,0.7,0.452407562605677,"true"
"image-keyboard-response",369,346222,"0.0-3.119-1.119","kxgbh2g2qsksukj",547,"26.csv","","null","resources/maskTrios/BT4B.jpg","null","",NA,NA,NA,NA,""
"image-keyboard-response",370,347424,"0.0-3.119-2.119","kxgbh2g2qsksukj",547,"26.csv","","null","resources/images/coin2.png","null","",NA,NA,NA,NA,""
"image-keyboard-response",371,349001,"0.0-3.120-0.120","kxgbh2g2qsksukj",547,"26.csv","","1574.3000000715256","resources/trios/L4T4A3.jpg","38","restless",0.1,0.7,0.7,0.291079867203789,"true"
"image-keyboard-response",372,349408,"0.0-3.120-1.120","kxgbh2g2qsksukj",547,"26.csv","","null","resources/maskTrios/BT4B.jpg","null","",NA,NA,NA,NA,""
"image-keyboard-response",373,350611,"0.0-3.120-2.120","kxgbh2g2qsksukj",547,"26.csv","","null","resources/images/coin2.png","null","",NA,NA,NA,NA,""
"image-keyboard-response",374,351999,"0.0-3.121-0.121","kxgbh2g2qsksukj",547,"26.csv","","1386.3999999761581","resources/trios/L4T4A2.jpg","38","restless",0.1,0.7,0.7,0.617193247083851,"true"
"image-keyboard-response",375,352406,"0.0-3.121-1.121","kxgbh2g2qsksukj",547,"26.csv","","null","resources/maskTrios/BT4B.jpg","null","",NA,NA,NA,NA,""
"image-keyboard-response",376,353614,"0.0-3.121-2.121","kxgbh2g2qsksukj",547,"26.csv","","null","resources/images/coin2.png","null","",NA,NA,NA,NA,""
"image-keyboard-response",377,356949,"0.0-3.122-0.122","kxgbh2g2qsksukj",547,"26.csv","","3333.1999999284744","resources/trios/L1T2A3.jpg","39","restless",0.1,0.7,0.7,0.440199480341916,"true"
"image-keyboard-response",378,357356,"0.0-3.122-1.122","kxgbh2g2qsksukj",547,"26.csv","","null","resources/maskTrios/BBA3.jpg","null","",NA,NA,NA,NA,""
"image-keyboard-response",379,358560,"0.0-3.122-2.122","kxgbh2g2qsksukj",547,"26.csv","","null","resources/images/coin2.png","null","",NA,NA,NA,NA,""
"image-keyboard-response",380,359755,"0.0-3.123-0.123","kxgbh2g2qsksukj",547,"26.csv","","1192","resources/trios/L1T2A2.jpg","39","restless",0.1,0.6,0.7,0.0473296964702665,"true"
"image-keyboard-response",381,360160,"0.0-3.123-1.123","kxgbh2g2qsksukj",547,"26.csv","","null","resources/maskTrios/BBA2.jpg","null","",NA,NA,NA,NA,""
"image-keyboard-response",382,361367,"0.0-3.123-2.123","kxgbh2g2qsksukj",547,"26.csv","","null","resources/images/coin2.png","null","",NA,NA,NA,NA,""
"image-keyboard-response",383,362974,"0.0-3.124-0.124","kxgbh2g2qsksukj",547,"26.csv","","1605.1000000238419","resources/trios/L1T4A2.jpg","38","restless",0.2,0.6,0.7,0.217531720417761,"true"
"image-keyboard-response",384,363380,"0.0-3.124-1.124","kxgbh2g2qsksukj",547,"26.csv","","null","resources/maskTrios/BT4B.jpg","null","",NA,NA,NA,NA,""
"image-keyboard-response",385,364586,"0.0-3.124-2.124","kxgbh2g2qsksukj",547,"26.csv","","null","resources/images/coin2.png","null","",NA,NA,NA,NA,""
"image-keyboard-response",386,365410,"0.0-3.125-0.125","kxgbh2g2qsksukj",547,"26.csv","","823.3999999761581","resources/trios/L4T4A2.jpg","38","restless",0.2,0.6,0.7,0.0858908654383306,"true"
"image-keyboard-response",387,365817,"0.0-3.125-1.125","kxgbh2g2qsksukj",547,"26.csv","","null","resources/maskTrios/BT4B.jpg","null","",NA,NA,NA,NA,""
"image-keyboard-response",388,367022,"0.0-3.125-2.125","kxgbh2g2qsksukj",547,"26.csv","","null","resources/images/coin2.png","null","",NA,NA,NA,NA,""
"image-keyboard-response",389,368438,"0.0-3.126-0.126","kxgbh2g2qsksukj",547,"26.csv","","1413.2000000476837","resources/trios/L1T2A3.jpg","39","restless",0.2,0.6,0.7,0.394411729253203,"true"
"image-keyboard-response",390,368845,"0.0-3.126-1.126","kxgbh2g2qsksukj",547,"26.csv","","null","resources/maskTrios/BBA3.jpg","null","",NA,NA,NA,NA,""
"image-keyboard-response",391,370050,"0.0-3.126-2.126","kxgbh2g2qsksukj",547,"26.csv","","null","resources/images/coin2.png","null","",NA,NA,NA,NA,""
"image-keyboard-response",392,372663,"0.0-3.127-0.127","kxgbh2g2qsksukj",547,"26.csv","","2611.100000023842","resources/trios/L1T2A3.jpg","39","restless",0.2,0.6,0.7,0.600417251976184,"true"
"image-keyboard-response",393,373067,"0.0-3.127-1.127","kxgbh2g2qsksukj",547,"26.csv","","null","resources/maskTrios/BBA3.jpg","null","",NA,NA,NA,NA,""
"image-keyboard-response",394,374270,"0.0-3.127-2.127","kxgbh2g2qsksukj",547,"26.csv","","null","resources/images/coin2.png","null","",NA,NA,NA,NA,""
"image-keyboard-response",395,375954,"0.0-3.128-0.128","kxgbh2g2qsksukj",547,"26.csv","","1682.7999999523163","resources/trios/L4T4A3.jpg","38","restless",0.2,0.5,0.7,0.410512711213277,"true"
"image-keyboard-response",396,376361,"0.0-3.128-1.128","kxgbh2g2qsksukj",547,"26.csv","","null","resources/maskTrios/BT4B.jpg","null","",NA,NA,NA,NA,""
"image-keyboard-response",397,377569,"0.0-3.128-2.128","kxgbh2g2qsksukj",547,"26.csv","","null","resources/images/coin2.png","null","",NA,NA,NA,NA,""
"image-keyboard-response",398,379338,"0.0-3.129-0.129","kxgbh2g2qsksukj",547,"26.csv","","1767","resources/trios/L1T4A3.jpg","39","restless",0.2,0.5,0.7,0.378469978211328,"true"
"image-keyboard-response",399,379741,"0.0-3.129-1.129","kxgbh2g2qsksukj",547,"26.csv","","null","resources/maskTrios/BBA3.jpg","null","",NA,NA,NA,NA,""
"image-keyboard-response",400,380944,"0.0-3.129-2.129","kxgbh2g2qsksukj",547,"26.csv","","null","resources/images/coin2.png","null","",NA,NA,NA,NA,""
"image-keyboard-response",401,384020,"0.0-3.130-0.130","kxgbh2g2qsksukj",547,"26.csv","","3073","resources/trios/L1T2A3.jpg","38","restless",0.3,0.6,0.7,0.216140779396976,"true"
"image-keyboard-response",402,384428,"0.0-3.130-1.130","kxgbh2g2qsksukj",547,"26.csv","","null","resources/maskTrios/BT2B.jpg","null","",NA,NA,NA,NA,""
"image-keyboard-response",403,385633,"0.0-3.130-2.130","kxgbh2g2qsksukj",547,"26.csv","","null","resources/images/coin2.png","null","",NA,NA,NA,NA,""
"image-keyboard-response",404,386999,"0.0-3.131-0.131","kxgbh2g2qsksukj",547,"26.csv","","1363.3000000715256","resources/trios/L4T4A3.jpg","38","restless",0.3,0.6,0.7,0.562614968626215,"true"
"image-keyboard-response",405,387407,"0.0-3.131-1.131","kxgbh2g2qsksukj",547,"26.csv","","null","resources/maskTrios/BT4B.jpg","null","",NA,NA,NA,NA,""
"image-keyboard-response",406,388614,"0.0-3.131-2.131","kxgbh2g2qsksukj",547,"26.csv","","null","resources/images/coin2.png","null","",NA,NA,NA,NA,""
"image-keyboard-response",407,392667,"0.0-3.132-0.132","kxgbh2g2qsksukj",547,"26.csv","","4050.2999999523163","resources/trios/L1T2A2.jpg","38","restless",0.3,0.6,0.7,0.851140074911587,"false"
"image-keyboard-response",408,393074,"0.0-3.132-1.132","kxgbh2g2qsksukj",547,"26.csv","","null","resources/maskTrios/BT2B.jpg","null","",NA,NA,NA,NA,""
"image-keyboard-response",409,394279,"0.0-3.132-2.132","kxgbh2g2qsksukj",547,"26.csv","","null","resources/images/fishbone.png","null","",NA,NA,NA,NA,""
"image-keyboard-response",410,395212,"0.0-3.133-0.133","kxgbh2g2qsksukj",547,"26.csv","","930.3000000715256","resources/trios/L4T2A2.jpg","39","restless",0.3,0.6,0.7,0.618997680689589,"true"
"image-keyboard-response",411,395616,"0.0-3.133-1.133","kxgbh2g2qsksukj",547,"26.csv","","null","resources/maskTrios/BBA2.jpg","null","",NA,NA,NA,NA,""
"image-keyboard-response",412,396822,"0.0-3.133-2.133","kxgbh2g2qsksukj",547,"26.csv","","null","resources/images/coin2.png","null","",NA,NA,NA,NA,""
"image-keyboard-response",413,397903,"0.0-3.134-0.134","kxgbh2g2qsksukj",547,"26.csv","","1078.7999999523163","resources/trios/L1T4A3.jpg","38","restless",0.3,0.6,0.7,0.838304879705666,"false"
"image-keyboard-response",414,398310,"0.0-3.134-1.134","kxgbh2g2qsksukj",547,"26.csv","","null","resources/maskTrios/BT4B.jpg","null","",NA,NA,NA,NA,""
"image-keyboard-response",415,399517,"0.0-3.134-2.134","kxgbh2g2qsksukj",547,"26.csv","","null","resources/images/fishbone.png","null","",NA,NA,NA,NA,""
"image-keyboard-response",416,400283,"0.0-3.135-0.135","kxgbh2g2qsksukj",547,"26.csv","","764.6000000238419","resources/trios/L1T4A3.jpg","39","restless",0.3,0.6,0.7,0.48306357377643,"true"
"image-keyboard-response",417,400691,"0.0-3.135-1.135","kxgbh2g2qsksukj",547,"26.csv","","null","resources/maskTrios/BBA3.jpg","null","",NA,NA,NA,NA,""
"image-keyboard-response",418,401898,"0.0-3.135-2.135","kxgbh2g2qsksukj",547,"26.csv","","null","resources/images/coin2.png","null","",NA,NA,NA,NA,""
"image-keyboard-response",419,403027,"0.0-3.136-0.136","kxgbh2g2qsksukj",547,"26.csv","","1126.3999999761581","resources/trios/L1T2A2.jpg","38","restless",0.3,0.6,0.7,0.17128962005178,"true"
"image-keyboard-response",420,403433,"0.0-3.136-1.136","kxgbh2g2qsksukj",547,"26.csv","","null","resources/maskTrios/BT2B.jpg","null","",NA,NA,NA,NA,""
"image-keyboard-response",421,404637,"0.0-3.136-2.136","kxgbh2g2qsksukj",547,"26.csv","","null","resources/images/coin2.png","null","",NA,NA,NA,NA,""
"image-keyboard-response",422,406159,"0.0-3.137-0.137","kxgbh2g2qsksukj",547,"26.csv","","1519.1000000238419","resources/trios/L1T2A2.jpg","38","restless",0.4,0.6,0.7,0.139399199645267,"true"
"image-keyboard-response",423,406562,"0.0-3.137-1.137","kxgbh2g2qsksukj",547,"26.csv","","null","resources/maskTrios/BT2B.jpg","null","",NA,NA,NA,NA,""
"image-keyboard-response",424,407764,"0.0-3.137-2.137","kxgbh2g2qsksukj",547,"26.csv","","null","resources/images/coin2.png","null","",NA,NA,NA,NA,""
"image-keyboard-response",425,409243,"0.0-3.138-0.138","kxgbh2g2qsksukj",547,"26.csv","","1476.2999999523163","resources/trios/L4T2A3.jpg","39","restless",0.4,0.6,0.7,0.205643012319791,"true"
"image-keyboard-response",426,409650,"0.0-3.138-1.138","kxgbh2g2qsksukj",547,"26.csv","","null","resources/maskTrios/BBA3.jpg","null","",NA,NA,NA,NA,""
"image-keyboard-response",427,410857,"0.0-3.138-2.138","kxgbh2g2qsksukj",547,"26.csv","","null","resources/images/coin2.png","null","",NA,NA,NA,NA,""
"image-keyboard-response",428,413793,"0.0-3.139-0.139","kxgbh2g2qsksukj",547,"26.csv","","2933.1999999284744","resources/trios/L4T2A3.jpg","39","restless",0.5,0.6,0.7,0.947580849932809,"false"
"image-keyboard-response",429,414200,"0.0-3.139-1.139","kxgbh2g2qsksukj",547,"26.csv","","null","resources/maskTrios/BBA3.jpg","null","",NA,NA,NA,NA,""
"image-keyboard-response",430,415404,"0.0-3.139-2.139","kxgbh2g2qsksukj",547,"26.csv","","null","resources/images/fishbone.png","null","",NA,NA,NA,NA,""
"image-keyboard-response",431,415919,"0.0-3.140-0.140","kxgbh2g2qsksukj",547,"26.csv","","513","resources/trios/L4T2A2.jpg","38","restless",0.5,0.6,0.7,0.286125912643491,"true"
"image-keyboard-response",432,416327,"0.0-3.140-1.140","kxgbh2g2qsksukj",547,"26.csv","","null","resources/maskTrios/BT2B.jpg","null","",NA,NA,NA,NA,""
"image-keyboard-response",433,417534,"0.0-3.140-2.140","kxgbh2g2qsksukj",547,"26.csv","","null","resources/images/coin2.png","null","",NA,NA,NA,NA,""
"image-keyboard-response",434,418475,"0.0-3.141-0.141","kxgbh2g2qsksukj",547,"26.csv","","940.5","resources/trios/L1T4A2.jpg","38","restless",0.5,0.6,0.6,0.378263751684752,"true"
"image-keyboard-response",435,418882,"0.0-3.141-1.141","kxgbh2g2qsksukj",547,"26.csv","","null","resources/maskTrios/BT4B.jpg","null","",NA,NA,NA,NA,""
"image-keyboard-response",436,420089,"0.0-3.141-2.141","kxgbh2g2qsksukj",547,"26.csv","","null","resources/images/coin2.png","null","",NA,NA,NA,NA,""
"image-keyboard-response",437,421520,"0.0-3.142-0.142","kxgbh2g2qsksukj",547,"26.csv","","1428.6000000238419","resources/trios/L1T2A3.jpg","39","restless",0.5,0.6,0.7,0.874499163329295,"false"
"image-keyboard-response",438,421928,"0.0-3.142-1.142","kxgbh2g2qsksukj",547,"26.csv","","null","resources/maskTrios/BBA3.jpg","null","",NA,NA,NA,NA,""
"image-keyboard-response",439,423134,"0.0-3.142-2.142","kxgbh2g2qsksukj",547,"26.csv","","null","resources/images/fishbone.png","null","",NA,NA,NA,NA,""
"image-keyboard-response",440,423437,"0.0-3.143-0.143","kxgbh2g2qsksukj",547,"26.csv","","300","resources/trios/L1T2A2.jpg","38","restless",0.5,0.6,0.7,0.604524666883857,"false"
"image-keyboard-response",441,423840,"0.0-3.143-1.143","kxgbh2g2qsksukj",547,"26.csv","","null","resources/maskTrios/BT2B.jpg","null","",NA,NA,NA,NA,""
"image-keyboard-response",442,425047,"0.0-3.143-2.143","kxgbh2g2qsksukj",547,"26.csv","","null","resources/images/fishbone.png","null","",NA,NA,NA,NA,""
"image-keyboard-response",443,428095,"0.0-3.144-0.144","kxgbh2g2qsksukj",547,"26.csv","","3046.2999999523163","resources/trios/L1T4A3.jpg","38","restless",0.5,0.6,0.7,0.971763042828038,"false"
"image-keyboard-response",444,428503,"0.0-3.144-1.144","kxgbh2g2qsksukj",547,"26.csv","","null","resources/maskTrios/BT4B.jpg","null","",NA,NA,NA,NA,""
"image-keyboard-response",445,429710,"0.0-3.144-2.144","kxgbh2g2qsksukj",547,"26.csv","","null","resources/images/fishbone.png","null","",NA,NA,NA,NA,""
"image-keyboard-response",446,430230,"0.0-3.145-0.145","kxgbh2g2qsksukj",547,"26.csv","","517.5","resources/trios/L1T4A2.jpg","39","restless",0.5,0.6,0.7,0.247102817679669,"true"
"image-keyboard-response",447,430638,"0.0-3.145-1.145","kxgbh2g2qsksukj",547,"26.csv","","null","resources/maskTrios/BBA2.jpg","null","",NA,NA,NA,NA,""
"image-keyboard-response",448,431845,"0.0-3.145-2.145","kxgbh2g2qsksukj",547,"26.csv","","null","resources/images/coin2.png","null","",NA,NA,NA,NA,""
"image-keyboard-response",449,433920,"0.0-3.146-0.146","kxgbh2g2qsksukj",547,"26.csv","","2072.6999999284744","resources/trios/L4T2A2.jpg","38","restless",0.5,0.6,0.7,0.959620649493616,"false"
"image-keyboard-response",450,434326,"0.0-3.146-1.146","kxgbh2g2qsksukj",547,"26.csv","","null","resources/maskTrios/BT2B.jpg","null","",NA,NA,NA,NA,""
"image-keyboard-response",451,435533,"0.0-3.146-2.146","kxgbh2g2qsksukj",547,"26.csv","","null","resources/images/fishbone.png","null","",NA,NA,NA,NA,""
"image-keyboard-response",452,436411,"0.0-3.147-0.147","kxgbh2g2qsksukj",547,"26.csv","","876.3999999761581","resources/trios/L4T4A2.jpg","37","restless",0.5,0.6,0.7,0.662041153893102,"false"
"image-keyboard-response",453,436816,"0.0-3.147-1.147","kxgbh2g2qsksukj",547,"26.csv","","null","resources/maskTrios/L4BB.jpg","null","",NA,NA,NA,NA,""
"image-keyboard-response",454,438018,"0.0-3.147-2.147","kxgbh2g2qsksukj",547,"26.csv","","null","resources/images/fishbone.png","null","",NA,NA,NA,NA,""
"image-keyboard-response",455,438348,"0.0-3.148-0.148","kxgbh2g2qsksukj",547,"26.csv","","328.2000000476837","resources/trios/L1T2A2.jpg","39","restless",0.5,0.6,0.6,0.164958510404912,"true"
"image-keyboard-response",456,438754,"0.0-3.148-1.148","kxgbh2g2qsksukj",547,"26.csv","","null","resources/maskTrios/BBA2.jpg","null","",NA,NA,NA,NA,""
"image-keyboard-response",457,439961,"0.0-3.148-2.148","kxgbh2g2qsksukj",547,"26.csv","","null","resources/images/coin2.png","null","",NA,NA,NA,NA,""
"image-keyboard-response",458,440570,"0.0-3.149-0.149","kxgbh2g2qsksukj",547,"26.csv","","606.5","resources/trios/L4T2A3.jpg","37","restless",0.5,0.6,0.6,0.782265245334856,"false"
"image-keyboard-response",459,440977,"0.0-3.149-1.149","kxgbh2g2qsksukj",547,"26.csv","","null","resources/maskTrios/L4BB.jpg","null","",NA,NA,NA,NA,""
"image-keyboard-response",460,442182,"0.0-3.149-2.149","kxgbh2g2qsksukj",547,"26.csv","","null","resources/images/fishbone.png","null","",NA,NA,NA,NA,""
"image-keyboard-response",461,442818,"0.0-3.150-0.150","kxgbh2g2qsksukj",547,"26.csv","","633.0999999046326","resources/trios/L4T4A3.jpg","38","restless",0.5,0.6,0.6,0.557045162627442,"true"
"image-keyboard-response",462,443225,"0.0-3.150-1.150","kxgbh2g2qsksukj",547,"26.csv","","null","resources/maskTrios/BT4B.jpg","null","",NA,NA,NA,NA,""
"image-keyboard-response",463,444433,"0.0-3.150-2.150","kxgbh2g2qsksukj",547,"26.csv","","null","resources/images/coin2.png","null","",NA,NA,NA,NA,""
"image-keyboard-response",464,445047,"0.0-3.151-0.151","kxgbh2g2qsksukj",547,"26.csv","","611.6999999284744","resources/trios/L1T2A2.jpg","38","restless",0.5,0.6,0.6,0.394683809812968,"true"
"image-keyboard-response",465,445452,"0.0-3.151-1.151","kxgbh2g2qsksukj",547,"26.csv","","null","resources/maskTrios/BT2B.jpg","null","",NA,NA,NA,NA,""
"image-keyboard-response",466,446659,"0.0-3.151-2.151","kxgbh2g2qsksukj",547,"26.csv","","null","resources/images/coin2.png","null","",NA,NA,NA,NA,""
"image-keyboard-response",467,447855,"0.0-3.152-0.152","kxgbh2g2qsksukj",547,"26.csv","","1193.7999999523163","resources/trios/L4T2A3.jpg","38","restless",0.4,0.6,0.6,0.584119250334562,"true"
"image-keyboard-response",468,448263,"0.0-3.152-1.152","kxgbh2g2qsksukj",547,"26.csv","","null","resources/maskTrios/BT2B.jpg","null","",NA,NA,NA,NA,""
"image-keyboard-response",469,449466,"0.0-3.152-2.152","kxgbh2g2qsksukj",547,"26.csv","","null","resources/images/coin2.png","null","",NA,NA,NA,NA,""
"image-keyboard-response",470,451391,"0.0-3.153-0.153","kxgbh2g2qsksukj",547,"26.csv","","1923.3999999761581","resources/trios/L4T4A3.jpg","39","restless",0.4,0.6,0.6,0.611473061720746,"false"
"image-keyboard-response",471,451798,"0.0-3.153-1.153","kxgbh2g2qsksukj",547,"26.csv","","null","resources/maskTrios/BBA3.jpg","null","",NA,NA,NA,NA,""
"image-keyboard-response",472,453001,"0.0-3.153-2.153","kxgbh2g2qsksukj",547,"26.csv","","null","resources/images/fishbone.png","null","",NA,NA,NA,NA,""
"image-keyboard-response",473,453396,"0.0-3.154-0.154","kxgbh2g2qsksukj",547,"26.csv","","392","resources/trios/L1T2A3.jpg","38","restless",0.4,0.6,0.6,0.736487524249871,"false"
"image-keyboard-response",474,453799,"0.0-3.154-1.154","kxgbh2g2qsksukj",547,"26.csv","","null","resources/maskTrios/BT2B.jpg","null","",NA,NA,NA,NA,""
"image-keyboard-response",475,455003,"0.0-3.154-2.154","kxgbh2g2qsksukj",547,"26.csv","","null","resources/images/fishbone.png","null","",NA,NA,NA,NA,""
"image-keyboard-response",476,456343,"0.0-3.155-0.155","kxgbh2g2qsksukj",547,"26.csv","","1337.7999999523163","resources/trios/L4T4A2.jpg","39","restless",0.4,0.6,0.5,0.557525133070495,"false"
"image-keyboard-response",477,456748,"0.0-3.155-1.155","kxgbh2g2qsksukj",547,"26.csv","","null","resources/maskTrios/BBA2.jpg","null","",NA,NA,NA,NA,""
"image-keyboard-response",478,457953,"0.0-3.155-2.155","kxgbh2g2qsksukj",547,"26.csv","","null","resources/images/fishbone.png","null","",NA,NA,NA,NA,""
"image-keyboard-response",479,458737,"0.0-3.156-0.156","kxgbh2g2qsksukj",547,"26.csv","","782","resources/trios/L1T2A2.jpg","38","restless",0.4,0.6,0.5,0.843937211524924,"false"
"image-keyboard-response",480,459144,"0.0-3.156-1.156","kxgbh2g2qsksukj",547,"26.csv","","null","resources/maskTrios/BT2B.jpg","null","",NA,NA,NA,NA,""
"image-keyboard-response",481,460351,"0.0-3.156-2.156","kxgbh2g2qsksukj",547,"26.csv","","null","resources/images/fishbone.png","null","",NA,NA,NA,NA,""
"image-keyboard-response",482,460984,"0.0-3.157-0.157","kxgbh2g2qsksukj",547,"26.csv","","630","resources/trios/L4T4A2.jpg","38","restless",0.4,0.6,0.5,0.0660957359686793,"true"
"image-keyboard-response",483,461387,"0.0-3.157-1.157","kxgbh2g2qsksukj",547,"26.csv","","null","resources/maskTrios/BT4B.jpg","null","",NA,NA,NA,NA,""
"image-keyboard-response",484,462592,"0.0-3.157-2.157","kxgbh2g2qsksukj",547,"26.csv","","null","resources/images/coin2.png","null","",NA,NA,NA,NA,""
"image-keyboard-response",485,466857,"0.0-3.158-0.158","kxgbh2g2qsksukj",547,"26.csv","","4261.699999928474","resources/trios/L4T2A3.jpg","39","restless",0.4,0.6,0.5,0.990455795575485,"false"
"image-keyboard-response",486,467264,"0.0-3.158-1.158","kxgbh2g2qsksukj",547,"26.csv","","null","resources/maskTrios/BBA3.jpg","null","",NA,NA,NA,NA,""
"image-keyboard-response",487,468471,"0.0-3.158-2.158","kxgbh2g2qsksukj",547,"26.csv","","null","resources/images/fishbone.png","null","",NA,NA,NA,NA,""
"image-keyboard-response",488,469121,"0.0-3.159-0.159","kxgbh2g2qsksukj",547,"26.csv","","647.1000000238419","resources/trios/L1T4A2.jpg","38","restless",0.4,0.6,0.5,0.561384094010251,"true"
"image-keyboard-response",489,469526,"0.0-3.159-1.159","kxgbh2g2qsksukj",547,"26.csv","","null","resources/maskTrios/BT4B.jpg","null","",NA,NA,NA,NA,""
"image-keyboard-response",490,470732,"0.0-3.159-2.159","kxgbh2g2qsksukj",547,"26.csv","","null","resources/images/coin2.png","null","",NA,NA,NA,NA,""
"image-keyboard-response",491,472211,"0.0-3.160-0.160","kxgbh2g2qsksukj",547,"26.csv","","1476.8000000715256","resources/trios/L4T4A3.jpg","38","restless",0.5,0.6,0.5,0.611249544653995,"false"
"image-keyboard-response",492,472615,"0.0-3.160-1.160","kxgbh2g2qsksukj",547,"26.csv","","null","resources/maskTrios/BT4B.jpg","null","",NA,NA,NA,NA,""
"image-keyboard-response",493,473822,"0.0-3.160-2.160","kxgbh2g2qsksukj",547,"26.csv","","null","resources/images/fishbone.png","null","",NA,NA,NA,NA,""
"image-keyboard-response",494,475386,"0.0-3.161-0.161","kxgbh2g2qsksukj",547,"26.csv","","1560.8999999761581","resources/trios/L4T2A2.jpg","39","restless",0.5,0.6,0.5,0.97396276864304,"false"
"image-keyboard-response",495,475789,"0.0-3.161-1.161","kxgbh2g2qsksukj",547,"26.csv","","null","resources/maskTrios/BBA2.jpg","null","",NA,NA,NA,NA,""
"image-keyboard-response",496,476993,"0.0-3.161-2.161","kxgbh2g2qsksukj",547,"26.csv","","null","resources/images/fishbone.png","null","",NA,NA,NA,NA,""
"image-keyboard-response",497,478279,"0.0-3.162-0.162","kxgbh2g2qsksukj",547,"26.csv","","1283.8999999761581","resources/trios/L4T2A2.jpg","38","restless",0.5,0.6,0.5,0.410312552770281,"true"
"image-keyboard-response",498,478685,"0.0-3.162-1.162","kxgbh2g2qsksukj",547,"26.csv","","null","resources/maskTrios/BT2B.jpg","null","",NA,NA,NA,NA,""
"image-keyboard-response",499,479892,"0.0-3.162-2.162","kxgbh2g2qsksukj",547,"26.csv","","null","resources/images/coin2.png","null","",NA,NA,NA,NA,""
"image-keyboard-response",500,481009,"0.0-3.163-0.163","kxgbh2g2qsksukj",547,"26.csv","","1114.3999999761581","resources/trios/L1T4A2.jpg","38","restless",0.5,0.6,0.5,0.222761765208971,"true"
"image-keyboard-response",501,481415,"0.0-3.163-1.163","kxgbh2g2qsksukj",547,"26.csv","","null","resources/maskTrios/BT4B.jpg","null","",NA,NA,NA,NA,""
"image-keyboard-response",502,482622,"0.0-3.163-2.163","kxgbh2g2qsksukj",547,"26.csv","","null","resources/images/coin2.png","null","",NA,NA,NA,NA,""
"image-keyboard-response",503,484717,"0.0-3.164-0.164","kxgbh2g2qsksukj",547,"26.csv","","2092.7000000476837","resources/trios/L1T2A2.jpg","38","restless",0.5,0.6,0.5,0.64595922793061,"false"
"image-keyboard-response",504,485122,"0.0-3.164-1.164","kxgbh2g2qsksukj",547,"26.csv","","null","resources/maskTrios/BT2B.jpg","null","",NA,NA,NA,NA,""
"image-keyboard-response",505,486325,"0.0-3.164-2.164","kxgbh2g2qsksukj",547,"26.csv","","null","resources/images/fishbone.png","null","",NA,NA,NA,NA,""
"image-keyboard-response",506,487036,"0.0-3.165-0.165","kxgbh2g2qsksukj",547,"26.csv","","708.1000000238419","resources/trios/L1T4A3.jpg","38","restless",0.5,0.6,0.5,0.0255774224895911,"true"
"image-keyboard-response",507,487443,"0.0-3.165-1.165","kxgbh2g2qsksukj",547,"26.csv","","null","resources/maskTrios/BT4B.jpg","null","",NA,NA,NA,NA,""
"image-keyboard-response",508,488651,"0.0-3.165-2.165","kxgbh2g2qsksukj",547,"26.csv","","null","resources/images/coin2.png","null","",NA,NA,NA,NA,""
"image-keyboard-response",509,489417,"0.0-3.166-0.166","kxgbh2g2qsksukj",547,"26.csv","","764","resources/trios/L1T2A3.jpg","39","restless",0.5,0.5,0.5,0.245917933258699,"true"
"image-keyboard-response",510,489824,"0.0-3.166-1.166","kxgbh2g2qsksukj",547,"26.csv","","null","resources/maskTrios/BBA3.jpg","null","",NA,NA,NA,NA,""
"image-keyboard-response",511,491031,"0.0-3.166-2.166","kxgbh2g2qsksukj",547,"26.csv","","null","resources/images/coin2.png","null","",NA,NA,NA,NA,""
"image-keyboard-response",512,493846,"0.0-3.167-0.167","kxgbh2g2qsksukj",547,"26.csv","","2813","resources/trios/L4T4A2.jpg","38","restless",0.5,0.4,0.5,0.639276438598073,"false"
"image-keyboard-response",513,494254,"0.0-3.167-1.167","kxgbh2g2qsksukj",547,"26.csv","","null","resources/maskTrios/BT4B.jpg","null","",NA,NA,NA,NA,""
"image-keyboard-response",514,495461,"0.0-3.167-2.167","kxgbh2g2qsksukj",547,"26.csv","","null","resources/images/fishbone.png","null","",NA,NA,NA,NA,""
"image-keyboard-response",515,496170,"0.0-3.168-0.168","kxgbh2g2qsksukj",547,"26.csv","","707","resources/trios/L1T4A2.jpg","38","restless",0.5,0.4,0.5,0.133941643598142,"true"
"image-keyboard-response",516,496575,"0.0-3.168-1.168","kxgbh2g2qsksukj",547,"26.csv","","null","resources/maskTrios/BT4B.jpg","null","",NA,NA,NA,NA,""
"image-keyboard-response",517,497781,"0.0-3.168-2.168","kxgbh2g2qsksukj",547,"26.csv","","null","resources/images/coin2.png","null","",NA,NA,NA,NA,""
"image-keyboard-response",518,501793,"0.0-3.169-0.169","kxgbh2g2qsksukj",547,"26.csv","","4009.100000023842","resources/trios/L4T2A2.jpg","39","restless",0.5,0.4,0.5,0.52665294177087,"false"
"image-keyboard-response",519,502201,"0.0-3.169-1.169","kxgbh2g2qsksukj",547,"26.csv","","null","resources/maskTrios/BBA2.jpg","null","",NA,NA,NA,NA,""
"image-keyboard-response",520,503407,"0.0-3.169-2.169","kxgbh2g2qsksukj",547,"26.csv","","null","resources/images/fishbone.png","null","",NA,NA,NA,NA,""
"image-keyboard-response",521,503675,"0.0-3.170-0.170","kxgbh2g2qsksukj",547,"26.csv","","265.89999997615814","resources/trios/L1T2A3.jpg","38","restless",0.5,0.4,0.5,0.354310007824443,"true"
"image-keyboard-response",522,504081,"0.0-3.170-1.170","kxgbh2g2qsksukj",547,"26.csv","","null","resources/maskTrios/BT2B.jpg","null","",NA,NA,NA,NA,""
"image-keyboard-response",523,505286,"0.0-3.170-2.170","kxgbh2g2qsksukj",547,"26.csv","","null","resources/images/coin2.png","null","",NA,NA,NA,NA,""
"image-keyboard-response",524,510838,"0.0-3.171-0.171","kxgbh2g2qsksukj",547,"26.csv","","5549.699999928474","resources/trios/L4T2A3.jpg","38","restless",0.5,0.4,0.5,0.509252584366702,"false"
"image-keyboard-response",525,511242,"0.0-3.171-1.171","kxgbh2g2qsksukj",547,"26.csv","","null","resources/maskTrios/BT2B.jpg","null","",NA,NA,NA,NA,""
"image-keyboard-response",526,512445,"0.0-3.171-2.171","kxgbh2g2qsksukj",547,"26.csv","","null","resources/images/fishbone.png","null","",NA,NA,NA,NA,""
"image-keyboard-response",527,514318,"0.0-3.172-0.172","kxgbh2g2qsksukj",547,"26.csv","","1870.1000000238419","resources/trios/L4T2A2.jpg","38","restless",0.5,0.4,0.5,0.347848706396418,"true"
"image-keyboard-response",528,514724,"0.0-3.172-1.172","kxgbh2g2qsksukj",547,"26.csv","","null","resources/maskTrios/BT2B.jpg","null","",NA,NA,NA,NA,""
"image-keyboard-response",529,515931,"0.0-3.172-2.172","kxgbh2g2qsksukj",547,"26.csv","","null","resources/images/coin2.png","null","",NA,NA,NA,NA,""
"image-keyboard-response",530,519039,"0.0-3.173-0.173","kxgbh2g2qsksukj",547,"26.csv","","3105.7999999523163","resources/trios/L1T2A3.jpg","37","restless",0.5,0.4,0.5,0.755380811627127,"false"
"image-keyboard-response",531,519445,"0.0-3.173-1.173","kxgbh2g2qsksukj",547,"26.csv","","null","resources/maskTrios/L1BB.jpg","null","",NA,NA,NA,NA,""
"image-keyboard-response",532,520648,"0.0-3.173-2.173","kxgbh2g2qsksukj",547,"26.csv","","null","resources/images/fishbone.png","null","",NA,NA,NA,NA,""
"image-keyboard-response",533,521118,"0.0-3.174-0.174","kxgbh2g2qsksukj",547,"26.csv","","467.60000002384186","resources/trios/L4T4A3.jpg","38","restless",0.5,0.4,0.5,0.938775174066943,"false"
"image-keyboard-response",534,521524,"0.0-3.174-1.174","kxgbh2g2qsksukj",547,"26.csv","","null","resources/maskTrios/BT4B.jpg","null","",NA,NA,NA,NA,""
"image-keyboard-response",535,522731,"0.0-3.174-2.174","kxgbh2g2qsksukj",547,"26.csv","","null","resources/images/fishbone.png","null","",NA,NA,NA,NA,""
"image-keyboard-response",536,527149,"0.0-3.175-0.175","kxgbh2g2qsksukj",547,"26.csv","","4415.700000047684","resources/trios/L1T2A3.jpg","38","restless",0.5,0.4,0.5,0.166067212930425,"true"
"image-keyboard-response",537,527554,"0.0-3.175-1.175","kxgbh2g2qsksukj",547,"26.csv","","null","resources/maskTrios/BT2B.jpg","null","",NA,NA,NA,NA,""
"image-keyboard-response",538,528756,"0.0-3.175-2.175","kxgbh2g2qsksukj",547,"26.csv","","null","resources/images/coin2.png","null","",NA,NA,NA,NA,""
"image-keyboard-response",539,529636,"0.0-3.176-0.176","kxgbh2g2qsksukj",547,"26.csv","","876.8999999761581","resources/trios/L4T2A2.jpg","39","restless",0.6,0.4,0.4,0.951305925462038,"false"
"image-keyboard-response",540,530042,"0.0-3.176-1.176","kxgbh2g2qsksukj",547,"26.csv","","null","resources/maskTrios/BBA2.jpg","null","",NA,NA,NA,NA,""
"image-keyboard-response",541,531244,"0.0-3.176-2.176","kxgbh2g2qsksukj",547,"26.csv","","null","resources/images/fishbone.png","null","",NA,NA,NA,NA,""
"image-keyboard-response",542,532301,"0.0-3.177-0.177","kxgbh2g2qsksukj",547,"26.csv","","1053.7999999523163","resources/trios/L1T2A3.jpg","38","restless",0.6,0.4,0.4,0.956657298459936,"false"
"image-keyboard-response",543,532703,"0.0-3.177-1.177","kxgbh2g2qsksukj",547,"26.csv","","null","resources/maskTrios/BT2B.jpg","null","",NA,NA,NA,NA,""
"image-keyboard-response",544,533910,"0.0-3.177-2.177","kxgbh2g2qsksukj",547,"26.csv","","null","resources/images/fishbone.png","null","",NA,NA,NA,NA,""
"image-keyboard-response",545,535069,"0.0-3.178-0.178","kxgbh2g2qsksukj",547,"26.csv","","1155.2000000476837","resources/trios/L1T2A3.jpg","37","restless",0.6,0.4,0.4,0.111304759867891,"true"
"image-keyboard-response",546,535474,"0.0-3.178-1.178","kxgbh2g2qsksukj",547,"26.csv","","null","resources/maskTrios/L1BB.jpg","null","",NA,NA,NA,NA,""
"image-keyboard-response",547,536681,"0.0-3.178-2.178","kxgbh2g2qsksukj",547,"26.csv","","null","resources/images/coin2.png","null","",NA,NA,NA,NA,""
"image-keyboard-response",548,537385,"0.0-3.179-0.179","kxgbh2g2qsksukj",547,"26.csv","","701.5","resources/trios/L1T4A2.jpg","38","restless",0.6,0.4,0.3,0.383339775843824,"true"
"image-keyboard-response",549,537789,"0.0-3.179-1.179","kxgbh2g2qsksukj",547,"26.csv","","null","resources/maskTrios/BT4B.jpg","null","",NA,NA,NA,NA,""
"image-keyboard-response",550,538992,"0.0-3.179-2.179","kxgbh2g2qsksukj",547,"26.csv","","null","resources/images/coin2.png","null","",NA,NA,NA,NA,""
"image-keyboard-response",551,543772,"0.0-3.180-0.180","kxgbh2g2qsksukj",547,"26.csv","","4777.800000071526","resources/trios/L4T2A2.jpg","38","restless",0.6,0.4,0.2,0.681962727280037,"false"
"image-keyboard-response",552,544179,"0.0-3.180-1.180","kxgbh2g2qsksukj",547,"26.csv","","null","resources/maskTrios/BT2B.jpg","null","",NA,NA,NA,NA,""
"image-keyboard-response",553,545386,"0.0-3.180-2.180","kxgbh2g2qsksukj",547,"26.csv","","null","resources/images/fishbone.png","null","",NA,NA,NA,NA,""
"image-keyboard-response",554,545979,"0.0-3.181-0.181","kxgbh2g2qsksukj",547,"26.csv","","590.0999999046326","resources/trios/L1T4A3.jpg","38","restless",0.6,0.4,0.2,0.23232242554212,"true"
"image-keyboard-response",555,546384,"0.0-3.181-1.181","kxgbh2g2qsksukj",547,"26.csv","","null","resources/maskTrios/BT4B.jpg","null","",NA,NA,NA,NA,""
"image-keyboard-response",556,547587,"0.0-3.181-2.181","kxgbh2g2qsksukj",547,"26.csv","","null","resources/images/coin2.png","null","",NA,NA,NA,NA,""
"image-keyboard-response",557,549299,"0.0-3.182-0.182","kxgbh2g2qsksukj",547,"26.csv","","1709","resources/trios/L1T4A3.jpg","38","restless",0.6,0.4,0.2,0.0439894777245833,"true"
"image-keyboard-response",558,549702,"0.0-3.182-1.182","kxgbh2g2qsksukj",547,"26.csv","","null","resources/maskTrios/BT4B.jpg","null","",NA,NA,NA,NA,""
"image-keyboard-response",559,550905,"0.0-3.182-2.182","kxgbh2g2qsksukj",547,"26.csv","","null","resources/images/coin2.png","null","",NA,NA,NA,NA,""
"image-keyboard-response",560,552817,"0.0-3.183-0.183","kxgbh2g2qsksukj",547,"26.csv","","1909.5","resources/trios/L1T2A2.jpg","39","restless",0.6,0.4,0.2,0.34455078673988,"false"
"image-keyboard-response",561,553223,"0.0-3.183-1.183","kxgbh2g2qsksukj",547,"26.csv","","null","resources/maskTrios/BBA2.jpg","null","",NA,NA,NA,NA,""
"image-keyboard-response",562,554430,"0.0-3.183-2.183","kxgbh2g2qsksukj",547,"26.csv","","null","resources/images/fishbone.png","null","",NA,NA,NA,NA,""
"image-keyboard-response",563,555215,"0.0-3.184-0.184","kxgbh2g2qsksukj",547,"26.csv","","782.7000000476837","resources/trios/L4T2A2.jpg","38","restless",0.6,0.4,0.2,0.415926172311114,"false"
"image-keyboard-response",564,555622,"0.0-3.184-1.184","kxgbh2g2qsksukj",547,"26.csv","","null","resources/maskTrios/BT2B.jpg","null","",NA,NA,NA,NA,""
"image-keyboard-response",565,556826,"0.0-3.184-2.184","kxgbh2g2qsksukj",547,"26.csv","","null","resources/images/fishbone.png","null","",NA,NA,NA,NA,""
"image-keyboard-response",566,557284,"0.0-3.185-0.185","kxgbh2g2qsksukj",547,"26.csv","","456.1999999284744","resources/trios/L1T4A3.jpg","38","restless",0.6,0.4,0.2,0.963106617018819,"false"
"image-keyboard-response",567,557692,"0.0-3.185-1.185","kxgbh2g2qsksukj",547,"26.csv","","null","resources/maskTrios/BT4B.jpg","null","",NA,NA,NA,NA,""
"image-keyboard-response",568,558899,"0.0-3.185-2.185","kxgbh2g2qsksukj",547,"26.csv","","null","resources/images/fishbone.png","null","",NA,NA,NA,NA,""
"image-keyboard-response",569,560426,"0.0-3.186-0.186","kxgbh2g2qsksukj",547,"26.csv","","1524.5999999046326","resources/trios/L4T4A3.jpg","39","restless",0.6,0.4,0.2,0.73141295710027,"false"
"image-keyboard-response",570,560832,"0.0-3.186-1.186","kxgbh2g2qsksukj",547,"26.csv","","null","resources/maskTrios/BBA3.jpg","null","",NA,NA,NA,NA,""
"image-keyboard-response",571,562039,"0.0-3.186-2.186","kxgbh2g2qsksukj",547,"26.csv","","null","resources/images/fishbone.png","null","",NA,NA,NA,NA,""
"image-keyboard-response",572,563696,"0.0-3.187-0.187","kxgbh2g2qsksukj",547,"26.csv","","1654.5999999046326","resources/trios/L1T4A3.jpg","38","restless",0.6,0.4,0.2,0.735934775695338,"false"
"image-keyboard-response",573,564103,"0.0-3.187-1.187","kxgbh2g2qsksukj",547,"26.csv","","null","resources/maskTrios/BT4B.jpg","null","",NA,NA,NA,NA,""
"image-keyboard-response",574,565310,"0.0-3.187-2.187","kxgbh2g2qsksukj",547,"26.csv","","null","resources/images/fishbone.png","null","",NA,NA,NA,NA,""
"image-keyboard-response",575,567274,"0.0-3.188-0.188","kxgbh2g2qsksukj",547,"26.csv","","1961.2000000476837","resources/trios/L4T4A3.jpg","37","restless",0.6,0.4,0.2,0.109691546755225,"true"
"image-keyboard-response",576,567678,"0.0-3.188-1.188","kxgbh2g2qsksukj",547,"26.csv","","null","resources/maskTrios/L4BB.jpg","null","",NA,NA,NA,NA,""
"image-keyboard-response",577,568883,"0.0-3.188-2.188","kxgbh2g2qsksukj",547,"26.csv","","null","resources/images/coin2.png","null","",NA,NA,NA,NA,""
"image-keyboard-response",578,571878,"0.0-3.189-0.189","kxgbh2g2qsksukj",547,"26.csv","","2990.9000000953674","resources/trios/L1T2A3.jpg","38","restless",0.6,0.4,0.2,0.601711222577257,"false"
"image-keyboard-response",579,572285,"0.0-3.189-1.189","kxgbh2g2qsksukj",547,"26.csv","","null","resources/maskTrios/BT2B.jpg","null","",NA,NA,NA,NA,""
"image-keyboard-response",580,573490,"0.0-3.189-2.189","kxgbh2g2qsksukj",547,"26.csv","","null","resources/images/fishbone.png","null","",NA,NA,NA,NA,""
"image-keyboard-response",581,574585,"0.0-3.190-0.190","kxgbh2g2qsksukj",547,"26.csv","","1092.5","resources/trios/L4T4A3.jpg","38","restless",0.6,0.4,0.2,0.350360155969637,"true"
"image-keyboard-response",582,574991,"0.0-3.190-1.190","kxgbh2g2qsksukj",547,"26.csv","","null","resources/maskTrios/BT4B.jpg","null","",NA,NA,NA,NA,""
"image-keyboard-response",583,576195,"0.0-3.190-2.190","kxgbh2g2qsksukj",547,"26.csv","","null","resources/images/coin2.png","null","",NA,NA,NA,NA,""
"image-keyboard-response",584,578031,"0.0-3.191-0.191","kxgbh2g2qsksukj",547,"26.csv","","1834.1000000238419","resources/trios/L4T2A2.jpg","37","restless",0.7,0.4,0.2,0.620990094788872,"true"
"image-keyboard-response",585,578439,"0.0-3.191-1.191","kxgbh2g2qsksukj",547,"26.csv","","null","resources/maskTrios/L4BB.jpg","null","",NA,NA,NA,NA,""
"image-keyboard-response",586,579646,"0.0-3.191-2.191","kxgbh2g2qsksukj",547,"26.csv","","null","resources/images/coin2.png","null","",NA,NA,NA,NA,""
"image-keyboard-response",587,581419,"0.0-3.192-0.192","kxgbh2g2qsksukj",547,"26.csv","","1771","resources/trios/L4T4A2.jpg","38","restless",0.7,0.3,0.2,0.778230743385665,"false"
"image-keyboard-response",588,581825,"0.0-3.192-1.192","kxgbh2g2qsksukj",547,"26.csv","","null","resources/maskTrios/BT4B.jpg","null","",NA,NA,NA,NA,""
"image-keyboard-response",589,583030,"0.0-3.192-2.192","kxgbh2g2qsksukj",547,"26.csv","","null","resources/images/fishbone.png","null","",NA,NA,NA,NA,""
"image-keyboard-response",590,584721,"0.0-3.193-0.193","kxgbh2g2qsksukj",547,"26.csv","","1688.6000000238419","resources/trios/L4T4A3.jpg","39","restless",0.7,0.3,0.2,0.205923581350116,"false"
"image-keyboard-response",591,585126,"0.0-3.193-1.193","kxgbh2g2qsksukj",547,"26.csv","","null","resources/maskTrios/BBA3.jpg","null","",NA,NA,NA,NA,""
"image-keyboard-response",592,586333,"0.0-3.193-2.193","kxgbh2g2qsksukj",547,"26.csv","","null","resources/images/fishbone.png","null","",NA,NA,NA,NA,""
"image-keyboard-response",593,586670,"0.0-3.194-0.194","kxgbh2g2qsksukj",547,"26.csv","","334.60000002384186","resources/trios/L4T2A2.jpg","38","restless",0.6,0.2,0.2,0.901982128493292,"false"
"image-keyboard-response",594,587077,"0.0-3.194-1.194","kxgbh2g2qsksukj",547,"26.csv","","null","resources/maskTrios/BT2B.jpg","null","",NA,NA,NA,NA,""
"image-keyboard-response",595,588284,"0.0-3.194-2.194","kxgbh2g2qsksukj",547,"26.csv","","null","resources/images/fishbone.png","null","",NA,NA,NA,NA,""
"image-keyboard-response",596,588731,"0.0-3.195-0.195","kxgbh2g2qsksukj",547,"26.csv","","445","resources/trios/L4T4A3.jpg","37","restless",0.6,0.2,0.2,0.679888548790925,"false"
"image-keyboard-response",597,589138,"0.0-3.195-1.195","kxgbh2g2qsksukj",547,"26.csv","","null","resources/maskTrios/L4BB.jpg","null","",NA,NA,NA,NA,""
"image-keyboard-response",598,590343,"0.0-3.195-2.195","kxgbh2g2qsksukj",547,"26.csv","","null","resources/images/fishbone.png","null","",NA,NA,NA,NA,""
"image-keyboard-response",599,591366,"0.0-3.196-0.196","kxgbh2g2qsksukj",547,"26.csv","","1020.1999999284744","resources/trios/L1T4A3.jpg","39","restless",0.5,0.2,0.2,0.917646059999387,"false"
"image-keyboard-response",600,591771,"0.0-3.196-1.196","kxgbh2g2qsksukj",547,"26.csv","","null","resources/maskTrios/BBA3.jpg","null","",NA,NA,NA,NA,""
"image-keyboard-response",601,592975,"0.0-3.196-2.196","kxgbh2g2qsksukj",547,"26.csv","","null","resources/images/fishbone.png","null","",NA,NA,NA,NA,""
"image-keyboard-response",602,593216,"0.0-3.197-0.197","kxgbh2g2qsksukj",547,"26.csv","","238.39999997615814","resources/trios/L1T2A2.jpg","38","restless",0.5,0.2,0.2,0.0814630795070692,"true"
"image-keyboard-response",603,593621,"0.0-3.197-1.197","kxgbh2g2qsksukj",547,"26.csv","","null","resources/maskTrios/BT2B.jpg","null","",NA,NA,NA,NA,""
"image-keyboard-response",604,594825,"0.0-3.197-2.197","kxgbh2g2qsksukj",547,"26.csv","","null","resources/images/coin2.png","null","",NA,NA,NA,NA,""
"image-keyboard-response",605,595211,"0.0-3.198-0.198","kxgbh2g2qsksukj",547,"26.csv","","383.5","resources/trios/L1T2A2.jpg","38","restless",0.6,0.3,0.2,0.11753442598014,"true"
"image-keyboard-response",606,595618,"0.0-3.198-1.198","kxgbh2g2qsksukj",547,"26.csv","","null","resources/maskTrios/BT2B.jpg","null","",NA,NA,NA,NA,""
"image-keyboard-response",607,596821,"0.0-3.198-2.198","kxgbh2g2qsksukj",547,"26.csv","","null","resources/images/coin2.png","null","",NA,NA,NA,NA,""
"image-keyboard-response",608,597795,"0.0-3.199-0.199","kxgbh2g2qsksukj",547,"26.csv","","971.7999999523163","resources/trios/L4T4A3.jpg","38","restless",0.6,0.3,0.2,0.176219459022702,"true"
"image-keyboard-response",609,598203,"0.0-3.199-1.199","kxgbh2g2qsksukj",547,"26.csv","","null","resources/maskTrios/BT4B.jpg","null","",NA,NA,NA,NA,""
"image-keyboard-response",610,599410,"0.0-3.199-2.199","kxgbh2g2qsksukj",547,"26.csv","","null","resources/images/coin2.png","null","",NA,NA,NA,NA,""
