"trial_type","trial_index","time_elapsed","internal_node_id","subject","participantCode","walkNumber","success","rt","stimulus","key_press","test_part","leftProb","midProb","rightProb","generatedNum","correct"
"pavlovia",0,1072,"0.0-0.0","mdkeuxj8pu48f5m",703,"81.csv","","","","","",NA,NA,NA,NA,""
"fullscreen",1,3870,"0.0-1.0","mdkeuxj8pu48f5m",703,"81.csv","true","","","","",NA,NA,NA,NA,""
"html-keyboard-response",2,8241,"0.0-2.0-0.0","mdkeuxj8pu48f5m",703,"81.csv","","4370.899999856949","<p><font size='6'>Arrrgh!</p></font><p>Can you be the best pirate? Try to find lots of gold! But beware, some islands have more gold than others, and over time, the island with the most gold may change. Can YOU figure it out? </p><font size='6'>GOOD LUCK, CAPTAIN!!!</font><p>Press any key to begin</p>","32","",NA,NA,NA,NA,""
"image-keyboard-response",3,11247,"0.0-2.0-1.0","mdkeuxj8pu48f5m",703,"81.csv","","null","resources/image_sets/111.png","null","",NA,NA,NA,NA,""
"image-keyboard-response",4,15016,"0.0-2.0-2.0","mdkeuxj8pu48f5m",703,"81.csv","","3768.2000000476837","resources/image_sets/left_highlight.png","37","",NA,NA,NA,NA,""
"image-keyboard-response",5,16561,"0.0-2.0-3.0","mdkeuxj8pu48f5m",703,"81.csv","","1544.5","resources/image_sets/mid_highlight.png","38","",NA,NA,NA,NA,""
"image-keyboard-response",6,17360,"0.0-2.0-4.0","mdkeuxj8pu48f5m",703,"81.csv","","798","resources/image_sets/right_highlight.png","39","",NA,NA,NA,NA,""
"image-keyboard-response",7,18952,"0.0-2.0-5.0","mdkeuxj8pu48f5m",703,"81.csv","","1591.5","resources/image_sets/111.png","13","",NA,NA,NA,NA,""
"image-keyboard-response",8,20329,"0.0-2.0-6.0","mdkeuxj8pu48f5m",703,"81.csv","","1376.4000000953674","resources/images/coin2.png","13","",NA,NA,NA,NA,""
"image-keyboard-response",9,21529,"0.0-2.0-7.0","mdkeuxj8pu48f5m",703,"81.csv","","1200.0999999046326","resources/images/fishbone.png","13","",NA,NA,NA,NA,""
"html-keyboard-response",10,26648,"0.0-2.0-8.0","mdkeuxj8pu48f5m",703,"81.csv","","5118","<p>Your first journey will be a long one, but you will get a well deserved break at the end</p><p>After the break you will have four more journeys, but each will be much shorter than the first, and you will have breaks in between each</p><p>Press Enter to begin</p>","13","",NA,NA,NA,NA,""
"image-keyboard-response",11,28675,"0.0-3.0-0.0","mdkeuxj8pu48f5m",703,"81.csv","","2026","resources/trios/L1T4A1.jpg","37","restless",0.9,0.7,0.3,0.506414744428563,"true"
"image-keyboard-response",12,29081,"0.0-3.0-1.0","mdkeuxj8pu48f5m",703,"81.csv","","null","resources/maskTrios/L1BB.jpg","null","",NA,NA,NA,NA,""
"image-keyboard-response",13,30295,"0.0-3.0-2.0","mdkeuxj8pu48f5m",703,"81.csv","","null","resources/images/coin2.png","null","",NA,NA,NA,NA,""
"image-keyboard-response",14,33968,"0.0-3.1-0.1","mdkeuxj8pu48f5m",703,"81.csv","","3671.399999856949","resources/trios/L1T4A2.jpg","38","restless",0.9,0.7,0.3,0.173185547684002,"true"
"image-keyboard-response",15,34380,"0.0-3.1-1.1","mdkeuxj8pu48f5m",703,"81.csv","","null","resources/maskTrios/BT4B.jpg","null","",NA,NA,NA,NA,""
"image-keyboard-response",16,35596,"0.0-3.1-2.1","mdkeuxj8pu48f5m",703,"81.csv","","null","resources/images/coin2.png","null","",NA,NA,NA,NA,""
"image-keyboard-response",17,39457,"0.0-3.2-0.2","mdkeuxj8pu48f5m",703,"81.csv","","3860.2000000476837","resources/trios/L2T1A1.jpg","37","restless",0.9,0.7,0.3,0.33051473405775,"true"
"image-keyboard-response",18,39858,"0.0-3.2-1.2","mdkeuxj8pu48f5m",703,"81.csv","","null","resources/maskTrios/L2BB.jpg","null","",NA,NA,NA,NA,""
"image-keyboard-response",19,41073,"0.0-3.2-2.2","mdkeuxj8pu48f5m",703,"81.csv","","null","resources/images/coin2.png","null","",NA,NA,NA,NA,""
"image-keyboard-response",20,43417,"0.0-3.3-0.3","mdkeuxj8pu48f5m",703,"81.csv","","2343.2000000476837","resources/trios/L1T4A2.jpg","37","restless",0.9,0.7,0.3,0.919335678952281,"false"
"image-keyboard-response",21,43823,"0.0-3.3-1.3","mdkeuxj8pu48f5m",703,"81.csv","","null","resources/maskTrios/L1BB.jpg","null","",NA,NA,NA,NA,""
"image-keyboard-response",22,45025,"0.0-3.3-2.3","mdkeuxj8pu48f5m",703,"81.csv","","null","resources/images/fishbone.png","null","",NA,NA,NA,NA,""
"image-keyboard-response",23,46028,"0.0-3.4-0.4","mdkeuxj8pu48f5m",703,"81.csv","","1003","resources/trios/L1T1A1.jpg","38","restless",0.9,0.7,0.3,0.0124787689627428,"true"
"image-keyboard-response",24,46441,"0.0-3.4-1.4","mdkeuxj8pu48f5m",703,"81.csv","","null","resources/maskTrios/BT1B.jpg","null","",NA,NA,NA,NA,""
"image-keyboard-response",25,47656,"0.0-3.4-2.4","mdkeuxj8pu48f5m",703,"81.csv","","null","resources/images/coin2.png","null","",NA,NA,NA,NA,""
"image-keyboard-response",26,48997,"0.0-3.5-0.5","mdkeuxj8pu48f5m",703,"81.csv","","1341","resources/trios/L2T4A2.jpg","39","restless",0.9,0.7,0.3,0.851703795929894,"false"
"image-keyboard-response",27,49413,"0.0-3.5-1.5","mdkeuxj8pu48f5m",703,"81.csv","","null","resources/maskTrios/BBA2.jpg","null","",NA,NA,NA,NA,""
"image-keyboard-response",28,50624,"0.0-3.5-2.5","mdkeuxj8pu48f5m",703,"81.csv","","null","resources/images/fishbone.png","null","",NA,NA,NA,NA,""
"image-keyboard-response",29,52700,"0.0-3.6-0.6","mdkeuxj8pu48f5m",703,"81.csv","","2075.2000000476837","resources/trios/L2T1A1.jpg","38","restless",0.8,0.7,0.3,0.872398486392808,"false"
"image-keyboard-response",30,53111,"0.0-3.6-1.6","mdkeuxj8pu48f5m",703,"81.csv","","null","resources/maskTrios/BT1B.jpg","null","",NA,NA,NA,NA,""
"image-keyboard-response",31,54322,"0.0-3.6-2.6","mdkeuxj8pu48f5m",703,"81.csv","","null","resources/images/fishbone.png","null","",NA,NA,NA,NA,""
"image-keyboard-response",32,56434,"0.0-3.7-0.7","mdkeuxj8pu48f5m",703,"81.csv","","2111.9000000953674","resources/trios/L1T4A2.jpg","37","restless",0.8,0.7,0.3,0.881481427004874,"false"
"image-keyboard-response",33,56847,"0.0-3.7-1.7","mdkeuxj8pu48f5m",703,"81.csv","","null","resources/maskTrios/L1BB.jpg","null","",NA,NA,NA,NA,""
"image-keyboard-response",34,58048,"0.0-3.7-2.7","mdkeuxj8pu48f5m",703,"81.csv","","null","resources/images/fishbone.png","null","",NA,NA,NA,NA,""
"image-keyboard-response",35,59480,"0.0-3.8-0.8","mdkeuxj8pu48f5m",703,"81.csv","","1432","resources/trios/L1T1A2.jpg","37","restless",0.8,0.7,0.3,0.226601671371802,"true"
"image-keyboard-response",36,59882,"0.0-3.8-1.8","mdkeuxj8pu48f5m",703,"81.csv","","null","resources/maskTrios/L1BB.jpg","null","",NA,NA,NA,NA,""
"image-keyboard-response",37,61095,"0.0-3.8-2.8","mdkeuxj8pu48f5m",703,"81.csv","","null","resources/images/coin2.png","null","",NA,NA,NA,NA,""
"image-keyboard-response",38,63188,"0.0-3.9-0.9","mdkeuxj8pu48f5m",703,"81.csv","","2092.5","resources/trios/L2T4A1.jpg","37","restless",0.8,0.7,0.3,0.535857209094125,"true"
"image-keyboard-response",39,63592,"0.0-3.9-1.9","mdkeuxj8pu48f5m",703,"81.csv","","null","resources/maskTrios/L2BB.jpg","null","",NA,NA,NA,NA,""
"image-keyboard-response",40,64794,"0.0-3.9-2.9","mdkeuxj8pu48f5m",703,"81.csv","","null","resources/images/coin2.png","null","",NA,NA,NA,NA,""
"image-keyboard-response",41,66598,"0.0-3.10-0.10","mdkeuxj8pu48f5m",703,"81.csv","","1803.3000001907349","resources/trios/L1T4A1.jpg","38","restless",0.8,0.7,0.3,0.781217391357157,"false"
"image-keyboard-response",42,67006,"0.0-3.10-1.10","mdkeuxj8pu48f5m",703,"81.csv","","null","resources/maskTrios/BT4B.jpg","null","",NA,NA,NA,NA,""
"image-keyboard-response",43,68220,"0.0-3.10-2.10","mdkeuxj8pu48f5m",703,"81.csv","","null","resources/images/fishbone.png","null","",NA,NA,NA,NA,""
"image-keyboard-response",44,69157,"0.0-3.11-0.11","mdkeuxj8pu48f5m",703,"81.csv","","937","resources/trios/L2T4A2.jpg","37","restless",0.8,0.7,0.2,0.245489770081322,"true"
"image-keyboard-response",45,69564,"0.0-3.11-1.11","mdkeuxj8pu48f5m",703,"81.csv","","null","resources/maskTrios/L2BB.jpg","null","",NA,NA,NA,NA,""
"image-keyboard-response",46,70772,"0.0-3.11-2.11","mdkeuxj8pu48f5m",703,"81.csv","","null","resources/images/coin2.png","null","",NA,NA,NA,NA,""
"image-keyboard-response",47,71236,"0.0-3.12-0.12","mdkeuxj8pu48f5m",703,"81.csv","","463.59999990463257","resources/trios/L1T1A2.jpg","37","restless",0.8,0.7,0.2,0.967283319339802,"false"
"image-keyboard-response",48,71643,"0.0-3.12-1.12","mdkeuxj8pu48f5m",703,"81.csv","","null","resources/maskTrios/L1BB.jpg","null","",NA,NA,NA,NA,""
"image-keyboard-response",49,72856,"0.0-3.12-2.12","mdkeuxj8pu48f5m",703,"81.csv","","null","resources/images/fishbone.png","null","",NA,NA,NA,NA,""
"image-keyboard-response",50,73997,"0.0-3.13-0.13","mdkeuxj8pu48f5m",703,"81.csv","","1140.3999998569489","resources/trios/L1T4A1.jpg","37","restless",0.7,0.7,0.2,0.576160707964181,"true"
"image-keyboard-response",51,74407,"0.0-3.13-1.13","mdkeuxj8pu48f5m",703,"81.csv","","null","resources/maskTrios/L1BB.jpg","null","",NA,NA,NA,NA,""
"image-keyboard-response",52,75621,"0.0-3.13-2.13","mdkeuxj8pu48f5m",703,"81.csv","","null","resources/images/coin2.png","null","",NA,NA,NA,NA,""
"image-keyboard-response",53,78088,"0.0-3.14-0.14","mdkeuxj8pu48f5m",703,"81.csv","","2466.600000143051","resources/trios/L1T1A1.jpg","38","restless",0.7,0.7,0.3,0.815620202251258,"false"
"image-keyboard-response",54,78499,"0.0-3.14-1.14","mdkeuxj8pu48f5m",703,"81.csv","","null","resources/maskTrios/BT1B.jpg","null","",NA,NA,NA,NA,""
"image-keyboard-response",55,79710,"0.0-3.14-2.14","mdkeuxj8pu48f5m",703,"81.csv","","null","resources/images/fishbone.png","null","",NA,NA,NA,NA,""
"image-keyboard-response",56,80350,"0.0-3.15-0.15","mdkeuxj8pu48f5m",703,"81.csv","","638.5","resources/trios/L1T1A2.jpg","37","restless",0.7,0.7,0.3,0.796173603851354,"false"
"image-keyboard-response",57,80766,"0.0-3.15-1.15","mdkeuxj8pu48f5m",703,"81.csv","","null","resources/maskTrios/L1BB.jpg","null","",NA,NA,NA,NA,""
"image-keyboard-response",58,81978,"0.0-3.15-2.15","mdkeuxj8pu48f5m",703,"81.csv","","null","resources/images/fishbone.png","null","",NA,NA,NA,NA,""
"image-keyboard-response",59,82518,"0.0-3.16-0.16","mdkeuxj8pu48f5m",703,"81.csv","","540","resources/trios/L1T1A1.jpg","39","restless",0.7,0.7,0.4,0.377592904275698,"true"
"image-keyboard-response",60,82926,"0.0-3.16-1.16","mdkeuxj8pu48f5m",703,"81.csv","","null","resources/maskTrios/BBA1.jpg","null","",NA,NA,NA,NA,""
"image-keyboard-response",61,84132,"0.0-3.16-2.16","mdkeuxj8pu48f5m",703,"81.csv","","null","resources/images/coin2.png","null","",NA,NA,NA,NA,""
"image-keyboard-response",62,85259,"0.0-3.17-0.17","mdkeuxj8pu48f5m",703,"81.csv","","1127.1000001430511","resources/trios/L1T1A1.jpg","39","restless",0.7,0.7,0.4,0.166811251722094,"true"
"image-keyboard-response",63,85673,"0.0-3.17-1.17","mdkeuxj8pu48f5m",703,"81.csv","","null","resources/maskTrios/BBA1.jpg","null","",NA,NA,NA,NA,""
"image-keyboard-response",64,86888,"0.0-3.17-2.17","mdkeuxj8pu48f5m",703,"81.csv","","null","resources/images/coin2.png","null","",NA,NA,NA,NA,""
"image-keyboard-response",65,88786,"0.0-3.18-0.18","mdkeuxj8pu48f5m",703,"81.csv","","1897.2999999523163","resources/trios/L1T1A2.jpg","39","restless",0.7,0.7,0.4,0.515961525991056,"false"
"image-keyboard-response",66,89201,"0.0-3.18-1.18","mdkeuxj8pu48f5m",703,"81.csv","","null","resources/maskTrios/BBA2.jpg","null","",NA,NA,NA,NA,""
"image-keyboard-response",67,90417,"0.0-3.18-2.18","mdkeuxj8pu48f5m",703,"81.csv","","null","resources/images/fishbone.png","null","",NA,NA,NA,NA,""
"image-keyboard-response",68,92124,"0.0-3.19-0.19","mdkeuxj8pu48f5m",703,"81.csv","","1707.0999999046326","resources/trios/L1T4A2.jpg","37","restless",0.7,0.7,0.4,0.337348913105057,"true"
"image-keyboard-response",69,92534,"0.0-3.19-1.19","mdkeuxj8pu48f5m",703,"81.csv","","null","resources/maskTrios/L1BB.jpg","null","",NA,NA,NA,NA,""
"image-keyboard-response",70,93749,"0.0-3.19-2.19","mdkeuxj8pu48f5m",703,"81.csv","","null","resources/images/coin2.png","null","",NA,NA,NA,NA,""
"image-keyboard-response",71,95463,"0.0-3.20-0.20","mdkeuxj8pu48f5m",703,"81.csv","","1712.7999999523163","resources/trios/L1T4A1.jpg","38","restless",0.8,0.7,0.4,0.758378806830294,"false"
"image-keyboard-response",72,95864,"0.0-3.20-1.20","mdkeuxj8pu48f5m",703,"81.csv","","null","resources/maskTrios/BT4B.jpg","null","",NA,NA,NA,NA,""
"image-keyboard-response",73,97078,"0.0-3.20-2.20","mdkeuxj8pu48f5m",703,"81.csv","","null","resources/images/fishbone.png","null","",NA,NA,NA,NA,""
"image-keyboard-response",74,98275,"0.0-3.21-0.21","mdkeuxj8pu48f5m",703,"81.csv","","1196.0999999046326","resources/trios/L1T4A2.jpg","37","restless",0.8,0.6,0.4,0.710103560215508,"true"
"image-keyboard-response",75,98680,"0.0-3.21-1.21","mdkeuxj8pu48f5m",703,"81.csv","","null","resources/maskTrios/L1BB.jpg","null","",NA,NA,NA,NA,""
"image-keyboard-response",76,99896,"0.0-3.21-2.21","mdkeuxj8pu48f5m",703,"81.csv","","null","resources/images/coin2.png","null","",NA,NA,NA,NA,""
"image-keyboard-response",77,101288,"0.0-3.22-0.22","mdkeuxj8pu48f5m",703,"81.csv","","1392","resources/trios/L1T4A2.jpg","37","restless",0.8,0.6,0.4,0.730227117802155,"true"
"image-keyboard-response",78,101699,"0.0-3.22-1.22","mdkeuxj8pu48f5m",703,"81.csv","","null","resources/maskTrios/L1BB.jpg","null","",NA,NA,NA,NA,""
"image-keyboard-response",79,102914,"0.0-3.22-2.22","mdkeuxj8pu48f5m",703,"81.csv","","null","resources/images/coin2.png","null","",NA,NA,NA,NA,""
"image-keyboard-response",80,104769,"0.0-3.23-0.23","mdkeuxj8pu48f5m",703,"81.csv","","1854.3999998569489","resources/trios/L2T1A1.jpg","38","restless",0.8,0.6,0.4,0.810959996256925,"false"
"image-keyboard-response",81,105185,"0.0-3.23-1.23","mdkeuxj8pu48f5m",703,"81.csv","","null","resources/maskTrios/BT1B.jpg","null","",NA,NA,NA,NA,""
"image-keyboard-response",82,106399,"0.0-3.23-2.23","mdkeuxj8pu48f5m",703,"81.csv","","null","resources/images/fishbone.png","null","",NA,NA,NA,NA,""
"image-keyboard-response",83,107120,"0.0-3.24-0.24","mdkeuxj8pu48f5m",703,"81.csv","","720.7000000476837","resources/trios/L2T1A2.jpg","37","restless",0.7,0.6,0.4,0.591423225026191,"true"
"image-keyboard-response",84,107534,"0.0-3.24-1.24","mdkeuxj8pu48f5m",703,"81.csv","","null","resources/maskTrios/L2BB.jpg","null","",NA,NA,NA,NA,""
"image-keyboard-response",85,108749,"0.0-3.24-2.24","mdkeuxj8pu48f5m",703,"81.csv","","null","resources/images/coin2.png","null","",NA,NA,NA,NA,""
"image-keyboard-response",86,110614,"0.0-3.25-0.25","mdkeuxj8pu48f5m",703,"81.csv","","1864.7000000476837","resources/trios/L1T1A1.jpg","39","restless",0.7,0.6,0.4,0.438254893202655,"false"
"image-keyboard-response",87,111027,"0.0-3.25-1.25","mdkeuxj8pu48f5m",703,"81.csv","","null","resources/maskTrios/BBA1.jpg","null","",NA,NA,NA,NA,""
"image-keyboard-response",88,112242,"0.0-3.25-2.25","mdkeuxj8pu48f5m",703,"81.csv","","null","resources/images/fishbone.png","null","",NA,NA,NA,NA,""
"image-keyboard-response",89,113264,"0.0-3.26-0.26","mdkeuxj8pu48f5m",703,"81.csv","","1022","resources/trios/L1T1A2.jpg","38","restless",0.7,0.5,0.4,0.959080080426532,"false"
"image-keyboard-response",90,113672,"0.0-3.26-1.26","mdkeuxj8pu48f5m",703,"81.csv","","null","resources/maskTrios/BT1B.jpg","null","",NA,NA,NA,NA,""
"image-keyboard-response",91,114879,"0.0-3.26-2.26","mdkeuxj8pu48f5m",703,"81.csv","","null","resources/images/fishbone.png","null","",NA,NA,NA,NA,""
"image-keyboard-response",92,115316,"0.0-3.27-0.27","mdkeuxj8pu48f5m",703,"81.csv","","436.90000009536743","resources/trios/L1T1A2.jpg","37","restless",0.7,0.5,0.4,0.964674504728576,"false"
"image-keyboard-response",93,115733,"0.0-3.27-1.27","mdkeuxj8pu48f5m",703,"81.csv","","null","resources/maskTrios/L1BB.jpg","null","",NA,NA,NA,NA,""
"image-keyboard-response",94,116948,"0.0-3.27-2.27","mdkeuxj8pu48f5m",703,"81.csv","","null","resources/images/fishbone.png","null","",NA,NA,NA,NA,""
"image-keyboard-response",95,119076,"0.0-3.28-0.28","mdkeuxj8pu48f5m",703,"81.csv","","2128.0999999046326","resources/trios/L2T4A2.jpg","37","restless",0.7,0.5,0.4,0.0901341914206213,"true"
"image-keyboard-response",96,119479,"0.0-3.28-1.28","mdkeuxj8pu48f5m",703,"81.csv","","null","resources/maskTrios/L2BB.jpg","null","",NA,NA,NA,NA,""
"image-keyboard-response",97,120691,"0.0-3.28-2.28","mdkeuxj8pu48f5m",703,"81.csv","","null","resources/images/coin2.png","null","",NA,NA,NA,NA,""
"image-keyboard-response",98,122850,"0.0-3.29-0.29","mdkeuxj8pu48f5m",703,"81.csv","","2158","resources/trios/L1T4A2.jpg","37","restless",0.7,0.5,0.4,0.935516590331259,"false"
"image-keyboard-response",99,123260,"0.0-3.29-1.29","mdkeuxj8pu48f5m",703,"81.csv","","null","resources/maskTrios/L1BB.jpg","null","",NA,NA,NA,NA,""
"image-keyboard-response",100,124461,"0.0-3.29-2.29","mdkeuxj8pu48f5m",703,"81.csv","","null","resources/images/fishbone.png","null","",NA,NA,NA,NA,""
"image-keyboard-response",101,126286,"0.0-3.30-0.30","mdkeuxj8pu48f5m",703,"81.csv","","1824.5","resources/trios/L2T4A2.jpg","38","restless",0.8,0.5,0.4,0.889488889646351,"false"
"image-keyboard-response",102,126701,"0.0-3.30-1.30","mdkeuxj8pu48f5m",703,"81.csv","","null","resources/maskTrios/BT4B.jpg","null","",NA,NA,NA,NA,""
"image-keyboard-response",103,127912,"0.0-3.30-2.30","mdkeuxj8pu48f5m",703,"81.csv","","null","resources/images/fishbone.png","null","",NA,NA,NA,NA,""
"image-keyboard-response",104,129604,"0.0-3.31-0.31","mdkeuxj8pu48f5m",703,"81.csv","","1692.0999999046326","resources/trios/L2T4A1.jpg","37","restless",0.8,0.5,0.4,0.567123986193869,"true"
"image-keyboard-response",105,130010,"0.0-3.31-1.31","mdkeuxj8pu48f5m",703,"81.csv","","null","resources/maskTrios/L2BB.jpg","null","",NA,NA,NA,NA,""
"image-keyboard-response",106,131220,"0.0-3.31-2.31","mdkeuxj8pu48f5m",703,"81.csv","","null","resources/images/coin2.png","null","",NA,NA,NA,NA,""
"image-keyboard-response",107,137443,"0.0-3.32-0.32","mdkeuxj8pu48f5m",703,"81.csv","","6223","resources/trios/L1T4A2.jpg","39","restless",0.8,0.5,0.4,0.621435178175147,"false"
"image-keyboard-response",108,137853,"0.0-3.32-1.32","mdkeuxj8pu48f5m",703,"81.csv","","null","resources/maskTrios/BBA2.jpg","null","",NA,NA,NA,NA,""
"image-keyboard-response",109,139061,"0.0-3.32-2.32","mdkeuxj8pu48f5m",703,"81.csv","","null","resources/images/fishbone.png","null","",NA,NA,NA,NA,""
"image-keyboard-response",110,139886,"0.0-3.33-0.33","mdkeuxj8pu48f5m",703,"81.csv","","823.4000000953674","resources/trios/L2T4A1.jpg","37","restless",0.8,0.5,0.4,0.578309623285809,"true"
"image-keyboard-response",111,140288,"0.0-3.33-1.33","mdkeuxj8pu48f5m",703,"81.csv","","null","resources/maskTrios/L2BB.jpg","null","",NA,NA,NA,NA,""
"image-keyboard-response",112,141502,"0.0-3.33-2.33","mdkeuxj8pu48f5m",703,"81.csv","","null","resources/images/coin2.png","null","",NA,NA,NA,NA,""
"image-keyboard-response",113,143184,"0.0-3.34-0.34","mdkeuxj8pu48f5m",703,"81.csv","","1680.8000001907349","resources/trios/L2T4A1.jpg","37","restless",0.8,0.5,0.5,0.505947557129383,"true"
"image-keyboard-response",114,143589,"0.0-3.34-1.34","mdkeuxj8pu48f5m",703,"81.csv","","null","resources/maskTrios/L2BB.jpg","null","",NA,NA,NA,NA,""
"image-keyboard-response",115,144801,"0.0-3.34-2.34","mdkeuxj8pu48f5m",703,"81.csv","","null","resources/images/coin2.png","null","",NA,NA,NA,NA,""
"image-keyboard-response",116,147290,"0.0-3.35-0.35","mdkeuxj8pu48f5m",703,"81.csv","","2487.7000000476837","resources/trios/L2T1A2.jpg","39","restless",0.7,0.5,0.5,0.345747120298551,"true"
"image-keyboard-response",117,147706,"0.0-3.35-1.35","mdkeuxj8pu48f5m",703,"81.csv","","null","resources/maskTrios/BBA2.jpg","null","",NA,NA,NA,NA,""
"image-keyboard-response",118,148922,"0.0-3.35-2.35","mdkeuxj8pu48f5m",703,"81.csv","","null","resources/images/coin2.png","null","",NA,NA,NA,NA,""
"image-keyboard-response",119,150270,"0.0-3.36-0.36","mdkeuxj8pu48f5m",703,"81.csv","","1348.2000000476837","resources/trios/L2T4A1.jpg","38","restless",0.7,0.5,0.4,0.52478998136134,"false"
"image-keyboard-response",120,150684,"0.0-3.36-1.36","mdkeuxj8pu48f5m",703,"81.csv","","null","resources/maskTrios/BT4B.jpg","null","",NA,NA,NA,NA,""
"image-keyboard-response",121,151888,"0.0-3.36-2.36","mdkeuxj8pu48f5m",703,"81.csv","","null","resources/images/fishbone.png","null","",NA,NA,NA,NA,""
"image-keyboard-response",122,153381,"0.0-3.37-0.37","mdkeuxj8pu48f5m",703,"81.csv","","1492.4000000953674","resources/trios/L1T1A1.jpg","37","restless",0.7,0.5,0.4,0.806982662772137,"false"
"image-keyboard-response",123,153785,"0.0-3.37-1.37","mdkeuxj8pu48f5m",703,"81.csv","","null","resources/maskTrios/L1BB.jpg","null","",NA,NA,NA,NA,""
"image-keyboard-response",124,155002,"0.0-3.37-2.37","mdkeuxj8pu48f5m",703,"81.csv","","null","resources/images/fishbone.png","null","",NA,NA,NA,NA,""
"image-keyboard-response",125,155896,"0.0-3.38-0.38","mdkeuxj8pu48f5m",703,"81.csv","","892","resources/trios/L2T1A2.jpg","38","restless",0.8,0.5,0.4,0.511410300632902,"false"
"image-keyboard-response",126,156311,"0.0-3.38-1.38","mdkeuxj8pu48f5m",703,"81.csv","","null","resources/maskTrios/BT1B.jpg","null","",NA,NA,NA,NA,""
"image-keyboard-response",127,157526,"0.0-3.38-2.38","mdkeuxj8pu48f5m",703,"81.csv","","null","resources/images/fishbone.png","null","",NA,NA,NA,NA,""
"image-keyboard-response",128,158577,"0.0-3.39-0.39","mdkeuxj8pu48f5m",703,"81.csv","","1049.8999998569489","resources/trios/L2T1A1.jpg","37","restless",0.8,0.5,0.4,0.926719615927747,"false"
"image-keyboard-response",129,158991,"0.0-3.39-1.39","mdkeuxj8pu48f5m",703,"81.csv","","null","resources/maskTrios/L2BB.jpg","null","",NA,NA,NA,NA,""
"image-keyboard-response",130,160205,"0.0-3.39-2.39","mdkeuxj8pu48f5m",703,"81.csv","","null","resources/images/fishbone.png","null","",NA,NA,NA,NA,""
"image-keyboard-response",131,160831,"0.0-3.40-0.40","mdkeuxj8pu48f5m",703,"81.csv","","625.5999999046326","resources/trios/L1T4A1.jpg","38","restless",0.8,0.5,0.4,0.483105266833033,"true"
"image-keyboard-response",132,161247,"0.0-3.40-1.40","mdkeuxj8pu48f5m",703,"81.csv","","null","resources/maskTrios/BT4B.jpg","null","",NA,NA,NA,NA,""
"image-keyboard-response",133,162459,"0.0-3.40-2.40","mdkeuxj8pu48f5m",703,"81.csv","","null","resources/images/coin2.png","null","",NA,NA,NA,NA,""
"image-keyboard-response",134,164644,"0.0-3.41-0.41","mdkeuxj8pu48f5m",703,"81.csv","","2183.7999999523163","resources/trios/L2T1A2.jpg","39","restless",0.8,0.5,0.4,0.16930837610683,"true"
"image-keyboard-response",135,165057,"0.0-3.41-1.41","mdkeuxj8pu48f5m",703,"81.csv","","null","resources/maskTrios/BBA2.jpg","null","",NA,NA,NA,NA,""
"image-keyboard-response",136,166273,"0.0-3.41-2.41","mdkeuxj8pu48f5m",703,"81.csv","","null","resources/images/coin2.png","null","",NA,NA,NA,NA,""
"image-keyboard-response",137,168061,"0.0-3.42-0.42","mdkeuxj8pu48f5m",703,"81.csv","","1787.5999999046326","resources/trios/L2T1A1.jpg","39","restless",0.8,0.5,0.4,0.732164551161681,"false"
"image-keyboard-response",138,168477,"0.0-3.42-1.42","mdkeuxj8pu48f5m",703,"81.csv","","null","resources/maskTrios/BBA1.jpg","null","",NA,NA,NA,NA,""
"image-keyboard-response",139,169682,"0.0-3.42-2.42","mdkeuxj8pu48f5m",703,"81.csv","","null","resources/images/fishbone.png","null","",NA,NA,NA,NA,""
"image-keyboard-response",140,171334,"0.0-3.43-0.43","mdkeuxj8pu48f5m",703,"81.csv","","1651","resources/trios/L1T1A1.jpg","38","restless",0.8,0.4,0.4,0.930164949360053,"false"
"image-keyboard-response",141,171747,"0.0-3.43-1.43","mdkeuxj8pu48f5m",703,"81.csv","","null","resources/maskTrios/BT1B.jpg","null","",NA,NA,NA,NA,""
"image-keyboard-response",142,172964,"0.0-3.43-2.43","mdkeuxj8pu48f5m",703,"81.csv","","null","resources/images/fishbone.png","null","",NA,NA,NA,NA,""
"image-keyboard-response",143,174399,"0.0-3.44-0.44","mdkeuxj8pu48f5m",703,"81.csv","","1435.0999999046326","resources/trios/L2T4A2.jpg","38","restless",0.8,0.5,0.4,0.539738526454524,"false"
"image-keyboard-response",144,174812,"0.0-3.44-1.44","mdkeuxj8pu48f5m",703,"81.csv","","null","resources/maskTrios/BT4B.jpg","null","",NA,NA,NA,NA,""
"image-keyboard-response",145,176028,"0.0-3.44-2.44","mdkeuxj8pu48f5m",703,"81.csv","","null","resources/images/fishbone.png","null","",NA,NA,NA,NA,""
"image-keyboard-response",146,176705,"0.0-3.45-0.45","mdkeuxj8pu48f5m",703,"81.csv","","676.5","resources/trios/L1T1A2.jpg","37","restless",0.8,0.5,0.4,0.297823383306767,"true"
"image-keyboard-response",147,177118,"0.0-3.45-1.45","mdkeuxj8pu48f5m",703,"81.csv","","null","resources/maskTrios/L1BB.jpg","null","",NA,NA,NA,NA,""
"image-keyboard-response",148,178334,"0.0-3.45-2.45","mdkeuxj8pu48f5m",703,"81.csv","","null","resources/images/coin2.png","null","",NA,NA,NA,NA,""
"image-keyboard-response",149,179387,"0.0-3.46-0.46","mdkeuxj8pu48f5m",703,"81.csv","","1052.1999998092651","resources/trios/L2T1A2.jpg","37","restless",0.8,0.5,0.4,0.210294446998334,"true"
"image-keyboard-response",150,179795,"0.0-3.46-1.46","mdkeuxj8pu48f5m",703,"81.csv","","null","resources/maskTrios/L2BB.jpg","null","",NA,NA,NA,NA,""
"image-keyboard-response",151,181008,"0.0-3.46-2.46","mdkeuxj8pu48f5m",703,"81.csv","","null","resources/images/coin2.png","null","",NA,NA,NA,NA,""
"image-keyboard-response",152,181588,"0.0-3.47-0.47","mdkeuxj8pu48f5m",703,"81.csv","","579.3000001907349","resources/trios/L2T4A2.jpg","38","restless",0.8,0.5,0.4,0.743364097321441,"false"
"image-keyboard-response",153,181990,"0.0-3.47-1.47","mdkeuxj8pu48f5m",703,"81.csv","","null","resources/maskTrios/BT4B.jpg","null","",NA,NA,NA,NA,""
"image-keyboard-response",154,183201,"0.0-3.47-2.47","mdkeuxj8pu48f5m",703,"81.csv","","null","resources/images/fishbone.png","null","",NA,NA,NA,NA,""
"image-keyboard-response",155,184238,"0.0-3.48-0.48","mdkeuxj8pu48f5m",703,"81.csv","","1036.1000001430511","resources/trios/L2T1A2.jpg","38","restless",0.8,0.5,0.4,0.0837859500838889,"true"
"image-keyboard-response",156,184649,"0.0-3.48-1.48","mdkeuxj8pu48f5m",703,"81.csv","","null","resources/maskTrios/BT1B.jpg","null","",NA,NA,NA,NA,""
"image-keyboard-response",157,185861,"0.0-3.48-2.48","mdkeuxj8pu48f5m",703,"81.csv","","null","resources/images/coin2.png","null","",NA,NA,NA,NA,""
"image-keyboard-response",158,186868,"0.0-3.49-0.49","mdkeuxj8pu48f5m",703,"81.csv","","1006.2999999523163","resources/trios/L1T4A2.jpg","37","restless",0.8,0.5,0.4,0.545678080555632,"true"
"image-keyboard-response",159,187273,"0.0-3.49-1.49","mdkeuxj8pu48f5m",703,"81.csv","","null","resources/maskTrios/L1BB.jpg","null","",NA,NA,NA,NA,""
"image-keyboard-response",160,188487,"0.0-3.49-2.49","mdkeuxj8pu48f5m",703,"81.csv","","null","resources/images/coin2.png","null","",NA,NA,NA,NA,""
"image-keyboard-response",161,189167,"0.0-3.50-0.50","mdkeuxj8pu48f5m",703,"81.csv","","679.0999999046326","resources/trios/L1T4A1.jpg","37","restless",0.8,0.5,0.4,0.226805987271236,"true"
"image-keyboard-response",162,189571,"0.0-3.50-1.50","mdkeuxj8pu48f5m",703,"81.csv","","null","resources/maskTrios/L1BB.jpg","null","",NA,NA,NA,NA,""
"image-keyboard-response",163,190781,"0.0-3.50-2.50","mdkeuxj8pu48f5m",703,"81.csv","","null","resources/images/coin2.png","null","",NA,NA,NA,NA,""
"image-keyboard-response",164,192460,"0.0-3.51-0.51","mdkeuxj8pu48f5m",703,"81.csv","","1678","resources/trios/L1T4A2.jpg","37","restless",0.8,0.5,0.4,0.00739731413409572,"true"
"image-keyboard-response",165,192869,"0.0-3.51-1.51","mdkeuxj8pu48f5m",703,"81.csv","","null","resources/maskTrios/L1BB.jpg","null","",NA,NA,NA,NA,""
"image-keyboard-response",166,194082,"0.0-3.51-2.51","mdkeuxj8pu48f5m",703,"81.csv","","null","resources/images/coin2.png","null","",NA,NA,NA,NA,""
"image-keyboard-response",167,195882,"0.0-3.52-0.52","mdkeuxj8pu48f5m",703,"81.csv","","1799.2999999523163","resources/trios/L1T1A2.jpg","39","restless",0.8,0.5,0.4,0.585630116132745,"false"
"image-keyboard-response",168,196284,"0.0-3.52-1.52","mdkeuxj8pu48f5m",703,"81.csv","","null","resources/maskTrios/BBA2.jpg","null","",NA,NA,NA,NA,""
"image-keyboard-response",169,197497,"0.0-3.52-2.52","mdkeuxj8pu48f5m",703,"81.csv","","null","resources/images/fishbone.png","null","",NA,NA,NA,NA,""
"image-keyboard-response",170,199273,"0.0-3.53-0.53","mdkeuxj8pu48f5m",703,"81.csv","","1775.1000001430511","resources/trios/L2T1A2.jpg","38","restless",0.8,0.5,0.4,0.995348895393595,"false"
"image-keyboard-response",171,199688,"0.0-3.53-1.53","mdkeuxj8pu48f5m",703,"81.csv","","null","resources/maskTrios/BT1B.jpg","null","",NA,NA,NA,NA,""
"image-keyboard-response",172,200896,"0.0-3.53-2.53","mdkeuxj8pu48f5m",703,"81.csv","","null","resources/images/fishbone.png","null","",NA,NA,NA,NA,""
"image-keyboard-response",173,201559,"0.0-3.54-0.54","mdkeuxj8pu48f5m",703,"81.csv","","662.2999999523163","resources/trios/L1T4A2.jpg","37","restless",0.8,0.5,0.4,0.773587369052414,"true"
"image-keyboard-response",174,201971,"0.0-3.54-1.54","mdkeuxj8pu48f5m",703,"81.csv","","null","resources/maskTrios/L1BB.jpg","null","",NA,NA,NA,NA,""
"image-keyboard-response",175,203185,"0.0-3.54-2.54","mdkeuxj8pu48f5m",703,"81.csv","","null","resources/images/coin2.png","null","",NA,NA,NA,NA,""
"image-keyboard-response",176,204715,"0.0-3.55-0.55","mdkeuxj8pu48f5m",703,"81.csv","","1529.2000000476837","resources/trios/L1T1A1.jpg","37","restless",0.8,0.5,0.4,0.127552095290078,"true"
"image-keyboard-response",177,205130,"0.0-3.55-1.55","mdkeuxj8pu48f5m",703,"81.csv","","null","resources/maskTrios/L1BB.jpg","null","",NA,NA,NA,NA,""
"image-keyboard-response",178,206344,"0.0-3.55-2.55","mdkeuxj8pu48f5m",703,"81.csv","","null","resources/images/coin2.png","null","",NA,NA,NA,NA,""
"image-keyboard-response",179,207234,"0.0-3.56-0.56","mdkeuxj8pu48f5m",703,"81.csv","","888.9000000953674","resources/trios/L1T4A1.jpg","37","restless",0.8,0.5,0.4,0.274372016556724,"true"
"image-keyboard-response",180,207638,"0.0-3.56-1.56","mdkeuxj8pu48f5m",703,"81.csv","","null","resources/maskTrios/L1BB.jpg","null","",NA,NA,NA,NA,""
"image-keyboard-response",181,208848,"0.0-3.56-2.56","mdkeuxj8pu48f5m",703,"81.csv","","null","resources/images/coin2.png","null","",NA,NA,NA,NA,""
"image-keyboard-response",182,209579,"0.0-3.57-0.57","mdkeuxj8pu48f5m",703,"81.csv","","730.2000000476837","resources/trios/L1T1A1.jpg","37","restless",0.8,0.5,0.5,0.916546434571772,"false"
"image-keyboard-response",183,209983,"0.0-3.57-1.57","mdkeuxj8pu48f5m",703,"81.csv","","null","resources/maskTrios/L1BB.jpg","null","",NA,NA,NA,NA,""
"image-keyboard-response",184,211195,"0.0-3.57-2.57","mdkeuxj8pu48f5m",703,"81.csv","","null","resources/images/fishbone.png","null","",NA,NA,NA,NA,""
"image-keyboard-response",185,212521,"0.0-3.58-0.58","mdkeuxj8pu48f5m",703,"81.csv","","1325","resources/trios/L2T1A1.jpg","37","restless",0.8,0.5,0.6,0.781297184169655,"true"
"image-keyboard-response",186,212937,"0.0-3.58-1.58","mdkeuxj8pu48f5m",703,"81.csv","","null","resources/maskTrios/L2BB.jpg","null","",NA,NA,NA,NA,""
"image-keyboard-response",187,214150,"0.0-3.58-2.58","mdkeuxj8pu48f5m",703,"81.csv","","null","resources/images/coin2.png","null","",NA,NA,NA,NA,""
"image-keyboard-response",188,215002,"0.0-3.59-0.59","mdkeuxj8pu48f5m",703,"81.csv","","851.5","resources/trios/L2T1A1.jpg","37","restless",0.8,0.6,0.6,0.737962667392835,"true"
"image-keyboard-response",189,215411,"0.0-3.59-1.59","mdkeuxj8pu48f5m",703,"81.csv","","null","resources/maskTrios/L2BB.jpg","null","",NA,NA,NA,NA,""
"image-keyboard-response",190,216620,"0.0-3.59-2.59","mdkeuxj8pu48f5m",703,"81.csv","","null","resources/images/coin2.png","null","",NA,NA,NA,NA,""
"image-keyboard-response",191,217729,"0.0-3.60-0.60","mdkeuxj8pu48f5m",703,"81.csv","","1107.0999999046326","resources/trios/L1T4A1.jpg","37","restless",0.8,0.5,0.6,0.861919447737016,"false"
"image-keyboard-response",192,218132,"0.0-3.60-1.60","mdkeuxj8pu48f5m",703,"81.csv","","null","resources/maskTrios/L1BB.jpg","null","",NA,NA,NA,NA,""
"image-keyboard-response",193,219344,"0.0-3.60-2.60","mdkeuxj8pu48f5m",703,"81.csv","","null","resources/images/fishbone.png","null","",NA,NA,NA,NA,""
"image-keyboard-response",194,219892,"0.0-3.61-0.61","mdkeuxj8pu48f5m",703,"81.csv","","547","resources/trios/L2T4A2.jpg","37","restless",0.8,0.5,0.6,0.33965874496236,"true"
"image-keyboard-response",195,220296,"0.0-3.61-1.61","mdkeuxj8pu48f5m",703,"81.csv","","null","resources/maskTrios/L2BB.jpg","null","",NA,NA,NA,NA,""
"image-keyboard-response",196,221510,"0.0-3.61-2.61","mdkeuxj8pu48f5m",703,"81.csv","","null","resources/images/coin2.png","null","",NA,NA,NA,NA,""
"image-keyboard-response",197,223152,"0.0-3.62-0.62","mdkeuxj8pu48f5m",703,"81.csv","","1641.1999998092651","resources/trios/L1T1A2.jpg","38","restless",0.8,0.5,0.6,0.372493424677495,"true"
"image-keyboard-response",198,223562,"0.0-3.62-1.62","mdkeuxj8pu48f5m",703,"81.csv","","null","resources/maskTrios/BT1B.jpg","null","",NA,NA,NA,NA,""
"image-keyboard-response",199,224776,"0.0-3.62-2.62","mdkeuxj8pu48f5m",703,"81.csv","","null","resources/images/coin2.png","null","",NA,NA,NA,NA,""
"image-keyboard-response",200,225977,"0.0-3.63-0.63","mdkeuxj8pu48f5m",703,"81.csv","","1200.2000000476837","resources/trios/L1T4A1.jpg","37","restless",0.8,0.5,0.6,0.0881289839732669,"true"
"image-keyboard-response",201,226383,"0.0-3.63-1.63","mdkeuxj8pu48f5m",703,"81.csv","","null","resources/maskTrios/L1BB.jpg","null","",NA,NA,NA,NA,""
"image-keyboard-response",202,227595,"0.0-3.63-2.63","mdkeuxj8pu48f5m",703,"81.csv","","null","resources/images/coin2.png","null","",NA,NA,NA,NA,""
"image-keyboard-response",203,228620,"0.0-3.64-0.64","mdkeuxj8pu48f5m",703,"81.csv","","1024","resources/trios/L2T4A2.jpg","37","restless",0.8,0.5,0.6,0.698658493127144,"true"
"image-keyboard-response",204,229025,"0.0-3.64-1.64","mdkeuxj8pu48f5m",703,"81.csv","","null","resources/maskTrios/L2BB.jpg","null","",NA,NA,NA,NA,""
"image-keyboard-response",205,230240,"0.0-3.64-2.64","mdkeuxj8pu48f5m",703,"81.csv","","null","resources/images/coin2.png","null","",NA,NA,NA,NA,""
"image-keyboard-response",206,231516,"0.0-3.65-0.65","mdkeuxj8pu48f5m",703,"81.csv","","1275.3999998569489","resources/trios/L1T4A1.jpg","37","restless",0.8,0.5,0.6,0.334090323923724,"true"
"image-keyboard-response",207,231924,"0.0-3.65-1.65","mdkeuxj8pu48f5m",703,"81.csv","","null","resources/maskTrios/L1BB.jpg","null","",NA,NA,NA,NA,""
"image-keyboard-response",208,233138,"0.0-3.65-2.65","mdkeuxj8pu48f5m",703,"81.csv","","null","resources/images/coin2.png","null","",NA,NA,NA,NA,""
"image-keyboard-response",209,234186,"0.0-3.66-0.66","mdkeuxj8pu48f5m",703,"81.csv","","1047.6999998092651","resources/trios/L2T4A2.jpg","37","restless",0.8,0.6,0.5,0.356529546002875,"true"
"image-keyboard-response",210,234599,"0.0-3.66-1.66","mdkeuxj8pu48f5m",703,"81.csv","","null","resources/maskTrios/L2BB.jpg","null","",NA,NA,NA,NA,""
"image-keyboard-response",211,235812,"0.0-3.66-2.66","mdkeuxj8pu48f5m",703,"81.csv","","null","resources/images/coin2.png","null","",NA,NA,NA,NA,""
"image-keyboard-response",212,236433,"0.0-3.67-0.67","mdkeuxj8pu48f5m",703,"81.csv","","620.3999998569489","resources/trios/L2T1A2.jpg","38","restless",0.8,0.6,0.5,0.477686037894574,"true"
"image-keyboard-response",213,236839,"0.0-3.67-1.67","mdkeuxj8pu48f5m",703,"81.csv","","null","resources/maskTrios/BT1B.jpg","null","",NA,NA,NA,NA,""
"image-keyboard-response",214,238054,"0.0-3.67-2.67","mdkeuxj8pu48f5m",703,"81.csv","","null","resources/images/coin2.png","null","",NA,NA,NA,NA,""
"image-keyboard-response",215,238874,"0.0-3.68-0.68","mdkeuxj8pu48f5m",703,"81.csv","","818.9000000953674","resources/trios/L2T1A2.jpg","38","restless",0.8,0.6,0.5,0.838886550359263,"false"
"image-keyboard-response",216,239282,"0.0-3.68-1.68","mdkeuxj8pu48f5m",703,"81.csv","","null","resources/maskTrios/BT1B.jpg","null","",NA,NA,NA,NA,""
"image-keyboard-response",217,240495,"0.0-3.68-2.68","mdkeuxj8pu48f5m",703,"81.csv","","null","resources/images/fishbone.png","null","",NA,NA,NA,NA,""
"image-keyboard-response",218,241842,"0.0-3.69-0.69","mdkeuxj8pu48f5m",703,"81.csv","","1347.0999999046326","resources/trios/L2T1A2.jpg","39","restless",0.8,0.6,0.5,0.658684098831655,"false"
"image-keyboard-response",219,242251,"0.0-3.69-1.69","mdkeuxj8pu48f5m",703,"81.csv","","null","resources/maskTrios/BBA2.jpg","null","",NA,NA,NA,NA,""
"image-keyboard-response",220,243462,"0.0-3.69-2.69","mdkeuxj8pu48f5m",703,"81.csv","","null","resources/images/fishbone.png","null","",NA,NA,NA,NA,""
"image-keyboard-response",221,244240,"0.0-3.70-0.70","mdkeuxj8pu48f5m",703,"81.csv","","777.6000001430511","resources/trios/L2T1A2.jpg","37","restless",0.8,0.6,0.5,0.733562206029641,"true"
"image-keyboard-response",222,244641,"0.0-3.70-1.70","mdkeuxj8pu48f5m",703,"81.csv","","null","resources/maskTrios/L2BB.jpg","null","",NA,NA,NA,NA,""
"image-keyboard-response",223,245852,"0.0-3.70-2.70","mdkeuxj8pu48f5m",703,"81.csv","","null","resources/images/coin2.png","null","",NA,NA,NA,NA,""
"image-keyboard-response",224,248417,"0.0-3.71-0.71","mdkeuxj8pu48f5m",703,"81.csv","","2563.800000190735","resources/trios/L1T1A2.jpg","37","restless",0.8,0.6,0.4,0.0370372405768709,"true"
"image-keyboard-response",225,248824,"0.0-3.71-1.71","mdkeuxj8pu48f5m",703,"81.csv","","null","resources/maskTrios/L1BB.jpg","null","",NA,NA,NA,NA,""
"image-keyboard-response",226,250035,"0.0-3.71-2.71","mdkeuxj8pu48f5m",703,"81.csv","","null","resources/images/coin2.png","null","",NA,NA,NA,NA,""
"image-keyboard-response",227,250890,"0.0-3.72-0.72","mdkeuxj8pu48f5m",703,"81.csv","","855.0999999046326","resources/trios/L1T1A1.jpg","37","restless",0.7,0.6,0.4,0.600942728279446,"true"
"image-keyboard-response",228,251294,"0.0-3.72-1.72","mdkeuxj8pu48f5m",703,"81.csv","","null","resources/maskTrios/L1BB.jpg","null","",NA,NA,NA,NA,""
"image-keyboard-response",229,252509,"0.0-3.72-2.72","mdkeuxj8pu48f5m",703,"81.csv","","null","resources/images/coin2.png","null","",NA,NA,NA,NA,""
"image-keyboard-response",230,253320,"0.0-3.73-0.73","mdkeuxj8pu48f5m",703,"81.csv","","810.3999998569489","resources/trios/L1T1A2.jpg","37","restless",0.7,0.5,0.4,0.324177929264081,"true"
"image-keyboard-response",231,253732,"0.0-3.73-1.73","mdkeuxj8pu48f5m",703,"81.csv","","null","resources/maskTrios/L1BB.jpg","null","",NA,NA,NA,NA,""
"image-keyboard-response",232,254947,"0.0-3.73-2.73","mdkeuxj8pu48f5m",703,"81.csv","","null","resources/images/coin2.png","null","",NA,NA,NA,NA,""
"image-keyboard-response",233,255709,"0.0-3.74-0.74","mdkeuxj8pu48f5m",703,"81.csv","","761.7000000476837","resources/trios/L1T1A1.jpg","37","restless",0.7,0.5,0.4,0.185382977060851,"true"
"image-keyboard-response",234,256113,"0.0-3.74-1.74","mdkeuxj8pu48f5m",703,"81.csv","","null","resources/maskTrios/L1BB.jpg","null","",NA,NA,NA,NA,""
"image-keyboard-response",235,257324,"0.0-3.74-2.74","mdkeuxj8pu48f5m",703,"81.csv","","null","resources/images/coin2.png","null","",NA,NA,NA,NA,""
"image-keyboard-response",236,258787,"0.0-3.75-0.75","mdkeuxj8pu48f5m",703,"81.csv","","1462.4000000953674","resources/trios/L2T4A1.jpg","38","restless",0.7,0.5,0.4,0.746398822718102,"false"
"image-keyboard-response",237,259192,"0.0-3.75-1.75","mdkeuxj8pu48f5m",703,"81.csv","","null","resources/maskTrios/BT4B.jpg","null","",NA,NA,NA,NA,""
"image-keyboard-response",238,260406,"0.0-3.75-2.75","mdkeuxj8pu48f5m",703,"81.csv","","null","resources/images/fishbone.png","null","",NA,NA,NA,NA,""
"image-keyboard-response",239,261671,"0.0-3.76-0.76","mdkeuxj8pu48f5m",703,"81.csv","","1265","resources/trios/L1T4A2.jpg","37","restless",0.7,0.5,0.4,0.0777262121796136,"true"
"image-keyboard-response",240,262085,"0.0-3.76-1.76","mdkeuxj8pu48f5m",703,"81.csv","","null","resources/maskTrios/L1BB.jpg","null","",NA,NA,NA,NA,""
"image-keyboard-response",241,263296,"0.0-3.76-2.76","mdkeuxj8pu48f5m",703,"81.csv","","null","resources/images/coin2.png","null","",NA,NA,NA,NA,""
"image-keyboard-response",242,264041,"0.0-3.77-0.77","mdkeuxj8pu48f5m",703,"81.csv","","745.2999999523163","resources/trios/L1T1A2.jpg","37","restless",0.7,0.5,0.4,0.386513847233059,"true"
"image-keyboard-response",243,264449,"0.0-3.77-1.77","mdkeuxj8pu48f5m",703,"81.csv","","null","resources/maskTrios/L1BB.jpg","null","",NA,NA,NA,NA,""
"image-keyboard-response",244,265661,"0.0-3.77-2.77","mdkeuxj8pu48f5m",703,"81.csv","","null","resources/images/coin2.png","null","",NA,NA,NA,NA,""
"image-keyboard-response",245,266925,"0.0-3.78-0.78","mdkeuxj8pu48f5m",703,"81.csv","","1263.6999998092651","resources/trios/L2T4A2.jpg","37","restless",0.7,0.5,0.4,0.985812546142984,"false"
"image-keyboard-response",246,267329,"0.0-3.78-1.78","mdkeuxj8pu48f5m",703,"81.csv","","null","resources/maskTrios/L2BB.jpg","null","",NA,NA,NA,NA,""
"image-keyboard-response",247,268544,"0.0-3.78-2.78","mdkeuxj8pu48f5m",703,"81.csv","","null","resources/images/fishbone.png","null","",NA,NA,NA,NA,""
"image-keyboard-response",248,270147,"0.0-3.79-0.79","mdkeuxj8pu48f5m",703,"81.csv","","1601.9000000953674","resources/trios/L1T1A1.jpg","37","restless",0.7,0.5,0.4,0.143930756892377,"true"
"image-keyboard-response",249,270554,"0.0-3.79-1.79","mdkeuxj8pu48f5m",703,"81.csv","","null","resources/maskTrios/L1BB.jpg","null","",NA,NA,NA,NA,""
"image-keyboard-response",250,271761,"0.0-3.79-2.79","mdkeuxj8pu48f5m",703,"81.csv","","null","resources/images/coin2.png","null","",NA,NA,NA,NA,""
"image-keyboard-response",251,272796,"0.0-3.80-0.80","mdkeuxj8pu48f5m",703,"81.csv","","1034.5999999046326","resources/trios/L2T4A2.jpg","38","restless",0.7,0.5,0.4,0.828262739038565,"false"
"image-keyboard-response",252,273199,"0.0-3.80-1.80","mdkeuxj8pu48f5m",703,"81.csv","","null","resources/maskTrios/BT4B.jpg","null","",NA,NA,NA,NA,""
"image-keyboard-response",253,274401,"0.0-3.80-2.80","mdkeuxj8pu48f5m",703,"81.csv","","null","resources/images/fishbone.png","null","",NA,NA,NA,NA,""
"image-keyboard-response",254,274985,"0.0-3.81-0.81","mdkeuxj8pu48f5m",703,"81.csv","","584.0999999046326","resources/trios/L2T4A2.jpg","37","restless",0.6,0.5,0.4,0.410989308895805,"true"
"image-keyboard-response",255,275394,"0.0-3.81-1.81","mdkeuxj8pu48f5m",703,"81.csv","","null","resources/maskTrios/L2BB.jpg","null","",NA,NA,NA,NA,""
"image-keyboard-response",256,276607,"0.0-3.81-2.81","mdkeuxj8pu48f5m",703,"81.csv","","null","resources/images/coin2.png","null","",NA,NA,NA,NA,""
"image-keyboard-response",257,277517,"0.0-3.82-0.82","mdkeuxj8pu48f5m",703,"81.csv","","910","resources/trios/L1T4A2.jpg","37","restless",0.6,0.5,0.4,0.602004517225958,"false"
"image-keyboard-response",258,277919,"0.0-3.82-1.82","mdkeuxj8pu48f5m",703,"81.csv","","null","resources/maskTrios/L1BB.jpg","null","",NA,NA,NA,NA,""
"image-keyboard-response",259,279130,"0.0-3.82-2.82","mdkeuxj8pu48f5m",703,"81.csv","","null","resources/images/fishbone.png","null","",NA,NA,NA,NA,""
"image-keyboard-response",260,279953,"0.0-3.83-0.83","mdkeuxj8pu48f5m",703,"81.csv","","822.7000000476837","resources/trios/L1T1A2.jpg","37","restless",0.6,0.5,0.4,0.481073813754796,"true"
"image-keyboard-response",261,280369,"0.0-3.83-1.83","mdkeuxj8pu48f5m",703,"81.csv","","null","resources/maskTrios/L1BB.jpg","null","",NA,NA,NA,NA,""
"image-keyboard-response",262,281578,"0.0-3.83-2.83","mdkeuxj8pu48f5m",703,"81.csv","","null","resources/images/coin2.png","null","",NA,NA,NA,NA,""
"image-keyboard-response",263,282908,"0.0-3.84-0.84","mdkeuxj8pu48f5m",703,"81.csv","","1329.9000000953674","resources/trios/L1T4A1.jpg","38","restless",0.7,0.5,0.4,0.478539599268351,"true"
"image-keyboard-response",264,283323,"0.0-3.84-1.84","mdkeuxj8pu48f5m",703,"81.csv","","null","resources/maskTrios/BT4B.jpg","null","",NA,NA,NA,NA,""
"image-keyboard-response",265,284524,"0.0-3.84-2.84","mdkeuxj8pu48f5m",703,"81.csv","","null","resources/images/coin2.png","null","",NA,NA,NA,NA,""
"image-keyboard-response",266,285246,"0.0-3.85-0.85","mdkeuxj8pu48f5m",703,"81.csv","","722.0999999046326","resources/trios/L1T4A2.jpg","38","restless",0.7,0.5,0.5,0.202144414443336,"true"
"image-keyboard-response",267,285658,"0.0-3.85-1.85","mdkeuxj8pu48f5m",703,"81.csv","","null","resources/maskTrios/BT4B.jpg","null","",NA,NA,NA,NA,""
"image-keyboard-response",268,286866,"0.0-3.85-2.85","mdkeuxj8pu48f5m",703,"81.csv","","null","resources/images/coin2.png","null","",NA,NA,NA,NA,""
"image-keyboard-response",269,287332,"0.0-3.86-0.86","mdkeuxj8pu48f5m",703,"81.csv","","465.39999985694885","resources/trios/L1T4A1.jpg","38","restless",0.7,0.5,0.5,0.697567667732126,"false"
"image-keyboard-response",270,287739,"0.0-3.86-1.86","mdkeuxj8pu48f5m",703,"81.csv","","null","resources/maskTrios/BT4B.jpg","null","",NA,NA,NA,NA,""
"image-keyboard-response",271,288950,"0.0-3.86-2.86","mdkeuxj8pu48f5m",703,"81.csv","","null","resources/images/fishbone.png","null","",NA,NA,NA,NA,""
"image-keyboard-response",272,289760,"0.0-3.87-0.87","mdkeuxj8pu48f5m",703,"81.csv","","809","resources/trios/L1T1A2.jpg","37","restless",0.7,0.5,0.5,0.0142254740441436,"true"
"image-keyboard-response",273,290169,"0.0-3.87-1.87","mdkeuxj8pu48f5m",703,"81.csv","","null","resources/maskTrios/L1BB.jpg","null","",NA,NA,NA,NA,""
"image-keyboard-response",274,291383,"0.0-3.87-2.87","mdkeuxj8pu48f5m",703,"81.csv","","null","resources/images/coin2.png","null","",NA,NA,NA,NA,""
"image-keyboard-response",275,292233,"0.0-3.88-0.88","mdkeuxj8pu48f5m",703,"81.csv","","850","resources/trios/L2T4A2.jpg","37","restless",0.7,0.5,0.5,0.67559900191484,"true"
"image-keyboard-response",276,292640,"0.0-3.88-1.88","mdkeuxj8pu48f5m",703,"81.csv","","null","resources/maskTrios/L2BB.jpg","null","",NA,NA,NA,NA,""
"image-keyboard-response",277,293855,"0.0-3.88-2.88","mdkeuxj8pu48f5m",703,"81.csv","","null","resources/images/coin2.png","null","",NA,NA,NA,NA,""
"image-keyboard-response",278,294507,"0.0-3.89-0.89","mdkeuxj8pu48f5m",703,"81.csv","","651.2000000476837","resources/trios/L2T4A2.jpg","37","restless",0.8,0.5,0.5,0.610059814784777,"true"
"image-keyboard-response",279,294912,"0.0-3.89-1.89","mdkeuxj8pu48f5m",703,"81.csv","","null","resources/maskTrios/L2BB.jpg","null","",NA,NA,NA,NA,""
"image-keyboard-response",280,296123,"0.0-3.89-2.89","mdkeuxj8pu48f5m",703,"81.csv","","null","resources/images/coin2.png","null","",NA,NA,NA,NA,""
"image-keyboard-response",281,297708,"0.0-3.90-0.90","mdkeuxj8pu48f5m",703,"81.csv","","1584.9000000953674","resources/trios/L1T4A2.jpg","38","restless",0.8,0.5,0.5,0.345458492190981,"true"
"image-keyboard-response",282,298116,"0.0-3.90-1.90","mdkeuxj8pu48f5m",703,"81.csv","","null","resources/maskTrios/BT4B.jpg","null","",NA,NA,NA,NA,""
"image-keyboard-response",283,299328,"0.0-3.90-2.90","mdkeuxj8pu48f5m",703,"81.csv","","null","resources/images/coin2.png","null","",NA,NA,NA,NA,""
"image-keyboard-response",284,299949,"0.0-3.91-0.91","mdkeuxj8pu48f5m",703,"81.csv","","620","resources/trios/L1T4A1.jpg","38","restless",0.7,0.5,0.5,0.953385069253893,"false"
"image-keyboard-response",285,300356,"0.0-3.91-1.91","mdkeuxj8pu48f5m",703,"81.csv","","null","resources/maskTrios/BT4B.jpg","null","",NA,NA,NA,NA,""
"image-keyboard-response",286,301571,"0.0-3.91-2.91","mdkeuxj8pu48f5m",703,"81.csv","","null","resources/images/fishbone.png","null","",NA,NA,NA,NA,""
"image-keyboard-response",287,302955,"0.0-3.92-0.92","mdkeuxj8pu48f5m",703,"81.csv","","1383.0999999046326","resources/trios/L2T1A2.jpg","39","restless",0.7,0.4,0.5,0.865191930246433,"false"
"image-keyboard-response",288,303360,"0.0-3.92-1.92","mdkeuxj8pu48f5m",703,"81.csv","","null","resources/maskTrios/BBA2.jpg","null","",NA,NA,NA,NA,""
"image-keyboard-response",289,304575,"0.0-3.92-2.92","mdkeuxj8pu48f5m",703,"81.csv","","null","resources/images/fishbone.png","null","",NA,NA,NA,NA,""
"image-keyboard-response",290,304975,"0.0-3.93-0.93","mdkeuxj8pu48f5m",703,"81.csv","","400","resources/trios/L2T4A1.jpg","37","restless",0.7,0.4,0.5,0.537147996929792,"true"
"image-keyboard-response",291,305384,"0.0-3.93-1.93","mdkeuxj8pu48f5m",703,"81.csv","","null","resources/maskTrios/L2BB.jpg","null","",NA,NA,NA,NA,""
"image-keyboard-response",292,306590,"0.0-3.93-2.93","mdkeuxj8pu48f5m",703,"81.csv","","null","resources/images/coin2.png","null","",NA,NA,NA,NA,""
"image-keyboard-response",293,307373,"0.0-3.94-0.94","mdkeuxj8pu48f5m",703,"81.csv","","782.4000000953674","resources/trios/L1T4A2.jpg","39","restless",0.7,0.4,0.4,0.431245200278672,"false"
"image-keyboard-response",294,307784,"0.0-3.94-1.94","mdkeuxj8pu48f5m",703,"81.csv","","null","resources/maskTrios/BBA2.jpg","null","",NA,NA,NA,NA,""
"image-keyboard-response",295,308997,"0.0-3.94-2.94","mdkeuxj8pu48f5m",703,"81.csv","","null","resources/images/fishbone.png","null","",NA,NA,NA,NA,""
"image-keyboard-response",296,309684,"0.0-3.95-0.95","mdkeuxj8pu48f5m",703,"81.csv","","686.0999999046326","resources/trios/L2T1A1.jpg","37","restless",0.7,0.4,0.4,0.7311036808994,"false"
"image-keyboard-response",297,310092,"0.0-3.95-1.95","mdkeuxj8pu48f5m",703,"81.csv","","null","resources/maskTrios/L2BB.jpg","null","",NA,NA,NA,NA,""
"image-keyboard-response",298,311307,"0.0-3.95-2.95","mdkeuxj8pu48f5m",703,"81.csv","","null","resources/images/fishbone.png","null","",NA,NA,NA,NA,""
"image-keyboard-response",299,312282,"0.0-3.96-0.96","mdkeuxj8pu48f5m",703,"81.csv","","975.0999999046326","resources/trios/L1T4A2.jpg","37","restless",0.7,0.4,0.4,0.616690903110405,"true"
"image-keyboard-response",300,312694,"0.0-3.96-1.96","mdkeuxj8pu48f5m",703,"81.csv","","null","resources/maskTrios/L1BB.jpg","null","",NA,NA,NA,NA,""
"image-keyboard-response",301,313909,"0.0-3.96-2.96","mdkeuxj8pu48f5m",703,"81.csv","","null","resources/images/coin2.png","null","",NA,NA,NA,NA,""
"image-keyboard-response",302,315056,"0.0-3.97-0.97","mdkeuxj8pu48f5m",703,"81.csv","","1146.1000001430511","resources/trios/L2T4A1.jpg","37","restless",0.7,0.4,0.4,0.979939444500903,"false"
"image-keyboard-response",303,315463,"0.0-3.97-1.97","mdkeuxj8pu48f5m",703,"81.csv","","null","resources/maskTrios/L2BB.jpg","null","",NA,NA,NA,NA,""
"image-keyboard-response",304,316676,"0.0-3.97-2.97","mdkeuxj8pu48f5m",703,"81.csv","","null","resources/images/fishbone.png","null","",NA,NA,NA,NA,""
"image-keyboard-response",305,317561,"0.0-3.98-0.98","mdkeuxj8pu48f5m",703,"81.csv","","884.7999999523163","resources/trios/L1T1A1.jpg","37","restless",0.7,0.4,0.4,0.0459768314004656,"true"
"image-keyboard-response",306,317970,"0.0-3.98-1.98","mdkeuxj8pu48f5m",703,"81.csv","","null","resources/maskTrios/L1BB.jpg","null","",NA,NA,NA,NA,""
"image-keyboard-response",307,319180,"0.0-3.98-2.98","mdkeuxj8pu48f5m",703,"81.csv","","null","resources/images/coin2.png","null","",NA,NA,NA,NA,""
"image-keyboard-response",308,320231,"0.0-3.99-0.99","mdkeuxj8pu48f5m",703,"81.csv","","1050.9000000953674","resources/trios/L1T4A1.jpg","37","restless",0.7,0.4,0.4,0.792460553783353,"false"
"image-keyboard-response",309,320638,"0.0-3.99-1.99","mdkeuxj8pu48f5m",703,"81.csv","","null","resources/maskTrios/L1BB.jpg","null","",NA,NA,NA,NA,""
"image-keyboard-response",310,321853,"0.0-3.99-2.99","mdkeuxj8pu48f5m",703,"81.csv","","null","resources/images/fishbone.png","null","",NA,NA,NA,NA,""
"image-keyboard-response",311,323115,"0.0-3.100-0.100","mdkeuxj8pu48f5m",703,"81.csv","","1262.1999998092651","resources/trios/L1T1A1.jpg","38","restless",0.7,0.4,0.4,0.395084362539875,"true"
"image-keyboard-response",312,323517,"0.0-3.100-1.100","mdkeuxj8pu48f5m",703,"81.csv","","null","resources/maskTrios/BT1B.jpg","null","",NA,NA,NA,NA,""
"image-keyboard-response",313,324729,"0.0-3.100-2.100","mdkeuxj8pu48f5m",703,"81.csv","","null","resources/images/coin2.png","null","",NA,NA,NA,NA,""
"image-keyboard-response",314,326136,"0.0-3.101-0.101","mdkeuxj8pu48f5m",703,"81.csv","","1405.7000000476837","resources/trios/L2T1A2.jpg","38","restless",0.7,0.4,0.4,0.187928625728903,"true"
"image-keyboard-response",315,326549,"0.0-3.101-1.101","mdkeuxj8pu48f5m",703,"81.csv","","null","resources/maskTrios/BT1B.jpg","null","",NA,NA,NA,NA,""
"image-keyboard-response",316,327765,"0.0-3.101-2.101","mdkeuxj8pu48f5m",703,"81.csv","","null","resources/images/coin2.png","null","",NA,NA,NA,NA,""
"image-keyboard-response",317,328297,"0.0-3.102-0.102","mdkeuxj8pu48f5m",703,"81.csv","","532.0999999046326","resources/trios/L2T1A1.jpg","38","restless",0.7,0.4,0.4,0.498324114405009,"false"
"image-keyboard-response",318,328700,"0.0-3.102-1.102","mdkeuxj8pu48f5m",703,"81.csv","","null","resources/maskTrios/BT1B.jpg","null","",NA,NA,NA,NA,""
"image-keyboard-response",319,329913,"0.0-3.102-2.102","mdkeuxj8pu48f5m",703,"81.csv","","null","resources/images/fishbone.png","null","",NA,NA,NA,NA,""
"image-keyboard-response",320,330792,"0.0-3.103-0.103","mdkeuxj8pu48f5m",703,"81.csv","","878.5","resources/trios/L2T4A1.jpg","38","restless",0.6,0.4,0.4,0.107922530350676,"true"
"image-keyboard-response",321,331206,"0.0-3.103-1.103","mdkeuxj8pu48f5m",703,"81.csv","","null","resources/maskTrios/BT4B.jpg","null","",NA,NA,NA,NA,""
"image-keyboard-response",322,332421,"0.0-3.103-2.103","mdkeuxj8pu48f5m",703,"81.csv","","null","resources/images/coin2.png","null","",NA,NA,NA,NA,""
"image-keyboard-response",323,332999,"0.0-3.104-0.104","mdkeuxj8pu48f5m",703,"81.csv","","577.9000000953674","resources/trios/L1T1A2.jpg","39","restless",0.6,0.4,0.5,0.90427490297045,"false"
"image-keyboard-response",324,333404,"0.0-3.104-1.104","mdkeuxj8pu48f5m",703,"81.csv","","null","resources/maskTrios/BBA2.jpg","null","",NA,NA,NA,NA,""
"image-keyboard-response",325,334610,"0.0-3.104-2.104","mdkeuxj8pu48f5m",703,"81.csv","","null","resources/images/fishbone.png","null","",NA,NA,NA,NA,""
"image-keyboard-response",326,335221,"0.0-3.105-0.105","mdkeuxj8pu48f5m",703,"81.csv","","610.5","resources/trios/L1T1A1.jpg","38","restless",0.6,0.4,0.5,0.593872914288801,"false"
"image-keyboard-response",327,335623,"0.0-3.105-1.105","mdkeuxj8pu48f5m",703,"81.csv","","null","resources/maskTrios/BT1B.jpg","null","",NA,NA,NA,NA,""
"image-keyboard-response",328,336839,"0.0-3.105-2.105","mdkeuxj8pu48f5m",703,"81.csv","","null","resources/images/fishbone.png","null","",NA,NA,NA,NA,""
"image-keyboard-response",329,337566,"0.0-3.106-0.106","mdkeuxj8pu48f5m",703,"81.csv","","726.5","resources/trios/L2T1A2.jpg","37","restless",0.5,0.4,0.6,0.765415379512994,"false"
"image-keyboard-response",330,337981,"0.0-3.106-1.106","mdkeuxj8pu48f5m",703,"81.csv","","null","resources/maskTrios/L2BB.jpg","null","",NA,NA,NA,NA,""
"image-keyboard-response",331,339196,"0.0-3.106-2.106","mdkeuxj8pu48f5m",703,"81.csv","","null","resources/images/fishbone.png","null","",NA,NA,NA,NA,""
"image-keyboard-response",332,339592,"0.0-3.107-0.107","mdkeuxj8pu48f5m",703,"81.csv","","396","resources/trios/L2T4A1.jpg","38","restless",0.5,0.4,0.6,0.829887947955427,"false"
"image-keyboard-response",333,340001,"0.0-3.107-1.107","mdkeuxj8pu48f5m",703,"81.csv","","null","resources/maskTrios/BT4B.jpg","null","",NA,NA,NA,NA,""
"image-keyboard-response",334,341211,"0.0-3.107-2.107","mdkeuxj8pu48f5m",703,"81.csv","","null","resources/images/fishbone.png","null","",NA,NA,NA,NA,""
"image-keyboard-response",335,341592,"0.0-3.108-0.108","mdkeuxj8pu48f5m",703,"81.csv","","381.09999990463257","resources/trios/L1T1A1.jpg","37","restless",0.5,0.3,0.6,0.515191222138017,"false"
"image-keyboard-response",336,342003,"0.0-3.108-1.108","mdkeuxj8pu48f5m",703,"81.csv","","null","resources/maskTrios/L1BB.jpg","null","",NA,NA,NA,NA,""
"image-keyboard-response",337,343204,"0.0-3.108-2.108","mdkeuxj8pu48f5m",703,"81.csv","","null","resources/images/fishbone.png","null","",NA,NA,NA,NA,""
"image-keyboard-response",338,343593,"0.0-3.109-0.109","mdkeuxj8pu48f5m",703,"81.csv","","388.7999999523163","resources/trios/L1T1A1.jpg","39","restless",0.5,0.3,0.6,0.444282716385109,"true"
"image-keyboard-response",339,343997,"0.0-3.109-1.109","mdkeuxj8pu48f5m",703,"81.csv","","null","resources/maskTrios/BBA1.jpg","null","",NA,NA,NA,NA,""
"image-keyboard-response",340,345207,"0.0-3.109-2.109","mdkeuxj8pu48f5m",703,"81.csv","","null","resources/images/coin2.png","null","",NA,NA,NA,NA,""
"image-keyboard-response",341,345509,"0.0-3.110-0.110","mdkeuxj8pu48f5m",703,"81.csv","","301.40000009536743","resources/trios/L1T1A1.jpg","39","restless",0.5,0.3,0.6,0.172326948539831,"true"
"image-keyboard-response",342,345925,"0.0-3.110-1.110","mdkeuxj8pu48f5m",703,"81.csv","","null","resources/maskTrios/BBA1.jpg","null","",NA,NA,NA,NA,""
"image-keyboard-response",343,347140,"0.0-3.110-2.110","mdkeuxj8pu48f5m",703,"81.csv","","null","resources/images/coin2.png","null","",NA,NA,NA,NA,""
"image-keyboard-response",344,347392,"0.0-3.111-0.111","mdkeuxj8pu48f5m",703,"81.csv","","251.29999995231628","resources/trios/L1T1A1.jpg","39","restless",0.5,0.3,0.6,0.961771693767992,"false"
"image-keyboard-response",345,347808,"0.0-3.111-1.111","mdkeuxj8pu48f5m",703,"81.csv","","null","resources/maskTrios/BBA1.jpg","null","",NA,NA,NA,NA,""
"image-keyboard-response",346,349022,"0.0-3.111-2.111","mdkeuxj8pu48f5m",703,"81.csv","","null","resources/images/fishbone.png","null","",NA,NA,NA,NA,""
"image-keyboard-response",347,349724,"0.0-3.112-0.112","mdkeuxj8pu48f5m",703,"81.csv","","701.3999998569489","resources/trios/L2T4A2.jpg","37","restless",0.5,0.3,0.6,0.998147435317964,"false"
"image-keyboard-response",348,350129,"0.0-3.112-1.112","mdkeuxj8pu48f5m",703,"81.csv","","null","resources/maskTrios/L2BB.jpg","null","",NA,NA,NA,NA,""
"image-keyboard-response",349,351341,"0.0-3.112-2.112","mdkeuxj8pu48f5m",703,"81.csv","","null","resources/images/fishbone.png","null","",NA,NA,NA,NA,""
"image-keyboard-response",350,351711,"0.0-3.113-0.113","mdkeuxj8pu48f5m",703,"81.csv","","369.2999999523163","resources/trios/L2T4A2.jpg","39","restless",0.5,0.3,0.6,0.378065123565874,"true"
"image-keyboard-response",351,352121,"0.0-3.113-1.113","mdkeuxj8pu48f5m",703,"81.csv","","null","resources/maskTrios/BBA2.jpg","null","",NA,NA,NA,NA,""
"image-keyboard-response",352,353336,"0.0-3.113-2.113","mdkeuxj8pu48f5m",703,"81.csv","","null","resources/images/coin2.png","null","",NA,NA,NA,NA,""
"image-keyboard-response",353,354127,"0.0-3.114-0.114","mdkeuxj8pu48f5m",703,"81.csv","","791.2999999523163","resources/trios/L2T4A1.jpg","38","restless",0.5,0.3,0.6,0.0328535738591382,"true"
"image-keyboard-response",354,354537,"0.0-3.114-1.114","mdkeuxj8pu48f5m",703,"81.csv","","null","resources/maskTrios/BT4B.jpg","null","",NA,NA,NA,NA,""
"image-keyboard-response",355,355738,"0.0-3.114-2.114","mdkeuxj8pu48f5m",703,"81.csv","","null","resources/images/coin2.png","null","",NA,NA,NA,NA,""
"image-keyboard-response",356,356147,"0.0-3.115-0.115","mdkeuxj8pu48f5m",703,"81.csv","","408.7000000476837","resources/trios/L2T1A1.jpg","39","restless",0.5,0.4,0.6,0.687245529313901,"false"
"image-keyboard-response",357,356564,"0.0-3.115-1.115","mdkeuxj8pu48f5m",703,"81.csv","","null","resources/maskTrios/BBA1.jpg","null","",NA,NA,NA,NA,""
"image-keyboard-response",358,357765,"0.0-3.115-2.115","mdkeuxj8pu48f5m",703,"81.csv","","null","resources/images/fishbone.png","null","",NA,NA,NA,NA,""
"image-keyboard-response",359,358504,"0.0-3.116-0.116","mdkeuxj8pu48f5m",703,"81.csv","","738.7999999523163","resources/trios/L2T4A1.jpg","38","restless",0.5,0.5,0.6,0.706225030393512,"false"
"image-keyboard-response",360,358907,"0.0-3.116-1.116","mdkeuxj8pu48f5m",703,"81.csv","","null","resources/maskTrios/BT4B.jpg","null","",NA,NA,NA,NA,""
"image-keyboard-response",361,360119,"0.0-3.116-2.116","mdkeuxj8pu48f5m",703,"81.csv","","null","resources/images/fishbone.png","null","",NA,NA,NA,NA,""
"image-keyboard-response",362,360985,"0.0-3.117-0.117","mdkeuxj8pu48f5m",703,"81.csv","","865.4000000953674","resources/trios/L2T4A1.jpg","37","restless",0.5,0.5,0.6,0.72983619376374,"false"
"image-keyboard-response",363,361390,"0.0-3.117-1.117","mdkeuxj8pu48f5m",703,"81.csv","","null","resources/maskTrios/L2BB.jpg","null","",NA,NA,NA,NA,""
"image-keyboard-response",364,362591,"0.0-3.117-2.117","mdkeuxj8pu48f5m",703,"81.csv","","null","resources/images/fishbone.png","null","",NA,NA,NA,NA,""
"image-keyboard-response",365,363051,"0.0-3.118-0.118","mdkeuxj8pu48f5m",703,"81.csv","","459.60000014305115","resources/trios/L1T4A1.jpg","39","restless",0.5,0.5,0.6,0.396935336403658,"true"
"image-keyboard-response",366,363460,"0.0-3.118-1.118","mdkeuxj8pu48f5m",703,"81.csv","","null","resources/maskTrios/BBA1.jpg","null","",NA,NA,NA,NA,""
"image-keyboard-response",367,364672,"0.0-3.118-2.118","mdkeuxj8pu48f5m",703,"81.csv","","null","resources/images/coin2.png","null","",NA,NA,NA,NA,""
"image-keyboard-response",368,365051,"0.0-3.119-0.119","mdkeuxj8pu48f5m",703,"81.csv","","379.2000000476837","resources/trios/L2T4A2.jpg","39","restless",0.4,0.6,0.6,0.33829173312953,"true"
"image-keyboard-response",369,365467,"0.0-3.119-1.119","mdkeuxj8pu48f5m",703,"81.csv","","null","resources/maskTrios/BBA2.jpg","null","",NA,NA,NA,NA,""
"image-keyboard-response",370,366677,"0.0-3.119-2.119","mdkeuxj8pu48f5m",703,"81.csv","","null","resources/images/coin2.png","null","",NA,NA,NA,NA,""
"image-keyboard-response",371,367636,"0.0-3.120-0.120","mdkeuxj8pu48f5m",703,"81.csv","","959","resources/trios/L2T4A1.jpg","39","restless",0.4,0.6,0.6,0.379707160150393,"true"
"image-keyboard-response",372,368049,"0.0-3.120-1.120","mdkeuxj8pu48f5m",703,"81.csv","","null","resources/maskTrios/BBA1.jpg","null","",NA,NA,NA,NA,""
"image-keyboard-response",373,369250,"0.0-3.120-2.120","mdkeuxj8pu48f5m",703,"81.csv","","null","resources/images/coin2.png","null","",NA,NA,NA,NA,""
"image-keyboard-response",374,369637,"0.0-3.121-0.121","mdkeuxj8pu48f5m",703,"81.csv","","386.09999990463257","resources/trios/L1T4A1.jpg","39","restless",0.4,0.6,0.6,0.682285297199129,"false"
"image-keyboard-response",375,370045,"0.0-3.121-1.121","mdkeuxj8pu48f5m",703,"81.csv","","null","resources/maskTrios/BBA1.jpg","null","",NA,NA,NA,NA,""
"image-keyboard-response",376,371259,"0.0-3.121-2.121","mdkeuxj8pu48f5m",703,"81.csv","","null","resources/images/fishbone.png","null","",NA,NA,NA,NA,""
"image-keyboard-response",377,371859,"0.0-3.122-0.122","mdkeuxj8pu48f5m",703,"81.csv","","598.7999999523163","resources/trios/L2T1A2.jpg","39","restless",0.4,0.6,0.6,0.547316071174636,"true"
"image-keyboard-response",378,372268,"0.0-3.122-1.122","mdkeuxj8pu48f5m",703,"81.csv","","null","resources/maskTrios/BBA2.jpg","null","",NA,NA,NA,NA,""
"image-keyboard-response",379,373480,"0.0-3.122-2.122","mdkeuxj8pu48f5m",703,"81.csv","","null","resources/images/coin2.png","null","",NA,NA,NA,NA,""
"image-keyboard-response",380,374300,"0.0-3.123-0.123","mdkeuxj8pu48f5m",703,"81.csv","","819.4000000953674","resources/trios/L1T1A1.jpg","37","restless",0.4,0.6,0.6,0.688347372669173,"false"
"image-keyboard-response",381,374708,"0.0-3.123-1.123","mdkeuxj8pu48f5m",703,"81.csv","","null","resources/maskTrios/L1BB.jpg","null","",NA,NA,NA,NA,""
"image-keyboard-response",382,375923,"0.0-3.123-2.123","mdkeuxj8pu48f5m",703,"81.csv","","null","resources/images/fishbone.png","null","",NA,NA,NA,NA,""
"image-keyboard-response",383,376372,"0.0-3.124-0.124","mdkeuxj8pu48f5m",703,"81.csv","","449.09999990463257","resources/trios/L1T1A2.jpg","39","restless",0.4,0.6,0.6,0.0675710308583248,"true"
"image-keyboard-response",384,376777,"0.0-3.124-1.124","mdkeuxj8pu48f5m",703,"81.csv","","null","resources/maskTrios/BBA2.jpg","null","",NA,NA,NA,NA,""
"image-keyboard-response",385,377993,"0.0-3.124-2.124","mdkeuxj8pu48f5m",703,"81.csv","","null","resources/images/coin2.png","null","",NA,NA,NA,NA,""
"image-keyboard-response",386,378633,"0.0-3.125-0.125","mdkeuxj8pu48f5m",703,"81.csv","","639.4000000953674","resources/trios/L2T1A2.jpg","39","restless",0.4,0.6,0.6,0.915838505348721,"false"
"image-keyboard-response",387,379049,"0.0-3.125-1.125","mdkeuxj8pu48f5m",703,"81.csv","","null","resources/maskTrios/BBA2.jpg","null","",NA,NA,NA,NA,""
"image-keyboard-response",388,380265,"0.0-3.125-2.125","mdkeuxj8pu48f5m",703,"81.csv","","null","resources/images/fishbone.png","null","",NA,NA,NA,NA,""
"image-keyboard-response",389,381523,"0.0-3.126-0.126","mdkeuxj8pu48f5m",703,"81.csv","","1258","resources/trios/L2T1A1.jpg","38","restless",0.4,0.6,0.6,0.4122602326145,"true"
"image-keyboard-response",390,381932,"0.0-3.126-1.126","mdkeuxj8pu48f5m",703,"81.csv","","null","resources/maskTrios/BT1B.jpg","null","",NA,NA,NA,NA,""
"image-keyboard-response",391,383145,"0.0-3.126-2.126","mdkeuxj8pu48f5m",703,"81.csv","","null","resources/images/coin2.png","null","",NA,NA,NA,NA,""
"image-keyboard-response",392,384518,"0.0-3.127-0.127","mdkeuxj8pu48f5m",703,"81.csv","","1372.2999999523163","resources/trios/L2T1A2.jpg","38","restless",0.4,0.6,0.6,0.963173424447717,"false"
"image-keyboard-response",393,384932,"0.0-3.127-1.127","mdkeuxj8pu48f5m",703,"81.csv","","null","resources/maskTrios/BT1B.jpg","null","",NA,NA,NA,NA,""
"image-keyboard-response",394,386147,"0.0-3.127-2.127","mdkeuxj8pu48f5m",703,"81.csv","","null","resources/images/fishbone.png","null","",NA,NA,NA,NA,""
"image-keyboard-response",395,386862,"0.0-3.128-0.128","mdkeuxj8pu48f5m",703,"81.csv","","714.8999998569489","resources/trios/L1T4A2.jpg","39","restless",0.4,0.6,0.7,0.970670111620996,"false"
"image-keyboard-response",396,387278,"0.0-3.128-1.128","mdkeuxj8pu48f5m",703,"81.csv","","null","resources/maskTrios/BBA2.jpg","null","",NA,NA,NA,NA,""
"image-keyboard-response",397,388488,"0.0-3.128-2.128","mdkeuxj8pu48f5m",703,"81.csv","","null","resources/images/fishbone.png","null","",NA,NA,NA,NA,""
"image-keyboard-response",398,388967,"0.0-3.129-0.129","mdkeuxj8pu48f5m",703,"81.csv","","478.40000009536743","resources/trios/L2T1A1.jpg","38","restless",0.4,0.6,0.6,0.322382251908898,"true"
"image-keyboard-response",399,389376,"0.0-3.129-1.129","mdkeuxj8pu48f5m",703,"81.csv","","null","resources/maskTrios/BT1B.jpg","null","",NA,NA,NA,NA,""
"image-keyboard-response",400,390589,"0.0-3.129-2.129","mdkeuxj8pu48f5m",703,"81.csv","","null","resources/images/coin2.png","null","",NA,NA,NA,NA,""
"image-keyboard-response",401,391279,"0.0-3.130-0.130","mdkeuxj8pu48f5m",703,"81.csv","","690.0999999046326","resources/trios/L2T4A2.jpg","38","restless",0.4,0.6,0.6,0.233812689110491,"true"
"image-keyboard-response",402,391692,"0.0-3.130-1.130","mdkeuxj8pu48f5m",703,"81.csv","","null","resources/maskTrios/BT4B.jpg","null","",NA,NA,NA,NA,""
"image-keyboard-response",403,392902,"0.0-3.130-2.130","mdkeuxj8pu48f5m",703,"81.csv","","null","resources/images/coin2.png","null","",NA,NA,NA,NA,""
"image-keyboard-response",404,393422,"0.0-3.131-0.131","mdkeuxj8pu48f5m",703,"81.csv","","519.3999998569489","resources/trios/L2T4A2.jpg","38","restless",0.4,0.7,0.6,0.724387421560155,"false"
"image-keyboard-response",405,393834,"0.0-3.131-1.131","mdkeuxj8pu48f5m",703,"81.csv","","null","resources/maskTrios/BT4B.jpg","null","",NA,NA,NA,NA,""
"image-keyboard-response",406,395038,"0.0-3.131-2.131","mdkeuxj8pu48f5m",703,"81.csv","","null","resources/images/fishbone.png","null","",NA,NA,NA,NA,""
"image-keyboard-response",407,395638,"0.0-3.132-0.132","mdkeuxj8pu48f5m",703,"81.csv","","598.7000000476837","resources/trios/L2T1A1.jpg","38","restless",0.4,0.7,0.6,0.343843110145668,"true"
"image-keyboard-response",408,396043,"0.0-3.132-1.132","mdkeuxj8pu48f5m",703,"81.csv","","null","resources/maskTrios/BT1B.jpg","null","",NA,NA,NA,NA,""
"image-keyboard-response",409,397251,"0.0-3.132-2.132","mdkeuxj8pu48f5m",703,"81.csv","","null","resources/images/coin2.png","null","",NA,NA,NA,NA,""
"image-keyboard-response",410,398164,"0.0-3.133-0.133","mdkeuxj8pu48f5m",703,"81.csv","","911.9000000953674","resources/trios/L1T4A2.jpg","39","restless",0.4,0.7,0.6,0.935872400236262,"false"
"image-keyboard-response",411,398574,"0.0-3.133-1.133","mdkeuxj8pu48f5m",703,"81.csv","","null","resources/maskTrios/BBA2.jpg","null","",NA,NA,NA,NA,""
"image-keyboard-response",412,399784,"0.0-3.133-2.133","mdkeuxj8pu48f5m",703,"81.csv","","null","resources/images/fishbone.png","null","",NA,NA,NA,NA,""
"image-keyboard-response",413,400541,"0.0-3.134-0.134","mdkeuxj8pu48f5m",703,"81.csv","","756.8999998569489","resources/trios/L1T4A1.jpg","37","restless",0.4,0.7,0.6,0.698797511025641,"false"
"image-keyboard-response",414,400951,"0.0-3.134-1.134","mdkeuxj8pu48f5m",703,"81.csv","","null","resources/maskTrios/L1BB.jpg","null","",NA,NA,NA,NA,""
"image-keyboard-response",415,402161,"0.0-3.134-2.134","mdkeuxj8pu48f5m",703,"81.csv","","null","resources/images/fishbone.png","null","",NA,NA,NA,NA,""
"image-keyboard-response",416,402573,"0.0-3.135-0.135","mdkeuxj8pu48f5m",703,"81.csv","","412.09999990463257","resources/trios/L1T1A1.jpg","38","restless",0.4,0.7,0.6,0.478679381585247,"true"
"image-keyboard-response",417,402988,"0.0-3.135-1.135","mdkeuxj8pu48f5m",703,"81.csv","","null","resources/maskTrios/BT1B.jpg","null","",NA,NA,NA,NA,""
"image-keyboard-response",418,404204,"0.0-3.135-2.135","mdkeuxj8pu48f5m",703,"81.csv","","null","resources/images/coin2.png","null","",NA,NA,NA,NA,""
"image-keyboard-response",419,404588,"0.0-3.136-0.136","mdkeuxj8pu48f5m",703,"81.csv","","383.5","resources/trios/L1T1A1.jpg","38","restless",0.4,0.7,0.6,0.849065407729746,"false"
"image-keyboard-response",420,405002,"0.0-3.136-1.136","mdkeuxj8pu48f5m",703,"81.csv","","null","resources/maskTrios/BT1B.jpg","null","",NA,NA,NA,NA,""
"image-keyboard-response",421,406213,"0.0-3.136-2.136","mdkeuxj8pu48f5m",703,"81.csv","","null","resources/images/fishbone.png","null","",NA,NA,NA,NA,""
"image-keyboard-response",422,406848,"0.0-3.137-0.137","mdkeuxj8pu48f5m",703,"81.csv","","634.2000000476837","resources/trios/L1T4A1.jpg","37","restless",0.4,0.7,0.6,0.0510761671181186,"true"
"image-keyboard-response",423,407252,"0.0-3.137-1.137","mdkeuxj8pu48f5m",703,"81.csv","","null","resources/maskTrios/L1BB.jpg","null","",NA,NA,NA,NA,""
"image-keyboard-response",424,408464,"0.0-3.137-2.137","mdkeuxj8pu48f5m",703,"81.csv","","null","resources/images/coin2.png","null","",NA,NA,NA,NA,""
"image-keyboard-response",425,409081,"0.0-3.138-0.138","mdkeuxj8pu48f5m",703,"81.csv","","616.5","resources/trios/L1T1A2.jpg","37","restless",0.4,0.8,0.6,0.0630556663898125,"true"
"image-keyboard-response",426,409493,"0.0-3.138-1.138","mdkeuxj8pu48f5m",703,"81.csv","","null","resources/maskTrios/L1BB.jpg","null","",NA,NA,NA,NA,""
"image-keyboard-response",427,410709,"0.0-3.138-2.138","mdkeuxj8pu48f5m",703,"81.csv","","null","resources/images/coin2.png","null","",NA,NA,NA,NA,""
"image-keyboard-response",428,411283,"0.0-3.139-0.139","mdkeuxj8pu48f5m",703,"81.csv","","574","resources/trios/L1T1A1.jpg","37","restless",0.4,0.8,0.5,0.202775989531556,"true"
"image-keyboard-response",429,411691,"0.0-3.139-1.139","mdkeuxj8pu48f5m",703,"81.csv","","null","resources/maskTrios/L1BB.jpg","null","",NA,NA,NA,NA,""
"image-keyboard-response",430,412906,"0.0-3.139-2.139","mdkeuxj8pu48f5m",703,"81.csv","","null","resources/images/coin2.png","null","",NA,NA,NA,NA,""
"image-keyboard-response",431,413348,"0.0-3.140-0.140","mdkeuxj8pu48f5m",703,"81.csv","","442","resources/trios/L1T1A2.jpg","37","restless",0.4,0.8,0.5,0.457378034010448,"false"
"image-keyboard-response",432,413759,"0.0-3.140-1.140","mdkeuxj8pu48f5m",703,"81.csv","","null","resources/maskTrios/L1BB.jpg","null","",NA,NA,NA,NA,""
"image-keyboard-response",433,414974,"0.0-3.140-2.140","mdkeuxj8pu48f5m",703,"81.csv","","null","resources/images/fishbone.png","null","",NA,NA,NA,NA,""
"image-keyboard-response",434,415679,"0.0-3.141-0.141","mdkeuxj8pu48f5m",703,"81.csv","","704.7999999523163","resources/trios/L1T1A2.jpg","38","restless",0.4,0.8,0.5,0.570360026579109,"true"
"image-keyboard-response",435,416082,"0.0-3.141-1.141","mdkeuxj8pu48f5m",703,"81.csv","","null","resources/maskTrios/BT1B.jpg","null","",NA,NA,NA,NA,""
"image-keyboard-response",436,417291,"0.0-3.141-2.141","mdkeuxj8pu48f5m",703,"81.csv","","null","resources/images/coin2.png","null","",NA,NA,NA,NA,""
"image-keyboard-response",437,417687,"0.0-3.142-0.142","mdkeuxj8pu48f5m",703,"81.csv","","395.2000000476837","resources/trios/L1T1A2.jpg","38","restless",0.4,0.8,0.5,0.222666023206548,"true"
"image-keyboard-response",438,418097,"0.0-3.142-1.142","mdkeuxj8pu48f5m",703,"81.csv","","null","resources/maskTrios/BT1B.jpg","null","",NA,NA,NA,NA,""
"image-keyboard-response",439,419307,"0.0-3.142-2.142","mdkeuxj8pu48f5m",703,"81.csv","","null","resources/images/coin2.png","null","",NA,NA,NA,NA,""
"image-keyboard-response",440,421025,"0.0-3.143-0.143","mdkeuxj8pu48f5m",703,"81.csv","","1717.7000000476837","resources/trios/L2T4A2.jpg","37","restless",0.4,0.8,0.5,0.306492795252821,"true"
"image-keyboard-response",441,421439,"0.0-3.143-1.143","mdkeuxj8pu48f5m",703,"81.csv","","null","resources/maskTrios/L2BB.jpg","null","",NA,NA,NA,NA,""
"image-keyboard-response",442,422648,"0.0-3.143-2.143","mdkeuxj8pu48f5m",703,"81.csv","","null","resources/images/coin2.png","null","",NA,NA,NA,NA,""
"image-keyboard-response",443,423331,"0.0-3.144-0.144","mdkeuxj8pu48f5m",703,"81.csv","","682","resources/trios/L2T4A1.jpg","37","restless",0.4,0.8,0.5,0.199588878054192,"true"
"image-keyboard-response",444,423736,"0.0-3.144-1.144","mdkeuxj8pu48f5m",703,"81.csv","","null","resources/maskTrios/L2BB.jpg","null","",NA,NA,NA,NA,""
"image-keyboard-response",445,424949,"0.0-3.144-2.144","mdkeuxj8pu48f5m",703,"81.csv","","null","resources/images/coin2.png","null","",NA,NA,NA,NA,""
"image-keyboard-response",446,425968,"0.0-3.145-0.145","mdkeuxj8pu48f5m",703,"81.csv","","1018.6999998092651","resources/trios/L2T1A1.jpg","38","restless",0.4,0.8,0.5,0.00583157120828726,"true"
"image-keyboard-response",447,426370,"0.0-3.145-1.145","mdkeuxj8pu48f5m",703,"81.csv","","null","resources/maskTrios/BT1B.jpg","null","",NA,NA,NA,NA,""
"image-keyboard-response",448,427577,"0.0-3.145-2.145","mdkeuxj8pu48f5m",703,"81.csv","","null","resources/images/coin2.png","null","",NA,NA,NA,NA,""
"image-keyboard-response",449,428955,"0.0-3.146-0.146","mdkeuxj8pu48f5m",703,"81.csv","","1377.3000001907349","resources/trios/L1T1A2.jpg","39","restless",0.4,0.7,0.5,0.95259161296747,"false"
"image-keyboard-response",450,429368,"0.0-3.146-1.146","mdkeuxj8pu48f5m",703,"81.csv","","null","resources/maskTrios/BBA2.jpg","null","",NA,NA,NA,NA,""
"image-keyboard-response",451,430583,"0.0-3.146-2.146","mdkeuxj8pu48f5m",703,"81.csv","","null","resources/images/fishbone.png","null","",NA,NA,NA,NA,""
"image-keyboard-response",452,431481,"0.0-3.147-0.147","mdkeuxj8pu48f5m",703,"81.csv","","898","resources/trios/L2T4A1.jpg","37","restless",0.4,0.7,0.4,0.295405161484755,"true"
"image-keyboard-response",453,431898,"0.0-3.147-1.147","mdkeuxj8pu48f5m",703,"81.csv","","null","resources/maskTrios/L2BB.jpg","null","",NA,NA,NA,NA,""
"image-keyboard-response",454,433103,"0.0-3.147-2.147","mdkeuxj8pu48f5m",703,"81.csv","","null","resources/images/coin2.png","null","",NA,NA,NA,NA,""
"image-keyboard-response",455,438455,"0.0-3.148-0.148","mdkeuxj8pu48f5m",703,"81.csv","","5351.5","resources/trios/L2T1A1.jpg","37","restless",0.4,0.7,0.4,0.7800414644423,"false"
"image-keyboard-response",456,438869,"0.0-3.148-1.148","mdkeuxj8pu48f5m",703,"81.csv","","null","resources/maskTrios/L2BB.jpg","null","",NA,NA,NA,NA,""
"image-keyboard-response",457,440074,"0.0-3.148-2.148","mdkeuxj8pu48f5m",703,"81.csv","","null","resources/images/fishbone.png","null","",NA,NA,NA,NA,""
"image-keyboard-response",458,440929,"0.0-3.149-0.149","mdkeuxj8pu48f5m",703,"81.csv","","854.5","resources/trios/L1T1A2.jpg","38","restless",0.3,0.7,0.4,0.0126786857131216,"true"
"image-keyboard-response",459,441341,"0.0-3.149-1.149","mdkeuxj8pu48f5m",703,"81.csv","","null","resources/maskTrios/BT1B.jpg","null","",NA,NA,NA,NA,""
"image-keyboard-response",460,442555,"0.0-3.149-2.149","mdkeuxj8pu48f5m",703,"81.csv","","null","resources/images/coin2.png","null","",NA,NA,NA,NA,""
"image-keyboard-response",461,443085,"0.0-3.150-0.150","mdkeuxj8pu48f5m",703,"81.csv","","529.4000000953674","resources/trios/L1T1A1.jpg","38","restless",0.3,0.7,0.4,0.123783886161972,"true"
"image-keyboard-response",462,443493,"0.0-3.150-1.150","mdkeuxj8pu48f5m",703,"81.csv","","null","resources/maskTrios/BT1B.jpg","null","",NA,NA,NA,NA,""
"image-keyboard-response",463,444699,"0.0-3.150-2.150","mdkeuxj8pu48f5m",703,"81.csv","","null","resources/images/coin2.png","null","",NA,NA,NA,NA,""
"image-keyboard-response",464,445202,"0.0-3.151-0.151","mdkeuxj8pu48f5m",703,"81.csv","","503","resources/trios/L1T1A2.jpg","38","restless",0.3,0.7,0.4,0.84670705263138,"false"
"image-keyboard-response",465,445610,"0.0-3.151-1.151","mdkeuxj8pu48f5m",703,"81.csv","","null","resources/maskTrios/BT1B.jpg","null","",NA,NA,NA,NA,""
"image-keyboard-response",466,446814,"0.0-3.151-2.151","mdkeuxj8pu48f5m",703,"81.csv","","null","resources/images/fishbone.png","null","",NA,NA,NA,NA,""
"image-keyboard-response",467,447644,"0.0-3.152-0.152","mdkeuxj8pu48f5m",703,"81.csv","","829.2999999523163","resources/trios/L1T4A1.jpg","39","restless",0.3,0.7,0.4,0.397661282779685,"true"
"image-keyboard-response",468,448052,"0.0-3.152-1.152","mdkeuxj8pu48f5m",703,"81.csv","","null","resources/maskTrios/BBA1.jpg","null","",NA,NA,NA,NA,""
"image-keyboard-response",469,449262,"0.0-3.152-2.152","mdkeuxj8pu48f5m",703,"81.csv","","null","resources/images/coin2.png","null","",NA,NA,NA,NA,""
"image-keyboard-response",470,450703,"0.0-3.153-0.153","mdkeuxj8pu48f5m",703,"81.csv","","1440.9000000953674","resources/trios/L2T4A2.jpg","37","restless",0.3,0.7,0.4,0.957170487409522,"false"
"image-keyboard-response",471,451106,"0.0-3.153-1.153","mdkeuxj8pu48f5m",703,"81.csv","","null","resources/maskTrios/L2BB.jpg","null","",NA,NA,NA,NA,""
"image-keyboard-response",472,452320,"0.0-3.153-2.153","mdkeuxj8pu48f5m",703,"81.csv","","null","resources/images/fishbone.png","null","",NA,NA,NA,NA,""
"image-keyboard-response",473,452918,"0.0-3.154-0.154","mdkeuxj8pu48f5m",703,"81.csv","","596.7000000476837","resources/trios/L2T4A2.jpg","39","restless",0.3,0.7,0.4,0.573406807192486,"false"
"image-keyboard-response",474,453334,"0.0-3.154-1.154","mdkeuxj8pu48f5m",703,"81.csv","","null","resources/maskTrios/BBA2.jpg","null","",NA,NA,NA,NA,""
"image-keyboard-response",475,454546,"0.0-3.154-2.154","mdkeuxj8pu48f5m",703,"81.csv","","null","resources/images/fishbone.png","null","",NA,NA,NA,NA,""
"image-keyboard-response",476,455002,"0.0-3.155-0.155","mdkeuxj8pu48f5m",703,"81.csv","","456","resources/trios/L1T4A1.jpg","39","restless",0.3,0.7,0.4,0.184864705257815,"true"
"image-keyboard-response",477,455417,"0.0-3.155-1.155","mdkeuxj8pu48f5m",703,"81.csv","","null","resources/maskTrios/BBA1.jpg","null","",NA,NA,NA,NA,""
"image-keyboard-response",478,456629,"0.0-3.155-2.155","mdkeuxj8pu48f5m",703,"81.csv","","null","resources/images/coin2.png","null","",NA,NA,NA,NA,""
"image-keyboard-response",479,457457,"0.0-3.156-0.156","mdkeuxj8pu48f5m",703,"81.csv","","827.2999999523163","resources/trios/L2T4A2.jpg","38","restless",0.3,0.7,0.4,0.833228283271644,"false"
"image-keyboard-response",480,457859,"0.0-3.156-1.156","mdkeuxj8pu48f5m",703,"81.csv","","null","resources/maskTrios/BT4B.jpg","null","",NA,NA,NA,NA,""
"image-keyboard-response",481,459072,"0.0-3.156-2.156","mdkeuxj8pu48f5m",703,"81.csv","","null","resources/images/fishbone.png","null","",NA,NA,NA,NA,""
"image-keyboard-response",482,460412,"0.0-3.157-0.157","mdkeuxj8pu48f5m",703,"81.csv","","1339.2000000476837","resources/trios/L1T1A2.jpg","38","restless",0.3,0.7,0.4,0.505820037870864,"true"
"image-keyboard-response",483,460815,"0.0-3.157-1.157","mdkeuxj8pu48f5m",703,"81.csv","","null","resources/maskTrios/BT1B.jpg","null","",NA,NA,NA,NA,""
"image-keyboard-response",484,462027,"0.0-3.157-2.157","mdkeuxj8pu48f5m",703,"81.csv","","null","resources/images/coin2.png","null","",NA,NA,NA,NA,""
"image-keyboard-response",485,462906,"0.0-3.158-0.158","mdkeuxj8pu48f5m",703,"81.csv","","878.3999998569489","resources/trios/L2T1A1.jpg","39","restless",0.3,0.7,0.4,0.732373812125734,"false"
"image-keyboard-response",486,463316,"0.0-3.158-1.158","mdkeuxj8pu48f5m",703,"81.csv","","null","resources/maskTrios/BBA1.jpg","null","",NA,NA,NA,NA,""
"image-keyboard-response",487,464530,"0.0-3.158-2.158","mdkeuxj8pu48f5m",703,"81.csv","","null","resources/images/fishbone.png","null","",NA,NA,NA,NA,""
"image-keyboard-response",488,465037,"0.0-3.159-0.159","mdkeuxj8pu48f5m",703,"81.csv","","505.5","resources/trios/L2T1A2.jpg","38","restless",0.3,0.7,0.4,0.560870399315242,"true"
"image-keyboard-response",489,465450,"0.0-3.159-1.159","mdkeuxj8pu48f5m",703,"81.csv","","null","resources/maskTrios/BT1B.jpg","null","",NA,NA,NA,NA,""
"image-keyboard-response",490,466664,"0.0-3.159-2.159","mdkeuxj8pu48f5m",703,"81.csv","","null","resources/images/coin2.png","null","",NA,NA,NA,NA,""
"image-keyboard-response",491,467926,"0.0-3.160-0.160","mdkeuxj8pu48f5m",703,"81.csv","","1261.7000000476837","resources/trios/L2T4A1.jpg","39","restless",0.3,0.7,0.4,0.487561980970512,"false"
"image-keyboard-response",492,468329,"0.0-3.160-1.160","mdkeuxj8pu48f5m",703,"81.csv","","null","resources/maskTrios/BBA1.jpg","null","",NA,NA,NA,NA,""
"image-keyboard-response",493,469536,"0.0-3.160-2.160","mdkeuxj8pu48f5m",703,"81.csv","","null","resources/images/fishbone.png","null","",NA,NA,NA,NA,""
"image-keyboard-response",494,470213,"0.0-3.161-0.161","mdkeuxj8pu48f5m",703,"81.csv","","676.1000001430511","resources/trios/L2T4A2.jpg","37","restless",0.3,0.7,0.5,0.963660247161634,"false"
"image-keyboard-response",495,470622,"0.0-3.161-1.161","mdkeuxj8pu48f5m",703,"81.csv","","null","resources/maskTrios/L2BB.jpg","null","",NA,NA,NA,NA,""
"image-keyboard-response",496,471833,"0.0-3.161-2.161","mdkeuxj8pu48f5m",703,"81.csv","","null","resources/images/fishbone.png","null","",NA,NA,NA,NA,""
"image-keyboard-response",497,472400,"0.0-3.162-0.162","mdkeuxj8pu48f5m",703,"81.csv","","567","resources/trios/L1T1A1.jpg","38","restless",0.3,0.7,0.5,0.687911896590385,"true"
"image-keyboard-response",498,472813,"0.0-3.162-1.162","mdkeuxj8pu48f5m",703,"81.csv","","null","resources/maskTrios/BT1B.jpg","null","",NA,NA,NA,NA,""
"image-keyboard-response",499,474029,"0.0-3.162-2.162","mdkeuxj8pu48f5m",703,"81.csv","","null","resources/images/coin2.png","null","",NA,NA,NA,NA,""
"image-keyboard-response",500,474790,"0.0-3.163-0.163","mdkeuxj8pu48f5m",703,"81.csv","","761","resources/trios/L2T1A2.jpg","38","restless",0.3,0.7,0.5,0.560310238340344,"true"
"image-keyboard-response",501,475196,"0.0-3.163-1.163","mdkeuxj8pu48f5m",703,"81.csv","","null","resources/maskTrios/BT1B.jpg","null","",NA,NA,NA,NA,""
"image-keyboard-response",502,476411,"0.0-3.163-2.163","mdkeuxj8pu48f5m",703,"81.csv","","null","resources/images/coin2.png","null","",NA,NA,NA,NA,""
"image-keyboard-response",503,477389,"0.0-3.164-0.164","mdkeuxj8pu48f5m",703,"81.csv","","976.7000000476837","resources/trios/L1T4A2.jpg","38","restless",0.2,0.7,0.5,0.644218472536156,"true"
"image-keyboard-response",504,477793,"0.0-3.164-1.164","mdkeuxj8pu48f5m",703,"81.csv","","null","resources/maskTrios/BT4B.jpg","null","",NA,NA,NA,NA,""
"image-keyboard-response",505,479001,"0.0-3.164-2.164","mdkeuxj8pu48f5m",703,"81.csv","","null","resources/images/coin2.png","null","",NA,NA,NA,NA,""
"image-keyboard-response",506,479849,"0.0-3.165-0.165","mdkeuxj8pu48f5m",703,"81.csv","","847.7999999523163","resources/trios/L2T1A1.jpg","38","restless",0.2,0.7,0.5,0.691635843829516,"true"
"image-keyboard-response",507,480259,"0.0-3.165-1.165","mdkeuxj8pu48f5m",703,"81.csv","","null","resources/maskTrios/BT1B.jpg","null","",NA,NA,NA,NA,""
"image-keyboard-response",508,481469,"0.0-3.165-2.165","mdkeuxj8pu48f5m",703,"81.csv","","null","resources/images/coin2.png","null","",NA,NA,NA,NA,""
"image-keyboard-response",509,481875,"0.0-3.166-0.166","mdkeuxj8pu48f5m",703,"81.csv","","405.39999985694885","resources/trios/L1T4A1.jpg","38","restless",0.2,0.7,0.5,0.0461203553694365,"true"
"image-keyboard-response",510,482288,"0.0-3.166-1.166","mdkeuxj8pu48f5m",703,"81.csv","","null","resources/maskTrios/BT4B.jpg","null","",NA,NA,NA,NA,""
"image-keyboard-response",511,483489,"0.0-3.166-2.166","mdkeuxj8pu48f5m",703,"81.csv","","null","resources/images/coin2.png","null","",NA,NA,NA,NA,""
"image-keyboard-response",512,483966,"0.0-3.167-0.167","mdkeuxj8pu48f5m",703,"81.csv","","476.5","resources/trios/L2T1A1.jpg","38","restless",0.2,0.7,0.5,0.717023771111799,"false"
"image-keyboard-response",513,484373,"0.0-3.167-1.167","mdkeuxj8pu48f5m",703,"81.csv","","null","resources/maskTrios/BT1B.jpg","null","",NA,NA,NA,NA,""
"image-keyboard-response",514,485583,"0.0-3.167-2.167","mdkeuxj8pu48f5m",703,"81.csv","","null","resources/images/fishbone.png","null","",NA,NA,NA,NA,""
"image-keyboard-response",515,485927,"0.0-3.168-0.168","mdkeuxj8pu48f5m",703,"81.csv","","343","resources/trios/L1T1A2.jpg","39","restless",0.2,0.7,0.5,0.888270741476128,"false"
"image-keyboard-response",516,486344,"0.0-3.168-1.168","mdkeuxj8pu48f5m",703,"81.csv","","null","resources/maskTrios/BBA2.jpg","null","",NA,NA,NA,NA,""
"image-keyboard-response",517,487556,"0.0-3.168-2.168","mdkeuxj8pu48f5m",703,"81.csv","","null","resources/images/fishbone.png","null","",NA,NA,NA,NA,""
"image-keyboard-response",518,487870,"0.0-3.169-0.169","mdkeuxj8pu48f5m",703,"81.csv","","313.5","resources/trios/L2T1A1.jpg","38","restless",0.2,0.7,0.5,0.572469177286311,"true"
"image-keyboard-response",519,488286,"0.0-3.169-1.169","mdkeuxj8pu48f5m",703,"81.csv","","null","resources/maskTrios/BT1B.jpg","null","",NA,NA,NA,NA,""
"image-keyboard-response",520,489498,"0.0-3.169-2.169","mdkeuxj8pu48f5m",703,"81.csv","","null","resources/images/coin2.png","null","",NA,NA,NA,NA,""
"image-keyboard-response",521,490038,"0.0-3.170-0.170","mdkeuxj8pu48f5m",703,"81.csv","","539.5999999046326","resources/trios/L2T1A2.jpg","38","restless",0.2,0.7,0.5,0.827187842265616,"false"
"image-keyboard-response",522,490442,"0.0-3.170-1.170","mdkeuxj8pu48f5m",703,"81.csv","","null","resources/maskTrios/BT1B.jpg","null","",NA,NA,NA,NA,""
"image-keyboard-response",523,491644,"0.0-3.170-2.170","mdkeuxj8pu48f5m",703,"81.csv","","null","resources/images/fishbone.png","null","",NA,NA,NA,NA,""
"image-keyboard-response",524,492149,"0.0-3.171-0.171","mdkeuxj8pu48f5m",703,"81.csv","","504.7999999523163","resources/trios/L2T4A2.jpg","38","restless",0.2,0.7,0.5,0.297488214430841,"true"
"image-keyboard-response",525,492564,"0.0-3.171-1.171","mdkeuxj8pu48f5m",703,"81.csv","","null","resources/maskTrios/BT4B.jpg","null","",NA,NA,NA,NA,""
"image-keyboard-response",526,493778,"0.0-3.171-2.171","mdkeuxj8pu48f5m",703,"81.csv","","null","resources/images/coin2.png","null","",NA,NA,NA,NA,""
"image-keyboard-response",527,494311,"0.0-3.172-0.172","mdkeuxj8pu48f5m",703,"81.csv","","532.7999999523163","resources/trios/L2T1A2.jpg","38","restless",0.1,0.7,0.5,0.104588573621637,"true"
"image-keyboard-response",528,494715,"0.0-3.172-1.172","mdkeuxj8pu48f5m",703,"81.csv","","null","resources/maskTrios/BT1B.jpg","null","",NA,NA,NA,NA,""
"image-keyboard-response",529,495928,"0.0-3.172-2.172","mdkeuxj8pu48f5m",703,"81.csv","","null","resources/images/coin2.png","null","",NA,NA,NA,NA,""
"image-keyboard-response",530,496221,"0.0-3.173-0.173","mdkeuxj8pu48f5m",703,"81.csv","","292.09999990463257","resources/trios/L2T1A1.jpg","38","restless",0.1,0.7,0.5,0.156223390329254,"true"
"image-keyboard-response",531,496627,"0.0-3.173-1.173","mdkeuxj8pu48f5m",703,"81.csv","","null","resources/maskTrios/BT1B.jpg","null","",NA,NA,NA,NA,""
"image-keyboard-response",532,497840,"0.0-3.173-2.173","mdkeuxj8pu48f5m",703,"81.csv","","null","resources/images/coin2.png","null","",NA,NA,NA,NA,""
"image-keyboard-response",533,498352,"0.0-3.174-0.174","mdkeuxj8pu48f5m",703,"81.csv","","511.2000000476837","resources/trios/L1T4A2.jpg","38","restless",0.1,0.7,0.5,0.154993188857295,"true"
"image-keyboard-response",534,498759,"0.0-3.174-1.174","mdkeuxj8pu48f5m",703,"81.csv","","null","resources/maskTrios/BT4B.jpg","null","",NA,NA,NA,NA,""
"image-keyboard-response",535,499972,"0.0-3.174-2.174","mdkeuxj8pu48f5m",703,"81.csv","","null","resources/images/coin2.png","null","",NA,NA,NA,NA,""
"image-keyboard-response",536,500338,"0.0-3.175-0.175","mdkeuxj8pu48f5m",703,"81.csv","","365.7999999523163","resources/trios/L2T1A2.jpg","38","restless",0.1,0.7,0.5,0.976401219913682,"false"
"image-keyboard-response",537,500748,"0.0-3.175-1.175","mdkeuxj8pu48f5m",703,"81.csv","","null","resources/maskTrios/BT1B.jpg","null","",NA,NA,NA,NA,""
"image-keyboard-response",538,501964,"0.0-3.175-2.175","mdkeuxj8pu48f5m",703,"81.csv","","null","resources/images/fishbone.png","null","",NA,NA,NA,NA,""
"image-keyboard-response",539,502286,"0.0-3.176-0.176","mdkeuxj8pu48f5m",703,"81.csv","","321.59999990463257","resources/trios/L2T4A2.jpg","38","restless",0.1,0.7,0.5,0.957860185338364,"false"
"image-keyboard-response",540,502691,"0.0-3.176-1.176","mdkeuxj8pu48f5m",703,"81.csv","","null","resources/maskTrios/BT4B.jpg","null","",NA,NA,NA,NA,""
"image-keyboard-response",541,503904,"0.0-3.176-2.176","mdkeuxj8pu48f5m",703,"81.csv","","null","resources/images/fishbone.png","null","",NA,NA,NA,NA,""
"image-keyboard-response",542,504455,"0.0-3.177-0.177","mdkeuxj8pu48f5m",703,"81.csv","","551","resources/trios/L2T4A1.jpg","39","restless",0.1,0.7,0.5,0.896264392636958,"false"
"image-keyboard-response",543,504871,"0.0-3.177-1.177","mdkeuxj8pu48f5m",703,"81.csv","","null","resources/maskTrios/BBA1.jpg","null","",NA,NA,NA,NA,""
"image-keyboard-response",544,506082,"0.0-3.177-2.177","mdkeuxj8pu48f5m",703,"81.csv","","null","resources/images/fishbone.png","null","",NA,NA,NA,NA,""
"image-keyboard-response",545,506442,"0.0-3.178-0.178","mdkeuxj8pu48f5m",703,"81.csv","","359.59999990463257","resources/trios/L2T4A1.jpg","38","restless",0.1,0.7,0.5,0.28396118377975,"true"
"image-keyboard-response",546,506844,"0.0-3.178-1.178","mdkeuxj8pu48f5m",703,"81.csv","","null","resources/maskTrios/BT4B.jpg","null","",NA,NA,NA,NA,""
"image-keyboard-response",547,508057,"0.0-3.178-2.178","mdkeuxj8pu48f5m",703,"81.csv","","null","resources/images/coin2.png","null","",NA,NA,NA,NA,""
"image-keyboard-response",548,508644,"0.0-3.179-0.179","mdkeuxj8pu48f5m",703,"81.csv","","586.2999999523163","resources/trios/L1T4A1.jpg","38","restless",0.1,0.7,0.5,0.981800864257307,"false"
"image-keyboard-response",549,509049,"0.0-3.179-1.179","mdkeuxj8pu48f5m",703,"81.csv","","null","resources/maskTrios/BT4B.jpg","null","",NA,NA,NA,NA,""
"image-keyboard-response",550,510262,"0.0-3.179-2.179","mdkeuxj8pu48f5m",703,"81.csv","","null","resources/images/fishbone.png","null","",NA,NA,NA,NA,""
"image-keyboard-response",551,510786,"0.0-3.180-0.180","mdkeuxj8pu48f5m",703,"81.csv","","523.5","resources/trios/L2T1A2.jpg","38","restless",0.1,0.6,0.5,0.504807466209298,"true"
"image-keyboard-response",552,511195,"0.0-3.180-1.180","mdkeuxj8pu48f5m",703,"81.csv","","null","resources/maskTrios/BT1B.jpg","null","",NA,NA,NA,NA,""
"image-keyboard-response",553,512411,"0.0-3.180-2.180","mdkeuxj8pu48f5m",703,"81.csv","","null","resources/images/coin2.png","null","",NA,NA,NA,NA,""
"image-keyboard-response",554,513197,"0.0-3.181-0.181","mdkeuxj8pu48f5m",703,"81.csv","","785.2000000476837","resources/trios/L2T1A1.jpg","37","restless",0.1,0.6,0.6,0.257426402747592,"false"
"image-keyboard-response",555,513608,"0.0-3.181-1.181","mdkeuxj8pu48f5m",703,"81.csv","","null","resources/maskTrios/L2BB.jpg","null","",NA,NA,NA,NA,""
"image-keyboard-response",556,514824,"0.0-3.181-2.181","mdkeuxj8pu48f5m",703,"81.csv","","null","resources/images/fishbone.png","null","",NA,NA,NA,NA,""
"image-keyboard-response",557,515157,"0.0-3.182-0.182","mdkeuxj8pu48f5m",703,"81.csv","","333","resources/trios/L1T1A2.jpg","38","restless",0.1,0.6,0.5,0.591914841610154,"true"
"image-keyboard-response",558,515565,"0.0-3.182-1.182","mdkeuxj8pu48f5m",703,"81.csv","","null","resources/maskTrios/BT1B.jpg","null","",NA,NA,NA,NA,""
"image-keyboard-response",559,516777,"0.0-3.182-2.182","mdkeuxj8pu48f5m",703,"81.csv","","null","resources/images/coin2.png","null","",NA,NA,NA,NA,""
"image-keyboard-response",560,517293,"0.0-3.183-0.183","mdkeuxj8pu48f5m",703,"81.csv","","515.4000000953674","resources/trios/L1T4A1.jpg","38","restless",0.1,0.6,0.5,0.638290412876014,"false"
"image-keyboard-response",561,517709,"0.0-3.183-1.183","mdkeuxj8pu48f5m",703,"81.csv","","null","resources/maskTrios/BT4B.jpg","null","",NA,NA,NA,NA,""
"image-keyboard-response",562,518922,"0.0-3.183-2.183","mdkeuxj8pu48f5m",703,"81.csv","","null","resources/images/fishbone.png","null","",NA,NA,NA,NA,""
"image-keyboard-response",563,519606,"0.0-3.184-0.184","mdkeuxj8pu48f5m",703,"81.csv","","683","resources/trios/L2T1A2.jpg","37","restless",0.1,0.6,0.5,0.817023359316305,"false"
"image-keyboard-response",564,520014,"0.0-3.184-1.184","mdkeuxj8pu48f5m",703,"81.csv","","null","resources/maskTrios/L2BB.jpg","null","",NA,NA,NA,NA,""
"image-keyboard-response",565,521225,"0.0-3.184-2.184","mdkeuxj8pu48f5m",703,"81.csv","","null","resources/images/fishbone.png","null","",NA,NA,NA,NA,""
"image-keyboard-response",566,522021,"0.0-3.185-0.185","mdkeuxj8pu48f5m",703,"81.csv","","796.0999999046326","resources/trios/L2T1A1.jpg","39","restless",0.1,0.6,0.5,0.644488517615426,"false"
"image-keyboard-response",567,522436,"0.0-3.185-1.185","mdkeuxj8pu48f5m",703,"81.csv","","null","resources/maskTrios/BBA1.jpg","null","",NA,NA,NA,NA,""
"image-keyboard-response",568,523650,"0.0-3.185-2.185","mdkeuxj8pu48f5m",703,"81.csv","","null","resources/images/fishbone.png","null","",NA,NA,NA,NA,""
"image-keyboard-response",569,524353,"0.0-3.186-0.186","mdkeuxj8pu48f5m",703,"81.csv","","702.2999999523163","resources/trios/L1T4A2.jpg","38","restless",0.1,0.7,0.5,0.310532320701396,"true"
"image-keyboard-response",570,524758,"0.0-3.186-1.186","mdkeuxj8pu48f5m",703,"81.csv","","null","resources/maskTrios/BT4B.jpg","null","",NA,NA,NA,NA,""
"image-keyboard-response",571,525971,"0.0-3.186-2.186","mdkeuxj8pu48f5m",703,"81.csv","","null","resources/images/coin2.png","null","",NA,NA,NA,NA,""
"image-keyboard-response",572,526321,"0.0-3.187-0.187","mdkeuxj8pu48f5m",703,"81.csv","","349.59999990463257","resources/trios/L2T1A1.jpg","38","restless",0.1,0.7,0.5,0.876886399371827,"false"
"image-keyboard-response",573,526735,"0.0-3.187-1.187","mdkeuxj8pu48f5m",703,"81.csv","","null","resources/maskTrios/BT1B.jpg","null","",NA,NA,NA,NA,""
"image-keyboard-response",574,527948,"0.0-3.187-2.187","mdkeuxj8pu48f5m",703,"81.csv","","null","resources/images/fishbone.png","null","",NA,NA,NA,NA,""
"image-keyboard-response",575,528335,"0.0-3.188-0.188","mdkeuxj8pu48f5m",703,"81.csv","","385.7000000476837","resources/trios/L2T1A2.jpg","39","restless",0.1,0.7,0.5,0.774843689713901,"false"
"image-keyboard-response",576,528741,"0.0-3.188-1.188","mdkeuxj8pu48f5m",703,"81.csv","","null","resources/maskTrios/BBA2.jpg","null","",NA,NA,NA,NA,""
"image-keyboard-response",577,529953,"0.0-3.188-2.188","mdkeuxj8pu48f5m",703,"81.csv","","null","resources/images/fishbone.png","null","",NA,NA,NA,NA,""
"image-keyboard-response",578,530296,"0.0-3.189-0.189","mdkeuxj8pu48f5m",703,"81.csv","","341.59999990463257","resources/trios/L1T4A1.jpg","38","restless",0.1,0.7,0.5,0.893234854216292,"false"
"image-keyboard-response",579,530702,"0.0-3.189-1.189","mdkeuxj8pu48f5m",703,"81.csv","","null","resources/maskTrios/BT4B.jpg","null","",NA,NA,NA,NA,""
"image-keyboard-response",580,531917,"0.0-3.189-2.189","mdkeuxj8pu48f5m",703,"81.csv","","null","resources/images/fishbone.png","null","",NA,NA,NA,NA,""
"image-keyboard-response",581,532335,"0.0-3.190-0.190","mdkeuxj8pu48f5m",703,"81.csv","","417.2999999523163","resources/trios/L1T1A1.jpg","39","restless",0.1,0.7,0.5,0.127638533972487,"true"
"image-keyboard-response",582,532740,"0.0-3.190-1.190","mdkeuxj8pu48f5m",703,"81.csv","","null","resources/maskTrios/BBA1.jpg","null","",NA,NA,NA,NA,""
"image-keyboard-response",583,533955,"0.0-3.190-2.190","mdkeuxj8pu48f5m",703,"81.csv","","null","resources/images/coin2.png","null","",NA,NA,NA,NA,""
"image-keyboard-response",584,534453,"0.0-3.191-0.191","mdkeuxj8pu48f5m",703,"81.csv","","497.59999990463257","resources/trios/L1T4A1.jpg","39","restless",0.1,0.7,0.5,0.971647135289171,"false"
"image-keyboard-response",585,534855,"0.0-3.191-1.191","mdkeuxj8pu48f5m",703,"81.csv","","null","resources/maskTrios/BBA1.jpg","null","",NA,NA,NA,NA,""
"image-keyboard-response",586,536056,"0.0-3.191-2.191","mdkeuxj8pu48f5m",703,"81.csv","","null","resources/images/fishbone.png","null","",NA,NA,NA,NA,""
"image-keyboard-response",587,536823,"0.0-3.192-0.192","mdkeuxj8pu48f5m",703,"81.csv","","766.7999999523163","resources/trios/L1T1A2.jpg","38","restless",0.1,0.7,0.5,0.608024861141446,"true"
"image-keyboard-response",588,537235,"0.0-3.192-1.192","mdkeuxj8pu48f5m",703,"81.csv","","null","resources/maskTrios/BT1B.jpg","null","",NA,NA,NA,NA,""
"image-keyboard-response",589,538451,"0.0-3.192-2.192","mdkeuxj8pu48f5m",703,"81.csv","","null","resources/images/coin2.png","null","",NA,NA,NA,NA,""
"image-keyboard-response",590,538961,"0.0-3.193-0.193","mdkeuxj8pu48f5m",703,"81.csv","","509.2999999523163","resources/trios/L1T1A1.jpg","38","restless",0.1,0.7,0.5,0.802468566847973,"false"
"image-keyboard-response",591,539368,"0.0-3.193-1.193","mdkeuxj8pu48f5m",703,"81.csv","","null","resources/maskTrios/BT1B.jpg","null","",NA,NA,NA,NA,""
"image-keyboard-response",592,540582,"0.0-3.193-2.193","mdkeuxj8pu48f5m",703,"81.csv","","null","resources/images/fishbone.png","null","",NA,NA,NA,NA,""
"image-keyboard-response",593,541565,"0.0-3.194-0.194","mdkeuxj8pu48f5m",703,"81.csv","","982.2000000476837","resources/trios/L2T4A1.jpg","37","restless",0.1,0.7,0.5,0.449388030711234,"false"
"image-keyboard-response",594,541967,"0.0-3.194-1.194","mdkeuxj8pu48f5m",703,"81.csv","","null","resources/maskTrios/L2BB.jpg","null","",NA,NA,NA,NA,""
"image-keyboard-response",595,543181,"0.0-3.194-2.194","mdkeuxj8pu48f5m",703,"81.csv","","null","resources/images/fishbone.png","null","",NA,NA,NA,NA,""
"image-keyboard-response",596,545702,"0.0-3.195-0.195","mdkeuxj8pu48f5m",703,"81.csv","","2520.9000000953674","resources/trios/L1T1A1.jpg","38","restless",0.1,0.7,0.5,0.824325065188861,"false"
"image-keyboard-response",597,546116,"0.0-3.195-1.195","mdkeuxj8pu48f5m",703,"81.csv","","null","resources/maskTrios/BT1B.jpg","null","",NA,NA,NA,NA,""
"image-keyboard-response",598,547327,"0.0-3.195-2.195","mdkeuxj8pu48f5m",703,"81.csv","","null","resources/images/fishbone.png","null","",NA,NA,NA,NA,""
"image-keyboard-response",599,549786,"0.0-3.196-0.196","mdkeuxj8pu48f5m",703,"81.csv","","2458.9000000953674","resources/trios/L1T1A2.jpg","39","restless",0.1,0.7,0.5,0.649177095648893,"false"
"image-keyboard-response",600,550188,"0.0-3.196-1.196","mdkeuxj8pu48f5m",703,"81.csv","","null","resources/maskTrios/BBA2.jpg","null","",NA,NA,NA,NA,""
"image-keyboard-response",601,551398,"0.0-3.196-2.196","mdkeuxj8pu48f5m",703,"81.csv","","null","resources/images/fishbone.png","null","",NA,NA,NA,NA,""
"image-keyboard-response",602,554884,"0.0-3.197-0.197","mdkeuxj8pu48f5m",703,"81.csv","","3485.899999856949","resources/trios/L2T4A2.jpg","37","restless",0.1,0.7,0.5,0.983378142775936,"false"
"image-keyboard-response",603,555288,"0.0-3.197-1.197","mdkeuxj8pu48f5m",703,"81.csv","","null","resources/maskTrios/L2BB.jpg","null","",NA,NA,NA,NA,""
"image-keyboard-response",604,556489,"0.0-3.197-2.197","mdkeuxj8pu48f5m",703,"81.csv","","null","resources/images/fishbone.png","null","",NA,NA,NA,NA,""
"image-keyboard-response",605,557839,"0.0-3.198-0.198","mdkeuxj8pu48f5m",703,"81.csv","","1350.1000001430511","resources/trios/L1T4A2.jpg","38","restless",0.2,0.7,0.5,0.203198414663722,"true"
"image-keyboard-response",606,558245,"0.0-3.198-1.198","mdkeuxj8pu48f5m",703,"81.csv","","null","resources/maskTrios/BT4B.jpg","null","",NA,NA,NA,NA,""
"image-keyboard-response",607,559446,"0.0-3.198-2.198","mdkeuxj8pu48f5m",703,"81.csv","","null","resources/images/coin2.png","null","",NA,NA,NA,NA,""
"image-keyboard-response",608,560872,"0.0-3.199-0.199","mdkeuxj8pu48f5m",703,"81.csv","","1426","resources/trios/L1T4A1.jpg","38","restless",0.2,0.7,0.6,0.851258376365787,"false"
"image-keyboard-response",609,561277,"0.0-3.199-1.199","mdkeuxj8pu48f5m",703,"81.csv","","null","resources/maskTrios/BT4B.jpg","null","",NA,NA,NA,NA,""
"image-keyboard-response",610,562479,"0.0-3.199-2.199","mdkeuxj8pu48f5m",703,"81.csv","","null","resources/images/fishbone.png","null","",NA,NA,NA,NA,""
