"trial_type","trial_index","time_elapsed","internal_node_id","subject","walkNumber","success","rt","stimulus","key_press","test_part","leftProb","midProb","rightProb","generatedNum","correct"
"pavlovia",0,1103,"0.0-0.0","0q5zzdyx5f32cdy","76.csv","","","","","",NA,NA,NA,NA,""
"fullscreen",1,102078,"0.0-1.0","0q5zzdyx5f32cdy","76.csv","true","","","","",NA,NA,NA,NA,""
"html-keyboard-response",2,106556,"0.0-2.0-0.0","0q5zzdyx5f32cdy","76.csv","","4475.5999999940395","<p><font size='6'>Arrrgh!</p></font><p>Can you be the best pirate? Try to find lots of gold! But beware, some islands have more gold than others, and over time, the island with the most gold may change. Can YOU figure it out? </p><font size='6'>GOOD LUCK, CAPTAIN!!!</font><p>Press any key to begin</p>","32","",NA,NA,NA,NA,""
"image-keyboard-response",3,109559,"0.0-2.0-1.0","0q5zzdyx5f32cdy","76.csv","","null","resources/image_sets/111.png","null","",NA,NA,NA,NA,""
"image-keyboard-response",4,111907,"0.0-2.0-2.0","0q5zzdyx5f32cdy","76.csv","","2345.300000011921","resources/image_sets/left_highlight.png","37","",NA,NA,NA,NA,""
"image-keyboard-response",5,115048,"0.0-2.0-3.0","0q5zzdyx5f32cdy","76.csv","","3138.899999976158","resources/image_sets/mid_highlight.png","38","",NA,NA,NA,NA,""
"image-keyboard-response",6,116713,"0.0-2.0-4.0","0q5zzdyx5f32cdy","76.csv","","1663.199999988079","resources/image_sets/right_highlight.png","39","",NA,NA,NA,NA,""
"image-keyboard-response",7,121581,"0.0-2.0-5.0","0q5zzdyx5f32cdy","76.csv","","4866.299999982119","resources/image_sets/111.png","13","",NA,NA,NA,NA,""
"image-keyboard-response",8,123949,"0.0-2.0-6.0","0q5zzdyx5f32cdy","76.csv","","2366.2999999821186","resources/images/coin2.png","13","",NA,NA,NA,NA,""
"image-keyboard-response",9,125775,"0.0-2.0-7.0","0q5zzdyx5f32cdy","76.csv","","1825","resources/images/fishbone.png","13","",NA,NA,NA,NA,""
"html-keyboard-response",10,127512,"0.0-2.0-8.0","0q5zzdyx5f32cdy","76.csv","","1735.5999999940395","<p>Your first journey will be a long one, but you will get a well deserved break at the end</p><p>After the break you will have four more journeys, but each will be much shorter than the first, and you will have breaks in between each</p><p>Press Enter to begin</p>","13","",NA,NA,NA,NA,""
"image-keyboard-response",11,128764,"0.0-3.0-0.0","0q5zzdyx5f32cdy","76.csv","","1249.800000011921","resources/trios/L1T2A3.jpg","39","restless",0.7,0.9,0.3,0.748723962209073,"false"
"image-keyboard-response",12,129175,"0.0-3.0-1.0","0q5zzdyx5f32cdy","76.csv","","null","resources/maskTrios/BBA3.jpg","null","",NA,NA,NA,NA,""
"image-keyboard-response",13,130382,"0.0-3.0-2.0","0q5zzdyx5f32cdy","76.csv","","null","resources/images/fishbone.png","null","",NA,NA,NA,NA,""
"image-keyboard-response",14,132470,"0.0-3.1-0.1","0q5zzdyx5f32cdy","76.csv","","2085.300000011921","resources/trios/L2T4A2.jpg","38","restless",0.7,0.9,0.3,0.409766343103041,"true"
"image-keyboard-response",15,132876,"0.0-3.1-1.1","0q5zzdyx5f32cdy","76.csv","","null","resources/maskTrios/BT4B.jpg","null","",NA,NA,NA,NA,""
"image-keyboard-response",16,134084,"0.0-3.1-2.1","0q5zzdyx5f32cdy","76.csv","","null","resources/images/coin2.png","null","",NA,NA,NA,NA,""
"image-keyboard-response",17,134878,"0.0-3.2-0.2","0q5zzdyx5f32cdy","76.csv","","791","resources/trios/L2T4A2.jpg","38","restless",0.7,0.9,0.3,0.552878384872266,"true"
"image-keyboard-response",18,135280,"0.0-3.2-1.2","0q5zzdyx5f32cdy","76.csv","","null","resources/maskTrios/BT4B.jpg","null","",NA,NA,NA,NA,""
"image-keyboard-response",19,136484,"0.0-3.2-2.2","0q5zzdyx5f32cdy","76.csv","","null","resources/images/coin2.png","null","",NA,NA,NA,NA,""
"image-keyboard-response",20,136791,"0.0-3.3-0.3","0q5zzdyx5f32cdy","76.csv","","303.80000001192093","resources/trios/L2T4A3.jpg","38","restless",0.7,0.9,0.3,0.623102398030514,"true"
"image-keyboard-response",21,137195,"0.0-3.3-1.3","0q5zzdyx5f32cdy","76.csv","","null","resources/maskTrios/BT4B.jpg","null","",NA,NA,NA,NA,""
"image-keyboard-response",22,138402,"0.0-3.3-2.3","0q5zzdyx5f32cdy","76.csv","","null","resources/images/coin2.png","null","",NA,NA,NA,NA,""
"image-keyboard-response",23,140516,"0.0-3.4-0.4","0q5zzdyx5f32cdy","76.csv","","2111.699999988079","resources/trios/L1T2A3.jpg","38","restless",0.7,0.9,0.3,0.894706417217856,"true"
"image-keyboard-response",24,140923,"0.0-3.4-1.4","0q5zzdyx5f32cdy","76.csv","","null","resources/maskTrios/BT2B.jpg","null","",NA,NA,NA,NA,""
"image-keyboard-response",25,142130,"0.0-3.4-2.4","0q5zzdyx5f32cdy","76.csv","","null","resources/images/coin2.png","null","",NA,NA,NA,NA,""
"image-keyboard-response",26,142688,"0.0-3.5-0.5","0q5zzdyx5f32cdy","76.csv","","556","resources/trios/L1T4A2.jpg","38","restless",0.7,0.8,0.3,0.702902820582642,"true"
"image-keyboard-response",27,143096,"0.0-3.5-1.5","0q5zzdyx5f32cdy","76.csv","","null","resources/maskTrios/BT4B.jpg","null","",NA,NA,NA,NA,""
"image-keyboard-response",28,144303,"0.0-3.5-2.5","0q5zzdyx5f32cdy","76.csv","","null","resources/images/coin2.png","null","",NA,NA,NA,NA,""
"image-keyboard-response",29,144574,"0.0-3.6-0.6","0q5zzdyx5f32cdy","76.csv","","269.7000000178814","resources/trios/L1T4A2.jpg","38","restless",0.7,0.8,0.3,0.44714816471026,"true"
"image-keyboard-response",30,144980,"0.0-3.6-1.6","0q5zzdyx5f32cdy","76.csv","","null","resources/maskTrios/BT4B.jpg","null","",NA,NA,NA,NA,""
"image-keyboard-response",31,146185,"0.0-3.6-2.6","0q5zzdyx5f32cdy","76.csv","","null","resources/images/coin2.png","null","",NA,NA,NA,NA,""
"image-keyboard-response",32,146431,"0.0-3.7-0.7","0q5zzdyx5f32cdy","76.csv","","243.5","resources/trios/L1T4A3.jpg","38","restless",0.7,0.8,0.3,0.932726594522874,"false"
"image-keyboard-response",33,146837,"0.0-3.7-1.7","0q5zzdyx5f32cdy","76.csv","","null","resources/maskTrios/BT4B.jpg","null","",NA,NA,NA,NA,""
"image-keyboard-response",34,148043,"0.0-3.7-2.7","0q5zzdyx5f32cdy","76.csv","","null","resources/images/fishbone.png","null","",NA,NA,NA,NA,""
"image-keyboard-response",35,148360,"0.0-3.8-0.8","0q5zzdyx5f32cdy","76.csv","","313.69999998807907","resources/trios/L2T2A2.jpg","37","restless",0.7,0.7,0.3,0.00382975802713892,"true"
"image-keyboard-response",36,148767,"0.0-3.8-1.8","0q5zzdyx5f32cdy","76.csv","","null","resources/maskTrios/L2BB.jpg","null","",NA,NA,NA,NA,""
"image-keyboard-response",37,149974,"0.0-3.8-2.8","0q5zzdyx5f32cdy","76.csv","","null","resources/images/coin2.png","null","",NA,NA,NA,NA,""
"image-keyboard-response",38,150773,"0.0-3.9-0.9","0q5zzdyx5f32cdy","76.csv","","796.2999999821186","resources/trios/L2T2A3.jpg","37","restless",0.7,0.7,0.3,0.706679241448607,"false"
"image-keyboard-response",39,151178,"0.0-3.9-1.9","0q5zzdyx5f32cdy","76.csv","","null","resources/maskTrios/L2BB.jpg","null","",NA,NA,NA,NA,""
"image-keyboard-response",40,152385,"0.0-3.9-2.9","0q5zzdyx5f32cdy","76.csv","","null","resources/images/fishbone.png","null","",NA,NA,NA,NA,""
"image-keyboard-response",41,152836,"0.0-3.10-0.10","0q5zzdyx5f32cdy","76.csv","","449.09999999403954","resources/trios/L2T2A2.jpg","39","restless",0.7,0.7,0.3,0.468768763919756,"false"
"image-keyboard-response",42,153241,"0.0-3.10-1.10","0q5zzdyx5f32cdy","76.csv","","null","resources/maskTrios/BBA2.jpg","null","",NA,NA,NA,NA,""
"image-keyboard-response",43,154448,"0.0-3.10-2.10","0q5zzdyx5f32cdy","76.csv","","null","resources/images/fishbone.png","null","",NA,NA,NA,NA,""
"image-keyboard-response",44,154602,"0.0-3.11-0.11","0q5zzdyx5f32cdy","76.csv","","152.09999999403954","resources/trios/L2T4A3.jpg","38","restless",0.7,0.6,0.3,0.749518992502395,"false"
"image-keyboard-response",45,155005,"0.0-3.11-1.11","0q5zzdyx5f32cdy","76.csv","","null","resources/maskTrios/BT4B.jpg","null","",NA,NA,NA,NA,""
"image-keyboard-response",46,156208,"0.0-3.11-2.11","0q5zzdyx5f32cdy","76.csv","","null","resources/images/fishbone.png","null","",NA,NA,NA,NA,""
"image-keyboard-response",47,156443,"0.0-3.12-0.12","0q5zzdyx5f32cdy","76.csv","","232.90000000596046","resources/trios/L2T2A3.jpg","39","restless",0.7,0.6,0.3,0.316620168624814,"false"
"image-keyboard-response",48,156848,"0.0-3.12-1.12","0q5zzdyx5f32cdy","76.csv","","null","resources/maskTrios/BBA3.jpg","null","",NA,NA,NA,NA,""
"image-keyboard-response",49,158051,"0.0-3.12-2.12","0q5zzdyx5f32cdy","76.csv","","null","resources/images/fishbone.png","null","",NA,NA,NA,NA,""
"image-keyboard-response",50,158347,"0.0-3.13-0.13","0q5zzdyx5f32cdy","76.csv","","294.40000000596046","resources/trios/L1T2A3.jpg","37","restless",0.8,0.7,0.3,0.718285549631499,"true"
"image-keyboard-response",51,158754,"0.0-3.13-1.13","0q5zzdyx5f32cdy","76.csv","","null","resources/maskTrios/L1BB.jpg","null","",NA,NA,NA,NA,""
"image-keyboard-response",52,159961,"0.0-3.13-2.13","0q5zzdyx5f32cdy","76.csv","","null","resources/images/coin2.png","null","",NA,NA,NA,NA,""
"image-keyboard-response",53,160388,"0.0-3.14-0.14","0q5zzdyx5f32cdy","76.csv","","424.7999999821186","resources/trios/L2T4A2.jpg","37","restless",0.8,0.7,0.3,0.35231960817277,"true"
"image-keyboard-response",54,160795,"0.0-3.14-1.14","0q5zzdyx5f32cdy","76.csv","","null","resources/maskTrios/L2BB.jpg","null","",NA,NA,NA,NA,""
"image-keyboard-response",55,162003,"0.0-3.14-2.14","0q5zzdyx5f32cdy","76.csv","","null","resources/images/coin2.png","null","",NA,NA,NA,NA,""
"image-keyboard-response",56,162419,"0.0-3.15-0.15","0q5zzdyx5f32cdy","76.csv","","414","resources/trios/L2T2A2.jpg","37","restless",0.8,0.7,0.3,0.773874775109902,"true"
"image-keyboard-response",57,162827,"0.0-3.15-1.15","0q5zzdyx5f32cdy","76.csv","","null","resources/maskTrios/L2BB.jpg","null","",NA,NA,NA,NA,""
"image-keyboard-response",58,164033,"0.0-3.15-2.15","0q5zzdyx5f32cdy","76.csv","","null","resources/images/coin2.png","null","",NA,NA,NA,NA,""
"image-keyboard-response",59,164525,"0.0-3.16-0.16","0q5zzdyx5f32cdy","76.csv","","489.69999998807907","resources/trios/L2T4A3.jpg","37","restless",0.8,0.7,0.3,0.192354694697025,"true"
"image-keyboard-response",60,164933,"0.0-3.16-1.16","0q5zzdyx5f32cdy","76.csv","","null","resources/maskTrios/L2BB.jpg","null","",NA,NA,NA,NA,""
"image-keyboard-response",61,166140,"0.0-3.16-2.16","0q5zzdyx5f32cdy","76.csv","","null","resources/images/coin2.png","null","",NA,NA,NA,NA,""
"image-keyboard-response",62,166654,"0.0-3.17-0.17","0q5zzdyx5f32cdy","76.csv","","511.7000000178814","resources/trios/L1T2A2.jpg","37","restless",0.8,0.7,0.3,0.321343343448432,"true"
"image-keyboard-response",63,167060,"0.0-3.17-1.17","0q5zzdyx5f32cdy","76.csv","","null","resources/maskTrios/L1BB.jpg","null","",NA,NA,NA,NA,""
"image-keyboard-response",64,168266,"0.0-3.17-2.17","0q5zzdyx5f32cdy","76.csv","","null","resources/images/coin2.png","null","",NA,NA,NA,NA,""
"image-keyboard-response",65,168665,"0.0-3.18-0.18","0q5zzdyx5f32cdy","76.csv","","396.7999999821186","resources/trios/L2T2A2.jpg","37","restless",0.8,0.7,0.2,0.946661951139447,"false"
"image-keyboard-response",66,169069,"0.0-3.18-1.18","0q5zzdyx5f32cdy","76.csv","","null","resources/maskTrios/L2BB.jpg","null","",NA,NA,NA,NA,""
"image-keyboard-response",67,170273,"0.0-3.18-2.18","0q5zzdyx5f32cdy","76.csv","","null","resources/images/fishbone.png","null","",NA,NA,NA,NA,""
"image-keyboard-response",68,171292,"0.0-3.19-0.19","0q5zzdyx5f32cdy","76.csv","","1016.8000000119209","resources/trios/L2T4A2.jpg","37","restless",0.8,0.7,0.2,0.957369204875138,"false"
"image-keyboard-response",69,171699,"0.0-3.19-1.19","0q5zzdyx5f32cdy","76.csv","","null","resources/maskTrios/L2BB.jpg","null","",NA,NA,NA,NA,""
"image-keyboard-response",70,172902,"0.0-3.19-2.19","0q5zzdyx5f32cdy","76.csv","","null","resources/images/fishbone.png","null","",NA,NA,NA,NA,""
"image-keyboard-response",71,173523,"0.0-3.20-0.20","0q5zzdyx5f32cdy","76.csv","","618.7000000178814","resources/trios/L1T2A3.jpg","37","restless",0.7,0.7,0.2,0.580357472824247,"true"
"image-keyboard-response",72,173926,"0.0-3.20-1.20","0q5zzdyx5f32cdy","76.csv","","null","resources/maskTrios/L1BB.jpg","null","",NA,NA,NA,NA,""
"image-keyboard-response",73,175133,"0.0-3.20-2.20","0q5zzdyx5f32cdy","76.csv","","null","resources/images/coin2.png","null","",NA,NA,NA,NA,""
"image-keyboard-response",74,175586,"0.0-3.21-0.21","0q5zzdyx5f32cdy","76.csv","","450","resources/trios/L1T2A2.jpg","37","restless",0.7,0.7,0.3,0.554482841273467,"true"
"image-keyboard-response",75,175992,"0.0-3.21-1.21","0q5zzdyx5f32cdy","76.csv","","null","resources/maskTrios/L1BB.jpg","null","",NA,NA,NA,NA,""
"image-keyboard-response",76,177198,"0.0-3.21-2.21","0q5zzdyx5f32cdy","76.csv","","null","resources/images/coin2.png","null","",NA,NA,NA,NA,""
"image-keyboard-response",77,177640,"0.0-3.22-0.22","0q5zzdyx5f32cdy","76.csv","","440.09999999403954","resources/trios/L2T4A2.jpg","37","restless",0.7,0.7,0.3,0.959855142151455,"false"
"image-keyboard-response",78,178044,"0.0-3.22-1.22","0q5zzdyx5f32cdy","76.csv","","null","resources/maskTrios/L2BB.jpg","null","",NA,NA,NA,NA,""
"image-keyboard-response",79,179251,"0.0-3.22-2.22","0q5zzdyx5f32cdy","76.csv","","null","resources/images/fishbone.png","null","",NA,NA,NA,NA,""
"image-keyboard-response",80,179862,"0.0-3.23-0.23","0q5zzdyx5f32cdy","76.csv","","609.8000000119209","resources/trios/L1T2A3.jpg","38","restless",0.7,0.6,0.3,0.536158022856996,"true"
"image-keyboard-response",81,180270,"0.0-3.23-1.23","0q5zzdyx5f32cdy","76.csv","","null","resources/maskTrios/BT2B.jpg","null","",NA,NA,NA,NA,""
"image-keyboard-response",82,181476,"0.0-3.23-2.23","0q5zzdyx5f32cdy","76.csv","","null","resources/images/coin2.png","null","",NA,NA,NA,NA,""
"image-keyboard-response",83,181887,"0.0-3.24-0.24","0q5zzdyx5f32cdy","76.csv","","408.80000001192093","resources/trios/L1T2A2.jpg","38","restless",0.7,0.6,0.3,0.475561957583346,"true"
"image-keyboard-response",84,182294,"0.0-3.24-1.24","0q5zzdyx5f32cdy","76.csv","","null","resources/maskTrios/BT2B.jpg","null","",NA,NA,NA,NA,""
"image-keyboard-response",85,183500,"0.0-3.24-2.24","0q5zzdyx5f32cdy","76.csv","","null","resources/images/coin2.png","null","",NA,NA,NA,NA,""
"image-keyboard-response",86,183813,"0.0-3.25-0.25","0q5zzdyx5f32cdy","76.csv","","310.30000001192093","resources/trios/L2T2A2.jpg","39","restless",0.7,0.6,0.3,0.0968730282749528,"true"
"image-keyboard-response",87,184215,"0.0-3.25-1.25","0q5zzdyx5f32cdy","76.csv","","null","resources/maskTrios/BBA2.jpg","null","",NA,NA,NA,NA,""
"image-keyboard-response",88,185422,"0.0-3.25-2.25","0q5zzdyx5f32cdy","76.csv","","null","resources/images/coin2.png","null","",NA,NA,NA,NA,""
"image-keyboard-response",89,185735,"0.0-3.26-0.26","0q5zzdyx5f32cdy","76.csv","","310.80000001192093","resources/trios/L1T2A3.jpg","39","restless",0.7,0.6,0.3,0.585646339643389,"false"
"image-keyboard-response",90,186139,"0.0-3.26-1.26","0q5zzdyx5f32cdy","76.csv","","null","resources/maskTrios/BBA3.jpg","null","",NA,NA,NA,NA,""
"image-keyboard-response",91,187346,"0.0-3.26-2.26","0q5zzdyx5f32cdy","76.csv","","null","resources/images/fishbone.png","null","",NA,NA,NA,NA,""
"image-keyboard-response",92,187592,"0.0-3.27-0.27","0q5zzdyx5f32cdy","76.csv","","243.69999998807907","resources/trios/L1T4A3.jpg","37","restless",0.7,0.6,0.3,0.369331305839886,"true"
"image-keyboard-response",93,187997,"0.0-3.27-1.27","0q5zzdyx5f32cdy","76.csv","","null","resources/maskTrios/L1BB.jpg","null","",NA,NA,NA,NA,""
"image-keyboard-response",94,189200,"0.0-3.27-2.27","0q5zzdyx5f32cdy","76.csv","","null","resources/images/coin2.png","null","",NA,NA,NA,NA,""
"image-keyboard-response",95,189510,"0.0-3.28-0.28","0q5zzdyx5f32cdy","76.csv","","307.69999998807907","resources/trios/L1T4A2.jpg","37","restless",0.7,0.5,0.3,0.936579438886459,"false"
"image-keyboard-response",96,189917,"0.0-3.28-1.28","0q5zzdyx5f32cdy","76.csv","","null","resources/maskTrios/L1BB.jpg","null","",NA,NA,NA,NA,""
"image-keyboard-response",97,191121,"0.0-3.28-2.28","0q5zzdyx5f32cdy","76.csv","","null","resources/images/fishbone.png","null","",NA,NA,NA,NA,""
"image-keyboard-response",98,191529,"0.0-3.29-0.29","0q5zzdyx5f32cdy","76.csv","","405.7000000178814","resources/trios/L2T4A3.jpg","38","restless",0.7,0.5,0.3,0.877300243794275,"false"
"image-keyboard-response",99,191936,"0.0-3.29-1.29","0q5zzdyx5f32cdy","76.csv","","null","resources/maskTrios/BT4B.jpg","null","",NA,NA,NA,NA,""
"image-keyboard-response",100,193138,"0.0-3.29-2.29","0q5zzdyx5f32cdy","76.csv","","null","resources/images/fishbone.png","null","",NA,NA,NA,NA,""
"image-keyboard-response",101,193446,"0.0-3.30-0.30","0q5zzdyx5f32cdy","76.csv","","306","resources/trios/L1T2A2.jpg","38","restless",0.7,0.5,0.3,0.667332582771952,"false"
"image-keyboard-response",102,193850,"0.0-3.30-1.30","0q5zzdyx5f32cdy","76.csv","","null","resources/maskTrios/BT2B.jpg","null","",NA,NA,NA,NA,""
"image-keyboard-response",103,195054,"0.0-3.30-2.30","0q5zzdyx5f32cdy","76.csv","","null","resources/images/fishbone.png","null","",NA,NA,NA,NA,""
"image-keyboard-response",104,195424,"0.0-3.31-0.31","0q5zzdyx5f32cdy","76.csv","","368.40000000596046","resources/trios/L1T4A2.jpg","37","restless",0.7,0.5,0.3,0.390742629506306,"true"
"image-keyboard-response",105,195828,"0.0-3.31-1.31","0q5zzdyx5f32cdy","76.csv","","null","resources/maskTrios/L1BB.jpg","null","",NA,NA,NA,NA,""
"image-keyboard-response",106,197035,"0.0-3.31-2.31","0q5zzdyx5f32cdy","76.csv","","null","resources/images/coin2.png","null","",NA,NA,NA,NA,""
"image-keyboard-response",107,197320,"0.0-3.32-0.32","0q5zzdyx5f32cdy","76.csv","","283","resources/trios/L2T4A2.jpg","37","restless",0.7,0.5,0.3,0.638556151058999,"true"
"image-keyboard-response",108,197727,"0.0-3.32-1.32","0q5zzdyx5f32cdy","76.csv","","null","resources/maskTrios/L2BB.jpg","null","",NA,NA,NA,NA,""
"image-keyboard-response",109,198934,"0.0-3.32-2.32","0q5zzdyx5f32cdy","76.csv","","null","resources/images/coin2.png","null","",NA,NA,NA,NA,""
"image-keyboard-response",110,199297,"0.0-3.33-0.33","0q5zzdyx5f32cdy","76.csv","","361.10000002384186","resources/trios/L1T2A2.jpg","37","restless",0.7,0.5,0.3,0.0816159907392453,"true"
"image-keyboard-response",111,199703,"0.0-3.33-1.33","0q5zzdyx5f32cdy","76.csv","","null","resources/maskTrios/L1BB.jpg","null","",NA,NA,NA,NA,""
"image-keyboard-response",112,200910,"0.0-3.33-2.33","0q5zzdyx5f32cdy","76.csv","","null","resources/images/coin2.png","null","",NA,NA,NA,NA,""
"image-keyboard-response",113,201050,"0.0-3.34-0.34","0q5zzdyx5f32cdy","76.csv","","138","resources/trios/L1T4A2.jpg","38","restless",0.7,0.5,0.3,0.520623075631732,"false"
"image-keyboard-response",114,201457,"0.0-3.34-1.34","0q5zzdyx5f32cdy","76.csv","","null","resources/maskTrios/BT4B.jpg","null","",NA,NA,NA,NA,""
"image-keyboard-response",115,202664,"0.0-3.34-2.34","0q5zzdyx5f32cdy","76.csv","","null","resources/images/fishbone.png","null","",NA,NA,NA,NA,""
"image-keyboard-response",116,202922,"0.0-3.35-0.35","0q5zzdyx5f32cdy","76.csv","","256","resources/trios/L1T4A2.jpg","37","restless",0.8,0.5,0.3,0.734603568290162,"true"
"image-keyboard-response",117,203329,"0.0-3.35-1.35","0q5zzdyx5f32cdy","76.csv","","null","resources/maskTrios/L1BB.jpg","null","",NA,NA,NA,NA,""
"image-keyboard-response",118,204534,"0.0-3.35-2.35","0q5zzdyx5f32cdy","76.csv","","null","resources/images/coin2.png","null","",NA,NA,NA,NA,""
"image-keyboard-response",119,204814,"0.0-3.36-0.36","0q5zzdyx5f32cdy","76.csv","","277.90000000596046","resources/trios/L2T2A3.jpg","39","restless",0.8,0.5,0.3,0.505297626215417,"false"
"image-keyboard-response",120,205220,"0.0-3.36-1.36","0q5zzdyx5f32cdy","76.csv","","null","resources/maskTrios/BBA3.jpg","null","",NA,NA,NA,NA,""
"image-keyboard-response",121,206427,"0.0-3.36-2.36","0q5zzdyx5f32cdy","76.csv","","null","resources/images/fishbone.png","null","",NA,NA,NA,NA,""
"image-keyboard-response",122,206707,"0.0-3.37-0.37","0q5zzdyx5f32cdy","76.csv","","278.10000002384186","resources/trios/L1T4A2.jpg","37","restless",0.8,0.5,0.3,0.0696920024461993,"true"
"image-keyboard-response",123,207114,"0.0-3.37-1.37","0q5zzdyx5f32cdy","76.csv","","null","resources/maskTrios/L1BB.jpg","null","",NA,NA,NA,NA,""
"image-keyboard-response",124,208321,"0.0-3.37-2.37","0q5zzdyx5f32cdy","76.csv","","null","resources/images/coin2.png","null","",NA,NA,NA,NA,""
"image-keyboard-response",125,208569,"0.0-3.38-0.38","0q5zzdyx5f32cdy","76.csv","","246","resources/trios/L1T4A3.jpg","37","restless",0.7,0.5,0.3,0.389440434735438,"true"
"image-keyboard-response",126,208974,"0.0-3.38-1.38","0q5zzdyx5f32cdy","76.csv","","null","resources/maskTrios/L1BB.jpg","null","",NA,NA,NA,NA,""
"image-keyboard-response",127,210180,"0.0-3.38-2.38","0q5zzdyx5f32cdy","76.csv","","null","resources/images/coin2.png","null","",NA,NA,NA,NA,""
"image-keyboard-response",128,210581,"0.0-3.39-0.39","0q5zzdyx5f32cdy","76.csv","","399.40000000596046","resources/trios/L2T2A3.jpg","37","restless",0.7,0.4,0.3,0.269072857571337,"true"
"image-keyboard-response",129,210986,"0.0-3.39-1.39","0q5zzdyx5f32cdy","76.csv","","null","resources/maskTrios/L2BB.jpg","null","",NA,NA,NA,NA,""
"image-keyboard-response",130,212193,"0.0-3.39-2.39","0q5zzdyx5f32cdy","76.csv","","null","resources/images/coin2.png","null","",NA,NA,NA,NA,""
"image-keyboard-response",131,212481,"0.0-3.40-0.40","0q5zzdyx5f32cdy","76.csv","","285.5","resources/trios/L1T2A3.jpg","37","restless",0.7,0.4,0.3,0.672325131640294,"true"
"image-keyboard-response",132,212888,"0.0-3.40-1.40","0q5zzdyx5f32cdy","76.csv","","null","resources/maskTrios/L1BB.jpg","null","",NA,NA,NA,NA,""
"image-keyboard-response",133,214091,"0.0-3.40-2.40","0q5zzdyx5f32cdy","76.csv","","null","resources/images/coin2.png","null","",NA,NA,NA,NA,""
"image-keyboard-response",134,214413,"0.0-3.41-0.41","0q5zzdyx5f32cdy","76.csv","","320.40000000596046","resources/trios/L1T2A2.jpg","37","restless",0.7,0.4,0.4,0.998090559354142,"false"
"image-keyboard-response",135,214819,"0.0-3.41-1.41","0q5zzdyx5f32cdy","76.csv","","null","resources/maskTrios/L1BB.jpg","null","",NA,NA,NA,NA,""
"image-keyboard-response",136,216023,"0.0-3.41-2.41","0q5zzdyx5f32cdy","76.csv","","null","resources/images/fishbone.png","null","",NA,NA,NA,NA,""
"image-keyboard-response",137,216448,"0.0-3.42-0.42","0q5zzdyx5f32cdy","76.csv","","422.19999998807907","resources/trios/L2T2A3.jpg","38","restless",0.7,0.4,0.4,0.337292933833701,"true"
"image-keyboard-response",138,216852,"0.0-3.42-1.42","0q5zzdyx5f32cdy","76.csv","","null","resources/maskTrios/BT2B.jpg","null","",NA,NA,NA,NA,""
"image-keyboard-response",139,218059,"0.0-3.42-2.42","0q5zzdyx5f32cdy","76.csv","","null","resources/images/coin2.png","null","",NA,NA,NA,NA,""
"image-keyboard-response",140,218785,"0.0-3.43-0.43","0q5zzdyx5f32cdy","76.csv","","723.5","resources/trios/L1T2A2.jpg","38","restless",0.7,0.4,0.4,0.906133842767349,"false"
"image-keyboard-response",141,219192,"0.0-3.43-1.43","0q5zzdyx5f32cdy","76.csv","","null","resources/maskTrios/BT2B.jpg","null","",NA,NA,NA,NA,""
"image-keyboard-response",142,220399,"0.0-3.43-2.43","0q5zzdyx5f32cdy","76.csv","","null","resources/images/fishbone.png","null","",NA,NA,NA,NA,""
"image-keyboard-response",143,220450,"0.0-3.44-0.44","0q5zzdyx5f32cdy","76.csv","","48.69999998807907","resources/trios/L1T2A3.jpg","37","restless",0.7,0.4,0.4,0.399986695604259,"true"
"image-keyboard-response",144,220857,"0.0-3.44-1.44","0q5zzdyx5f32cdy","76.csv","","null","resources/maskTrios/L1BB.jpg","null","",NA,NA,NA,NA,""
"image-keyboard-response",145,222064,"0.0-3.44-2.44","0q5zzdyx5f32cdy","76.csv","","null","resources/images/coin2.png","null","",NA,NA,NA,NA,""
"image-keyboard-response",146,222465,"0.0-3.45-0.45","0q5zzdyx5f32cdy","76.csv","","398.2999999821186","resources/trios/L1T2A2.jpg","37","restless",0.7,0.4,0.4,0.551036098567316,"true"
"image-keyboard-response",147,222869,"0.0-3.45-1.45","0q5zzdyx5f32cdy","76.csv","","null","resources/maskTrios/L1BB.jpg","null","",NA,NA,NA,NA,""
"image-keyboard-response",148,224076,"0.0-3.45-2.45","0q5zzdyx5f32cdy","76.csv","","null","resources/images/coin2.png","null","",NA,NA,NA,NA,""
"image-keyboard-response",149,224514,"0.0-3.46-0.46","0q5zzdyx5f32cdy","76.csv","","436.30000001192093","resources/trios/L1T2A2.jpg","37","restless",0.7,0.4,0.4,0.405141444290731,"true"
"image-keyboard-response",150,224922,"0.0-3.46-1.46","0q5zzdyx5f32cdy","76.csv","","null","resources/maskTrios/L1BB.jpg","null","",NA,NA,NA,NA,""
"image-keyboard-response",151,226129,"0.0-3.46-2.46","0q5zzdyx5f32cdy","76.csv","","null","resources/images/coin2.png","null","",NA,NA,NA,NA,""
"image-keyboard-response",152,227338,"0.0-3.47-0.47","0q5zzdyx5f32cdy","76.csv","","1206.5","resources/trios/L2T4A2.jpg","37","restless",0.7,0.4,0.4,0.761297507710975,"false"
"image-keyboard-response",153,227741,"0.0-3.47-1.47","0q5zzdyx5f32cdy","76.csv","","null","resources/maskTrios/L2BB.jpg","null","",NA,NA,NA,NA,""
"image-keyboard-response",154,228947,"0.0-3.47-2.47","0q5zzdyx5f32cdy","76.csv","","null","resources/images/fishbone.png","null","",NA,NA,NA,NA,""
"image-keyboard-response",155,229847,"0.0-3.48-0.48","0q5zzdyx5f32cdy","76.csv","","897.0999999940395","resources/trios/L1T2A3.jpg","38","restless",0.7,0.4,0.4,0.740856215395232,"false"
"image-keyboard-response",156,230251,"0.0-3.48-1.48","0q5zzdyx5f32cdy","76.csv","","null","resources/maskTrios/BT2B.jpg","null","",NA,NA,NA,NA,""
"image-keyboard-response",157,231457,"0.0-3.48-2.48","0q5zzdyx5f32cdy","76.csv","","null","resources/images/fishbone.png","null","",NA,NA,NA,NA,""
"image-keyboard-response",158,231883,"0.0-3.49-0.49","0q5zzdyx5f32cdy","76.csv","","423.80000001192093","resources/trios/L2T4A3.jpg","37","restless",0.7,0.5,0.4,0.325095921754638,"true"
"image-keyboard-response",159,232291,"0.0-3.49-1.49","0q5zzdyx5f32cdy","76.csv","","null","resources/maskTrios/L2BB.jpg","null","",NA,NA,NA,NA,""
"image-keyboard-response",160,233498,"0.0-3.49-2.49","0q5zzdyx5f32cdy","76.csv","","null","resources/images/coin2.png","null","",NA,NA,NA,NA,""
"image-keyboard-response",161,234105,"0.0-3.50-0.50","0q5zzdyx5f32cdy","76.csv","","605.5","resources/trios/L2T4A2.jpg","39","restless",0.7,0.4,0.4,0.863410289815076,"false"
"image-keyboard-response",162,234509,"0.0-3.50-1.50","0q5zzdyx5f32cdy","76.csv","","null","resources/maskTrios/BBA2.jpg","null","",NA,NA,NA,NA,""
"image-keyboard-response",163,235716,"0.0-3.50-2.50","0q5zzdyx5f32cdy","76.csv","","null","resources/images/fishbone.png","null","",NA,NA,NA,NA,""
"image-keyboard-response",164,236018,"0.0-3.51-0.51","0q5zzdyx5f32cdy","76.csv","","300.30000001192093","resources/trios/L1T4A3.jpg","37","restless",0.7,0.4,0.4,0.369312627375541,"true"
"image-keyboard-response",165,236423,"0.0-3.51-1.51","0q5zzdyx5f32cdy","76.csv","","null","resources/maskTrios/L1BB.jpg","null","",NA,NA,NA,NA,""
"image-keyboard-response",166,237630,"0.0-3.51-2.51","0q5zzdyx5f32cdy","76.csv","","null","resources/images/coin2.png","null","",NA,NA,NA,NA,""
"image-keyboard-response",167,238061,"0.0-3.52-0.52","0q5zzdyx5f32cdy","76.csv","","429.5","resources/trios/L2T2A2.jpg","37","restless",0.7,0.4,0.4,0.0307151284945171,"true"
"image-keyboard-response",168,238469,"0.0-3.52-1.52","0q5zzdyx5f32cdy","76.csv","","null","resources/maskTrios/L2BB.jpg","null","",NA,NA,NA,NA,""
"image-keyboard-response",169,239673,"0.0-3.52-2.52","0q5zzdyx5f32cdy","76.csv","","null","resources/images/coin2.png","null","",NA,NA,NA,NA,""
"image-keyboard-response",170,239687,"0.0-3.53-0.53","0q5zzdyx5f32cdy","76.csv","","12.199999988079071","resources/trios/L1T2A3.jpg","38","restless",0.7,0.4,0.4,0.586763694256185,"false"
"image-keyboard-response",171,240090,"0.0-3.53-1.53","0q5zzdyx5f32cdy","76.csv","","null","resources/maskTrios/BT2B.jpg","null","",NA,NA,NA,NA,""
"image-keyboard-response",172,241295,"0.0-3.53-2.53","0q5zzdyx5f32cdy","76.csv","","null","resources/images/fishbone.png","null","",NA,NA,NA,NA,""
"image-keyboard-response",173,241532,"0.0-3.54-0.54","0q5zzdyx5f32cdy","76.csv","","235.09999999403954","resources/trios/L2T4A2.jpg","37","restless",0.7,0.4,0.4,0.951044740989542,"false"
"image-keyboard-response",174,241940,"0.0-3.54-1.54","0q5zzdyx5f32cdy","76.csv","","null","resources/maskTrios/L2BB.jpg","null","",NA,NA,NA,NA,""
"image-keyboard-response",175,243147,"0.0-3.54-2.54","0q5zzdyx5f32cdy","76.csv","","null","resources/images/fishbone.png","null","",NA,NA,NA,NA,""
"image-keyboard-response",176,243772,"0.0-3.55-0.55","0q5zzdyx5f32cdy","76.csv","","621.9000000059605","resources/trios/L2T2A3.jpg","39","restless",0.7,0.4,0.4,0.816098528665417,"false"
"image-keyboard-response",177,244178,"0.0-3.55-1.55","0q5zzdyx5f32cdy","76.csv","","null","resources/maskTrios/BBA3.jpg","null","",NA,NA,NA,NA,""
"image-keyboard-response",178,245383,"0.0-3.55-2.55","0q5zzdyx5f32cdy","76.csv","","null","resources/images/fishbone.png","null","",NA,NA,NA,NA,""
"image-keyboard-response",179,246004,"0.0-3.56-0.56","0q5zzdyx5f32cdy","76.csv","","619","resources/trios/L1T4A2.jpg","38","restless",0.7,0.4,0.4,0.0622586818025694,"true"
"image-keyboard-response",180,246412,"0.0-3.56-1.56","0q5zzdyx5f32cdy","76.csv","","null","resources/maskTrios/BT4B.jpg","null","",NA,NA,NA,NA,""
"image-keyboard-response",181,247619,"0.0-3.56-2.56","0q5zzdyx5f32cdy","76.csv","","null","resources/images/coin2.png","null","",NA,NA,NA,NA,""
"image-keyboard-response",182,248601,"0.0-3.57-0.57","0q5zzdyx5f32cdy","76.csv","","980","resources/trios/L1T2A2.jpg","38","restless",0.7,0.4,0.4,0.861535417284388,"false"
"image-keyboard-response",183,249008,"0.0-3.57-1.57","0q5zzdyx5f32cdy","76.csv","","null","resources/maskTrios/BT2B.jpg","null","",NA,NA,NA,NA,""
"image-keyboard-response",184,250213,"0.0-3.57-2.57","0q5zzdyx5f32cdy","76.csv","","null","resources/images/fishbone.png","null","",NA,NA,NA,NA,""
"image-keyboard-response",185,250503,"0.0-3.58-0.58","0q5zzdyx5f32cdy","76.csv","","288.40000000596046","resources/trios/L2T2A3.jpg","37","restless",0.7,0.4,0.4,0.94069595704679,"false"
"image-keyboard-response",186,250911,"0.0-3.58-1.58","0q5zzdyx5f32cdy","76.csv","","null","resources/maskTrios/L2BB.jpg","null","",NA,NA,NA,NA,""
"image-keyboard-response",187,252113,"0.0-3.58-2.58","0q5zzdyx5f32cdy","76.csv","","null","resources/images/fishbone.png","null","",NA,NA,NA,NA,""
"image-keyboard-response",188,252469,"0.0-3.59-0.59","0q5zzdyx5f32cdy","76.csv","","353.80000001192093","resources/trios/L2T4A3.jpg","39","restless",0.6,0.4,0.4,0.702644897005866,"false"
"image-keyboard-response",189,252873,"0.0-3.59-1.59","0q5zzdyx5f32cdy","76.csv","","null","resources/maskTrios/BBA3.jpg","null","",NA,NA,NA,NA,""
"image-keyboard-response",190,254080,"0.0-3.59-2.59","0q5zzdyx5f32cdy","76.csv","","null","resources/images/fishbone.png","null","",NA,NA,NA,NA,""
"image-keyboard-response",191,254368,"0.0-3.60-0.60","0q5zzdyx5f32cdy","76.csv","","286.10000002384186","resources/trios/L1T2A3.jpg","37","restless",0.6,0.4,0.4,0.600512766830441,"false"
"image-keyboard-response",192,254775,"0.0-3.60-1.60","0q5zzdyx5f32cdy","76.csv","","null","resources/maskTrios/L1BB.jpg","null","",NA,NA,NA,NA,""
"image-keyboard-response",193,255982,"0.0-3.60-2.60","0q5zzdyx5f32cdy","76.csv","","null","resources/images/fishbone.png","null","",NA,NA,NA,NA,""
"image-keyboard-response",194,256453,"0.0-3.61-0.61","0q5zzdyx5f32cdy","76.csv","","468.7000000178814","resources/trios/L1T2A2.jpg","38","restless",0.6,0.4,0.4,0.188021485791532,"true"
"image-keyboard-response",195,256859,"0.0-3.61-1.61","0q5zzdyx5f32cdy","76.csv","","null","resources/maskTrios/BT2B.jpg","null","",NA,NA,NA,NA,""
"image-keyboard-response",196,258065,"0.0-3.61-2.61","0q5zzdyx5f32cdy","76.csv","","null","resources/images/coin2.png","null","",NA,NA,NA,NA,""
"image-keyboard-response",197,258317,"0.0-3.62-0.62","0q5zzdyx5f32cdy","76.csv","","249.5","resources/trios/L1T4A2.jpg","38","restless",0.6,0.4,0.3,0.715513579491004,"false"
"image-keyboard-response",198,258724,"0.0-3.62-1.62","0q5zzdyx5f32cdy","76.csv","","null","resources/maskTrios/BT4B.jpg","null","",NA,NA,NA,NA,""
"image-keyboard-response",199,259931,"0.0-3.62-2.62","0q5zzdyx5f32cdy","76.csv","","null","resources/images/fishbone.png","null","",NA,NA,NA,NA,""
"image-keyboard-response",200,260224,"0.0-3.63-0.63","0q5zzdyx5f32cdy","76.csv","","291.30000001192093","resources/trios/L2T4A3.jpg","37","restless",0.5,0.4,0.3,0.801761827386194,"false"
"image-keyboard-response",201,260631,"0.0-3.63-1.63","0q5zzdyx5f32cdy","76.csv","","null","resources/maskTrios/L2BB.jpg","null","",NA,NA,NA,NA,""
"image-keyboard-response",202,261833,"0.0-3.63-2.63","0q5zzdyx5f32cdy","76.csv","","null","resources/images/fishbone.png","null","",NA,NA,NA,NA,""
"image-keyboard-response",203,262078,"0.0-3.64-0.64","0q5zzdyx5f32cdy","76.csv","","242.30000001192093","resources/trios/L2T4A2.jpg","37","restless",0.5,0.4,0.3,0.161044721724005,"true"
"image-keyboard-response",204,262482,"0.0-3.64-1.64","0q5zzdyx5f32cdy","76.csv","","null","resources/maskTrios/L2BB.jpg","null","",NA,NA,NA,NA,""
"image-keyboard-response",205,263687,"0.0-3.64-2.64","0q5zzdyx5f32cdy","76.csv","","null","resources/images/coin2.png","null","",NA,NA,NA,NA,""
"image-keyboard-response",206,263973,"0.0-3.65-0.65","0q5zzdyx5f32cdy","76.csv","","283.09999999403954","resources/trios/L1T2A2.jpg","37","restless",0.6,0.4,0.3,0.380583451480482,"true"
"image-keyboard-response",207,264380,"0.0-3.65-1.65","0q5zzdyx5f32cdy","76.csv","","null","resources/maskTrios/L1BB.jpg","null","",NA,NA,NA,NA,""
"image-keyboard-response",208,265587,"0.0-3.65-2.65","0q5zzdyx5f32cdy","76.csv","","null","resources/images/coin2.png","null","",NA,NA,NA,NA,""
"image-keyboard-response",209,265716,"0.0-3.66-0.66","0q5zzdyx5f32cdy","76.csv","","126.7000000178814","resources/trios/L1T4A3.jpg","37","restless",0.6,0.4,0.3,0.454808027631397,"true"
"image-keyboard-response",210,266120,"0.0-3.66-1.66","0q5zzdyx5f32cdy","76.csv","","null","resources/maskTrios/L1BB.jpg","null","",NA,NA,NA,NA,""
"image-keyboard-response",211,267326,"0.0-3.66-2.66","0q5zzdyx5f32cdy","76.csv","","null","resources/images/coin2.png","null","",NA,NA,NA,NA,""
"image-keyboard-response",212,267539,"0.0-3.67-0.67","0q5zzdyx5f32cdy","76.csv","","210.59999999403954","resources/trios/L1T4A2.jpg","37","restless",0.6,0.4,0.3,0.171236770346906,"true"
"image-keyboard-response",213,267946,"0.0-3.67-1.67","0q5zzdyx5f32cdy","76.csv","","null","resources/maskTrios/L1BB.jpg","null","",NA,NA,NA,NA,""
"image-keyboard-response",214,269149,"0.0-3.67-2.67","0q5zzdyx5f32cdy","76.csv","","null","resources/images/coin2.png","null","",NA,NA,NA,NA,""
"image-keyboard-response",215,269432,"0.0-3.68-0.68","0q5zzdyx5f32cdy","76.csv","","280.59999999403954","resources/trios/L1T4A2.jpg","37","restless",0.6,0.4,0.3,0.408951665479457,"true"
"image-keyboard-response",216,269838,"0.0-3.68-1.68","0q5zzdyx5f32cdy","76.csv","","null","resources/maskTrios/L1BB.jpg","null","",NA,NA,NA,NA,""
"image-keyboard-response",217,271040,"0.0-3.68-2.68","0q5zzdyx5f32cdy","76.csv","","null","resources/images/coin2.png","null","",NA,NA,NA,NA,""
"image-keyboard-response",218,271497,"0.0-3.69-0.69","0q5zzdyx5f32cdy","76.csv","","454.59999999403954","resources/trios/L2T2A2.jpg","37","restless",0.6,0.4,0.3,0.136433470707787,"true"
"image-keyboard-response",219,271904,"0.0-3.69-1.69","0q5zzdyx5f32cdy","76.csv","","null","resources/maskTrios/L2BB.jpg","null","",NA,NA,NA,NA,""
"image-keyboard-response",220,273111,"0.0-3.69-2.69","0q5zzdyx5f32cdy","76.csv","","null","resources/images/coin2.png","null","",NA,NA,NA,NA,""
"image-keyboard-response",221,273209,"0.0-3.70-0.70","0q5zzdyx5f32cdy","76.csv","","95.40000000596046","resources/trios/L2T4A2.jpg","37","restless",0.5,0.4,0.3,0.13729083076193,"true"
"image-keyboard-response",222,273616,"0.0-3.70-1.70","0q5zzdyx5f32cdy","76.csv","","null","resources/maskTrios/L2BB.jpg","null","",NA,NA,NA,NA,""
"image-keyboard-response",223,274823,"0.0-3.70-2.70","0q5zzdyx5f32cdy","76.csv","","null","resources/images/coin2.png","null","",NA,NA,NA,NA,""
"image-keyboard-response",224,275047,"0.0-3.71-0.71","0q5zzdyx5f32cdy","76.csv","","221","resources/trios/L1T4A3.jpg","37","restless",0.5,0.4,0.3,0.571594826338977,"false"
"image-keyboard-response",225,275450,"0.0-3.71-1.71","0q5zzdyx5f32cdy","76.csv","","null","resources/maskTrios/L1BB.jpg","null","",NA,NA,NA,NA,""
"image-keyboard-response",226,276652,"0.0-3.71-2.71","0q5zzdyx5f32cdy","76.csv","","null","resources/images/fishbone.png","null","",NA,NA,NA,NA,""
"image-keyboard-response",227,276898,"0.0-3.72-0.72","0q5zzdyx5f32cdy","76.csv","","244.40000000596046","resources/trios/L2T4A2.jpg","38","restless",0.5,0.4,0.3,0.338706162225995,"true"
"image-keyboard-response",228,277306,"0.0-3.72-1.72","0q5zzdyx5f32cdy","76.csv","","null","resources/maskTrios/BT4B.jpg","null","",NA,NA,NA,NA,""
"image-keyboard-response",229,278509,"0.0-3.72-2.72","0q5zzdyx5f32cdy","76.csv","","null","resources/images/coin2.png","null","",NA,NA,NA,NA,""
"image-keyboard-response",230,278771,"0.0-3.73-0.73","0q5zzdyx5f32cdy","76.csv","","258.80000001192093","resources/trios/L1T4A2.jpg","38","restless",0.5,0.4,0.3,0.436383402414356,"false"
"image-keyboard-response",231,279178,"0.0-3.73-1.73","0q5zzdyx5f32cdy","76.csv","","null","resources/maskTrios/BT4B.jpg","null","",NA,NA,NA,NA,""
"image-keyboard-response",232,280382,"0.0-3.73-2.73","0q5zzdyx5f32cdy","76.csv","","null","resources/images/fishbone.png","null","",NA,NA,NA,NA,""
"image-keyboard-response",233,280627,"0.0-3.74-0.74","0q5zzdyx5f32cdy","76.csv","","242.90000000596046","resources/trios/L2T4A2.jpg","37","restless",0.5,0.4,0.4,0.150008997986619,"true"
"image-keyboard-response",234,281031,"0.0-3.74-1.74","0q5zzdyx5f32cdy","76.csv","","null","resources/maskTrios/L2BB.jpg","null","",NA,NA,NA,NA,""
"image-keyboard-response",235,282238,"0.0-3.74-2.74","0q5zzdyx5f32cdy","76.csv","","null","resources/images/coin2.png","null","",NA,NA,NA,NA,""
"image-keyboard-response",236,282419,"0.0-3.75-0.75","0q5zzdyx5f32cdy","76.csv","","179.2000000178814","resources/trios/L2T4A3.jpg","37","restless",0.5,0.4,0.4,0.0800571327818136,"true"
"image-keyboard-response",237,282827,"0.0-3.75-1.75","0q5zzdyx5f32cdy","76.csv","","null","resources/maskTrios/L2BB.jpg","null","",NA,NA,NA,NA,""
"image-keyboard-response",238,284031,"0.0-3.75-2.75","0q5zzdyx5f32cdy","76.csv","","null","resources/images/coin2.png","null","",NA,NA,NA,NA,""
"image-keyboard-response",239,284318,"0.0-3.76-0.76","0q5zzdyx5f32cdy","76.csv","","285.19999998807907","resources/trios/L2T4A2.jpg","37","restless",0.5,0.4,0.4,0.0397335270902808,"true"
"image-keyboard-response",240,284726,"0.0-3.76-1.76","0q5zzdyx5f32cdy","76.csv","","null","resources/maskTrios/L2BB.jpg","null","",NA,NA,NA,NA,""
"image-keyboard-response",241,285930,"0.0-3.76-2.76","0q5zzdyx5f32cdy","76.csv","","null","resources/images/coin2.png","null","",NA,NA,NA,NA,""
"image-keyboard-response",242,286196,"0.0-3.77-0.77","0q5zzdyx5f32cdy","76.csv","","263.7000000178814","resources/trios/L2T2A2.jpg","37","restless",0.5,0.4,0.4,0.420450182907383,"true"
"image-keyboard-response",243,286604,"0.0-3.77-1.77","0q5zzdyx5f32cdy","76.csv","","null","resources/maskTrios/L2BB.jpg","null","",NA,NA,NA,NA,""
"image-keyboard-response",244,287811,"0.0-3.77-2.77","0q5zzdyx5f32cdy","76.csv","","null","resources/images/coin2.png","null","",NA,NA,NA,NA,""
"image-keyboard-response",245,287988,"0.0-3.78-0.78","0q5zzdyx5f32cdy","76.csv","","175","resources/trios/L2T4A3.jpg","37","restless",0.5,0.4,0.4,0.0744736944242073,"true"
"image-keyboard-response",246,288397,"0.0-3.78-1.78","0q5zzdyx5f32cdy","76.csv","","null","resources/maskTrios/L2BB.jpg","null","",NA,NA,NA,NA,""
"image-keyboard-response",247,289604,"0.0-3.78-2.78","0q5zzdyx5f32cdy","76.csv","","null","resources/images/coin2.png","null","",NA,NA,NA,NA,""
"image-keyboard-response",248,289882,"0.0-3.79-0.79","0q5zzdyx5f32cdy","76.csv","","275.7000000178814","resources/trios/L2T4A3.jpg","37","restless",0.6,0.4,0.5,0.195204132178735,"true"
"image-keyboard-response",249,290289,"0.0-3.79-1.79","0q5zzdyx5f32cdy","76.csv","","null","resources/maskTrios/L2BB.jpg","null","",NA,NA,NA,NA,""
"image-keyboard-response",250,291496,"0.0-3.79-2.79","0q5zzdyx5f32cdy","76.csv","","null","resources/images/coin2.png","null","",NA,NA,NA,NA,""
"image-keyboard-response",251,291840,"0.0-3.80-0.80","0q5zzdyx5f32cdy","76.csv","","342","resources/trios/L1T2A2.jpg","37","restless",0.6,0.4,0.5,0.654159991439832,"false"
"image-keyboard-response",252,292248,"0.0-3.80-1.80","0q5zzdyx5f32cdy","76.csv","","null","resources/maskTrios/L1BB.jpg","null","",NA,NA,NA,NA,""
"image-keyboard-response",253,293454,"0.0-3.80-2.80","0q5zzdyx5f32cdy","76.csv","","null","resources/images/fishbone.png","null","",NA,NA,NA,NA,""
"image-keyboard-response",254,293709,"0.0-3.81-0.81","0q5zzdyx5f32cdy","76.csv","","252.40000000596046","resources/trios/L1T2A2.jpg","38","restless",0.6,0.4,0.5,0.144137338057542,"true"
"image-keyboard-response",255,294116,"0.0-3.81-1.81","0q5zzdyx5f32cdy","76.csv","","null","resources/maskTrios/BT2B.jpg","null","",NA,NA,NA,NA,""
"image-keyboard-response",256,295324,"0.0-3.81-2.81","0q5zzdyx5f32cdy","76.csv","","null","resources/images/coin2.png","null","",NA,NA,NA,NA,""
"image-keyboard-response",257,295597,"0.0-3.82-0.82","0q5zzdyx5f32cdy","76.csv","","270.39999997615814","resources/trios/L1T4A2.jpg","38","restless",0.7,0.4,0.5,0.247148095655431,"true"
"image-keyboard-response",258,296004,"0.0-3.82-1.82","0q5zzdyx5f32cdy","76.csv","","null","resources/maskTrios/BT4B.jpg","null","",NA,NA,NA,NA,""
"image-keyboard-response",259,297211,"0.0-3.82-2.82","0q5zzdyx5f32cdy","76.csv","","null","resources/images/coin2.png","null","",NA,NA,NA,NA,""
"image-keyboard-response",260,297370,"0.0-3.83-0.83","0q5zzdyx5f32cdy","76.csv","","157.39999997615814","resources/trios/L1T4A3.jpg","38","restless",0.7,0.4,0.5,0.183758050394728,"true"
"image-keyboard-response",261,297775,"0.0-3.83-1.83","0q5zzdyx5f32cdy","76.csv","","null","resources/maskTrios/BT4B.jpg","null","",NA,NA,NA,NA,""
"image-keyboard-response",262,298981,"0.0-3.83-2.83","0q5zzdyx5f32cdy","76.csv","","null","resources/images/coin2.png","null","",NA,NA,NA,NA,""
"image-keyboard-response",263,299425,"0.0-3.84-0.84","0q5zzdyx5f32cdy","76.csv","","442.40000000596046","resources/trios/L2T4A2.jpg","38","restless",0.7,0.4,0.5,0.962466538279737,"false"
"image-keyboard-response",264,299832,"0.0-3.84-1.84","0q5zzdyx5f32cdy","76.csv","","null","resources/maskTrios/BT4B.jpg","null","",NA,NA,NA,NA,""
"image-keyboard-response",265,301038,"0.0-3.84-2.84","0q5zzdyx5f32cdy","76.csv","","null","resources/images/fishbone.png","null","",NA,NA,NA,NA,""
"image-keyboard-response",266,301331,"0.0-3.85-0.85","0q5zzdyx5f32cdy","76.csv","","290.40000000596046","resources/trios/L2T4A3.jpg","37","restless",0.7,0.4,0.5,0.43445746140121,"true"
"image-keyboard-response",267,301734,"0.0-3.85-1.85","0q5zzdyx5f32cdy","76.csv","","null","resources/maskTrios/L2BB.jpg","null","",NA,NA,NA,NA,""
"image-keyboard-response",268,302941,"0.0-3.85-2.85","0q5zzdyx5f32cdy","76.csv","","null","resources/images/coin2.png","null","",NA,NA,NA,NA,""
"image-keyboard-response",269,303329,"0.0-3.86-0.86","0q5zzdyx5f32cdy","76.csv","","385.7000000178814","resources/trios/L1T4A3.jpg","37","restless",0.7,0.4,0.5,0.863701461852721,"false"
"image-keyboard-response",270,303734,"0.0-3.86-1.86","0q5zzdyx5f32cdy","76.csv","","null","resources/maskTrios/L1BB.jpg","null","",NA,NA,NA,NA,""
"image-keyboard-response",271,304941,"0.0-3.86-2.86","0q5zzdyx5f32cdy","76.csv","","null","resources/images/fishbone.png","null","",NA,NA,NA,NA,""
"image-keyboard-response",272,305242,"0.0-3.87-0.87","0q5zzdyx5f32cdy","76.csv","","299.10000002384186","resources/trios/L1T4A3.jpg","38","restless",0.7,0.4,0.5,0.751691495267451,"false"
"image-keyboard-response",273,305649,"0.0-3.87-1.87","0q5zzdyx5f32cdy","76.csv","","null","resources/maskTrios/BT4B.jpg","null","",NA,NA,NA,NA,""
"image-keyboard-response",274,306856,"0.0-3.87-2.87","0q5zzdyx5f32cdy","76.csv","","null","resources/images/fishbone.png","null","",NA,NA,NA,NA,""
"image-keyboard-response",275,307099,"0.0-3.88-0.88","0q5zzdyx5f32cdy","76.csv","","241","resources/trios/L1T4A2.jpg","37","restless",0.7,0.4,0.5,0.130824156140923,"true"
"image-keyboard-response",276,307506,"0.0-3.88-1.88","0q5zzdyx5f32cdy","76.csv","","null","resources/maskTrios/L1BB.jpg","null","",NA,NA,NA,NA,""
"image-keyboard-response",277,308712,"0.0-3.88-2.88","0q5zzdyx5f32cdy","76.csv","","null","resources/images/coin2.png","null","",NA,NA,NA,NA,""
"image-keyboard-response",278,308981,"0.0-3.89-0.89","0q5zzdyx5f32cdy","76.csv","","266.90000000596046","resources/trios/L2T2A2.jpg","37","restless",0.7,0.4,0.5,0.496400352795239,"true"
"image-keyboard-response",279,309388,"0.0-3.89-1.89","0q5zzdyx5f32cdy","76.csv","","null","resources/maskTrios/L2BB.jpg","null","",NA,NA,NA,NA,""
"image-keyboard-response",280,310595,"0.0-3.89-2.89","0q5zzdyx5f32cdy","76.csv","","null","resources/images/coin2.png","null","",NA,NA,NA,NA,""
"image-keyboard-response",281,310871,"0.0-3.90-0.90","0q5zzdyx5f32cdy","76.csv","","273.59999999403954","resources/trios/L1T4A3.jpg","37","restless",0.7,0.4,0.5,0.606893986357788,"true"
"image-keyboard-response",282,311273,"0.0-3.90-1.90","0q5zzdyx5f32cdy","76.csv","","null","resources/maskTrios/L1BB.jpg","null","",NA,NA,NA,NA,""
"image-keyboard-response",283,312476,"0.0-3.90-2.90","0q5zzdyx5f32cdy","76.csv","","null","resources/images/coin2.png","null","",NA,NA,NA,NA,""
"image-keyboard-response",284,312785,"0.0-3.91-0.91","0q5zzdyx5f32cdy","76.csv","","306.30000001192093","resources/trios/L1T2A3.jpg","37","restless",0.7,0.4,0.5,0.121229477898132,"true"
"image-keyboard-response",285,313192,"0.0-3.91-1.91","0q5zzdyx5f32cdy","76.csv","","null","resources/maskTrios/L1BB.jpg","null","",NA,NA,NA,NA,""
"image-keyboard-response",286,314395,"0.0-3.91-2.91","0q5zzdyx5f32cdy","76.csv","","null","resources/images/coin2.png","null","",NA,NA,NA,NA,""
"image-keyboard-response",287,314679,"0.0-3.92-0.92","0q5zzdyx5f32cdy","76.csv","","282.10000002384186","resources/trios/L1T2A2.jpg","37","restless",0.7,0.4,0.5,0.892523511134955,"false"
"image-keyboard-response",288,315083,"0.0-3.92-1.92","0q5zzdyx5f32cdy","76.csv","","null","resources/maskTrios/L1BB.jpg","null","",NA,NA,NA,NA,""
"image-keyboard-response",289,316290,"0.0-3.92-2.92","0q5zzdyx5f32cdy","76.csv","","null","resources/images/fishbone.png","null","",NA,NA,NA,NA,""
"image-keyboard-response",290,316607,"0.0-3.93-0.93","0q5zzdyx5f32cdy","76.csv","","314.80000001192093","resources/trios/L2T4A3.jpg","39","restless",0.7,0.4,0.5,0.325084732997772,"true"
"image-keyboard-response",291,317011,"0.0-3.93-1.93","0q5zzdyx5f32cdy","76.csv","","null","resources/maskTrios/BBA3.jpg","null","",NA,NA,NA,NA,""
"image-keyboard-response",292,318218,"0.0-3.93-2.93","0q5zzdyx5f32cdy","76.csv","","null","resources/images/coin2.png","null","",NA,NA,NA,NA,""
"image-keyboard-response",293,318573,"0.0-3.94-0.94","0q5zzdyx5f32cdy","76.csv","","353.40000000596046","resources/trios/L2T4A3.jpg","39","restless",0.7,0.5,0.5,0.0232575598577616,"true"
"image-keyboard-response",294,318977,"0.0-3.94-1.94","0q5zzdyx5f32cdy","76.csv","","null","resources/maskTrios/BBA3.jpg","null","",NA,NA,NA,NA,""
"image-keyboard-response",295,320184,"0.0-3.94-2.94","0q5zzdyx5f32cdy","76.csv","","null","resources/images/coin2.png","null","",NA,NA,NA,NA,""
"image-keyboard-response",296,320485,"0.0-3.95-0.95","0q5zzdyx5f32cdy","76.csv","","298.80000001192093","resources/trios/L2T2A2.jpg","39","restless",0.7,0.5,0.5,0.885413687892595,"false"
"image-keyboard-response",297,320891,"0.0-3.95-1.95","0q5zzdyx5f32cdy","76.csv","","null","resources/maskTrios/BBA2.jpg","null","",NA,NA,NA,NA,""
"image-keyboard-response",298,322092,"0.0-3.95-2.95","0q5zzdyx5f32cdy","76.csv","","null","resources/images/fishbone.png","null","",NA,NA,NA,NA,""
"image-keyboard-response",299,322279,"0.0-3.96-0.96","0q5zzdyx5f32cdy","76.csv","","185.39999997615814","resources/trios/L2T4A3.jpg","38","restless",0.7,0.5,0.5,0.464073932567591,"true"
"image-keyboard-response",300,322685,"0.0-3.96-1.96","0q5zzdyx5f32cdy","76.csv","","null","resources/maskTrios/BT4B.jpg","null","",NA,NA,NA,NA,""
"image-keyboard-response",301,323889,"0.0-3.96-2.96","0q5zzdyx5f32cdy","76.csv","","null","resources/images/coin2.png","null","",NA,NA,NA,NA,""
"image-keyboard-response",302,324096,"0.0-3.97-0.97","0q5zzdyx5f32cdy","76.csv","","204.7999999821186","resources/trios/L2T4A2.jpg","38","restless",0.7,0.5,0.5,0.411123267797622,"true"
"image-keyboard-response",303,324503,"0.0-3.97-1.97","0q5zzdyx5f32cdy","76.csv","","null","resources/maskTrios/BT4B.jpg","null","",NA,NA,NA,NA,""
"image-keyboard-response",304,325710,"0.0-3.97-2.97","0q5zzdyx5f32cdy","76.csv","","null","resources/images/coin2.png","null","",NA,NA,NA,NA,""
"image-keyboard-response",305,325832,"0.0-3.98-0.98","0q5zzdyx5f32cdy","76.csv","","120","resources/trios/L2T2A2.jpg","38","restless",0.7,0.5,0.5,0.690485527890923,"false"
"image-keyboard-response",306,326235,"0.0-3.98-1.98","0q5zzdyx5f32cdy","76.csv","","null","resources/maskTrios/BT2B.jpg","null","",NA,NA,NA,NA,""
"image-keyboard-response",307,327442,"0.0-3.98-2.98","0q5zzdyx5f32cdy","76.csv","","null","resources/images/fishbone.png","null","",NA,NA,NA,NA,""
"image-keyboard-response",308,327720,"0.0-3.99-0.99","0q5zzdyx5f32cdy","76.csv","","276.80000001192093","resources/trios/L2T2A2.jpg","38","restless",0.7,0.5,0.5,0.912891850975709,"false"
"image-keyboard-response",309,328125,"0.0-3.99-1.99","0q5zzdyx5f32cdy","76.csv","","null","resources/maskTrios/BT2B.jpg","null","",NA,NA,NA,NA,""
"image-keyboard-response",310,329328,"0.0-3.99-2.99","0q5zzdyx5f32cdy","76.csv","","null","resources/images/fishbone.png","null","",NA,NA,NA,NA,""
"image-keyboard-response",311,329760,"0.0-3.100-0.100","0q5zzdyx5f32cdy","76.csv","","429.2999999821186","resources/trios/L1T2A3.jpg","37","restless",0.7,0.5,0.5,0.498112030005218,"true"
"image-keyboard-response",312,330167,"0.0-3.100-1.100","0q5zzdyx5f32cdy","76.csv","","null","resources/maskTrios/L1BB.jpg","null","",NA,NA,NA,NA,""
"image-keyboard-response",313,331374,"0.0-3.100-2.100","0q5zzdyx5f32cdy","76.csv","","null","resources/images/coin2.png","null","",NA,NA,NA,NA,""
"image-keyboard-response",314,331531,"0.0-3.101-0.101","0q5zzdyx5f32cdy","76.csv","","154.59999999403954","resources/trios/L2T4A2.jpg","37","restless",0.7,0.5,0.5,0.71564748594276,"false"
"image-keyboard-response",315,331938,"0.0-3.101-1.101","0q5zzdyx5f32cdy","76.csv","","null","resources/maskTrios/L2BB.jpg","null","",NA,NA,NA,NA,""
"image-keyboard-response",316,333141,"0.0-3.101-2.101","0q5zzdyx5f32cdy","76.csv","","null","resources/images/fishbone.png","null","",NA,NA,NA,NA,""
"image-keyboard-response",317,333318,"0.0-3.102-0.102","0q5zzdyx5f32cdy","76.csv","","175.59999999403954","resources/trios/L1T2A3.jpg","38","restless",0.7,0.5,0.5,0.684317117725921,"false"
"image-keyboard-response",318,333725,"0.0-3.102-1.102","0q5zzdyx5f32cdy","76.csv","","null","resources/maskTrios/BT2B.jpg","null","",NA,NA,NA,NA,""
"image-keyboard-response",319,334931,"0.0-3.102-2.102","0q5zzdyx5f32cdy","76.csv","","null","resources/images/fishbone.png","null","",NA,NA,NA,NA,""
"image-keyboard-response",320,335031,"0.0-3.103-0.103","0q5zzdyx5f32cdy","76.csv","","97.90000000596046","resources/trios/L1T2A3.jpg","38","restless",0.6,0.5,0.4,0.319444178167735,"true"
"image-keyboard-response",321,335438,"0.0-3.103-1.103","0q5zzdyx5f32cdy","76.csv","","null","resources/maskTrios/BT2B.jpg","null","",NA,NA,NA,NA,""
"image-keyboard-response",322,336641,"0.0-3.103-2.103","0q5zzdyx5f32cdy","76.csv","","null","resources/images/coin2.png","null","",NA,NA,NA,NA,""
"image-keyboard-response",323,336695,"0.0-3.104-0.104","0q5zzdyx5f32cdy","76.csv","","52.5","resources/trios/L2T2A2.jpg","38","restless",0.6,0.5,0.4,0.126335598698358,"true"
"image-keyboard-response",324,337102,"0.0-3.104-1.104","0q5zzdyx5f32cdy","76.csv","","null","resources/maskTrios/BT2B.jpg","null","",NA,NA,NA,NA,""
"image-keyboard-response",325,338305,"0.0-3.104-2.104","0q5zzdyx5f32cdy","76.csv","","null","resources/images/coin2.png","null","",NA,NA,NA,NA,""
"image-keyboard-response",326,338479,"0.0-3.105-0.105","0q5zzdyx5f32cdy","76.csv","","172.19999998807907","resources/trios/L1T2A3.jpg","38","restless",0.6,0.5,0.4,0.989807106803695,"false"
"image-keyboard-response",327,338882,"0.0-3.105-1.105","0q5zzdyx5f32cdy","76.csv","","null","resources/maskTrios/BT2B.jpg","null","",NA,NA,NA,NA,""
"image-keyboard-response",328,340088,"0.0-3.105-2.105","0q5zzdyx5f32cdy","76.csv","","null","resources/images/fishbone.png","null","",NA,NA,NA,NA,""
"image-keyboard-response",329,340356,"0.0-3.106-0.106","0q5zzdyx5f32cdy","76.csv","","266.40000000596046","resources/trios/L1T4A2.jpg","37","restless",0.5,0.5,0.4,0.372714500550366,"true"
"image-keyboard-response",330,340759,"0.0-3.106-1.106","0q5zzdyx5f32cdy","76.csv","","null","resources/maskTrios/L1BB.jpg","null","",NA,NA,NA,NA,""
"image-keyboard-response",331,341963,"0.0-3.106-2.106","0q5zzdyx5f32cdy","76.csv","","null","resources/images/coin2.png","null","",NA,NA,NA,NA,""
"image-keyboard-response",332,341986,"0.0-3.107-0.107","0q5zzdyx5f32cdy","76.csv","","21","resources/trios/L1T4A3.jpg","37","restless",0.5,0.5,0.4,0.842045882729644,"false"
"image-keyboard-response",333,342393,"0.0-3.107-1.107","0q5zzdyx5f32cdy","76.csv","","null","resources/maskTrios/L1BB.jpg","null","",NA,NA,NA,NA,""
"image-keyboard-response",334,343599,"0.0-3.107-2.107","0q5zzdyx5f32cdy","76.csv","","null","resources/images/fishbone.png","null","",NA,NA,NA,NA,""
"image-keyboard-response",335,343897,"0.0-3.108-0.108","0q5zzdyx5f32cdy","76.csv","","295.5","resources/trios/L1T2A3.jpg","37","restless",0.5,0.5,0.4,0.107140883001376,"true"
"image-keyboard-response",336,344304,"0.0-3.108-1.108","0q5zzdyx5f32cdy","76.csv","","null","resources/maskTrios/L1BB.jpg","null","",NA,NA,NA,NA,""
"image-keyboard-response",337,345506,"0.0-3.108-2.108","0q5zzdyx5f32cdy","76.csv","","null","resources/images/coin2.png","null","",NA,NA,NA,NA,""
"image-keyboard-response",338,345566,"0.0-3.109-0.109","0q5zzdyx5f32cdy","76.csv","","58.10000002384186","resources/trios/L1T2A3.jpg","37","restless",0.5,0.5,0.4,0.0993620219416562,"true"
"image-keyboard-response",339,345969,"0.0-3.109-1.109","0q5zzdyx5f32cdy","76.csv","","null","resources/maskTrios/L1BB.jpg","null","",NA,NA,NA,NA,""
"image-keyboard-response",340,347174,"0.0-3.109-2.109","0q5zzdyx5f32cdy","76.csv","","null","resources/images/coin2.png","null","",NA,NA,NA,NA,""
"image-keyboard-response",341,347532,"0.0-3.110-0.110","0q5zzdyx5f32cdy","76.csv","","355.80000001192093","resources/trios/L2T2A3.jpg","37","restless",0.5,0.4,0.4,0.413358678396146,"true"
"image-keyboard-response",342,347939,"0.0-3.110-1.110","0q5zzdyx5f32cdy","76.csv","","null","resources/maskTrios/L2BB.jpg","null","",NA,NA,NA,NA,""
"image-keyboard-response",343,349146,"0.0-3.110-2.110","0q5zzdyx5f32cdy","76.csv","","null","resources/images/coin2.png","null","",NA,NA,NA,NA,""
"image-keyboard-response",344,349229,"0.0-3.111-0.111","0q5zzdyx5f32cdy","76.csv","","81.09999999403954","resources/trios/L2T4A2.jpg","39","restless",0.5,0.4,0.4,0.0919793266537197,"true"
"image-keyboard-response",345,349636,"0.0-3.111-1.111","0q5zzdyx5f32cdy","76.csv","","null","resources/maskTrios/BBA2.jpg","null","",NA,NA,NA,NA,""
"image-keyboard-response",346,350840,"0.0-3.111-2.111","0q5zzdyx5f32cdy","76.csv","","null","resources/images/coin2.png","null","",NA,NA,NA,NA,""
"image-keyboard-response",347,351483,"0.0-3.112-0.112","0q5zzdyx5f32cdy","76.csv","","640.5","resources/trios/L2T2A3.jpg","37","restless",0.5,0.4,0.4,0.883367826056989,"false"
"image-keyboard-response",348,351890,"0.0-3.112-1.112","0q5zzdyx5f32cdy","76.csv","","null","resources/maskTrios/L2BB.jpg","null","",NA,NA,NA,NA,""
"image-keyboard-response",349,353096,"0.0-3.112-2.112","0q5zzdyx5f32cdy","76.csv","","null","resources/images/fishbone.png","null","",NA,NA,NA,NA,""
"image-keyboard-response",350,353478,"0.0-3.113-0.113","0q5zzdyx5f32cdy","76.csv","","380.40000000596046","resources/trios/L2T4A2.jpg","39","restless",0.5,0.4,0.4,0.031114584162413,"true"
"image-keyboard-response",351,353884,"0.0-3.113-1.113","0q5zzdyx5f32cdy","76.csv","","null","resources/maskTrios/BBA2.jpg","null","",NA,NA,NA,NA,""
"image-keyboard-response",352,355091,"0.0-3.113-2.113","0q5zzdyx5f32cdy","76.csv","","null","resources/images/coin2.png","null","",NA,NA,NA,NA,""
"image-keyboard-response",353,355116,"0.0-3.114-0.114","0q5zzdyx5f32cdy","76.csv","","23.299999982118607","resources/trios/L1T4A3.jpg","39","restless",0.5,0.5,0.4,0.00691524561720258,"true"
"image-keyboard-response",354,355523,"0.0-3.114-1.114","0q5zzdyx5f32cdy","76.csv","","null","resources/maskTrios/BBA3.jpg","null","",NA,NA,NA,NA,""
"image-keyboard-response",355,356730,"0.0-3.114-2.114","0q5zzdyx5f32cdy","76.csv","","null","resources/images/coin2.png","null","",NA,NA,NA,NA,""
"image-keyboard-response",356,357384,"0.0-3.115-0.115","0q5zzdyx5f32cdy","76.csv","","652.5999999940395","resources/trios/L1T2A3.jpg","39","restless",0.5,0.5,0.3,0.237890743415994,"true"
"image-keyboard-response",357,357789,"0.0-3.115-1.115","0q5zzdyx5f32cdy","76.csv","","null","resources/maskTrios/BBA3.jpg","null","",NA,NA,NA,NA,""
"image-keyboard-response",358,358991,"0.0-3.115-2.115","0q5zzdyx5f32cdy","76.csv","","null","resources/images/coin2.png","null","",NA,NA,NA,NA,""
"image-keyboard-response",359,359094,"0.0-3.116-0.116","0q5zzdyx5f32cdy","76.csv","","100.5","resources/trios/L1T2A3.jpg","38","restless",0.5,0.5,0.4,0.819992513924313,"false"
"image-keyboard-response",360,359497,"0.0-3.116-1.116","0q5zzdyx5f32cdy","76.csv","","null","resources/maskTrios/BT2B.jpg","null","",NA,NA,NA,NA,""
"image-keyboard-response",361,360700,"0.0-3.116-2.116","0q5zzdyx5f32cdy","76.csv","","null","resources/images/fishbone.png","null","",NA,NA,NA,NA,""
"image-keyboard-response",362,360782,"0.0-3.117-0.117","0q5zzdyx5f32cdy","76.csv","","80.09999999403954","resources/trios/L1T4A3.jpg","37","restless",0.5,0.5,0.4,0.551478865683143,"false"
"image-keyboard-response",363,361189,"0.0-3.117-1.117","0q5zzdyx5f32cdy","76.csv","","null","resources/maskTrios/L1BB.jpg","null","",NA,NA,NA,NA,""
"image-keyboard-response",364,362396,"0.0-3.117-2.117","0q5zzdyx5f32cdy","76.csv","","null","resources/images/fishbone.png","null","",NA,NA,NA,NA,""
"image-keyboard-response",365,362778,"0.0-3.118-0.118","0q5zzdyx5f32cdy","76.csv","","380","resources/trios/L2T4A3.jpg","38","restless",0.5,0.5,0.4,0.0347319078269726,"true"
"image-keyboard-response",366,363185,"0.0-3.118-1.118","0q5zzdyx5f32cdy","76.csv","","null","resources/maskTrios/BT4B.jpg","null","",NA,NA,NA,NA,""
"image-keyboard-response",367,364391,"0.0-3.118-2.118","0q5zzdyx5f32cdy","76.csv","","null","resources/images/coin2.png","null","",NA,NA,NA,NA,""
"image-keyboard-response",368,364760,"0.0-3.119-0.119","0q5zzdyx5f32cdy","76.csv","","366.69999998807907","resources/trios/L2T4A3.jpg","39","restless",0.5,0.5,0.4,0.136487721521199,"true"
"image-keyboard-response",369,365167,"0.0-3.119-1.119","0q5zzdyx5f32cdy","76.csv","","null","resources/maskTrios/BBA3.jpg","null","",NA,NA,NA,NA,""
"image-keyboard-response",370,366374,"0.0-3.119-2.119","0q5zzdyx5f32cdy","76.csv","","null","resources/images/coin2.png","null","",NA,NA,NA,NA,""
"image-keyboard-response",371,366605,"0.0-3.120-0.120","0q5zzdyx5f32cdy","76.csv","","228.5","resources/trios/L2T4A2.jpg","38","restless",0.5,0.5,0.5,0.639519498009127,"false"
"image-keyboard-response",372,367010,"0.0-3.120-1.120","0q5zzdyx5f32cdy","76.csv","","null","resources/maskTrios/BT4B.jpg","null","",NA,NA,NA,NA,""
"image-keyboard-response",373,368217,"0.0-3.120-2.120","0q5zzdyx5f32cdy","76.csv","","null","resources/images/fishbone.png","null","",NA,NA,NA,NA,""
"image-keyboard-response",374,368361,"0.0-3.121-0.121","0q5zzdyx5f32cdy","76.csv","","142.40000000596046","resources/trios/L1T4A3.jpg","38","restless",0.5,0.5,0.5,0.688078435101499,"false"
"image-keyboard-response",375,368765,"0.0-3.121-1.121","0q5zzdyx5f32cdy","76.csv","","null","resources/maskTrios/BT4B.jpg","null","",NA,NA,NA,NA,""
"image-keyboard-response",376,369970,"0.0-3.121-2.121","0q5zzdyx5f32cdy","76.csv","","null","resources/images/fishbone.png","null","",NA,NA,NA,NA,""
"image-keyboard-response",377,369981,"0.0-3.122-0.122","0q5zzdyx5f32cdy","76.csv","","9.200000017881393","resources/trios/L1T4A3.jpg","37","restless",0.5,0.5,0.5,0.0443285589232418,"true"
"image-keyboard-response",378,370387,"0.0-3.122-1.122","0q5zzdyx5f32cdy","76.csv","","null","resources/maskTrios/L1BB.jpg","null","",NA,NA,NA,NA,""
"image-keyboard-response",379,371590,"0.0-3.122-2.122","0q5zzdyx5f32cdy","76.csv","","null","resources/images/coin2.png","null","",NA,NA,NA,NA,""
"image-keyboard-response",380,372217,"0.0-3.123-0.123","0q5zzdyx5f32cdy","76.csv","","625","resources/trios/L2T4A2.jpg","39","restless",0.5,0.5,0.5,0.619032081660046,"false"
"image-keyboard-response",381,372624,"0.0-3.123-1.123","0q5zzdyx5f32cdy","76.csv","","null","resources/maskTrios/BBA2.jpg","null","",NA,NA,NA,NA,""
"image-keyboard-response",382,373829,"0.0-3.123-2.123","0q5zzdyx5f32cdy","76.csv","","null","resources/images/fishbone.png","null","",NA,NA,NA,NA,""
"image-keyboard-response",383,374334,"0.0-3.124-0.124","0q5zzdyx5f32cdy","76.csv","","502.7999999821186","resources/trios/L1T2A3.jpg","37","restless",0.5,0.5,0.5,0.857545649117584,"false"
"image-keyboard-response",384,374739,"0.0-3.124-1.124","0q5zzdyx5f32cdy","76.csv","","null","resources/maskTrios/L1BB.jpg","null","",NA,NA,NA,NA,""
"image-keyboard-response",385,375946,"0.0-3.124-2.124","0q5zzdyx5f32cdy","76.csv","","null","resources/images/fishbone.png","null","",NA,NA,NA,NA,""
"image-keyboard-response",386,376546,"0.0-3.125-0.125","0q5zzdyx5f32cdy","76.csv","","598.4000000059605","resources/trios/L2T4A3.jpg","38","restless",0.5,0.5,0.5,0.279906430653785,"true"
"image-keyboard-response",387,376949,"0.0-3.125-1.125","0q5zzdyx5f32cdy","76.csv","","null","resources/maskTrios/BT4B.jpg","null","",NA,NA,NA,NA,""
"image-keyboard-response",388,378153,"0.0-3.125-2.125","0q5zzdyx5f32cdy","76.csv","","null","resources/images/coin2.png","null","",NA,NA,NA,NA,""
"image-keyboard-response",389,378582,"0.0-3.126-0.126","0q5zzdyx5f32cdy","76.csv","","426.90000000596046","resources/trios/L2T2A2.jpg","38","restless",0.5,0.5,0.5,0.124012339600123,"true"
"image-keyboard-response",390,378989,"0.0-3.126-1.126","0q5zzdyx5f32cdy","76.csv","","null","resources/maskTrios/BT2B.jpg","null","",NA,NA,NA,NA,""
"image-keyboard-response",391,380196,"0.0-3.126-2.126","0q5zzdyx5f32cdy","76.csv","","null","resources/images/coin2.png","null","",NA,NA,NA,NA,""
"image-keyboard-response",392,381067,"0.0-3.127-0.127","0q5zzdyx5f32cdy","76.csv","","868.5999999940395","resources/trios/L1T4A3.jpg","39","restless",0.5,0.5,0.5,0.888047531360192,"false"
"image-keyboard-response",393,381473,"0.0-3.127-1.127","0q5zzdyx5f32cdy","76.csv","","null","resources/maskTrios/BBA3.jpg","null","",NA,NA,NA,NA,""
"image-keyboard-response",394,382680,"0.0-3.127-2.127","0q5zzdyx5f32cdy","76.csv","","null","resources/images/fishbone.png","null","",NA,NA,NA,NA,""
"image-keyboard-response",395,383618,"0.0-3.128-0.128","0q5zzdyx5f32cdy","76.csv","","935.6999999880791","resources/trios/L1T2A2.jpg","38","restless",0.5,0.5,0.5,0.154340502810367,"true"
"image-keyboard-response",396,384022,"0.0-3.128-1.128","0q5zzdyx5f32cdy","76.csv","","null","resources/maskTrios/BT2B.jpg","null","",NA,NA,NA,NA,""
"image-keyboard-response",397,385225,"0.0-3.128-2.128","0q5zzdyx5f32cdy","76.csv","","null","resources/images/coin2.png","null","",NA,NA,NA,NA,""
"image-keyboard-response",398,386005,"0.0-3.129-0.129","0q5zzdyx5f32cdy","76.csv","","777.4000000059605","resources/trios/L2T2A2.jpg","38","restless",0.5,0.5,0.6,0.542445065651605,"false"
"image-keyboard-response",399,386407,"0.0-3.129-1.129","0q5zzdyx5f32cdy","76.csv","","null","resources/maskTrios/BT2B.jpg","null","",NA,NA,NA,NA,""
"image-keyboard-response",400,387614,"0.0-3.129-2.129","0q5zzdyx5f32cdy","76.csv","","null","resources/images/fishbone.png","null","",NA,NA,NA,NA,""
"image-keyboard-response",401,387795,"0.0-3.130-0.130","0q5zzdyx5f32cdy","76.csv","","179.30000001192093","resources/trios/L1T4A3.jpg","38","restless",0.5,0.5,0.6,0.427341777087648,"true"
"image-keyboard-response",402,388202,"0.0-3.130-1.130","0q5zzdyx5f32cdy","76.csv","","null","resources/maskTrios/BT4B.jpg","null","",NA,NA,NA,NA,""
"image-keyboard-response",403,389408,"0.0-3.130-2.130","0q5zzdyx5f32cdy","76.csv","","null","resources/images/coin2.png","null","",NA,NA,NA,NA,""
"image-keyboard-response",404,389552,"0.0-3.131-0.131","0q5zzdyx5f32cdy","76.csv","","141.80000001192093","resources/trios/L1T4A2.jpg","38","restless",0.5,0.5,0.6,0.616331522360646,"false"
"image-keyboard-response",405,389960,"0.0-3.131-1.131","0q5zzdyx5f32cdy","76.csv","","null","resources/maskTrios/BT4B.jpg","null","",NA,NA,NA,NA,""
"image-keyboard-response",406,391166,"0.0-3.131-2.131","0q5zzdyx5f32cdy","76.csv","","null","resources/images/fishbone.png","null","",NA,NA,NA,NA,""
"image-keyboard-response",407,391569,"0.0-3.132-0.132","0q5zzdyx5f32cdy","76.csv","","400.69999998807907","resources/trios/L1T4A2.jpg","37","restless",0.5,0.5,0.6,0.688502587568127,"false"
"image-keyboard-response",408,391976,"0.0-3.132-1.132","0q5zzdyx5f32cdy","76.csv","","null","resources/maskTrios/L1BB.jpg","null","",NA,NA,NA,NA,""
"image-keyboard-response",409,393182,"0.0-3.132-2.132","0q5zzdyx5f32cdy","76.csv","","null","resources/images/fishbone.png","null","",NA,NA,NA,NA,""
"image-keyboard-response",410,393967,"0.0-3.133-0.133","0q5zzdyx5f32cdy","76.csv","","782.4000000059605","resources/trios/L1T2A2.jpg","37","restless",0.5,0.5,0.7,0.276963563040389,"true"
"image-keyboard-response",411,394374,"0.0-3.133-1.133","0q5zzdyx5f32cdy","76.csv","","null","resources/maskTrios/L1BB.jpg","null","",NA,NA,NA,NA,""
"image-keyboard-response",412,395581,"0.0-3.133-2.133","0q5zzdyx5f32cdy","76.csv","","null","resources/images/coin2.png","null","",NA,NA,NA,NA,""
"image-keyboard-response",413,396631,"0.0-3.134-0.134","0q5zzdyx5f32cdy","76.csv","","1047.5999999940395","resources/trios/L2T4A2.jpg","37","restless",0.5,0.5,0.7,0.197153750800293,"true"
"image-keyboard-response",414,397035,"0.0-3.134-1.134","0q5zzdyx5f32cdy","76.csv","","null","resources/maskTrios/L2BB.jpg","null","",NA,NA,NA,NA,""
"image-keyboard-response",415,398238,"0.0-3.134-2.134","0q5zzdyx5f32cdy","76.csv","","null","resources/images/coin2.png","null","",NA,NA,NA,NA,""
"image-keyboard-response",416,400059,"0.0-3.135-0.135","0q5zzdyx5f32cdy","76.csv","","1819.7000000178814","resources/trios/L1T2A2.jpg","37","restless",0.5,0.5,0.7,0.716942277482353,"false"
"image-keyboard-response",417,400466,"0.0-3.135-1.135","0q5zzdyx5f32cdy","76.csv","","null","resources/maskTrios/L1BB.jpg","null","",NA,NA,NA,NA,""
"image-keyboard-response",418,401671,"0.0-3.135-2.135","0q5zzdyx5f32cdy","76.csv","","null","resources/images/fishbone.png","null","",NA,NA,NA,NA,""
"image-keyboard-response",419,402307,"0.0-3.136-0.136","0q5zzdyx5f32cdy","76.csv","","633.2000000178814","resources/trios/L2T4A2.jpg","39","restless",0.4,0.5,0.7,0.0424235281296901,"true"
"image-keyboard-response",420,402714,"0.0-3.136-1.136","0q5zzdyx5f32cdy","76.csv","","null","resources/maskTrios/BBA2.jpg","null","",NA,NA,NA,NA,""
"image-keyboard-response",421,403917,"0.0-3.136-2.136","0q5zzdyx5f32cdy","76.csv","","null","resources/images/coin2.png","null","",NA,NA,NA,NA,""
"image-keyboard-response",422,404751,"0.0-3.137-0.137","0q5zzdyx5f32cdy","76.csv","","831.1000000238419","resources/trios/L2T4A3.jpg","39","restless",0.4,0.5,0.7,0.960317272298481,"false"
"image-keyboard-response",423,405154,"0.0-3.137-1.137","0q5zzdyx5f32cdy","76.csv","","null","resources/maskTrios/BBA3.jpg","null","",NA,NA,NA,NA,""
"image-keyboard-response",424,406359,"0.0-3.137-2.137","0q5zzdyx5f32cdy","76.csv","","null","resources/images/fishbone.png","null","",NA,NA,NA,NA,""
"image-keyboard-response",425,407621,"0.0-3.138-0.138","0q5zzdyx5f32cdy","76.csv","","1259.2999999821186","resources/trios/L2T4A3.jpg","39","restless",0.4,0.5,0.7,0.0138414190924478,"true"
"image-keyboard-response",426,408028,"0.0-3.138-1.138","0q5zzdyx5f32cdy","76.csv","","null","resources/maskTrios/BBA3.jpg","null","",NA,NA,NA,NA,""
"image-keyboard-response",427,409235,"0.0-3.138-2.138","0q5zzdyx5f32cdy","76.csv","","null","resources/images/coin2.png","null","",NA,NA,NA,NA,""
"image-keyboard-response",428,410205,"0.0-3.139-0.139","0q5zzdyx5f32cdy","76.csv","","968","resources/trios/L1T2A3.jpg","37","restless",0.4,0.5,0.8,0.184845352144134,"true"
"image-keyboard-response",429,410612,"0.0-3.139-1.139","0q5zzdyx5f32cdy","76.csv","","null","resources/maskTrios/L1BB.jpg","null","",NA,NA,NA,NA,""
"image-keyboard-response",430,411819,"0.0-3.139-2.139","0q5zzdyx5f32cdy","76.csv","","null","resources/images/coin2.png","null","",NA,NA,NA,NA,""
"image-keyboard-response",431,412645,"0.0-3.140-0.140","0q5zzdyx5f32cdy","76.csv","","823.7999999821186","resources/trios/L2T2A3.jpg","37","restless",0.4,0.4,0.7,0.0270757322160413,"true"
"image-keyboard-response",432,413052,"0.0-3.140-1.140","0q5zzdyx5f32cdy","76.csv","","null","resources/maskTrios/L2BB.jpg","null","",NA,NA,NA,NA,""
"image-keyboard-response",433,414259,"0.0-3.140-2.140","0q5zzdyx5f32cdy","76.csv","","null","resources/images/coin2.png","null","",NA,NA,NA,NA,""
"image-keyboard-response",434,416069,"0.0-3.141-0.141","0q5zzdyx5f32cdy","76.csv","","1808.4000000059605","resources/trios/L1T2A3.jpg","38","restless",0.4,0.4,0.7,0.652453857621365,"false"
"image-keyboard-response",435,416475,"0.0-3.141-1.141","0q5zzdyx5f32cdy","76.csv","","null","resources/maskTrios/BT2B.jpg","null","",NA,NA,NA,NA,""
"image-keyboard-response",436,417681,"0.0-3.141-2.141","0q5zzdyx5f32cdy","76.csv","","null","resources/images/fishbone.png","null","",NA,NA,NA,NA,""
"image-keyboard-response",437,418607,"0.0-3.142-0.142","0q5zzdyx5f32cdy","76.csv","","924.3000000119209","resources/trios/L1T2A2.jpg","37","restless",0.4,0.4,0.7,0.40003608353995,"false"
"image-keyboard-response",438,419014,"0.0-3.142-1.142","0q5zzdyx5f32cdy","76.csv","","null","resources/maskTrios/L1BB.jpg","null","",NA,NA,NA,NA,""
"image-keyboard-response",439,420221,"0.0-3.142-2.142","0q5zzdyx5f32cdy","76.csv","","null","resources/images/fishbone.png","null","",NA,NA,NA,NA,""
"image-keyboard-response",440,421148,"0.0-3.143-0.143","0q5zzdyx5f32cdy","76.csv","","925.0999999940395","resources/trios/L1T2A3.jpg","37","restless",0.4,0.3,0.7,0.347968363399535,"true"
"image-keyboard-response",441,421552,"0.0-3.143-1.143","0q5zzdyx5f32cdy","76.csv","","null","resources/maskTrios/L1BB.jpg","null","",NA,NA,NA,NA,""
"image-keyboard-response",442,422760,"0.0-3.143-2.143","0q5zzdyx5f32cdy","76.csv","","null","resources/images/coin2.png","null","",NA,NA,NA,NA,""
"image-keyboard-response",443,424679,"0.0-3.144-0.144","0q5zzdyx5f32cdy","76.csv","","1917.5","resources/trios/L1T2A2.jpg","37","restless",0.4,0.3,0.7,0.737080186955731,"false"
"image-keyboard-response",444,425086,"0.0-3.144-1.144","0q5zzdyx5f32cdy","76.csv","","null","resources/maskTrios/L1BB.jpg","null","",NA,NA,NA,NA,""
"image-keyboard-response",445,426292,"0.0-3.144-2.144","0q5zzdyx5f32cdy","76.csv","","null","resources/images/fishbone.png","null","",NA,NA,NA,NA,""
"image-keyboard-response",446,427745,"0.0-3.145-0.145","0q5zzdyx5f32cdy","76.csv","","1451.199999988079","resources/trios/L2T2A3.jpg","37","restless",0.4,0.3,0.7,0.875498633285668,"false"
"image-keyboard-response",447,428152,"0.0-3.145-1.145","0q5zzdyx5f32cdy","76.csv","","null","resources/maskTrios/L2BB.jpg","null","",NA,NA,NA,NA,""
"image-keyboard-response",448,429359,"0.0-3.145-2.145","0q5zzdyx5f32cdy","76.csv","","null","resources/images/fishbone.png","null","",NA,NA,NA,NA,""
"image-keyboard-response",449,430946,"0.0-3.146-0.146","0q5zzdyx5f32cdy","76.csv","","1585","resources/trios/L2T4A2.jpg","38","restless",0.4,0.3,0.7,0.180287501464245,"true"
"image-keyboard-response",450,431350,"0.0-3.146-1.146","0q5zzdyx5f32cdy","76.csv","","null","resources/maskTrios/BT4B.jpg","null","",NA,NA,NA,NA,""
"image-keyboard-response",451,432552,"0.0-3.146-2.146","0q5zzdyx5f32cdy","76.csv","","null","resources/images/coin2.png","null","",NA,NA,NA,NA,""
"image-keyboard-response",452,433017,"0.0-3.147-0.147","0q5zzdyx5f32cdy","76.csv","","463","resources/trios/L1T4A3.jpg","38","restless",0.4,0.2,0.6,0.816140845604326,"false"
"image-keyboard-response",453,433424,"0.0-3.147-1.147","0q5zzdyx5f32cdy","76.csv","","null","resources/maskTrios/BT4B.jpg","null","",NA,NA,NA,NA,""
"image-keyboard-response",454,434631,"0.0-3.147-2.147","0q5zzdyx5f32cdy","76.csv","","null","resources/images/fishbone.png","null","",NA,NA,NA,NA,""
"image-keyboard-response",455,434724,"0.0-3.148-0.148","0q5zzdyx5f32cdy","76.csv","","90.60000002384186","resources/trios/L2T2A2.jpg","38","restless",0.4,0.2,0.6,0.953770674385523,"false"
"image-keyboard-response",456,435129,"0.0-3.148-1.148","0q5zzdyx5f32cdy","76.csv","","null","resources/maskTrios/BT2B.jpg","null","",NA,NA,NA,NA,""
"image-keyboard-response",457,436335,"0.0-3.148-2.148","0q5zzdyx5f32cdy","76.csv","","null","resources/images/fishbone.png","null","",NA,NA,NA,NA,""
"image-keyboard-response",458,436672,"0.0-3.149-0.149","0q5zzdyx5f32cdy","76.csv","","334.2999999821186","resources/trios/L1T4A3.jpg","38","restless",0.4,0.2,0.6,0.27064321978654,"false"
"image-keyboard-response",459,437078,"0.0-3.149-1.149","0q5zzdyx5f32cdy","76.csv","","null","resources/maskTrios/BT4B.jpg","null","",NA,NA,NA,NA,""
"image-keyboard-response",460,438285,"0.0-3.149-2.149","0q5zzdyx5f32cdy","76.csv","","null","resources/images/fishbone.png","null","",NA,NA,NA,NA,""
"image-keyboard-response",461,438712,"0.0-3.150-0.150","0q5zzdyx5f32cdy","76.csv","","425.7000000178814","resources/trios/L2T2A2.jpg","37","restless",0.4,0.1,0.6,0.216317512620648,"true"
"image-keyboard-response",462,439119,"0.0-3.150-1.150","0q5zzdyx5f32cdy","76.csv","","null","resources/maskTrios/L2BB.jpg","null","",NA,NA,NA,NA,""
"image-keyboard-response",463,440321,"0.0-3.150-2.150","0q5zzdyx5f32cdy","76.csv","","null","resources/images/coin2.png","null","",NA,NA,NA,NA,""
"image-keyboard-response",464,440770,"0.0-3.151-0.151","0q5zzdyx5f32cdy","76.csv","","446.60000002384186","resources/trios/L2T4A3.jpg","37","restless",0.4,0.1,0.6,0.711146391926571,"false"
"image-keyboard-response",465,441175,"0.0-3.151-1.151","0q5zzdyx5f32cdy","76.csv","","null","resources/maskTrios/L2BB.jpg","null","",NA,NA,NA,NA,""
"image-keyboard-response",466,442379,"0.0-3.151-2.151","0q5zzdyx5f32cdy","76.csv","","null","resources/images/fishbone.png","null","",NA,NA,NA,NA,""
"image-keyboard-response",467,442485,"0.0-3.152-0.152","0q5zzdyx5f32cdy","76.csv","","103.5","resources/trios/L2T4A3.jpg","39","restless",0.4,0.1,0.6,0.649490450230459,"false"
"image-keyboard-response",468,442892,"0.0-3.152-1.152","0q5zzdyx5f32cdy","76.csv","","null","resources/maskTrios/BBA3.jpg","null","",NA,NA,NA,NA,""
"image-keyboard-response",469,444099,"0.0-3.152-2.152","0q5zzdyx5f32cdy","76.csv","","null","resources/images/fishbone.png","null","",NA,NA,NA,NA,""
"image-keyboard-response",470,444379,"0.0-3.153-0.153","0q5zzdyx5f32cdy","76.csv","","278.19999998807907","resources/trios/L1T2A3.jpg","38","restless",0.4,0.1,0.7,0.714247116728272,"false"
"image-keyboard-response",471,444784,"0.0-3.153-1.153","0q5zzdyx5f32cdy","76.csv","","null","resources/maskTrios/BT2B.jpg","null","",NA,NA,NA,NA,""
"image-keyboard-response",472,445988,"0.0-3.153-2.153","0q5zzdyx5f32cdy","76.csv","","null","resources/images/fishbone.png","null","",NA,NA,NA,NA,""
"image-keyboard-response",473,446129,"0.0-3.154-0.154","0q5zzdyx5f32cdy","76.csv","","138.90000000596046","resources/trios/L1T2A3.jpg","37","restless",0.4,0.1,0.7,0.74045694090921,"false"
"image-keyboard-response",474,446536,"0.0-3.154-1.154","0q5zzdyx5f32cdy","76.csv","","null","resources/maskTrios/L1BB.jpg","null","",NA,NA,NA,NA,""
"image-keyboard-response",475,447742,"0.0-3.154-2.154","0q5zzdyx5f32cdy","76.csv","","null","resources/images/fishbone.png","null","",NA,NA,NA,NA,""
"image-keyboard-response",476,448333,"0.0-3.155-0.155","0q5zzdyx5f32cdy","76.csv","","588.4000000059605","resources/trios/L1T2A3.jpg","37","restless",0.4,0.1,0.7,0.614962606912603,"false"
"image-keyboard-response",477,448740,"0.0-3.155-1.155","0q5zzdyx5f32cdy","76.csv","","null","resources/maskTrios/L1BB.jpg","null","",NA,NA,NA,NA,""
"image-keyboard-response",478,449946,"0.0-3.155-2.155","0q5zzdyx5f32cdy","76.csv","","null","resources/images/fishbone.png","null","",NA,NA,NA,NA,""
"image-keyboard-response",479,450024,"0.0-3.156-0.156","0q5zzdyx5f32cdy","76.csv","","75.09999999403954","resources/trios/L1T2A3.jpg","37","restless",0.4,0.2,0.7,0.816664131757229,"false"
"image-keyboard-response",480,450430,"0.0-3.156-1.156","0q5zzdyx5f32cdy","76.csv","","null","resources/maskTrios/L1BB.jpg","null","",NA,NA,NA,NA,""
"image-keyboard-response",481,451632,"0.0-3.156-2.156","0q5zzdyx5f32cdy","76.csv","","null","resources/images/fishbone.png","null","",NA,NA,NA,NA,""
"image-keyboard-response",482,451980,"0.0-3.157-0.157","0q5zzdyx5f32cdy","76.csv","","345.60000002384186","resources/trios/L1T4A3.jpg","38","restless",0.5,0.3,0.7,0.0544635794545434,"true"
"image-keyboard-response",483,452385,"0.0-3.157-1.157","0q5zzdyx5f32cdy","76.csv","","null","resources/maskTrios/BT4B.jpg","null","",NA,NA,NA,NA,""
"image-keyboard-response",484,453593,"0.0-3.157-2.157","0q5zzdyx5f32cdy","76.csv","","null","resources/images/coin2.png","null","",NA,NA,NA,NA,""
"image-keyboard-response",485,454479,"0.0-3.158-0.158","0q5zzdyx5f32cdy","76.csv","","884.3000000119209","resources/trios/L2T2A2.jpg","38","restless",0.5,0.3,0.7,0.644056687885157,"false"
"image-keyboard-response",486,454884,"0.0-3.158-1.158","0q5zzdyx5f32cdy","76.csv","","null","resources/maskTrios/BT2B.jpg","null","",NA,NA,NA,NA,""
"image-keyboard-response",487,456087,"0.0-3.158-2.158","0q5zzdyx5f32cdy","76.csv","","null","resources/images/fishbone.png","null","",NA,NA,NA,NA,""
"image-keyboard-response",488,456411,"0.0-3.159-0.159","0q5zzdyx5f32cdy","76.csv","","322","resources/trios/L2T4A3.jpg","38","restless",0.5,0.3,0.7,0.0444376977925629,"true"
"image-keyboard-response",489,456817,"0.0-3.159-1.159","0q5zzdyx5f32cdy","76.csv","","null","resources/maskTrios/BT4B.jpg","null","",NA,NA,NA,NA,""
"image-keyboard-response",490,458024,"0.0-3.159-2.159","0q5zzdyx5f32cdy","76.csv","","null","resources/images/coin2.png","null","",NA,NA,NA,NA,""
"image-keyboard-response",491,459069,"0.0-3.160-0.160","0q5zzdyx5f32cdy","76.csv","","1043.0999999940395","resources/trios/L1T2A2.jpg","39","restless",0.5,0.3,0.6,0.830571291608203,"false"
"image-keyboard-response",492,459477,"0.0-3.160-1.160","0q5zzdyx5f32cdy","76.csv","","null","resources/maskTrios/BBA2.jpg","null","",NA,NA,NA,NA,""
"image-keyboard-response",493,460679,"0.0-3.160-2.160","0q5zzdyx5f32cdy","76.csv","","null","resources/images/fishbone.png","null","",NA,NA,NA,NA,""
"image-keyboard-response",494,460877,"0.0-3.161-0.161","0q5zzdyx5f32cdy","76.csv","","195.5","resources/trios/L2T4A3.jpg","38","restless",0.5,0.4,0.6,0.40294998265642,"false"
"image-keyboard-response",495,461284,"0.0-3.161-1.161","0q5zzdyx5f32cdy","76.csv","","null","resources/maskTrios/BT4B.jpg","null","",NA,NA,NA,NA,""
"image-keyboard-response",496,462490,"0.0-3.161-2.161","0q5zzdyx5f32cdy","76.csv","","null","resources/images/fishbone.png","null","",NA,NA,NA,NA,""
"image-keyboard-response",497,462924,"0.0-3.162-0.162","0q5zzdyx5f32cdy","76.csv","","430.80000001192093","resources/trios/L2T2A3.jpg","38","restless",0.5,0.4,0.6,0.790861513568032,"false"
"image-keyboard-response",498,463328,"0.0-3.162-1.162","0q5zzdyx5f32cdy","76.csv","","null","resources/maskTrios/BT2B.jpg","null","",NA,NA,NA,NA,""
"image-keyboard-response",499,464533,"0.0-3.162-2.162","0q5zzdyx5f32cdy","76.csv","","null","resources/images/fishbone.png","null","",NA,NA,NA,NA,""
"image-keyboard-response",500,464773,"0.0-3.163-0.163","0q5zzdyx5f32cdy","76.csv","","237.7999999821186","resources/trios/L2T2A3.jpg","37","restless",0.6,0.4,0.6,0.532177667481755,"true"
"image-keyboard-response",501,465181,"0.0-3.163-1.163","0q5zzdyx5f32cdy","76.csv","","null","resources/maskTrios/L2BB.jpg","null","",NA,NA,NA,NA,""
"image-keyboard-response",502,466388,"0.0-3.163-2.163","0q5zzdyx5f32cdy","76.csv","","null","resources/images/coin2.png","null","",NA,NA,NA,NA,""
"image-keyboard-response",503,468378,"0.0-3.164-0.164","0q5zzdyx5f32cdy","76.csv","","1988.699999988079","resources/trios/L2T2A2.jpg","38","restless",0.6,0.4,0.6,0.966704704670463,"false"
"image-keyboard-response",504,468782,"0.0-3.164-1.164","0q5zzdyx5f32cdy","76.csv","","null","resources/maskTrios/BT2B.jpg","null","",NA,NA,NA,NA,""
"image-keyboard-response",505,469984,"0.0-3.164-2.164","0q5zzdyx5f32cdy","76.csv","","null","resources/images/fishbone.png","null","",NA,NA,NA,NA,""
"image-keyboard-response",506,470774,"0.0-3.165-0.165","0q5zzdyx5f32cdy","76.csv","","787.5999999940395","resources/trios/L2T2A3.jpg","37","restless",0.6,0.3,0.6,0.435112369843268,"true"
"image-keyboard-response",507,471181,"0.0-3.165-1.165","0q5zzdyx5f32cdy","76.csv","","null","resources/maskTrios/L2BB.jpg","null","",NA,NA,NA,NA,""
"image-keyboard-response",508,472388,"0.0-3.165-2.165","0q5zzdyx5f32cdy","76.csv","","null","resources/images/coin2.png","null","",NA,NA,NA,NA,""
"image-keyboard-response",509,472684,"0.0-3.166-0.166","0q5zzdyx5f32cdy","76.csv","","293.59999999403954","resources/trios/L1T4A2.jpg","39","restless",0.6,0.3,0.6,0.654356085886637,"false"
"image-keyboard-response",510,473091,"0.0-3.166-1.166","0q5zzdyx5f32cdy","76.csv","","null","resources/maskTrios/BBA2.jpg","null","",NA,NA,NA,NA,""
"image-keyboard-response",511,474293,"0.0-3.166-2.166","0q5zzdyx5f32cdy","76.csv","","null","resources/images/fishbone.png","null","",NA,NA,NA,NA,""
"image-keyboard-response",512,475937,"0.0-3.167-0.167","0q5zzdyx5f32cdy","76.csv","","1641.9000000059605","resources/trios/L1T2A3.jpg","38","restless",0.7,0.3,0.6,0.919227636124569,"false"
"image-keyboard-response",513,476342,"0.0-3.167-1.167","0q5zzdyx5f32cdy","76.csv","","null","resources/maskTrios/BT2B.jpg","null","",NA,NA,NA,NA,""
"image-keyboard-response",514,477546,"0.0-3.167-2.167","0q5zzdyx5f32cdy","76.csv","","null","resources/images/fishbone.png","null","",NA,NA,NA,NA,""
"image-keyboard-response",515,477592,"0.0-3.168-0.168","0q5zzdyx5f32cdy","76.csv","","43.29999998211861","resources/trios/L1T2A2.jpg","37","restless",0.7,0.3,0.6,0.372786470800282,"true"
"image-keyboard-response",516,477999,"0.0-3.168-1.168","0q5zzdyx5f32cdy","76.csv","","null","resources/maskTrios/L1BB.jpg","null","",NA,NA,NA,NA,""
"image-keyboard-response",517,479203,"0.0-3.168-2.168","0q5zzdyx5f32cdy","76.csv","","null","resources/images/coin2.png","null","",NA,NA,NA,NA,""
"image-keyboard-response",518,479649,"0.0-3.169-0.169","0q5zzdyx5f32cdy","76.csv","","444.09999999403954","resources/trios/L2T2A3.jpg","37","restless",0.7,0.4,0.6,0.449568107940778,"true"
"image-keyboard-response",519,480056,"0.0-3.169-1.169","0q5zzdyx5f32cdy","76.csv","","null","resources/maskTrios/L2BB.jpg","null","",NA,NA,NA,NA,""
"image-keyboard-response",520,481260,"0.0-3.169-2.169","0q5zzdyx5f32cdy","76.csv","","null","resources/images/coin2.png","null","",NA,NA,NA,NA,""
"image-keyboard-response",521,482228,"0.0-3.170-0.170","0q5zzdyx5f32cdy","76.csv","","965.5","resources/trios/L2T2A3.jpg","38","restless",0.7,0.4,0.6,0.633535899933199,"false"
"image-keyboard-response",522,482632,"0.0-3.170-1.170","0q5zzdyx5f32cdy","76.csv","","null","resources/maskTrios/BT2B.jpg","null","",NA,NA,NA,NA,""
"image-keyboard-response",523,483835,"0.0-3.170-2.170","0q5zzdyx5f32cdy","76.csv","","null","resources/images/fishbone.png","null","",NA,NA,NA,NA,""
"image-keyboard-response",524,483926,"0.0-3.171-0.171","0q5zzdyx5f32cdy","76.csv","","89.19999998807907","resources/trios/L1T2A2.jpg","38","restless",0.7,0.4,0.6,0.52128970903673,"false"
"image-keyboard-response",525,484333,"0.0-3.171-1.171","0q5zzdyx5f32cdy","76.csv","","null","resources/maskTrios/BT2B.jpg","null","",NA,NA,NA,NA,""
"image-keyboard-response",526,485540,"0.0-3.171-2.171","0q5zzdyx5f32cdy","76.csv","","null","resources/images/fishbone.png","null","",NA,NA,NA,NA,""
"image-keyboard-response",527,485824,"0.0-3.172-0.172","0q5zzdyx5f32cdy","76.csv","","281.90000000596046","resources/trios/L2T2A3.jpg","38","restless",0.7,0.4,0.6,0.408123541453501,"false"
"image-keyboard-response",528,486231,"0.0-3.172-1.172","0q5zzdyx5f32cdy","76.csv","","null","resources/maskTrios/BT2B.jpg","null","",NA,NA,NA,NA,""
"image-keyboard-response",529,487438,"0.0-3.172-2.172","0q5zzdyx5f32cdy","76.csv","","null","resources/images/fishbone.png","null","",NA,NA,NA,NA,""
"image-keyboard-response",530,487479,"0.0-3.173-0.173","0q5zzdyx5f32cdy","76.csv","","38","resources/trios/L1T2A3.jpg","39","restless",0.7,0.4,0.6,0.983506621126612,"false"
"image-keyboard-response",531,487883,"0.0-3.173-1.173","0q5zzdyx5f32cdy","76.csv","","null","resources/maskTrios/BBA3.jpg","null","",NA,NA,NA,NA,""
"image-keyboard-response",532,489085,"0.0-3.173-2.173","0q5zzdyx5f32cdy","76.csv","","null","resources/images/fishbone.png","null","",NA,NA,NA,NA,""
"image-keyboard-response",533,489640,"0.0-3.174-0.174","0q5zzdyx5f32cdy","76.csv","","552.4000000059605","resources/trios/L1T2A2.jpg","38","restless",0.7,0.4,0.6,0.842770825583416,"false"
"image-keyboard-response",534,490047,"0.0-3.174-1.174","0q5zzdyx5f32cdy","76.csv","","null","resources/maskTrios/BT2B.jpg","null","",NA,NA,NA,NA,""
"image-keyboard-response",535,491253,"0.0-3.174-2.174","0q5zzdyx5f32cdy","76.csv","","null","resources/images/fishbone.png","null","",NA,NA,NA,NA,""
"image-keyboard-response",536,491719,"0.0-3.175-0.175","0q5zzdyx5f32cdy","76.csv","","463.60000002384186","resources/trios/L1T4A2.jpg","38","restless",0.6,0.3,0.6,0.430915922143054,"false"
"image-keyboard-response",537,492123,"0.0-3.175-1.175","0q5zzdyx5f32cdy","76.csv","","null","resources/maskTrios/BT4B.jpg","null","",NA,NA,NA,NA,""
"image-keyboard-response",538,493327,"0.0-3.175-2.175","0q5zzdyx5f32cdy","76.csv","","null","resources/images/fishbone.png","null","",NA,NA,NA,NA,""
"image-keyboard-response",539,494551,"0.0-3.176-0.176","0q5zzdyx5f32cdy","76.csv","","1221.800000011921","resources/trios/L2T2A2.jpg","38","restless",0.6,0.3,0.6,0.794786101644313,"false"
"image-keyboard-response",540,494957,"0.0-3.176-1.176","0q5zzdyx5f32cdy","76.csv","","null","resources/maskTrios/BT2B.jpg","null","",NA,NA,NA,NA,""
"image-keyboard-response",541,496164,"0.0-3.176-2.176","0q5zzdyx5f32cdy","76.csv","","null","resources/images/fishbone.png","null","",NA,NA,NA,NA,""
"image-keyboard-response",542,496167,"0.0-3.177-0.177","0q5zzdyx5f32cdy","76.csv","","0.699999988079071","resources/trios/L2T2A2.jpg","37","restless",0.6,0.3,0.6,0.799739448432324,"false"
"image-keyboard-response",543,496573,"0.0-3.177-1.177","0q5zzdyx5f32cdy","76.csv","","null","resources/maskTrios/L2BB.jpg","null","",NA,NA,NA,NA,""
"image-keyboard-response",544,497780,"0.0-3.177-2.177","0q5zzdyx5f32cdy","76.csv","","null","resources/images/fishbone.png","null","",NA,NA,NA,NA,""
"image-keyboard-response",545,498103,"0.0-3.178-0.178","0q5zzdyx5f32cdy","76.csv","","320.7999999821186","resources/trios/L1T2A2.jpg","39","restless",0.6,0.3,0.6,0.0784675967585167,"true"
"image-keyboard-response",546,498510,"0.0-3.178-1.178","0q5zzdyx5f32cdy","76.csv","","null","resources/maskTrios/BBA2.jpg","null","",NA,NA,NA,NA,""
"image-keyboard-response",547,499717,"0.0-3.178-2.178","0q5zzdyx5f32cdy","76.csv","","null","resources/images/coin2.png","null","",NA,NA,NA,NA,""
"image-keyboard-response",548,499893,"0.0-3.179-0.179","0q5zzdyx5f32cdy","76.csv","","173.40000000596046","resources/trios/L1T4A2.jpg","38","restless",0.6,0.3,0.6,0.99501783412827,"false"
"image-keyboard-response",549,500297,"0.0-3.179-1.179","0q5zzdyx5f32cdy","76.csv","","null","resources/maskTrios/BT4B.jpg","null","",NA,NA,NA,NA,""
"image-keyboard-response",550,501500,"0.0-3.179-2.179","0q5zzdyx5f32cdy","76.csv","","null","resources/images/fishbone.png","null","",NA,NA,NA,NA,""
"image-keyboard-response",551,501713,"0.0-3.180-0.180","0q5zzdyx5f32cdy","76.csv","","211.09999999403954","resources/trios/L2T4A2.jpg","37","restless",0.6,0.3,0.6,0.570191569334336,"true"
"image-keyboard-response",552,502117,"0.0-3.180-1.180","0q5zzdyx5f32cdy","76.csv","","null","resources/maskTrios/L2BB.jpg","null","",NA,NA,NA,NA,""
"image-keyboard-response",553,503321,"0.0-3.180-2.180","0q5zzdyx5f32cdy","76.csv","","null","resources/images/coin2.png","null","",NA,NA,NA,NA,""
"image-keyboard-response",554,503702,"0.0-3.181-0.181","0q5zzdyx5f32cdy","76.csv","","378.7000000178814","resources/trios/L2T4A3.jpg","37","restless",0.6,0.3,0.6,0.121501847160052,"true"
"image-keyboard-response",555,504107,"0.0-3.181-1.181","0q5zzdyx5f32cdy","76.csv","","null","resources/maskTrios/L2BB.jpg","null","",NA,NA,NA,NA,""
"image-keyboard-response",556,505314,"0.0-3.181-2.181","0q5zzdyx5f32cdy","76.csv","","null","resources/images/coin2.png","null","",NA,NA,NA,NA,""
"image-keyboard-response",557,505328,"0.0-3.182-0.182","0q5zzdyx5f32cdy","76.csv","","11.399999976158142","resources/trios/L1T2A2.jpg","37","restless",0.6,0.3,0.6,0.578062380734642,"true"
"image-keyboard-response",558,505733,"0.0-3.182-1.182","0q5zzdyx5f32cdy","76.csv","","null","resources/maskTrios/L1BB.jpg","null","",NA,NA,NA,NA,""
"image-keyboard-response",559,506940,"0.0-3.182-2.182","0q5zzdyx5f32cdy","76.csv","","null","resources/images/coin2.png","null","",NA,NA,NA,NA,""
"image-keyboard-response",560,507724,"0.0-3.183-0.183","0q5zzdyx5f32cdy","76.csv","","781.8000000119209","resources/trios/L1T4A2.jpg","37","restless",0.6,0.3,0.6,0.450097508463015,"true"
"image-keyboard-response",561,508127,"0.0-3.183-1.183","0q5zzdyx5f32cdy","76.csv","","null","resources/maskTrios/L1BB.jpg","null","",NA,NA,NA,NA,""
"image-keyboard-response",562,509334,"0.0-3.183-2.183","0q5zzdyx5f32cdy","76.csv","","null","resources/images/coin2.png","null","",NA,NA,NA,NA,""
"image-keyboard-response",563,509452,"0.0-3.184-0.184","0q5zzdyx5f32cdy","76.csv","","115.7999999821186","resources/trios/L2T2A3.jpg","37","restless",0.6,0.4,0.7,0.411768745025504,"true"
"image-keyboard-response",564,509859,"0.0-3.184-1.184","0q5zzdyx5f32cdy","76.csv","","null","resources/maskTrios/L2BB.jpg","null","",NA,NA,NA,NA,""
"image-keyboard-response",565,511066,"0.0-3.184-2.184","0q5zzdyx5f32cdy","76.csv","","null","resources/images/coin2.png","null","",NA,NA,NA,NA,""
"image-keyboard-response",566,511147,"0.0-3.185-0.185","0q5zzdyx5f32cdy","76.csv","","79.30000001192093","resources/trios/L2T2A3.jpg","37","restless",0.6,0.4,0.7,0.787944579234696,"false"
"image-keyboard-response",567,511551,"0.0-3.185-1.185","0q5zzdyx5f32cdy","76.csv","","null","resources/maskTrios/L2BB.jpg","null","",NA,NA,NA,NA,""
"image-keyboard-response",568,512757,"0.0-3.185-2.185","0q5zzdyx5f32cdy","76.csv","","null","resources/images/fishbone.png","null","",NA,NA,NA,NA,""
"image-keyboard-response",569,512845,"0.0-3.186-0.186","0q5zzdyx5f32cdy","76.csv","","85.7000000178814","resources/trios/L1T4A3.jpg","37","restless",0.6,0.4,0.7,0.852378875622317,"false"
"image-keyboard-response",570,513248,"0.0-3.186-1.186","0q5zzdyx5f32cdy","76.csv","","null","resources/maskTrios/L1BB.jpg","null","",NA,NA,NA,NA,""
"image-keyboard-response",571,514450,"0.0-3.186-2.186","0q5zzdyx5f32cdy","76.csv","","null","resources/images/fishbone.png","null","",NA,NA,NA,NA,""
"image-keyboard-response",572,515295,"0.0-3.187-0.187","0q5zzdyx5f32cdy","76.csv","","843.0999999940395","resources/trios/L2T2A3.jpg","37","restless",0.6,0.4,0.7,0.194402388254577,"true"
"image-keyboard-response",573,515702,"0.0-3.187-1.187","0q5zzdyx5f32cdy","76.csv","","null","resources/maskTrios/L2BB.jpg","null","",NA,NA,NA,NA,""
"image-keyboard-response",574,516909,"0.0-3.187-2.187","0q5zzdyx5f32cdy","76.csv","","null","resources/images/coin2.png","null","",NA,NA,NA,NA,""
"image-keyboard-response",575,516980,"0.0-3.188-0.188","0q5zzdyx5f32cdy","76.csv","","69.09999999403954","resources/trios/L1T4A3.jpg","37","restless",0.6,0.4,0.7,0.482903838350941,"true"
"image-keyboard-response",576,517387,"0.0-3.188-1.188","0q5zzdyx5f32cdy","76.csv","","null","resources/maskTrios/L1BB.jpg","null","",NA,NA,NA,NA,""
"image-keyboard-response",577,518594,"0.0-3.188-2.188","0q5zzdyx5f32cdy","76.csv","","null","resources/images/coin2.png","null","",NA,NA,NA,NA,""
"image-keyboard-response",578,518601,"0.0-3.189-0.189","0q5zzdyx5f32cdy","76.csv","","4.300000011920929","resources/trios/L2T2A3.jpg","37","restless",0.6,0.4,0.7,0.856685786202505,"false"
"image-keyboard-response",579,519007,"0.0-3.189-1.189","0q5zzdyx5f32cdy","76.csv","","null","resources/maskTrios/L2BB.jpg","null","",NA,NA,NA,NA,""
"image-keyboard-response",580,520210,"0.0-3.189-2.189","0q5zzdyx5f32cdy","76.csv","","null","resources/images/fishbone.png","null","",NA,NA,NA,NA,""
"image-keyboard-response",581,521536,"0.0-3.190-0.190","0q5zzdyx5f32cdy","76.csv","","1324","resources/trios/L2T2A3.jpg","38","restless",0.6,0.4,0.7,0.935139971592447,"false"
"image-keyboard-response",582,521943,"0.0-3.190-1.190","0q5zzdyx5f32cdy","76.csv","","null","resources/maskTrios/BT2B.jpg","null","",NA,NA,NA,NA,""
"image-keyboard-response",583,523147,"0.0-3.190-2.190","0q5zzdyx5f32cdy","76.csv","","null","resources/images/fishbone.png","null","",NA,NA,NA,NA,""
"image-keyboard-response",584,523566,"0.0-3.191-0.191","0q5zzdyx5f32cdy","76.csv","","416.59999999403954","resources/trios/L2T2A2.jpg","37","restless",0.6,0.4,0.7,0.204594310489199,"true"
"image-keyboard-response",585,523973,"0.0-3.191-1.191","0q5zzdyx5f32cdy","76.csv","","null","resources/maskTrios/L2BB.jpg","null","",NA,NA,NA,NA,""
"image-keyboard-response",586,525180,"0.0-3.191-2.191","0q5zzdyx5f32cdy","76.csv","","null","resources/images/coin2.png","null","",NA,NA,NA,NA,""
"image-keyboard-response",587,525524,"0.0-3.192-0.192","0q5zzdyx5f32cdy","76.csv","","341.90000000596046","resources/trios/L1T2A2.jpg","37","restless",0.6,0.4,0.7,0.688703382828226,"false"
"image-keyboard-response",588,525927,"0.0-3.192-1.192","0q5zzdyx5f32cdy","76.csv","","null","resources/maskTrios/L1BB.jpg","null","",NA,NA,NA,NA,""
"image-keyboard-response",589,527134,"0.0-3.192-2.192","0q5zzdyx5f32cdy","76.csv","","null","resources/images/fishbone.png","null","",NA,NA,NA,NA,""
"image-keyboard-response",590,527414,"0.0-3.193-0.193","0q5zzdyx5f32cdy","76.csv","","277.39999997615814","resources/trios/L2T2A3.jpg","37","restless",0.6,0.4,0.7,0.503313740195972,"true"
"image-keyboard-response",591,527816,"0.0-3.193-1.193","0q5zzdyx5f32cdy","76.csv","","null","resources/maskTrios/L2BB.jpg","null","",NA,NA,NA,NA,""
"image-keyboard-response",592,529021,"0.0-3.193-2.193","0q5zzdyx5f32cdy","76.csv","","null","resources/images/coin2.png","null","",NA,NA,NA,NA,""
"image-keyboard-response",593,529430,"0.0-3.194-0.194","0q5zzdyx5f32cdy","76.csv","","406.40000000596046","resources/trios/L2T4A3.jpg","37","restless",0.6,0.4,0.7,0.339102639089984,"true"
"image-keyboard-response",594,529833,"0.0-3.194-1.194","0q5zzdyx5f32cdy","76.csv","","null","resources/maskTrios/L2BB.jpg","null","",NA,NA,NA,NA,""
"image-keyboard-response",595,531038,"0.0-3.194-2.194","0q5zzdyx5f32cdy","76.csv","","null","resources/images/coin2.png","null","",NA,NA,NA,NA,""
"image-keyboard-response",596,531040,"0.0-3.195-0.195","0q5zzdyx5f32cdy","76.csv","","0.29999998211860657","resources/trios/L2T2A3.jpg","37","restless",0.6,0.5,0.7,0.430474361255474,"true"
"image-keyboard-response",597,531444,"0.0-3.195-1.195","0q5zzdyx5f32cdy","76.csv","","null","resources/maskTrios/L2BB.jpg","null","",NA,NA,NA,NA,""
"image-keyboard-response",598,532650,"0.0-3.195-2.195","0q5zzdyx5f32cdy","76.csv","","null","resources/images/coin2.png","null","",NA,NA,NA,NA,""
"image-keyboard-response",599,532866,"0.0-3.196-0.196","0q5zzdyx5f32cdy","76.csv","","213.19999998807907","resources/trios/L1T4A2.jpg","37","restless",0.6,0.5,0.7,0.871793364791699,"false"
"image-keyboard-response",600,533270,"0.0-3.196-1.196","0q5zzdyx5f32cdy","76.csv","","null","resources/maskTrios/L1BB.jpg","null","",NA,NA,NA,NA,""
"image-keyboard-response",601,534476,"0.0-3.196-2.196","0q5zzdyx5f32cdy","76.csv","","null","resources/images/fishbone.png","null","",NA,NA,NA,NA,""
"image-keyboard-response",602,534705,"0.0-3.197-0.197","0q5zzdyx5f32cdy","76.csv","","225.40000000596046","resources/trios/L1T4A3.jpg","37","restless",0.6,0.6,0.7,0.662812611872739,"false"
"image-keyboard-response",603,535111,"0.0-3.197-1.197","0q5zzdyx5f32cdy","76.csv","","null","resources/maskTrios/L1BB.jpg","null","",NA,NA,NA,NA,""
"image-keyboard-response",604,536315,"0.0-3.197-2.197","0q5zzdyx5f32cdy","76.csv","","null","resources/images/fishbone.png","null","",NA,NA,NA,NA,""
"image-keyboard-response",605,536796,"0.0-3.198-0.198","0q5zzdyx5f32cdy","76.csv","","479.2000000178814","resources/trios/L2T2A3.jpg","37","restless",0.6,0.6,0.7,0.229066863149119,"true"
"image-keyboard-response",606,537203,"0.0-3.198-1.198","0q5zzdyx5f32cdy","76.csv","","null","resources/maskTrios/L2BB.jpg","null","",NA,NA,NA,NA,""
"image-keyboard-response",607,538410,"0.0-3.198-2.198","0q5zzdyx5f32cdy","76.csv","","null","resources/images/coin2.png","null","",NA,NA,NA,NA,""
"image-keyboard-response",608,538488,"0.0-3.199-0.199","0q5zzdyx5f32cdy","76.csv","","75.69999998807907","resources/trios/L2T2A3.jpg","37","restless",0.6,0.6,0.7,0.861082489311799,"false"
"image-keyboard-response",609,538890,"0.0-3.199-1.199","0q5zzdyx5f32cdy","76.csv","","null","resources/maskTrios/L2BB.jpg","null","",NA,NA,NA,NA,""
"image-keyboard-response",610,540093,"0.0-3.199-2.199","0q5zzdyx5f32cdy","76.csv","","null","resources/images/fishbone.png","null","",NA,NA,NA,NA,""
"image-keyboard-response",611,540180,"0.0-3.200-0.200","0q5zzdyx5f32cdy","76.csv","","84.30000001192093","resources/trios/L2T4A3.jpg","37","restless",0.6,0.6,0.7,0.302477869220502,"true"
"image-keyboard-response",612,540588,"0.0-3.200-1.200","0q5zzdyx5f32cdy","76.csv","","null","resources/maskTrios/L2BB.jpg","null","",NA,NA,NA,NA,""
"image-keyboard-response",613,541792,"0.0-3.200-2.200","0q5zzdyx5f32cdy","76.csv","","null","resources/images/coin2.png","null","",NA,NA,NA,NA,""
"image-keyboard-response",614,541930,"0.0-3.201-0.201","0q5zzdyx5f32cdy","76.csv","","135.40000000596046","resources/trios/L1T2A2.jpg","37","restless",0.6,0.6,0.6,0.370949403668587,"true"
"image-keyboard-response",615,542338,"0.0-3.201-1.201","0q5zzdyx5f32cdy","76.csv","","null","resources/maskTrios/L1BB.jpg","null","",NA,NA,NA,NA,""
"image-keyboard-response",616,543540,"0.0-3.201-2.201","0q5zzdyx5f32cdy","76.csv","","null","resources/images/coin2.png","null","",NA,NA,NA,NA,""
"image-keyboard-response",617,543783,"0.0-3.202-0.202","0q5zzdyx5f32cdy","76.csv","","241.40000000596046","resources/trios/L1T2A2.jpg","37","restless",0.6,0.7,0.5,0.907370999317664,"false"
"image-keyboard-response",618,544187,"0.0-3.202-1.202","0q5zzdyx5f32cdy","76.csv","","null","resources/maskTrios/L1BB.jpg","null","",NA,NA,NA,NA,""
"image-keyboard-response",619,545389,"0.0-3.202-2.202","0q5zzdyx5f32cdy","76.csv","","null","resources/images/fishbone.png","null","",NA,NA,NA,NA,""
"image-keyboard-response",620,545592,"0.0-3.203-0.203","0q5zzdyx5f32cdy","76.csv","","200.59999999403954","resources/trios/L1T2A2.jpg","37","restless",0.5,0.7,0.5,0.5428952300779,"false"
"image-keyboard-response",621,545999,"0.0-3.203-1.203","0q5zzdyx5f32cdy","76.csv","","null","resources/maskTrios/L1BB.jpg","null","",NA,NA,NA,NA,""
"image-keyboard-response",622,547206,"0.0-3.203-2.203","0q5zzdyx5f32cdy","76.csv","","null","resources/images/fishbone.png","null","",NA,NA,NA,NA,""
"image-keyboard-response",623,547411,"0.0-3.204-0.204","0q5zzdyx5f32cdy","76.csv","","203.59999999403954","resources/trios/L2T2A3.jpg","37","restless",0.5,0.6,0.5,0.00739181964050273,"true"
"image-keyboard-response",624,547817,"0.0-3.204-1.204","0q5zzdyx5f32cdy","76.csv","","null","resources/maskTrios/L2BB.jpg","null","",NA,NA,NA,NA,""
