"trial_type","trial_index","time_elapsed","internal_node_id","subject","participantCode","walkNumber","success","rt","stimulus","key_press","test_part","leftProb","midProb","rightProb","generatedNum","correct"
"pavlovia",0,1075,"0.0-0.0","2knlz4912fwyuxb",942,"176.csv","","","","","",NA,NA,NA,NA,""
"fullscreen",1,4790,"0.0-1.0","2knlz4912fwyuxb",942,"176.csv","true","","","","",NA,NA,NA,NA,""
"html-keyboard-response",2,33722,"0.0-2.0-0.0","2knlz4912fwyuxb",942,"176.csv","","28930.19999998808","<p><font size='6'>Arrrgh!</p></font><p>Can you be the best pirate? Try to find lots of gold! But beware, some islands have more gold than others, and over time, the island with the most gold may change. Can YOU figure it out? </p><font size='6'>GOOD LUCK, CAPTAIN!!!</font><p>Press any key to begin</p>","32","",NA,NA,NA,NA,""
"image-keyboard-response",3,36727,"0.0-2.0-1.0","2knlz4912fwyuxb",942,"176.csv","","null","resources/image_sets/111.png","null","",NA,NA,NA,NA,""
"image-keyboard-response",4,46012,"0.0-2.0-2.0","2knlz4912fwyuxb",942,"176.csv","","9282.299999982119","resources/image_sets/left_highlight.png","37","",NA,NA,NA,NA,""
"image-keyboard-response",5,48996,"0.0-2.0-3.0","2knlz4912fwyuxb",942,"176.csv","","2982.4000000059605","resources/image_sets/mid_highlight.png","38","",NA,NA,NA,NA,""
"image-keyboard-response",6,50146,"0.0-2.0-4.0","2knlz4912fwyuxb",942,"176.csv","","1148.5","resources/image_sets/right_highlight.png","39","",NA,NA,NA,NA,""
"image-keyboard-response",7,53939,"0.0-2.0-5.0","2knlz4912fwyuxb",942,"176.csv","","3791.699999988079","resources/image_sets/111.png","13","",NA,NA,NA,NA,""
"image-keyboard-response",8,56223,"0.0-2.0-6.0","2knlz4912fwyuxb",942,"176.csv","","2282.199999988079","resources/images/coin2.png","13","",NA,NA,NA,NA,""
"image-keyboard-response",9,57926,"0.0-2.0-7.0","2knlz4912fwyuxb",942,"176.csv","","1701.7999999821186","resources/images/fishbone.png","13","",NA,NA,NA,NA,""
"html-keyboard-response",10,66657,"0.0-2.0-8.0","2knlz4912fwyuxb",942,"176.csv","","8729.899999976158","<p>Your first journey will be a long one, but you will get a well deserved break at the end</p><p>After the break you will have four more journeys, but each will be much shorter than the first, and you will have breaks in between each</p><p>Press Enter to begin</p>","13","",NA,NA,NA,NA,""
"image-keyboard-response",11,69774,"0.0-3.0-0.0","2knlz4912fwyuxb",942,"176.csv","","3114","resources/trios/L4T4A3.jpg","38","restless",0.3,0.9,0.7,0.486078682513512,"true"
"image-keyboard-response",12,70181,"0.0-3.0-1.0","2knlz4912fwyuxb",942,"176.csv","","null","resources/maskTrios/BT4B.jpg","null","",NA,NA,NA,NA,""
"image-keyboard-response",13,71389,"0.0-3.0-2.0","2knlz4912fwyuxb",942,"176.csv","","null","resources/images/coin2.png","null","",NA,NA,NA,NA,""
"image-keyboard-response",14,73331,"0.0-3.1-0.1","2knlz4912fwyuxb",942,"176.csv","","1939","resources/trios/L4T1A3.jpg","37","restless",0.3,0.9,0.7,0.105385094283514,"true"
"image-keyboard-response",15,73738,"0.0-3.1-1.1","2knlz4912fwyuxb",942,"176.csv","","null","resources/maskTrios/L4BB.jpg","null","",NA,NA,NA,NA,""
"image-keyboard-response",16,74944,"0.0-3.1-2.1","2knlz4912fwyuxb",942,"176.csv","","null","resources/images/coin2.png","null","",NA,NA,NA,NA,""
"image-keyboard-response",17,77325,"0.0-3.2-0.2","2knlz4912fwyuxb",942,"176.csv","","2378.800000011921","resources/trios/L4T1A1.jpg","38","restless",0.3,0.9,0.8,0.680307013047792,"true"
"image-keyboard-response",18,77732,"0.0-3.2-1.2","2knlz4912fwyuxb",942,"176.csv","","null","resources/maskTrios/BT1B.jpg","null","",NA,NA,NA,NA,""
"image-keyboard-response",19,78940,"0.0-3.2-2.2","2knlz4912fwyuxb",942,"176.csv","","null","resources/images/coin2.png","null","",NA,NA,NA,NA,""
"image-keyboard-response",20,82903,"0.0-3.3-0.3","2knlz4912fwyuxb",942,"176.csv","","3960.699999988079","resources/trios/L2T4A1.jpg","37","restless",0.2,0.9,0.8,0.23916615632117,"false"
"image-keyboard-response",21,83306,"0.0-3.3-1.3","2knlz4912fwyuxb",942,"176.csv","","null","resources/maskTrios/L2BB.jpg","null","",NA,NA,NA,NA,""
"image-keyboard-response",22,84510,"0.0-3.3-2.3","2knlz4912fwyuxb",942,"176.csv","","null","resources/images/fishbone.png","null","",NA,NA,NA,NA,""
"image-keyboard-response",23,85715,"0.0-3.4-0.4","2knlz4912fwyuxb",942,"176.csv","","1202.199999988079","resources/trios/L2T1A1.jpg","37","restless",0.3,0.9,0.9,0.628923582775657,"false"
"image-keyboard-response",24,86122,"0.0-3.4-1.4","2knlz4912fwyuxb",942,"176.csv","","null","resources/maskTrios/L2BB.jpg","null","",NA,NA,NA,NA,""
"image-keyboard-response",25,87327,"0.0-3.4-2.4","2knlz4912fwyuxb",942,"176.csv","","null","resources/images/fishbone.png","null","",NA,NA,NA,NA,""
"image-keyboard-response",26,87731,"0.0-3.5-0.5","2knlz4912fwyuxb",942,"176.csv","","402.2000000178814","resources/trios/L4T1A3.jpg","38","restless",0.3,0.9,0.9,0.243082979635131,"true"
"image-keyboard-response",27,88136,"0.0-3.5-1.5","2knlz4912fwyuxb",942,"176.csv","","null","resources/maskTrios/BT1B.jpg","null","",NA,NA,NA,NA,""
"image-keyboard-response",28,89339,"0.0-3.5-2.5","2knlz4912fwyuxb",942,"176.csv","","null","resources/images/coin2.png","null","",NA,NA,NA,NA,""
"image-keyboard-response",29,90520,"0.0-3.6-0.6","2knlz4912fwyuxb",942,"176.csv","","1178.6000000238419","resources/trios/L2T1A1.jpg","39","restless",0.3,0.9,0.9,0.886454843465196,"true"
"image-keyboard-response",30,90927,"0.0-3.6-1.6","2knlz4912fwyuxb",942,"176.csv","","null","resources/maskTrios/BBA1.jpg","null","",NA,NA,NA,NA,""
"image-keyboard-response",31,92135,"0.0-3.6-2.6","2knlz4912fwyuxb",942,"176.csv","","null","resources/images/coin2.png","null","",NA,NA,NA,NA,""
"image-keyboard-response",32,94519,"0.0-3.7-0.7","2knlz4912fwyuxb",942,"176.csv","","2382.5","resources/trios/L2T1A1.jpg","39","restless",0.3,0.9,0.9,0.979808079934102,"false"
"image-keyboard-response",33,94926,"0.0-3.7-1.7","2knlz4912fwyuxb",942,"176.csv","","null","resources/maskTrios/BBA1.jpg","null","",NA,NA,NA,NA,""
"image-keyboard-response",34,96133,"0.0-3.7-2.7","2knlz4912fwyuxb",942,"176.csv","","null","resources/images/fishbone.png","null","",NA,NA,NA,NA,""
"image-keyboard-response",35,96555,"0.0-3.8-0.8","2knlz4912fwyuxb",942,"176.csv","","419.69999998807907","resources/trios/L4T4A3.jpg","38","restless",0.3,0.9,0.9,0.90491319163626,"false"
"image-keyboard-response",36,96960,"0.0-3.8-1.8","2knlz4912fwyuxb",942,"176.csv","","null","resources/maskTrios/BT4B.jpg","null","",NA,NA,NA,NA,""
"image-keyboard-response",37,98167,"0.0-3.8-2.8","2knlz4912fwyuxb",942,"176.csv","","null","resources/images/fishbone.png","null","",NA,NA,NA,NA,""
"image-keyboard-response",38,98504,"0.0-3.9-0.9","2knlz4912fwyuxb",942,"176.csv","","335.40000000596046","resources/trios/L4T1A1.jpg","37","restless",0.3,0.8,0.9,0.676387810100388,"false"
"image-keyboard-response",39,98910,"0.0-3.9-1.9","2knlz4912fwyuxb",942,"176.csv","","null","resources/maskTrios/L4BB.jpg","null","",NA,NA,NA,NA,""
"image-keyboard-response",40,100117,"0.0-3.9-2.9","2knlz4912fwyuxb",942,"176.csv","","null","resources/images/fishbone.png","null","",NA,NA,NA,NA,""
"image-keyboard-response",41,100956,"0.0-3.10-0.10","2knlz4912fwyuxb",942,"176.csv","","836.0999999940395","resources/trios/L2T1A1.jpg","38","restless",0.3,0.7,0.9,0.636742228733513,"true"
"image-keyboard-response",42,101360,"0.0-3.10-1.10","2knlz4912fwyuxb",942,"176.csv","","null","resources/maskTrios/BT1B.jpg","null","",NA,NA,NA,NA,""
"image-keyboard-response",43,102563,"0.0-3.10-2.10","2knlz4912fwyuxb",942,"176.csv","","null","resources/images/coin2.png","null","",NA,NA,NA,NA,""
"image-keyboard-response",44,104784,"0.0-3.11-0.11","2knlz4912fwyuxb",942,"176.csv","","2218.300000011921","resources/trios/L4T4A1.jpg","37","restless",0.3,0.7,0.9,0.247266844460905,"true"
"image-keyboard-response",45,105191,"0.0-3.11-1.11","2knlz4912fwyuxb",942,"176.csv","","null","resources/maskTrios/L4BB.jpg","null","",NA,NA,NA,NA,""
"image-keyboard-response",46,106394,"0.0-3.11-2.11","2knlz4912fwyuxb",942,"176.csv","","null","resources/images/coin2.png","null","",NA,NA,NA,NA,""
"image-keyboard-response",47,109309,"0.0-3.12-0.12","2knlz4912fwyuxb",942,"176.csv","","2913.2000000178814","resources/trios/L4T1A1.jpg","39","restless",0.2,0.7,0.8,0.282430780555692,"true"
"image-keyboard-response",48,109712,"0.0-3.12-1.12","2knlz4912fwyuxb",942,"176.csv","","null","resources/maskTrios/BBA1.jpg","null","",NA,NA,NA,NA,""
"image-keyboard-response",49,110919,"0.0-3.12-2.12","2knlz4912fwyuxb",942,"176.csv","","null","resources/images/coin2.png","null","",NA,NA,NA,NA,""
"image-keyboard-response",50,112267,"0.0-3.13-0.13","2knlz4912fwyuxb",942,"176.csv","","1346.300000011921","resources/trios/L4T1A1.jpg","39","restless",0.2,0.7,0.8,0.229133966198554,"true"
"image-keyboard-response",51,112674,"0.0-3.13-1.13","2knlz4912fwyuxb",942,"176.csv","","null","resources/maskTrios/BBA1.jpg","null","",NA,NA,NA,NA,""
"image-keyboard-response",52,113877,"0.0-3.13-2.13","2knlz4912fwyuxb",942,"176.csv","","null","resources/images/coin2.png","null","",NA,NA,NA,NA,""
"image-keyboard-response",53,114366,"0.0-3.14-0.14","2knlz4912fwyuxb",942,"176.csv","","486","resources/trios/L2T1A3.jpg","38","restless",0.2,0.6,0.8,0.287176452078014,"true"
"image-keyboard-response",54,114773,"0.0-3.14-1.14","2knlz4912fwyuxb",942,"176.csv","","null","resources/maskTrios/BT1B.jpg","null","",NA,NA,NA,NA,""
"image-keyboard-response",55,115977,"0.0-3.14-2.14","2knlz4912fwyuxb",942,"176.csv","","null","resources/images/coin2.png","null","",NA,NA,NA,NA,""
"image-keyboard-response",56,116446,"0.0-3.15-0.15","2knlz4912fwyuxb",942,"176.csv","","466.69999998807907","resources/trios/L4T4A3.jpg","37","restless",0.2,0.6,0.8,0.798744982757185,"false"
"image-keyboard-response",57,116853,"0.0-3.15-1.15","2knlz4912fwyuxb",942,"176.csv","","null","resources/maskTrios/L4BB.jpg","null","",NA,NA,NA,NA,""
"image-keyboard-response",58,118058,"0.0-3.15-2.15","2knlz4912fwyuxb",942,"176.csv","","null","resources/images/fishbone.png","null","",NA,NA,NA,NA,""
"image-keyboard-response",59,118576,"0.0-3.16-0.16","2knlz4912fwyuxb",942,"176.csv","","515.8000000119209","resources/trios/L4T1A1.jpg","38","restless",0.2,0.5,0.8,0.155115429448149,"true"
"image-keyboard-response",60,118981,"0.0-3.16-1.16","2knlz4912fwyuxb",942,"176.csv","","null","resources/maskTrios/BT1B.jpg","null","",NA,NA,NA,NA,""
"image-keyboard-response",61,120188,"0.0-3.16-2.16","2knlz4912fwyuxb",942,"176.csv","","null","resources/images/coin2.png","null","",NA,NA,NA,NA,""
"image-keyboard-response",62,120689,"0.0-3.17-0.17","2knlz4912fwyuxb",942,"176.csv","","498.80000001192093","resources/trios/L4T4A3.jpg","38","restless",0.2,0.5,0.8,0.0406756614523978,"true"
"image-keyboard-response",63,121094,"0.0-3.17-1.17","2knlz4912fwyuxb",942,"176.csv","","null","resources/maskTrios/BT4B.jpg","null","",NA,NA,NA,NA,""
"image-keyboard-response",64,122299,"0.0-3.17-2.17","2knlz4912fwyuxb",942,"176.csv","","null","resources/images/coin2.png","null","",NA,NA,NA,NA,""
"image-keyboard-response",65,122684,"0.0-3.18-0.18","2knlz4912fwyuxb",942,"176.csv","","382.69999998807907","resources/trios/L4T4A3.jpg","38","restless",0.2,0.5,0.8,0.46701960989059,"true"
"image-keyboard-response",66,123089,"0.0-3.18-1.18","2knlz4912fwyuxb",942,"176.csv","","null","resources/maskTrios/BT4B.jpg","null","",NA,NA,NA,NA,""
"image-keyboard-response",67,124294,"0.0-3.18-2.18","2knlz4912fwyuxb",942,"176.csv","","null","resources/images/coin2.png","null","",NA,NA,NA,NA,""
"image-keyboard-response",68,124791,"0.0-3.19-0.19","2knlz4912fwyuxb",942,"176.csv","","495.30000001192093","resources/trios/L4T4A3.jpg","39","restless",0.3,0.5,0.8,0.174787203837766,"true"
"image-keyboard-response",69,125194,"0.0-3.19-1.19","2knlz4912fwyuxb",942,"176.csv","","null","resources/maskTrios/BBA3.jpg","null","",NA,NA,NA,NA,""
"image-keyboard-response",70,126397,"0.0-3.19-2.19","2knlz4912fwyuxb",942,"176.csv","","null","resources/images/coin2.png","null","",NA,NA,NA,NA,""
"image-keyboard-response",71,128173,"0.0-3.20-0.20","2knlz4912fwyuxb",942,"176.csv","","1773.9000000059605","resources/trios/L4T4A1.jpg","37","restless",0.3,0.5,0.8,0.124390149962643,"true"
"image-keyboard-response",72,128577,"0.0-3.20-1.20","2knlz4912fwyuxb",942,"176.csv","","null","resources/maskTrios/L4BB.jpg","null","",NA,NA,NA,NA,""
"image-keyboard-response",73,129784,"0.0-3.20-2.20","2knlz4912fwyuxb",942,"176.csv","","null","resources/images/coin2.png","null","",NA,NA,NA,NA,""
"image-keyboard-response",74,130076,"0.0-3.21-0.21","2knlz4912fwyuxb",942,"176.csv","","289.59999999403954","resources/trios/L4T4A3.jpg","37","restless",0.3,0.5,0.8,0.981198071510473,"false"
"image-keyboard-response",75,130483,"0.0-3.21-1.21","2knlz4912fwyuxb",942,"176.csv","","null","resources/maskTrios/L4BB.jpg","null","",NA,NA,NA,NA,""
"image-keyboard-response",76,131689,"0.0-3.21-2.21","2knlz4912fwyuxb",942,"176.csv","","null","resources/images/fishbone.png","null","",NA,NA,NA,NA,""
"image-keyboard-response",77,132044,"0.0-3.22-0.22","2knlz4912fwyuxb",942,"176.csv","","353.39999997615814","resources/trios/L4T4A3.jpg","38","restless",0.3,0.5,0.8,0.495489426869956,"true"
"image-keyboard-response",78,132449,"0.0-3.22-1.22","2knlz4912fwyuxb",942,"176.csv","","null","resources/maskTrios/BT4B.jpg","null","",NA,NA,NA,NA,""
"image-keyboard-response",79,133656,"0.0-3.22-2.22","2knlz4912fwyuxb",942,"176.csv","","null","resources/images/coin2.png","null","",NA,NA,NA,NA,""
"image-keyboard-response",80,134007,"0.0-3.23-0.23","2knlz4912fwyuxb",942,"176.csv","","348.60000002384186","resources/trios/L2T4A1.jpg","39","restless",0.3,0.4,0.9,0.23624503177618,"true"
"image-keyboard-response",81,134414,"0.0-3.23-1.23","2knlz4912fwyuxb",942,"176.csv","","null","resources/maskTrios/BBA1.jpg","null","",NA,NA,NA,NA,""
"image-keyboard-response",82,135617,"0.0-3.23-2.23","2knlz4912fwyuxb",942,"176.csv","","null","resources/images/coin2.png","null","",NA,NA,NA,NA,""
"image-keyboard-response",83,135851,"0.0-3.24-0.24","2knlz4912fwyuxb",942,"176.csv","","232.09999999403954","resources/trios/L2T4A3.jpg","39","restless",0.3,0.4,0.9,0.99831597080292,"false"
"image-keyboard-response",84,136253,"0.0-3.24-1.24","2knlz4912fwyuxb",942,"176.csv","","null","resources/maskTrios/BBA3.jpg","null","",NA,NA,NA,NA,""
"image-keyboard-response",85,137457,"0.0-3.24-2.24","2knlz4912fwyuxb",942,"176.csv","","null","resources/images/fishbone.png","null","",NA,NA,NA,NA,""
"image-keyboard-response",86,137763,"0.0-3.25-0.25","2knlz4912fwyuxb",942,"176.csv","","303.19999998807907","resources/trios/L2T4A1.jpg","37","restless",0.3,0.3,0.9,0.866125536626493,"false"
"image-keyboard-response",87,138167,"0.0-3.25-1.25","2knlz4912fwyuxb",942,"176.csv","","null","resources/maskTrios/L2BB.jpg","null","",NA,NA,NA,NA,""
"image-keyboard-response",88,139369,"0.0-3.25-2.25","2knlz4912fwyuxb",942,"176.csv","","null","resources/images/fishbone.png","null","",NA,NA,NA,NA,""
"image-keyboard-response",89,139653,"0.0-3.26-0.26","2knlz4912fwyuxb",942,"176.csv","","281.2999999821186","resources/trios/L4T1A1.jpg","38","restless",0.3,0.3,0.8,0.890435259094837,"false"
"image-keyboard-response",90,140060,"0.0-3.26-1.26","2knlz4912fwyuxb",942,"176.csv","","null","resources/maskTrios/BT1B.jpg","null","",NA,NA,NA,NA,""
"image-keyboard-response",91,141263,"0.0-3.26-2.26","2knlz4912fwyuxb",942,"176.csv","","null","resources/images/fishbone.png","null","",NA,NA,NA,NA,""
"image-keyboard-response",92,142079,"0.0-3.27-0.27","2knlz4912fwyuxb",942,"176.csv","","813.8000000119209","resources/trios/L2T1A3.jpg","38","restless",0.2,0.4,0.8,0.376909767960079,"true"
"image-keyboard-response",93,142486,"0.0-3.27-1.27","2knlz4912fwyuxb",942,"176.csv","","null","resources/maskTrios/BT1B.jpg","null","",NA,NA,NA,NA,""
"image-keyboard-response",94,143693,"0.0-3.27-2.27","2knlz4912fwyuxb",942,"176.csv","","null","resources/images/coin2.png","null","",NA,NA,NA,NA,""
"image-keyboard-response",95,144535,"0.0-3.28-0.28","2knlz4912fwyuxb",942,"176.csv","","841.8000000119209","resources/trios/L4T4A1.jpg","39","restless",0.2,0.4,0.8,0.490717675362539,"true"
"image-keyboard-response",96,144942,"0.0-3.28-1.28","2knlz4912fwyuxb",942,"176.csv","","null","resources/maskTrios/BBA1.jpg","null","",NA,NA,NA,NA,""
"image-keyboard-response",97,146144,"0.0-3.28-2.28","2knlz4912fwyuxb",942,"176.csv","","null","resources/images/coin2.png","null","",NA,NA,NA,NA,""
"image-keyboard-response",98,146659,"0.0-3.29-0.29","2knlz4912fwyuxb",942,"176.csv","","513.4000000059605","resources/trios/L4T1A1.jpg","39","restless",0.2,0.4,0.8,0.916781662921965,"false"
"image-keyboard-response",99,147065,"0.0-3.29-1.29","2knlz4912fwyuxb",942,"176.csv","","null","resources/maskTrios/BBA1.jpg","null","",NA,NA,NA,NA,""
"image-keyboard-response",100,148271,"0.0-3.29-2.29","2knlz4912fwyuxb",942,"176.csv","","null","resources/images/fishbone.png","null","",NA,NA,NA,NA,""
"image-keyboard-response",101,148629,"0.0-3.30-0.30","2knlz4912fwyuxb",942,"176.csv","","355.59999999403954","resources/trios/L4T4A1.jpg","37","restless",0.2,0.4,0.8,0.687180923839784,"false"
"image-keyboard-response",102,149034,"0.0-3.30-1.30","2knlz4912fwyuxb",942,"176.csv","","null","resources/maskTrios/L4BB.jpg","null","",NA,NA,NA,NA,""
"image-keyboard-response",103,150240,"0.0-3.30-2.30","2knlz4912fwyuxb",942,"176.csv","","null","resources/images/fishbone.png","null","",NA,NA,NA,NA,""
"image-keyboard-response",104,150514,"0.0-3.31-0.31","2knlz4912fwyuxb",942,"176.csv","","271.09999999403954","resources/trios/L2T4A1.jpg","37","restless",0.2,0.4,0.8,0.269100708078024,"false"
"image-keyboard-response",105,150921,"0.0-3.31-1.31","2knlz4912fwyuxb",942,"176.csv","","null","resources/maskTrios/L2BB.jpg","null","",NA,NA,NA,NA,""
"image-keyboard-response",106,152127,"0.0-3.31-2.31","2knlz4912fwyuxb",942,"176.csv","","null","resources/images/fishbone.png","null","",NA,NA,NA,NA,""
"image-keyboard-response",107,152587,"0.0-3.32-0.32","2knlz4912fwyuxb",942,"176.csv","","457.5","resources/trios/L4T1A3.jpg","37","restless",0.2,0.4,0.9,0.866921286598917,"false"
"image-keyboard-response",108,152994,"0.0-3.32-1.32","2knlz4912fwyuxb",942,"176.csv","","null","resources/maskTrios/L4BB.jpg","null","",NA,NA,NA,NA,""
"image-keyboard-response",109,154200,"0.0-3.32-2.32","2knlz4912fwyuxb",942,"176.csv","","null","resources/images/fishbone.png","null","",NA,NA,NA,NA,""
"image-keyboard-response",110,154445,"0.0-3.33-0.33","2knlz4912fwyuxb",942,"176.csv","","242.09999999403954","resources/trios/L4T4A1.jpg","38","restless",0.2,0.4,0.9,0.245170214585309,"true"
"image-keyboard-response",111,154852,"0.0-3.33-1.33","2knlz4912fwyuxb",942,"176.csv","","null","resources/maskTrios/BT4B.jpg","null","",NA,NA,NA,NA,""
"image-keyboard-response",112,156059,"0.0-3.33-2.33","2knlz4912fwyuxb",942,"176.csv","","null","resources/images/coin2.png","null","",NA,NA,NA,NA,""
"image-keyboard-response",113,156486,"0.0-3.34-0.34","2knlz4912fwyuxb",942,"176.csv","","425.19999998807907","resources/trios/L4T1A3.jpg","38","restless",0.3,0.4,0.9,0.386210331848945,"true"
"image-keyboard-response",114,156894,"0.0-3.34-1.34","2knlz4912fwyuxb",942,"176.csv","","null","resources/maskTrios/BT1B.jpg","null","",NA,NA,NA,NA,""
"image-keyboard-response",115,158101,"0.0-3.34-2.34","2knlz4912fwyuxb",942,"176.csv","","null","resources/images/coin2.png","null","",NA,NA,NA,NA,""
"image-keyboard-response",116,158539,"0.0-3.35-0.35","2knlz4912fwyuxb",942,"176.csv","","436.39999997615814","resources/trios/L4T1A3.jpg","38","restless",0.2,0.4,0.9,0.314500856736414,"true"
"image-keyboard-response",117,158944,"0.0-3.35-1.35","2knlz4912fwyuxb",942,"176.csv","","null","resources/maskTrios/BT1B.jpg","null","",NA,NA,NA,NA,""
"image-keyboard-response",118,160151,"0.0-3.35-2.35","2knlz4912fwyuxb",942,"176.csv","","null","resources/images/coin2.png","null","",NA,NA,NA,NA,""
"image-keyboard-response",119,160778,"0.0-3.36-0.36","2knlz4912fwyuxb",942,"176.csv","","624.2999999821186","resources/trios/L2T4A1.jpg","39","restless",0.3,0.4,0.9,0.935187826111005,"false"
"image-keyboard-response",120,161185,"0.0-3.36-1.36","2knlz4912fwyuxb",942,"176.csv","","null","resources/maskTrios/BBA1.jpg","null","",NA,NA,NA,NA,""
"image-keyboard-response",121,162392,"0.0-3.36-2.36","2knlz4912fwyuxb",942,"176.csv","","null","resources/images/fishbone.png","null","",NA,NA,NA,NA,""
"image-keyboard-response",122,162634,"0.0-3.37-0.37","2knlz4912fwyuxb",942,"176.csv","","240.5","resources/trios/L4T1A3.jpg","38","restless",0.3,0.4,0.9,0.505831857770582,"false"
"image-keyboard-response",123,163041,"0.0-3.37-1.37","2knlz4912fwyuxb",942,"176.csv","","null","resources/maskTrios/BT1B.jpg","null","",NA,NA,NA,NA,""
"image-keyboard-response",124,164244,"0.0-3.37-2.37","2knlz4912fwyuxb",942,"176.csv","","null","resources/images/fishbone.png","null","",NA,NA,NA,NA,""
"image-keyboard-response",125,164469,"0.0-3.38-0.38","2knlz4912fwyuxb",942,"176.csv","","222.7000000178814","resources/trios/L2T1A1.jpg","39","restless",0.3,0.4,0.9,0.897381493063839,"true"
"image-keyboard-response",126,164876,"0.0-3.38-1.38","2knlz4912fwyuxb",942,"176.csv","","null","resources/maskTrios/BBA1.jpg","null","",NA,NA,NA,NA,""
"image-keyboard-response",127,166081,"0.0-3.38-2.38","2knlz4912fwyuxb",942,"176.csv","","null","resources/images/coin2.png","null","",NA,NA,NA,NA,""
"image-keyboard-response",128,166340,"0.0-3.39-0.39","2knlz4912fwyuxb",942,"176.csv","","257.09999999403954","resources/trios/L2T4A1.jpg","39","restless",0.2,0.4,0.9,0.527977329707919,"true"
"image-keyboard-response",129,166744,"0.0-3.39-1.39","2knlz4912fwyuxb",942,"176.csv","","null","resources/maskTrios/BBA1.jpg","null","",NA,NA,NA,NA,""
"image-keyboard-response",130,167951,"0.0-3.39-2.39","2knlz4912fwyuxb",942,"176.csv","","null","resources/images/coin2.png","null","",NA,NA,NA,NA,""
"image-keyboard-response",131,168105,"0.0-3.40-0.40","2knlz4912fwyuxb",942,"176.csv","","151","resources/trios/L2T4A3.jpg","39","restless",0.2,0.4,0.9,0.888455739088523,"true"
"image-keyboard-response",132,168511,"0.0-3.40-1.40","2knlz4912fwyuxb",942,"176.csv","","null","resources/maskTrios/BBA3.jpg","null","",NA,NA,NA,NA,""
"image-keyboard-response",133,169718,"0.0-3.40-2.40","2knlz4912fwyuxb",942,"176.csv","","null","resources/images/coin2.png","null","",NA,NA,NA,NA,""
"image-keyboard-response",134,169949,"0.0-3.41-0.41","2knlz4912fwyuxb",942,"176.csv","","229.5","resources/trios/L4T4A3.jpg","39","restless",0.2,0.4,0.9,0.89391649564078,"true"
"image-keyboard-response",135,170356,"0.0-3.41-1.41","2knlz4912fwyuxb",942,"176.csv","","null","resources/maskTrios/BBA3.jpg","null","",NA,NA,NA,NA,""
"image-keyboard-response",136,171561,"0.0-3.41-2.41","2knlz4912fwyuxb",942,"176.csv","","null","resources/images/coin2.png","null","",NA,NA,NA,NA,""
"image-keyboard-response",137,171829,"0.0-3.42-0.42","2knlz4912fwyuxb",942,"176.csv","","266","resources/trios/L4T1A1.jpg","39","restless",0.2,0.4,0.9,0.442427393151009,"true"
"image-keyboard-response",138,172236,"0.0-3.42-1.42","2knlz4912fwyuxb",942,"176.csv","","null","resources/maskTrios/BBA1.jpg","null","",NA,NA,NA,NA,""
"image-keyboard-response",139,173443,"0.0-3.42-2.42","2knlz4912fwyuxb",942,"176.csv","","null","resources/images/coin2.png","null","",NA,NA,NA,NA,""
"image-keyboard-response",140,173806,"0.0-3.43-0.43","2knlz4912fwyuxb",942,"176.csv","","361.30000001192093","resources/trios/L4T4A1.jpg","39","restless",0.2,0.4,0.9,0.213741352078054,"true"
"image-keyboard-response",141,174211,"0.0-3.43-1.43","2knlz4912fwyuxb",942,"176.csv","","null","resources/maskTrios/BBA1.jpg","null","",NA,NA,NA,NA,""
"image-keyboard-response",142,175415,"0.0-3.43-2.43","2knlz4912fwyuxb",942,"176.csv","","null","resources/images/coin2.png","null","",NA,NA,NA,NA,""
"image-keyboard-response",143,175688,"0.0-3.44-0.44","2knlz4912fwyuxb",942,"176.csv","","271","resources/trios/L2T1A1.jpg","39","restless",0.2,0.4,0.9,0.181944001290279,"true"
"image-keyboard-response",144,176094,"0.0-3.44-1.44","2knlz4912fwyuxb",942,"176.csv","","null","resources/maskTrios/BBA1.jpg","null","",NA,NA,NA,NA,""
"image-keyboard-response",145,177301,"0.0-3.44-2.44","2knlz4912fwyuxb",942,"176.csv","","null","resources/images/coin2.png","null","",NA,NA,NA,NA,""
"image-keyboard-response",146,177627,"0.0-3.45-0.45","2knlz4912fwyuxb",942,"176.csv","","324.19999998807907","resources/trios/L2T1A1.jpg","39","restless",0.3,0.4,0.9,0.397686802713542,"true"
"image-keyboard-response",147,178034,"0.0-3.45-1.45","2knlz4912fwyuxb",942,"176.csv","","null","resources/maskTrios/BBA1.jpg","null","",NA,NA,NA,NA,""
"image-keyboard-response",148,179241,"0.0-3.45-2.45","2knlz4912fwyuxb",942,"176.csv","","null","resources/images/coin2.png","null","",NA,NA,NA,NA,""
"image-keyboard-response",149,179468,"0.0-3.46-0.46","2knlz4912fwyuxb",942,"176.csv","","225.5","resources/trios/L4T4A1.jpg","39","restless",0.3,0.4,0.9,0.695941799043853,"true"
"image-keyboard-response",150,179871,"0.0-3.46-1.46","2knlz4912fwyuxb",942,"176.csv","","null","resources/maskTrios/BBA1.jpg","null","",NA,NA,NA,NA,""
"image-keyboard-response",151,181077,"0.0-3.46-2.46","2knlz4912fwyuxb",942,"176.csv","","null","resources/images/coin2.png","null","",NA,NA,NA,NA,""
"image-keyboard-response",152,181316,"0.0-3.47-0.47","2knlz4912fwyuxb",942,"176.csv","","236.59999999403954","resources/trios/L4T4A1.jpg","39","restless",0.3,0.4,0.9,0.739105486495798,"true"
"image-keyboard-response",153,181721,"0.0-3.47-1.47","2knlz4912fwyuxb",942,"176.csv","","null","resources/maskTrios/BBA1.jpg","null","",NA,NA,NA,NA,""
"image-keyboard-response",154,182927,"0.0-3.47-2.47","2knlz4912fwyuxb",942,"176.csv","","null","resources/images/coin2.png","null","",NA,NA,NA,NA,""
"image-keyboard-response",155,182992,"0.0-3.48-0.48","2knlz4912fwyuxb",942,"176.csv","","62.80000001192093","resources/trios/L2T1A1.jpg","39","restless",0.4,0.4,0.9,0.125593117477461,"true"
"image-keyboard-response",156,183396,"0.0-3.48-1.48","2knlz4912fwyuxb",942,"176.csv","","null","resources/maskTrios/BBA1.jpg","null","",NA,NA,NA,NA,""
"image-keyboard-response",157,184598,"0.0-3.48-2.48","2knlz4912fwyuxb",942,"176.csv","","null","resources/images/coin2.png","null","",NA,NA,NA,NA,""
"image-keyboard-response",158,184825,"0.0-3.49-0.49","2knlz4912fwyuxb",942,"176.csv","","224.5","resources/trios/L2T1A3.jpg","39","restless",0.4,0.4,0.9,0.0450375076649256,"true"
"image-keyboard-response",159,185232,"0.0-3.49-1.49","2knlz4912fwyuxb",942,"176.csv","","null","resources/maskTrios/BBA3.jpg","null","",NA,NA,NA,NA,""
"image-keyboard-response",160,186439,"0.0-3.49-2.49","2knlz4912fwyuxb",942,"176.csv","","null","resources/images/coin2.png","null","",NA,NA,NA,NA,""
"image-keyboard-response",161,186701,"0.0-3.50-0.50","2knlz4912fwyuxb",942,"176.csv","","260","resources/trios/L2T4A1.jpg","39","restless",0.4,0.5,0.9,0.105498041449484,"true"
"image-keyboard-response",162,187108,"0.0-3.50-1.50","2knlz4912fwyuxb",942,"176.csv","","null","resources/maskTrios/BBA1.jpg","null","",NA,NA,NA,NA,""
"image-keyboard-response",163,188311,"0.0-3.50-2.50","2knlz4912fwyuxb",942,"176.csv","","null","resources/images/coin2.png","null","",NA,NA,NA,NA,""
"image-keyboard-response",164,188561,"0.0-3.51-0.51","2knlz4912fwyuxb",942,"176.csv","","248.19999998807907","resources/trios/L4T1A3.jpg","39","restless",0.4,0.5,0.9,0.36869276177614,"true"
"image-keyboard-response",165,188968,"0.0-3.51-1.51","2knlz4912fwyuxb",942,"176.csv","","null","resources/maskTrios/BBA3.jpg","null","",NA,NA,NA,NA,""
"image-keyboard-response",166,190175,"0.0-3.51-2.51","2knlz4912fwyuxb",942,"176.csv","","null","resources/images/coin2.png","null","",NA,NA,NA,NA,""
"image-keyboard-response",167,190403,"0.0-3.52-0.52","2knlz4912fwyuxb",942,"176.csv","","225.69999998807907","resources/trios/L2T1A3.jpg","39","restless",0.4,0.5,0.9,0.775482711990574,"true"
"image-keyboard-response",168,190810,"0.0-3.52-1.52","2knlz4912fwyuxb",942,"176.csv","","null","resources/maskTrios/BBA3.jpg","null","",NA,NA,NA,NA,""
"image-keyboard-response",169,192017,"0.0-3.52-2.52","2knlz4912fwyuxb",942,"176.csv","","null","resources/images/coin2.png","null","",NA,NA,NA,NA,""
"image-keyboard-response",170,192271,"0.0-3.53-0.53","2knlz4912fwyuxb",942,"176.csv","","251.5","resources/trios/L2T4A3.jpg","39","restless",0.4,0.5,0.9,0.321815610717465,"true"
"image-keyboard-response",171,192677,"0.0-3.53-1.53","2knlz4912fwyuxb",942,"176.csv","","null","resources/maskTrios/BBA3.jpg","null","",NA,NA,NA,NA,""
"image-keyboard-response",172,193885,"0.0-3.53-2.53","2knlz4912fwyuxb",942,"176.csv","","null","resources/images/coin2.png","null","",NA,NA,NA,NA,""
"image-keyboard-response",173,194128,"0.0-3.54-0.54","2knlz4912fwyuxb",942,"176.csv","","241.59999999403954","resources/trios/L4T4A3.jpg","39","restless",0.4,0.5,0.9,0.893390617766981,"true"
"image-keyboard-response",174,194533,"0.0-3.54-1.54","2knlz4912fwyuxb",942,"176.csv","","null","resources/maskTrios/BBA3.jpg","null","",NA,NA,NA,NA,""
"image-keyboard-response",175,195740,"0.0-3.54-2.54","2knlz4912fwyuxb",942,"176.csv","","null","resources/images/coin2.png","null","",NA,NA,NA,NA,""
"image-keyboard-response",176,195977,"0.0-3.55-0.55","2knlz4912fwyuxb",942,"176.csv","","235.59999999403954","resources/trios/L2T4A1.jpg","39","restless",0.4,0.5,0.9,0.238471554603306,"true"
"image-keyboard-response",177,196382,"0.0-3.55-1.55","2knlz4912fwyuxb",942,"176.csv","","null","resources/maskTrios/BBA1.jpg","null","",NA,NA,NA,NA,""
"image-keyboard-response",178,197588,"0.0-3.55-2.55","2knlz4912fwyuxb",942,"176.csv","","null","resources/images/coin2.png","null","",NA,NA,NA,NA,""
"image-keyboard-response",179,197810,"0.0-3.56-0.56","2knlz4912fwyuxb",942,"176.csv","","221.59999999403954","resources/trios/L4T1A3.jpg","39","restless",0.4,0.5,0.9,0.796713197654723,"true"
"image-keyboard-response",180,198216,"0.0-3.56-1.56","2knlz4912fwyuxb",942,"176.csv","","null","resources/maskTrios/BBA3.jpg","null","",NA,NA,NA,NA,""
"image-keyboard-response",181,199423,"0.0-3.56-2.56","2knlz4912fwyuxb",942,"176.csv","","null","resources/images/coin2.png","null","",NA,NA,NA,NA,""
"image-keyboard-response",182,199637,"0.0-3.57-0.57","2knlz4912fwyuxb",942,"176.csv","","211.59999999403954","resources/trios/L4T1A1.jpg","39","restless",0.4,0.5,0.9,0.994257971281334,"false"
"image-keyboard-response",183,200042,"0.0-3.57-1.57","2knlz4912fwyuxb",942,"176.csv","","null","resources/maskTrios/BBA1.jpg","null","",NA,NA,NA,NA,""
"image-keyboard-response",184,201244,"0.0-3.57-2.57","2knlz4912fwyuxb",942,"176.csv","","null","resources/images/fishbone.png","null","",NA,NA,NA,NA,""
"image-keyboard-response",185,201674,"0.0-3.58-0.58","2knlz4912fwyuxb",942,"176.csv","","428.2000000178814","resources/trios/L2T4A3.jpg","37","restless",0.4,0.5,0.8,0.0934954253394629,"true"
"image-keyboard-response",186,202079,"0.0-3.58-1.58","2knlz4912fwyuxb",942,"176.csv","","null","resources/maskTrios/L2BB.jpg","null","",NA,NA,NA,NA,""
"image-keyboard-response",187,203286,"0.0-3.58-2.58","2knlz4912fwyuxb",942,"176.csv","","null","resources/images/coin2.png","null","",NA,NA,NA,NA,""
"image-keyboard-response",188,203546,"0.0-3.59-0.59","2knlz4912fwyuxb",942,"176.csv","","258.19999998807907","resources/trios/L2T1A1.jpg","37","restless",0.4,0.5,0.8,0.480131571415648,"false"
"image-keyboard-response",189,203953,"0.0-3.59-1.59","2knlz4912fwyuxb",942,"176.csv","","null","resources/maskTrios/L2BB.jpg","null","",NA,NA,NA,NA,""
"image-keyboard-response",190,205158,"0.0-3.59-2.59","2knlz4912fwyuxb",942,"176.csv","","null","resources/images/fishbone.png","null","",NA,NA,NA,NA,""
"image-keyboard-response",191,205436,"0.0-3.60-0.60","2knlz4912fwyuxb",942,"176.csv","","276.19999998807907","resources/trios/L2T4A1.jpg","38","restless",0.4,0.6,0.9,0.850383530072244,"false"
"image-keyboard-response",192,205843,"0.0-3.60-1.60","2knlz4912fwyuxb",942,"176.csv","","null","resources/maskTrios/BT4B.jpg","null","",NA,NA,NA,NA,""
"image-keyboard-response",193,207050,"0.0-3.60-2.60","2knlz4912fwyuxb",942,"176.csv","","null","resources/images/fishbone.png","null","",NA,NA,NA,NA,""
"image-keyboard-response",194,207325,"0.0-3.61-0.61","2knlz4912fwyuxb",942,"176.csv","","272.80000001192093","resources/trios/L4T4A3.jpg","37","restless",0.4,0.6,0.9,0.529022016545319,"false"
"image-keyboard-response",195,207727,"0.0-3.61-1.61","2knlz4912fwyuxb",942,"176.csv","","null","resources/maskTrios/L4BB.jpg","null","",NA,NA,NA,NA,""
"image-keyboard-response",196,208933,"0.0-3.61-2.61","2knlz4912fwyuxb",942,"176.csv","","null","resources/images/fishbone.png","null","",NA,NA,NA,NA,""
"image-keyboard-response",197,209204,"0.0-3.62-0.62","2knlz4912fwyuxb",942,"176.csv","","268.19999998807907","resources/trios/L4T1A1.jpg","38","restless",0.4,0.6,0.9,0.0617684060525623,"true"
"image-keyboard-response",198,209608,"0.0-3.62-1.62","2knlz4912fwyuxb",942,"176.csv","","null","resources/maskTrios/BT1B.jpg","null","",NA,NA,NA,NA,""
"image-keyboard-response",199,210811,"0.0-3.62-2.62","2knlz4912fwyuxb",942,"176.csv","","null","resources/images/coin2.png","null","",NA,NA,NA,NA,""
"image-keyboard-response",200,211066,"0.0-3.63-0.63","2knlz4912fwyuxb",942,"176.csv","","253.90000000596046","resources/trios/L2T1A3.jpg","38","restless",0.4,0.6,0.9,0.761364706292011,"false"
"image-keyboard-response",201,211473,"0.0-3.63-1.63","2knlz4912fwyuxb",942,"176.csv","","null","resources/maskTrios/BT1B.jpg","null","",NA,NA,NA,NA,""
"image-keyboard-response",202,212677,"0.0-3.63-2.63","2knlz4912fwyuxb",942,"176.csv","","null","resources/images/fishbone.png","null","",NA,NA,NA,NA,""
"image-keyboard-response",203,213030,"0.0-3.64-0.64","2knlz4912fwyuxb",942,"176.csv","","350.40000000596046","resources/trios/L4T1A3.jpg","39","restless",0.4,0.6,0.9,0.569301734332021,"true"
"image-keyboard-response",204,213433,"0.0-3.64-1.64","2knlz4912fwyuxb",942,"176.csv","","null","resources/maskTrios/BBA3.jpg","null","",NA,NA,NA,NA,""
"image-keyboard-response",205,214639,"0.0-3.64-2.64","2knlz4912fwyuxb",942,"176.csv","","null","resources/images/coin2.png","null","",NA,NA,NA,NA,""
"image-keyboard-response",206,214981,"0.0-3.65-0.65","2knlz4912fwyuxb",942,"176.csv","","339.30000001192093","resources/trios/L4T4A3.jpg","39","restless",0.4,0.6,0.9,0.0774958863694695,"true"
"image-keyboard-response",207,215387,"0.0-3.65-1.65","2knlz4912fwyuxb",942,"176.csv","","null","resources/maskTrios/BBA3.jpg","null","",NA,NA,NA,NA,""
"image-keyboard-response",208,216594,"0.0-3.65-2.65","2knlz4912fwyuxb",942,"176.csv","","null","resources/images/coin2.png","null","",NA,NA,NA,NA,""
"image-keyboard-response",209,216864,"0.0-3.66-0.66","2knlz4912fwyuxb",942,"176.csv","","268.2999999821186","resources/trios/L2T1A3.jpg","39","restless",0.4,0.6,0.9,0.862908730606283,"true"
"image-keyboard-response",210,217271,"0.0-3.66-1.66","2knlz4912fwyuxb",942,"176.csv","","null","resources/maskTrios/BBA3.jpg","null","",NA,NA,NA,NA,""
"image-keyboard-response",211,218478,"0.0-3.66-2.66","2knlz4912fwyuxb",942,"176.csv","","null","resources/images/coin2.png","null","",NA,NA,NA,NA,""
"image-keyboard-response",212,218746,"0.0-3.67-0.67","2knlz4912fwyuxb",942,"176.csv","","265.90000000596046","resources/trios/L2T1A1.jpg","39","restless",0.4,0.6,0.9,0.663180660874548,"true"
"image-keyboard-response",213,219153,"0.0-3.67-1.67","2knlz4912fwyuxb",942,"176.csv","","null","resources/maskTrios/BBA1.jpg","null","",NA,NA,NA,NA,""
"image-keyboard-response",214,220360,"0.0-3.67-2.67","2knlz4912fwyuxb",942,"176.csv","","null","resources/images/coin2.png","null","",NA,NA,NA,NA,""
"image-keyboard-response",215,220652,"0.0-3.68-0.68","2knlz4912fwyuxb",942,"176.csv","","290.40000000596046","resources/trios/L4T1A3.jpg","39","restless",0.4,0.6,0.9,0.90470196263254,"false"
"image-keyboard-response",216,221060,"0.0-3.68-1.68","2knlz4912fwyuxb",942,"176.csv","","null","resources/maskTrios/BBA3.jpg","null","",NA,NA,NA,NA,""
"image-keyboard-response",217,222267,"0.0-3.68-2.68","2knlz4912fwyuxb",942,"176.csv","","null","resources/images/fishbone.png","null","",NA,NA,NA,NA,""
"image-keyboard-response",218,222606,"0.0-3.69-0.69","2knlz4912fwyuxb",942,"176.csv","","337.10000002384186","resources/trios/L2T1A3.jpg","38","restless",0.4,0.6,0.9,0.337246234009195,"true"
"image-keyboard-response",219,223011,"0.0-3.69-1.69","2knlz4912fwyuxb",942,"176.csv","","null","resources/maskTrios/BT1B.jpg","null","",NA,NA,NA,NA,""
"image-keyboard-response",220,224218,"0.0-3.69-2.69","2knlz4912fwyuxb",942,"176.csv","","null","resources/images/coin2.png","null","",NA,NA,NA,NA,""
"image-keyboard-response",221,224526,"0.0-3.70-0.70","2knlz4912fwyuxb",942,"176.csv","","306.30000001192093","resources/trios/L2T4A3.jpg","38","restless",0.4,0.6,0.9,0.0950115630625301,"true"
"image-keyboard-response",222,224929,"0.0-3.70-1.70","2knlz4912fwyuxb",942,"176.csv","","null","resources/maskTrios/BT4B.jpg","null","",NA,NA,NA,NA,""
"image-keyboard-response",223,226136,"0.0-3.70-2.70","2knlz4912fwyuxb",942,"176.csv","","null","resources/images/coin2.png","null","",NA,NA,NA,NA,""
"image-keyboard-response",224,226439,"0.0-3.71-0.71","2knlz4912fwyuxb",942,"176.csv","","300.59999999403954","resources/trios/L4T1A1.jpg","38","restless",0.4,0.5,0.9,0.318669698565511,"true"
"image-keyboard-response",225,226844,"0.0-3.71-1.71","2knlz4912fwyuxb",942,"176.csv","","null","resources/maskTrios/BT1B.jpg","null","",NA,NA,NA,NA,""
"image-keyboard-response",226,228051,"0.0-3.71-2.71","2knlz4912fwyuxb",942,"176.csv","","null","resources/images/coin2.png","null","",NA,NA,NA,NA,""
"image-keyboard-response",227,228301,"0.0-3.72-0.72","2knlz4912fwyuxb",942,"176.csv","","247.69999998807907","resources/trios/L2T4A3.jpg","38","restless",0.4,0.6,0.9,0.49996527557587,"true"
"image-keyboard-response",228,228708,"0.0-3.72-1.72","2knlz4912fwyuxb",942,"176.csv","","null","resources/maskTrios/BT4B.jpg","null","",NA,NA,NA,NA,""
"image-keyboard-response",229,229912,"0.0-3.72-2.72","2knlz4912fwyuxb",942,"176.csv","","null","resources/images/coin2.png","null","",NA,NA,NA,NA,""
"image-keyboard-response",230,230199,"0.0-3.73-0.73","2knlz4912fwyuxb",942,"176.csv","","284.40000000596046","resources/trios/L4T1A3.jpg","38","restless",0.4,0.6,0.9,0.933250166456255,"false"
"image-keyboard-response",231,230606,"0.0-3.73-1.73","2knlz4912fwyuxb",942,"176.csv","","null","resources/maskTrios/BT1B.jpg","null","",NA,NA,NA,NA,""
"image-keyboard-response",232,231811,"0.0-3.73-2.73","2knlz4912fwyuxb",942,"176.csv","","null","resources/images/fishbone.png","null","",NA,NA,NA,NA,""
"image-keyboard-response",233,232089,"0.0-3.74-0.74","2knlz4912fwyuxb",942,"176.csv","","277.59999999403954","resources/trios/L2T1A1.jpg","37","restless",0.4,0.6,0.9,0.173117783456391,"true"
"image-keyboard-response",234,232496,"0.0-3.74-1.74","2knlz4912fwyuxb",942,"176.csv","","null","resources/maskTrios/L2BB.jpg","null","",NA,NA,NA,NA,""
"image-keyboard-response",235,233703,"0.0-3.74-2.74","2knlz4912fwyuxb",942,"176.csv","","null","resources/images/coin2.png","null","",NA,NA,NA,NA,""
"image-keyboard-response",236,234017,"0.0-3.75-0.75","2knlz4912fwyuxb",942,"176.csv","","312.30000001192093","resources/trios/L2T4A3.jpg","37","restless",0.3,0.6,0.9,0.47413453838368,"false"
"image-keyboard-response",237,234419,"0.0-3.75-1.75","2knlz4912fwyuxb",942,"176.csv","","null","resources/maskTrios/L2BB.jpg","null","",NA,NA,NA,NA,""
"image-keyboard-response",238,235626,"0.0-3.75-2.75","2knlz4912fwyuxb",942,"176.csv","","null","resources/images/fishbone.png","null","",NA,NA,NA,NA,""
"image-keyboard-response",239,235874,"0.0-3.76-0.76","2knlz4912fwyuxb",942,"176.csv","","245.5","resources/trios/L4T4A1.jpg","39","restless",0.3,0.6,0.8,0.81464130162941,"false"
"image-keyboard-response",240,236278,"0.0-3.76-1.76","2knlz4912fwyuxb",942,"176.csv","","null","resources/maskTrios/BBA1.jpg","null","",NA,NA,NA,NA,""
"image-keyboard-response",241,237484,"0.0-3.76-2.76","2knlz4912fwyuxb",942,"176.csv","","null","resources/images/fishbone.png","null","",NA,NA,NA,NA,""
"image-keyboard-response",242,237764,"0.0-3.77-0.77","2knlz4912fwyuxb",942,"176.csv","","278","resources/trios/L4T1A1.jpg","37","restless",0.3,0.6,0.8,0.200166770427725,"true"
"image-keyboard-response",243,238167,"0.0-3.77-1.77","2knlz4912fwyuxb",942,"176.csv","","null","resources/maskTrios/L4BB.jpg","null","",NA,NA,NA,NA,""
"image-keyboard-response",244,239374,"0.0-3.77-2.77","2knlz4912fwyuxb",942,"176.csv","","null","resources/images/coin2.png","null","",NA,NA,NA,NA,""
"image-keyboard-response",245,239706,"0.0-3.78-0.78","2knlz4912fwyuxb",942,"176.csv","","329.90000000596046","resources/trios/L2T4A3.jpg","37","restless",0.3,0.6,0.8,0.469273422997106,"false"
"image-keyboard-response",246,240111,"0.0-3.78-1.78","2knlz4912fwyuxb",942,"176.csv","","null","resources/maskTrios/L2BB.jpg","null","",NA,NA,NA,NA,""
"image-keyboard-response",247,241318,"0.0-3.78-2.78","2knlz4912fwyuxb",942,"176.csv","","null","resources/images/fishbone.png","null","",NA,NA,NA,NA,""
"image-keyboard-response",248,241616,"0.0-3.79-0.79","2knlz4912fwyuxb",942,"176.csv","","296.09999999403954","resources/trios/L4T1A1.jpg","38","restless",0.3,0.6,0.8,0.668893064650043,"false"
"image-keyboard-response",249,242019,"0.0-3.79-1.79","2knlz4912fwyuxb",942,"176.csv","","null","resources/maskTrios/BT1B.jpg","null","",NA,NA,NA,NA,""
"image-keyboard-response",250,243226,"0.0-3.79-2.79","2knlz4912fwyuxb",942,"176.csv","","null","resources/images/fishbone.png","null","",NA,NA,NA,NA,""
"image-keyboard-response",251,243432,"0.0-3.80-0.80","2knlz4912fwyuxb",942,"176.csv","","203.59999999403954","resources/trios/L4T1A3.jpg","39","restless",0.4,0.6,0.9,0.948616635062018,"false"
"image-keyboard-response",252,243837,"0.0-3.80-1.80","2knlz4912fwyuxb",942,"176.csv","","null","resources/maskTrios/BBA3.jpg","null","",NA,NA,NA,NA,""
"image-keyboard-response",253,245043,"0.0-3.80-2.80","2knlz4912fwyuxb",942,"176.csv","","null","resources/images/fishbone.png","null","",NA,NA,NA,NA,""
"image-keyboard-response",254,245086,"0.0-3.81-0.81","2knlz4912fwyuxb",942,"176.csv","","40.19999998807907","resources/trios/L4T4A3.jpg","38","restless",0.4,0.6,0.9,0.669498000031694,"false"
"image-keyboard-response",255,245489,"0.0-3.81-1.81","2knlz4912fwyuxb",942,"176.csv","","null","resources/maskTrios/BT4B.jpg","null","",NA,NA,NA,NA,""
"image-keyboard-response",256,246694,"0.0-3.81-2.81","2knlz4912fwyuxb",942,"176.csv","","null","resources/images/fishbone.png","null","",NA,NA,NA,NA,""
"image-keyboard-response",257,247031,"0.0-3.82-0.82","2knlz4912fwyuxb",942,"176.csv","","334.90000000596046","resources/trios/L4T4A1.jpg","37","restless",0.4,0.6,0.9,0.804934307859126,"false"
"image-keyboard-response",258,247436,"0.0-3.82-1.82","2knlz4912fwyuxb",942,"176.csv","","null","resources/maskTrios/L4BB.jpg","null","",NA,NA,NA,NA,""
"image-keyboard-response",259,248643,"0.0-3.82-2.82","2knlz4912fwyuxb",942,"176.csv","","null","resources/images/fishbone.png","null","",NA,NA,NA,NA,""
"image-keyboard-response",260,248971,"0.0-3.83-0.83","2knlz4912fwyuxb",942,"176.csv","","326.7000000178814","resources/trios/L4T1A3.jpg","38","restless",0.5,0.6,0.9,0.0861480874342637,"true"
"image-keyboard-response",261,249378,"0.0-3.83-1.83","2knlz4912fwyuxb",942,"176.csv","","null","resources/maskTrios/BT1B.jpg","null","",NA,NA,NA,NA,""
"image-keyboard-response",262,250585,"0.0-3.83-2.83","2knlz4912fwyuxb",942,"176.csv","","null","resources/images/coin2.png","null","",NA,NA,NA,NA,""
"image-keyboard-response",263,250890,"0.0-3.84-0.84","2knlz4912fwyuxb",942,"176.csv","","303.39999997615814","resources/trios/L2T4A3.jpg","38","restless",0.5,0.6,0.9,0.411936542261347,"true"
"image-keyboard-response",264,251296,"0.0-3.84-1.84","2knlz4912fwyuxb",942,"176.csv","","null","resources/maskTrios/BT4B.jpg","null","",NA,NA,NA,NA,""
"image-keyboard-response",265,252501,"0.0-3.84-2.84","2knlz4912fwyuxb",942,"176.csv","","null","resources/images/coin2.png","null","",NA,NA,NA,NA,""
"image-keyboard-response",266,252789,"0.0-3.85-0.85","2knlz4912fwyuxb",942,"176.csv","","285.19999998807907","resources/trios/L2T1A3.jpg","38","restless",0.5,0.6,0.9,0.428909760782827,"true"
"image-keyboard-response",267,253194,"0.0-3.85-1.85","2knlz4912fwyuxb",942,"176.csv","","null","resources/maskTrios/BT1B.jpg","null","",NA,NA,NA,NA,""
"image-keyboard-response",268,254397,"0.0-3.85-2.85","2knlz4912fwyuxb",942,"176.csv","","null","resources/images/coin2.png","null","",NA,NA,NA,NA,""
"image-keyboard-response",269,254776,"0.0-3.86-0.86","2knlz4912fwyuxb",942,"176.csv","","377.19999998807907","resources/trios/L2T1A3.jpg","38","restless",0.5,0.7,0.9,0.437131018502556,"true"
"image-keyboard-response",270,255181,"0.0-3.86-1.86","2knlz4912fwyuxb",942,"176.csv","","null","resources/maskTrios/BT1B.jpg","null","",NA,NA,NA,NA,""
"image-keyboard-response",271,256388,"0.0-3.86-2.86","2knlz4912fwyuxb",942,"176.csv","","null","resources/images/coin2.png","null","",NA,NA,NA,NA,""
"image-keyboard-response",272,256666,"0.0-3.87-0.87","2knlz4912fwyuxb",942,"176.csv","","275.59999999403954","resources/trios/L4T4A3.jpg","38","restless",0.5,0.7,0.9,0.228578363010366,"true"
"image-keyboard-response",273,257071,"0.0-3.87-1.87","2knlz4912fwyuxb",942,"176.csv","","null","resources/maskTrios/BT4B.jpg","null","",NA,NA,NA,NA,""
"image-keyboard-response",274,258278,"0.0-3.87-2.87","2knlz4912fwyuxb",942,"176.csv","","null","resources/images/coin2.png","null","",NA,NA,NA,NA,""
"image-keyboard-response",275,258567,"0.0-3.88-0.88","2knlz4912fwyuxb",942,"176.csv","","287","resources/trios/L4T4A3.jpg","38","restless",0.6,0.7,0.9,0.776651612185296,"false"
"image-keyboard-response",276,258972,"0.0-3.88-1.88","2knlz4912fwyuxb",942,"176.csv","","null","resources/maskTrios/BT4B.jpg","null","",NA,NA,NA,NA,""
"image-keyboard-response",277,260178,"0.0-3.88-2.88","2knlz4912fwyuxb",942,"176.csv","","null","resources/images/fishbone.png","null","",NA,NA,NA,NA,""
"image-keyboard-response",278,260433,"0.0-3.89-0.89","2knlz4912fwyuxb",942,"176.csv","","253.40000000596046","resources/trios/L2T1A3.jpg","39","restless",0.6,0.7,0.9,0.594927858695023,"true"
"image-keyboard-response",279,260838,"0.0-3.89-1.89","2knlz4912fwyuxb",942,"176.csv","","null","resources/maskTrios/BBA3.jpg","null","",NA,NA,NA,NA,""
"image-keyboard-response",280,262044,"0.0-3.89-2.89","2knlz4912fwyuxb",942,"176.csv","","null","resources/images/coin2.png","null","",NA,NA,NA,NA,""
"image-keyboard-response",281,262307,"0.0-3.90-0.90","2knlz4912fwyuxb",942,"176.csv","","260.5","resources/trios/L4T4A3.jpg","39","restless",0.6,0.7,0.9,0.668196942729228,"true"
"image-keyboard-response",282,262711,"0.0-3.90-1.90","2knlz4912fwyuxb",942,"176.csv","","null","resources/maskTrios/BBA3.jpg","null","",NA,NA,NA,NA,""
"image-keyboard-response",283,263916,"0.0-3.90-2.90","2knlz4912fwyuxb",942,"176.csv","","null","resources/images/coin2.png","null","",NA,NA,NA,NA,""
"image-keyboard-response",284,264152,"0.0-3.91-0.91","2knlz4912fwyuxb",942,"176.csv","","234.19999998807907","resources/trios/L4T1A3.jpg","39","restless",0.6,0.7,0.9,0.0315025989736062,"true"
"image-keyboard-response",285,264558,"0.0-3.91-1.91","2knlz4912fwyuxb",942,"176.csv","","null","resources/maskTrios/BBA3.jpg","null","",NA,NA,NA,NA,""
"image-keyboard-response",286,265761,"0.0-3.91-2.91","2knlz4912fwyuxb",942,"176.csv","","null","resources/images/coin2.png","null","",NA,NA,NA,NA,""
"image-keyboard-response",287,266016,"0.0-3.92-0.92","2knlz4912fwyuxb",942,"176.csv","","252.90000000596046","resources/trios/L4T4A1.jpg","39","restless",0.5,0.7,0.9,0.826031316576759,"true"
"image-keyboard-response",288,266421,"0.0-3.92-1.92","2knlz4912fwyuxb",942,"176.csv","","null","resources/maskTrios/BBA1.jpg","null","",NA,NA,NA,NA,""
"image-keyboard-response",289,267628,"0.0-3.92-2.92","2knlz4912fwyuxb",942,"176.csv","","null","resources/images/coin2.png","null","",NA,NA,NA,NA,""
"image-keyboard-response",290,267895,"0.0-3.93-0.93","2knlz4912fwyuxb",942,"176.csv","","265","resources/trios/L4T4A1.jpg","39","restless",0.4,0.7,0.8,0.395406545581853,"true"
"image-keyboard-response",291,268302,"0.0-3.93-1.93","2knlz4912fwyuxb",942,"176.csv","","null","resources/maskTrios/BBA1.jpg","null","",NA,NA,NA,NA,""
"image-keyboard-response",292,269505,"0.0-3.93-2.93","2knlz4912fwyuxb",942,"176.csv","","null","resources/images/coin2.png","null","",NA,NA,NA,NA,""
"image-keyboard-response",293,269732,"0.0-3.94-0.94","2knlz4912fwyuxb",942,"176.csv","","225.19999998807907","resources/trios/L4T1A3.jpg","39","restless",0.4,0.7,0.7,0.893954131548278,"false"
"image-keyboard-response",294,270139,"0.0-3.94-1.94","2knlz4912fwyuxb",942,"176.csv","","null","resources/maskTrios/BBA3.jpg","null","",NA,NA,NA,NA,""
"image-keyboard-response",295,271344,"0.0-3.94-2.94","2knlz4912fwyuxb",942,"176.csv","","null","resources/images/fishbone.png","null","",NA,NA,NA,NA,""
"image-keyboard-response",296,271633,"0.0-3.95-0.95","2knlz4912fwyuxb",942,"176.csv","","286.2000000178814","resources/trios/L2T1A1.jpg","38","restless",0.4,0.7,0.7,0.811882943444046,"false"
"image-keyboard-response",297,272040,"0.0-3.95-1.95","2knlz4912fwyuxb",942,"176.csv","","null","resources/maskTrios/BT1B.jpg","null","",NA,NA,NA,NA,""
"image-keyboard-response",298,273244,"0.0-3.95-2.95","2knlz4912fwyuxb",942,"176.csv","","null","resources/images/fishbone.png","null","",NA,NA,NA,NA,""
"image-keyboard-response",299,273270,"0.0-3.96-0.96","2knlz4912fwyuxb",942,"176.csv","","23.30000001192093","resources/trios/L4T1A1.jpg","37","restless",0.4,0.7,0.7,0.147876918490687,"true"
"image-keyboard-response",300,273672,"0.0-3.96-1.96","2knlz4912fwyuxb",942,"176.csv","","null","resources/maskTrios/L4BB.jpg","null","",NA,NA,NA,NA,""
"image-keyboard-response",301,274878,"0.0-3.96-2.96","2knlz4912fwyuxb",942,"176.csv","","null","resources/images/coin2.png","null","",NA,NA,NA,NA,""
"image-keyboard-response",302,275159,"0.0-3.97-0.97","2knlz4912fwyuxb",942,"176.csv","","279.40000000596046","resources/trios/L4T4A1.jpg","37","restless",0.4,0.6,0.7,0.844918820008322,"false"
"image-keyboard-response",303,275566,"0.0-3.97-1.97","2knlz4912fwyuxb",942,"176.csv","","null","resources/maskTrios/L4BB.jpg","null","",NA,NA,NA,NA,""
"image-keyboard-response",304,276773,"0.0-3.97-2.97","2knlz4912fwyuxb",942,"176.csv","","null","resources/images/fishbone.png","null","",NA,NA,NA,NA,""
"image-keyboard-response",305,276964,"0.0-3.98-0.98","2knlz4912fwyuxb",942,"176.csv","","188.80000001192093","resources/trios/L2T4A3.jpg","38","restless",0.4,0.6,0.7,0.431821368819928,"true"
"image-keyboard-response",306,277370,"0.0-3.98-1.98","2knlz4912fwyuxb",942,"176.csv","","null","resources/maskTrios/BT4B.jpg","null","",NA,NA,NA,NA,""
"image-keyboard-response",307,278575,"0.0-3.98-2.98","2knlz4912fwyuxb",942,"176.csv","","null","resources/images/coin2.png","null","",NA,NA,NA,NA,""
"image-keyboard-response",308,278846,"0.0-3.99-0.99","2knlz4912fwyuxb",942,"176.csv","","268.40000000596046","resources/trios/L2T4A3.jpg","38","restless",0.4,0.6,0.7,0.787673858675132,"false"
"image-keyboard-response",309,279250,"0.0-3.99-1.99","2knlz4912fwyuxb",942,"176.csv","","null","resources/maskTrios/BT4B.jpg","null","",NA,NA,NA,NA,""
"image-keyboard-response",310,280457,"0.0-3.99-2.99","2knlz4912fwyuxb",942,"176.csv","","null","resources/images/fishbone.png","null","",NA,NA,NA,NA,""
"image-keyboard-response",311,280712,"0.0-3.100-0.100","2knlz4912fwyuxb",942,"176.csv","","253","resources/trios/L4T4A1.jpg","39","restless",0.3,0.6,0.6,0.2444634169648,"true"
"image-keyboard-response",312,281117,"0.0-3.100-1.100","2knlz4912fwyuxb",942,"176.csv","","null","resources/maskTrios/BBA1.jpg","null","",NA,NA,NA,NA,""
"image-keyboard-response",313,282324,"0.0-3.100-2.100","2knlz4912fwyuxb",942,"176.csv","","null","resources/images/coin2.png","null","",NA,NA,NA,NA,""
"image-keyboard-response",314,282642,"0.0-3.101-0.101","2knlz4912fwyuxb",942,"176.csv","","315.5","resources/trios/L2T4A1.jpg","39","restless",0.3,0.6,0.6,0.582032813369457,"true"
"image-keyboard-response",315,283045,"0.0-3.101-1.101","2knlz4912fwyuxb",942,"176.csv","","null","resources/maskTrios/BBA1.jpg","null","",NA,NA,NA,NA,""
"image-keyboard-response",316,284252,"0.0-3.101-2.101","2knlz4912fwyuxb",942,"176.csv","","null","resources/images/coin2.png","null","",NA,NA,NA,NA,""
"image-keyboard-response",317,284458,"0.0-3.102-0.102","2knlz4912fwyuxb",942,"176.csv","","203.80000001192093","resources/trios/L4T1A3.jpg","39","restless",0.4,0.6,0.6,0.172166220595291,"true"
"image-keyboard-response",318,284862,"0.0-3.102-1.102","2knlz4912fwyuxb",942,"176.csv","","null","resources/maskTrios/BBA3.jpg","null","",NA,NA,NA,NA,""
"image-keyboard-response",319,286069,"0.0-3.102-2.102","2knlz4912fwyuxb",942,"176.csv","","null","resources/images/coin2.png","null","",NA,NA,NA,NA,""
"image-keyboard-response",320,286395,"0.0-3.103-0.103","2knlz4912fwyuxb",942,"176.csv","","323.19999998807907","resources/trios/L2T1A1.jpg","39","restless",0.4,0.6,0.7,0.855772742579496,"false"
"image-keyboard-response",321,286802,"0.0-3.103-1.103","2knlz4912fwyuxb",942,"176.csv","","null","resources/maskTrios/BBA1.jpg","null","",NA,NA,NA,NA,""
"image-keyboard-response",322,288008,"0.0-3.103-2.103","2knlz4912fwyuxb",942,"176.csv","","null","resources/images/fishbone.png","null","",NA,NA,NA,NA,""
"image-keyboard-response",323,288247,"0.0-3.104-0.104","2knlz4912fwyuxb",942,"176.csv","","237.40000000596046","resources/trios/L2T4A3.jpg","38","restless",0.4,0.6,0.7,0.479331510283474,"true"
"image-keyboard-response",324,288652,"0.0-3.104-1.104","2knlz4912fwyuxb",942,"176.csv","","null","resources/maskTrios/BT4B.jpg","null","",NA,NA,NA,NA,""
"image-keyboard-response",325,289859,"0.0-3.104-2.104","2knlz4912fwyuxb",942,"176.csv","","null","resources/images/coin2.png","null","",NA,NA,NA,NA,""
"image-keyboard-response",326,290139,"0.0-3.105-0.105","2knlz4912fwyuxb",942,"176.csv","","278.5","resources/trios/L4T1A3.jpg","38","restless",0.5,0.6,0.7,0.835018989738707,"false"
"image-keyboard-response",327,290544,"0.0-3.105-1.105","2knlz4912fwyuxb",942,"176.csv","","null","resources/maskTrios/BT1B.jpg","null","",NA,NA,NA,NA,""
"image-keyboard-response",328,291749,"0.0-3.105-2.105","2knlz4912fwyuxb",942,"176.csv","","null","resources/images/fishbone.png","null","",NA,NA,NA,NA,""
"image-keyboard-response",329,292362,"0.0-3.106-0.106","2knlz4912fwyuxb",942,"176.csv","","611.0999999940395","resources/trios/L4T4A3.jpg","37","restless",0.5,0.6,0.7,0.407410582001694,"true"
"image-keyboard-response",330,292769,"0.0-3.106-1.106","2knlz4912fwyuxb",942,"176.csv","","null","resources/maskTrios/L4BB.jpg","null","",NA,NA,NA,NA,""
"image-keyboard-response",331,293976,"0.0-3.106-2.106","2knlz4912fwyuxb",942,"176.csv","","null","resources/images/coin2.png","null","",NA,NA,NA,NA,""
"image-keyboard-response",332,294275,"0.0-3.107-0.107","2knlz4912fwyuxb",942,"176.csv","","296.09999999403954","resources/trios/L4T4A1.jpg","37","restless",0.5,0.5,0.7,0.00290767834277217,"true"
"image-keyboard-response",333,294678,"0.0-3.107-1.107","2knlz4912fwyuxb",942,"176.csv","","null","resources/maskTrios/L4BB.jpg","null","",NA,NA,NA,NA,""
"image-keyboard-response",334,295882,"0.0-3.107-2.107","2knlz4912fwyuxb",942,"176.csv","","null","resources/images/coin2.png","null","",NA,NA,NA,NA,""
"image-keyboard-response",335,296185,"0.0-3.108-0.108","2knlz4912fwyuxb",942,"176.csv","","300.90000000596046","resources/trios/L2T1A3.jpg","37","restless",0.5,0.5,0.7,0.179349660299814,"true"
"image-keyboard-response",336,296592,"0.0-3.108-1.108","2knlz4912fwyuxb",942,"176.csv","","null","resources/maskTrios/L2BB.jpg","null","",NA,NA,NA,NA,""
"image-keyboard-response",337,297794,"0.0-3.108-2.108","2knlz4912fwyuxb",942,"176.csv","","null","resources/images/coin2.png","null","",NA,NA,NA,NA,""
"image-keyboard-response",338,298062,"0.0-3.109-0.109","2knlz4912fwyuxb",942,"176.csv","","265.40000000596046","resources/trios/L4T4A1.jpg","37","restless",0.5,0.5,0.6,0.0413665890037413,"true"
"image-keyboard-response",339,298469,"0.0-3.109-1.109","2knlz4912fwyuxb",942,"176.csv","","null","resources/maskTrios/L4BB.jpg","null","",NA,NA,NA,NA,""
"image-keyboard-response",340,299676,"0.0-3.109-2.109","2knlz4912fwyuxb",942,"176.csv","","null","resources/images/coin2.png","null","",NA,NA,NA,NA,""
"image-keyboard-response",341,299955,"0.0-3.110-0.110","2knlz4912fwyuxb",942,"176.csv","","276.7999999821186","resources/trios/L2T4A3.jpg","37","restless",0.6,0.4,0.6,0.240243639778663,"true"
"image-keyboard-response",342,300361,"0.0-3.110-1.110","2knlz4912fwyuxb",942,"176.csv","","null","resources/maskTrios/L2BB.jpg","null","",NA,NA,NA,NA,""
"image-keyboard-response",343,301564,"0.0-3.110-2.110","2knlz4912fwyuxb",942,"176.csv","","null","resources/images/coin2.png","null","",NA,NA,NA,NA,""
"image-keyboard-response",344,301872,"0.0-3.111-0.111","2knlz4912fwyuxb",942,"176.csv","","306.5","resources/trios/L2T4A1.jpg","37","restless",0.6,0.5,0.6,0.578682185880657,"true"
"image-keyboard-response",345,302278,"0.0-3.111-1.111","2knlz4912fwyuxb",942,"176.csv","","null","resources/maskTrios/L2BB.jpg","null","",NA,NA,NA,NA,""
"image-keyboard-response",346,303485,"0.0-3.111-2.111","2knlz4912fwyuxb",942,"176.csv","","null","resources/images/coin2.png","null","",NA,NA,NA,NA,""
"image-keyboard-response",347,303921,"0.0-3.112-0.112","2knlz4912fwyuxb",942,"176.csv","","434.7000000178814","resources/trios/L4T1A1.jpg","37","restless",0.6,0.5,0.6,0.565485641791202,"true"
"image-keyboard-response",348,304328,"0.0-3.112-1.112","2knlz4912fwyuxb",942,"176.csv","","null","resources/maskTrios/L4BB.jpg","null","",NA,NA,NA,NA,""
"image-keyboard-response",349,305531,"0.0-3.112-2.112","2knlz4912fwyuxb",942,"176.csv","","null","resources/images/coin2.png","null","",NA,NA,NA,NA,""
"image-keyboard-response",350,305938,"0.0-3.113-0.113","2knlz4912fwyuxb",942,"176.csv","","404.90000000596046","resources/trios/L4T4A3.jpg","37","restless",0.7,0.5,0.6,0.656645194334544,"true"
"image-keyboard-response",351,306344,"0.0-3.113-1.113","2knlz4912fwyuxb",942,"176.csv","","null","resources/maskTrios/L4BB.jpg","null","",NA,NA,NA,NA,""
"image-keyboard-response",352,307551,"0.0-3.113-2.113","2knlz4912fwyuxb",942,"176.csv","","null","resources/images/coin2.png","null","",NA,NA,NA,NA,""
"image-keyboard-response",353,307755,"0.0-3.114-0.114","2knlz4912fwyuxb",942,"176.csv","","201.30000001192093","resources/trios/L2T1A1.jpg","37","restless",0.7,0.5,0.6,0.0133442014748137,"true"
"image-keyboard-response",354,308161,"0.0-3.114-1.114","2knlz4912fwyuxb",942,"176.csv","","null","resources/maskTrios/L2BB.jpg","null","",NA,NA,NA,NA,""
"image-keyboard-response",355,309368,"0.0-3.114-2.114","2knlz4912fwyuxb",942,"176.csv","","null","resources/images/coin2.png","null","",NA,NA,NA,NA,""
"image-keyboard-response",356,310425,"0.0-3.115-0.115","2knlz4912fwyuxb",942,"176.csv","","1054.199999988079","resources/trios/L2T1A3.jpg","37","restless",0.7,0.4,0.5,0.49306233463237,"true"
"image-keyboard-response",357,310828,"0.0-3.115-1.115","2knlz4912fwyuxb",942,"176.csv","","null","resources/maskTrios/L2BB.jpg","null","",NA,NA,NA,NA,""
"image-keyboard-response",358,312035,"0.0-3.115-2.115","2knlz4912fwyuxb",942,"176.csv","","null","resources/images/coin2.png","null","",NA,NA,NA,NA,""
"image-keyboard-response",359,314870,"0.0-3.116-0.116","2knlz4912fwyuxb",942,"176.csv","","2832.800000011921","resources/trios/L2T1A1.jpg","37","restless",0.6,0.4,0.5,0.639793622590289,"false"
"image-keyboard-response",360,315277,"0.0-3.116-1.116","2knlz4912fwyuxb",942,"176.csv","","null","resources/maskTrios/L2BB.jpg","null","",NA,NA,NA,NA,""
"image-keyboard-response",361,316481,"0.0-3.116-2.116","2knlz4912fwyuxb",942,"176.csv","","null","resources/images/fishbone.png","null","",NA,NA,NA,NA,""
"image-keyboard-response",362,316800,"0.0-3.117-0.117","2knlz4912fwyuxb",942,"176.csv","","317.7000000178814","resources/trios/L2T4A1.jpg","38","restless",0.6,0.4,0.5,0.99381839982598,"false"
"image-keyboard-response",363,317203,"0.0-3.117-1.117","2knlz4912fwyuxb",942,"176.csv","","null","resources/maskTrios/BT4B.jpg","null","",NA,NA,NA,NA,""
"image-keyboard-response",364,318409,"0.0-3.117-2.117","2knlz4912fwyuxb",942,"176.csv","","null","resources/images/fishbone.png","null","",NA,NA,NA,NA,""
"image-keyboard-response",365,318721,"0.0-3.118-0.118","2knlz4912fwyuxb",942,"176.csv","","309.59999999403954","resources/trios/L4T4A1.jpg","39","restless",0.6,0.5,0.5,0.453654248657913,"true"
"image-keyboard-response",366,319128,"0.0-3.118-1.118","2knlz4912fwyuxb",942,"176.csv","","null","resources/maskTrios/BBA1.jpg","null","",NA,NA,NA,NA,""
"image-keyboard-response",367,320331,"0.0-3.118-2.118","2knlz4912fwyuxb",942,"176.csv","","null","resources/images/coin2.png","null","",NA,NA,NA,NA,""
"image-keyboard-response",368,320715,"0.0-3.119-0.119","2knlz4912fwyuxb",942,"176.csv","","381.80000001192093","resources/trios/L4T1A3.jpg","39","restless",0.6,0.5,0.5,0.94254204920892,"false"
"image-keyboard-response",369,321119,"0.0-3.119-1.119","2knlz4912fwyuxb",942,"176.csv","","null","resources/maskTrios/BBA3.jpg","null","",NA,NA,NA,NA,""
"image-keyboard-response",370,322326,"0.0-3.119-2.119","2knlz4912fwyuxb",942,"176.csv","","null","resources/images/fishbone.png","null","",NA,NA,NA,NA,""
"image-keyboard-response",371,322566,"0.0-3.120-0.120","2knlz4912fwyuxb",942,"176.csv","","238.40000000596046","resources/trios/L4T4A1.jpg","38","restless",0.6,0.5,0.5,0.43461938886582,"true"
"image-keyboard-response",372,322973,"0.0-3.120-1.120","2knlz4912fwyuxb",942,"176.csv","","null","resources/maskTrios/BT4B.jpg","null","",NA,NA,NA,NA,""
"image-keyboard-response",373,324178,"0.0-3.120-2.120","2knlz4912fwyuxb",942,"176.csv","","null","resources/images/coin2.png","null","",NA,NA,NA,NA,""
"image-keyboard-response",374,324468,"0.0-3.121-0.121","2knlz4912fwyuxb",942,"176.csv","","287.7999999821186","resources/trios/L4T1A1.jpg","38","restless",0.6,0.5,0.5,0.661292031563427,"false"
"image-keyboard-response",375,324875,"0.0-3.121-1.121","2knlz4912fwyuxb",942,"176.csv","","null","resources/maskTrios/BT1B.jpg","null","",NA,NA,NA,NA,""
"image-keyboard-response",376,326078,"0.0-3.121-2.121","2knlz4912fwyuxb",942,"176.csv","","null","resources/images/fishbone.png","null","",NA,NA,NA,NA,""
"image-keyboard-response",377,326480,"0.0-3.122-0.122","2knlz4912fwyuxb",942,"176.csv","","400","resources/trios/L2T4A1.jpg","37","restless",0.6,0.5,0.5,0.0264566058128741,"true"
"image-keyboard-response",378,326888,"0.0-3.122-1.122","2knlz4912fwyuxb",942,"176.csv","","null","resources/maskTrios/L2BB.jpg","null","",NA,NA,NA,NA,""
"image-keyboard-response",379,328091,"0.0-3.122-2.122","2knlz4912fwyuxb",942,"176.csv","","null","resources/images/coin2.png","null","",NA,NA,NA,NA,""
"image-keyboard-response",380,328526,"0.0-3.123-0.123","2knlz4912fwyuxb",942,"176.csv","","433.40000000596046","resources/trios/L4T1A1.jpg","37","restless",0.6,0.5,0.5,0.231994426603139,"true"
"image-keyboard-response",381,328933,"0.0-3.123-1.123","2knlz4912fwyuxb",942,"176.csv","","null","resources/maskTrios/L4BB.jpg","null","",NA,NA,NA,NA,""
"image-keyboard-response",382,330138,"0.0-3.123-2.123","2knlz4912fwyuxb",942,"176.csv","","null","resources/images/coin2.png","null","",NA,NA,NA,NA,""
"image-keyboard-response",383,330579,"0.0-3.124-0.124","2knlz4912fwyuxb",942,"176.csv","","438.69999998807907","resources/trios/L4T1A3.jpg","37","restless",0.6,0.5,0.5,0.927706901247129,"false"
"image-keyboard-response",384,330986,"0.0-3.124-1.124","2knlz4912fwyuxb",942,"176.csv","","null","resources/maskTrios/L4BB.jpg","null","",NA,NA,NA,NA,""
"image-keyboard-response",385,332193,"0.0-3.124-2.124","2knlz4912fwyuxb",942,"176.csv","","null","resources/images/fishbone.png","null","",NA,NA,NA,NA,""
"image-keyboard-response",386,332507,"0.0-3.125-0.125","2knlz4912fwyuxb",942,"176.csv","","311.59999999403954","resources/trios/L4T4A3.jpg","38","restless",0.6,0.5,0.5,0.0287400435905372,"true"
"image-keyboard-response",387,332911,"0.0-3.125-1.125","2knlz4912fwyuxb",942,"176.csv","","null","resources/maskTrios/BT4B.jpg","null","",NA,NA,NA,NA,""
"image-keyboard-response",388,334116,"0.0-3.125-2.125","2knlz4912fwyuxb",942,"176.csv","","null","resources/images/coin2.png","null","",NA,NA,NA,NA,""
"image-keyboard-response",389,334419,"0.0-3.126-0.126","2knlz4912fwyuxb",942,"176.csv","","301.5","resources/trios/L4T4A3.jpg","38","restless",0.7,0.5,0.4,0.210692909444402,"true"
"image-keyboard-response",390,334827,"0.0-3.126-1.126","2knlz4912fwyuxb",942,"176.csv","","null","resources/maskTrios/BT4B.jpg","null","",NA,NA,NA,NA,""
"image-keyboard-response",391,336031,"0.0-3.126-2.126","2knlz4912fwyuxb",942,"176.csv","","null","resources/images/coin2.png","null","",NA,NA,NA,NA,""
"image-keyboard-response",392,336385,"0.0-3.127-0.127","2knlz4912fwyuxb",942,"176.csv","","352.2000000178814","resources/trios/L2T4A3.jpg","38","restless",0.8,0.5,0.4,0.284399260795138,"true"
"image-keyboard-response",393,336791,"0.0-3.127-1.127","2knlz4912fwyuxb",942,"176.csv","","null","resources/maskTrios/BT4B.jpg","null","",NA,NA,NA,NA,""
"image-keyboard-response",394,337997,"0.0-3.127-2.127","2knlz4912fwyuxb",942,"176.csv","","null","resources/images/coin2.png","null","",NA,NA,NA,NA,""
"image-keyboard-response",395,339054,"0.0-3.128-0.128","2knlz4912fwyuxb",942,"176.csv","","1054.699999988079","resources/trios/L4T4A3.jpg","38","restless",0.8,0.5,0.4,0.53910169193579,"false"
"image-keyboard-response",396,339461,"0.0-3.128-1.128","2knlz4912fwyuxb",942,"176.csv","","null","resources/maskTrios/BT4B.jpg","null","",NA,NA,NA,NA,""
"image-keyboard-response",397,340664,"0.0-3.128-2.128","2knlz4912fwyuxb",942,"176.csv","","null","resources/images/fishbone.png","null","",NA,NA,NA,NA,""
"image-keyboard-response",398,341450,"0.0-3.129-0.129","2knlz4912fwyuxb",942,"176.csv","","783.9000000059605","resources/trios/L2T1A1.jpg","39","restless",0.8,0.5,0.4,0.570729730891243,"false"
"image-keyboard-response",399,341853,"0.0-3.129-1.129","2knlz4912fwyuxb",942,"176.csv","","null","resources/maskTrios/BBA1.jpg","null","",NA,NA,NA,NA,""
"image-keyboard-response",400,343058,"0.0-3.129-2.129","2knlz4912fwyuxb",942,"176.csv","","null","resources/images/fishbone.png","null","",NA,NA,NA,NA,""
"image-keyboard-response",401,343605,"0.0-3.130-0.130","2knlz4912fwyuxb",942,"176.csv","","545.2000000178814","resources/trios/L4T1A3.jpg","39","restless",0.8,0.5,0.3,0.740880065757726,"false"
"image-keyboard-response",402,344012,"0.0-3.130-1.130","2knlz4912fwyuxb",942,"176.csv","","null","resources/maskTrios/BBA3.jpg","null","",NA,NA,NA,NA,""
"image-keyboard-response",403,345219,"0.0-3.130-2.130","2knlz4912fwyuxb",942,"176.csv","","null","resources/images/fishbone.png","null","",NA,NA,NA,NA,""
"image-keyboard-response",404,345563,"0.0-3.131-0.131","2knlz4912fwyuxb",942,"176.csv","","342.5","resources/trios/L4T1A1.jpg","38","restless",0.8,0.4,0.3,0.208976262434402,"true"
"image-keyboard-response",405,345967,"0.0-3.131-1.131","2knlz4912fwyuxb",942,"176.csv","","null","resources/maskTrios/BT1B.jpg","null","",NA,NA,NA,NA,""
"image-keyboard-response",406,347174,"0.0-3.131-2.131","2knlz4912fwyuxb",942,"176.csv","","null","resources/images/coin2.png","null","",NA,NA,NA,NA,""
"image-keyboard-response",407,347762,"0.0-3.132-0.132","2knlz4912fwyuxb",942,"176.csv","","586","resources/trios/L2T1A3.jpg","38","restless",0.8,0.4,0.3,0.231144996769705,"true"
"image-keyboard-response",408,348169,"0.0-3.132-1.132","2knlz4912fwyuxb",942,"176.csv","","null","resources/maskTrios/BT1B.jpg","null","",NA,NA,NA,NA,""
"image-keyboard-response",409,349375,"0.0-3.132-2.132","2knlz4912fwyuxb",942,"176.csv","","null","resources/images/coin2.png","null","",NA,NA,NA,NA,""
"image-keyboard-response",410,349954,"0.0-3.133-0.133","2knlz4912fwyuxb",942,"176.csv","","577","resources/trios/L2T1A3.jpg","38","restless",0.8,0.4,0.3,0.323709218694113,"true"
"image-keyboard-response",411,350361,"0.0-3.133-1.133","2knlz4912fwyuxb",942,"176.csv","","null","resources/maskTrios/BT1B.jpg","null","",NA,NA,NA,NA,""
"image-keyboard-response",412,351568,"0.0-3.133-2.133","2knlz4912fwyuxb",942,"176.csv","","null","resources/images/coin2.png","null","",NA,NA,NA,NA,""
"image-keyboard-response",413,353263,"0.0-3.134-0.134","2knlz4912fwyuxb",942,"176.csv","","1693.0999999940395","resources/trios/L4T1A1.jpg","38","restless",0.8,0.4,0.3,0.947455147947386,"false"
"image-keyboard-response",414,353670,"0.0-3.134-1.134","2knlz4912fwyuxb",942,"176.csv","","null","resources/maskTrios/BT1B.jpg","null","",NA,NA,NA,NA,""
"image-keyboard-response",415,354877,"0.0-3.134-2.134","2knlz4912fwyuxb",942,"176.csv","","null","resources/images/fishbone.png","null","",NA,NA,NA,NA,""
"image-keyboard-response",416,356319,"0.0-3.135-0.135","2knlz4912fwyuxb",942,"176.csv","","1439.5","resources/trios/L4T1A1.jpg","37","restless",0.8,0.4,0.3,0.235887246633619,"true"
"image-keyboard-response",417,356726,"0.0-3.135-1.135","2knlz4912fwyuxb",942,"176.csv","","null","resources/maskTrios/L4BB.jpg","null","",NA,NA,NA,NA,""
"image-keyboard-response",418,357928,"0.0-3.135-2.135","2knlz4912fwyuxb",942,"176.csv","","null","resources/images/coin2.png","null","",NA,NA,NA,NA,""
"image-keyboard-response",419,358649,"0.0-3.136-0.136","2knlz4912fwyuxb",942,"176.csv","","719","resources/trios/L4T1A1.jpg","37","restless",0.8,0.4,0.3,0.820088093874596,"false"
"image-keyboard-response",420,359056,"0.0-3.136-1.136","2knlz4912fwyuxb",942,"176.csv","","null","resources/maskTrios/L4BB.jpg","null","",NA,NA,NA,NA,""
"image-keyboard-response",421,360261,"0.0-3.136-2.136","2knlz4912fwyuxb",942,"176.csv","","null","resources/images/fishbone.png","null","",NA,NA,NA,NA,""
"image-keyboard-response",422,360565,"0.0-3.137-0.137","2knlz4912fwyuxb",942,"176.csv","","301.59999999403954","resources/trios/L4T1A3.jpg","38","restless",0.8,0.4,0.4,0.99755744821515,"false"
"image-keyboard-response",423,360972,"0.0-3.137-1.137","2knlz4912fwyuxb",942,"176.csv","","null","resources/maskTrios/BT1B.jpg","null","",NA,NA,NA,NA,""
"image-keyboard-response",424,362178,"0.0-3.137-2.137","2knlz4912fwyuxb",942,"176.csv","","null","resources/images/fishbone.png","null","",NA,NA,NA,NA,""
"image-keyboard-response",425,362737,"0.0-3.138-0.138","2knlz4912fwyuxb",942,"176.csv","","556.7000000178814","resources/trios/L2T1A1.jpg","39","restless",0.8,0.4,0.4,0.76093457013978,"false"
"image-keyboard-response",426,363144,"0.0-3.138-1.138","2knlz4912fwyuxb",942,"176.csv","","null","resources/maskTrios/BBA1.jpg","null","",NA,NA,NA,NA,""
"image-keyboard-response",427,364351,"0.0-3.138-2.138","2knlz4912fwyuxb",942,"176.csv","","null","resources/images/fishbone.png","null","",NA,NA,NA,NA,""
"image-keyboard-response",428,364680,"0.0-3.139-0.139","2knlz4912fwyuxb",942,"176.csv","","326.90000000596046","resources/trios/L2T1A1.jpg","38","restless",0.8,0.4,0.4,0.331674873032865,"true"
"image-keyboard-response",429,365087,"0.0-3.139-1.139","2knlz4912fwyuxb",942,"176.csv","","null","resources/maskTrios/BT1B.jpg","null","",NA,NA,NA,NA,""
"image-keyboard-response",430,366294,"0.0-3.139-2.139","2knlz4912fwyuxb",942,"176.csv","","null","resources/images/coin2.png","null","",NA,NA,NA,NA,""
"image-keyboard-response",431,366820,"0.0-3.140-0.140","2knlz4912fwyuxb",942,"176.csv","","524","resources/trios/L2T4A1.jpg","38","restless",0.9,0.4,0.4,0.494543374568364,"false"
"image-keyboard-response",432,367227,"0.0-3.140-1.140","2knlz4912fwyuxb",942,"176.csv","","null","resources/maskTrios/BT4B.jpg","null","",NA,NA,NA,NA,""
"image-keyboard-response",433,368433,"0.0-3.140-2.140","2knlz4912fwyuxb",942,"176.csv","","null","resources/images/fishbone.png","null","",NA,NA,NA,NA,""
"image-keyboard-response",434,368798,"0.0-3.141-0.141","2knlz4912fwyuxb",942,"176.csv","","362.19999998807907","resources/trios/L2T1A1.jpg","37","restless",0.9,0.4,0.4,0.507907159187723,"true"
"image-keyboard-response",435,369205,"0.0-3.141-1.141","2knlz4912fwyuxb",942,"176.csv","","null","resources/maskTrios/L2BB.jpg","null","",NA,NA,NA,NA,""
"image-keyboard-response",436,370411,"0.0-3.141-2.141","2knlz4912fwyuxb",942,"176.csv","","null","resources/images/coin2.png","null","",NA,NA,NA,NA,""
"image-keyboard-response",437,371625,"0.0-3.142-0.142","2knlz4912fwyuxb",942,"176.csv","","1211.199999988079","resources/trios/L4T1A3.jpg","38","restless",0.9,0.4,0.4,0.0699983606533598,"true"
"image-keyboard-response",438,372028,"0.0-3.142-1.142","2knlz4912fwyuxb",942,"176.csv","","null","resources/maskTrios/BT1B.jpg","null","",NA,NA,NA,NA,""
"image-keyboard-response",439,373233,"0.0-3.142-2.142","2knlz4912fwyuxb",942,"176.csv","","null","resources/images/coin2.png","null","",NA,NA,NA,NA,""
"image-keyboard-response",440,374128,"0.0-3.143-0.143","2knlz4912fwyuxb",942,"176.csv","","893.4000000059605","resources/trios/L4T4A3.jpg","38","restless",0.9,0.4,0.4,0.227712777997169,"true"
"image-keyboard-response",441,374532,"0.0-3.143-1.143","2knlz4912fwyuxb",942,"176.csv","","null","resources/maskTrios/BT4B.jpg","null","",NA,NA,NA,NA,""
"image-keyboard-response",442,375735,"0.0-3.143-2.143","2knlz4912fwyuxb",942,"176.csv","","null","resources/images/coin2.png","null","",NA,NA,NA,NA,""
"image-keyboard-response",443,376391,"0.0-3.144-0.144","2knlz4912fwyuxb",942,"176.csv","","653.1999999880791","resources/trios/L4T4A3.jpg","38","restless",0.9,0.4,0.4,0.453665894325897,"false"
"image-keyboard-response",444,376795,"0.0-3.144-1.144","2knlz4912fwyuxb",942,"176.csv","","null","resources/maskTrios/BT4B.jpg","null","",NA,NA,NA,NA,""
"image-keyboard-response",445,378002,"0.0-3.144-2.144","2knlz4912fwyuxb",942,"176.csv","","null","resources/images/fishbone.png","null","",NA,NA,NA,NA,""
"image-keyboard-response",446,378119,"0.0-3.145-0.145","2knlz4912fwyuxb",942,"176.csv","","115","resources/trios/L2T4A1.jpg","39","restless",0.9,0.4,0.4,0.554642593412827,"false"
"image-keyboard-response",447,378526,"0.0-3.145-1.145","2knlz4912fwyuxb",942,"176.csv","","null","resources/maskTrios/BBA1.jpg","null","",NA,NA,NA,NA,""
"image-keyboard-response",448,379728,"0.0-3.145-2.145","2knlz4912fwyuxb",942,"176.csv","","null","resources/images/fishbone.png","null","",NA,NA,NA,NA,""
"image-keyboard-response",449,380516,"0.0-3.146-0.146","2knlz4912fwyuxb",942,"176.csv","","785.7000000178814","resources/trios/L4T4A3.jpg","37","restless",0.8,0.4,0.4,0.926496910497691,"false"
"image-keyboard-response",450,380923,"0.0-3.146-1.146","2knlz4912fwyuxb",942,"176.csv","","null","resources/maskTrios/L4BB.jpg","null","",NA,NA,NA,NA,""
"image-keyboard-response",451,382128,"0.0-3.146-2.146","2knlz4912fwyuxb",942,"176.csv","","null","resources/images/fishbone.png","null","",NA,NA,NA,NA,""
"image-keyboard-response",452,383456,"0.0-3.147-0.147","2knlz4912fwyuxb",942,"176.csv","","1325.4000000059605","resources/trios/L2T4A1.jpg","38","restless",0.8,0.4,0.4,0.833334159046231,"false"
"image-keyboard-response",453,383862,"0.0-3.147-1.147","2knlz4912fwyuxb",942,"176.csv","","null","resources/maskTrios/BT4B.jpg","null","",NA,NA,NA,NA,""
"image-keyboard-response",454,385066,"0.0-3.147-2.147","2knlz4912fwyuxb",942,"176.csv","","null","resources/images/fishbone.png","null","",NA,NA,NA,NA,""
"image-keyboard-response",455,385439,"0.0-3.148-0.148","2knlz4912fwyuxb",942,"176.csv","","371.40000000596046","resources/trios/L2T1A1.jpg","39","restless",0.8,0.4,0.4,0.42006510261246,"false"
"image-keyboard-response",456,385846,"0.0-3.148-1.148","2knlz4912fwyuxb",942,"176.csv","","null","resources/maskTrios/BBA1.jpg","null","",NA,NA,NA,NA,""
"image-keyboard-response",457,387053,"0.0-3.148-2.148","2knlz4912fwyuxb",942,"176.csv","","null","resources/images/fishbone.png","null","",NA,NA,NA,NA,""
"image-keyboard-response",458,387352,"0.0-3.149-0.149","2knlz4912fwyuxb",942,"176.csv","","297.2999999821186","resources/trios/L4T1A1.jpg","37","restless",0.8,0.4,0.4,0.967825643464882,"false"
"image-keyboard-response",459,387759,"0.0-3.149-1.149","2knlz4912fwyuxb",942,"176.csv","","null","resources/maskTrios/L4BB.jpg","null","",NA,NA,NA,NA,""
"image-keyboard-response",460,388962,"0.0-3.149-2.149","2knlz4912fwyuxb",942,"176.csv","","null","resources/images/fishbone.png","null","",NA,NA,NA,NA,""
"image-keyboard-response",461,389274,"0.0-3.150-0.150","2knlz4912fwyuxb",942,"176.csv","","309.80000001192093","resources/trios/L2T4A1.jpg","38","restless",0.8,0.4,0.4,0.48937477243349,"false"
"image-keyboard-response",462,389679,"0.0-3.150-1.150","2knlz4912fwyuxb",942,"176.csv","","null","resources/maskTrios/BT4B.jpg","null","",NA,NA,NA,NA,""
"image-keyboard-response",463,390886,"0.0-3.150-2.150","2knlz4912fwyuxb",942,"176.csv","","null","resources/images/fishbone.png","null","",NA,NA,NA,NA,""
"image-keyboard-response",464,391150,"0.0-3.151-0.151","2knlz4912fwyuxb",942,"176.csv","","261.40000000596046","resources/trios/L2T1A3.jpg","39","restless",0.8,0.4,0.4,0.628820782249617,"false"
"image-keyboard-response",465,391557,"0.0-3.151-1.151","2knlz4912fwyuxb",942,"176.csv","","null","resources/maskTrios/BBA3.jpg","null","",NA,NA,NA,NA,""
"image-keyboard-response",466,392762,"0.0-3.151-2.151","2knlz4912fwyuxb",942,"176.csv","","null","resources/images/fishbone.png","null","",NA,NA,NA,NA,""
"image-keyboard-response",467,393024,"0.0-3.152-0.152","2knlz4912fwyuxb",942,"176.csv","","260.30000001192093","resources/trios/L4T4A1.jpg","37","restless",0.8,0.4,0.4,0.940956879392018,"false"
"image-keyboard-response",468,393428,"0.0-3.152-1.152","2knlz4912fwyuxb",942,"176.csv","","null","resources/maskTrios/L4BB.jpg","null","",NA,NA,NA,NA,""
"image-keyboard-response",469,394631,"0.0-3.152-2.152","2knlz4912fwyuxb",942,"176.csv","","null","resources/images/fishbone.png","null","",NA,NA,NA,NA,""
"image-keyboard-response",470,394896,"0.0-3.153-0.153","2knlz4912fwyuxb",942,"176.csv","","262.2999999821186","resources/trios/L4T4A3.jpg","37","restless",0.8,0.4,0.4,0.528285075380071,"true"
"image-keyboard-response",471,395302,"0.0-3.153-1.153","2knlz4912fwyuxb",942,"176.csv","","null","resources/maskTrios/L4BB.jpg","null","",NA,NA,NA,NA,""
"image-keyboard-response",472,396509,"0.0-3.153-2.153","2knlz4912fwyuxb",942,"176.csv","","null","resources/images/coin2.png","null","",NA,NA,NA,NA,""
"image-keyboard-response",473,396795,"0.0-3.154-0.154","2knlz4912fwyuxb",942,"176.csv","","284.5","resources/trios/L2T1A3.jpg","37","restless",0.9,0.4,0.4,0.659439681025759,"true"
"image-keyboard-response",474,397202,"0.0-3.154-1.154","2knlz4912fwyuxb",942,"176.csv","","null","resources/maskTrios/L2BB.jpg","null","",NA,NA,NA,NA,""
"image-keyboard-response",475,398407,"0.0-3.154-2.154","2knlz4912fwyuxb",942,"176.csv","","null","resources/images/coin2.png","null","",NA,NA,NA,NA,""
"image-keyboard-response",476,398706,"0.0-3.155-0.155","2knlz4912fwyuxb",942,"176.csv","","297.30000001192093","resources/trios/L4T1A1.jpg","37","restless",0.8,0.4,0.4,0.791518101301444,"true"
"image-keyboard-response",477,399112,"0.0-3.155-1.155","2knlz4912fwyuxb",942,"176.csv","","null","resources/maskTrios/L4BB.jpg","null","",NA,NA,NA,NA,""
"image-keyboard-response",478,400318,"0.0-3.155-2.155","2knlz4912fwyuxb",942,"176.csv","","null","resources/images/coin2.png","null","",NA,NA,NA,NA,""
"image-keyboard-response",479,400606,"0.0-3.156-0.156","2knlz4912fwyuxb",942,"176.csv","","285.09999999403954","resources/trios/L4T4A3.jpg","37","restless",0.8,0.4,0.4,0.95656491927686,"false"
"image-keyboard-response",480,401010,"0.0-3.156-1.156","2knlz4912fwyuxb",942,"176.csv","","null","resources/maskTrios/L4BB.jpg","null","",NA,NA,NA,NA,""
"image-keyboard-response",481,402217,"0.0-3.156-2.156","2knlz4912fwyuxb",942,"176.csv","","null","resources/images/fishbone.png","null","",NA,NA,NA,NA,""
"image-keyboard-response",482,402543,"0.0-3.157-0.157","2knlz4912fwyuxb",942,"176.csv","","323.69999998807907","resources/trios/L2T4A1.jpg","38","restless",0.8,0.4,0.4,0.039755378056181,"true"
"image-keyboard-response",483,402945,"0.0-3.157-1.157","2knlz4912fwyuxb",942,"176.csv","","null","resources/maskTrios/BT4B.jpg","null","",NA,NA,NA,NA,""
"image-keyboard-response",484,404152,"0.0-3.157-2.157","2knlz4912fwyuxb",942,"176.csv","","null","resources/images/coin2.png","null","",NA,NA,NA,NA,""
"image-keyboard-response",485,404466,"0.0-3.158-0.158","2knlz4912fwyuxb",942,"176.csv","","312.30000001192093","resources/trios/L4T4A1.jpg","38","restless",0.7,0.4,0.4,0.0796693718475672,"true"
"image-keyboard-response",486,404874,"0.0-3.158-1.158","2knlz4912fwyuxb",942,"176.csv","","null","resources/maskTrios/BT4B.jpg","null","",NA,NA,NA,NA,""
"image-keyboard-response",487,406078,"0.0-3.158-2.158","2knlz4912fwyuxb",942,"176.csv","","null","resources/images/coin2.png","null","",NA,NA,NA,NA,""
"image-keyboard-response",488,406432,"0.0-3.159-0.159","2knlz4912fwyuxb",942,"176.csv","","351.69999998807907","resources/trios/L4T1A3.jpg","38","restless",0.7,0.4,0.4,0.864318316293394,"false"
"image-keyboard-response",489,406839,"0.0-3.159-1.159","2knlz4912fwyuxb",942,"176.csv","","null","resources/maskTrios/BT1B.jpg","null","",NA,NA,NA,NA,""
"image-keyboard-response",490,408045,"0.0-3.159-2.159","2knlz4912fwyuxb",942,"176.csv","","null","resources/images/fishbone.png","null","",NA,NA,NA,NA,""
"image-keyboard-response",491,408365,"0.0-3.160-0.160","2knlz4912fwyuxb",942,"176.csv","","317.59999999403954","resources/trios/L4T4A1.jpg","37","restless",0.8,0.4,0.4,0.710972221122407,"true"
"image-keyboard-response",492,408768,"0.0-3.160-1.160","2knlz4912fwyuxb",942,"176.csv","","null","resources/maskTrios/L4BB.jpg","null","",NA,NA,NA,NA,""
"image-keyboard-response",493,409975,"0.0-3.160-2.160","2knlz4912fwyuxb",942,"176.csv","","null","resources/images/coin2.png","null","",NA,NA,NA,NA,""
"image-keyboard-response",494,410273,"0.0-3.161-0.161","2knlz4912fwyuxb",942,"176.csv","","295.80000001192093","resources/trios/L4T4A3.jpg","37","restless",0.8,0.4,0.4,0.102196059485697,"true"
"image-keyboard-response",495,410678,"0.0-3.161-1.161","2knlz4912fwyuxb",942,"176.csv","","null","resources/maskTrios/L4BB.jpg","null","",NA,NA,NA,NA,""
"image-keyboard-response",496,411885,"0.0-3.161-2.161","2knlz4912fwyuxb",942,"176.csv","","null","resources/images/coin2.png","null","",NA,NA,NA,NA,""
"image-keyboard-response",497,412202,"0.0-3.162-0.162","2knlz4912fwyuxb",942,"176.csv","","314.7999999821186","resources/trios/L2T4A1.jpg","37","restless",0.9,0.4,0.4,0.500353121933725,"true"
"image-keyboard-response",498,412606,"0.0-3.162-1.162","2knlz4912fwyuxb",942,"176.csv","","null","resources/maskTrios/L2BB.jpg","null","",NA,NA,NA,NA,""
"image-keyboard-response",499,413812,"0.0-3.162-2.162","2knlz4912fwyuxb",942,"176.csv","","null","resources/images/coin2.png","null","",NA,NA,NA,NA,""
"image-keyboard-response",500,414121,"0.0-3.163-0.163","2knlz4912fwyuxb",942,"176.csv","","307.30000001192093","resources/trios/L2T4A3.jpg","37","restless",0.9,0.5,0.3,0.737049537617074,"true"
"image-keyboard-response",501,414528,"0.0-3.163-1.163","2knlz4912fwyuxb",942,"176.csv","","null","resources/maskTrios/L2BB.jpg","null","",NA,NA,NA,NA,""
"image-keyboard-response",502,415735,"0.0-3.163-2.163","2knlz4912fwyuxb",942,"176.csv","","null","resources/images/coin2.png","null","",NA,NA,NA,NA,""
"image-keyboard-response",503,416064,"0.0-3.164-0.164","2knlz4912fwyuxb",942,"176.csv","","326.90000000596046","resources/trios/L4T4A3.jpg","37","restless",0.9,0.5,0.3,0.060868698555927,"true"
"image-keyboard-response",504,416471,"0.0-3.164-1.164","2knlz4912fwyuxb",942,"176.csv","","null","resources/maskTrios/L4BB.jpg","null","",NA,NA,NA,NA,""
"image-keyboard-response",505,417678,"0.0-3.164-2.164","2knlz4912fwyuxb",942,"176.csv","","null","resources/images/coin2.png","null","",NA,NA,NA,NA,""
"image-keyboard-response",506,418127,"0.0-3.165-0.165","2knlz4912fwyuxb",942,"176.csv","","447.09999999403954","resources/trios/L4T1A3.jpg","37","restless",0.9,0.5,0.3,0.971387944337976,"false"
"image-keyboard-response",507,418532,"0.0-3.165-1.165","2knlz4912fwyuxb",942,"176.csv","","null","resources/maskTrios/L4BB.jpg","null","",NA,NA,NA,NA,""
"image-keyboard-response",508,419739,"0.0-3.165-2.165","2knlz4912fwyuxb",942,"176.csv","","null","resources/images/fishbone.png","null","",NA,NA,NA,NA,""
"image-keyboard-response",509,420077,"0.0-3.166-0.166","2knlz4912fwyuxb",942,"176.csv","","335.89999997615814","resources/trios/L4T4A3.jpg","38","restless",0.8,0.5,0.3,0.759631896264626,"false"
"image-keyboard-response",510,420483,"0.0-3.166-1.166","2knlz4912fwyuxb",942,"176.csv","","null","resources/maskTrios/BT4B.jpg","null","",NA,NA,NA,NA,""
"image-keyboard-response",511,421689,"0.0-3.166-2.166","2knlz4912fwyuxb",942,"176.csv","","null","resources/images/fishbone.png","null","",NA,NA,NA,NA,""
"image-keyboard-response",512,422026,"0.0-3.167-0.167","2knlz4912fwyuxb",942,"176.csv","","334.09999999403954","resources/trios/L2T4A3.jpg","38","restless",0.8,0.5,0.3,0.42252292551558,"true"
"image-keyboard-response",513,422428,"0.0-3.167-1.167","2knlz4912fwyuxb",942,"176.csv","","null","resources/maskTrios/BT4B.jpg","null","",NA,NA,NA,NA,""
"image-keyboard-response",514,423635,"0.0-3.167-2.167","2knlz4912fwyuxb",942,"176.csv","","null","resources/images/coin2.png","null","",NA,NA,NA,NA,""
"image-keyboard-response",515,423921,"0.0-3.168-0.168","2knlz4912fwyuxb",942,"176.csv","","283.5","resources/trios/L4T1A3.jpg","38","restless",0.7,0.5,0.2,0.447362462190105,"true"
"image-keyboard-response",516,424328,"0.0-3.168-1.168","2knlz4912fwyuxb",942,"176.csv","","null","resources/maskTrios/BT1B.jpg","null","",NA,NA,NA,NA,""
"image-keyboard-response",517,425531,"0.0-3.168-2.168","2knlz4912fwyuxb",942,"176.csv","","null","resources/images/coin2.png","null","",NA,NA,NA,NA,""
"image-keyboard-response",518,425680,"0.0-3.169-0.169","2knlz4912fwyuxb",942,"176.csv","","146.80000001192093","resources/trios/L2T1A1.jpg","38","restless",0.7,0.5,0.3,0.649065996809576,"false"
"image-keyboard-response",519,426088,"0.0-3.169-1.169","2knlz4912fwyuxb",942,"176.csv","","null","resources/maskTrios/BT1B.jpg","null","",NA,NA,NA,NA,""
"image-keyboard-response",520,427295,"0.0-3.169-2.169","2knlz4912fwyuxb",942,"176.csv","","null","resources/images/fishbone.png","null","",NA,NA,NA,NA,""
"image-keyboard-response",521,427868,"0.0-3.170-0.170","2knlz4912fwyuxb",942,"176.csv","","571.5","resources/trios/L2T4A3.jpg","39","restless",0.7,0.5,0.3,0.545086343463523,"false"
"image-keyboard-response",522,428275,"0.0-3.170-1.170","2knlz4912fwyuxb",942,"176.csv","","null","resources/maskTrios/BBA3.jpg","null","",NA,NA,NA,NA,""
"image-keyboard-response",523,429478,"0.0-3.170-2.170","2knlz4912fwyuxb",942,"176.csv","","null","resources/images/fishbone.png","null","",NA,NA,NA,NA,""
"image-keyboard-response",524,429783,"0.0-3.171-0.171","2knlz4912fwyuxb",942,"176.csv","","302.19999998807907","resources/trios/L2T1A3.jpg","37","restless",0.7,0.5,0.3,0.449003355042596,"true"
"image-keyboard-response",525,430190,"0.0-3.171-1.171","2knlz4912fwyuxb",942,"176.csv","","null","resources/maskTrios/L2BB.jpg","null","",NA,NA,NA,NA,""
"image-keyboard-response",526,431395,"0.0-3.171-2.171","2knlz4912fwyuxb",942,"176.csv","","null","resources/images/coin2.png","null","",NA,NA,NA,NA,""
"image-keyboard-response",527,431612,"0.0-3.172-0.172","2knlz4912fwyuxb",942,"176.csv","","214.59999999403954","resources/trios/L4T4A1.jpg","37","restless",0.7,0.5,0.3,0.238009386438018,"true"
"image-keyboard-response",528,432019,"0.0-3.172-1.172","2knlz4912fwyuxb",942,"176.csv","","null","resources/maskTrios/L4BB.jpg","null","",NA,NA,NA,NA,""
"image-keyboard-response",529,433226,"0.0-3.172-2.172","2knlz4912fwyuxb",942,"176.csv","","null","resources/images/coin2.png","null","",NA,NA,NA,NA,""
"image-keyboard-response",530,433344,"0.0-3.173-0.173","2knlz4912fwyuxb",942,"176.csv","","116.09999999403954","resources/trios/L4T1A1.jpg","37","restless",0.7,0.5,0.3,0.404274002941809,"true"
"image-keyboard-response",531,433751,"0.0-3.173-1.173","2knlz4912fwyuxb",942,"176.csv","","null","resources/maskTrios/L4BB.jpg","null","",NA,NA,NA,NA,""
"image-keyboard-response",532,434958,"0.0-3.173-2.173","2knlz4912fwyuxb",942,"176.csv","","null","resources/images/coin2.png","null","",NA,NA,NA,NA,""
"image-keyboard-response",533,435310,"0.0-3.174-0.174","2knlz4912fwyuxb",942,"176.csv","","349.90000000596046","resources/trios/L4T4A1.jpg","37","restless",0.7,0.5,0.3,0.530691844020131,"true"
"image-keyboard-response",534,435717,"0.0-3.174-1.174","2knlz4912fwyuxb",942,"176.csv","","null","resources/maskTrios/L4BB.jpg","null","",NA,NA,NA,NA,""
"image-keyboard-response",535,436924,"0.0-3.174-2.174","2knlz4912fwyuxb",942,"176.csv","","null","resources/images/coin2.png","null","",NA,NA,NA,NA,""
"image-keyboard-response",536,437396,"0.0-3.175-0.175","2knlz4912fwyuxb",942,"176.csv","","470.2000000178814","resources/trios/L4T4A3.jpg","37","restless",0.7,0.6,0.3,0.253650519039594,"true"
"image-keyboard-response",537,437800,"0.0-3.175-1.175","2knlz4912fwyuxb",942,"176.csv","","null","resources/maskTrios/L4BB.jpg","null","",NA,NA,NA,NA,""
"image-keyboard-response",538,439003,"0.0-3.175-2.175","2knlz4912fwyuxb",942,"176.csv","","null","resources/images/coin2.png","null","",NA,NA,NA,NA,""
"image-keyboard-response",539,440039,"0.0-3.176-0.176","2knlz4912fwyuxb",942,"176.csv","","1034.5","resources/trios/L2T4A1.jpg","37","restless",0.7,0.5,0.3,0.161035282892165,"true"
"image-keyboard-response",540,440445,"0.0-3.176-1.176","2knlz4912fwyuxb",942,"176.csv","","null","resources/maskTrios/L2BB.jpg","null","",NA,NA,NA,NA,""
"image-keyboard-response",541,441651,"0.0-3.176-2.176","2knlz4912fwyuxb",942,"176.csv","","null","resources/images/coin2.png","null","",NA,NA,NA,NA,""
"image-keyboard-response",542,442032,"0.0-3.177-0.177","2knlz4912fwyuxb",942,"176.csv","","378.5","resources/trios/L2T1A1.jpg","37","restless",0.7,0.5,0.3,0.263167331806095,"true"
"image-keyboard-response",543,442439,"0.0-3.177-1.177","2knlz4912fwyuxb",942,"176.csv","","null","resources/maskTrios/L2BB.jpg","null","",NA,NA,NA,NA,""
"image-keyboard-response",544,443645,"0.0-3.177-2.177","2knlz4912fwyuxb",942,"176.csv","","null","resources/images/coin2.png","null","",NA,NA,NA,NA,""
"image-keyboard-response",545,443855,"0.0-3.178-0.178","2knlz4912fwyuxb",942,"176.csv","","207.59999999403954","resources/trios/L2T4A3.jpg","37","restless",0.7,0.5,0.3,0.735142877139924,"false"
"image-keyboard-response",546,444259,"0.0-3.178-1.178","2knlz4912fwyuxb",942,"176.csv","","null","resources/maskTrios/L2BB.jpg","null","",NA,NA,NA,NA,""
"image-keyboard-response",547,445462,"0.0-3.178-2.178","2knlz4912fwyuxb",942,"176.csv","","null","resources/images/fishbone.png","null","",NA,NA,NA,NA,""
"image-keyboard-response",548,445784,"0.0-3.179-0.179","2knlz4912fwyuxb",942,"176.csv","","320.19999998807907","resources/trios/L2T1A1.jpg","37","restless",0.7,0.5,0.3,0.680431005416021,"true"
"image-keyboard-response",549,446191,"0.0-3.179-1.179","2knlz4912fwyuxb",942,"176.csv","","null","resources/maskTrios/L2BB.jpg","null","",NA,NA,NA,NA,""
"image-keyboard-response",550,447395,"0.0-3.179-2.179","2knlz4912fwyuxb",942,"176.csv","","null","resources/images/coin2.png","null","",NA,NA,NA,NA,""
"image-keyboard-response",551,447683,"0.0-3.180-0.180","2knlz4912fwyuxb",942,"176.csv","","286.09999999403954","resources/trios/L2T4A3.jpg","37","restless",0.7,0.5,0.3,0.788209579142725,"false"
"image-keyboard-response",552,448090,"0.0-3.180-1.180","2knlz4912fwyuxb",942,"176.csv","","null","resources/maskTrios/L2BB.jpg","null","",NA,NA,NA,NA,""
"image-keyboard-response",553,449295,"0.0-3.180-2.180","2knlz4912fwyuxb",942,"176.csv","","null","resources/images/fishbone.png","null","",NA,NA,NA,NA,""
"image-keyboard-response",554,449708,"0.0-3.181-0.181","2knlz4912fwyuxb",942,"176.csv","","410.5","resources/trios/L4T4A3.jpg","38","restless",0.7,0.5,0.3,0.87457765132221,"false"
"image-keyboard-response",555,450112,"0.0-3.181-1.181","2knlz4912fwyuxb",942,"176.csv","","null","resources/maskTrios/BT4B.jpg","null","",NA,NA,NA,NA,""
"image-keyboard-response",556,451314,"0.0-3.181-2.181","2knlz4912fwyuxb",942,"176.csv","","null","resources/images/fishbone.png","null","",NA,NA,NA,NA,""
"image-keyboard-response",557,452118,"0.0-3.182-0.182","2knlz4912fwyuxb",942,"176.csv","","802.3000000119209","resources/trios/L4T1A3.jpg","37","restless",0.7,0.4,0.3,0.0752587960808544,"true"
"image-keyboard-response",558,452526,"0.0-3.182-1.182","2knlz4912fwyuxb",942,"176.csv","","null","resources/maskTrios/L4BB.jpg","null","",NA,NA,NA,NA,""
"image-keyboard-response",559,453728,"0.0-3.182-2.182","2knlz4912fwyuxb",942,"176.csv","","null","resources/images/coin2.png","null","",NA,NA,NA,NA,""
"image-keyboard-response",560,454705,"0.0-3.183-0.183","2knlz4912fwyuxb",942,"176.csv","","973.9000000059605","resources/trios/L2T1A1.jpg","37","restless",0.6,0.4,0.3,0.141043162126009,"true"
"image-keyboard-response",561,455106,"0.0-3.183-1.183","2knlz4912fwyuxb",942,"176.csv","","null","resources/maskTrios/L2BB.jpg","null","",NA,NA,NA,NA,""
"image-keyboard-response",562,456312,"0.0-3.183-2.183","2knlz4912fwyuxb",942,"176.csv","","null","resources/images/coin2.png","null","",NA,NA,NA,NA,""
"image-keyboard-response",563,456910,"0.0-3.184-0.184","2knlz4912fwyuxb",942,"176.csv","","596.2999999821186","resources/trios/L2T1A3.jpg","37","restless",0.6,0.4,0.3,0.251434051715305,"true"
"image-keyboard-response",564,457318,"0.0-3.184-1.184","2knlz4912fwyuxb",942,"176.csv","","null","resources/maskTrios/L2BB.jpg","null","",NA,NA,NA,NA,""
"image-keyboard-response",565,458525,"0.0-3.184-2.184","2knlz4912fwyuxb",942,"176.csv","","null","resources/images/coin2.png","null","",NA,NA,NA,NA,""
"image-keyboard-response",566,458986,"0.0-3.185-0.185","2knlz4912fwyuxb",942,"176.csv","","458.7999999821186","resources/trios/L2T4A3.jpg","39","restless",0.6,0.4,0.4,0.779668821159351,"false"
"image-keyboard-response",567,459392,"0.0-3.185-1.185","2knlz4912fwyuxb",942,"176.csv","","null","resources/maskTrios/BBA3.jpg","null","",NA,NA,NA,NA,""
"image-keyboard-response",568,460595,"0.0-3.185-2.185","2knlz4912fwyuxb",942,"176.csv","","null","resources/images/fishbone.png","null","",NA,NA,NA,NA,""
"image-keyboard-response",569,460870,"0.0-3.186-0.186","2knlz4912fwyuxb",942,"176.csv","","272.59999999403954","resources/trios/L4T4A3.jpg","39","restless",0.7,0.4,0.4,0.90035058866187,"false"
"image-keyboard-response",570,461277,"0.0-3.186-1.186","2knlz4912fwyuxb",942,"176.csv","","null","resources/maskTrios/BBA3.jpg","null","",NA,NA,NA,NA,""
"image-keyboard-response",571,462484,"0.0-3.186-2.186","2knlz4912fwyuxb",942,"176.csv","","null","resources/images/fishbone.png","null","",NA,NA,NA,NA,""
"image-keyboard-response",572,463139,"0.0-3.187-0.187","2knlz4912fwyuxb",942,"176.csv","","653.3999999761581","resources/trios/L2T1A1.jpg","39","restless",0.7,0.4,0.4,0.563180633018827,"false"
"image-keyboard-response",573,463545,"0.0-3.187-1.187","2knlz4912fwyuxb",942,"176.csv","","null","resources/maskTrios/BBA1.jpg","null","",NA,NA,NA,NA,""
"image-keyboard-response",574,464749,"0.0-3.187-2.187","2knlz4912fwyuxb",942,"176.csv","","null","resources/images/fishbone.png","null","",NA,NA,NA,NA,""
"image-keyboard-response",575,465088,"0.0-3.188-0.188","2knlz4912fwyuxb",942,"176.csv","","336.90000000596046","resources/trios/L2T4A1.jpg","39","restless",0.7,0.4,0.4,0.52238902105304,"false"
"image-keyboard-response",576,465495,"0.0-3.188-1.188","2knlz4912fwyuxb",942,"176.csv","","null","resources/maskTrios/BBA1.jpg","null","",NA,NA,NA,NA,""
"image-keyboard-response",577,466702,"0.0-3.188-2.188","2knlz4912fwyuxb",942,"176.csv","","null","resources/images/fishbone.png","null","",NA,NA,NA,NA,""
"image-keyboard-response",578,467143,"0.0-3.189-0.189","2knlz4912fwyuxb",942,"176.csv","","438.30000001192093","resources/trios/L4T4A1.jpg","37","restless",0.7,0.3,0.4,0.360108492631022,"true"
"image-keyboard-response",579,467545,"0.0-3.189-1.189","2knlz4912fwyuxb",942,"176.csv","","null","resources/maskTrios/L4BB.jpg","null","",NA,NA,NA,NA,""
"image-keyboard-response",580,468750,"0.0-3.189-2.189","2knlz4912fwyuxb",942,"176.csv","","null","resources/images/coin2.png","null","",NA,NA,NA,NA,""
"image-keyboard-response",581,469092,"0.0-3.190-0.190","2knlz4912fwyuxb",942,"176.csv","","340.59999999403954","resources/trios/L4T4A3.jpg","37","restless",0.7,0.3,0.3,0.188397700893455,"true"
"image-keyboard-response",582,469495,"0.0-3.190-1.190","2knlz4912fwyuxb",942,"176.csv","","null","resources/maskTrios/L4BB.jpg","null","",NA,NA,NA,NA,""
"image-keyboard-response",583,470702,"0.0-3.190-2.190","2knlz4912fwyuxb",942,"176.csv","","null","resources/images/coin2.png","null","",NA,NA,NA,NA,""
"image-keyboard-response",584,471085,"0.0-3.191-0.191","2knlz4912fwyuxb",942,"176.csv","","380.59999999403954","resources/trios/L4T1A3.jpg","37","restless",0.7,0.3,0.3,0.365863352289634,"true"
"image-keyboard-response",585,471493,"0.0-3.191-1.191","2knlz4912fwyuxb",942,"176.csv","","null","resources/maskTrios/L4BB.jpg","null","",NA,NA,NA,NA,""
"image-keyboard-response",586,472695,"0.0-3.191-2.191","2knlz4912fwyuxb",942,"176.csv","","null","resources/images/coin2.png","null","",NA,NA,NA,NA,""
"image-keyboard-response",587,473163,"0.0-3.192-0.192","2knlz4912fwyuxb",942,"176.csv","","465.5","resources/trios/L2T1A3.jpg","37","restless",0.7,0.2,0.3,0.993552975191206,"false"
"image-keyboard-response",588,473570,"0.0-3.192-1.192","2knlz4912fwyuxb",942,"176.csv","","null","resources/maskTrios/L2BB.jpg","null","",NA,NA,NA,NA,""
"image-keyboard-response",589,474777,"0.0-3.192-2.192","2knlz4912fwyuxb",942,"176.csv","","null","resources/images/fishbone.png","null","",NA,NA,NA,NA,""
"image-keyboard-response",590,475050,"0.0-3.193-0.193","2knlz4912fwyuxb",942,"176.csv","","271","resources/trios/L4T1A1.jpg","39","restless",0.6,0.2,0.3,0.941173248748129,"false"
"image-keyboard-response",591,475457,"0.0-3.193-1.193","2knlz4912fwyuxb",942,"176.csv","","null","resources/maskTrios/BBA1.jpg","null","",NA,NA,NA,NA,""
"image-keyboard-response",592,476662,"0.0-3.193-2.193","2knlz4912fwyuxb",942,"176.csv","","null","resources/images/fishbone.png","null","",NA,NA,NA,NA,""
"image-keyboard-response",593,476973,"0.0-3.194-0.194","2knlz4912fwyuxb",942,"176.csv","","308.69999998807907","resources/trios/L4T1A3.jpg","39","restless",0.6,0.2,0.3,0.85821287790883,"false"
"image-keyboard-response",594,477379,"0.0-3.194-1.194","2knlz4912fwyuxb",942,"176.csv","","null","resources/maskTrios/BBA3.jpg","null","",NA,NA,NA,NA,""
"image-keyboard-response",595,478585,"0.0-3.194-2.194","2knlz4912fwyuxb",942,"176.csv","","null","resources/images/fishbone.png","null","",NA,NA,NA,NA,""
"image-keyboard-response",596,478846,"0.0-3.195-0.195","2knlz4912fwyuxb",942,"176.csv","","258.59999999403954","resources/trios/L4T1A3.jpg","39","restless",0.6,0.2,0.3,0.399991145843012,"false"
"image-keyboard-response",597,479250,"0.0-3.195-1.195","2knlz4912fwyuxb",942,"176.csv","","null","resources/maskTrios/BBA3.jpg","null","",NA,NA,NA,NA,""
"image-keyboard-response",598,480457,"0.0-3.195-2.195","2knlz4912fwyuxb",942,"176.csv","","null","resources/images/fishbone.png","null","",NA,NA,NA,NA,""
"image-keyboard-response",599,480738,"0.0-3.196-0.196","2knlz4912fwyuxb",942,"176.csv","","279.19999998807907","resources/trios/L2T4A3.jpg","39","restless",0.6,0.2,0.3,0.620886854651423,"false"
"image-keyboard-response",600,481145,"0.0-3.196-1.196","2knlz4912fwyuxb",942,"176.csv","","null","resources/maskTrios/BBA3.jpg","null","",NA,NA,NA,NA,""
"image-keyboard-response",601,482351,"0.0-3.196-2.196","2knlz4912fwyuxb",942,"176.csv","","null","resources/images/fishbone.png","null","",NA,NA,NA,NA,""
"image-keyboard-response",602,482637,"0.0-3.197-0.197","2knlz4912fwyuxb",942,"176.csv","","283.80000001192093","resources/trios/L4T4A1.jpg","39","restless",0.6,0.2,0.3,0.630231860695486,"false"
"image-keyboard-response",603,483044,"0.0-3.197-1.197","2knlz4912fwyuxb",942,"176.csv","","null","resources/maskTrios/BBA1.jpg","null","",NA,NA,NA,NA,""
"image-keyboard-response",604,484251,"0.0-3.197-2.197","2knlz4912fwyuxb",942,"176.csv","","null","resources/images/fishbone.png","null","",NA,NA,NA,NA,""
"image-keyboard-response",605,484489,"0.0-3.198-0.198","2knlz4912fwyuxb",942,"176.csv","","235.59999999403954","resources/trios/L2T4A3.jpg","39","restless",0.6,0.3,0.3,0.389435445462018,"false"
