"trial_type","trial_index","time_elapsed","internal_node_id","subject","participantCode","walkNumber","success","rt","stimulus","key_press","test_part","leftProb","midProb","rightProb","generatedNum","correct"
"pavlovia",0,1015,"0.0-0.0","hepynrayw9vhhuu",427,"187.csv","","","","","",NA,NA,NA,NA,""
"fullscreen",1,3726,"0.0-1.0","hepynrayw9vhhuu",427,"187.csv","true","","","","",NA,NA,NA,NA,""
"html-keyboard-response",2,4865,"0.0-2.0-0.0","hepynrayw9vhhuu",427,"187.csv","","1137.7999999988824","<p><font size='6'>Arrrgh!</p></font><p>Can you be the best pirate? Try to find lots of gold! But beware, some islands have more gold than others, and over time, the island with the most gold may change. Can YOU figure it out? </p><font size='6'>GOOD LUCK, CAPTAIN!!!</font><p>Press any key to begin</p>","66","",NA,NA,NA,NA,""
"image-keyboard-response",3,7869,"0.0-2.0-1.0","hepynrayw9vhhuu",427,"187.csv","","null","resources/image_sets/111.png","null","",NA,NA,NA,NA,""
"image-keyboard-response",4,20485,"0.0-2.0-2.0","hepynrayw9vhhuu",427,"187.csv","","12613.60000000149","resources/image_sets/left_highlight.png","37","",NA,NA,NA,NA,""
"image-keyboard-response",5,23478,"0.0-2.0-3.0","hepynrayw9vhhuu",427,"187.csv","","2991.89999999851","resources/image_sets/mid_highlight.png","38","",NA,NA,NA,NA,""
"image-keyboard-response",6,24221,"0.0-2.0-4.0","hepynrayw9vhhuu",427,"187.csv","","741.8999999985099","resources/image_sets/right_highlight.png","39","",NA,NA,NA,NA,""
"image-keyboard-response",7,26351,"0.0-2.0-5.0","hepynrayw9vhhuu",427,"187.csv","","2127.89999999851","resources/image_sets/111.png","13","",NA,NA,NA,NA,""
"image-keyboard-response",8,28445,"0.0-2.0-6.0","hepynrayw9vhhuu",427,"187.csv","","2093.2999999988824","resources/images/coin2.png","13","",NA,NA,NA,NA,""
"image-keyboard-response",9,30346,"0.0-2.0-7.0","hepynrayw9vhhuu",427,"187.csv","","1899.5999999996275","resources/images/fishbone.png","13","",NA,NA,NA,NA,""
"html-keyboard-response",10,40225,"0.0-2.0-8.0","hepynrayw9vhhuu",427,"187.csv","","9878.200000001118","<p>Your first journey will be a long one, but you will get a well deserved break at the end</p><p>After the break you will have four more journeys, but each will be much shorter than the first, and you will have breaks in between each</p><p>Press Enter to begin</p>","13","",NA,NA,NA,NA,""
"image-keyboard-response",11,42438,"0.0-3.0-0.0","hepynrayw9vhhuu",427,"187.csv","","2209.800000000745","resources/trios/L4T2A3.jpg","38","restless",0.9,0.7,0.3,0.287335782705636,"true"
"image-keyboard-response",12,42843,"0.0-3.0-1.0","hepynrayw9vhhuu",427,"187.csv","","null","resources/maskTrios/BT2B.jpg","null","",NA,NA,NA,NA,""
"image-keyboard-response",13,44048,"0.0-3.0-2.0","hepynrayw9vhhuu",427,"187.csv","","null","resources/images/coin2.png","null","",NA,NA,NA,NA,""
"image-keyboard-response",14,45866,"0.0-3.1-0.1","hepynrayw9vhhuu",427,"187.csv","","1815.0999999996275","resources/trios/L4T2A3.jpg","38","restless",0.9,0.7,0.3,0.925726193892894,"false"
"image-keyboard-response",15,46269,"0.0-3.1-1.1","hepynrayw9vhhuu",427,"187.csv","","null","resources/maskTrios/BT2B.jpg","null","",NA,NA,NA,NA,""
"image-keyboard-response",16,47471,"0.0-3.1-2.1","hepynrayw9vhhuu",427,"187.csv","","null","resources/images/fishbone.png","null","",NA,NA,NA,NA,""
"image-keyboard-response",17,49643,"0.0-3.2-0.2","hepynrayw9vhhuu",427,"187.csv","","2169.300000000745","resources/trios/L1T4A2.jpg","38","restless",0.8,0.7,0.3,0.988151479990807,"false"
"image-keyboard-response",18,50049,"0.0-3.2-1.2","hepynrayw9vhhuu",427,"187.csv","","null","resources/maskTrios/BT4B.jpg","null","",NA,NA,NA,NA,""
"image-keyboard-response",19,51255,"0.0-3.2-2.2","hepynrayw9vhhuu",427,"187.csv","","null","resources/images/fishbone.png","null","",NA,NA,NA,NA,""
"image-keyboard-response",20,53077,"0.0-3.3-0.3","hepynrayw9vhhuu",427,"187.csv","","1820.0999999996275","resources/trios/L1T4A2.jpg","37","restless",0.8,0.7,0.4,0.680712727959661,"true"
"image-keyboard-response",21,53479,"0.0-3.3-1.3","hepynrayw9vhhuu",427,"187.csv","","null","resources/maskTrios/L1BB.jpg","null","",NA,NA,NA,NA,""
"image-keyboard-response",22,54682,"0.0-3.3-2.3","hepynrayw9vhhuu",427,"187.csv","","null","resources/images/coin2.png","null","",NA,NA,NA,NA,""
"image-keyboard-response",23,56637,"0.0-3.4-0.4","hepynrayw9vhhuu",427,"187.csv","","1953","resources/trios/L1T4A3.jpg","39","restless",0.8,0.7,0.4,0.334560717647392,"true"
"image-keyboard-response",24,57043,"0.0-3.4-1.4","hepynrayw9vhhuu",427,"187.csv","","null","resources/maskTrios/BBA3.jpg","null","",NA,NA,NA,NA,""
"image-keyboard-response",25,58246,"0.0-3.4-2.4","hepynrayw9vhhuu",427,"187.csv","","null","resources/images/coin2.png","null","",NA,NA,NA,NA,""
"image-keyboard-response",26,60019,"0.0-3.5-0.5","hepynrayw9vhhuu",427,"187.csv","","1771.7000000011176","resources/trios/L1T2A2.jpg","38","restless",0.8,0.7,0.4,0.957451889422463,"false"
"image-keyboard-response",27,60422,"0.0-3.5-1.5","hepynrayw9vhhuu",427,"187.csv","","null","resources/maskTrios/BT2B.jpg","null","",NA,NA,NA,NA,""
"image-keyboard-response",28,61624,"0.0-3.5-2.5","hepynrayw9vhhuu",427,"187.csv","","null","resources/images/fishbone.png","null","",NA,NA,NA,NA,""
"image-keyboard-response",29,62100,"0.0-3.6-0.6","hepynrayw9vhhuu",427,"187.csv","","474.59999999962747","resources/trios/L1T2A3.jpg","39","restless",0.8,0.7,0.4,0.137042972899061,"true"
"image-keyboard-response",30,62507,"0.0-3.6-1.6","hepynrayw9vhhuu",427,"187.csv","","null","resources/maskTrios/BBA3.jpg","null","",NA,NA,NA,NA,""
"image-keyboard-response",31,63711,"0.0-3.6-2.6","hepynrayw9vhhuu",427,"187.csv","","null","resources/images/coin2.png","null","",NA,NA,NA,NA,""
"image-keyboard-response",32,64791,"0.0-3.7-0.7","hepynrayw9vhhuu",427,"187.csv","","1077.8999999985099","resources/trios/L1T4A2.jpg","39","restless",0.8,0.7,0.4,0.781876041567182,"false"
"image-keyboard-response",33,65193,"0.0-3.7-1.7","hepynrayw9vhhuu",427,"187.csv","","null","resources/maskTrios/BBA2.jpg","null","",NA,NA,NA,NA,""
"image-keyboard-response",34,66395,"0.0-3.7-2.7","hepynrayw9vhhuu",427,"187.csv","","null","resources/images/fishbone.png","null","",NA,NA,NA,NA,""
"image-keyboard-response",35,67368,"0.0-3.8-0.8","hepynrayw9vhhuu",427,"187.csv","","969.5","resources/trios/L1T2A2.jpg","38","restless",0.8,0.7,0.4,0.24159370289755,"true"
"image-keyboard-response",36,67771,"0.0-3.8-1.8","hepynrayw9vhhuu",427,"187.csv","","null","resources/maskTrios/BT2B.jpg","null","",NA,NA,NA,NA,""
"image-keyboard-response",37,68974,"0.0-3.8-2.8","hepynrayw9vhhuu",427,"187.csv","","null","resources/images/coin2.png","null","",NA,NA,NA,NA,""
"image-keyboard-response",38,69541,"0.0-3.9-0.9","hepynrayw9vhhuu",427,"187.csv","","566.0999999996275","resources/trios/L1T2A3.jpg","39","restless",0.8,0.7,0.4,0.65252418022857,"false"
"image-keyboard-response",39,69943,"0.0-3.9-1.9","hepynrayw9vhhuu",427,"187.csv","","null","resources/maskTrios/BBA3.jpg","null","",NA,NA,NA,NA,""
"image-keyboard-response",40,71144,"0.0-3.9-2.9","hepynrayw9vhhuu",427,"187.csv","","null","resources/images/fishbone.png","null","",NA,NA,NA,NA,""
"image-keyboard-response",41,71746,"0.0-3.10-0.10","hepynrayw9vhhuu",427,"187.csv","","600.5","resources/trios/L4T4A3.jpg","39","restless",0.8,0.7,0.4,0.21699896828243,"true"
"image-keyboard-response",42,72148,"0.0-3.10-1.10","hepynrayw9vhhuu",427,"187.csv","","null","resources/maskTrios/BBA3.jpg","null","",NA,NA,NA,NA,""
"image-keyboard-response",43,73353,"0.0-3.10-2.10","hepynrayw9vhhuu",427,"187.csv","","null","resources/images/coin2.png","null","",NA,NA,NA,NA,""
"image-keyboard-response",44,73893,"0.0-3.11-0.11","hepynrayw9vhhuu",427,"187.csv","","537.6999999992549","resources/trios/L1T2A2.jpg","38","restless",0.7,0.7,0.4,0.315741097177128,"true"
"image-keyboard-response",45,74296,"0.0-3.11-1.11","hepynrayw9vhhuu",427,"187.csv","","null","resources/maskTrios/BT2B.jpg","null","",NA,NA,NA,NA,""
"image-keyboard-response",46,75498,"0.0-3.11-2.11","hepynrayw9vhhuu",427,"187.csv","","null","resources/images/coin2.png","null","",NA,NA,NA,NA,""
"image-keyboard-response",47,76370,"0.0-3.12-0.12","hepynrayw9vhhuu",427,"187.csv","","871.3000000007451","resources/trios/L1T2A3.jpg","37","restless",0.7,0.7,0.4,0.686600322426649,"true"
"image-keyboard-response",48,76772,"0.0-3.12-1.12","hepynrayw9vhhuu",427,"187.csv","","null","resources/maskTrios/L1BB.jpg","null","",NA,NA,NA,NA,""
"image-keyboard-response",49,77976,"0.0-3.12-2.12","hepynrayw9vhhuu",427,"187.csv","","null","resources/images/coin2.png","null","",NA,NA,NA,NA,""
"image-keyboard-response",50,78390,"0.0-3.13-0.13","hepynrayw9vhhuu",427,"187.csv","","412.7999999988824","resources/trios/L1T4A3.jpg","38","restless",0.7,0.7,0.4,0.692042026412207,"true"
"image-keyboard-response",51,78792,"0.0-3.13-1.13","hepynrayw9vhhuu",427,"187.csv","","null","resources/maskTrios/BT4B.jpg","null","",NA,NA,NA,NA,""
"image-keyboard-response",52,79994,"0.0-3.13-2.13","hepynrayw9vhhuu",427,"187.csv","","null","resources/images/coin2.png","null","",NA,NA,NA,NA,""
"image-keyboard-response",53,80412,"0.0-3.14-0.14","hepynrayw9vhhuu",427,"187.csv","","416.7999999988824","resources/trios/L1T2A2.jpg","37","restless",0.7,0.7,0.4,0.110228013915607,"true"
"image-keyboard-response",54,80818,"0.0-3.14-1.14","hepynrayw9vhhuu",427,"187.csv","","null","resources/maskTrios/L1BB.jpg","null","",NA,NA,NA,NA,""
"image-keyboard-response",55,82020,"0.0-3.14-2.14","hepynrayw9vhhuu",427,"187.csv","","null","resources/images/coin2.png","null","",NA,NA,NA,NA,""
"image-keyboard-response",56,82406,"0.0-3.15-0.15","hepynrayw9vhhuu",427,"187.csv","","383.59999999962747","resources/trios/L4T4A2.jpg","39","restless",0.7,0.7,0.4,0.758178382365932,"false"
"image-keyboard-response",57,82812,"0.0-3.15-1.15","hepynrayw9vhhuu",427,"187.csv","","null","resources/maskTrios/BBA2.jpg","null","",NA,NA,NA,NA,""
"image-keyboard-response",58,84019,"0.0-3.15-2.15","hepynrayw9vhhuu",427,"187.csv","","null","resources/images/fishbone.png","null","",NA,NA,NA,NA,""
"image-keyboard-response",59,84360,"0.0-3.16-0.16","hepynrayw9vhhuu",427,"187.csv","","340.5","resources/trios/L4T2A2.jpg","37","restless",0.7,0.7,0.4,0.823068225698923,"false"
"image-keyboard-response",60,84765,"0.0-3.16-1.16","hepynrayw9vhhuu",427,"187.csv","","null","resources/maskTrios/L4BB.jpg","null","",NA,NA,NA,NA,""
"image-keyboard-response",61,85967,"0.0-3.16-2.16","hepynrayw9vhhuu",427,"187.csv","","null","resources/images/fishbone.png","null","",NA,NA,NA,NA,""
"image-keyboard-response",62,86518,"0.0-3.17-0.17","hepynrayw9vhhuu",427,"187.csv","","549.0999999996275","resources/trios/L1T4A3.jpg","37","restless",0.7,0.7,0.4,0.203733885468903,"true"
"image-keyboard-response",63,86925,"0.0-3.17-1.17","hepynrayw9vhhuu",427,"187.csv","","null","resources/maskTrios/L1BB.jpg","null","",NA,NA,NA,NA,""
"image-keyboard-response",64,88131,"0.0-3.17-2.17","hepynrayw9vhhuu",427,"187.csv","","null","resources/images/coin2.png","null","",NA,NA,NA,NA,""
"image-keyboard-response",65,88486,"0.0-3.18-0.18","hepynrayw9vhhuu",427,"187.csv","","352.5","resources/trios/L1T2A2.jpg","37","restless",0.7,0.7,0.4,0.506671498813058,"true"
"image-keyboard-response",66,88892,"0.0-3.18-1.18","hepynrayw9vhhuu",427,"187.csv","","null","resources/maskTrios/L1BB.jpg","null","",NA,NA,NA,NA,""
"image-keyboard-response",67,90093,"0.0-3.18-2.18","hepynrayw9vhhuu",427,"187.csv","","null","resources/images/coin2.png","null","",NA,NA,NA,NA,""
"image-keyboard-response",68,90699,"0.0-3.19-0.19","hepynrayw9vhhuu",427,"187.csv","","603.7999999988824","resources/trios/L4T2A3.jpg","37","restless",0.7,0.7,0.4,0.240772151918964,"true"
"image-keyboard-response",69,91101,"0.0-3.19-1.19","hepynrayw9vhhuu",427,"187.csv","","null","resources/maskTrios/L4BB.jpg","null","",NA,NA,NA,NA,""
"image-keyboard-response",70,92306,"0.0-3.19-2.19","hepynrayw9vhhuu",427,"187.csv","","null","resources/images/coin2.png","null","",NA,NA,NA,NA,""
"image-keyboard-response",71,92695,"0.0-3.20-0.20","hepynrayw9vhhuu",427,"187.csv","","387.09999999962747","resources/trios/L1T4A2.jpg","37","restless",0.6,0.7,0.4,0.0576249277028746,"true"
"image-keyboard-response",72,93099,"0.0-3.20-1.20","hepynrayw9vhhuu",427,"187.csv","","null","resources/maskTrios/L1BB.jpg","null","",NA,NA,NA,NA,""
"image-keyboard-response",73,94305,"0.0-3.20-2.20","hepynrayw9vhhuu",427,"187.csv","","null","resources/images/coin2.png","null","",NA,NA,NA,NA,""
"image-keyboard-response",74,94708,"0.0-3.21-0.21","hepynrayw9vhhuu",427,"187.csv","","400.69999999925494","resources/trios/L4T2A3.jpg","37","restless",0.6,0.7,0.4,0.901433403120875,"false"
"image-keyboard-response",75,95110,"0.0-3.21-1.21","hepynrayw9vhhuu",427,"187.csv","","null","resources/maskTrios/L4BB.jpg","null","",NA,NA,NA,NA,""
"image-keyboard-response",76,96313,"0.0-3.21-2.21","hepynrayw9vhhuu",427,"187.csv","","null","resources/images/fishbone.png","null","",NA,NA,NA,NA,""
"image-keyboard-response",77,96605,"0.0-3.22-0.22","hepynrayw9vhhuu",427,"187.csv","","290.80000000074506","resources/trios/L1T4A2.jpg","38","restless",0.6,0.7,0.4,0.0988958494355967,"true"
"image-keyboard-response",78,97011,"0.0-3.22-1.22","hepynrayw9vhhuu",427,"187.csv","","null","resources/maskTrios/BT4B.jpg","null","",NA,NA,NA,NA,""
"image-keyboard-response",79,98214,"0.0-3.22-2.22","hepynrayw9vhhuu",427,"187.csv","","null","resources/images/coin2.png","null","",NA,NA,NA,NA,""
"image-keyboard-response",80,98507,"0.0-3.23-0.23","hepynrayw9vhhuu",427,"187.csv","","292.30000000074506","resources/trios/L4T2A3.jpg","39","restless",0.6,0.7,0.4,0.995754057992863,"false"
"image-keyboard-response",81,98910,"0.0-3.23-1.23","hepynrayw9vhhuu",427,"187.csv","","null","resources/maskTrios/BBA3.jpg","null","",NA,NA,NA,NA,""
"image-keyboard-response",82,100114,"0.0-3.23-2.23","hepynrayw9vhhuu",427,"187.csv","","null","resources/images/fishbone.png","null","",NA,NA,NA,NA,""
"image-keyboard-response",83,100503,"0.0-3.24-0.24","hepynrayw9vhhuu",427,"187.csv","","387.30000000074506","resources/trios/L1T2A2.jpg","38","restless",0.6,0.7,0.4,0.182851543807948,"true"
"image-keyboard-response",84,100905,"0.0-3.24-1.24","hepynrayw9vhhuu",427,"187.csv","","null","resources/maskTrios/BT2B.jpg","null","",NA,NA,NA,NA,""
"image-keyboard-response",85,102107,"0.0-3.24-2.24","hepynrayw9vhhuu",427,"187.csv","","null","resources/images/coin2.png","null","",NA,NA,NA,NA,""
"image-keyboard-response",86,102355,"0.0-3.25-0.25","hepynrayw9vhhuu",427,"187.csv","","246.5","resources/trios/L4T2A3.jpg","38","restless",0.6,0.7,0.4,0.0587366458972931,"true"
"image-keyboard-response",87,102756,"0.0-3.25-1.25","hepynrayw9vhhuu",427,"187.csv","","null","resources/maskTrios/BT2B.jpg","null","",NA,NA,NA,NA,""
"image-keyboard-response",88,103960,"0.0-3.25-2.25","hepynrayw9vhhuu",427,"187.csv","","null","resources/images/coin2.png","null","",NA,NA,NA,NA,""
"image-keyboard-response",89,104240,"0.0-3.26-0.26","hepynrayw9vhhuu",427,"187.csv","","278","resources/trios/L4T2A2.jpg","38","restless",0.6,0.7,0.4,0.51441242227746,"true"
"image-keyboard-response",90,104641,"0.0-3.26-1.26","hepynrayw9vhhuu",427,"187.csv","","null","resources/maskTrios/BT2B.jpg","null","",NA,NA,NA,NA,""
"image-keyboard-response",91,105847,"0.0-3.26-2.26","hepynrayw9vhhuu",427,"187.csv","","null","resources/images/coin2.png","null","",NA,NA,NA,NA,""
"image-keyboard-response",92,106131,"0.0-3.27-0.27","hepynrayw9vhhuu",427,"187.csv","","281.59999999962747","resources/trios/L1T2A2.jpg","38","restless",0.6,0.6,0.4,0.907440100873017,"false"
"image-keyboard-response",93,106533,"0.0-3.27-1.27","hepynrayw9vhhuu",427,"187.csv","","null","resources/maskTrios/BT2B.jpg","null","",NA,NA,NA,NA,""
"image-keyboard-response",94,107735,"0.0-3.27-2.27","hepynrayw9vhhuu",427,"187.csv","","null","resources/images/fishbone.png","null","",NA,NA,NA,NA,""
"image-keyboard-response",95,108004,"0.0-3.28-0.28","hepynrayw9vhhuu",427,"187.csv","","266.7999999988824","resources/trios/L4T4A2.jpg","39","restless",0.6,0.6,0.4,0.739965995765565,"false"
"image-keyboard-response",96,108406,"0.0-3.28-1.28","hepynrayw9vhhuu",427,"187.csv","","null","resources/maskTrios/BBA2.jpg","null","",NA,NA,NA,NA,""
"image-keyboard-response",97,109613,"0.0-3.28-2.28","hepynrayw9vhhuu",427,"187.csv","","null","resources/images/fishbone.png","null","",NA,NA,NA,NA,""
"image-keyboard-response",98,109973,"0.0-3.29-0.29","hepynrayw9vhhuu",427,"187.csv","","358.7000000011176","resources/trios/L1T4A2.jpg","37","restless",0.6,0.6,0.4,0.554036057170917,"true"
"image-keyboard-response",99,110376,"0.0-3.29-1.29","hepynrayw9vhhuu",427,"187.csv","","null","resources/maskTrios/L1BB.jpg","null","",NA,NA,NA,NA,""
"image-keyboard-response",100,111583,"0.0-3.29-2.29","hepynrayw9vhhuu",427,"187.csv","","null","resources/images/coin2.png","null","",NA,NA,NA,NA,""
"image-keyboard-response",101,113544,"0.0-3.30-0.30","hepynrayw9vhhuu",427,"187.csv","","1959.800000000745","resources/trios/L1T4A3.jpg","37","restless",0.5,0.6,0.4,0.763425831918035,"false"
"image-keyboard-response",102,113951,"0.0-3.30-1.30","hepynrayw9vhhuu",427,"187.csv","","null","resources/maskTrios/L1BB.jpg","null","",NA,NA,NA,NA,""
"image-keyboard-response",103,115152,"0.0-3.30-2.30","hepynrayw9vhhuu",427,"187.csv","","null","resources/images/fishbone.png","null","",NA,NA,NA,NA,""
"image-keyboard-response",104,115622,"0.0-3.31-0.31","hepynrayw9vhhuu",427,"187.csv","","468.30000000074506","resources/trios/L1T4A3.jpg","38","restless",0.5,0.6,0.4,0.125198803870793,"true"
"image-keyboard-response",105,116029,"0.0-3.31-1.31","hepynrayw9vhhuu",427,"187.csv","","null","resources/maskTrios/BT4B.jpg","null","",NA,NA,NA,NA,""
"image-keyboard-response",106,117231,"0.0-3.31-2.31","hepynrayw9vhhuu",427,"187.csv","","null","resources/images/coin2.png","null","",NA,NA,NA,NA,""
"image-keyboard-response",107,117657,"0.0-3.32-0.32","hepynrayw9vhhuu",427,"187.csv","","424.2999999988824","resources/trios/L1T4A2.jpg","38","restless",0.4,0.6,0.4,0.0185492421775326,"true"
"image-keyboard-response",108,118063,"0.0-3.32-1.32","hepynrayw9vhhuu",427,"187.csv","","null","resources/maskTrios/BT4B.jpg","null","",NA,NA,NA,NA,""
"image-keyboard-response",109,119269,"0.0-3.32-2.32","hepynrayw9vhhuu",427,"187.csv","","null","resources/images/coin2.png","null","",NA,NA,NA,NA,""
"image-keyboard-response",110,119664,"0.0-3.33-0.33","hepynrayw9vhhuu",427,"187.csv","","394.5","resources/trios/L1T2A2.jpg","39","restless",0.4,0.6,0.4,0.426343841402526,"false"
"image-keyboard-response",111,120066,"0.0-3.33-1.33","hepynrayw9vhhuu",427,"187.csv","","null","resources/maskTrios/BBA2.jpg","null","",NA,NA,NA,NA,""
"image-keyboard-response",112,121268,"0.0-3.33-2.33","hepynrayw9vhhuu",427,"187.csv","","null","resources/images/fishbone.png","null","",NA,NA,NA,NA,""
"image-keyboard-response",113,121405,"0.0-3.34-0.34","hepynrayw9vhhuu",427,"187.csv","","136","resources/trios/L1T2A3.jpg","38","restless",0.4,0.6,0.4,0.228034181307893,"true"
"image-keyboard-response",114,121811,"0.0-3.34-1.34","hepynrayw9vhhuu",427,"187.csv","","null","resources/maskTrios/BT2B.jpg","null","",NA,NA,NA,NA,""
"image-keyboard-response",115,123013,"0.0-3.34-2.34","hepynrayw9vhhuu",427,"187.csv","","null","resources/images/coin2.png","null","",NA,NA,NA,NA,""
"image-keyboard-response",116,123375,"0.0-3.35-0.35","hepynrayw9vhhuu",427,"187.csv","","361.30000000074506","resources/trios/L1T2A2.jpg","38","restless",0.4,0.6,0.4,0.892076963626872,"false"
"image-keyboard-response",117,123781,"0.0-3.35-1.35","hepynrayw9vhhuu",427,"187.csv","","null","resources/maskTrios/BT2B.jpg","null","",NA,NA,NA,NA,""
"image-keyboard-response",118,124986,"0.0-3.35-2.35","hepynrayw9vhhuu",427,"187.csv","","null","resources/images/fishbone.png","null","",NA,NA,NA,NA,""
"image-keyboard-response",119,125236,"0.0-3.36-0.36","hepynrayw9vhhuu",427,"187.csv","","247.80000000074506","resources/trios/L4T2A3.jpg","38","restless",0.4,0.6,0.4,0.50293874002309,"true"
"image-keyboard-response",120,125637,"0.0-3.36-1.36","hepynrayw9vhhuu",427,"187.csv","","null","resources/maskTrios/BT2B.jpg","null","",NA,NA,NA,NA,""
"image-keyboard-response",121,126842,"0.0-3.36-2.36","hepynrayw9vhhuu",427,"187.csv","","null","resources/images/coin2.png","null","",NA,NA,NA,NA,""
"image-keyboard-response",122,126884,"0.0-3.37-0.37","hepynrayw9vhhuu",427,"187.csv","","41.5","resources/trios/L4T2A3.jpg","38","restless",0.4,0.6,0.4,0.377631838517981,"true"
"image-keyboard-response",123,127285,"0.0-3.37-1.37","hepynrayw9vhhuu",427,"187.csv","","null","resources/maskTrios/BT2B.jpg","null","",NA,NA,NA,NA,""
"image-keyboard-response",124,128488,"0.0-3.37-2.37","hepynrayw9vhhuu",427,"187.csv","","null","resources/images/coin2.png","null","",NA,NA,NA,NA,""
"image-keyboard-response",125,128729,"0.0-3.38-0.38","hepynrayw9vhhuu",427,"187.csv","","240.40000000037253","resources/trios/L1T4A2.jpg","38","restless",0.4,0.7,0.4,0.614551499143928,"true"
"image-keyboard-response",126,129131,"0.0-3.38-1.38","hepynrayw9vhhuu",427,"187.csv","","null","resources/maskTrios/BT4B.jpg","null","",NA,NA,NA,NA,""
"image-keyboard-response",127,130334,"0.0-3.38-2.38","hepynrayw9vhhuu",427,"187.csv","","null","resources/images/coin2.png","null","",NA,NA,NA,NA,""
"image-keyboard-response",128,130711,"0.0-3.39-0.39","hepynrayw9vhhuu",427,"187.csv","","375.7999999988824","resources/trios/L1T2A3.jpg","38","restless",0.4,0.7,0.4,0.550499564796668,"true"
"image-keyboard-response",129,131114,"0.0-3.39-1.39","hepynrayw9vhhuu",427,"187.csv","","null","resources/maskTrios/BT2B.jpg","null","",NA,NA,NA,NA,""
"image-keyboard-response",130,132320,"0.0-3.39-2.39","hepynrayw9vhhuu",427,"187.csv","","null","resources/images/coin2.png","null","",NA,NA,NA,NA,""
"image-keyboard-response",131,132612,"0.0-3.40-0.40","hepynrayw9vhhuu",427,"187.csv","","290.5","resources/trios/L1T2A3.jpg","38","restless",0.4,0.7,0.4,0.44316624956394,"true"
"image-keyboard-response",132,133015,"0.0-3.40-1.40","hepynrayw9vhhuu",427,"187.csv","","null","resources/maskTrios/BT2B.jpg","null","",NA,NA,NA,NA,""
"image-keyboard-response",133,134217,"0.0-3.40-2.40","hepynrayw9vhhuu",427,"187.csv","","null","resources/images/coin2.png","null","",NA,NA,NA,NA,""
"image-keyboard-response",134,134377,"0.0-3.41-0.41","hepynrayw9vhhuu",427,"187.csv","","157.69999999925494","resources/trios/L4T2A2.jpg","38","restless",0.4,0.7,0.4,0.845038304560491,"false"
"image-keyboard-response",135,134780,"0.0-3.41-1.41","hepynrayw9vhhuu",427,"187.csv","","null","resources/maskTrios/BT2B.jpg","null","",NA,NA,NA,NA,""
"image-keyboard-response",136,135982,"0.0-3.41-2.41","hepynrayw9vhhuu",427,"187.csv","","null","resources/images/fishbone.png","null","",NA,NA,NA,NA,""
"image-keyboard-response",137,136218,"0.0-3.42-0.42","hepynrayw9vhhuu",427,"187.csv","","235.19999999925494","resources/trios/L4T2A3.jpg","38","restless",0.4,0.7,0.4,0.0620315521864496,"true"
"image-keyboard-response",138,136624,"0.0-3.42-1.42","hepynrayw9vhhuu",427,"187.csv","","null","resources/maskTrios/BT2B.jpg","null","",NA,NA,NA,NA,""
"image-keyboard-response",139,137829,"0.0-3.42-2.42","hepynrayw9vhhuu",427,"187.csv","","null","resources/images/coin2.png","null","",NA,NA,NA,NA,""
"image-keyboard-response",140,138093,"0.0-3.43-0.43","hepynrayw9vhhuu",427,"187.csv","","261.09999999962747","resources/trios/L4T4A2.jpg","38","restless",0.4,0.7,0.4,0.10655724118968,"true"
"image-keyboard-response",141,138499,"0.0-3.43-1.43","hepynrayw9vhhuu",427,"187.csv","","null","resources/maskTrios/BT4B.jpg","null","",NA,NA,NA,NA,""
"image-keyboard-response",142,139704,"0.0-3.43-2.43","hepynrayw9vhhuu",427,"187.csv","","null","resources/images/coin2.png","null","",NA,NA,NA,NA,""
"image-keyboard-response",143,140736,"0.0-3.44-0.44","hepynrayw9vhhuu",427,"187.csv","","1029.9000000003725","resources/trios/L4T2A3.jpg","38","restless",0.4,0.7,0.4,0.859909328764562,"false"
"image-keyboard-response",144,141138,"0.0-3.44-1.44","hepynrayw9vhhuu",427,"187.csv","","null","resources/maskTrios/BT2B.jpg","null","",NA,NA,NA,NA,""
"image-keyboard-response",145,142343,"0.0-3.44-2.44","hepynrayw9vhhuu",427,"187.csv","","null","resources/images/fishbone.png","null","",NA,NA,NA,NA,""
"image-keyboard-response",146,142593,"0.0-3.45-0.45","hepynrayw9vhhuu",427,"187.csv","","249","resources/trios/L1T2A3.jpg","39","restless",0.4,0.7,0.4,0.169142473651393,"true"
"image-keyboard-response",147,142995,"0.0-3.45-1.45","hepynrayw9vhhuu",427,"187.csv","","null","resources/maskTrios/BBA3.jpg","null","",NA,NA,NA,NA,""
"image-keyboard-response",148,144198,"0.0-3.45-2.45","hepynrayw9vhhuu",427,"187.csv","","null","resources/images/coin2.png","null","",NA,NA,NA,NA,""
"image-keyboard-response",149,144434,"0.0-3.46-0.46","hepynrayw9vhhuu",427,"187.csv","","234.5","resources/trios/L1T4A3.jpg","39","restless",0.4,0.7,0.4,0.178013955592292,"true"
"image-keyboard-response",150,144837,"0.0-3.46-1.46","hepynrayw9vhhuu",427,"187.csv","","null","resources/maskTrios/BBA3.jpg","null","",NA,NA,NA,NA,""
"image-keyboard-response",151,146041,"0.0-3.46-2.46","hepynrayw9vhhuu",427,"187.csv","","null","resources/images/coin2.png","null","",NA,NA,NA,NA,""
"image-keyboard-response",152,146050,"0.0-3.47-0.47","hepynrayw9vhhuu",427,"187.csv","","7.400000000372529","resources/trios/L4T4A3.jpg","39","restless",0.4,0.7,0.4,0.147162653962758,"true"
"image-keyboard-response",153,146454,"0.0-3.47-1.47","hepynrayw9vhhuu",427,"187.csv","","null","resources/maskTrios/BBA3.jpg","null","",NA,NA,NA,NA,""
"image-keyboard-response",154,147657,"0.0-3.47-2.47","hepynrayw9vhhuu",427,"187.csv","","null","resources/images/coin2.png","null","",NA,NA,NA,NA,""
"image-keyboard-response",155,149517,"0.0-3.48-0.48","hepynrayw9vhhuu",427,"187.csv","","1858.4000000003725","resources/trios/L4T2A2.jpg","39","restless",0.4,0.7,0.4,0.418123950062292,"false"
"image-keyboard-response",156,149919,"0.0-3.48-1.48","hepynrayw9vhhuu",427,"187.csv","","null","resources/maskTrios/BBA2.jpg","null","",NA,NA,NA,NA,""
"image-keyboard-response",157,151122,"0.0-3.48-2.48","hepynrayw9vhhuu",427,"187.csv","","null","resources/images/fishbone.png","null","",NA,NA,NA,NA,""
"image-keyboard-response",158,152855,"0.0-3.49-0.49","hepynrayw9vhhuu",427,"187.csv","","1730.9000000003725","resources/trios/L4T2A3.jpg","39","restless",0.4,0.7,0.4,0.0970677030400138,"true"
"image-keyboard-response",159,153258,"0.0-3.49-1.49","hepynrayw9vhhuu",427,"187.csv","","null","resources/maskTrios/BBA3.jpg","null","",NA,NA,NA,NA,""
"image-keyboard-response",160,154460,"0.0-3.49-2.49","hepynrayw9vhhuu",427,"187.csv","","null","resources/images/coin2.png","null","",NA,NA,NA,NA,""
"image-keyboard-response",161,157262,"0.0-3.50-0.50","hepynrayw9vhhuu",427,"187.csv","","2800.9000000003725","resources/trios/L1T4A3.jpg","39","restless",0.4,0.7,0.4,0.201994472260369,"true"
"image-keyboard-response",162,157666,"0.0-3.50-1.50","hepynrayw9vhhuu",427,"187.csv","","null","resources/maskTrios/BBA3.jpg","null","",NA,NA,NA,NA,""
"image-keyboard-response",163,158869,"0.0-3.50-2.50","hepynrayw9vhhuu",427,"187.csv","","null","resources/images/coin2.png","null","",NA,NA,NA,NA,""
"image-keyboard-response",164,162554,"0.0-3.51-0.51","hepynrayw9vhhuu",427,"187.csv","","3683.300000000745","resources/trios/L4T4A3.jpg","39","restless",0.5,0.7,0.4,0.268590657068817,"true"
"image-keyboard-response",165,162957,"0.0-3.51-1.51","hepynrayw9vhhuu",427,"187.csv","","null","resources/maskTrios/BBA3.jpg","null","",NA,NA,NA,NA,""
"image-keyboard-response",166,164159,"0.0-3.51-2.51","hepynrayw9vhhuu",427,"187.csv","","null","resources/images/coin2.png","null","",NA,NA,NA,NA,""
"image-keyboard-response",167,164907,"0.0-3.52-0.52","hepynrayw9vhhuu",427,"187.csv","","745.7999999988824","resources/trios/L1T4A2.jpg","39","restless",0.5,0.8,0.4,0.650419900617097,"false"
"image-keyboard-response",168,165309,"0.0-3.52-1.52","hepynrayw9vhhuu",427,"187.csv","","null","resources/maskTrios/BBA2.jpg","null","",NA,NA,NA,NA,""
"image-keyboard-response",169,166512,"0.0-3.52-2.52","hepynrayw9vhhuu",427,"187.csv","","null","resources/images/fishbone.png","null","",NA,NA,NA,NA,""
"image-keyboard-response",170,166840,"0.0-3.53-0.53","hepynrayw9vhhuu",427,"187.csv","","326.2000000011176","resources/trios/L1T4A3.jpg","37","restless",0.5,0.8,0.3,0.992786290638078,"false"
"image-keyboard-response",171,167245,"0.0-3.53-1.53","hepynrayw9vhhuu",427,"187.csv","","null","resources/maskTrios/L1BB.jpg","null","",NA,NA,NA,NA,""
"image-keyboard-response",172,168447,"0.0-3.53-2.53","hepynrayw9vhhuu",427,"187.csv","","null","resources/images/fishbone.png","null","",NA,NA,NA,NA,""
"image-keyboard-response",173,168792,"0.0-3.54-0.54","hepynrayw9vhhuu",427,"187.csv","","342.59999999962747","resources/trios/L4T4A3.jpg","39","restless",0.5,0.7,0.3,0.211576462469262,"true"
"image-keyboard-response",174,169198,"0.0-3.54-1.54","hepynrayw9vhhuu",427,"187.csv","","null","resources/maskTrios/BBA3.jpg","null","",NA,NA,NA,NA,""
"image-keyboard-response",175,170399,"0.0-3.54-2.54","hepynrayw9vhhuu",427,"187.csv","","null","resources/images/coin2.png","null","",NA,NA,NA,NA,""
"image-keyboard-response",176,171807,"0.0-3.55-0.55","hepynrayw9vhhuu",427,"187.csv","","1405.2000000011176","resources/trios/L4T2A3.jpg","37","restless",0.5,0.7,0.3,0.641742235890804,"false"
"image-keyboard-response",177,172209,"0.0-3.55-1.55","hepynrayw9vhhuu",427,"187.csv","","null","resources/maskTrios/L4BB.jpg","null","",NA,NA,NA,NA,""
"image-keyboard-response",178,173411,"0.0-3.55-2.55","hepynrayw9vhhuu",427,"187.csv","","null","resources/images/fishbone.png","null","",NA,NA,NA,NA,""
"image-keyboard-response",179,173681,"0.0-3.56-0.56","hepynrayw9vhhuu",427,"187.csv","","268.3999999985099","resources/trios/L4T4A2.jpg","38","restless",0.6,0.7,0.3,0.453082826834993,"true"
"image-keyboard-response",180,174083,"0.0-3.56-1.56","hepynrayw9vhhuu",427,"187.csv","","null","resources/maskTrios/BT4B.jpg","null","",NA,NA,NA,NA,""
"image-keyboard-response",181,175286,"0.0-3.56-2.56","hepynrayw9vhhuu",427,"187.csv","","null","resources/images/coin2.png","null","",NA,NA,NA,NA,""
"image-keyboard-response",182,175755,"0.0-3.57-0.57","hepynrayw9vhhuu",427,"187.csv","","466.69999999925494","resources/trios/L4T4A2.jpg","38","restless",0.6,0.7,0.3,0.140517432082788,"true"
"image-keyboard-response",183,176160,"0.0-3.57-1.57","hepynrayw9vhhuu",427,"187.csv","","null","resources/maskTrios/BT4B.jpg","null","",NA,NA,NA,NA,""
"image-keyboard-response",184,177363,"0.0-3.57-2.57","hepynrayw9vhhuu",427,"187.csv","","null","resources/images/coin2.png","null","",NA,NA,NA,NA,""
"image-keyboard-response",185,177837,"0.0-3.58-0.58","hepynrayw9vhhuu",427,"187.csv","","471.69999999925494","resources/trios/L1T2A3.jpg","38","restless",0.6,0.7,0.3,0.597430676013418,"true"
"image-keyboard-response",186,178239,"0.0-3.58-1.58","hepynrayw9vhhuu",427,"187.csv","","null","resources/maskTrios/BT2B.jpg","null","",NA,NA,NA,NA,""
"image-keyboard-response",187,179441,"0.0-3.58-2.58","hepynrayw9vhhuu",427,"187.csv","","null","resources/images/coin2.png","null","",NA,NA,NA,NA,""
"image-keyboard-response",188,179803,"0.0-3.59-0.59","hepynrayw9vhhuu",427,"187.csv","","359.80000000074506","resources/trios/L4T4A3.jpg","38","restless",0.6,0.8,0.3,0.226871907541166,"true"
"image-keyboard-response",189,180205,"0.0-3.59-1.59","hepynrayw9vhhuu",427,"187.csv","","null","resources/maskTrios/BT4B.jpg","null","",NA,NA,NA,NA,""
"image-keyboard-response",190,181408,"0.0-3.59-2.59","hepynrayw9vhhuu",427,"187.csv","","null","resources/images/coin2.png","null","",NA,NA,NA,NA,""
"image-keyboard-response",191,181856,"0.0-3.60-0.60","hepynrayw9vhhuu",427,"187.csv","","446.5","resources/trios/L4T4A2.jpg","38","restless",0.6,0.8,0.3,0.614668413527153,"true"
"image-keyboard-response",192,182258,"0.0-3.60-1.60","hepynrayw9vhhuu",427,"187.csv","","null","resources/maskTrios/BT4B.jpg","null","",NA,NA,NA,NA,""
"image-keyboard-response",193,183460,"0.0-3.60-2.60","hepynrayw9vhhuu",427,"187.csv","","null","resources/images/coin2.png","null","",NA,NA,NA,NA,""
"image-keyboard-response",194,183943,"0.0-3.61-0.61","hepynrayw9vhhuu",427,"187.csv","","481.19999999925494","resources/trios/L4T4A3.jpg","38","restless",0.5,0.8,0.2,0.169198928123558,"true"
"image-keyboard-response",195,184347,"0.0-3.61-1.61","hepynrayw9vhhuu",427,"187.csv","","null","resources/maskTrios/BT4B.jpg","null","",NA,NA,NA,NA,""
"image-keyboard-response",196,185553,"0.0-3.61-2.61","hepynrayw9vhhuu",427,"187.csv","","null","resources/images/coin2.png","null","",NA,NA,NA,NA,""
"image-keyboard-response",197,185588,"0.0-3.62-0.62","hepynrayw9vhhuu",427,"187.csv","","32.90000000037253","resources/trios/L1T2A2.jpg","38","restless",0.5,0.8,0.2,0.315312178634559,"true"
"image-keyboard-response",198,185991,"0.0-3.62-1.62","hepynrayw9vhhuu",427,"187.csv","","null","resources/maskTrios/BT2B.jpg","null","",NA,NA,NA,NA,""
"image-keyboard-response",199,187193,"0.0-3.62-2.62","hepynrayw9vhhuu",427,"187.csv","","null","resources/images/coin2.png","null","",NA,NA,NA,NA,""
"image-keyboard-response",200,187780,"0.0-3.63-0.63","hepynrayw9vhhuu",427,"187.csv","","585.8000000007451","resources/trios/L1T4A2.jpg","38","restless",0.5,0.8,0.2,0.790369262319764,"true"
"image-keyboard-response",201,188184,"0.0-3.63-1.63","hepynrayw9vhhuu",427,"187.csv","","null","resources/maskTrios/BT4B.jpg","null","",NA,NA,NA,NA,""
"image-keyboard-response",202,189386,"0.0-3.63-2.63","hepynrayw9vhhuu",427,"187.csv","","null","resources/images/coin2.png","null","",NA,NA,NA,NA,""
"image-keyboard-response",203,189595,"0.0-3.64-0.64","hepynrayw9vhhuu",427,"187.csv","","207.19999999925494","resources/trios/L4T4A2.jpg","38","restless",0.5,0.8,0.2,0.391544853595424,"true"
"image-keyboard-response",204,189997,"0.0-3.64-1.64","hepynrayw9vhhuu",427,"187.csv","","null","resources/maskTrios/BT4B.jpg","null","",NA,NA,NA,NA,""
"image-keyboard-response",205,191201,"0.0-3.64-2.64","hepynrayw9vhhuu",427,"187.csv","","null","resources/images/coin2.png","null","",NA,NA,NA,NA,""
"image-keyboard-response",206,191619,"0.0-3.65-0.65","hepynrayw9vhhuu",427,"187.csv","","415.1000000014901","resources/trios/L4T4A3.jpg","38","restless",0.5,0.8,0.3,0.073619804767683,"true"
"image-keyboard-response",207,192023,"0.0-3.65-1.65","hepynrayw9vhhuu",427,"187.csv","","null","resources/maskTrios/BT4B.jpg","null","",NA,NA,NA,NA,""
"image-keyboard-response",208,193227,"0.0-3.65-2.65","hepynrayw9vhhuu",427,"187.csv","","null","resources/images/coin2.png","null","",NA,NA,NA,NA,""
"image-keyboard-response",209,193554,"0.0-3.66-0.66","hepynrayw9vhhuu",427,"187.csv","","324.80000000074506","resources/trios/L4T4A2.jpg","38","restless",0.6,0.8,0.3,0.298083383024654,"true"
"image-keyboard-response",210,193956,"0.0-3.66-1.66","hepynrayw9vhhuu",427,"187.csv","","null","resources/maskTrios/BT4B.jpg","null","",NA,NA,NA,NA,""
"image-keyboard-response",211,195163,"0.0-3.66-2.66","hepynrayw9vhhuu",427,"187.csv","","null","resources/images/coin2.png","null","",NA,NA,NA,NA,""
"image-keyboard-response",212,195304,"0.0-3.67-0.67","hepynrayw9vhhuu",427,"187.csv","","139","resources/trios/L4T2A2.jpg","38","restless",0.6,0.8,0.3,0.00348340480445253,"true"
"image-keyboard-response",213,195707,"0.0-3.67-1.67","hepynrayw9vhhuu",427,"187.csv","","null","resources/maskTrios/BT2B.jpg","null","",NA,NA,NA,NA,""
"image-keyboard-response",214,196911,"0.0-3.67-2.67","hepynrayw9vhhuu",427,"187.csv","","null","resources/images/coin2.png","null","",NA,NA,NA,NA,""
"image-keyboard-response",215,197428,"0.0-3.68-0.68","hepynrayw9vhhuu",427,"187.csv","","514.6999999992549","resources/trios/L1T4A3.jpg","38","restless",0.6,0.7,0.2,0.148068473095892,"true"
"image-keyboard-response",216,197830,"0.0-3.68-1.68","hepynrayw9vhhuu",427,"187.csv","","null","resources/maskTrios/BT4B.jpg","null","",NA,NA,NA,NA,""
"image-keyboard-response",217,199036,"0.0-3.68-2.68","hepynrayw9vhhuu",427,"187.csv","","null","resources/images/coin2.png","null","",NA,NA,NA,NA,""
"image-keyboard-response",218,199869,"0.0-3.69-0.69","hepynrayw9vhhuu",427,"187.csv","","830.9000000003725","resources/trios/L4T4A2.jpg","38","restless",0.6,0.7,0.2,0.502682000910437,"true"
"image-keyboard-response",219,200272,"0.0-3.69-1.69","hepynrayw9vhhuu",427,"187.csv","","null","resources/maskTrios/BT4B.jpg","null","",NA,NA,NA,NA,""
"image-keyboard-response",220,201473,"0.0-3.69-2.69","hepynrayw9vhhuu",427,"187.csv","","null","resources/images/coin2.png","null","",NA,NA,NA,NA,""
"image-keyboard-response",221,201725,"0.0-3.70-0.70","hepynrayw9vhhuu",427,"187.csv","","249.39999999850988","resources/trios/L4T2A2.jpg","38","restless",0.6,0.7,0.2,0.584733097954552,"true"
"image-keyboard-response",222,202126,"0.0-3.70-1.70","hepynrayw9vhhuu",427,"187.csv","","null","resources/maskTrios/BT2B.jpg","null","",NA,NA,NA,NA,""
"image-keyboard-response",223,203328,"0.0-3.70-2.70","hepynrayw9vhhuu",427,"187.csv","","null","resources/images/coin2.png","null","",NA,NA,NA,NA,""
"image-keyboard-response",224,203523,"0.0-3.71-0.71","hepynrayw9vhhuu",427,"187.csv","","193.90000000037253","resources/trios/L4T4A2.jpg","38","restless",0.5,0.7,0.3,0.121552405355848,"true"
"image-keyboard-response",225,203927,"0.0-3.71-1.71","hepynrayw9vhhuu",427,"187.csv","","null","resources/maskTrios/BT4B.jpg","null","",NA,NA,NA,NA,""
"image-keyboard-response",226,205128,"0.0-3.71-2.71","hepynrayw9vhhuu",427,"187.csv","","null","resources/images/coin2.png","null","",NA,NA,NA,NA,""
"image-keyboard-response",227,205414,"0.0-3.72-0.72","hepynrayw9vhhuu",427,"187.csv","","283.30000000074506","resources/trios/L4T4A2.jpg","38","restless",0.5,0.7,0.4,0.724794776299189,"false"
"image-keyboard-response",228,205816,"0.0-3.72-1.72","hepynrayw9vhhuu",427,"187.csv","","null","resources/maskTrios/BT4B.jpg","null","",NA,NA,NA,NA,""
"image-keyboard-response",229,207018,"0.0-3.72-2.72","hepynrayw9vhhuu",427,"187.csv","","null","resources/images/fishbone.png","null","",NA,NA,NA,NA,""
"image-keyboard-response",230,207215,"0.0-3.73-0.73","hepynrayw9vhhuu",427,"187.csv","","194.80000000074506","resources/trios/L4T4A2.jpg","38","restless",0.5,0.7,0.4,0.472332262778825,"true"
"image-keyboard-response",231,207617,"0.0-3.73-1.73","hepynrayw9vhhuu",427,"187.csv","","null","resources/maskTrios/BT4B.jpg","null","",NA,NA,NA,NA,""
"image-keyboard-response",232,208824,"0.0-3.73-2.73","hepynrayw9vhhuu",427,"187.csv","","null","resources/images/coin2.png","null","",NA,NA,NA,NA,""
"image-keyboard-response",233,209146,"0.0-3.74-0.74","hepynrayw9vhhuu",427,"187.csv","","320.2999999988824","resources/trios/L4T2A2.jpg","38","restless",0.5,0.7,0.4,0.169058310898942,"true"
"image-keyboard-response",234,209552,"0.0-3.74-1.74","hepynrayw9vhhuu",427,"187.csv","","null","resources/maskTrios/BT2B.jpg","null","",NA,NA,NA,NA,""
"image-keyboard-response",235,210757,"0.0-3.74-2.74","hepynrayw9vhhuu",427,"187.csv","","null","resources/images/coin2.png","null","",NA,NA,NA,NA,""
"image-keyboard-response",236,211226,"0.0-3.75-0.75","hepynrayw9vhhuu",427,"187.csv","","467.40000000037253","resources/trios/L4T4A2.jpg","38","restless",0.5,0.7,0.4,0.0512050167466505,"true"
"image-keyboard-response",237,211628,"0.0-3.75-1.75","hepynrayw9vhhuu",427,"187.csv","","null","resources/maskTrios/BT4B.jpg","null","",NA,NA,NA,NA,""
"image-keyboard-response",238,212831,"0.0-3.75-2.75","hepynrayw9vhhuu",427,"187.csv","","null","resources/images/coin2.png","null","",NA,NA,NA,NA,""
"image-keyboard-response",239,213274,"0.0-3.76-0.76","hepynrayw9vhhuu",427,"187.csv","","440.59999999962747","resources/trios/L1T4A2.jpg","38","restless",0.5,0.7,0.4,0.838478044661199,"false"
"image-keyboard-response",240,213679,"0.0-3.76-1.76","hepynrayw9vhhuu",427,"187.csv","","null","resources/maskTrios/BT4B.jpg","null","",NA,NA,NA,NA,""
"image-keyboard-response",241,214884,"0.0-3.76-2.76","hepynrayw9vhhuu",427,"187.csv","","null","resources/images/fishbone.png","null","",NA,NA,NA,NA,""
"image-keyboard-response",242,215144,"0.0-3.77-0.77","hepynrayw9vhhuu",427,"187.csv","","258.1000000014901","resources/trios/L1T4A2.jpg","39","restless",0.5,0.7,0.4,0.862341939640227,"false"
"image-keyboard-response",243,215546,"0.0-3.77-1.77","hepynrayw9vhhuu",427,"187.csv","","null","resources/maskTrios/BBA2.jpg","null","",NA,NA,NA,NA,""
"image-keyboard-response",244,216748,"0.0-3.77-2.77","hepynrayw9vhhuu",427,"187.csv","","null","resources/images/fishbone.png","null","",NA,NA,NA,NA,""
"image-keyboard-response",245,217038,"0.0-3.78-0.78","hepynrayw9vhhuu",427,"187.csv","","288.5","resources/trios/L4T2A2.jpg","37","restless",0.5,0.7,0.4,0.977069331795424,"false"
"image-keyboard-response",246,217440,"0.0-3.78-1.78","hepynrayw9vhhuu",427,"187.csv","","null","resources/maskTrios/L4BB.jpg","null","",NA,NA,NA,NA,""
"image-keyboard-response",247,218644,"0.0-3.78-2.78","hepynrayw9vhhuu",427,"187.csv","","null","resources/images/fishbone.png","null","",NA,NA,NA,NA,""
"image-keyboard-response",248,218719,"0.0-3.79-0.79","hepynrayw9vhhuu",427,"187.csv","","73.5","resources/trios/L4T4A2.jpg","39","restless",0.5,0.7,0.4,0.657559476567206,"false"
"image-keyboard-response",249,219122,"0.0-3.79-1.79","hepynrayw9vhhuu",427,"187.csv","","null","resources/maskTrios/BBA2.jpg","null","",NA,NA,NA,NA,""
"image-keyboard-response",250,220324,"0.0-3.79-2.79","hepynrayw9vhhuu",427,"187.csv","","null","resources/images/fishbone.png","null","",NA,NA,NA,NA,""
"image-keyboard-response",251,220608,"0.0-3.80-0.80","hepynrayw9vhhuu",427,"187.csv","","282.2000000011176","resources/trios/L4T2A3.jpg","38","restless",0.5,0.7,0.4,0.493310362267092,"true"
"image-keyboard-response",252,221012,"0.0-3.80-1.80","hepynrayw9vhhuu",427,"187.csv","","null","resources/maskTrios/BT2B.jpg","null","",NA,NA,NA,NA,""
"image-keyboard-response",253,222218,"0.0-3.80-2.80","hepynrayw9vhhuu",427,"187.csv","","null","resources/images/coin2.png","null","",NA,NA,NA,NA,""
"image-keyboard-response",254,222569,"0.0-3.81-0.81","hepynrayw9vhhuu",427,"187.csv","","349.19999999925494","resources/trios/L4T4A2.jpg","38","restless",0.5,0.7,0.4,0.710543772234573,"false"
"image-keyboard-response",255,222973,"0.0-3.81-1.81","hepynrayw9vhhuu",427,"187.csv","","null","resources/maskTrios/BT4B.jpg","null","",NA,NA,NA,NA,""
"image-keyboard-response",256,224179,"0.0-3.81-2.81","hepynrayw9vhhuu",427,"187.csv","","null","resources/images/fishbone.png","null","",NA,NA,NA,NA,""
"image-keyboard-response",257,224469,"0.0-3.82-0.82","hepynrayw9vhhuu",427,"187.csv","","286.90000000037253","resources/trios/L1T4A2.jpg","39","restless",0.5,0.7,0.4,0.713068895303109,"false"
"image-keyboard-response",258,224871,"0.0-3.82-1.82","hepynrayw9vhhuu",427,"187.csv","","null","resources/maskTrios/BBA2.jpg","null","",NA,NA,NA,NA,""
"image-keyboard-response",259,226075,"0.0-3.82-2.82","hepynrayw9vhhuu",427,"187.csv","","null","resources/images/fishbone.png","null","",NA,NA,NA,NA,""
"image-keyboard-response",260,226307,"0.0-3.83-0.83","hepynrayw9vhhuu",427,"187.csv","","230.40000000037253","resources/trios/L1T2A2.jpg","37","restless",0.5,0.7,0.4,0.503903994019686,"false"
"image-keyboard-response",261,226713,"0.0-3.83-1.83","hepynrayw9vhhuu",427,"187.csv","","null","resources/maskTrios/L1BB.jpg","null","",NA,NA,NA,NA,""
"image-keyboard-response",262,227916,"0.0-3.83-2.83","hepynrayw9vhhuu",427,"187.csv","","null","resources/images/fishbone.png","null","",NA,NA,NA,NA,""
"image-keyboard-response",263,228161,"0.0-3.84-0.84","hepynrayw9vhhuu",427,"187.csv","","243","resources/trios/L4T2A3.jpg","38","restless",0.5,0.7,0.4,0.343206505589914,"true"
"image-keyboard-response",264,228564,"0.0-3.84-1.84","hepynrayw9vhhuu",427,"187.csv","","null","resources/maskTrios/BT2B.jpg","null","",NA,NA,NA,NA,""
"image-keyboard-response",265,229767,"0.0-3.84-2.84","hepynrayw9vhhuu",427,"187.csv","","null","resources/images/coin2.png","null","",NA,NA,NA,NA,""
"image-keyboard-response",266,230024,"0.0-3.85-0.85","hepynrayw9vhhuu",427,"187.csv","","255","resources/trios/L4T4A3.jpg","38","restless",0.5,0.7,0.4,0.854670211316899,"false"
"image-keyboard-response",267,230426,"0.0-3.85-1.85","hepynrayw9vhhuu",427,"187.csv","","null","resources/maskTrios/BT4B.jpg","null","",NA,NA,NA,NA,""
"image-keyboard-response",268,231628,"0.0-3.85-2.85","hepynrayw9vhhuu",427,"187.csv","","null","resources/images/fishbone.png","null","",NA,NA,NA,NA,""
"image-keyboard-response",269,231824,"0.0-3.86-0.86","hepynrayw9vhhuu",427,"187.csv","","194.5","resources/trios/L1T2A2.jpg","38","restless",0.5,0.7,0.4,0.129321559693897,"true"
"image-keyboard-response",270,232227,"0.0-3.86-1.86","hepynrayw9vhhuu",427,"187.csv","","null","resources/maskTrios/BT2B.jpg","null","",NA,NA,NA,NA,""
"image-keyboard-response",271,233432,"0.0-3.86-2.86","hepynrayw9vhhuu",427,"187.csv","","null","resources/images/coin2.png","null","",NA,NA,NA,NA,""
"image-keyboard-response",272,234915,"0.0-3.87-0.87","hepynrayw9vhhuu",427,"187.csv","","1481.699999999255","resources/trios/L4T2A3.jpg","38","restless",0.5,0.7,0.4,0.959222108517953,"false"
"image-keyboard-response",273,235317,"0.0-3.87-1.87","hepynrayw9vhhuu",427,"187.csv","","null","resources/maskTrios/BT2B.jpg","null","",NA,NA,NA,NA,""
"image-keyboard-response",274,236520,"0.0-3.87-2.87","hepynrayw9vhhuu",427,"187.csv","","null","resources/images/fishbone.png","null","",NA,NA,NA,NA,""
"image-keyboard-response",275,236761,"0.0-3.88-0.88","hepynrayw9vhhuu",427,"187.csv","","238.5","resources/trios/L4T4A2.jpg","38","restless",0.5,0.7,0.4,0.686433153937215,"true"
"image-keyboard-response",276,237162,"0.0-3.88-1.88","hepynrayw9vhhuu",427,"187.csv","","null","resources/maskTrios/BT4B.jpg","null","",NA,NA,NA,NA,""
"image-keyboard-response",277,238366,"0.0-3.88-2.88","hepynrayw9vhhuu",427,"187.csv","","null","resources/images/coin2.png","null","",NA,NA,NA,NA,""
"image-keyboard-response",278,238890,"0.0-3.89-0.89","hepynrayw9vhhuu",427,"187.csv","","522.5","resources/trios/L4T4A2.jpg","38","restless",0.5,0.7,0.4,0.958452778753235,"false"
"image-keyboard-response",279,239294,"0.0-3.89-1.89","hepynrayw9vhhuu",427,"187.csv","","null","resources/maskTrios/BT4B.jpg","null","",NA,NA,NA,NA,""
"image-keyboard-response",280,240499,"0.0-3.89-2.89","hepynrayw9vhhuu",427,"187.csv","","null","resources/images/fishbone.png","null","",NA,NA,NA,NA,""
"image-keyboard-response",281,241218,"0.0-3.90-0.90","hepynrayw9vhhuu",427,"187.csv","","717.1000000014901","resources/trios/L4T2A2.jpg","38","restless",0.5,0.7,0.4,0.360170610299237,"true"
"image-keyboard-response",282,241620,"0.0-3.90-1.90","hepynrayw9vhhuu",427,"187.csv","","null","resources/maskTrios/BT2B.jpg","null","",NA,NA,NA,NA,""
"image-keyboard-response",283,242825,"0.0-3.90-2.90","hepynrayw9vhhuu",427,"187.csv","","null","resources/images/coin2.png","null","",NA,NA,NA,NA,""
"image-keyboard-response",284,243934,"0.0-3.91-0.91","hepynrayw9vhhuu",427,"187.csv","","1106.5","resources/trios/L1T2A2.jpg","38","restless",0.5,0.8,0.4,0.78803439579988,"true"
"image-keyboard-response",285,244339,"0.0-3.91-1.91","hepynrayw9vhhuu",427,"187.csv","","null","resources/maskTrios/BT2B.jpg","null","",NA,NA,NA,NA,""
"image-keyboard-response",286,245541,"0.0-3.91-2.91","hepynrayw9vhhuu",427,"187.csv","","null","resources/images/coin2.png","null","",NA,NA,NA,NA,""
"image-keyboard-response",287,245572,"0.0-3.92-0.92","hepynrayw9vhhuu",427,"187.csv","","30","resources/trios/L4T4A3.jpg","38","restless",0.5,0.8,0.4,0.178665427426313,"true"
"image-keyboard-response",288,245975,"0.0-3.92-1.92","hepynrayw9vhhuu",427,"187.csv","","null","resources/maskTrios/BT4B.jpg","null","",NA,NA,NA,NA,""
"image-keyboard-response",289,247177,"0.0-3.92-2.92","hepynrayw9vhhuu",427,"187.csv","","null","resources/images/coin2.png","null","",NA,NA,NA,NA,""
"image-keyboard-response",290,247445,"0.0-3.93-0.93","hepynrayw9vhhuu",427,"187.csv","","265.8999999985099","resources/trios/L1T2A2.jpg","38","restless",0.5,0.8,0.4,0.246899749400138,"true"
"image-keyboard-response",291,247852,"0.0-3.93-1.93","hepynrayw9vhhuu",427,"187.csv","","null","resources/maskTrios/BT2B.jpg","null","",NA,NA,NA,NA,""
"image-keyboard-response",292,249055,"0.0-3.93-2.93","hepynrayw9vhhuu",427,"187.csv","","null","resources/images/coin2.png","null","",NA,NA,NA,NA,""
"image-keyboard-response",293,249297,"0.0-3.94-0.94","hepynrayw9vhhuu",427,"187.csv","","240.40000000037253","resources/trios/L1T4A2.jpg","38","restless",0.5,0.8,0.4,0.598876804951823,"true"
"image-keyboard-response",294,249701,"0.0-3.94-1.94","hepynrayw9vhhuu",427,"187.csv","","null","resources/maskTrios/BT4B.jpg","null","",NA,NA,NA,NA,""
"image-keyboard-response",295,250905,"0.0-3.94-2.94","hepynrayw9vhhuu",427,"187.csv","","null","resources/images/coin2.png","null","",NA,NA,NA,NA,""
"image-keyboard-response",296,251059,"0.0-3.95-0.95","hepynrayw9vhhuu",427,"187.csv","","152.40000000037253","resources/trios/L4T4A3.jpg","38","restless",0.6,0.8,0.4,0.0684340374188657,"true"
"image-keyboard-response",297,251462,"0.0-3.95-1.95","hepynrayw9vhhuu",427,"187.csv","","null","resources/maskTrios/BT4B.jpg","null","",NA,NA,NA,NA,""
"image-keyboard-response",298,252667,"0.0-3.95-2.95","hepynrayw9vhhuu",427,"187.csv","","null","resources/images/coin2.png","null","",NA,NA,NA,NA,""
"image-keyboard-response",299,253700,"0.0-3.96-0.96","hepynrayw9vhhuu",427,"187.csv","","1031.5","resources/trios/L4T2A3.jpg","38","restless",0.6,0.9,0.4,0.290502050012133,"true"
"image-keyboard-response",300,254102,"0.0-3.96-1.96","hepynrayw9vhhuu",427,"187.csv","","null","resources/maskTrios/BT2B.jpg","null","",NA,NA,NA,NA,""
"image-keyboard-response",301,255306,"0.0-3.96-2.96","hepynrayw9vhhuu",427,"187.csv","","null","resources/images/coin2.png","null","",NA,NA,NA,NA,""
"image-keyboard-response",302,255397,"0.0-3.97-0.97","hepynrayw9vhhuu",427,"187.csv","","89.90000000037253","resources/trios/L1T2A3.jpg","38","restless",0.6,0.8,0.4,0.230212973064966,"true"
"image-keyboard-response",303,255802,"0.0-3.97-1.97","hepynrayw9vhhuu",427,"187.csv","","null","resources/maskTrios/BT2B.jpg","null","",NA,NA,NA,NA,""
"image-keyboard-response",304,257005,"0.0-3.97-2.97","hepynrayw9vhhuu",427,"187.csv","","null","resources/images/coin2.png","null","",NA,NA,NA,NA,""
"image-keyboard-response",305,257225,"0.0-3.98-0.98","hepynrayw9vhhuu",427,"187.csv","","218.09999999962747","resources/trios/L1T2A2.jpg","38","restless",0.6,0.8,0.4,0.993866668163585,"false"
"image-keyboard-response",306,257627,"0.0-3.98-1.98","hepynrayw9vhhuu",427,"187.csv","","null","resources/maskTrios/BT2B.jpg","null","",NA,NA,NA,NA,""
"image-keyboard-response",307,258830,"0.0-3.98-2.98","hepynrayw9vhhuu",427,"187.csv","","null","resources/images/fishbone.png","null","",NA,NA,NA,NA,""
"image-keyboard-response",308,259087,"0.0-3.99-0.99","hepynrayw9vhhuu",427,"187.csv","","255.40000000037253","resources/trios/L1T4A2.jpg","39","restless",0.6,0.8,0.4,0.644036321893468,"false"
"image-keyboard-response",309,259492,"0.0-3.99-1.99","hepynrayw9vhhuu",427,"187.csv","","null","resources/maskTrios/BBA2.jpg","null","",NA,NA,NA,NA,""
"image-keyboard-response",310,260694,"0.0-3.99-2.99","hepynrayw9vhhuu",427,"187.csv","","null","resources/images/fishbone.png","null","",NA,NA,NA,NA,""
"image-keyboard-response",311,260900,"0.0-3.100-0.100","hepynrayw9vhhuu",427,"187.csv","","204","resources/trios/L1T2A3.jpg","37","restless",0.6,0.8,0.4,0.824896394740996,"false"
"image-keyboard-response",312,261304,"0.0-3.100-1.100","hepynrayw9vhhuu",427,"187.csv","","null","resources/maskTrios/L1BB.jpg","null","",NA,NA,NA,NA,""
"image-keyboard-response",313,262506,"0.0-3.100-2.100","hepynrayw9vhhuu",427,"187.csv","","null","resources/images/fishbone.png","null","",NA,NA,NA,NA,""
"image-keyboard-response",314,262711,"0.0-3.101-0.101","hepynrayw9vhhuu",427,"187.csv","","202.80000000074506","resources/trios/L1T4A3.jpg","39","restless",0.6,0.8,0.4,0.0383988133894768,"true"
"image-keyboard-response",315,263114,"0.0-3.101-1.101","hepynrayw9vhhuu",427,"187.csv","","null","resources/maskTrios/BBA3.jpg","null","",NA,NA,NA,NA,""
"image-keyboard-response",316,264319,"0.0-3.101-2.101","hepynrayw9vhhuu",427,"187.csv","","null","resources/images/coin2.png","null","",NA,NA,NA,NA,""
"image-keyboard-response",317,264583,"0.0-3.102-0.102","hepynrayw9vhhuu",427,"187.csv","","262","resources/trios/L1T2A2.jpg","39","restless",0.6,0.8,0.4,0.450488012811337,"false"
"image-keyboard-response",318,264985,"0.0-3.102-1.102","hepynrayw9vhhuu",427,"187.csv","","null","resources/maskTrios/BBA2.jpg","null","",NA,NA,NA,NA,""
"image-keyboard-response",319,266188,"0.0-3.102-2.102","hepynrayw9vhhuu",427,"187.csv","","null","resources/images/fishbone.png","null","",NA,NA,NA,NA,""
"image-keyboard-response",320,266430,"0.0-3.103-0.103","hepynrayw9vhhuu",427,"187.csv","","240.2999999988824","resources/trios/L4T2A3.jpg","39","restless",0.6,0.8,0.4,0.858696955565405,"false"
"image-keyboard-response",321,266833,"0.0-3.103-1.103","hepynrayw9vhhuu",427,"187.csv","","null","resources/maskTrios/BBA3.jpg","null","",NA,NA,NA,NA,""
"image-keyboard-response",322,268038,"0.0-3.103-2.103","hepynrayw9vhhuu",427,"187.csv","","null","resources/images/fishbone.png","null","",NA,NA,NA,NA,""
"image-keyboard-response",323,268172,"0.0-3.104-0.104","hepynrayw9vhhuu",427,"187.csv","","131.80000000074506","resources/trios/L4T2A2.jpg","39","restless",0.6,0.8,0.5,0.706961606852199,"false"
"image-keyboard-response",324,268578,"0.0-3.104-1.104","hepynrayw9vhhuu",427,"187.csv","","null","resources/maskTrios/BBA2.jpg","null","",NA,NA,NA,NA,""
"image-keyboard-response",325,269783,"0.0-3.104-2.104","hepynrayw9vhhuu",427,"187.csv","","null","resources/images/fishbone.png","null","",NA,NA,NA,NA,""
"image-keyboard-response",326,270194,"0.0-3.105-0.105","hepynrayw9vhhuu",427,"187.csv","","408.8999999985099","resources/trios/L4T4A2.jpg","39","restless",0.6,0.8,0.5,0.219014334969139,"true"
"image-keyboard-response",327,270595,"0.0-3.105-1.105","hepynrayw9vhhuu",427,"187.csv","","null","resources/maskTrios/BBA2.jpg","null","",NA,NA,NA,NA,""
"image-keyboard-response",328,271801,"0.0-3.105-2.105","hepynrayw9vhhuu",427,"187.csv","","null","resources/images/coin2.png","null","",NA,NA,NA,NA,""
"image-keyboard-response",329,272148,"0.0-3.106-0.106","hepynrayw9vhhuu",427,"187.csv","","345.30000000074506","resources/trios/L4T4A2.jpg","39","restless",0.6,0.8,0.5,0.548798128439496,"false"
"image-keyboard-response",330,272551,"0.0-3.106-1.106","hepynrayw9vhhuu",427,"187.csv","","null","resources/maskTrios/BBA2.jpg","null","",NA,NA,NA,NA,""
"image-keyboard-response",331,273755,"0.0-3.106-2.106","hepynrayw9vhhuu",427,"187.csv","","null","resources/images/fishbone.png","null","",NA,NA,NA,NA,""
"image-keyboard-response",332,274053,"0.0-3.107-0.107","hepynrayw9vhhuu",427,"187.csv","","296.7000000011176","resources/trios/L1T4A3.jpg","39","restless",0.6,0.8,0.5,0.19432186149548,"true"
"image-keyboard-response",333,274457,"0.0-3.107-1.107","hepynrayw9vhhuu",427,"187.csv","","null","resources/maskTrios/BBA3.jpg","null","",NA,NA,NA,NA,""
"image-keyboard-response",334,275660,"0.0-3.107-2.107","hepynrayw9vhhuu",427,"187.csv","","null","resources/images/coin2.png","null","",NA,NA,NA,NA,""
"image-keyboard-response",335,275829,"0.0-3.108-0.108","hepynrayw9vhhuu",427,"187.csv","","166.5","resources/trios/L1T2A3.jpg","39","restless",0.6,0.8,0.5,0.200492627272098,"true"
"image-keyboard-response",336,276235,"0.0-3.108-1.108","hepynrayw9vhhuu",427,"187.csv","","null","resources/maskTrios/BBA3.jpg","null","",NA,NA,NA,NA,""
"image-keyboard-response",337,277440,"0.0-3.108-2.108","hepynrayw9vhhuu",427,"187.csv","","null","resources/images/coin2.png","null","",NA,NA,NA,NA,""
"image-keyboard-response",338,277732,"0.0-3.109-0.109","hepynrayw9vhhuu",427,"187.csv","","290.3999999985099","resources/trios/L1T2A3.jpg","39","restless",0.6,0.8,0.5,0.713785351482152,"false"
"image-keyboard-response",339,278135,"0.0-3.109-1.109","hepynrayw9vhhuu",427,"187.csv","","null","resources/maskTrios/BBA3.jpg","null","",NA,NA,NA,NA,""
"image-keyboard-response",340,279336,"0.0-3.109-2.109","hepynrayw9vhhuu",427,"187.csv","","null","resources/images/fishbone.png","null","",NA,NA,NA,NA,""
"image-keyboard-response",341,279594,"0.0-3.110-0.110","hepynrayw9vhhuu",427,"187.csv","","255.60000000149012","resources/trios/L4T2A3.jpg","39","restless",0.6,0.8,0.5,0.626189054568313,"false"
"image-keyboard-response",342,279996,"0.0-3.110-1.110","hepynrayw9vhhuu",427,"187.csv","","null","resources/maskTrios/BBA3.jpg","null","",NA,NA,NA,NA,""
"image-keyboard-response",343,281198,"0.0-3.110-2.110","hepynrayw9vhhuu",427,"187.csv","","null","resources/images/fishbone.png","null","",NA,NA,NA,NA,""
"image-keyboard-response",344,281469,"0.0-3.111-0.111","hepynrayw9vhhuu",427,"187.csv","","268.8999999985099","resources/trios/L4T2A3.jpg","39","restless",0.6,0.8,0.4,0.513731210334513,"false"
"image-keyboard-response",345,281872,"0.0-3.111-1.111","hepynrayw9vhhuu",427,"187.csv","","null","resources/maskTrios/BBA3.jpg","null","",NA,NA,NA,NA,""
"image-keyboard-response",346,283074,"0.0-3.111-2.111","hepynrayw9vhhuu",427,"187.csv","","null","resources/images/fishbone.png","null","",NA,NA,NA,NA,""
"image-keyboard-response",347,284712,"0.0-3.112-0.112","hepynrayw9vhhuu",427,"187.csv","","1636.2000000011176","resources/trios/L4T4A2.jpg","37","restless",0.6,0.8,0.4,0.580567356171634,"true"
"image-keyboard-response",348,285114,"0.0-3.112-1.112","hepynrayw9vhhuu",427,"187.csv","","null","resources/maskTrios/L4BB.jpg","null","",NA,NA,NA,NA,""
"image-keyboard-response",349,286317,"0.0-3.112-2.112","hepynrayw9vhhuu",427,"187.csv","","null","resources/images/coin2.png","null","",NA,NA,NA,NA,""
"image-keyboard-response",350,286727,"0.0-3.113-0.113","hepynrayw9vhhuu",427,"187.csv","","408.7999999988824","resources/trios/L1T4A3.jpg","38","restless",0.5,0.8,0.4,0.817194232588341,"false"
"image-keyboard-response",351,287134,"0.0-3.113-1.113","hepynrayw9vhhuu",427,"187.csv","","null","resources/maskTrios/BT4B.jpg","null","",NA,NA,NA,NA,""
"image-keyboard-response",352,288340,"0.0-3.113-2.113","hepynrayw9vhhuu",427,"187.csv","","null","resources/images/fishbone.png","null","",NA,NA,NA,NA,""
"image-keyboard-response",353,288600,"0.0-3.114-0.114","hepynrayw9vhhuu",427,"187.csv","","258.6000000014901","resources/trios/L1T2A3.jpg","37","restless",0.5,0.8,0.4,0.325818957579488,"true"
"image-keyboard-response",354,289004,"0.0-3.114-1.114","hepynrayw9vhhuu",427,"187.csv","","null","resources/maskTrios/L1BB.jpg","null","",NA,NA,NA,NA,""
"image-keyboard-response",355,290208,"0.0-3.114-2.114","hepynrayw9vhhuu",427,"187.csv","","null","resources/images/coin2.png","null","",NA,NA,NA,NA,""
"image-keyboard-response",356,290490,"0.0-3.115-0.115","hepynrayw9vhhuu",427,"187.csv","","280.2999999988824","resources/trios/L1T4A2.jpg","37","restless",0.5,0.8,0.4,0.261462259440589,"true"
"image-keyboard-response",357,290894,"0.0-3.115-1.115","hepynrayw9vhhuu",427,"187.csv","","null","resources/maskTrios/L1BB.jpg","null","",NA,NA,NA,NA,""
"image-keyboard-response",358,292096,"0.0-3.115-2.115","hepynrayw9vhhuu",427,"187.csv","","null","resources/images/coin2.png","null","",NA,NA,NA,NA,""
"image-keyboard-response",359,292696,"0.0-3.116-0.116","hepynrayw9vhhuu",427,"187.csv","","597.6000000014901","resources/trios/L1T4A3.jpg","37","restless",0.5,0.8,0.4,0.356501124242806,"true"
"image-keyboard-response",360,293102,"0.0-3.116-1.116","hepynrayw9vhhuu",427,"187.csv","","null","resources/maskTrios/L1BB.jpg","null","",NA,NA,NA,NA,""
"image-keyboard-response",361,294307,"0.0-3.116-2.116","hepynrayw9vhhuu",427,"187.csv","","null","resources/images/coin2.png","null","",NA,NA,NA,NA,""
"image-keyboard-response",362,294571,"0.0-3.117-0.117","hepynrayw9vhhuu",427,"187.csv","","262","resources/trios/L1T4A3.jpg","37","restless",0.5,0.8,0.4,0.595972480728144,"false"
"image-keyboard-response",363,294974,"0.0-3.117-1.117","hepynrayw9vhhuu",427,"187.csv","","null","resources/maskTrios/L1BB.jpg","null","",NA,NA,NA,NA,""
"image-keyboard-response",364,296178,"0.0-3.117-2.117","hepynrayw9vhhuu",427,"187.csv","","null","resources/images/fishbone.png","null","",NA,NA,NA,NA,""
"image-keyboard-response",365,296343,"0.0-3.118-0.118","hepynrayw9vhhuu",427,"187.csv","","162.80000000074506","resources/trios/L4T2A2.jpg","37","restless",0.5,0.8,0.4,0.175732981685767,"true"
"image-keyboard-response",366,296744,"0.0-3.118-1.118","hepynrayw9vhhuu",427,"187.csv","","null","resources/maskTrios/L4BB.jpg","null","",NA,NA,NA,NA,""
"image-keyboard-response",367,297949,"0.0-3.118-2.118","hepynrayw9vhhuu",427,"187.csv","","null","resources/images/coin2.png","null","",NA,NA,NA,NA,""
"image-keyboard-response",368,298766,"0.0-3.119-0.119","hepynrayw9vhhuu",427,"187.csv","","815.9000000003725","resources/trios/L4T4A2.jpg","37","restless",0.5,0.8,0.4,0.278689929874686,"true"
"image-keyboard-response",369,299168,"0.0-3.119-1.119","hepynrayw9vhhuu",427,"187.csv","","null","resources/maskTrios/L4BB.jpg","null","",NA,NA,NA,NA,""
"image-keyboard-response",370,300371,"0.0-3.119-2.119","hepynrayw9vhhuu",427,"187.csv","","null","resources/images/coin2.png","null","",NA,NA,NA,NA,""
"image-keyboard-response",371,300593,"0.0-3.120-0.120","hepynrayw9vhhuu",427,"187.csv","","220","resources/trios/L4T2A3.jpg","37","restless",0.4,0.8,0.4,0.791416290491251,"false"
"image-keyboard-response",372,301000,"0.0-3.120-1.120","hepynrayw9vhhuu",427,"187.csv","","null","resources/maskTrios/L4BB.jpg","null","",NA,NA,NA,NA,""
"image-keyboard-response",373,302201,"0.0-3.120-2.120","hepynrayw9vhhuu",427,"187.csv","","null","resources/images/fishbone.png","null","",NA,NA,NA,NA,""
"image-keyboard-response",374,302541,"0.0-3.121-0.121","hepynrayw9vhhuu",427,"187.csv","","337.2000000011176","resources/trios/L4T2A3.jpg","39","restless",0.4,0.8,0.4,0.664240470924978,"false"
"image-keyboard-response",375,302942,"0.0-3.121-1.121","hepynrayw9vhhuu",427,"187.csv","","null","resources/maskTrios/BBA3.jpg","null","",NA,NA,NA,NA,""
"image-keyboard-response",376,304146,"0.0-3.121-2.121","hepynrayw9vhhuu",427,"187.csv","","null","resources/images/fishbone.png","null","",NA,NA,NA,NA,""
"image-keyboard-response",377,304446,"0.0-3.122-0.122","hepynrayw9vhhuu",427,"187.csv","","298.5","resources/trios/L4T4A3.jpg","38","restless",0.4,0.8,0.4,0.592902182973769,"true"
"image-keyboard-response",378,304851,"0.0-3.122-1.122","hepynrayw9vhhuu",427,"187.csv","","null","resources/maskTrios/BT4B.jpg","null","",NA,NA,NA,NA,""
"image-keyboard-response",379,306055,"0.0-3.122-2.122","hepynrayw9vhhuu",427,"187.csv","","null","resources/images/coin2.png","null","",NA,NA,NA,NA,""
"image-keyboard-response",380,306349,"0.0-3.123-0.123","hepynrayw9vhhuu",427,"187.csv","","292.40000000037253","resources/trios/L1T4A3.jpg","38","restless",0.4,0.8,0.4,0.634674001462542,"true"
"image-keyboard-response",381,306752,"0.0-3.123-1.123","hepynrayw9vhhuu",427,"187.csv","","null","resources/maskTrios/BT4B.jpg","null","",NA,NA,NA,NA,""
"image-keyboard-response",382,307954,"0.0-3.123-2.123","hepynrayw9vhhuu",427,"187.csv","","null","resources/images/coin2.png","null","",NA,NA,NA,NA,""
"image-keyboard-response",383,308179,"0.0-3.124-0.124","hepynrayw9vhhuu",427,"187.csv","","221.5","resources/trios/L1T4A3.jpg","38","restless",0.5,0.8,0.4,0.119232641322162,"true"
"image-keyboard-response",384,308581,"0.0-3.124-1.124","hepynrayw9vhhuu",427,"187.csv","","null","resources/maskTrios/BT4B.jpg","null","",NA,NA,NA,NA,""
"image-keyboard-response",385,309783,"0.0-3.124-2.124","hepynrayw9vhhuu",427,"187.csv","","null","resources/images/coin2.png","null","",NA,NA,NA,NA,""
"image-keyboard-response",386,310019,"0.0-3.125-0.125","hepynrayw9vhhuu",427,"187.csv","","233.60000000149012","resources/trios/L1T2A2.jpg","38","restless",0.5,0.8,0.4,0.0417496205496484,"true"
"image-keyboard-response",387,310425,"0.0-3.125-1.125","hepynrayw9vhhuu",427,"187.csv","","null","resources/maskTrios/BT2B.jpg","null","",NA,NA,NA,NA,""
"image-keyboard-response",388,311630,"0.0-3.125-2.125","hepynrayw9vhhuu",427,"187.csv","","null","resources/images/coin2.png","null","",NA,NA,NA,NA,""
"image-keyboard-response",389,311893,"0.0-3.126-0.126","hepynrayw9vhhuu",427,"187.csv","","261.09999999962747","resources/trios/L1T4A2.jpg","38","restless",0.5,0.8,0.4,0.943676057695984,"false"
"image-keyboard-response",390,312299,"0.0-3.126-1.126","hepynrayw9vhhuu",427,"187.csv","","null","resources/maskTrios/BT4B.jpg","null","",NA,NA,NA,NA,""
"image-keyboard-response",391,313503,"0.0-3.126-2.126","hepynrayw9vhhuu",427,"187.csv","","null","resources/images/fishbone.png","null","",NA,NA,NA,NA,""
"image-keyboard-response",392,313622,"0.0-3.127-0.127","hepynrayw9vhhuu",427,"187.csv","","117.69999999925494","resources/trios/L4T2A2.jpg","37","restless",0.5,0.8,0.4,0.476699970605494,"true"
"image-keyboard-response",393,314026,"0.0-3.127-1.127","hepynrayw9vhhuu",427,"187.csv","","null","resources/maskTrios/L4BB.jpg","null","",NA,NA,NA,NA,""
"image-keyboard-response",394,315228,"0.0-3.127-2.127","hepynrayw9vhhuu",427,"187.csv","","null","resources/images/coin2.png","null","",NA,NA,NA,NA,""
"image-keyboard-response",395,315444,"0.0-3.128-0.128","hepynrayw9vhhuu",427,"187.csv","","215.5","resources/trios/L1T2A3.jpg","37","restless",0.4,0.8,0.4,0.554786072937055,"false"
"image-keyboard-response",396,315850,"0.0-3.128-1.128","hepynrayw9vhhuu",427,"187.csv","","null","resources/maskTrios/L1BB.jpg","null","",NA,NA,NA,NA,""
"image-keyboard-response",397,317051,"0.0-3.128-2.128","hepynrayw9vhhuu",427,"187.csv","","null","resources/images/fishbone.png","null","",NA,NA,NA,NA,""
"image-keyboard-response",398,317265,"0.0-3.129-0.129","hepynrayw9vhhuu",427,"187.csv","","211.69999999925494","resources/trios/L4T2A3.jpg","39","restless",0.4,0.8,0.4,0.21751060597173,"true"
"image-keyboard-response",399,317669,"0.0-3.129-1.129","hepynrayw9vhhuu",427,"187.csv","","null","resources/maskTrios/BBA3.jpg","null","",NA,NA,NA,NA,""
"image-keyboard-response",400,318871,"0.0-3.129-2.129","hepynrayw9vhhuu",427,"187.csv","","null","resources/images/coin2.png","null","",NA,NA,NA,NA,""
"image-keyboard-response",401,319546,"0.0-3.130-0.130","hepynrayw9vhhuu",427,"187.csv","","673","resources/trios/L4T2A2.jpg","39","restless",0.4,0.8,0.4,0.872020276539098,"false"
"image-keyboard-response",402,319948,"0.0-3.130-1.130","hepynrayw9vhhuu",427,"187.csv","","null","resources/maskTrios/BBA2.jpg","null","",NA,NA,NA,NA,""
"image-keyboard-response",403,321152,"0.0-3.130-2.130","hepynrayw9vhhuu",427,"187.csv","","null","resources/images/fishbone.png","null","",NA,NA,NA,NA,""
"image-keyboard-response",404,321411,"0.0-3.131-0.131","hepynrayw9vhhuu",427,"187.csv","","257.19999999925494","resources/trios/L4T2A3.jpg","38","restless",0.4,0.8,0.4,0.971705047923215,"false"
"image-keyboard-response",405,321817,"0.0-3.131-1.131","hepynrayw9vhhuu",427,"187.csv","","null","resources/maskTrios/BT2B.jpg","null","",NA,NA,NA,NA,""
"image-keyboard-response",406,323019,"0.0-3.131-2.131","hepynrayw9vhhuu",427,"187.csv","","null","resources/images/fishbone.png","null","",NA,NA,NA,NA,""
"image-keyboard-response",407,323371,"0.0-3.132-0.132","hepynrayw9vhhuu",427,"187.csv","","350.5","resources/trios/L4T2A3.jpg","39","restless",0.4,0.8,0.4,0.443260681257288,"false"
"image-keyboard-response",408,323778,"0.0-3.132-1.132","hepynrayw9vhhuu",427,"187.csv","","null","resources/maskTrios/BBA3.jpg","null","",NA,NA,NA,NA,""
"image-keyboard-response",409,324983,"0.0-3.132-2.132","hepynrayw9vhhuu",427,"187.csv","","null","resources/images/fishbone.png","null","",NA,NA,NA,NA,""
"image-keyboard-response",410,325294,"0.0-3.133-0.133","hepynrayw9vhhuu",427,"187.csv","","308.90000000037253","resources/trios/L1T2A2.jpg","37","restless",0.4,0.8,0.4,0.508229113444133,"false"
"image-keyboard-response",411,325698,"0.0-3.133-1.133","hepynrayw9vhhuu",427,"187.csv","","null","resources/maskTrios/L1BB.jpg","null","",NA,NA,NA,NA,""
"image-keyboard-response",412,326900,"0.0-3.133-2.133","hepynrayw9vhhuu",427,"187.csv","","null","resources/images/fishbone.png","null","",NA,NA,NA,NA,""
"image-keyboard-response",413,327158,"0.0-3.134-0.134","hepynrayw9vhhuu",427,"187.csv","","257","resources/trios/L1T2A2.jpg","38","restless",0.4,0.8,0.5,0.969490686605355,"false"
"image-keyboard-response",414,327563,"0.0-3.134-1.134","hepynrayw9vhhuu",427,"187.csv","","null","resources/maskTrios/BT2B.jpg","null","",NA,NA,NA,NA,""
"image-keyboard-response",415,328768,"0.0-3.134-2.134","hepynrayw9vhhuu",427,"187.csv","","null","resources/images/fishbone.png","null","",NA,NA,NA,NA,""
"image-keyboard-response",416,328801,"0.0-3.135-0.135","hepynrayw9vhhuu",427,"187.csv","","30.5","resources/trios/L4T2A2.jpg","39","restless",0.4,0.8,0.5,0.873880573648347,"false"
"image-keyboard-response",417,329205,"0.0-3.135-1.135","hepynrayw9vhhuu",427,"187.csv","","null","resources/maskTrios/BBA2.jpg","null","",NA,NA,NA,NA,""
"image-keyboard-response",418,330407,"0.0-3.135-2.135","hepynrayw9vhhuu",427,"187.csv","","null","resources/images/fishbone.png","null","",NA,NA,NA,NA,""
"image-keyboard-response",419,330495,"0.0-3.136-0.136","hepynrayw9vhhuu",427,"187.csv","","86.30000000074506","resources/trios/L1T2A2.jpg","39","restless",0.4,0.8,0.5,0.207378958187678,"true"
"image-keyboard-response",420,330898,"0.0-3.136-1.136","hepynrayw9vhhuu",427,"187.csv","","null","resources/maskTrios/BBA2.jpg","null","",NA,NA,NA,NA,""
"image-keyboard-response",421,332101,"0.0-3.136-2.136","hepynrayw9vhhuu",427,"187.csv","","null","resources/images/coin2.png","null","",NA,NA,NA,NA,""
"image-keyboard-response",422,332369,"0.0-3.137-0.137","hepynrayw9vhhuu",427,"187.csv","","266.3999999985099","resources/trios/L1T2A2.jpg","39","restless",0.4,0.8,0.5,0.212646976678187,"true"
"image-keyboard-response",423,332774,"0.0-3.137-1.137","hepynrayw9vhhuu",427,"187.csv","","null","resources/maskTrios/BBA2.jpg","null","",NA,NA,NA,NA,""
"image-keyboard-response",424,333981,"0.0-3.137-2.137","hepynrayw9vhhuu",427,"187.csv","","null","resources/images/coin2.png","null","",NA,NA,NA,NA,""
"image-keyboard-response",425,334178,"0.0-3.138-0.138","hepynrayw9vhhuu",427,"187.csv","","195.30000000074506","resources/trios/L1T4A3.jpg","39","restless",0.4,0.8,0.5,0.155024922974334,"true"
"image-keyboard-response",426,334580,"0.0-3.138-1.138","hepynrayw9vhhuu",427,"187.csv","","null","resources/maskTrios/BBA3.jpg","null","",NA,NA,NA,NA,""
"image-keyboard-response",427,335782,"0.0-3.138-2.138","hepynrayw9vhhuu",427,"187.csv","","null","resources/images/coin2.png","null","",NA,NA,NA,NA,""
"image-keyboard-response",428,336564,"0.0-3.139-0.139","hepynrayw9vhhuu",427,"187.csv","","779","resources/trios/L4T2A2.jpg","39","restless",0.4,0.8,0.5,0.0913723114043552,"true"
"image-keyboard-response",429,336971,"0.0-3.139-1.139","hepynrayw9vhhuu",427,"187.csv","","null","resources/maskTrios/BBA2.jpg","null","",NA,NA,NA,NA,""
"image-keyboard-response",430,338175,"0.0-3.139-2.139","hepynrayw9vhhuu",427,"187.csv","","null","resources/images/coin2.png","null","",NA,NA,NA,NA,""
"image-keyboard-response",431,338202,"0.0-3.140-0.140","hepynrayw9vhhuu",427,"187.csv","","25.5","resources/trios/L1T4A3.jpg","39","restless",0.5,0.8,0.5,0.765595510348999,"false"
"image-keyboard-response",432,338610,"0.0-3.140-1.140","hepynrayw9vhhuu",427,"187.csv","","null","resources/maskTrios/BBA3.jpg","null","",NA,NA,NA,NA,""
"image-keyboard-response",433,339816,"0.0-3.140-2.140","hepynrayw9vhhuu",427,"187.csv","","null","resources/images/fishbone.png","null","",NA,NA,NA,NA,""
"image-keyboard-response",434,340076,"0.0-3.141-0.141","hepynrayw9vhhuu",427,"187.csv","","259.09999999962747","resources/trios/L4T2A2.jpg","39","restless",0.5,0.8,0.5,0.42692268933053,"true"
"image-keyboard-response",435,340478,"0.0-3.141-1.141","hepynrayw9vhhuu",427,"187.csv","","null","resources/maskTrios/BBA2.jpg","null","",NA,NA,NA,NA,""
"image-keyboard-response",436,341680,"0.0-3.141-2.141","hepynrayw9vhhuu",427,"187.csv","","null","resources/images/coin2.png","null","",NA,NA,NA,NA,""
"image-keyboard-response",437,342148,"0.0-3.142-0.142","hepynrayw9vhhuu",427,"187.csv","","466.7999999988824","resources/trios/L4T2A2.jpg","39","restless",0.5,0.8,0.5,0.357104012277162,"true"
"image-keyboard-response",438,342549,"0.0-3.142-1.142","hepynrayw9vhhuu",427,"187.csv","","null","resources/maskTrios/BBA2.jpg","null","",NA,NA,NA,NA,""
"image-keyboard-response",439,343752,"0.0-3.142-2.142","hepynrayw9vhhuu",427,"187.csv","","null","resources/images/coin2.png","null","",NA,NA,NA,NA,""
"image-keyboard-response",440,344096,"0.0-3.143-0.143","hepynrayw9vhhuu",427,"187.csv","","341.90000000037253","resources/trios/L1T4A2.jpg","39","restless",0.5,0.9,0.5,0.38592044268472,"true"
"image-keyboard-response",441,344501,"0.0-3.143-1.143","hepynrayw9vhhuu",427,"187.csv","","null","resources/maskTrios/BBA2.jpg","null","",NA,NA,NA,NA,""
"image-keyboard-response",442,345703,"0.0-3.143-2.143","hepynrayw9vhhuu",427,"187.csv","","null","resources/images/coin2.png","null","",NA,NA,NA,NA,""
"image-keyboard-response",443,345994,"0.0-3.144-0.144","hepynrayw9vhhuu",427,"187.csv","","290.19999999925494","resources/trios/L1T2A2.jpg","39","restless",0.5,0.9,0.5,0.311397078534896,"true"
"image-keyboard-response",444,346396,"0.0-3.144-1.144","hepynrayw9vhhuu",427,"187.csv","","null","resources/maskTrios/BBA2.jpg","null","",NA,NA,NA,NA,""
"image-keyboard-response",445,347598,"0.0-3.144-2.144","hepynrayw9vhhuu",427,"187.csv","","null","resources/images/coin2.png","null","",NA,NA,NA,NA,""
"image-keyboard-response",446,347642,"0.0-3.145-0.145","hepynrayw9vhhuu",427,"187.csv","","42.80000000074506","resources/trios/L4T2A3.jpg","39","restless",0.5,0.9,0.5,0.630907356712399,"false"
"image-keyboard-response",447,348044,"0.0-3.145-1.145","hepynrayw9vhhuu",427,"187.csv","","null","resources/maskTrios/BBA3.jpg","null","",NA,NA,NA,NA,""
"image-keyboard-response",448,349247,"0.0-3.145-2.145","hepynrayw9vhhuu",427,"187.csv","","null","resources/images/fishbone.png","null","",NA,NA,NA,NA,""
"image-keyboard-response",449,349318,"0.0-3.146-0.146","hepynrayw9vhhuu",427,"187.csv","","69.30000000074506","resources/trios/L4T4A3.jpg","37","restless",0.5,0.9,0.5,0.743443474101087,"false"
"image-keyboard-response",450,349719,"0.0-3.146-1.146","hepynrayw9vhhuu",427,"187.csv","","null","resources/maskTrios/L4BB.jpg","null","",NA,NA,NA,NA,""
"image-keyboard-response",451,350924,"0.0-3.146-2.146","hepynrayw9vhhuu",427,"187.csv","","null","resources/images/fishbone.png","null","",NA,NA,NA,NA,""
"image-keyboard-response",452,351006,"0.0-3.147-0.147","hepynrayw9vhhuu",427,"187.csv","","80.90000000037253","resources/trios/L4T4A3.jpg","38","restless",0.5,0.9,0.5,0.000248122903826253,"true"
"image-keyboard-response",453,351408,"0.0-3.147-1.147","hepynrayw9vhhuu",427,"187.csv","","null","resources/maskTrios/BT4B.jpg","null","",NA,NA,NA,NA,""
"image-keyboard-response",454,352609,"0.0-3.147-2.147","hepynrayw9vhhuu",427,"187.csv","","null","resources/images/coin2.png","null","",NA,NA,NA,NA,""
"image-keyboard-response",455,352868,"0.0-3.148-0.148","hepynrayw9vhhuu",427,"187.csv","","257.5","resources/trios/L4T2A2.jpg","38","restless",0.5,0.8,0.6,0.318268089870351,"true"
"image-keyboard-response",456,353270,"0.0-3.148-1.148","hepynrayw9vhhuu",427,"187.csv","","null","resources/maskTrios/BT2B.jpg","null","",NA,NA,NA,NA,""
"image-keyboard-response",457,354471,"0.0-3.148-2.148","hepynrayw9vhhuu",427,"187.csv","","null","resources/images/coin2.png","null","",NA,NA,NA,NA,""
"image-keyboard-response",458,355575,"0.0-3.149-0.149","hepynrayw9vhhuu",427,"187.csv","","1102.5999999996275","resources/trios/L4T4A3.jpg","38","restless",0.5,0.8,0.6,0.601947078761821,"true"
"image-keyboard-response",459,355982,"0.0-3.149-1.149","hepynrayw9vhhuu",427,"187.csv","","null","resources/maskTrios/BT4B.jpg","null","",NA,NA,NA,NA,""
"image-keyboard-response",460,357186,"0.0-3.149-2.149","hepynrayw9vhhuu",427,"187.csv","","null","resources/images/coin2.png","null","",NA,NA,NA,NA,""
"image-keyboard-response",461,357777,"0.0-3.150-0.150","hepynrayw9vhhuu",427,"187.csv","","589.5","resources/trios/L1T4A2.jpg","38","restless",0.5,0.7,0.6,0.241203403395811,"true"
"image-keyboard-response",462,358181,"0.0-3.150-1.150","hepynrayw9vhhuu",427,"187.csv","","null","resources/maskTrios/BT4B.jpg","null","",NA,NA,NA,NA,""
"image-keyboard-response",463,359383,"0.0-3.150-2.150","hepynrayw9vhhuu",427,"187.csv","","null","resources/images/coin2.png","null","",NA,NA,NA,NA,""
"image-keyboard-response",464,359599,"0.0-3.151-0.151","hepynrayw9vhhuu",427,"187.csv","","215.2999999988824","resources/trios/L1T2A3.jpg","38","restless",0.5,0.7,0.6,0.428725883247144,"true"
"image-keyboard-response",465,360005,"0.0-3.151-1.151","hepynrayw9vhhuu",427,"187.csv","","null","resources/maskTrios/BT2B.jpg","null","",NA,NA,NA,NA,""
"image-keyboard-response",466,361207,"0.0-3.151-2.151","hepynrayw9vhhuu",427,"187.csv","","null","resources/images/coin2.png","null","",NA,NA,NA,NA,""
"image-keyboard-response",467,362023,"0.0-3.152-0.152","hepynrayw9vhhuu",427,"187.csv","","814.1999999992549","resources/trios/L4T4A3.jpg","38","restless",0.5,0.7,0.6,0.145657852140272,"true"
"image-keyboard-response",468,362429,"0.0-3.152-1.152","hepynrayw9vhhuu",427,"187.csv","","null","resources/maskTrios/BT4B.jpg","null","",NA,NA,NA,NA,""
"image-keyboard-response",469,363633,"0.0-3.152-2.152","hepynrayw9vhhuu",427,"187.csv","","null","resources/images/coin2.png","null","",NA,NA,NA,NA,""
"image-keyboard-response",470,363854,"0.0-3.153-0.153","hepynrayw9vhhuu",427,"187.csv","","218.5","resources/trios/L4T2A2.jpg","38","restless",0.5,0.7,0.6,0.655840301872928,"true"
"image-keyboard-response",471,364260,"0.0-3.153-1.153","hepynrayw9vhhuu",427,"187.csv","","null","resources/maskTrios/BT2B.jpg","null","",NA,NA,NA,NA,""
"image-keyboard-response",472,365464,"0.0-3.153-2.153","hepynrayw9vhhuu",427,"187.csv","","null","resources/images/coin2.png","null","",NA,NA,NA,NA,""
"image-keyboard-response",473,365741,"0.0-3.154-0.154","hepynrayw9vhhuu",427,"187.csv","","275.09999999962747","resources/trios/L4T2A2.jpg","38","restless",0.5,0.6,0.6,0.700590815981323,"false"
"image-keyboard-response",474,366145,"0.0-3.154-1.154","hepynrayw9vhhuu",427,"187.csv","","null","resources/maskTrios/BT2B.jpg","null","",NA,NA,NA,NA,""
"image-keyboard-response",475,367348,"0.0-3.154-2.154","hepynrayw9vhhuu",427,"187.csv","","null","resources/images/fishbone.png","null","",NA,NA,NA,NA,""
"image-keyboard-response",476,367632,"0.0-3.155-0.155","hepynrayw9vhhuu",427,"187.csv","","281.5","resources/trios/L4T2A2.jpg","38","restless",0.5,0.6,0.6,0.637131301121,"false"
"image-keyboard-response",477,368038,"0.0-3.155-1.155","hepynrayw9vhhuu",427,"187.csv","","null","resources/maskTrios/BT2B.jpg","null","",NA,NA,NA,NA,""
"image-keyboard-response",478,369240,"0.0-3.155-2.155","hepynrayw9vhhuu",427,"187.csv","","null","resources/images/fishbone.png","null","",NA,NA,NA,NA,""
"image-keyboard-response",479,369705,"0.0-3.156-0.156","hepynrayw9vhhuu",427,"187.csv","","463","resources/trios/L4T2A3.jpg","38","restless",0.5,0.6,0.6,0.465384632634718,"true"
"image-keyboard-response",480,370111,"0.0-3.156-1.156","hepynrayw9vhhuu",427,"187.csv","","null","resources/maskTrios/BT2B.jpg","null","",NA,NA,NA,NA,""
"image-keyboard-response",481,371317,"0.0-3.156-2.156","hepynrayw9vhhuu",427,"187.csv","","null","resources/images/coin2.png","null","",NA,NA,NA,NA,""
"image-keyboard-response",482,371680,"0.0-3.157-0.157","hepynrayw9vhhuu",427,"187.csv","","360.90000000037253","resources/trios/L1T2A2.jpg","38","restless",0.5,0.6,0.7,0.0228435128311473,"true"
"image-keyboard-response",483,372081,"0.0-3.157-1.157","hepynrayw9vhhuu",427,"187.csv","","null","resources/maskTrios/BT2B.jpg","null","",NA,NA,NA,NA,""
"image-keyboard-response",484,373284,"0.0-3.157-2.157","hepynrayw9vhhuu",427,"187.csv","","null","resources/images/coin2.png","null","",NA,NA,NA,NA,""
"image-keyboard-response",485,373579,"0.0-3.158-0.158","hepynrayw9vhhuu",427,"187.csv","","293.7999999988824","resources/trios/L1T2A3.jpg","38","restless",0.4,0.6,0.7,0.149814983070205,"true"
"image-keyboard-response",486,373980,"0.0-3.158-1.158","hepynrayw9vhhuu",427,"187.csv","","null","resources/maskTrios/BT2B.jpg","null","",NA,NA,NA,NA,""
"image-keyboard-response",487,375183,"0.0-3.158-2.158","hepynrayw9vhhuu",427,"187.csv","","null","resources/images/coin2.png","null","",NA,NA,NA,NA,""
"image-keyboard-response",488,375316,"0.0-3.159-0.159","hepynrayw9vhhuu",427,"187.csv","","132.30000000074506","resources/trios/L4T4A2.jpg","38","restless",0.4,0.6,0.7,0.671852876098785,"false"
"image-keyboard-response",489,375719,"0.0-3.159-1.159","hepynrayw9vhhuu",427,"187.csv","","null","resources/maskTrios/BT4B.jpg","null","",NA,NA,NA,NA,""
"image-keyboard-response",490,376919,"0.0-3.159-2.159","hepynrayw9vhhuu",427,"187.csv","","null","resources/images/fishbone.png","null","",NA,NA,NA,NA,""
"image-keyboard-response",491,377172,"0.0-3.160-0.160","hepynrayw9vhhuu",427,"187.csv","","251.60000000149012","resources/trios/L1T2A3.jpg","39","restless",0.4,0.6,0.7,0.682103520579896,"true"
"image-keyboard-response",492,377573,"0.0-3.160-1.160","hepynrayw9vhhuu",427,"187.csv","","null","resources/maskTrios/BBA3.jpg","null","",NA,NA,NA,NA,""
"image-keyboard-response",493,378776,"0.0-3.160-2.160","hepynrayw9vhhuu",427,"187.csv","","null","resources/images/coin2.png","null","",NA,NA,NA,NA,""
"image-keyboard-response",494,379409,"0.0-3.161-0.161","hepynrayw9vhhuu",427,"187.csv","","631.2999999988824","resources/trios/L4T4A3.jpg","39","restless",0.4,0.5,0.7,0.284989739235902,"true"
"image-keyboard-response",495,379812,"0.0-3.161-1.161","hepynrayw9vhhuu",427,"187.csv","","null","resources/maskTrios/BBA3.jpg","null","",NA,NA,NA,NA,""
"image-keyboard-response",496,381015,"0.0-3.161-2.161","hepynrayw9vhhuu",427,"187.csv","","null","resources/images/coin2.png","null","",NA,NA,NA,NA,""
"image-keyboard-response",497,381572,"0.0-3.162-0.162","hepynrayw9vhhuu",427,"187.csv","","555.6999999992549","resources/trios/L4T4A3.jpg","39","restless",0.4,0.5,0.7,0.526818763205967,"true"
"image-keyboard-response",498,381973,"0.0-3.162-1.162","hepynrayw9vhhuu",427,"187.csv","","null","resources/maskTrios/BBA3.jpg","null","",NA,NA,NA,NA,""
"image-keyboard-response",499,383176,"0.0-3.162-2.162","hepynrayw9vhhuu",427,"187.csv","","null","resources/images/coin2.png","null","",NA,NA,NA,NA,""
"image-keyboard-response",500,383436,"0.0-3.163-0.163","hepynrayw9vhhuu",427,"187.csv","","259.40000000037253","resources/trios/L4T2A3.jpg","39","restless",0.4,0.5,0.7,0.705630499251198,"false"
"image-keyboard-response",501,383838,"0.0-3.163-1.163","hepynrayw9vhhuu",427,"187.csv","","null","resources/maskTrios/BBA3.jpg","null","",NA,NA,NA,NA,""
"image-keyboard-response",502,385039,"0.0-3.163-2.163","hepynrayw9vhhuu",427,"187.csv","","null","resources/images/fishbone.png","null","",NA,NA,NA,NA,""
"image-keyboard-response",503,385531,"0.0-3.164-0.164","hepynrayw9vhhuu",427,"187.csv","","491.40000000037253","resources/trios/L1T2A2.jpg","39","restless",0.3,0.5,0.8,0.132056907284342,"true"
"image-keyboard-response",504,385938,"0.0-3.164-1.164","hepynrayw9vhhuu",427,"187.csv","","null","resources/maskTrios/BBA2.jpg","null","",NA,NA,NA,NA,""
"image-keyboard-response",505,387143,"0.0-3.164-2.164","hepynrayw9vhhuu",427,"187.csv","","null","resources/images/coin2.png","null","",NA,NA,NA,NA,""
"image-keyboard-response",506,387714,"0.0-3.165-0.165","hepynrayw9vhhuu",427,"187.csv","","570.2000000011176","resources/trios/L4T4A3.jpg","39","restless",0.3,0.5,0.8,0.0155364252267518,"true"
"image-keyboard-response",507,388117,"0.0-3.165-1.165","hepynrayw9vhhuu",427,"187.csv","","null","resources/maskTrios/BBA3.jpg","null","",NA,NA,NA,NA,""
"image-keyboard-response",508,389319,"0.0-3.165-2.165","hepynrayw9vhhuu",427,"187.csv","","null","resources/images/coin2.png","null","",NA,NA,NA,NA,""
"image-keyboard-response",509,389591,"0.0-3.166-0.166","hepynrayw9vhhuu",427,"187.csv","","270.19999999925494","resources/trios/L1T2A3.jpg","39","restless",0.3,0.5,0.8,0.397065450617585,"true"
"image-keyboard-response",510,390000,"0.0-3.166-1.166","hepynrayw9vhhuu",427,"187.csv","","null","resources/maskTrios/BBA3.jpg","null","",NA,NA,NA,NA,""
"image-keyboard-response",511,391203,"0.0-3.166-2.166","hepynrayw9vhhuu",427,"187.csv","","null","resources/images/coin2.png","null","",NA,NA,NA,NA,""
"image-keyboard-response",512,391640,"0.0-3.167-0.167","hepynrayw9vhhuu",427,"187.csv","","434.7000000011176","resources/trios/L4T2A3.jpg","39","restless",0.3,0.5,0.8,0.382538144667065,"true"
"image-keyboard-response",513,392047,"0.0-3.167-1.167","hepynrayw9vhhuu",427,"187.csv","","null","resources/maskTrios/BBA3.jpg","null","",NA,NA,NA,NA,""
"image-keyboard-response",514,393250,"0.0-3.167-2.167","hepynrayw9vhhuu",427,"187.csv","","null","resources/images/coin2.png","null","",NA,NA,NA,NA,""
"image-keyboard-response",515,393914,"0.0-3.168-0.168","hepynrayw9vhhuu",427,"187.csv","","663.0999999996275","resources/trios/L1T4A2.jpg","39","restless",0.3,0.6,0.8,0.255572003439603,"true"
"image-keyboard-response",516,394318,"0.0-3.168-1.168","hepynrayw9vhhuu",427,"187.csv","","null","resources/maskTrios/BBA2.jpg","null","",NA,NA,NA,NA,""
"image-keyboard-response",517,395525,"0.0-3.168-2.168","hepynrayw9vhhuu",427,"187.csv","","null","resources/images/coin2.png","null","",NA,NA,NA,NA,""
"image-keyboard-response",518,395956,"0.0-3.169-0.169","hepynrayw9vhhuu",427,"187.csv","","429.6000000014901","resources/trios/L1T4A3.jpg","39","restless",0.3,0.6,0.8,0.300274051846348,"true"
"image-keyboard-response",519,396360,"0.0-3.169-1.169","hepynrayw9vhhuu",427,"187.csv","","null","resources/maskTrios/BBA3.jpg","null","",NA,NA,NA,NA,""
"image-keyboard-response",520,397563,"0.0-3.169-2.169","hepynrayw9vhhuu",427,"187.csv","","null","resources/images/coin2.png","null","",NA,NA,NA,NA,""
"image-keyboard-response",521,397732,"0.0-3.170-0.170","hepynrayw9vhhuu",427,"187.csv","","167.09999999962747","resources/trios/L1T4A3.jpg","39","restless",0.3,0.6,0.8,0.926936859298802,"false"
"image-keyboard-response",522,398138,"0.0-3.170-1.170","hepynrayw9vhhuu",427,"187.csv","","null","resources/maskTrios/BBA3.jpg","null","",NA,NA,NA,NA,""
"image-keyboard-response",523,399343,"0.0-3.170-2.170","hepynrayw9vhhuu",427,"187.csv","","null","resources/images/fishbone.png","null","",NA,NA,NA,NA,""
"image-keyboard-response",524,399665,"0.0-3.171-0.171","hepynrayw9vhhuu",427,"187.csv","","319.90000000037253","resources/trios/L4T2A3.jpg","37","restless",0.2,0.6,0.8,0.979865733221518,"false"
"image-keyboard-response",525,400074,"0.0-3.171-1.171","hepynrayw9vhhuu",427,"187.csv","","null","resources/maskTrios/L4BB.jpg","null","",NA,NA,NA,NA,""
"image-keyboard-response",526,401283,"0.0-3.171-2.171","hepynrayw9vhhuu",427,"187.csv","","null","resources/images/fishbone.png","null","",NA,NA,NA,NA,""
"image-keyboard-response",527,401315,"0.0-3.172-0.172","hepynrayw9vhhuu",427,"187.csv","","30.700000001117587","resources/trios/L4T2A3.jpg","38","restless",0.2,0.6,0.8,0.0174018700359508,"true"
"image-keyboard-response",528,401717,"0.0-3.172-1.172","hepynrayw9vhhuu",427,"187.csv","","null","resources/maskTrios/BT2B.jpg","null","",NA,NA,NA,NA,""
"image-keyboard-response",529,402924,"0.0-3.172-2.172","hepynrayw9vhhuu",427,"187.csv","","null","resources/images/coin2.png","null","",NA,NA,NA,NA,""
"image-keyboard-response",530,403473,"0.0-3.173-0.173","hepynrayw9vhhuu",427,"187.csv","","546.9000000003725","resources/trios/L1T4A3.jpg","38","restless",0.2,0.6,0.8,0.489379428442573,"true"
"image-keyboard-response",531,403877,"0.0-3.173-1.173","hepynrayw9vhhuu",427,"187.csv","","null","resources/maskTrios/BT4B.jpg","null","",NA,NA,NA,NA,""
"image-keyboard-response",532,405086,"0.0-3.173-2.173","hepynrayw9vhhuu",427,"187.csv","","null","resources/images/coin2.png","null","",NA,NA,NA,NA,""
"image-keyboard-response",533,405445,"0.0-3.174-0.174","hepynrayw9vhhuu",427,"187.csv","","356.09999999962747","resources/trios/L4T4A3.jpg","38","restless",0.3,0.6,0.8,0.855463555810408,"false"
"image-keyboard-response",534,405847,"0.0-3.174-1.174","hepynrayw9vhhuu",427,"187.csv","","null","resources/maskTrios/BT4B.jpg","null","",NA,NA,NA,NA,""
"image-keyboard-response",535,407049,"0.0-3.174-2.174","hepynrayw9vhhuu",427,"187.csv","","null","resources/images/fishbone.png","null","",NA,NA,NA,NA,""
"image-keyboard-response",536,407347,"0.0-3.175-0.175","hepynrayw9vhhuu",427,"187.csv","","296.5","resources/trios/L1T2A3.jpg","39","restless",0.3,0.5,0.8,0.911407972681707,"false"
"image-keyboard-response",537,407754,"0.0-3.175-1.175","hepynrayw9vhhuu",427,"187.csv","","null","resources/maskTrios/BBA3.jpg","null","",NA,NA,NA,NA,""
"image-keyboard-response",538,408960,"0.0-3.175-2.175","hepynrayw9vhhuu",427,"187.csv","","null","resources/images/fishbone.png","null","",NA,NA,NA,NA,""
"image-keyboard-response",539,409189,"0.0-3.176-0.176","hepynrayw9vhhuu",427,"187.csv","","226.7999999988824","resources/trios/L4T4A2.jpg","39","restless",0.3,0.5,0.8,0.58497721732334,"true"
"image-keyboard-response",540,409591,"0.0-3.176-1.176","hepynrayw9vhhuu",427,"187.csv","","null","resources/maskTrios/BBA2.jpg","null","",NA,NA,NA,NA,""
"image-keyboard-response",541,410795,"0.0-3.176-2.176","hepynrayw9vhhuu",427,"187.csv","","null","resources/images/coin2.png","null","",NA,NA,NA,NA,""
"image-keyboard-response",542,411059,"0.0-3.177-0.177","hepynrayw9vhhuu",427,"187.csv","","262","resources/trios/L4T2A3.jpg","39","restless",0.3,0.5,0.9,0.610990472582072,"true"
"image-keyboard-response",543,411466,"0.0-3.177-1.177","hepynrayw9vhhuu",427,"187.csv","","null","resources/maskTrios/BBA3.jpg","null","",NA,NA,NA,NA,""
"image-keyboard-response",544,412675,"0.0-3.177-2.177","hepynrayw9vhhuu",427,"187.csv","","null","resources/images/coin2.png","null","",NA,NA,NA,NA,""
"image-keyboard-response",545,413394,"0.0-3.178-0.178","hepynrayw9vhhuu",427,"187.csv","","717.6999999992549","resources/trios/L4T2A2.jpg","39","restless",0.3,0.5,0.9,0.6880019429523,"true"
"image-keyboard-response",546,413799,"0.0-3.178-1.178","hepynrayw9vhhuu",427,"187.csv","","null","resources/maskTrios/BBA2.jpg","null","",NA,NA,NA,NA,""
"image-keyboard-response",547,415008,"0.0-3.178-2.178","hepynrayw9vhhuu",427,"187.csv","","null","resources/images/coin2.png","null","",NA,NA,NA,NA,""
"image-keyboard-response",548,415502,"0.0-3.179-0.179","hepynrayw9vhhuu",427,"187.csv","","492","resources/trios/L4T2A3.jpg","39","restless",0.3,0.5,0.9,0.139038577598342,"true"
"image-keyboard-response",549,415908,"0.0-3.179-1.179","hepynrayw9vhhuu",427,"187.csv","","null","resources/maskTrios/BBA3.jpg","null","",NA,NA,NA,NA,""
"image-keyboard-response",550,417111,"0.0-3.179-2.179","hepynrayw9vhhuu",427,"187.csv","","null","resources/images/coin2.png","null","",NA,NA,NA,NA,""
"image-keyboard-response",551,417349,"0.0-3.180-0.180","hepynrayw9vhhuu",427,"187.csv","","236.09999999962747","resources/trios/L1T2A2.jpg","39","restless",0.3,0.5,0.9,0.660653068982368,"true"
"image-keyboard-response",552,417758,"0.0-3.180-1.180","hepynrayw9vhhuu",427,"187.csv","","null","resources/maskTrios/BBA2.jpg","null","",NA,NA,NA,NA,""
"image-keyboard-response",553,418960,"0.0-3.180-2.180","hepynrayw9vhhuu",427,"187.csv","","null","resources/images/coin2.png","null","",NA,NA,NA,NA,""
"image-keyboard-response",554,419826,"0.0-3.181-0.181","hepynrayw9vhhuu",427,"187.csv","","864.5","resources/trios/L1T4A2.jpg","39","restless",0.3,0.5,0.9,0.434675304836835,"true"
"image-keyboard-response",555,420235,"0.0-3.181-1.181","hepynrayw9vhhuu",427,"187.csv","","null","resources/maskTrios/BBA2.jpg","null","",NA,NA,NA,NA,""
"image-keyboard-response",556,421438,"0.0-3.181-2.181","hepynrayw9vhhuu",427,"187.csv","","null","resources/images/coin2.png","null","",NA,NA,NA,NA,""
"image-keyboard-response",557,422648,"0.0-3.182-0.182","hepynrayw9vhhuu",427,"187.csv","","1208","resources/trios/L4T2A2.jpg","39","restless",0.3,0.5,0.9,0.983207490054967,"false"
"image-keyboard-response",558,423049,"0.0-3.182-1.182","hepynrayw9vhhuu",427,"187.csv","","null","resources/maskTrios/BBA2.jpg","null","",NA,NA,NA,NA,""
"image-keyboard-response",559,424254,"0.0-3.182-2.182","hepynrayw9vhhuu",427,"187.csv","","null","resources/images/fishbone.png","null","",NA,NA,NA,NA,""
"image-keyboard-response",560,425080,"0.0-3.183-0.183","hepynrayw9vhhuu",427,"187.csv","","824.8000000007451","resources/trios/L4T4A3.jpg","37","restless",0.3,0.5,0.9,0.478709020693228,"false"
"image-keyboard-response",561,425487,"0.0-3.183-1.183","hepynrayw9vhhuu",427,"187.csv","","null","resources/maskTrios/L4BB.jpg","null","",NA,NA,NA,NA,""
"image-keyboard-response",562,426696,"0.0-3.183-2.183","hepynrayw9vhhuu",427,"187.csv","","null","resources/images/fishbone.png","null","",NA,NA,NA,NA,""
"image-keyboard-response",563,426996,"0.0-3.184-0.184","hepynrayw9vhhuu",427,"187.csv","","298.2999999988824","resources/trios/L4T4A3.jpg","38","restless",0.3,0.5,0.8,0.461869220239594,"true"
"image-keyboard-response",564,427405,"0.0-3.184-1.184","hepynrayw9vhhuu",427,"187.csv","","null","resources/maskTrios/BT4B.jpg","null","",NA,NA,NA,NA,""
"image-keyboard-response",565,428609,"0.0-3.184-2.184","hepynrayw9vhhuu",427,"187.csv","","null","resources/images/coin2.png","null","",NA,NA,NA,NA,""
"image-keyboard-response",566,428918,"0.0-3.185-0.185","hepynrayw9vhhuu",427,"187.csv","","306.3999999985099","resources/trios/L1T4A2.jpg","38","restless",0.3,0.5,0.8,0.944544420604927,"false"
"image-keyboard-response",567,429324,"0.0-3.185-1.185","hepynrayw9vhhuu",427,"187.csv","","null","resources/maskTrios/BT4B.jpg","null","",NA,NA,NA,NA,""
"image-keyboard-response",568,430531,"0.0-3.185-2.185","hepynrayw9vhhuu",427,"187.csv","","null","resources/images/fishbone.png","null","",NA,NA,NA,NA,""
"image-keyboard-response",569,430883,"0.0-3.186-0.186","hepynrayw9vhhuu",427,"187.csv","","350","resources/trios/L1T2A3.jpg","38","restless",0.3,0.5,0.7,0.268133365091183,"true"
"image-keyboard-response",570,431291,"0.0-3.186-1.186","hepynrayw9vhhuu",427,"187.csv","","null","resources/maskTrios/BT2B.jpg","null","",NA,NA,NA,NA,""
"image-keyboard-response",571,432500,"0.0-3.186-2.186","hepynrayw9vhhuu",427,"187.csv","","null","resources/images/coin2.png","null","",NA,NA,NA,NA,""
"image-keyboard-response",572,434443,"0.0-3.187-0.187","hepynrayw9vhhuu",427,"187.csv","","1941.3999999985099","resources/trios/L4T2A3.jpg","38","restless",0.4,0.5,0.7,0.462572061210964,"true"
"image-keyboard-response",573,434845,"0.0-3.187-1.187","hepynrayw9vhhuu",427,"187.csv","","null","resources/maskTrios/BT2B.jpg","null","",NA,NA,NA,NA,""
"image-keyboard-response",574,436049,"0.0-3.187-2.187","hepynrayw9vhhuu",427,"187.csv","","null","resources/images/coin2.png","null","",NA,NA,NA,NA,""
"image-keyboard-response",575,436421,"0.0-3.188-0.188","hepynrayw9vhhuu",427,"187.csv","","370.59999999962747","resources/trios/L1T2A2.jpg","38","restless",0.4,0.5,0.7,0.245284611642399,"true"
"image-keyboard-response",576,436827,"0.0-3.188-1.188","hepynrayw9vhhuu",427,"187.csv","","null","resources/maskTrios/BT2B.jpg","null","",NA,NA,NA,NA,""
"image-keyboard-response",577,438034,"0.0-3.188-2.188","hepynrayw9vhhuu",427,"187.csv","","null","resources/images/coin2.png","null","",NA,NA,NA,NA,""
"image-keyboard-response",578,438327,"0.0-3.189-0.189","hepynrayw9vhhuu",427,"187.csv","","291.5","resources/trios/L1T4A2.jpg","38","restless",0.4,0.5,0.7,0.0362775627231029,"true"
"image-keyboard-response",579,438736,"0.0-3.189-1.189","hepynrayw9vhhuu",427,"187.csv","","null","resources/maskTrios/BT4B.jpg","null","",NA,NA,NA,NA,""
"image-keyboard-response",580,439945,"0.0-3.189-2.189","hepynrayw9vhhuu",427,"187.csv","","null","resources/images/coin2.png","null","",NA,NA,NA,NA,""
"image-keyboard-response",581,440236,"0.0-3.190-0.190","hepynrayw9vhhuu",427,"187.csv","","288.80000000074506","resources/trios/L1T2A2.jpg","38","restless",0.4,0.4,0.7,0.927105282116299,"false"
"image-keyboard-response",582,440641,"0.0-3.190-1.190","hepynrayw9vhhuu",427,"187.csv","","null","resources/maskTrios/BT2B.jpg","null","",NA,NA,NA,NA,""
"image-keyboard-response",583,441845,"0.0-3.190-2.190","hepynrayw9vhhuu",427,"187.csv","","null","resources/images/fishbone.png","null","",NA,NA,NA,NA,""
"image-keyboard-response",584,442101,"0.0-3.191-0.191","hepynrayw9vhhuu",427,"187.csv","","254.30000000074506","resources/trios/L1T4A3.jpg","38","restless",0.4,0.4,0.7,0.625129823891824,"false"
"image-keyboard-response",585,442505,"0.0-3.191-1.191","hepynrayw9vhhuu",427,"187.csv","","null","resources/maskTrios/BT4B.jpg","null","",NA,NA,NA,NA,""
"image-keyboard-response",586,443707,"0.0-3.191-2.191","hepynrayw9vhhuu",427,"187.csv","","null","resources/images/fishbone.png","null","",NA,NA,NA,NA,""
"image-keyboard-response",587,443969,"0.0-3.192-0.192","hepynrayw9vhhuu",427,"187.csv","","259.2000000011176","resources/trios/L4T2A3.jpg","38","restless",0.4,0.3,0.7,0.549522238364812,"false"
"image-keyboard-response",588,444375,"0.0-3.192-1.192","hepynrayw9vhhuu",427,"187.csv","","null","resources/maskTrios/BT2B.jpg","null","",NA,NA,NA,NA,""
"image-keyboard-response",589,445581,"0.0-3.192-2.192","hepynrayw9vhhuu",427,"187.csv","","null","resources/images/fishbone.png","null","",NA,NA,NA,NA,""
"image-keyboard-response",590,445773,"0.0-3.193-0.193","hepynrayw9vhhuu",427,"187.csv","","191.09999999962747","resources/trios/L1T4A3.jpg","38","restless",0.4,0.3,0.7,0.968022364761025,"false"
"image-keyboard-response",591,446180,"0.0-3.193-1.193","hepynrayw9vhhuu",427,"187.csv","","null","resources/maskTrios/BT4B.jpg","null","",NA,NA,NA,NA,""
"image-keyboard-response",592,447389,"0.0-3.193-2.193","hepynrayw9vhhuu",427,"187.csv","","null","resources/images/fishbone.png","null","",NA,NA,NA,NA,""
"image-keyboard-response",593,447709,"0.0-3.194-0.194","hepynrayw9vhhuu",427,"187.csv","","318.40000000037253","resources/trios/L1T4A2.jpg","38","restless",0.4,0.3,0.7,0.104779312680718,"true"
"image-keyboard-response",594,448114,"0.0-3.194-1.194","hepynrayw9vhhuu",427,"187.csv","","null","resources/maskTrios/BT4B.jpg","null","",NA,NA,NA,NA,""
"image-keyboard-response",595,449321,"0.0-3.194-2.194","hepynrayw9vhhuu",427,"187.csv","","null","resources/images/coin2.png","null","",NA,NA,NA,NA,""
"image-keyboard-response",596,449648,"0.0-3.195-0.195","hepynrayw9vhhuu",427,"187.csv","","325.2999999988824","resources/trios/L1T2A2.jpg","38","restless",0.5,0.3,0.7,0.102452894008761,"true"
"image-keyboard-response",597,450050,"0.0-3.195-1.195","hepynrayw9vhhuu",427,"187.csv","","null","resources/maskTrios/BT2B.jpg","null","",NA,NA,NA,NA,""
"image-keyboard-response",598,451257,"0.0-3.195-2.195","hepynrayw9vhhuu",427,"187.csv","","null","resources/images/coin2.png","null","",NA,NA,NA,NA,""
"image-keyboard-response",599,451461,"0.0-3.196-0.196","hepynrayw9vhhuu",427,"187.csv","","202.10000000149012","resources/trios/L4T4A3.jpg","38","restless",0.5,0.3,0.7,0.897531527664473,"false"
"image-keyboard-response",600,451868,"0.0-3.196-1.196","hepynrayw9vhhuu",427,"187.csv","","null","resources/maskTrios/BT4B.jpg","null","",NA,NA,NA,NA,""
"image-keyboard-response",601,453077,"0.0-3.196-2.196","hepynrayw9vhhuu",427,"187.csv","","null","resources/images/fishbone.png","null","",NA,NA,NA,NA,""
"image-keyboard-response",602,453240,"0.0-3.197-0.197","hepynrayw9vhhuu",427,"187.csv","","161.09999999962747","resources/trios/L4T2A3.jpg","39","restless",0.5,0.3,0.7,0.621946096034868,"true"
"image-keyboard-response",603,453646,"0.0-3.197-1.197","hepynrayw9vhhuu",427,"187.csv","","null","resources/maskTrios/BBA3.jpg","null","",NA,NA,NA,NA,""
"image-keyboard-response",604,454849,"0.0-3.197-2.197","hepynrayw9vhhuu",427,"187.csv","","null","resources/images/coin2.png","null","",NA,NA,NA,NA,""
"image-keyboard-response",605,455052,"0.0-3.198-0.198","hepynrayw9vhhuu",427,"187.csv","","201.5","resources/trios/L4T2A3.jpg","39","restless",0.5,0.3,0.7,0.289612806403911,"true"
"image-keyboard-response",606,455458,"0.0-3.198-1.198","hepynrayw9vhhuu",427,"187.csv","","null","resources/maskTrios/BBA3.jpg","null","",NA,NA,NA,NA,""
"image-keyboard-response",607,456661,"0.0-3.198-2.198","hepynrayw9vhhuu",427,"187.csv","","null","resources/images/coin2.png","null","",NA,NA,NA,NA,""
