"trial_type","trial_index","time_elapsed","internal_node_id","subject","participantCode","walkNumber","success","rt","stimulus","key_press","test_part","leftProb","midProb","rightProb","generatedNum","correct"
"pavlovia",0,1274,"0.0-0.0","qdaoj19kju8x1aa",503,"12.csv","","","","","",NA,NA,NA,NA,""
"fullscreen",1,5248,"0.0-1.0","qdaoj19kju8x1aa",503,"12.csv","true","","","","",NA,NA,NA,NA,""
"html-keyboard-response",2,18118,"0.0-2.0-0.0","qdaoj19kju8x1aa",503,"12.csv","","12868.200000017881","<p><font size='6'>Arrrgh!</p></font><p>Can you be the best pirate? Try to find lots of gold! But beware, some islands have more gold than others, and over time, the island with the most gold may change. Can YOU figure it out? </p><font size='6'>GOOD LUCK, CAPTAIN!!!</font><p>Press any key to begin</p>","65","",NA,NA,NA,NA,""
"image-keyboard-response",3,21121,"0.0-2.0-1.0","qdaoj19kju8x1aa",503,"12.csv","","null","resources/image_sets/111.png","null","",NA,NA,NA,NA,""
"image-keyboard-response",4,27032,"0.0-2.0-2.0","qdaoj19kju8x1aa",503,"12.csv","","5908.5","resources/image_sets/left_highlight.png","37","",NA,NA,NA,NA,""
"image-keyboard-response",5,32645,"0.0-2.0-3.0","qdaoj19kju8x1aa",503,"12.csv","","5611.399999976158","resources/image_sets/mid_highlight.png","38","",NA,NA,NA,NA,""
"image-keyboard-response",6,36325,"0.0-2.0-4.0","qdaoj19kju8x1aa",503,"12.csv","","3679","resources/image_sets/right_highlight.png","39","",NA,NA,NA,NA,""
"image-keyboard-response",7,41582,"0.0-2.0-5.0","qdaoj19kju8x1aa",503,"12.csv","","5255.9000000059605","resources/image_sets/111.png","13","",NA,NA,NA,NA,""
"image-keyboard-response",8,44919,"0.0-2.0-6.0","qdaoj19kju8x1aa",503,"12.csv","","3336.0999999940395","resources/images/coin2.png","13","",NA,NA,NA,NA,""
"image-keyboard-response",9,47448,"0.0-2.0-7.0","qdaoj19kju8x1aa",503,"12.csv","","2528.4000000059605","resources/images/fishbone.png","13","",NA,NA,NA,NA,""
"html-keyboard-response",10,58025,"0.0-2.0-8.0","qdaoj19kju8x1aa",503,"12.csv","","10577.100000023842","<p>Your first journey will be a long one, but you will get a well deserved break at the end</p><p>After the break you will have four more journeys, but each will be much shorter than the first, and you will have breaks in between each</p><p>Press Enter to begin</p>","13","",NA,NA,NA,NA,""
"image-keyboard-response",11,62713,"0.0-3.0-0.0","qdaoj19kju8x1aa",503,"12.csv","","4686.5999999940395","resources/trios/L1T1A2.jpg","38","restless",0.7,0.9,0.3,0.0727540845914842,"true"
"image-keyboard-response",12,63122,"0.0-3.0-1.0","qdaoj19kju8x1aa",503,"12.csv","","null","resources/maskTrios/BT1B.jpg","null","",NA,NA,NA,NA,""
"image-keyboard-response",13,64340,"0.0-3.0-2.0","qdaoj19kju8x1aa",503,"12.csv","","null","resources/images/coin2.png","null","",NA,NA,NA,NA,""
"image-keyboard-response",14,68177,"0.0-3.1-0.1","qdaoj19kju8x1aa",503,"12.csv","","3836.0999999940395","resources/trios/L4T4A3.jpg","38","restless",0.7,0.9,0.3,0.238967623493345,"true"
"image-keyboard-response",15,68583,"0.0-3.1-1.1","qdaoj19kju8x1aa",503,"12.csv","","null","resources/maskTrios/BT4B.jpg","null","",NA,NA,NA,NA,""
"image-keyboard-response",16,69789,"0.0-3.1-2.1","qdaoj19kju8x1aa",503,"12.csv","","null","resources/images/coin2.png","null","",NA,NA,NA,NA,""
"image-keyboard-response",17,72042,"0.0-3.2-0.2","qdaoj19kju8x1aa",503,"12.csv","","2251.9000000059605","resources/trios/L1T1A3.jpg","38","restless",0.7,0.9,0.3,0.758354389075053,"true"
"image-keyboard-response",18,72456,"0.0-3.2-1.2","qdaoj19kju8x1aa",503,"12.csv","","null","resources/maskTrios/BT1B.jpg","null","",NA,NA,NA,NA,""
"image-keyboard-response",19,73671,"0.0-3.2-2.2","qdaoj19kju8x1aa",503,"12.csv","","null","resources/images/coin2.png","null","",NA,NA,NA,NA,""
"image-keyboard-response",20,77312,"0.0-3.3-0.3","qdaoj19kju8x1aa",503,"12.csv","","3640.199999988079","resources/trios/L4T4A2.jpg","38","restless",0.7,0.9,0.3,0.686614847002825,"true"
"image-keyboard-response",21,77716,"0.0-3.3-1.3","qdaoj19kju8x1aa",503,"12.csv","","null","resources/maskTrios/BT4B.jpg","null","",NA,NA,NA,NA,""
"image-keyboard-response",22,78934,"0.0-3.3-2.3","qdaoj19kju8x1aa",503,"12.csv","","null","resources/images/coin2.png","null","",NA,NA,NA,NA,""
"image-keyboard-response",23,80973,"0.0-3.4-0.4","qdaoj19kju8x1aa",503,"12.csv","","2038","resources/trios/L4T1A3.jpg","38","restless",0.8,0.8,0.2,0.201585445670001,"true"
"image-keyboard-response",24,81380,"0.0-3.4-1.4","qdaoj19kju8x1aa",503,"12.csv","","null","resources/maskTrios/BT1B.jpg","null","",NA,NA,NA,NA,""
"image-keyboard-response",25,82583,"0.0-3.4-2.4","qdaoj19kju8x1aa",503,"12.csv","","null","resources/images/coin2.png","null","",NA,NA,NA,NA,""
"image-keyboard-response",26,84519,"0.0-3.5-0.5","qdaoj19kju8x1aa",503,"12.csv","","1934.7000000178814","resources/trios/L1T1A2.jpg","38","restless",0.8,0.7,0.2,0.583871344610985,"true"
"image-keyboard-response",27,84926,"0.0-3.5-1.5","qdaoj19kju8x1aa",503,"12.csv","","null","resources/maskTrios/BT1B.jpg","null","",NA,NA,NA,NA,""
"image-keyboard-response",28,86130,"0.0-3.5-2.5","qdaoj19kju8x1aa",503,"12.csv","","null","resources/images/coin2.png","null","",NA,NA,NA,NA,""
"image-keyboard-response",29,87730,"0.0-3.6-0.6","qdaoj19kju8x1aa",503,"12.csv","","1598.5999999940395","resources/trios/L4T4A2.jpg","38","restless",0.8,0.7,0.2,0.924355600883914,"false"
"image-keyboard-response",30,88141,"0.0-3.6-1.6","qdaoj19kju8x1aa",503,"12.csv","","null","resources/maskTrios/BT4B.jpg","null","",NA,NA,NA,NA,""
"image-keyboard-response",31,89343,"0.0-3.6-2.6","qdaoj19kju8x1aa",503,"12.csv","","null","resources/images/fishbone.png","null","",NA,NA,NA,NA,""
"image-keyboard-response",32,90904,"0.0-3.7-0.7","qdaoj19kju8x1aa",503,"12.csv","","1560.300000011921","resources/trios/L1T4A2.jpg","38","restless",0.8,0.7,0.2,0.792272572589363,"false"
"image-keyboard-response",33,91317,"0.0-3.7-1.7","qdaoj19kju8x1aa",503,"12.csv","","null","resources/maskTrios/BT4B.jpg","null","",NA,NA,NA,NA,""
"image-keyboard-response",34,92521,"0.0-3.7-2.7","qdaoj19kju8x1aa",503,"12.csv","","null","resources/images/fishbone.png","null","",NA,NA,NA,NA,""
"image-keyboard-response",35,94094,"0.0-3.8-0.8","qdaoj19kju8x1aa",503,"12.csv","","1570.7999999821186","resources/trios/L4T1A2.jpg","37","restless",0.7,0.7,0.2,0.0719173210443109,"true"
"image-keyboard-response",36,94511,"0.0-3.8-1.8","qdaoj19kju8x1aa",503,"12.csv","","null","resources/maskTrios/L4BB.jpg","null","",NA,NA,NA,NA,""
"image-keyboard-response",37,95724,"0.0-3.8-2.8","qdaoj19kju8x1aa",503,"12.csv","","null","resources/images/coin2.png","null","",NA,NA,NA,NA,""
"image-keyboard-response",38,96959,"0.0-3.9-0.9","qdaoj19kju8x1aa",503,"12.csv","","1234.199999988079","resources/trios/L4T1A3.jpg","37","restless",0.7,0.7,0.2,0.179497479396998,"true"
"image-keyboard-response",39,97367,"0.0-3.9-1.9","qdaoj19kju8x1aa",503,"12.csv","","null","resources/maskTrios/L4BB.jpg","null","",NA,NA,NA,NA,""
"image-keyboard-response",40,98573,"0.0-3.9-2.9","qdaoj19kju8x1aa",503,"12.csv","","null","resources/images/coin2.png","null","",NA,NA,NA,NA,""
"image-keyboard-response",41,99446,"0.0-3.10-0.10","qdaoj19kju8x1aa",503,"12.csv","","871.1000000238419","resources/trios/L1T1A3.jpg","37","restless",0.7,0.7,0.3,0.241495414682361,"true"
"image-keyboard-response",42,99856,"0.0-3.10-1.10","qdaoj19kju8x1aa",503,"12.csv","","null","resources/maskTrios/L1BB.jpg","null","",NA,NA,NA,NA,""
"image-keyboard-response",43,101060,"0.0-3.10-2.10","qdaoj19kju8x1aa",503,"12.csv","","null","resources/images/coin2.png","null","",NA,NA,NA,NA,""
"image-keyboard-response",44,101772,"0.0-3.11-0.11","qdaoj19kju8x1aa",503,"12.csv","","710.5","resources/trios/L4T1A2.jpg","37","restless",0.7,0.7,0.4,0.578544421970163,"true"
"image-keyboard-response",45,102184,"0.0-3.11-1.11","qdaoj19kju8x1aa",503,"12.csv","","null","resources/maskTrios/L4BB.jpg","null","",NA,NA,NA,NA,""
"image-keyboard-response",46,103391,"0.0-3.11-2.11","qdaoj19kju8x1aa",503,"12.csv","","null","resources/images/coin2.png","null","",NA,NA,NA,NA,""
"image-keyboard-response",47,103964,"0.0-3.12-0.12","qdaoj19kju8x1aa",503,"12.csv","","572.4000000059605","resources/trios/L1T4A2.jpg","37","restless",0.7,0.7,0.5,0.79453808060362,"false"
"image-keyboard-response",48,104370,"0.0-3.12-1.12","qdaoj19kju8x1aa",503,"12.csv","","null","resources/maskTrios/L1BB.jpg","null","",NA,NA,NA,NA,""
"image-keyboard-response",49,105576,"0.0-3.12-2.12","qdaoj19kju8x1aa",503,"12.csv","","null","resources/images/fishbone.png","null","",NA,NA,NA,NA,""
"image-keyboard-response",50,106181,"0.0-3.13-0.13","qdaoj19kju8x1aa",503,"12.csv","","603.7999999821186","resources/trios/L4T4A2.jpg","39","restless",0.7,0.7,0.5,0.071315578941979,"true"
"image-keyboard-response",51,106594,"0.0-3.13-1.13","qdaoj19kju8x1aa",503,"12.csv","","null","resources/maskTrios/BBA2.jpg","null","",NA,NA,NA,NA,""
"image-keyboard-response",52,107796,"0.0-3.13-2.13","qdaoj19kju8x1aa",503,"12.csv","","null","resources/images/coin2.png","null","",NA,NA,NA,NA,""
"image-keyboard-response",53,108608,"0.0-3.14-0.14","qdaoj19kju8x1aa",503,"12.csv","","810.3000000119209","resources/trios/L4T4A3.jpg","39","restless",0.8,0.7,0.5,0.532614599984219,"false"
"image-keyboard-response",54,109013,"0.0-3.14-1.14","qdaoj19kju8x1aa",503,"12.csv","","null","resources/maskTrios/BBA3.jpg","null","",NA,NA,NA,NA,""
"image-keyboard-response",55,110228,"0.0-3.14-2.14","qdaoj19kju8x1aa",503,"12.csv","","null","resources/images/fishbone.png","null","",NA,NA,NA,NA,""
"image-keyboard-response",56,111399,"0.0-3.15-0.15","qdaoj19kju8x1aa",503,"12.csv","","1169.0999999940395","resources/trios/L4T4A2.jpg","38","restless",0.8,0.7,0.5,0.336512981529638,"true"
"image-keyboard-response",57,111802,"0.0-3.15-1.15","qdaoj19kju8x1aa",503,"12.csv","","null","resources/maskTrios/BT4B.jpg","null","",NA,NA,NA,NA,""
"image-keyboard-response",58,113016,"0.0-3.15-2.15","qdaoj19kju8x1aa",503,"12.csv","","null","resources/images/coin2.png","null","",NA,NA,NA,NA,""
"image-keyboard-response",59,114857,"0.0-3.16-0.16","qdaoj19kju8x1aa",503,"12.csv","","1839.7999999821186","resources/trios/L4T1A2.jpg","38","restless",0.8,0.7,0.5,0.186819140420643,"true"
"image-keyboard-response",60,115271,"0.0-3.16-1.16","qdaoj19kju8x1aa",503,"12.csv","","null","resources/maskTrios/BT1B.jpg","null","",NA,NA,NA,NA,""
"image-keyboard-response",61,116484,"0.0-3.16-2.16","qdaoj19kju8x1aa",503,"12.csv","","null","resources/images/coin2.png","null","",NA,NA,NA,NA,""
"image-keyboard-response",62,117600,"0.0-3.17-0.17","qdaoj19kju8x1aa",503,"12.csv","","1115","resources/trios/L4T4A2.jpg","38","restless",0.8,0.7,0.5,0.303497528295999,"true"
"image-keyboard-response",63,118009,"0.0-3.17-1.17","qdaoj19kju8x1aa",503,"12.csv","","null","resources/maskTrios/BT4B.jpg","null","",NA,NA,NA,NA,""
"image-keyboard-response",64,119225,"0.0-3.17-2.17","qdaoj19kju8x1aa",503,"12.csv","","null","resources/images/coin2.png","null","",NA,NA,NA,NA,""
"image-keyboard-response",65,119994,"0.0-3.18-0.18","qdaoj19kju8x1aa",503,"12.csv","","768.1000000238419","resources/trios/L1T1A2.jpg","38","restless",0.8,0.7,0.5,0.987582182121691,"false"
"image-keyboard-response",66,120410,"0.0-3.18-1.18","qdaoj19kju8x1aa",503,"12.csv","","null","resources/maskTrios/BT1B.jpg","null","",NA,NA,NA,NA,""
"image-keyboard-response",67,121623,"0.0-3.18-2.18","qdaoj19kju8x1aa",503,"12.csv","","null","resources/images/fishbone.png","null","",NA,NA,NA,NA,""
"image-keyboard-response",68,122121,"0.0-3.19-0.19","qdaoj19kju8x1aa",503,"12.csv","","497.30000001192093","resources/trios/L4T1A3.jpg","37","restless",0.8,0.7,0.5,0.412897617424914,"true"
"image-keyboard-response",69,122526,"0.0-3.19-1.19","qdaoj19kju8x1aa",503,"12.csv","","null","resources/maskTrios/L4BB.jpg","null","",NA,NA,NA,NA,""
"image-keyboard-response",70,123740,"0.0-3.19-2.19","qdaoj19kju8x1aa",503,"12.csv","","null","resources/images/coin2.png","null","",NA,NA,NA,NA,""
"image-keyboard-response",71,124247,"0.0-3.20-0.20","qdaoj19kju8x1aa",503,"12.csv","","505.80000001192093","resources/trios/L1T4A2.jpg","37","restless",0.8,0.8,0.5,0.286749432923489,"true"
"image-keyboard-response",72,124657,"0.0-3.20-1.20","qdaoj19kju8x1aa",503,"12.csv","","null","resources/maskTrios/L1BB.jpg","null","",NA,NA,NA,NA,""
"image-keyboard-response",73,125868,"0.0-3.20-2.20","qdaoj19kju8x1aa",503,"12.csv","","null","resources/images/coin2.png","null","",NA,NA,NA,NA,""
"image-keyboard-response",74,126184,"0.0-3.21-0.21","qdaoj19kju8x1aa",503,"12.csv","","314.19999998807907","resources/trios/L1T1A3.jpg","37","restless",0.8,0.8,0.5,0.267250692612093,"true"
"image-keyboard-response",75,126599,"0.0-3.21-1.21","qdaoj19kju8x1aa",503,"12.csv","","null","resources/maskTrios/L1BB.jpg","null","",NA,NA,NA,NA,""
"image-keyboard-response",76,127816,"0.0-3.21-2.21","qdaoj19kju8x1aa",503,"12.csv","","null","resources/images/coin2.png","null","",NA,NA,NA,NA,""
"image-keyboard-response",77,128138,"0.0-3.22-0.22","qdaoj19kju8x1aa",503,"12.csv","","321.30000001192093","resources/trios/L1T4A2.jpg","37","restless",0.8,0.8,0.5,0.751025278875797,"true"
"image-keyboard-response",78,128549,"0.0-3.22-1.22","qdaoj19kju8x1aa",503,"12.csv","","null","resources/maskTrios/L1BB.jpg","null","",NA,NA,NA,NA,""
"image-keyboard-response",79,129764,"0.0-3.22-2.22","qdaoj19kju8x1aa",503,"12.csv","","null","resources/images/coin2.png","null","",NA,NA,NA,NA,""
"image-keyboard-response",80,130061,"0.0-3.23-0.23","qdaoj19kju8x1aa",503,"12.csv","","296.10000002384186","resources/trios/L4T4A2.jpg","37","restless",0.8,0.8,0.5,0.269939213180862,"true"
"image-keyboard-response",81,130478,"0.0-3.23-1.23","qdaoj19kju8x1aa",503,"12.csv","","null","resources/maskTrios/L4BB.jpg","null","",NA,NA,NA,NA,""
"image-keyboard-response",82,131693,"0.0-3.23-2.23","qdaoj19kju8x1aa",503,"12.csv","","null","resources/images/coin2.png","null","",NA,NA,NA,NA,""
"image-keyboard-response",83,131969,"0.0-3.24-0.24","qdaoj19kju8x1aa",503,"12.csv","","275.5","resources/trios/L1T1A2.jpg","37","restless",0.8,0.8,0.5,0.471593295533274,"true"
"image-keyboard-response",84,132375,"0.0-3.24-1.24","qdaoj19kju8x1aa",503,"12.csv","","null","resources/maskTrios/L1BB.jpg","null","",NA,NA,NA,NA,""
"image-keyboard-response",85,133590,"0.0-3.24-2.24","qdaoj19kju8x1aa",503,"12.csv","","null","resources/images/coin2.png","null","",NA,NA,NA,NA,""
"image-keyboard-response",86,133867,"0.0-3.25-0.25","qdaoj19kju8x1aa",503,"12.csv","","276.2000000178814","resources/trios/L1T1A2.jpg","37","restless",0.8,0.8,0.5,0.338656940460349,"true"
"image-keyboard-response",87,134274,"0.0-3.25-1.25","qdaoj19kju8x1aa",503,"12.csv","","null","resources/maskTrios/L1BB.jpg","null","",NA,NA,NA,NA,""
"image-keyboard-response",88,135488,"0.0-3.25-2.25","qdaoj19kju8x1aa",503,"12.csv","","null","resources/images/coin2.png","null","",NA,NA,NA,NA,""
"image-keyboard-response",89,135707,"0.0-3.26-0.26","qdaoj19kju8x1aa",503,"12.csv","","217.5","resources/trios/L4T1A2.jpg","37","restless",0.8,0.8,0.6,0.848253305782951,"false"
"image-keyboard-response",90,136112,"0.0-3.26-1.26","qdaoj19kju8x1aa",503,"12.csv","","null","resources/maskTrios/L4BB.jpg","null","",NA,NA,NA,NA,""
"image-keyboard-response",91,137328,"0.0-3.26-2.26","qdaoj19kju8x1aa",503,"12.csv","","null","resources/images/fishbone.png","null","",NA,NA,NA,NA,""
"image-keyboard-response",92,137649,"0.0-3.27-0.27","qdaoj19kju8x1aa",503,"12.csv","","320.09999999403954","resources/trios/L1T4A3.jpg","39","restless",0.8,0.8,0.6,0.466869085105708,"true"
"image-keyboard-response",93,138061,"0.0-3.27-1.27","qdaoj19kju8x1aa",503,"12.csv","","null","resources/maskTrios/BBA3.jpg","null","",NA,NA,NA,NA,""
"image-keyboard-response",94,139277,"0.0-3.27-2.27","qdaoj19kju8x1aa",503,"12.csv","","null","resources/images/coin2.png","null","",NA,NA,NA,NA,""
"image-keyboard-response",95,139569,"0.0-3.28-0.28","qdaoj19kju8x1aa",503,"12.csv","","289.90000000596046","resources/trios/L4T4A2.jpg","39","restless",0.8,0.8,0.6,0.374998279922587,"true"
"image-keyboard-response",96,139978,"0.0-3.28-1.28","qdaoj19kju8x1aa",503,"12.csv","","null","resources/maskTrios/BBA2.jpg","null","",NA,NA,NA,NA,""
"image-keyboard-response",97,141193,"0.0-3.28-2.28","qdaoj19kju8x1aa",503,"12.csv","","null","resources/images/coin2.png","null","",NA,NA,NA,NA,""
"image-keyboard-response",98,141449,"0.0-3.29-0.29","qdaoj19kju8x1aa",503,"12.csv","","254.90000000596046","resources/trios/L1T4A3.jpg","39","restless",0.8,0.8,0.6,0.45112730925404,"true"
"image-keyboard-response",99,141861,"0.0-3.29-1.29","qdaoj19kju8x1aa",503,"12.csv","","null","resources/maskTrios/BBA3.jpg","null","",NA,NA,NA,NA,""
"image-keyboard-response",100,143077,"0.0-3.29-2.29","qdaoj19kju8x1aa",503,"12.csv","","null","resources/images/coin2.png","null","",NA,NA,NA,NA,""
"image-keyboard-response",101,143569,"0.0-3.30-0.30","qdaoj19kju8x1aa",503,"12.csv","","491.2000000178814","resources/trios/L4T1A3.jpg","39","restless",0.8,0.8,0.6,0.647722494472087,"false"
"image-keyboard-response",102,143980,"0.0-3.30-1.30","qdaoj19kju8x1aa",503,"12.csv","","null","resources/maskTrios/BBA3.jpg","null","",NA,NA,NA,NA,""
"image-keyboard-response",103,145192,"0.0-3.30-2.30","qdaoj19kju8x1aa",503,"12.csv","","null","resources/images/fishbone.png","null","",NA,NA,NA,NA,""
"image-keyboard-response",104,145623,"0.0-3.31-0.31","qdaoj19kju8x1aa",503,"12.csv","","430.09999999403954","resources/trios/L4T4A2.jpg","38","restless",0.8,0.8,0.6,0.130788586935471,"true"
"image-keyboard-response",105,146032,"0.0-3.31-1.31","qdaoj19kju8x1aa",503,"12.csv","","null","resources/maskTrios/BT4B.jpg","null","",NA,NA,NA,NA,""
"image-keyboard-response",106,147246,"0.0-3.31-2.31","qdaoj19kju8x1aa",503,"12.csv","","null","resources/images/coin2.png","null","",NA,NA,NA,NA,""
"image-keyboard-response",107,147927,"0.0-3.32-0.32","qdaoj19kju8x1aa",503,"12.csv","","679.0999999940395","resources/trios/L4T4A2.jpg","38","restless",0.8,0.8,0.7,0.314879513973554,"true"
"image-keyboard-response",108,148338,"0.0-3.32-1.32","qdaoj19kju8x1aa",503,"12.csv","","null","resources/maskTrios/BT4B.jpg","null","",NA,NA,NA,NA,""
"image-keyboard-response",109,149553,"0.0-3.32-2.32","qdaoj19kju8x1aa",503,"12.csv","","null","resources/images/coin2.png","null","",NA,NA,NA,NA,""
"image-keyboard-response",110,149840,"0.0-3.33-0.33","qdaoj19kju8x1aa",503,"12.csv","","285.5","resources/trios/L4T4A2.jpg","38","restless",0.8,0.8,0.7,0.916605472796664,"false"
"image-keyboard-response",111,150256,"0.0-3.33-1.33","qdaoj19kju8x1aa",503,"12.csv","","null","resources/maskTrios/BT4B.jpg","null","",NA,NA,NA,NA,""
"image-keyboard-response",112,151468,"0.0-3.33-2.33","qdaoj19kju8x1aa",503,"12.csv","","null","resources/images/fishbone.png","null","",NA,NA,NA,NA,""
"image-keyboard-response",113,151792,"0.0-3.34-0.34","qdaoj19kju8x1aa",503,"12.csv","","322.69999998807907","resources/trios/L4T4A2.jpg","37","restless",0.8,0.8,0.6,0.470923329521832,"true"
"image-keyboard-response",114,152197,"0.0-3.34-1.34","qdaoj19kju8x1aa",503,"12.csv","","null","resources/maskTrios/L4BB.jpg","null","",NA,NA,NA,NA,""
"image-keyboard-response",115,153410,"0.0-3.34-2.34","qdaoj19kju8x1aa",503,"12.csv","","null","resources/images/coin2.png","null","",NA,NA,NA,NA,""
"image-keyboard-response",116,153736,"0.0-3.35-0.35","qdaoj19kju8x1aa",503,"12.csv","","325","resources/trios/L4T1A2.jpg","37","restless",0.8,0.8,0.6,0.281123135696803,"true"
"image-keyboard-response",117,154143,"0.0-3.35-1.35","qdaoj19kju8x1aa",503,"12.csv","","null","resources/maskTrios/L4BB.jpg","null","",NA,NA,NA,NA,""
"image-keyboard-response",118,155352,"0.0-3.35-2.35","qdaoj19kju8x1aa",503,"12.csv","","null","resources/images/coin2.png","null","",NA,NA,NA,NA,""
"image-keyboard-response",119,155912,"0.0-3.36-0.36","qdaoj19kju8x1aa",503,"12.csv","","558.2999999821186","resources/trios/L4T1A2.jpg","37","restless",0.8,0.8,0.5,0.297427165838466,"true"
"image-keyboard-response",120,156316,"0.0-3.36-1.36","qdaoj19kju8x1aa",503,"12.csv","","null","resources/maskTrios/L4BB.jpg","null","",NA,NA,NA,NA,""
"image-keyboard-response",121,157531,"0.0-3.36-2.36","qdaoj19kju8x1aa",503,"12.csv","","null","resources/images/coin2.png","null","",NA,NA,NA,NA,""
"image-keyboard-response",122,157852,"0.0-3.37-0.37","qdaoj19kju8x1aa",503,"12.csv","","319.90000000596046","resources/trios/L4T4A3.jpg","37","restless",0.8,0.7,0.5,0.167215104811068,"true"
"image-keyboard-response",123,158261,"0.0-3.37-1.37","qdaoj19kju8x1aa",503,"12.csv","","null","resources/maskTrios/L4BB.jpg","null","",NA,NA,NA,NA,""
"image-keyboard-response",124,159475,"0.0-3.37-2.37","qdaoj19kju8x1aa",503,"12.csv","","null","resources/images/coin2.png","null","",NA,NA,NA,NA,""
"image-keyboard-response",125,159861,"0.0-3.38-0.38","qdaoj19kju8x1aa",503,"12.csv","","384.2999999821186","resources/trios/L1T4A3.jpg","37","restless",0.8,0.7,0.5,0.361846258487146,"true"
"image-keyboard-response",126,160267,"0.0-3.38-1.38","qdaoj19kju8x1aa",503,"12.csv","","null","resources/maskTrios/L1BB.jpg","null","",NA,NA,NA,NA,""
"image-keyboard-response",127,161481,"0.0-3.38-2.38","qdaoj19kju8x1aa",503,"12.csv","","null","resources/images/coin2.png","null","",NA,NA,NA,NA,""
"image-keyboard-response",128,161789,"0.0-3.39-0.39","qdaoj19kju8x1aa",503,"12.csv","","307","resources/trios/L4T4A3.jpg","37","restless",0.8,0.7,0.5,0.781377794210475,"true"
"image-keyboard-response",129,162197,"0.0-3.39-1.39","qdaoj19kju8x1aa",503,"12.csv","","null","resources/maskTrios/L4BB.jpg","null","",NA,NA,NA,NA,""
"image-keyboard-response",130,163412,"0.0-3.39-2.39","qdaoj19kju8x1aa",503,"12.csv","","null","resources/images/coin2.png","null","",NA,NA,NA,NA,""
"image-keyboard-response",131,163623,"0.0-3.40-0.40","qdaoj19kju8x1aa",503,"12.csv","","209.7000000178814","resources/trios/L4T1A3.jpg","37","restless",0.8,0.7,0.5,0.458592106616992,"true"
"image-keyboard-response",132,164034,"0.0-3.40-1.40","qdaoj19kju8x1aa",503,"12.csv","","null","resources/maskTrios/L4BB.jpg","null","",NA,NA,NA,NA,""
"image-keyboard-response",133,165249,"0.0-3.40-2.40","qdaoj19kju8x1aa",503,"12.csv","","null","resources/images/coin2.png","null","",NA,NA,NA,NA,""
"image-keyboard-response",134,165396,"0.0-3.41-0.41","qdaoj19kju8x1aa",503,"12.csv","","145.90000000596046","resources/trios/L4T4A3.jpg","37","restless",0.8,0.7,0.4,0.769086744984342,"true"
"image-keyboard-response",135,165807,"0.0-3.41-1.41","qdaoj19kju8x1aa",503,"12.csv","","null","resources/maskTrios/L4BB.jpg","null","",NA,NA,NA,NA,""
"image-keyboard-response",136,167020,"0.0-3.41-2.41","qdaoj19kju8x1aa",503,"12.csv","","null","resources/images/coin2.png","null","",NA,NA,NA,NA,""
"image-keyboard-response",137,167259,"0.0-3.42-0.42","qdaoj19kju8x1aa",503,"12.csv","","237.09999999403954","resources/trios/L4T4A2.jpg","37","restless",0.8,0.7,0.4,0.202137385877049,"true"
"image-keyboard-response",138,167674,"0.0-3.42-1.42","qdaoj19kju8x1aa",503,"12.csv","","null","resources/maskTrios/L4BB.jpg","null","",NA,NA,NA,NA,""
"image-keyboard-response",139,168889,"0.0-3.42-2.42","qdaoj19kju8x1aa",503,"12.csv","","null","resources/images/coin2.png","null","",NA,NA,NA,NA,""
"image-keyboard-response",140,169218,"0.0-3.43-0.43","qdaoj19kju8x1aa",503,"12.csv","","327.30000001192093","resources/trios/L4T4A2.jpg","37","restless",0.8,0.7,0.4,0.344467733535494,"true"
"image-keyboard-response",141,169619,"0.0-3.43-1.43","qdaoj19kju8x1aa",503,"12.csv","","null","resources/maskTrios/L4BB.jpg","null","",NA,NA,NA,NA,""
"image-keyboard-response",142,170836,"0.0-3.43-2.43","qdaoj19kju8x1aa",503,"12.csv","","null","resources/images/coin2.png","null","",NA,NA,NA,NA,""
"image-keyboard-response",143,170976,"0.0-3.44-0.44","qdaoj19kju8x1aa",503,"12.csv","","138.89999997615814","resources/trios/L4T1A2.jpg","37","restless",0.8,0.7,0.4,0.974978006883878,"false"
"image-keyboard-response",144,171378,"0.0-3.44-1.44","qdaoj19kju8x1aa",503,"12.csv","","null","resources/maskTrios/L4BB.jpg","null","",NA,NA,NA,NA,""
"image-keyboard-response",145,172589,"0.0-3.44-2.44","qdaoj19kju8x1aa",503,"12.csv","","null","resources/images/fishbone.png","null","",NA,NA,NA,NA,""
"image-keyboard-response",146,172808,"0.0-3.45-0.45","qdaoj19kju8x1aa",503,"12.csv","","217.7000000178814","resources/trios/L4T4A3.jpg","39","restless",0.8,0.6,0.4,0.775950519554766,"false"
"image-keyboard-response",147,173218,"0.0-3.45-1.45","qdaoj19kju8x1aa",503,"12.csv","","null","resources/maskTrios/BBA3.jpg","null","",NA,NA,NA,NA,""
"image-keyboard-response",148,174433,"0.0-3.45-2.45","qdaoj19kju8x1aa",503,"12.csv","","null","resources/images/fishbone.png","null","",NA,NA,NA,NA,""
"image-keyboard-response",149,174770,"0.0-3.46-0.46","qdaoj19kju8x1aa",503,"12.csv","","336","resources/trios/L1T4A3.jpg","38","restless",0.8,0.6,0.4,0.750662102857834,"false"
"image-keyboard-response",150,175180,"0.0-3.46-1.46","qdaoj19kju8x1aa",503,"12.csv","","null","resources/maskTrios/BT4B.jpg","null","",NA,NA,NA,NA,""
"image-keyboard-response",151,176396,"0.0-3.46-2.46","qdaoj19kju8x1aa",503,"12.csv","","null","resources/images/fishbone.png","null","",NA,NA,NA,NA,""
"image-keyboard-response",152,177147,"0.0-3.47-0.47","qdaoj19kju8x1aa",503,"12.csv","","749.4000000059605","resources/trios/L4T1A2.jpg","37","restless",0.8,0.5,0.4,0.0586558742669663,"true"
"image-keyboard-response",153,177562,"0.0-3.47-1.47","qdaoj19kju8x1aa",503,"12.csv","","null","resources/maskTrios/L4BB.jpg","null","",NA,NA,NA,NA,""
"image-keyboard-response",154,178777,"0.0-3.47-2.47","qdaoj19kju8x1aa",503,"12.csv","","null","resources/images/coin2.png","null","",NA,NA,NA,NA,""
"image-keyboard-response",155,179044,"0.0-3.48-0.48","qdaoj19kju8x1aa",503,"12.csv","","265.2999999821186","resources/trios/L4T1A2.jpg","39","restless",0.8,0.5,0.4,0.946356661952942,"false"
"image-keyboard-response",156,179460,"0.0-3.48-1.48","qdaoj19kju8x1aa",503,"12.csv","","null","resources/maskTrios/BBA2.jpg","null","",NA,NA,NA,NA,""
"image-keyboard-response",157,180672,"0.0-3.48-2.48","qdaoj19kju8x1aa",503,"12.csv","","null","resources/images/fishbone.png","null","",NA,NA,NA,NA,""
"image-keyboard-response",158,181000,"0.0-3.49-0.49","qdaoj19kju8x1aa",503,"12.csv","","326.30000001192093","resources/trios/L4T4A3.jpg","38","restless",0.8,0.6,0.4,0.226232692585772,"true"
"image-keyboard-response",159,181402,"0.0-3.49-1.49","qdaoj19kju8x1aa",503,"12.csv","","null","resources/maskTrios/BT4B.jpg","null","",NA,NA,NA,NA,""
"image-keyboard-response",160,182617,"0.0-3.49-2.49","qdaoj19kju8x1aa",503,"12.csv","","null","resources/images/coin2.png","null","",NA,NA,NA,NA,""
"image-keyboard-response",161,182757,"0.0-3.50-0.50","qdaoj19kju8x1aa",503,"12.csv","","139.40000000596046","resources/trios/L1T4A3.jpg","38","restless",0.8,0.6,0.4,0.539208857487108,"true"
"image-keyboard-response",162,183160,"0.0-3.50-1.50","qdaoj19kju8x1aa",503,"12.csv","","null","resources/maskTrios/BT4B.jpg","null","",NA,NA,NA,NA,""
"image-keyboard-response",163,184375,"0.0-3.50-2.50","qdaoj19kju8x1aa",503,"12.csv","","null","resources/images/coin2.png","null","",NA,NA,NA,NA,""
"image-keyboard-response",164,184632,"0.0-3.51-0.51","qdaoj19kju8x1aa",503,"12.csv","","255.7999999821186","resources/trios/L4T1A3.jpg","38","restless",0.8,0.5,0.4,0.42542710076352,"true"
"image-keyboard-response",165,185043,"0.0-3.51-1.51","qdaoj19kju8x1aa",503,"12.csv","","null","resources/maskTrios/BT1B.jpg","null","",NA,NA,NA,NA,""
"image-keyboard-response",166,186256,"0.0-3.51-2.51","qdaoj19kju8x1aa",503,"12.csv","","null","resources/images/coin2.png","null","",NA,NA,NA,NA,""
"image-keyboard-response",167,186417,"0.0-3.52-0.52","qdaoj19kju8x1aa",503,"12.csv","","160.2000000178814","resources/trios/L4T1A2.jpg","38","restless",0.8,0.5,0.4,0.22034744958824,"true"
"image-keyboard-response",168,186832,"0.0-3.52-1.52","qdaoj19kju8x1aa",503,"12.csv","","null","resources/maskTrios/BT1B.jpg","null","",NA,NA,NA,NA,""
"image-keyboard-response",169,188042,"0.0-3.52-2.52","qdaoj19kju8x1aa",503,"12.csv","","null","resources/images/coin2.png","null","",NA,NA,NA,NA,""
"image-keyboard-response",170,188280,"0.0-3.53-0.53","qdaoj19kju8x1aa",503,"12.csv","","237.19999998807907","resources/trios/L1T1A2.jpg","38","restless",0.8,0.5,0.4,0.467831271891862,"true"
"image-keyboard-response",171,188685,"0.0-3.53-1.53","qdaoj19kju8x1aa",503,"12.csv","","null","resources/maskTrios/BT1B.jpg","null","",NA,NA,NA,NA,""
"image-keyboard-response",172,189892,"0.0-3.53-2.53","qdaoj19kju8x1aa",503,"12.csv","","null","resources/images/coin2.png","null","",NA,NA,NA,NA,""
"image-keyboard-response",173,190130,"0.0-3.54-0.54","qdaoj19kju8x1aa",503,"12.csv","","237","resources/trios/L1T1A3.jpg","38","restless",0.8,0.5,0.4,0.295702276041858,"true"
"image-keyboard-response",174,190544,"0.0-3.54-1.54","qdaoj19kju8x1aa",503,"12.csv","","null","resources/maskTrios/BT1B.jpg","null","",NA,NA,NA,NA,""
"image-keyboard-response",175,191761,"0.0-3.54-2.54","qdaoj19kju8x1aa",503,"12.csv","","null","resources/images/coin2.png","null","",NA,NA,NA,NA,""
"image-keyboard-response",176,191810,"0.0-3.55-0.55","qdaoj19kju8x1aa",503,"12.csv","","48.20000001788139","resources/trios/L1T1A3.jpg","38","restless",0.8,0.5,0.4,0.362227832377229,"true"
"image-keyboard-response",177,192214,"0.0-3.55-1.55","qdaoj19kju8x1aa",503,"12.csv","","null","resources/maskTrios/BT1B.jpg","null","",NA,NA,NA,NA,""
"image-keyboard-response",178,193427,"0.0-3.55-2.55","qdaoj19kju8x1aa",503,"12.csv","","null","resources/images/coin2.png","null","",NA,NA,NA,NA,""
"image-keyboard-response",179,194106,"0.0-3.56-0.56","qdaoj19kju8x1aa",503,"12.csv","","678.7000000178814","resources/trios/L4T4A2.jpg","38","restless",0.8,0.6,0.4,0.743373547681424,"false"
"image-keyboard-response",180,194513,"0.0-3.56-1.56","qdaoj19kju8x1aa",503,"12.csv","","null","resources/maskTrios/BT4B.jpg","null","",NA,NA,NA,NA,""
"image-keyboard-response",181,195726,"0.0-3.56-2.56","qdaoj19kju8x1aa",503,"12.csv","","null","resources/images/fishbone.png","null","",NA,NA,NA,NA,""
"image-keyboard-response",182,196134,"0.0-3.57-0.57","qdaoj19kju8x1aa",503,"12.csv","","406.7999999821186","resources/trios/L1T4A3.jpg","39","restless",0.8,0.6,0.4,0.492154933732664,"false"
"image-keyboard-response",183,196550,"0.0-3.57-1.57","qdaoj19kju8x1aa",503,"12.csv","","null","resources/maskTrios/BBA3.jpg","null","",NA,NA,NA,NA,""
"image-keyboard-response",184,197764,"0.0-3.57-2.57","qdaoj19kju8x1aa",503,"12.csv","","null","resources/images/fishbone.png","null","",NA,NA,NA,NA,""
"image-keyboard-response",185,198024,"0.0-3.58-0.58","qdaoj19kju8x1aa",503,"12.csv","","257.90000000596046","resources/trios/L4T4A2.jpg","37","restless",0.8,0.7,0.4,0.484746650934628,"true"
"image-keyboard-response",186,198431,"0.0-3.58-1.58","qdaoj19kju8x1aa",503,"12.csv","","null","resources/maskTrios/L4BB.jpg","null","",NA,NA,NA,NA,""
"image-keyboard-response",187,199641,"0.0-3.58-2.58","qdaoj19kju8x1aa",503,"12.csv","","null","resources/images/coin2.png","null","",NA,NA,NA,NA,""
"image-keyboard-response",188,199879,"0.0-3.59-0.59","qdaoj19kju8x1aa",503,"12.csv","","236.80000001192093","resources/trios/L1T1A2.jpg","37","restless",0.8,0.6,0.4,0.175565866051649,"true"
"image-keyboard-response",189,200294,"0.0-3.59-1.59","qdaoj19kju8x1aa",503,"12.csv","","null","resources/maskTrios/L1BB.jpg","null","",NA,NA,NA,NA,""
"image-keyboard-response",190,201510,"0.0-3.59-2.59","qdaoj19kju8x1aa",503,"12.csv","","null","resources/images/coin2.png","null","",NA,NA,NA,NA,""
"image-keyboard-response",191,201520,"0.0-3.60-0.60","qdaoj19kju8x1aa",503,"12.csv","","8.099999994039536","resources/trios/L1T4A3.jpg","37","restless",0.8,0.5,0.4,0.353838016679803,"true"
"image-keyboard-response",192,201929,"0.0-3.60-1.60","qdaoj19kju8x1aa",503,"12.csv","","null","resources/maskTrios/L1BB.jpg","null","",NA,NA,NA,NA,""
"image-keyboard-response",193,203146,"0.0-3.60-2.60","qdaoj19kju8x1aa",503,"12.csv","","null","resources/images/coin2.png","null","",NA,NA,NA,NA,""
"image-keyboard-response",194,203379,"0.0-3.61-0.61","qdaoj19kju8x1aa",503,"12.csv","","231.7999999821186","resources/trios/L4T4A2.jpg","37","restless",0.7,0.5,0.4,0.98105979172954,"false"
"image-keyboard-response",195,203782,"0.0-3.61-1.61","qdaoj19kju8x1aa",503,"12.csv","","null","resources/maskTrios/L4BB.jpg","null","",NA,NA,NA,NA,""
"image-keyboard-response",196,204995,"0.0-3.61-2.61","qdaoj19kju8x1aa",503,"12.csv","","null","resources/images/fishbone.png","null","",NA,NA,NA,NA,""
"image-keyboard-response",197,207004,"0.0-3.62-0.62","qdaoj19kju8x1aa",503,"12.csv","","2007.2999999821186","resources/trios/L4T4A3.jpg","39","restless",0.7,0.5,0.4,0.48970903390887,"false"
"image-keyboard-response",198,207418,"0.0-3.62-1.62","qdaoj19kju8x1aa",503,"12.csv","","null","resources/maskTrios/BBA3.jpg","null","",NA,NA,NA,NA,""
"image-keyboard-response",199,208629,"0.0-3.62-2.62","qdaoj19kju8x1aa",503,"12.csv","","null","resources/images/fishbone.png","null","",NA,NA,NA,NA,""
"image-keyboard-response",200,209585,"0.0-3.63-0.63","qdaoj19kju8x1aa",503,"12.csv","","953.5","resources/trios/L4T1A2.jpg","38","restless",0.7,0.5,0.4,0.965005442977712,"false"
"image-keyboard-response",201,209995,"0.0-3.63-1.63","qdaoj19kju8x1aa",503,"12.csv","","null","resources/maskTrios/BT1B.jpg","null","",NA,NA,NA,NA,""
"image-keyboard-response",202,211202,"0.0-3.63-2.63","qdaoj19kju8x1aa",503,"12.csv","","null","resources/images/fishbone.png","null","",NA,NA,NA,NA,""
"image-keyboard-response",203,211485,"0.0-3.64-0.64","qdaoj19kju8x1aa",503,"12.csv","","281.5","resources/trios/L1T1A3.jpg","37","restless",0.7,0.5,0.4,0.484986760785423,"true"
"image-keyboard-response",204,211899,"0.0-3.64-1.64","qdaoj19kju8x1aa",503,"12.csv","","null","resources/maskTrios/L1BB.jpg","null","",NA,NA,NA,NA,""
"image-keyboard-response",205,213107,"0.0-3.64-2.64","qdaoj19kju8x1aa",503,"12.csv","","null","resources/images/coin2.png","null","",NA,NA,NA,NA,""
"image-keyboard-response",206,213339,"0.0-3.65-0.65","qdaoj19kju8x1aa",503,"12.csv","","230.30000001192093","resources/trios/L4T1A3.jpg","37","restless",0.7,0.5,0.4,0.97447267209421,"false"
"image-keyboard-response",207,213742,"0.0-3.65-1.65","qdaoj19kju8x1aa",503,"12.csv","","null","resources/maskTrios/L4BB.jpg","null","",NA,NA,NA,NA,""
"image-keyboard-response",208,214952,"0.0-3.65-2.65","qdaoj19kju8x1aa",503,"12.csv","","null","resources/images/fishbone.png","null","",NA,NA,NA,NA,""
"image-keyboard-response",209,215357,"0.0-3.66-0.66","qdaoj19kju8x1aa",503,"12.csv","","403","resources/trios/L4T4A3.jpg","39","restless",0.7,0.5,0.4,0.199883737580309,"true"
"image-keyboard-response",210,215773,"0.0-3.66-1.66","qdaoj19kju8x1aa",503,"12.csv","","null","resources/maskTrios/BBA3.jpg","null","",NA,NA,NA,NA,""
"image-keyboard-response",211,216982,"0.0-3.66-2.66","qdaoj19kju8x1aa",503,"12.csv","","null","resources/images/coin2.png","null","",NA,NA,NA,NA,""
"image-keyboard-response",212,217215,"0.0-3.67-0.67","qdaoj19kju8x1aa",503,"12.csv","","231.69999998807907","resources/trios/L1T4A3.jpg","38","restless",0.7,0.5,0.4,0.874976267790802,"false"
"image-keyboard-response",213,217617,"0.0-3.67-1.67","qdaoj19kju8x1aa",503,"12.csv","","null","resources/maskTrios/BT4B.jpg","null","",NA,NA,NA,NA,""
"image-keyboard-response",214,218825,"0.0-3.67-2.67","qdaoj19kju8x1aa",503,"12.csv","","null","resources/images/fishbone.png","null","",NA,NA,NA,NA,""
"image-keyboard-response",215,219274,"0.0-3.68-0.68","qdaoj19kju8x1aa",503,"12.csv","","448","resources/trios/L1T4A3.jpg","39","restless",0.7,0.5,0.4,0.941554456580072,"false"
"image-keyboard-response",216,219678,"0.0-3.68-1.68","qdaoj19kju8x1aa",503,"12.csv","","null","resources/maskTrios/BBA3.jpg","null","",NA,NA,NA,NA,""
"image-keyboard-response",217,220886,"0.0-3.68-2.68","qdaoj19kju8x1aa",503,"12.csv","","null","resources/images/fishbone.png","null","",NA,NA,NA,NA,""
"image-keyboard-response",218,221123,"0.0-3.69-0.69","qdaoj19kju8x1aa",503,"12.csv","","236.59999999403954","resources/trios/L4T1A3.jpg","37","restless",0.7,0.5,0.4,0.126483802666676,"true"
"image-keyboard-response",219,221537,"0.0-3.69-1.69","qdaoj19kju8x1aa",503,"12.csv","","null","resources/maskTrios/L4BB.jpg","null","",NA,NA,NA,NA,""
"image-keyboard-response",220,222748,"0.0-3.69-2.69","qdaoj19kju8x1aa",503,"12.csv","","null","resources/images/coin2.png","null","",NA,NA,NA,NA,""
"image-keyboard-response",221,222973,"0.0-3.70-0.70","qdaoj19kju8x1aa",503,"12.csv","","223.59999999403954","resources/trios/L1T4A3.jpg","37","restless",0.7,0.5,0.4,0.237235308491487,"true"
"image-keyboard-response",222,223383,"0.0-3.70-1.70","qdaoj19kju8x1aa",503,"12.csv","","null","resources/maskTrios/L1BB.jpg","null","",NA,NA,NA,NA,""
"image-keyboard-response",223,224593,"0.0-3.70-2.70","qdaoj19kju8x1aa",503,"12.csv","","null","resources/images/coin2.png","null","",NA,NA,NA,NA,""
"image-keyboard-response",224,224840,"0.0-3.71-0.71","qdaoj19kju8x1aa",503,"12.csv","","245.80000001192093","resources/trios/L1T4A2.jpg","37","restless",0.7,0.5,0.4,0.430380636378846,"true"
"image-keyboard-response",225,225245,"0.0-3.71-1.71","qdaoj19kju8x1aa",503,"12.csv","","null","resources/maskTrios/L1BB.jpg","null","",NA,NA,NA,NA,""
"image-keyboard-response",226,226452,"0.0-3.71-2.71","qdaoj19kju8x1aa",503,"12.csv","","null","resources/images/coin2.png","null","",NA,NA,NA,NA,""
"image-keyboard-response",227,226708,"0.0-3.72-0.72","qdaoj19kju8x1aa",503,"12.csv","","255.39999997615814","resources/trios/L1T4A3.jpg","37","restless",0.7,0.5,0.4,0.87846928903262,"false"
"image-keyboard-response",228,227115,"0.0-3.72-1.72","qdaoj19kju8x1aa",503,"12.csv","","null","resources/maskTrios/L1BB.jpg","null","",NA,NA,NA,NA,""
"image-keyboard-response",229,228319,"0.0-3.72-2.72","qdaoj19kju8x1aa",503,"12.csv","","null","resources/images/fishbone.png","null","",NA,NA,NA,NA,""
"image-keyboard-response",230,228638,"0.0-3.73-0.73","qdaoj19kju8x1aa",503,"12.csv","","317.59999999403954","resources/trios/L4T1A3.jpg","38","restless",0.7,0.4,0.4,0.218307028753824,"true"
"image-keyboard-response",231,229050,"0.0-3.73-1.73","qdaoj19kju8x1aa",503,"12.csv","","null","resources/maskTrios/BT1B.jpg","null","",NA,NA,NA,NA,""
"image-keyboard-response",232,230257,"0.0-3.73-2.73","qdaoj19kju8x1aa",503,"12.csv","","null","resources/images/coin2.png","null","",NA,NA,NA,NA,""
"image-keyboard-response",233,230488,"0.0-3.74-0.74","qdaoj19kju8x1aa",503,"12.csv","","230.09999999403954","resources/trios/L1T1A2.jpg","38","restless",0.6,0.4,0.4,0.939801419093413,"false"
"image-keyboard-response",234,230893,"0.0-3.74-1.74","qdaoj19kju8x1aa",503,"12.csv","","null","resources/maskTrios/BT1B.jpg","null","",NA,NA,NA,NA,""
"image-keyboard-response",235,232098,"0.0-3.74-2.74","qdaoj19kju8x1aa",503,"12.csv","","null","resources/images/fishbone.png","null","",NA,NA,NA,NA,""
"image-keyboard-response",236,232409,"0.0-3.75-0.75","qdaoj19kju8x1aa",503,"12.csv","","310.5","resources/trios/L1T1A3.jpg","39","restless",0.6,0.4,0.4,0.946027313921085,"false"
"image-keyboard-response",237,232823,"0.0-3.75-1.75","qdaoj19kju8x1aa",503,"12.csv","","null","resources/maskTrios/BBA3.jpg","null","",NA,NA,NA,NA,""
"image-keyboard-response",238,234034,"0.0-3.75-2.75","qdaoj19kju8x1aa",503,"12.csv","","null","resources/images/fishbone.png","null","",NA,NA,NA,NA,""
"image-keyboard-response",239,234136,"0.0-3.76-0.76","qdaoj19kju8x1aa",503,"12.csv","","101.19999998807907","resources/trios/L4T1A3.jpg","37","restless",0.6,0.4,0.4,0.694094838844547,"false"
"image-keyboard-response",240,234545,"0.0-3.76-1.76","qdaoj19kju8x1aa",503,"12.csv","","null","resources/maskTrios/L4BB.jpg","null","",NA,NA,NA,NA,""
"image-keyboard-response",241,235752,"0.0-3.76-2.76","qdaoj19kju8x1aa",503,"12.csv","","null","resources/images/fishbone.png","null","",NA,NA,NA,NA,""
"image-keyboard-response",242,236574,"0.0-3.77-0.77","qdaoj19kju8x1aa",503,"12.csv","","820.1999999880791","resources/trios/L4T1A3.jpg","38","restless",0.7,0.4,0.4,0.322436467567084,"true"
"image-keyboard-response",243,236989,"0.0-3.77-1.77","qdaoj19kju8x1aa",503,"12.csv","","null","resources/maskTrios/BT1B.jpg","null","",NA,NA,NA,NA,""
"image-keyboard-response",244,238199,"0.0-3.77-2.77","qdaoj19kju8x1aa",503,"12.csv","","null","resources/images/coin2.png","null","",NA,NA,NA,NA,""
"image-keyboard-response",245,238417,"0.0-3.78-0.78","qdaoj19kju8x1aa",503,"12.csv","","216.7000000178814","resources/trios/L1T4A3.jpg","38","restless",0.7,0.4,0.4,0.520221929717123,"false"
"image-keyboard-response",246,238820,"0.0-3.78-1.78","qdaoj19kju8x1aa",503,"12.csv","","null","resources/maskTrios/BT4B.jpg","null","",NA,NA,NA,NA,""
"image-keyboard-response",247,240030,"0.0-3.78-2.78","qdaoj19kju8x1aa",503,"12.csv","","null","resources/images/fishbone.png","null","",NA,NA,NA,NA,""
"image-keyboard-response",248,240423,"0.0-3.79-0.79","qdaoj19kju8x1aa",503,"12.csv","","392.5","resources/trios/L1T1A2.jpg","37","restless",0.7,0.4,0.4,0.684430640060076,"true"
"image-keyboard-response",249,240836,"0.0-3.79-1.79","qdaoj19kju8x1aa",503,"12.csv","","null","resources/maskTrios/L1BB.jpg","null","",NA,NA,NA,NA,""
"image-keyboard-response",250,242046,"0.0-3.79-2.79","qdaoj19kju8x1aa",503,"12.csv","","null","resources/images/coin2.png","null","",NA,NA,NA,NA,""
"image-keyboard-response",251,242246,"0.0-3.80-0.80","qdaoj19kju8x1aa",503,"12.csv","","199.39999997615814","resources/trios/L1T4A3.jpg","37","restless",0.7,0.4,0.4,0.0430736183379725,"true"
"image-keyboard-response",252,242663,"0.0-3.80-1.80","qdaoj19kju8x1aa",503,"12.csv","","null","resources/maskTrios/L1BB.jpg","null","",NA,NA,NA,NA,""
"image-keyboard-response",253,243875,"0.0-3.80-2.80","qdaoj19kju8x1aa",503,"12.csv","","null","resources/images/coin2.png","null","",NA,NA,NA,NA,""
"image-keyboard-response",254,244079,"0.0-3.81-0.81","qdaoj19kju8x1aa",503,"12.csv","","200.59999999403954","resources/trios/L1T1A3.jpg","37","restless",0.7,0.4,0.4,0.21510498723488,"true"
"image-keyboard-response",255,244495,"0.0-3.81-1.81","qdaoj19kju8x1aa",503,"12.csv","","null","resources/maskTrios/L1BB.jpg","null","",NA,NA,NA,NA,""
"image-keyboard-response",256,245704,"0.0-3.81-2.81","qdaoj19kju8x1aa",503,"12.csv","","null","resources/images/coin2.png","null","",NA,NA,NA,NA,""
"image-keyboard-response",257,245813,"0.0-3.82-0.82","qdaoj19kju8x1aa",503,"12.csv","","107.2999999821186","resources/trios/L4T1A3.jpg","37","restless",0.7,0.4,0.4,0.366318789356776,"true"
"image-keyboard-response",258,246229,"0.0-3.82-1.82","qdaoj19kju8x1aa",503,"12.csv","","null","resources/maskTrios/L4BB.jpg","null","",NA,NA,NA,NA,""
"image-keyboard-response",259,247439,"0.0-3.82-2.82","qdaoj19kju8x1aa",503,"12.csv","","null","resources/images/coin2.png","null","",NA,NA,NA,NA,""
"image-keyboard-response",260,247581,"0.0-3.83-0.83","qdaoj19kju8x1aa",503,"12.csv","","140.2000000178814","resources/trios/L1T4A3.jpg","37","restless",0.7,0.4,0.4,0.917188484978572,"false"
"image-keyboard-response",261,247995,"0.0-3.83-1.83","qdaoj19kju8x1aa",503,"12.csv","","null","resources/maskTrios/L1BB.jpg","null","",NA,NA,NA,NA,""
"image-keyboard-response",262,249202,"0.0-3.83-2.83","qdaoj19kju8x1aa",503,"12.csv","","null","resources/images/fishbone.png","null","",NA,NA,NA,NA,""
"image-keyboard-response",263,249490,"0.0-3.84-0.84","qdaoj19kju8x1aa",503,"12.csv","","286.39999997615814","resources/trios/L4T1A2.jpg","39","restless",0.7,0.4,0.4,0.0785136360201677,"true"
"image-keyboard-response",264,249897,"0.0-3.84-1.84","qdaoj19kju8x1aa",503,"12.csv","","null","resources/maskTrios/BBA2.jpg","null","",NA,NA,NA,NA,""
"image-keyboard-response",265,251104,"0.0-3.84-2.84","qdaoj19kju8x1aa",503,"12.csv","","null","resources/images/coin2.png","null","",NA,NA,NA,NA,""
"image-keyboard-response",266,251345,"0.0-3.85-0.85","qdaoj19kju8x1aa",503,"12.csv","","239.90000000596046","resources/trios/L4T1A2.jpg","39","restless",0.7,0.4,0.4,0.126651143886446,"true"
"image-keyboard-response",267,251754,"0.0-3.85-1.85","qdaoj19kju8x1aa",503,"12.csv","","null","resources/maskTrios/BBA2.jpg","null","",NA,NA,NA,NA,""
"image-keyboard-response",268,252961,"0.0-3.85-2.85","qdaoj19kju8x1aa",503,"12.csv","","null","resources/images/coin2.png","null","",NA,NA,NA,NA,""
"image-keyboard-response",269,253172,"0.0-3.86-0.86","qdaoj19kju8x1aa",503,"12.csv","","209.09999999403954","resources/trios/L1T1A2.jpg","39","restless",0.7,0.4,0.5,0.427903323292318,"true"
"image-keyboard-response",270,253580,"0.0-3.86-1.86","qdaoj19kju8x1aa",503,"12.csv","","null","resources/maskTrios/BBA2.jpg","null","",NA,NA,NA,NA,""
"image-keyboard-response",271,254787,"0.0-3.86-2.86","qdaoj19kju8x1aa",503,"12.csv","","null","resources/images/coin2.png","null","",NA,NA,NA,NA,""
"image-keyboard-response",272,254982,"0.0-3.87-0.87","qdaoj19kju8x1aa",503,"12.csv","","193.90000000596046","resources/trios/L1T4A2.jpg","39","restless",0.7,0.4,0.5,0.630151983158389,"false"
"image-keyboard-response",273,255391,"0.0-3.87-1.87","qdaoj19kju8x1aa",503,"12.csv","","null","resources/maskTrios/BBA2.jpg","null","",NA,NA,NA,NA,""
"image-keyboard-response",274,256601,"0.0-3.87-2.87","qdaoj19kju8x1aa",503,"12.csv","","null","resources/images/fishbone.png","null","",NA,NA,NA,NA,""
"image-keyboard-response",275,256697,"0.0-3.88-0.88","qdaoj19kju8x1aa",503,"12.csv","","94","resources/trios/L4T1A2.jpg","38","restless",0.7,0.5,0.5,0.924357370752783,"false"
"image-keyboard-response",276,257110,"0.0-3.88-1.88","qdaoj19kju8x1aa",503,"12.csv","","null","resources/maskTrios/BT1B.jpg","null","",NA,NA,NA,NA,""
"image-keyboard-response",277,258317,"0.0-3.88-2.88","qdaoj19kju8x1aa",503,"12.csv","","null","resources/images/fishbone.png","null","",NA,NA,NA,NA,""
"image-keyboard-response",278,258477,"0.0-3.89-0.89","qdaoj19kju8x1aa",503,"12.csv","","159.40000000596046","resources/trios/L1T1A3.jpg","37","restless",0.7,0.5,0.5,0.543861770953014,"true"
"image-keyboard-response",279,258887,"0.0-3.89-1.89","qdaoj19kju8x1aa",503,"12.csv","","null","resources/maskTrios/L1BB.jpg","null","",NA,NA,NA,NA,""
"image-keyboard-response",280,260100,"0.0-3.89-2.89","qdaoj19kju8x1aa",503,"12.csv","","null","resources/images/coin2.png","null","",NA,NA,NA,NA,""
"image-keyboard-response",281,260223,"0.0-3.90-0.90","qdaoj19kju8x1aa",503,"12.csv","","122","resources/trios/L4T4A2.jpg","37","restless",0.7,0.5,0.5,0.464734955335003,"true"
"image-keyboard-response",282,260630,"0.0-3.90-1.90","qdaoj19kju8x1aa",503,"12.csv","","null","resources/maskTrios/L4BB.jpg","null","",NA,NA,NA,NA,""
"image-keyboard-response",283,261837,"0.0-3.90-2.90","qdaoj19kju8x1aa",503,"12.csv","","null","resources/images/coin2.png","null","",NA,NA,NA,NA,""
"image-keyboard-response",284,262095,"0.0-3.91-0.91","qdaoj19kju8x1aa",503,"12.csv","","256.90000000596046","resources/trios/L4T1A3.jpg","37","restless",0.7,0.5,0.5,0.0511198918927864,"true"
"image-keyboard-response",285,262506,"0.0-3.91-1.91","qdaoj19kju8x1aa",503,"12.csv","","null","resources/maskTrios/L4BB.jpg","null","",NA,NA,NA,NA,""
"image-keyboard-response",286,263710,"0.0-3.91-2.91","qdaoj19kju8x1aa",503,"12.csv","","null","resources/images/coin2.png","null","",NA,NA,NA,NA,""
"image-keyboard-response",287,263925,"0.0-3.92-0.92","qdaoj19kju8x1aa",503,"12.csv","","214.09999999403954","resources/trios/L4T4A3.jpg","37","restless",0.7,0.5,0.5,0.755179684770296,"false"
"image-keyboard-response",288,264332,"0.0-3.92-1.92","qdaoj19kju8x1aa",503,"12.csv","","null","resources/maskTrios/L4BB.jpg","null","",NA,NA,NA,NA,""
"image-keyboard-response",289,265536,"0.0-3.92-2.92","qdaoj19kju8x1aa",503,"12.csv","","null","resources/images/fishbone.png","null","",NA,NA,NA,NA,""
"image-keyboard-response",290,265820,"0.0-3.93-0.93","qdaoj19kju8x1aa",503,"12.csv","","282.40000000596046","resources/trios/L4T4A2.jpg","38","restless",0.7,0.5,0.5,0.572117797911705,"false"
"image-keyboard-response",291,266230,"0.0-3.93-1.93","qdaoj19kju8x1aa",503,"12.csv","","null","resources/maskTrios/BT4B.jpg","null","",NA,NA,NA,NA,""
"image-keyboard-response",292,267434,"0.0-3.93-2.93","qdaoj19kju8x1aa",503,"12.csv","","null","resources/images/fishbone.png","null","",NA,NA,NA,NA,""
"image-keyboard-response",293,267447,"0.0-3.94-0.94","qdaoj19kju8x1aa",503,"12.csv","","10.700000017881393","resources/trios/L1T4A2.jpg","39","restless",0.7,0.5,0.5,0.998750728400383,"false"
"image-keyboard-response",294,267852,"0.0-3.94-1.94","qdaoj19kju8x1aa",503,"12.csv","","null","resources/maskTrios/BBA2.jpg","null","",NA,NA,NA,NA,""
"image-keyboard-response",295,269062,"0.0-3.94-2.94","qdaoj19kju8x1aa",503,"12.csv","","null","resources/images/fishbone.png","null","",NA,NA,NA,NA,""
"image-keyboard-response",296,269227,"0.0-3.95-0.95","qdaoj19kju8x1aa",503,"12.csv","","163.40000000596046","resources/trios/L1T4A3.jpg","37","restless",0.7,0.5,0.5,0.0769587614163354,"true"
"image-keyboard-response",297,269632,"0.0-3.95-1.95","qdaoj19kju8x1aa",503,"12.csv","","null","resources/maskTrios/L1BB.jpg","null","",NA,NA,NA,NA,""
"image-keyboard-response",298,270841,"0.0-3.95-2.95","qdaoj19kju8x1aa",503,"12.csv","","null","resources/images/coin2.png","null","",NA,NA,NA,NA,""
"image-keyboard-response",299,271053,"0.0-3.96-0.96","qdaoj19kju8x1aa",503,"12.csv","","211","resources/trios/L4T1A3.jpg","37","restless",0.7,0.5,0.5,0.338422609919564,"true"
"image-keyboard-response",300,271460,"0.0-3.96-1.96","qdaoj19kju8x1aa",503,"12.csv","","null","resources/maskTrios/L4BB.jpg","null","",NA,NA,NA,NA,""
"image-keyboard-response",301,272672,"0.0-3.96-2.96","qdaoj19kju8x1aa",503,"12.csv","","null","resources/images/coin2.png","null","",NA,NA,NA,NA,""
"image-keyboard-response",302,272830,"0.0-3.97-0.97","qdaoj19kju8x1aa",503,"12.csv","","157.40000000596046","resources/trios/L1T1A2.jpg","37","restless",0.7,0.5,0.5,0.707917514029003,"false"
"image-keyboard-response",303,273233,"0.0-3.97-1.97","qdaoj19kju8x1aa",503,"12.csv","","null","resources/maskTrios/L1BB.jpg","null","",NA,NA,NA,NA,""
"image-keyboard-response",304,274443,"0.0-3.97-2.97","qdaoj19kju8x1aa",503,"12.csv","","null","resources/images/fishbone.png","null","",NA,NA,NA,NA,""
"image-keyboard-response",305,274669,"0.0-3.98-0.98","qdaoj19kju8x1aa",503,"12.csv","","224.2000000178814","resources/trios/L1T4A3.jpg","38","restless",0.7,0.5,0.5,0.514721885852365,"false"
"image-keyboard-response",306,275081,"0.0-3.98-1.98","qdaoj19kju8x1aa",503,"12.csv","","null","resources/maskTrios/BT4B.jpg","null","",NA,NA,NA,NA,""
"image-keyboard-response",307,276293,"0.0-3.98-2.98","qdaoj19kju8x1aa",503,"12.csv","","null","resources/images/fishbone.png","null","",NA,NA,NA,NA,""
"image-keyboard-response",308,276496,"0.0-3.99-0.99","qdaoj19kju8x1aa",503,"12.csv","","202.09999999403954","resources/trios/L1T4A2.jpg","39","restless",0.7,0.5,0.5,0.320740340783155,"true"
"image-keyboard-response",309,276897,"0.0-3.99-1.99","qdaoj19kju8x1aa",503,"12.csv","","null","resources/maskTrios/BBA2.jpg","null","",NA,NA,NA,NA,""
"image-keyboard-response",310,278105,"0.0-3.99-2.99","qdaoj19kju8x1aa",503,"12.csv","","null","resources/images/coin2.png","null","",NA,NA,NA,NA,""
"image-keyboard-response",311,278955,"0.0-3.100-0.100","qdaoj19kju8x1aa",503,"12.csv","","849.4000000059605","resources/trios/L1T4A3.jpg","39","restless",0.7,0.5,0.5,0.344692832283979,"true"
"image-keyboard-response",312,279358,"0.0-3.100-1.100","qdaoj19kju8x1aa",503,"12.csv","","null","resources/maskTrios/BBA3.jpg","null","",NA,NA,NA,NA,""
"image-keyboard-response",313,280570,"0.0-3.100-2.100","qdaoj19kju8x1aa",503,"12.csv","","null","resources/images/coin2.png","null","",NA,NA,NA,NA,""
"image-keyboard-response",314,280827,"0.0-3.101-0.101","qdaoj19kju8x1aa",503,"12.csv","","254.80000001192093","resources/trios/L4T4A2.jpg","39","restless",0.7,0.5,0.5,0.592452575779814,"false"
"image-keyboard-response",315,281233,"0.0-3.101-1.101","qdaoj19kju8x1aa",503,"12.csv","","null","resources/maskTrios/BBA2.jpg","null","",NA,NA,NA,NA,""
"image-keyboard-response",316,282443,"0.0-3.101-2.101","qdaoj19kju8x1aa",503,"12.csv","","null","resources/images/fishbone.png","null","",NA,NA,NA,NA,""
"image-keyboard-response",317,282686,"0.0-3.102-0.102","qdaoj19kju8x1aa",503,"12.csv","","241.5","resources/trios/L1T1A2.jpg","38","restless",0.7,0.5,0.5,0.713887964535421,"false"
"image-keyboard-response",318,283096,"0.0-3.102-1.102","qdaoj19kju8x1aa",503,"12.csv","","null","resources/maskTrios/BT1B.jpg","null","",NA,NA,NA,NA,""
"image-keyboard-response",319,284306,"0.0-3.102-2.102","qdaoj19kju8x1aa",503,"12.csv","","null","resources/images/fishbone.png","null","",NA,NA,NA,NA,""
"image-keyboard-response",320,284342,"0.0-3.103-0.103","qdaoj19kju8x1aa",503,"12.csv","","34.29999998211861","resources/trios/L1T4A2.jpg","37","restless",0.7,0.5,0.5,0.730511923560385,"false"
"image-keyboard-response",321,284756,"0.0-3.103-1.103","qdaoj19kju8x1aa",503,"12.csv","","null","resources/maskTrios/L1BB.jpg","null","",NA,NA,NA,NA,""
"image-keyboard-response",322,285961,"0.0-3.103-2.103","qdaoj19kju8x1aa",503,"12.csv","","null","resources/images/fishbone.png","null","",NA,NA,NA,NA,""
"image-keyboard-response",323,286203,"0.0-3.104-0.104","qdaoj19kju8x1aa",503,"12.csv","","239.90000000596046","resources/trios/L4T4A3.jpg","38","restless",0.7,0.5,0.6,0.40329889391116,"true"
"image-keyboard-response",324,286612,"0.0-3.104-1.104","qdaoj19kju8x1aa",503,"12.csv","","null","resources/maskTrios/BT4B.jpg","null","",NA,NA,NA,NA,""
"image-keyboard-response",325,287820,"0.0-3.104-2.104","qdaoj19kju8x1aa",503,"12.csv","","null","resources/images/coin2.png","null","",NA,NA,NA,NA,""
"image-keyboard-response",326,288048,"0.0-3.105-0.105","qdaoj19kju8x1aa",503,"12.csv","","227","resources/trios/L1T1A2.jpg","38","restless",0.7,0.5,0.6,0.270632306985529,"true"
"image-keyboard-response",327,288461,"0.0-3.105-1.105","qdaoj19kju8x1aa",503,"12.csv","","null","resources/maskTrios/BT1B.jpg","null","",NA,NA,NA,NA,""
"image-keyboard-response",328,289675,"0.0-3.105-2.105","qdaoj19kju8x1aa",503,"12.csv","","null","resources/images/coin2.png","null","",NA,NA,NA,NA,""
"image-keyboard-response",329,289897,"0.0-3.106-0.106","qdaoj19kju8x1aa",503,"12.csv","","221.19999998807907","resources/trios/L1T4A3.jpg","38","restless",0.7,0.5,0.6,0.0653025332787893,"true"
"image-keyboard-response",330,290302,"0.0-3.106-1.106","qdaoj19kju8x1aa",503,"12.csv","","null","resources/maskTrios/BT4B.jpg","null","",NA,NA,NA,NA,""
"image-keyboard-response",331,291509,"0.0-3.106-2.106","qdaoj19kju8x1aa",503,"12.csv","","null","resources/images/coin2.png","null","",NA,NA,NA,NA,""
"image-keyboard-response",332,291734,"0.0-3.107-0.107","qdaoj19kju8x1aa",503,"12.csv","","222.19999998807907","resources/trios/L1T4A2.jpg","38","restless",0.7,0.5,0.6,0.327766821616344,"true"
"image-keyboard-response",333,292144,"0.0-3.107-1.107","qdaoj19kju8x1aa",503,"12.csv","","null","resources/maskTrios/BT4B.jpg","null","",NA,NA,NA,NA,""
"image-keyboard-response",334,293355,"0.0-3.107-2.107","qdaoj19kju8x1aa",503,"12.csv","","null","resources/images/coin2.png","null","",NA,NA,NA,NA,""
"image-keyboard-response",335,293546,"0.0-3.108-0.108","qdaoj19kju8x1aa",503,"12.csv","","189.5","resources/trios/L4T4A3.jpg","38","restless",0.7,0.5,0.5,0.347278065794396,"true"
"image-keyboard-response",336,293959,"0.0-3.108-1.108","qdaoj19kju8x1aa",503,"12.csv","","null","resources/maskTrios/BT4B.jpg","null","",NA,NA,NA,NA,""
"image-keyboard-response",337,295167,"0.0-3.108-2.108","qdaoj19kju8x1aa",503,"12.csv","","null","resources/images/coin2.png","null","",NA,NA,NA,NA,""
"image-keyboard-response",338,295383,"0.0-3.109-0.109","qdaoj19kju8x1aa",503,"12.csv","","214","resources/trios/L4T4A3.jpg","38","restless",0.7,0.5,0.5,0.126179203568884,"true"
"image-keyboard-response",339,295789,"0.0-3.109-1.109","qdaoj19kju8x1aa",503,"12.csv","","null","resources/maskTrios/BT4B.jpg","null","",NA,NA,NA,NA,""
"image-keyboard-response",340,296993,"0.0-3.109-2.109","qdaoj19kju8x1aa",503,"12.csv","","null","resources/images/coin2.png","null","",NA,NA,NA,NA,""
"image-keyboard-response",341,297069,"0.0-3.110-0.110","qdaoj19kju8x1aa",503,"12.csv","","74.60000002384186","resources/trios/L1T4A3.jpg","38","restless",0.7,0.5,0.5,0.225263729197601,"true"
"image-keyboard-response",342,297474,"0.0-3.110-1.110","qdaoj19kju8x1aa",503,"12.csv","","null","resources/maskTrios/BT4B.jpg","null","",NA,NA,NA,NA,""
"image-keyboard-response",343,298687,"0.0-3.110-2.110","qdaoj19kju8x1aa",503,"12.csv","","null","resources/images/coin2.png","null","",NA,NA,NA,NA,""
"image-keyboard-response",344,298897,"0.0-3.111-0.111","qdaoj19kju8x1aa",503,"12.csv","","208.80000001192093","resources/trios/L4T1A2.jpg","38","restless",0.7,0.5,0.5,0.385401800696214,"true"
"image-keyboard-response",345,299309,"0.0-3.111-1.111","qdaoj19kju8x1aa",503,"12.csv","","null","resources/maskTrios/BT1B.jpg","null","",NA,NA,NA,NA,""
"image-keyboard-response",346,300515,"0.0-3.111-2.111","qdaoj19kju8x1aa",503,"12.csv","","null","resources/images/coin2.png","null","",NA,NA,NA,NA,""
"image-keyboard-response",347,300714,"0.0-3.112-0.112","qdaoj19kju8x1aa",503,"12.csv","","196.90000000596046","resources/trios/L1T4A2.jpg","38","restless",0.7,0.5,0.4,0.649399506354901,"false"
"image-keyboard-response",348,301120,"0.0-3.112-1.112","qdaoj19kju8x1aa",503,"12.csv","","null","resources/maskTrios/BT4B.jpg","null","",NA,NA,NA,NA,""
"image-keyboard-response",349,302330,"0.0-3.112-2.112","qdaoj19kju8x1aa",503,"12.csv","","null","resources/images/fishbone.png","null","",NA,NA,NA,NA,""
"image-keyboard-response",350,302595,"0.0-3.113-0.113","qdaoj19kju8x1aa",503,"12.csv","","264.40000000596046","resources/trios/L1T1A3.jpg","37","restless",0.7,0.4,0.4,0.451554601543363,"true"
"image-keyboard-response",351,303011,"0.0-3.113-1.113","qdaoj19kju8x1aa",503,"12.csv","","null","resources/maskTrios/L1BB.jpg","null","",NA,NA,NA,NA,""
"image-keyboard-response",352,304218,"0.0-3.113-2.113","qdaoj19kju8x1aa",503,"12.csv","","null","resources/images/coin2.png","null","",NA,NA,NA,NA,""
"image-keyboard-response",353,304466,"0.0-3.114-0.114","qdaoj19kju8x1aa",503,"12.csv","","246.69999998807907","resources/trios/L4T4A3.jpg","37","restless",0.8,0.3,0.4,0.167060715187473,"true"
"image-keyboard-response",354,304871,"0.0-3.114-1.114","qdaoj19kju8x1aa",503,"12.csv","","null","resources/maskTrios/L4BB.jpg","null","",NA,NA,NA,NA,""
"image-keyboard-response",355,306084,"0.0-3.114-2.114","qdaoj19kju8x1aa",503,"12.csv","","null","resources/images/coin2.png","null","",NA,NA,NA,NA,""
"image-keyboard-response",356,306365,"0.0-3.115-0.115","qdaoj19kju8x1aa",503,"12.csv","","279.40000000596046","resources/trios/L4T4A2.jpg","37","restless",0.8,0.3,0.4,0.747414010912444,"true"
"image-keyboard-response",357,306768,"0.0-3.115-1.115","qdaoj19kju8x1aa",503,"12.csv","","null","resources/maskTrios/L4BB.jpg","null","",NA,NA,NA,NA,""
"image-keyboard-response",358,307976,"0.0-3.115-2.115","qdaoj19kju8x1aa",503,"12.csv","","null","resources/images/coin2.png","null","",NA,NA,NA,NA,""
"image-keyboard-response",359,308245,"0.0-3.116-0.116","qdaoj19kju8x1aa",503,"12.csv","","267.59999999403954","resources/trios/L4T1A2.jpg","37","restless",0.8,0.3,0.4,0.723297368940323,"true"
"image-keyboard-response",360,308657,"0.0-3.116-1.116","qdaoj19kju8x1aa",503,"12.csv","","null","resources/maskTrios/L4BB.jpg","null","",NA,NA,NA,NA,""
"image-keyboard-response",361,309866,"0.0-3.116-2.116","qdaoj19kju8x1aa",503,"12.csv","","null","resources/images/coin2.png","null","",NA,NA,NA,NA,""
"image-keyboard-response",362,309934,"0.0-3.117-0.117","qdaoj19kju8x1aa",503,"12.csv","","66.5","resources/trios/L4T1A2.jpg","37","restless",0.8,0.3,0.4,0.805959643068876,"false"
"image-keyboard-response",363,310348,"0.0-3.117-1.117","qdaoj19kju8x1aa",503,"12.csv","","null","resources/maskTrios/L4BB.jpg","null","",NA,NA,NA,NA,""
"image-keyboard-response",364,311558,"0.0-3.117-2.117","qdaoj19kju8x1aa",503,"12.csv","","null","resources/images/fishbone.png","null","",NA,NA,NA,NA,""
"image-keyboard-response",365,311889,"0.0-3.118-0.118","qdaoj19kju8x1aa",503,"12.csv","","329.39999997615814","resources/trios/L1T1A3.jpg","39","restless",0.8,0.3,0.4,0.925337840171444,"false"
"image-keyboard-response",366,312303,"0.0-3.118-1.118","qdaoj19kju8x1aa",503,"12.csv","","null","resources/maskTrios/BBA3.jpg","null","",NA,NA,NA,NA,""
"image-keyboard-response",367,313509,"0.0-3.118-2.118","qdaoj19kju8x1aa",503,"12.csv","","null","resources/images/fishbone.png","null","",NA,NA,NA,NA,""
"image-keyboard-response",368,313725,"0.0-3.119-0.119","qdaoj19kju8x1aa",503,"12.csv","","214.09999999403954","resources/trios/L1T1A2.jpg","38","restless",0.8,0.3,0.4,0.568702110713261,"false"
"image-keyboard-response",369,314128,"0.0-3.119-1.119","qdaoj19kju8x1aa",503,"12.csv","","null","resources/maskTrios/BT1B.jpg","null","",NA,NA,NA,NA,""
"image-keyboard-response",370,315337,"0.0-3.119-2.119","qdaoj19kju8x1aa",503,"12.csv","","null","resources/images/fishbone.png","null","",NA,NA,NA,NA,""
"image-keyboard-response",371,315660,"0.0-3.120-0.120","qdaoj19kju8x1aa",503,"12.csv","","322.2999999821186","resources/trios/L4T1A2.jpg","39","restless",0.8,0.3,0.4,0.0478060786503733,"true"
"image-keyboard-response",372,316065,"0.0-3.120-1.120","qdaoj19kju8x1aa",503,"12.csv","","null","resources/maskTrios/BBA2.jpg","null","",NA,NA,NA,NA,""
"image-keyboard-response",373,317271,"0.0-3.120-2.120","qdaoj19kju8x1aa",503,"12.csv","","null","resources/images/coin2.png","null","",NA,NA,NA,NA,""
"image-keyboard-response",374,317516,"0.0-3.121-0.121","qdaoj19kju8x1aa",503,"12.csv","","243","resources/trios/L4T4A2.jpg","39","restless",0.7,0.3,0.4,0.489335400957491,"false"
"image-keyboard-response",375,317924,"0.0-3.121-1.121","qdaoj19kju8x1aa",503,"12.csv","","null","resources/maskTrios/BBA2.jpg","null","",NA,NA,NA,NA,""
"image-keyboard-response",376,319126,"0.0-3.121-2.121","qdaoj19kju8x1aa",503,"12.csv","","null","resources/images/fishbone.png","null","",NA,NA,NA,NA,""
"image-keyboard-response",377,319368,"0.0-3.122-0.122","qdaoj19kju8x1aa",503,"12.csv","","240.80000001192093","resources/trios/L4T1A2.jpg","37","restless",0.7,0.3,0.4,0.0439919944422029,"true"
"image-keyboard-response",378,319784,"0.0-3.122-1.122","qdaoj19kju8x1aa",503,"12.csv","","null","resources/maskTrios/L4BB.jpg","null","",NA,NA,NA,NA,""
"image-keyboard-response",379,320994,"0.0-3.122-2.122","qdaoj19kju8x1aa",503,"12.csv","","null","resources/images/coin2.png","null","",NA,NA,NA,NA,""
"image-keyboard-response",380,321186,"0.0-3.123-0.123","qdaoj19kju8x1aa",503,"12.csv","","190.7999999821186","resources/trios/L1T4A2.jpg","37","restless",0.7,0.3,0.4,0.36633437862019,"true"
"image-keyboard-response",381,321596,"0.0-3.123-1.123","qdaoj19kju8x1aa",503,"12.csv","","null","resources/maskTrios/L1BB.jpg","null","",NA,NA,NA,NA,""
"image-keyboard-response",382,322802,"0.0-3.123-2.123","qdaoj19kju8x1aa",503,"12.csv","","null","resources/images/coin2.png","null","",NA,NA,NA,NA,""
"image-keyboard-response",383,323000,"0.0-3.124-0.124","qdaoj19kju8x1aa",503,"12.csv","","196.2000000178814","resources/trios/L4T4A2.jpg","37","restless",0.7,0.3,0.4,0.289702384432656,"true"
"image-keyboard-response",384,323410,"0.0-3.124-1.124","qdaoj19kju8x1aa",503,"12.csv","","null","resources/maskTrios/L4BB.jpg","null","",NA,NA,NA,NA,""
"image-keyboard-response",385,324621,"0.0-3.124-2.124","qdaoj19kju8x1aa",503,"12.csv","","null","resources/images/coin2.png","null","",NA,NA,NA,NA,""
"image-keyboard-response",386,324667,"0.0-3.125-0.125","qdaoj19kju8x1aa",503,"12.csv","","44.80000001192093","resources/trios/L1T1A2.jpg","37","restless",0.7,0.3,0.4,0.658796973999583,"true"
"image-keyboard-response",387,325069,"0.0-3.125-1.125","qdaoj19kju8x1aa",503,"12.csv","","null","resources/maskTrios/L1BB.jpg","null","",NA,NA,NA,NA,""
"image-keyboard-response",388,326277,"0.0-3.125-2.125","qdaoj19kju8x1aa",503,"12.csv","","null","resources/images/coin2.png","null","",NA,NA,NA,NA,""
"image-keyboard-response",389,326747,"0.0-3.126-0.126","qdaoj19kju8x1aa",503,"12.csv","","469.2999999821186","resources/trios/L4T4A2.jpg","37","restless",0.7,0.3,0.4,0.822665312120462,"false"
"image-keyboard-response",390,327159,"0.0-3.126-1.126","qdaoj19kju8x1aa",503,"12.csv","","null","resources/maskTrios/L4BB.jpg","null","",NA,NA,NA,NA,""
"image-keyboard-response",391,328365,"0.0-3.126-2.126","qdaoj19kju8x1aa",503,"12.csv","","null","resources/images/fishbone.png","null","",NA,NA,NA,NA,""
"image-keyboard-response",392,328631,"0.0-3.127-0.127","qdaoj19kju8x1aa",503,"12.csv","","264.19999998807907","resources/trios/L4T4A3.jpg","38","restless",0.7,0.3,0.4,0.630320185580324,"false"
"image-keyboard-response",393,329046,"0.0-3.127-1.127","qdaoj19kju8x1aa",503,"12.csv","","null","resources/maskTrios/BT4B.jpg","null","",NA,NA,NA,NA,""
"image-keyboard-response",394,330252,"0.0-3.127-2.127","qdaoj19kju8x1aa",503,"12.csv","","null","resources/images/fishbone.png","null","",NA,NA,NA,NA,""
"image-keyboard-response",395,330469,"0.0-3.128-0.128","qdaoj19kju8x1aa",503,"12.csv","","215.90000000596046","resources/trios/L1T4A3.jpg","39","restless",0.8,0.3,0.4,0.311485167360988,"true"
"image-keyboard-response",396,330872,"0.0-3.128-1.128","qdaoj19kju8x1aa",503,"12.csv","","null","resources/maskTrios/BBA3.jpg","null","",NA,NA,NA,NA,""
"image-keyboard-response",397,332083,"0.0-3.128-2.128","qdaoj19kju8x1aa",503,"12.csv","","null","resources/images/coin2.png","null","",NA,NA,NA,NA,""
"image-keyboard-response",398,332085,"0.0-3.129-0.129","qdaoj19kju8x1aa",503,"12.csv","","1.2999999821186066","resources/trios/L4T1A2.jpg","39","restless",0.7,0.3,0.5,0.257640466471855,"true"
"image-keyboard-response",399,332501,"0.0-3.129-1.129","qdaoj19kju8x1aa",503,"12.csv","","null","resources/maskTrios/BBA2.jpg","null","",NA,NA,NA,NA,""
"image-keyboard-response",400,333715,"0.0-3.129-2.129","qdaoj19kju8x1aa",503,"12.csv","","null","resources/images/coin2.png","null","",NA,NA,NA,NA,""
"image-keyboard-response",401,333934,"0.0-3.130-0.130","qdaoj19kju8x1aa",503,"12.csv","","218.09999999403954","resources/trios/L4T4A3.jpg","39","restless",0.7,0.3,0.5,0.431911782999293,"true"
"image-keyboard-response",402,334351,"0.0-3.130-1.130","qdaoj19kju8x1aa",503,"12.csv","","null","resources/maskTrios/BBA3.jpg","null","",NA,NA,NA,NA,""
"image-keyboard-response",403,335560,"0.0-3.130-2.130","qdaoj19kju8x1aa",503,"12.csv","","null","resources/images/coin2.png","null","",NA,NA,NA,NA,""
"image-keyboard-response",404,335779,"0.0-3.131-0.131","qdaoj19kju8x1aa",503,"12.csv","","218.19999998807907","resources/trios/L4T1A2.jpg","39","restless",0.7,0.3,0.5,0.944638781740365,"false"
"image-keyboard-response",405,336197,"0.0-3.131-1.131","qdaoj19kju8x1aa",503,"12.csv","","null","resources/maskTrios/BBA2.jpg","null","",NA,NA,NA,NA,""
"image-keyboard-response",406,337406,"0.0-3.131-2.131","qdaoj19kju8x1aa",503,"12.csv","","null","resources/images/fishbone.png","null","",NA,NA,NA,NA,""
"image-keyboard-response",407,337446,"0.0-3.132-0.132","qdaoj19kju8x1aa",503,"12.csv","","39","resources/trios/L4T1A2.jpg","37","restless",0.7,0.3,0.5,0.0554298183969044,"true"
"image-keyboard-response",408,337853,"0.0-3.132-1.132","qdaoj19kju8x1aa",503,"12.csv","","null","resources/maskTrios/L4BB.jpg","null","",NA,NA,NA,NA,""
"image-keyboard-response",409,339061,"0.0-3.132-2.132","qdaoj19kju8x1aa",503,"12.csv","","null","resources/images/coin2.png","null","",NA,NA,NA,NA,""
"image-keyboard-response",410,339067,"0.0-3.133-0.133","qdaoj19kju8x1aa",503,"12.csv","","5.199999988079071","resources/trios/L4T1A3.jpg","37","restless",0.7,0.3,0.5,0.899938014202063,"false"
"image-keyboard-response",411,339478,"0.0-3.133-1.133","qdaoj19kju8x1aa",503,"12.csv","","null","resources/maskTrios/L4BB.jpg","null","",NA,NA,NA,NA,""
"image-keyboard-response",412,340683,"0.0-3.133-2.133","qdaoj19kju8x1aa",503,"12.csv","","null","resources/images/fishbone.png","null","",NA,NA,NA,NA,""
"image-keyboard-response",413,341514,"0.0-3.134-0.134","qdaoj19kju8x1aa",503,"12.csv","","830","resources/trios/L4T1A3.jpg","38","restless",0.6,0.3,0.5,0.019192716596202,"true"
"image-keyboard-response",414,341923,"0.0-3.134-1.134","qdaoj19kju8x1aa",503,"12.csv","","null","resources/maskTrios/BT1B.jpg","null","",NA,NA,NA,NA,""
"image-keyboard-response",415,343129,"0.0-3.134-2.134","qdaoj19kju8x1aa",503,"12.csv","","null","resources/images/coin2.png","null","",NA,NA,NA,NA,""
"image-keyboard-response",416,343342,"0.0-3.135-0.135","qdaoj19kju8x1aa",503,"12.csv","","211.40000000596046","resources/trios/L4T1A3.jpg","38","restless",0.5,0.3,0.5,0.585024633848116,"false"
"image-keyboard-response",417,343751,"0.0-3.135-1.135","qdaoj19kju8x1aa",503,"12.csv","","null","resources/maskTrios/BT1B.jpg","null","",NA,NA,NA,NA,""
"image-keyboard-response",418,344958,"0.0-3.135-2.135","qdaoj19kju8x1aa",503,"12.csv","","null","resources/images/fishbone.png","null","",NA,NA,NA,NA,""
"image-keyboard-response",419,345200,"0.0-3.136-0.136","qdaoj19kju8x1aa",503,"12.csv","","240.39999997615814","resources/trios/L4T4A3.jpg","39","restless",0.5,0.4,0.5,0.693394622995197,"false"
"image-keyboard-response",420,345608,"0.0-3.136-1.136","qdaoj19kju8x1aa",503,"12.csv","","null","resources/maskTrios/BBA3.jpg","null","",NA,NA,NA,NA,""
"image-keyboard-response",421,346821,"0.0-3.136-2.136","qdaoj19kju8x1aa",503,"12.csv","","null","resources/images/fishbone.png","null","",NA,NA,NA,NA,""
"image-keyboard-response",422,346883,"0.0-3.137-0.137","qdaoj19kju8x1aa",503,"12.csv","","61","resources/trios/L1T4A2.jpg","37","restless",0.5,0.4,0.5,0.470939627499819,"true"
"image-keyboard-response",423,347286,"0.0-3.137-1.137","qdaoj19kju8x1aa",503,"12.csv","","null","resources/maskTrios/L1BB.jpg","null","",NA,NA,NA,NA,""
"image-keyboard-response",424,348492,"0.0-3.137-2.137","qdaoj19kju8x1aa",503,"12.csv","","null","resources/images/coin2.png","null","",NA,NA,NA,NA,""
"image-keyboard-response",425,348678,"0.0-3.138-0.138","qdaoj19kju8x1aa",503,"12.csv","","184.59999999403954","resources/trios/L4T4A3.jpg","37","restless",0.5,0.4,0.5,0.206863858698649,"true"
"image-keyboard-response",426,349081,"0.0-3.138-1.138","qdaoj19kju8x1aa",503,"12.csv","","null","resources/maskTrios/L4BB.jpg","null","",NA,NA,NA,NA,""
"image-keyboard-response",427,350290,"0.0-3.138-2.138","qdaoj19kju8x1aa",503,"12.csv","","null","resources/images/coin2.png","null","",NA,NA,NA,NA,""
"image-keyboard-response",428,350538,"0.0-3.139-0.139","qdaoj19kju8x1aa",503,"12.csv","","246.69999998807907","resources/trios/L4T1A2.jpg","37","restless",0.5,0.3,0.5,0.00824747851120256,"true"
"image-keyboard-response",429,350941,"0.0-3.139-1.139","qdaoj19kju8x1aa",503,"12.csv","","null","resources/maskTrios/L4BB.jpg","null","",NA,NA,NA,NA,""
"image-keyboard-response",430,352151,"0.0-3.139-2.139","qdaoj19kju8x1aa",503,"12.csv","","null","resources/images/coin2.png","null","",NA,NA,NA,NA,""
"image-keyboard-response",431,352400,"0.0-3.140-0.140","qdaoj19kju8x1aa",503,"12.csv","","247.30000001192093","resources/trios/L4T1A2.jpg","37","restless",0.5,0.2,0.6,0.538244541723091,"false"
"image-keyboard-response",432,352817,"0.0-3.140-1.140","qdaoj19kju8x1aa",503,"12.csv","","null","resources/maskTrios/L4BB.jpg","null","",NA,NA,NA,NA,""
"image-keyboard-response",433,354030,"0.0-3.140-2.140","qdaoj19kju8x1aa",503,"12.csv","","null","resources/images/fishbone.png","null","",NA,NA,NA,NA,""
"image-keyboard-response",434,354259,"0.0-3.141-0.141","qdaoj19kju8x1aa",503,"12.csv","","227.40000000596046","resources/trios/L1T1A2.jpg","38","restless",0.5,0.2,0.6,0.393145629089925,"false"
"image-keyboard-response",435,354666,"0.0-3.141-1.141","qdaoj19kju8x1aa",503,"12.csv","","null","resources/maskTrios/BT1B.jpg","null","",NA,NA,NA,NA,""
"image-keyboard-response",436,355872,"0.0-3.141-2.141","qdaoj19kju8x1aa",503,"12.csv","","null","resources/images/fishbone.png","null","",NA,NA,NA,NA,""
"image-keyboard-response",437,356089,"0.0-3.142-0.142","qdaoj19kju8x1aa",503,"12.csv","","215.69999998807907","resources/trios/L4T4A3.jpg","39","restless",0.5,0.2,0.6,0.882039670234665,"false"
"image-keyboard-response",438,356492,"0.0-3.142-1.142","qdaoj19kju8x1aa",503,"12.csv","","null","resources/maskTrios/BBA3.jpg","null","",NA,NA,NA,NA,""
"image-keyboard-response",439,357696,"0.0-3.142-2.142","qdaoj19kju8x1aa",503,"12.csv","","null","resources/images/fishbone.png","null","",NA,NA,NA,NA,""
"image-keyboard-response",440,358135,"0.0-3.143-0.143","qdaoj19kju8x1aa",503,"12.csv","","437.90000000596046","resources/trios/L1T1A2.jpg","37","restless",0.5,0.2,0.5,0.362961143831038,"true"
"image-keyboard-response",441,358540,"0.0-3.143-1.143","qdaoj19kju8x1aa",503,"12.csv","","null","resources/maskTrios/L1BB.jpg","null","",NA,NA,NA,NA,""
"image-keyboard-response",442,359750,"0.0-3.143-2.143","qdaoj19kju8x1aa",503,"12.csv","","null","resources/images/coin2.png","null","",NA,NA,NA,NA,""
"image-keyboard-response",443,359945,"0.0-3.144-0.144","qdaoj19kju8x1aa",503,"12.csv","","194.40000000596046","resources/trios/L1T4A3.jpg","37","restless",0.5,0.2,0.4,0.424931665327795,"true"
"image-keyboard-response",444,360355,"0.0-3.144-1.144","qdaoj19kju8x1aa",503,"12.csv","","null","resources/maskTrios/L1BB.jpg","null","",NA,NA,NA,NA,""
"image-keyboard-response",445,361561,"0.0-3.144-2.144","qdaoj19kju8x1aa",503,"12.csv","","null","resources/images/coin2.png","null","",NA,NA,NA,NA,""
"image-keyboard-response",446,361773,"0.0-3.145-0.145","qdaoj19kju8x1aa",503,"12.csv","","210.90000000596046","resources/trios/L1T1A3.jpg","37","restless",0.5,0.2,0.5,0.466761142528992,"true"
"image-keyboard-response",447,362182,"0.0-3.145-1.145","qdaoj19kju8x1aa",503,"12.csv","","null","resources/maskTrios/L1BB.jpg","null","",NA,NA,NA,NA,""
"image-keyboard-response",448,363393,"0.0-3.145-2.145","qdaoj19kju8x1aa",503,"12.csv","","null","resources/images/coin2.png","null","",NA,NA,NA,NA,""
"image-keyboard-response",449,363656,"0.0-3.146-0.146","qdaoj19kju8x1aa",503,"12.csv","","262.10000002384186","resources/trios/L1T4A2.jpg","37","restless",0.5,0.2,0.5,0.763398477978243,"false"
"image-keyboard-response",450,364060,"0.0-3.146-1.146","qdaoj19kju8x1aa",503,"12.csv","","null","resources/maskTrios/L1BB.jpg","null","",NA,NA,NA,NA,""
"image-keyboard-response",451,365266,"0.0-3.146-2.146","qdaoj19kju8x1aa",503,"12.csv","","null","resources/images/fishbone.png","null","",NA,NA,NA,NA,""
"image-keyboard-response",452,365437,"0.0-3.147-0.147","qdaoj19kju8x1aa",503,"12.csv","","169.59999999403954","resources/trios/L4T4A3.jpg","38","restless",0.5,0.2,0.5,0.974891856397764,"false"
"image-keyboard-response",453,365853,"0.0-3.147-1.147","qdaoj19kju8x1aa",503,"12.csv","","null","resources/maskTrios/BT4B.jpg","null","",NA,NA,NA,NA,""
"image-keyboard-response",454,367063,"0.0-3.147-2.147","qdaoj19kju8x1aa",503,"12.csv","","null","resources/images/fishbone.png","null","",NA,NA,NA,NA,""
"image-keyboard-response",455,367559,"0.0-3.148-0.148","qdaoj19kju8x1aa",503,"12.csv","","494.5","resources/trios/L4T4A2.jpg","37","restless",0.5,0.2,0.5,0.794568301282971,"false"
"image-keyboard-response",456,367967,"0.0-3.148-1.148","qdaoj19kju8x1aa",503,"12.csv","","null","resources/maskTrios/L4BB.jpg","null","",NA,NA,NA,NA,""
"image-keyboard-response",457,369181,"0.0-3.148-2.148","qdaoj19kju8x1aa",503,"12.csv","","null","resources/images/fishbone.png","null","",NA,NA,NA,NA,""
"image-keyboard-response",458,369913,"0.0-3.149-0.149","qdaoj19kju8x1aa",503,"12.csv","","730.7000000178814","resources/trios/L4T1A2.jpg","39","restless",0.5,0.2,0.5,0.35826866427535,"true"
"image-keyboard-response",459,370315,"0.0-3.149-1.149","qdaoj19kju8x1aa",503,"12.csv","","null","resources/maskTrios/BBA2.jpg","null","",NA,NA,NA,NA,""
"image-keyboard-response",460,371523,"0.0-3.149-2.149","qdaoj19kju8x1aa",503,"12.csv","","null","resources/images/coin2.png","null","",NA,NA,NA,NA,""
"image-keyboard-response",461,371753,"0.0-3.150-0.150","qdaoj19kju8x1aa",503,"12.csv","","228.69999998807907","resources/trios/L1T1A2.jpg","39","restless",0.5,0.2,0.5,0.587113826876464,"false"
"image-keyboard-response",462,372159,"0.0-3.150-1.150","qdaoj19kju8x1aa",503,"12.csv","","null","resources/maskTrios/BBA2.jpg","null","",NA,NA,NA,NA,""
"image-keyboard-response",463,373368,"0.0-3.150-2.150","qdaoj19kju8x1aa",503,"12.csv","","null","resources/images/fishbone.png","null","",NA,NA,NA,NA,""
"image-keyboard-response",464,373578,"0.0-3.151-0.151","qdaoj19kju8x1aa",503,"12.csv","","209.09999999403954","resources/trios/L4T4A2.jpg","37","restless",0.5,0.2,0.5,0.590359657340857,"false"
"image-keyboard-response",465,373987,"0.0-3.151-1.151","qdaoj19kju8x1aa",503,"12.csv","","null","resources/maskTrios/L4BB.jpg","null","",NA,NA,NA,NA,""
"image-keyboard-response",466,375193,"0.0-3.151-2.151","qdaoj19kju8x1aa",503,"12.csv","","null","resources/images/fishbone.png","null","",NA,NA,NA,NA,""
"image-keyboard-response",467,375414,"0.0-3.152-0.152","qdaoj19kju8x1aa",503,"12.csv","","219.69999998807907","resources/trios/L1T1A2.jpg","38","restless",0.5,0.2,0.5,0.153161384856883,"true"
"image-keyboard-response",468,375828,"0.0-3.152-1.152","qdaoj19kju8x1aa",503,"12.csv","","null","resources/maskTrios/BT1B.jpg","null","",NA,NA,NA,NA,""
"image-keyboard-response",469,377036,"0.0-3.152-2.152","qdaoj19kju8x1aa",503,"12.csv","","null","resources/images/coin2.png","null","",NA,NA,NA,NA,""
"image-keyboard-response",470,377277,"0.0-3.153-0.153","qdaoj19kju8x1aa",503,"12.csv","","239.5","resources/trios/L4T1A2.jpg","38","restless",0.5,0.2,0.5,0.649685319500412,"false"
"image-keyboard-response",471,377688,"0.0-3.153-1.153","qdaoj19kju8x1aa",503,"12.csv","","null","resources/maskTrios/BT1B.jpg","null","",NA,NA,NA,NA,""
"image-keyboard-response",472,378896,"0.0-3.153-2.153","qdaoj19kju8x1aa",503,"12.csv","","null","resources/images/fishbone.png","null","",NA,NA,NA,NA,""
"image-keyboard-response",473,379176,"0.0-3.154-0.154","qdaoj19kju8x1aa",503,"12.csv","","278.90000000596046","resources/trios/L1T4A2.jpg","37","restless",0.5,0.2,0.5,0.0514974135915998,"true"
"image-keyboard-response",474,379590,"0.0-3.154-1.154","qdaoj19kju8x1aa",503,"12.csv","","null","resources/maskTrios/L1BB.jpg","null","",NA,NA,NA,NA,""
"image-keyboard-response",475,380800,"0.0-3.154-2.154","qdaoj19kju8x1aa",503,"12.csv","","null","resources/images/coin2.png","null","",NA,NA,NA,NA,""
"image-keyboard-response",476,381057,"0.0-3.155-0.155","qdaoj19kju8x1aa",503,"12.csv","","256.59999999403954","resources/trios/L4T1A3.jpg","37","restless",0.4,0.3,0.5,0.705566692277168,"false"
"image-keyboard-response",477,381464,"0.0-3.155-1.155","qdaoj19kju8x1aa",503,"12.csv","","null","resources/maskTrios/L4BB.jpg","null","",NA,NA,NA,NA,""
"image-keyboard-response",478,382671,"0.0-3.155-2.155","qdaoj19kju8x1aa",503,"12.csv","","null","resources/images/fishbone.png","null","",NA,NA,NA,NA,""
"image-keyboard-response",479,383079,"0.0-3.156-0.156","qdaoj19kju8x1aa",503,"12.csv","","406.7000000178814","resources/trios/L1T4A2.jpg","39","restless",0.4,0.3,0.5,0.489930152502358,"true"
"image-keyboard-response",480,383493,"0.0-3.156-1.156","qdaoj19kju8x1aa",503,"12.csv","","null","resources/maskTrios/BBA2.jpg","null","",NA,NA,NA,NA,""
"image-keyboard-response",481,384701,"0.0-3.156-2.156","qdaoj19kju8x1aa",503,"12.csv","","null","resources/images/coin2.png","null","",NA,NA,NA,NA,""
"image-keyboard-response",482,384995,"0.0-3.157-0.157","qdaoj19kju8x1aa",503,"12.csv","","292.90000000596046","resources/trios/L1T1A2.jpg","39","restless",0.4,0.3,0.5,0.485215118846752,"true"
"image-keyboard-response",483,385402,"0.0-3.157-1.157","qdaoj19kju8x1aa",503,"12.csv","","null","resources/maskTrios/BBA2.jpg","null","",NA,NA,NA,NA,""
"image-keyboard-response",484,386612,"0.0-3.157-2.157","qdaoj19kju8x1aa",503,"12.csv","","null","resources/images/coin2.png","null","",NA,NA,NA,NA,""
"image-keyboard-response",485,386841,"0.0-3.158-0.158","qdaoj19kju8x1aa",503,"12.csv","","227.69999998807907","resources/trios/L1T1A2.jpg","39","restless",0.4,0.3,0.5,0.66398712781438,"false"
"image-keyboard-response",486,387244,"0.0-3.158-1.158","qdaoj19kju8x1aa",503,"12.csv","","null","resources/maskTrios/BBA2.jpg","null","",NA,NA,NA,NA,""
"image-keyboard-response",487,388451,"0.0-3.158-2.158","qdaoj19kju8x1aa",503,"12.csv","","null","resources/images/fishbone.png","null","",NA,NA,NA,NA,""
"image-keyboard-response",488,388659,"0.0-3.159-0.159","qdaoj19kju8x1aa",503,"12.csv","","204.89999997615814","resources/trios/L1T4A2.jpg","38","restless",0.3,0.3,0.5,0.404105650867908,"false"
"image-keyboard-response",489,389071,"0.0-3.159-1.159","qdaoj19kju8x1aa",503,"12.csv","","null","resources/maskTrios/BT4B.jpg","null","",NA,NA,NA,NA,""
"image-keyboard-response",490,390280,"0.0-3.159-2.159","qdaoj19kju8x1aa",503,"12.csv","","null","resources/images/fishbone.png","null","",NA,NA,NA,NA,""
"image-keyboard-response",491,390504,"0.0-3.160-0.160","qdaoj19kju8x1aa",503,"12.csv","","223","resources/trios/L4T1A2.jpg","37","restless",0.3,0.3,0.5,0.7239039203516,"false"
"image-keyboard-response",492,390913,"0.0-3.160-1.160","qdaoj19kju8x1aa",503,"12.csv","","null","resources/maskTrios/L4BB.jpg","null","",NA,NA,NA,NA,""
"image-keyboard-response",493,392120,"0.0-3.160-2.160","qdaoj19kju8x1aa",503,"12.csv","","null","resources/images/fishbone.png","null","",NA,NA,NA,NA,""
"image-keyboard-response",494,392508,"0.0-3.161-0.161","qdaoj19kju8x1aa",503,"12.csv","","386.5","resources/trios/L1T1A2.jpg","39","restless",0.3,0.3,0.5,0.129944788184649,"true"
"image-keyboard-response",495,392911,"0.0-3.161-1.161","qdaoj19kju8x1aa",503,"12.csv","","null","resources/maskTrios/BBA2.jpg","null","",NA,NA,NA,NA,""
"image-keyboard-response",496,394119,"0.0-3.161-2.161","qdaoj19kju8x1aa",503,"12.csv","","null","resources/images/coin2.png","null","",NA,NA,NA,NA,""
"image-keyboard-response",497,394955,"0.0-3.162-0.162","qdaoj19kju8x1aa",503,"12.csv","","835.0999999940395","resources/trios/L1T1A2.jpg","39","restless",0.3,0.4,0.5,0.777159280585484,"false"
"image-keyboard-response",498,395358,"0.0-3.162-1.162","qdaoj19kju8x1aa",503,"12.csv","","null","resources/maskTrios/BBA2.jpg","null","",NA,NA,NA,NA,""
"image-keyboard-response",499,396572,"0.0-3.162-2.162","qdaoj19kju8x1aa",503,"12.csv","","null","resources/images/fishbone.png","null","",NA,NA,NA,NA,""
"image-keyboard-response",500,396586,"0.0-3.163-0.163","qdaoj19kju8x1aa",503,"12.csv","","12.800000011920929","resources/trios/L1T1A2.jpg","38","restless",0.4,0.4,0.5,0.605350995904353,"false"
"image-keyboard-response",501,396994,"0.0-3.163-1.163","qdaoj19kju8x1aa",503,"12.csv","","null","resources/maskTrios/BT1B.jpg","null","",NA,NA,NA,NA,""
"image-keyboard-response",502,398198,"0.0-3.163-2.163","qdaoj19kju8x1aa",503,"12.csv","","null","resources/images/fishbone.png","null","",NA,NA,NA,NA,""
"image-keyboard-response",503,398452,"0.0-3.164-0.164","qdaoj19kju8x1aa",503,"12.csv","","253.19999998807907","resources/trios/L1T1A2.jpg","37","restless",0.4,0.4,0.6,0.387488186379784,"true"
"image-keyboard-response",504,398866,"0.0-3.164-1.164","qdaoj19kju8x1aa",503,"12.csv","","null","resources/maskTrios/L1BB.jpg","null","",NA,NA,NA,NA,""
"image-keyboard-response",505,400074,"0.0-3.164-2.164","qdaoj19kju8x1aa",503,"12.csv","","null","resources/images/coin2.png","null","",NA,NA,NA,NA,""
"image-keyboard-response",506,400398,"0.0-3.165-0.165","qdaoj19kju8x1aa",503,"12.csv","","323","resources/trios/L4T4A2.jpg","37","restless",0.4,0.4,0.6,0.679306679082421,"false"
"image-keyboard-response",507,400804,"0.0-3.165-1.165","qdaoj19kju8x1aa",503,"12.csv","","null","resources/maskTrios/L4BB.jpg","null","",NA,NA,NA,NA,""
"image-keyboard-response",508,402014,"0.0-3.165-2.165","qdaoj19kju8x1aa",503,"12.csv","","null","resources/images/fishbone.png","null","",NA,NA,NA,NA,""
"image-keyboard-response",509,435719,"0.0-3.166-0.166","qdaoj19kju8x1aa",503,"12.csv","","33703.30000001192","resources/trios/L1T4A2.jpg","37","restless",0.4,0.4,0.6,0.148529731419802,"true"
"image-keyboard-response",510,436133,"0.0-3.166-1.166","qdaoj19kju8x1aa",503,"12.csv","","null","resources/maskTrios/L1BB.jpg","null","",NA,NA,NA,NA,""
"image-keyboard-response",511,437341,"0.0-3.166-2.166","qdaoj19kju8x1aa",503,"12.csv","","null","resources/images/coin2.png","null","",NA,NA,NA,NA,""
"image-keyboard-response",512,437622,"0.0-3.167-0.167","qdaoj19kju8x1aa",503,"12.csv","","279.59999999403954","resources/trios/L1T4A3.jpg","37","restless",0.4,0.5,0.6,0.768820153144925,"false"
"image-keyboard-response",513,438027,"0.0-3.167-1.167","qdaoj19kju8x1aa",503,"12.csv","","null","resources/maskTrios/L1BB.jpg","null","",NA,NA,NA,NA,""
"image-keyboard-response",514,439238,"0.0-3.167-2.167","qdaoj19kju8x1aa",503,"12.csv","","null","resources/images/fishbone.png","null","",NA,NA,NA,NA,""
"image-keyboard-response",515,439257,"0.0-3.168-0.168","qdaoj19kju8x1aa",503,"12.csv","","17.200000017881393","resources/trios/L4T1A2.jpg","38","restless",0.4,0.5,0.6,0.0479533839861703,"true"
"image-keyboard-response",516,439659,"0.0-3.168-1.168","qdaoj19kju8x1aa",503,"12.csv","","null","resources/maskTrios/BT1B.jpg","null","",NA,NA,NA,NA,""
"image-keyboard-response",517,440876,"0.0-3.168-2.168","qdaoj19kju8x1aa",503,"12.csv","","null","resources/images/coin2.png","null","",NA,NA,NA,NA,""
"image-keyboard-response",518,440923,"0.0-3.169-0.169","qdaoj19kju8x1aa",503,"12.csv","","46.19999998807907","resources/trios/L4T1A3.jpg","38","restless",0.4,0.5,0.6,0.985711838191331,"false"
"image-keyboard-response",519,441326,"0.0-3.169-1.169","qdaoj19kju8x1aa",503,"12.csv","","null","resources/maskTrios/BT1B.jpg","null","",NA,NA,NA,NA,""
"image-keyboard-response",520,442539,"0.0-3.169-2.169","qdaoj19kju8x1aa",503,"12.csv","","null","resources/images/fishbone.png","null","",NA,NA,NA,NA,""
"image-keyboard-response",521,443066,"0.0-3.170-0.170","qdaoj19kju8x1aa",503,"12.csv","","526.1000000238419","resources/trios/L1T4A3.jpg","39","restless",0.4,0.5,0.6,0.375302504797454,"true"
"image-keyboard-response",522,443477,"0.0-3.170-1.170","qdaoj19kju8x1aa",503,"12.csv","","null","resources/maskTrios/BBA3.jpg","null","",NA,NA,NA,NA,""
"image-keyboard-response",523,444691,"0.0-3.170-2.170","qdaoj19kju8x1aa",503,"12.csv","","null","resources/images/coin2.png","null","",NA,NA,NA,NA,""
"image-keyboard-response",524,444868,"0.0-3.171-0.171","qdaoj19kju8x1aa",503,"12.csv","","175.59999999403954","resources/trios/L4T4A3.jpg","39","restless",0.4,0.5,0.6,0.763684656167505,"false"
"image-keyboard-response",525,445284,"0.0-3.171-1.171","qdaoj19kju8x1aa",503,"12.csv","","null","resources/maskTrios/BBA3.jpg","null","",NA,NA,NA,NA,""
"image-keyboard-response",526,446497,"0.0-3.171-2.171","qdaoj19kju8x1aa",503,"12.csv","","null","resources/images/fishbone.png","null","",NA,NA,NA,NA,""
"image-keyboard-response",527,446704,"0.0-3.172-0.172","qdaoj19kju8x1aa",503,"12.csv","","204.7999999821186","resources/trios/L1T1A3.jpg","37","restless",0.4,0.5,0.6,0.788444313119007,"false"
"image-keyboard-response",528,447120,"0.0-3.172-1.172","qdaoj19kju8x1aa",503,"12.csv","","null","resources/maskTrios/L1BB.jpg","null","",NA,NA,NA,NA,""
"image-keyboard-response",529,448330,"0.0-3.172-2.172","qdaoj19kju8x1aa",503,"12.csv","","null","resources/images/fishbone.png","null","",NA,NA,NA,NA,""
"image-keyboard-response",530,448823,"0.0-3.173-0.173","qdaoj19kju8x1aa",503,"12.csv","","492.2000000178814","resources/trios/L1T1A2.jpg","38","restless",0.4,0.5,0.6,0.0340239616491749,"true"
"image-keyboard-response",531,449238,"0.0-3.173-1.173","qdaoj19kju8x1aa",503,"12.csv","","null","resources/maskTrios/BT1B.jpg","null","",NA,NA,NA,NA,""
"image-keyboard-response",532,450442,"0.0-3.173-2.173","qdaoj19kju8x1aa",503,"12.csv","","null","resources/images/coin2.png","null","",NA,NA,NA,NA,""
"image-keyboard-response",533,450719,"0.0-3.174-0.174","qdaoj19kju8x1aa",503,"12.csv","","275.2999999821186","resources/trios/L4T4A3.jpg","39","restless",0.4,0.5,0.6,0.946219859136151,"false"
"image-keyboard-response",534,451125,"0.0-3.174-1.174","qdaoj19kju8x1aa",503,"12.csv","","null","resources/maskTrios/BBA3.jpg","null","",NA,NA,NA,NA,""
"image-keyboard-response",535,452337,"0.0-3.174-2.174","qdaoj19kju8x1aa",503,"12.csv","","null","resources/images/fishbone.png","null","",NA,NA,NA,NA,""
"image-keyboard-response",536,452567,"0.0-3.175-0.175","qdaoj19kju8x1aa",503,"12.csv","","228.2999999821186","resources/trios/L1T1A3.jpg","37","restless",0.4,0.5,0.6,0.196485228906643,"true"
"image-keyboard-response",537,452977,"0.0-3.175-1.175","qdaoj19kju8x1aa",503,"12.csv","","null","resources/maskTrios/L1BB.jpg","null","",NA,NA,NA,NA,""
"image-keyboard-response",538,454192,"0.0-3.175-2.175","qdaoj19kju8x1aa",503,"12.csv","","null","resources/images/coin2.png","null","",NA,NA,NA,NA,""
"image-keyboard-response",539,454595,"0.0-3.176-0.176","qdaoj19kju8x1aa",503,"12.csv","","401.89999997615814","resources/trios/L1T1A3.jpg","37","restless",0.4,0.5,0.6,0.0188679070489932,"true"
"image-keyboard-response",540,454999,"0.0-3.176-1.176","qdaoj19kju8x1aa",503,"12.csv","","null","resources/maskTrios/L1BB.jpg","null","",NA,NA,NA,NA,""
"image-keyboard-response",541,456214,"0.0-3.176-2.176","qdaoj19kju8x1aa",503,"12.csv","","null","resources/images/coin2.png","null","",NA,NA,NA,NA,""
"image-keyboard-response",542,456444,"0.0-3.177-0.177","qdaoj19kju8x1aa",503,"12.csv","","229.09999999403954","resources/trios/L1T4A3.jpg","37","restless",0.4,0.5,0.6,0.117164383678966,"true"
"image-keyboard-response",543,456852,"0.0-3.177-1.177","qdaoj19kju8x1aa",503,"12.csv","","null","resources/maskTrios/L1BB.jpg","null","",NA,NA,NA,NA,""
"image-keyboard-response",544,458066,"0.0-3.177-2.177","qdaoj19kju8x1aa",503,"12.csv","","null","resources/images/coin2.png","null","",NA,NA,NA,NA,""
"image-keyboard-response",545,458210,"0.0-3.178-0.178","qdaoj19kju8x1aa",503,"12.csv","","142.40000000596046","resources/trios/L1T1A3.jpg","37","restless",0.4,0.5,0.6,0.670821180564313,"false"
"image-keyboard-response",546,458626,"0.0-3.178-1.178","qdaoj19kju8x1aa",503,"12.csv","","null","resources/maskTrios/L1BB.jpg","null","",NA,NA,NA,NA,""
"image-keyboard-response",547,459837,"0.0-3.178-2.178","qdaoj19kju8x1aa",503,"12.csv","","null","resources/images/fishbone.png","null","",NA,NA,NA,NA,""
"image-keyboard-response",548,459847,"0.0-3.179-0.179","qdaoj19kju8x1aa",503,"12.csv","","8.899999976158142","resources/trios/L1T1A3.jpg","39","restless",0.4,0.5,0.6,0.28941686676642,"true"
"image-keyboard-response",549,460256,"0.0-3.179-1.179","qdaoj19kju8x1aa",503,"12.csv","","null","resources/maskTrios/BBA3.jpg","null","",NA,NA,NA,NA,""
"image-keyboard-response",550,461458,"0.0-3.179-2.179","qdaoj19kju8x1aa",503,"12.csv","","null","resources/images/coin2.png","null","",NA,NA,NA,NA,""
"image-keyboard-response",551,461573,"0.0-3.180-0.180","qdaoj19kju8x1aa",503,"12.csv","","113.2999999821186","resources/trios/L4T1A2.jpg","39","restless",0.4,0.5,0.6,0.00251789713219042,"true"
"image-keyboard-response",552,461986,"0.0-3.180-1.180","qdaoj19kju8x1aa",503,"12.csv","","null","resources/maskTrios/BBA2.jpg","null","",NA,NA,NA,NA,""
"image-keyboard-response",553,463201,"0.0-3.180-2.180","qdaoj19kju8x1aa",503,"12.csv","","null","resources/images/coin2.png","null","",NA,NA,NA,NA,""
"image-keyboard-response",554,463414,"0.0-3.181-0.181","qdaoj19kju8x1aa",503,"12.csv","","211.40000000596046","resources/trios/L4T1A3.jpg","39","restless",0.4,0.5,0.6,0.25028592813178,"true"
"image-keyboard-response",555,463825,"0.0-3.181-1.181","qdaoj19kju8x1aa",503,"12.csv","","null","resources/maskTrios/BBA3.jpg","null","",NA,NA,NA,NA,""
"image-keyboard-response",556,465027,"0.0-3.181-2.181","qdaoj19kju8x1aa",503,"12.csv","","null","resources/images/coin2.png","null","",NA,NA,NA,NA,""
"image-keyboard-response",557,465138,"0.0-3.182-0.182","qdaoj19kju8x1aa",503,"12.csv","","109.2999999821186","resources/trios/L4T1A2.jpg","39","restless",0.4,0.5,0.6,0.903176342174176,"false"
"image-keyboard-response",558,465543,"0.0-3.182-1.182","qdaoj19kju8x1aa",503,"12.csv","","null","resources/maskTrios/BBA2.jpg","null","",NA,NA,NA,NA,""
"image-keyboard-response",559,466751,"0.0-3.182-2.182","qdaoj19kju8x1aa",503,"12.csv","","null","resources/images/fishbone.png","null","",NA,NA,NA,NA,""
"image-keyboard-response",560,466935,"0.0-3.183-0.183","qdaoj19kju8x1aa",503,"12.csv","","182.5","resources/trios/L1T4A3.jpg","38","restless",0.4,0.4,0.7,0.902878286733549,"false"
"image-keyboard-response",561,467337,"0.0-3.183-1.183","qdaoj19kju8x1aa",503,"12.csv","","null","resources/maskTrios/BT4B.jpg","null","",NA,NA,NA,NA,""
"image-keyboard-response",562,468542,"0.0-3.183-2.183","qdaoj19kju8x1aa",503,"12.csv","","null","resources/images/fishbone.png","null","",NA,NA,NA,NA,""
"image-keyboard-response",563,469026,"0.0-3.184-0.184","qdaoj19kju8x1aa",503,"12.csv","","483","resources/trios/L1T4A3.jpg","37","restless",0.4,0.4,0.7,0.469590972294539,"false"
"image-keyboard-response",564,469440,"0.0-3.184-1.184","qdaoj19kju8x1aa",503,"12.csv","","null","resources/maskTrios/L1BB.jpg","null","",NA,NA,NA,NA,""
"image-keyboard-response",565,470655,"0.0-3.184-2.184","qdaoj19kju8x1aa",503,"12.csv","","null","resources/images/fishbone.png","null","",NA,NA,NA,NA,""
"image-keyboard-response",566,470874,"0.0-3.185-0.185","qdaoj19kju8x1aa",503,"12.csv","","216.90000000596046","resources/trios/L4T4A2.jpg","38","restless",0.4,0.4,0.7,0.818116550461306,"false"
"image-keyboard-response",567,471278,"0.0-3.185-1.185","qdaoj19kju8x1aa",503,"12.csv","","null","resources/maskTrios/BT4B.jpg","null","",NA,NA,NA,NA,""
"image-keyboard-response",568,472494,"0.0-3.185-2.185","qdaoj19kju8x1aa",503,"12.csv","","null","resources/images/fishbone.png","null","",NA,NA,NA,NA,""
"image-keyboard-response",569,472592,"0.0-3.186-0.186","qdaoj19kju8x1aa",503,"12.csv","","95.7999999821186","resources/trios/L4T4A2.jpg","39","restless",0.4,0.4,0.7,0.256688611974577,"true"
"image-keyboard-response",570,473007,"0.0-3.186-1.186","qdaoj19kju8x1aa",503,"12.csv","","null","resources/maskTrios/BBA2.jpg","null","",NA,NA,NA,NA,""
"image-keyboard-response",571,474210,"0.0-3.186-2.186","qdaoj19kju8x1aa",503,"12.csv","","null","resources/images/coin2.png","null","",NA,NA,NA,NA,""
"image-keyboard-response",572,474256,"0.0-3.187-0.187","qdaoj19kju8x1aa",503,"12.csv","","44.70000001788139","resources/trios/L1T4A3.jpg","39","restless",0.4,0.4,0.7,0.420590548842975,"true"
"image-keyboard-response",573,474660,"0.0-3.187-1.187","qdaoj19kju8x1aa",503,"12.csv","","null","resources/maskTrios/BBA3.jpg","null","",NA,NA,NA,NA,""
"image-keyboard-response",574,475876,"0.0-3.187-2.187","qdaoj19kju8x1aa",503,"12.csv","","null","resources/images/coin2.png","null","",NA,NA,NA,NA,""
"image-keyboard-response",575,476223,"0.0-3.188-0.188","qdaoj19kju8x1aa",503,"12.csv","","345.7999999821186","resources/trios/L1T4A3.jpg","39","restless",0.4,0.4,0.7,0.748266798266756,"false"
"image-keyboard-response",576,476636,"0.0-3.188-1.188","qdaoj19kju8x1aa",503,"12.csv","","null","resources/maskTrios/BBA3.jpg","null","",NA,NA,NA,NA,""
"image-keyboard-response",577,477849,"0.0-3.188-2.188","qdaoj19kju8x1aa",503,"12.csv","","null","resources/images/fishbone.png","null","",NA,NA,NA,NA,""
"image-keyboard-response",578,478154,"0.0-3.189-0.189","qdaoj19kju8x1aa",503,"12.csv","","303.60000002384186","resources/trios/L1T4A3.jpg","37","restless",0.4,0.4,0.7,0.193522393830684,"true"
"image-keyboard-response",579,478566,"0.0-3.189-1.189","qdaoj19kju8x1aa",503,"12.csv","","null","resources/maskTrios/L1BB.jpg","null","",NA,NA,NA,NA,""
"image-keyboard-response",580,479780,"0.0-3.189-2.189","qdaoj19kju8x1aa",503,"12.csv","","null","resources/images/coin2.png","null","",NA,NA,NA,NA,""
"image-keyboard-response",581,480020,"0.0-3.190-0.190","qdaoj19kju8x1aa",503,"12.csv","","238.40000000596046","resources/trios/L1T4A2.jpg","37","restless",0.4,0.4,0.8,0.606884186585255,"false"
"image-keyboard-response",582,480433,"0.0-3.190-1.190","qdaoj19kju8x1aa",503,"12.csv","","null","resources/maskTrios/L1BB.jpg","null","",NA,NA,NA,NA,""
"image-keyboard-response",583,481646,"0.0-3.190-2.190","qdaoj19kju8x1aa",503,"12.csv","","null","resources/images/fishbone.png","null","",NA,NA,NA,NA,""
"image-keyboard-response",584,481844,"0.0-3.191-0.191","qdaoj19kju8x1aa",503,"12.csv","","196.40000000596046","resources/trios/L4T1A2.jpg","38","restless",0.4,0.4,0.8,0.181901010954783,"true"
"image-keyboard-response",585,482253,"0.0-3.191-1.191","qdaoj19kju8x1aa",503,"12.csv","","null","resources/maskTrios/BT1B.jpg","null","",NA,NA,NA,NA,""
"image-keyboard-response",586,483469,"0.0-3.191-2.191","qdaoj19kju8x1aa",503,"12.csv","","null","resources/images/coin2.png","null","",NA,NA,NA,NA,""
"image-keyboard-response",587,483521,"0.0-3.192-0.192","qdaoj19kju8x1aa",503,"12.csv","","49.900000005960464","resources/trios/L1T1A2.jpg","38","restless",0.4,0.4,0.8,0.0254035410106062,"true"
"image-keyboard-response",588,483937,"0.0-3.192-1.192","qdaoj19kju8x1aa",503,"12.csv","","null","resources/maskTrios/BT1B.jpg","null","",NA,NA,NA,NA,""
"image-keyboard-response",589,485153,"0.0-3.192-2.192","qdaoj19kju8x1aa",503,"12.csv","","null","resources/images/coin2.png","null","",NA,NA,NA,NA,""
"image-keyboard-response",590,485505,"0.0-3.193-0.193","qdaoj19kju8x1aa",503,"12.csv","","350.90000000596046","resources/trios/L4T4A3.jpg","38","restless",0.4,0.5,0.8,0.918828414893242,"false"
"image-keyboard-response",591,485918,"0.0-3.193-1.193","qdaoj19kju8x1aa",503,"12.csv","","null","resources/maskTrios/BT4B.jpg","null","",NA,NA,NA,NA,""
"image-keyboard-response",592,487134,"0.0-3.193-2.193","qdaoj19kju8x1aa",503,"12.csv","","null","resources/images/fishbone.png","null","",NA,NA,NA,NA,""
"image-keyboard-response",593,487504,"0.0-3.194-0.194","qdaoj19kju8x1aa",503,"12.csv","","368.7999999821186","resources/trios/L4T1A3.jpg","37","restless",0.4,0.5,0.7,0.610791283129477,"false"
"image-keyboard-response",594,487913,"0.0-3.194-1.194","qdaoj19kju8x1aa",503,"12.csv","","null","resources/maskTrios/L4BB.jpg","null","",NA,NA,NA,NA,""
"image-keyboard-response",595,489126,"0.0-3.194-2.194","qdaoj19kju8x1aa",503,"12.csv","","null","resources/images/fishbone.png","null","",NA,NA,NA,NA,""
"image-keyboard-response",596,489567,"0.0-3.195-0.195","qdaoj19kju8x1aa",503,"12.csv","","438.90000000596046","resources/trios/L4T4A2.jpg","38","restless",0.4,0.5,0.7,0.243021495590428,"true"
"image-keyboard-response",597,489981,"0.0-3.195-1.195","qdaoj19kju8x1aa",503,"12.csv","","null","resources/maskTrios/BT4B.jpg","null","",NA,NA,NA,NA,""
"image-keyboard-response",598,491193,"0.0-3.195-2.195","qdaoj19kju8x1aa",503,"12.csv","","null","resources/images/coin2.png","null","",NA,NA,NA,NA,""
"image-keyboard-response",599,532727,"0.0-3.196-0.196","qdaoj19kju8x1aa",503,"12.csv","","41531.80000001192","resources/trios/L1T4A2.jpg","37","restless",0.4,0.5,0.7,0.796629759179805,"false"
"image-keyboard-response",600,533140,"0.0-3.196-1.196","qdaoj19kju8x1aa",503,"12.csv","","null","resources/maskTrios/L1BB.jpg","null","",NA,NA,NA,NA,""
"image-keyboard-response",601,534353,"0.0-3.196-2.196","qdaoj19kju8x1aa",503,"12.csv","","null","resources/images/fishbone.png","null","",NA,NA,NA,NA,""
"image-keyboard-response",602,534624,"0.0-3.197-0.197","qdaoj19kju8x1aa",503,"12.csv","","268.7999999821186","resources/trios/L4T1A3.jpg","38","restless",0.4,0.5,0.8,0.591652453091707,"false"
"image-keyboard-response",603,535039,"0.0-3.197-1.197","qdaoj19kju8x1aa",503,"12.csv","","null","resources/maskTrios/BT1B.jpg","null","",NA,NA,NA,NA,""
"image-keyboard-response",604,536254,"0.0-3.197-2.197","qdaoj19kju8x1aa",503,"12.csv","","null","resources/images/fishbone.png","null","",NA,NA,NA,NA,""
"image-keyboard-response",605,536434,"0.0-3.198-0.198","qdaoj19kju8x1aa",503,"12.csv","","179.10000002384186","resources/trios/L1T4A3.jpg","39","restless",0.5,0.5,0.8,0.0103522060817289,"true"
"image-keyboard-response",606,536847,"0.0-3.198-1.198","qdaoj19kju8x1aa",503,"12.csv","","null","resources/maskTrios/BBA3.jpg","null","",NA,NA,NA,NA,""
"image-keyboard-response",607,538060,"0.0-3.198-2.198","qdaoj19kju8x1aa",503,"12.csv","","null","resources/images/coin2.png","null","",NA,NA,NA,NA,""
"image-keyboard-response",608,538545,"0.0-3.199-0.199","qdaoj19kju8x1aa",503,"12.csv","","483.5","resources/trios/L1T1A2.jpg","39","restless",0.6,0.5,0.8,0.763333280354159,"true"
"image-keyboard-response",609,538948,"0.0-3.199-1.199","qdaoj19kju8x1aa",503,"12.csv","","null","resources/maskTrios/BBA2.jpg","null","",NA,NA,NA,NA,""
