"trial_type","trial_index","time_elapsed","internal_node_id","subject","participantCode","walkNumber","success","rt","stimulus","key_press","test_part","leftProb","midProb","rightProb","generatedNum","correct"
"pavlovia",0,1119,"0.0-0.0","21l76q37rlyfuuy",786,"2.csv","","","","","",NA,NA,NA,NA,""
"fullscreen",1,5196,"0.0-1.0","21l76q37rlyfuuy",786,"2.csv","true","","","","",NA,NA,NA,NA,""
"html-keyboard-response",2,20689,"0.0-2.0-0.0","21l76q37rlyfuuy",786,"2.csv","","15491.700000047684","<p><font size='6'>Arrrgh!</p></font><p>Can you be the best pirate? Try to find lots of gold! But beware, some islands have more gold than others, and over time, the island with the most gold may change. Can YOU figure it out? </p><font size='6'>GOOD LUCK, CAPTAIN!!!</font><p>Press any key to begin</p>","32","",NA,NA,NA,NA,""
"image-keyboard-response",3,23693,"0.0-2.0-1.0","21l76q37rlyfuuy",786,"2.csv","","null","resources/image_sets/111.png","null","",NA,NA,NA,NA,""
"image-keyboard-response",4,31457,"0.0-2.0-2.0","21l76q37rlyfuuy",786,"2.csv","","7762.200000047684","resources/image_sets/left_highlight.png","37","",NA,NA,NA,NA,""
"image-keyboard-response",5,35168,"0.0-2.0-3.0","21l76q37rlyfuuy",786,"2.csv","","3710.100000023842","resources/image_sets/mid_highlight.png","38","",NA,NA,NA,NA,""
"image-keyboard-response",6,36312,"0.0-2.0-4.0","21l76q37rlyfuuy",786,"2.csv","","1143.3000000715256","resources/image_sets/right_highlight.png","39","",NA,NA,NA,NA,""
"image-keyboard-response",7,39554,"0.0-2.0-5.0","21l76q37rlyfuuy",786,"2.csv","","3241.100000023842","resources/image_sets/111.png","13","",NA,NA,NA,NA,""
"image-keyboard-response",8,42637,"0.0-2.0-6.0","21l76q37rlyfuuy",786,"2.csv","","3081.600000023842","resources/images/coin2.png","13","",NA,NA,NA,NA,""
"image-keyboard-response",9,45436,"0.0-2.0-7.0","21l76q37rlyfuuy",786,"2.csv","","2797.600000023842","resources/images/fishbone.png","13","",NA,NA,NA,NA,""
"html-keyboard-response",10,48081,"0.0-2.0-8.0","21l76q37rlyfuuy",786,"2.csv","","2644.2000000476837","<p>Your first journey will be a long one, but you will get a well deserved break at the end</p><p>After the break you will have four more journeys, but each will be much shorter than the first, and you will have breaks in between each</p><p>Press Enter to begin</p>","13","",NA,NA,NA,NA,""
"image-keyboard-response",11,49668,"0.0-3.0-0.0","21l76q37rlyfuuy",786,"2.csv","","1585.0999999046326","resources/trios/L1T1A2.jpg","37","restless",0.9,0.7,0.3,0.274040593164075,"true"
"image-keyboard-response",12,50070,"0.0-3.0-1.0","21l76q37rlyfuuy",786,"2.csv","","null","resources/maskTrios/L1BB.jpg","null","",NA,NA,NA,NA,""
"image-keyboard-response",13,51275,"0.0-3.0-2.0","21l76q37rlyfuuy",786,"2.csv","","null","resources/images/coin2.png","null","",NA,NA,NA,NA,""
"image-keyboard-response",14,54178,"0.0-3.1-0.1","21l76q37rlyfuuy",786,"2.csv","","2900.5999999046326","resources/trios/L2T4A2.jpg","39","restless",0.9,0.7,0.3,0.76971698786327,"false"
"image-keyboard-response",15,54581,"0.0-3.1-1.1","21l76q37rlyfuuy",786,"2.csv","","null","resources/maskTrios/BBA2.jpg","null","",NA,NA,NA,NA,""
"image-keyboard-response",16,55783,"0.0-3.1-2.1","21l76q37rlyfuuy",786,"2.csv","","null","resources/images/fishbone.png","null","",NA,NA,NA,NA,""
"image-keyboard-response",17,56420,"0.0-3.2-0.2","21l76q37rlyfuuy",786,"2.csv","","636","resources/trios/L2T4A1.jpg","37","restless",0.8,0.7,0.3,0.759738651932412,"true"
"image-keyboard-response",18,56822,"0.0-3.2-1.2","21l76q37rlyfuuy",786,"2.csv","","null","resources/maskTrios/L2BB.jpg","null","",NA,NA,NA,NA,""
"image-keyboard-response",19,58024,"0.0-3.2-2.2","21l76q37rlyfuuy",786,"2.csv","","null","resources/images/coin2.png","null","",NA,NA,NA,NA,""
"image-keyboard-response",20,59040,"0.0-3.3-0.3","21l76q37rlyfuuy",786,"2.csv","","1014.2000000476837","resources/trios/L1T4A2.jpg","37","restless",0.8,0.7,0.3,0.214375247957966,"true"
"image-keyboard-response",21,59443,"0.0-3.3-1.3","21l76q37rlyfuuy",786,"2.csv","","null","resources/maskTrios/L1BB.jpg","null","",NA,NA,NA,NA,""
"image-keyboard-response",22,60647,"0.0-3.3-2.3","21l76q37rlyfuuy",786,"2.csv","","null","resources/images/coin2.png","null","",NA,NA,NA,NA,""
"image-keyboard-response",23,61384,"0.0-3.4-0.4","21l76q37rlyfuuy",786,"2.csv","","735.4000000953674","resources/trios/L1T4A1.jpg","37","restless",0.8,0.7,0.3,0.0975289436052149,"true"
"image-keyboard-response",24,61785,"0.0-3.4-1.4","21l76q37rlyfuuy",786,"2.csv","","null","resources/maskTrios/L1BB.jpg","null","",NA,NA,NA,NA,""
"image-keyboard-response",25,62987,"0.0-3.4-2.4","21l76q37rlyfuuy",786,"2.csv","","null","resources/images/coin2.png","null","",NA,NA,NA,NA,""
"image-keyboard-response",26,65259,"0.0-3.5-0.5","21l76q37rlyfuuy",786,"2.csv","","2271","resources/trios/L2T4A2.jpg","37","restless",0.8,0.8,0.3,0.405309785497004,"true"
"image-keyboard-response",27,65662,"0.0-3.5-1.5","21l76q37rlyfuuy",786,"2.csv","","null","resources/maskTrios/L2BB.jpg","null","",NA,NA,NA,NA,""
"image-keyboard-response",28,66866,"0.0-3.5-2.5","21l76q37rlyfuuy",786,"2.csv","","null","resources/images/coin2.png","null","",NA,NA,NA,NA,""
"image-keyboard-response",29,67686,"0.0-3.6-0.6","21l76q37rlyfuuy",786,"2.csv","","819.2000000476837","resources/trios/L2T4A1.jpg","37","restless",0.8,0.8,0.3,0.0679901604545892,"true"
"image-keyboard-response",30,68088,"0.0-3.6-1.6","21l76q37rlyfuuy",786,"2.csv","","null","resources/maskTrios/L2BB.jpg","null","",NA,NA,NA,NA,""
"image-keyboard-response",31,69290,"0.0-3.6-2.6","21l76q37rlyfuuy",786,"2.csv","","null","resources/images/coin2.png","null","",NA,NA,NA,NA,""
"image-keyboard-response",32,70610,"0.0-3.7-0.7","21l76q37rlyfuuy",786,"2.csv","","1319.1000000238419","resources/trios/L2T1A1.jpg","38","restless",0.8,0.8,0.3,0.274715510666716,"true"
"image-keyboard-response",33,71014,"0.0-3.7-1.7","21l76q37rlyfuuy",786,"2.csv","","null","resources/maskTrios/BT1B.jpg","null","",NA,NA,NA,NA,""
"image-keyboard-response",34,72217,"0.0-3.7-2.7","21l76q37rlyfuuy",786,"2.csv","","null","resources/images/coin2.png","null","",NA,NA,NA,NA,""
"image-keyboard-response",35,73787,"0.0-3.8-0.8","21l76q37rlyfuuy",786,"2.csv","","1569.3000000715256","resources/trios/L2T1A2.jpg","38","restless",0.8,0.8,0.3,0.862880506978059,"false"
"image-keyboard-response",36,74190,"0.0-3.8-1.8","21l76q37rlyfuuy",786,"2.csv","","null","resources/maskTrios/BT1B.jpg","null","",NA,NA,NA,NA,""
"image-keyboard-response",37,75391,"0.0-3.8-2.8","21l76q37rlyfuuy",786,"2.csv","","null","resources/images/fishbone.png","null","",NA,NA,NA,NA,""
"image-keyboard-response",38,75802,"0.0-3.9-0.9","21l76q37rlyfuuy",786,"2.csv","","409.89999997615814","resources/trios/L2T4A1.jpg","37","restless",0.8,0.8,0.3,0.64759359298423,"true"
"image-keyboard-response",39,76203,"0.0-3.9-1.9","21l76q37rlyfuuy",786,"2.csv","","null","resources/maskTrios/L2BB.jpg","null","",NA,NA,NA,NA,""
"image-keyboard-response",40,77406,"0.0-3.9-2.9","21l76q37rlyfuuy",786,"2.csv","","null","resources/images/coin2.png","null","",NA,NA,NA,NA,""
"image-keyboard-response",41,79256,"0.0-3.10-0.10","21l76q37rlyfuuy",786,"2.csv","","1848.8000000715256","resources/trios/L1T4A2.jpg","37","restless",0.8,0.8,0.3,0.349921927963548,"true"
"image-keyboard-response",42,79658,"0.0-3.10-1.10","21l76q37rlyfuuy",786,"2.csv","","null","resources/maskTrios/L1BB.jpg","null","",NA,NA,NA,NA,""
"image-keyboard-response",43,80860,"0.0-3.10-2.10","21l76q37rlyfuuy",786,"2.csv","","null","resources/images/coin2.png","null","",NA,NA,NA,NA,""
"image-keyboard-response",44,81572,"0.0-3.11-0.11","21l76q37rlyfuuy",786,"2.csv","","710.6000000238419","resources/trios/L1T4A2.jpg","37","restless",0.8,0.8,0.3,0.465320965056729,"true"
"image-keyboard-response",45,81974,"0.0-3.11-1.11","21l76q37rlyfuuy",786,"2.csv","","null","resources/maskTrios/L1BB.jpg","null","",NA,NA,NA,NA,""
"image-keyboard-response",46,83176,"0.0-3.11-2.11","21l76q37rlyfuuy",786,"2.csv","","null","resources/images/coin2.png","null","",NA,NA,NA,NA,""
"image-keyboard-response",47,84238,"0.0-3.12-0.12","21l76q37rlyfuuy",786,"2.csv","","1060.5","resources/trios/L2T1A2.jpg","37","restless",0.8,0.8,0.3,0.164524497806819,"true"
"image-keyboard-response",48,84639,"0.0-3.12-1.12","21l76q37rlyfuuy",786,"2.csv","","null","resources/maskTrios/L2BB.jpg","null","",NA,NA,NA,NA,""
"image-keyboard-response",49,85840,"0.0-3.12-2.12","21l76q37rlyfuuy",786,"2.csv","","null","resources/images/coin2.png","null","",NA,NA,NA,NA,""
"image-keyboard-response",50,86730,"0.0-3.13-0.13","21l76q37rlyfuuy",786,"2.csv","","888.6999999284744","resources/trios/L1T4A2.jpg","38","restless",0.8,0.8,0.3,0.553858488701128,"true"
"image-keyboard-response",51,87134,"0.0-3.13-1.13","21l76q37rlyfuuy",786,"2.csv","","null","resources/maskTrios/BT4B.jpg","null","",NA,NA,NA,NA,""
"image-keyboard-response",52,88335,"0.0-3.13-2.13","21l76q37rlyfuuy",786,"2.csv","","null","resources/images/coin2.png","null","",NA,NA,NA,NA,""
"image-keyboard-response",53,89185,"0.0-3.14-0.14","21l76q37rlyfuuy",786,"2.csv","","848.8999999761581","resources/trios/L1T1A2.jpg","39","restless",0.8,0.8,0.3,0.00522897992579985,"true"
"image-keyboard-response",54,89587,"0.0-3.14-1.14","21l76q37rlyfuuy",786,"2.csv","","null","resources/maskTrios/BBA2.jpg","null","",NA,NA,NA,NA,""
"image-keyboard-response",55,90790,"0.0-3.14-2.14","21l76q37rlyfuuy",786,"2.csv","","null","resources/images/coin2.png","null","",NA,NA,NA,NA,""
"image-keyboard-response",56,91263,"0.0-3.15-0.15","21l76q37rlyfuuy",786,"2.csv","","471.2000000476837","resources/trios/L1T4A1.jpg","37","restless",0.8,0.8,0.3,0.331683688082037,"true"
"image-keyboard-response",57,91665,"0.0-3.15-1.15","21l76q37rlyfuuy",786,"2.csv","","null","resources/maskTrios/L1BB.jpg","null","",NA,NA,NA,NA,""
"image-keyboard-response",58,92867,"0.0-3.15-2.15","21l76q37rlyfuuy",786,"2.csv","","null","resources/images/coin2.png","null","",NA,NA,NA,NA,""
"image-keyboard-response",59,93341,"0.0-3.16-0.16","21l76q37rlyfuuy",786,"2.csv","","473","resources/trios/L2T1A1.jpg","38","restless",0.8,0.8,0.3,0.25820147575762,"true"
"image-keyboard-response",60,93744,"0.0-3.16-1.16","21l76q37rlyfuuy",786,"2.csv","","null","resources/maskTrios/BT1B.jpg","null","",NA,NA,NA,NA,""
"image-keyboard-response",61,94948,"0.0-3.16-2.16","21l76q37rlyfuuy",786,"2.csv","","null","resources/images/coin2.png","null","",NA,NA,NA,NA,""
"image-keyboard-response",62,95280,"0.0-3.17-0.17","21l76q37rlyfuuy",786,"2.csv","","330.60000002384186","resources/trios/L1T1A2.jpg","37","restless",0.7,0.8,0.3,0.275149972759806,"true"
"image-keyboard-response",63,95683,"0.0-3.17-1.17","21l76q37rlyfuuy",786,"2.csv","","null","resources/maskTrios/L1BB.jpg","null","",NA,NA,NA,NA,""
"image-keyboard-response",64,96885,"0.0-3.17-2.17","21l76q37rlyfuuy",786,"2.csv","","null","resources/images/coin2.png","null","",NA,NA,NA,NA,""
"image-keyboard-response",65,97638,"0.0-3.18-0.18","21l76q37rlyfuuy",786,"2.csv","","752.5","resources/trios/L2T4A2.jpg","37","restless",0.7,0.8,0.3,0.740715320970625,"false"
"image-keyboard-response",66,98040,"0.0-3.18-1.18","21l76q37rlyfuuy",786,"2.csv","","null","resources/maskTrios/L2BB.jpg","null","",NA,NA,NA,NA,""
"image-keyboard-response",67,99242,"0.0-3.18-2.18","21l76q37rlyfuuy",786,"2.csv","","null","resources/images/fishbone.png","null","",NA,NA,NA,NA,""
"image-keyboard-response",68,99881,"0.0-3.19-0.19","21l76q37rlyfuuy",786,"2.csv","","637.8999999761581","resources/trios/L1T1A2.jpg","39","restless",0.7,0.8,0.3,0.360471446537175,"false"
"image-keyboard-response",69,100284,"0.0-3.19-1.19","21l76q37rlyfuuy",786,"2.csv","","null","resources/maskTrios/BBA2.jpg","null","",NA,NA,NA,NA,""
"image-keyboard-response",70,101486,"0.0-3.19-2.19","21l76q37rlyfuuy",786,"2.csv","","null","resources/images/fishbone.png","null","",NA,NA,NA,NA,""
"image-keyboard-response",71,101832,"0.0-3.20-0.20","21l76q37rlyfuuy",786,"2.csv","","344.7000000476837","resources/trios/L1T4A1.jpg","38","restless",0.6,0.8,0.3,0.429441259627753,"true"
"image-keyboard-response",72,102234,"0.0-3.20-1.20","21l76q37rlyfuuy",786,"2.csv","","null","resources/maskTrios/BT4B.jpg","null","",NA,NA,NA,NA,""
"image-keyboard-response",73,103436,"0.0-3.20-2.20","21l76q37rlyfuuy",786,"2.csv","","null","resources/images/coin2.png","null","",NA,NA,NA,NA,""
"image-keyboard-response",74,103774,"0.0-3.21-0.21","21l76q37rlyfuuy",786,"2.csv","","336.60000002384186","resources/trios/L1T1A1.jpg","38","restless",0.6,0.7,0.3,0.329793845030129,"true"
"image-keyboard-response",75,104178,"0.0-3.21-1.21","21l76q37rlyfuuy",786,"2.csv","","null","resources/maskTrios/BT1B.jpg","null","",NA,NA,NA,NA,""
"image-keyboard-response",76,105382,"0.0-3.21-2.21","21l76q37rlyfuuy",786,"2.csv","","null","resources/images/coin2.png","null","",NA,NA,NA,NA,""
"image-keyboard-response",77,105825,"0.0-3.22-0.22","21l76q37rlyfuuy",786,"2.csv","","442","resources/trios/L1T4A1.jpg","38","restless",0.6,0.7,0.3,0.583215822039289,"true"
"image-keyboard-response",78,106228,"0.0-3.22-1.22","21l76q37rlyfuuy",786,"2.csv","","null","resources/maskTrios/BT4B.jpg","null","",NA,NA,NA,NA,""
"image-keyboard-response",79,107432,"0.0-3.22-2.22","21l76q37rlyfuuy",786,"2.csv","","null","resources/images/coin2.png","null","",NA,NA,NA,NA,""
"image-keyboard-response",80,107770,"0.0-3.23-0.23","21l76q37rlyfuuy",786,"2.csv","","337.1999999284744","resources/trios/L2T4A1.jpg","37","restless",0.6,0.7,0.3,0.38148287365889,"true"
"image-keyboard-response",81,108171,"0.0-3.23-1.23","21l76q37rlyfuuy",786,"2.csv","","null","resources/maskTrios/L2BB.jpg","null","",NA,NA,NA,NA,""
"image-keyboard-response",82,109373,"0.0-3.23-2.23","21l76q37rlyfuuy",786,"2.csv","","null","resources/images/coin2.png","null","",NA,NA,NA,NA,""
"image-keyboard-response",83,109765,"0.0-3.24-0.24","21l76q37rlyfuuy",786,"2.csv","","390.60000002384186","resources/trios/L1T4A2.jpg","38","restless",0.5,0.7,0.3,0.0611755123033932,"true"
"image-keyboard-response",84,110166,"0.0-3.24-1.24","21l76q37rlyfuuy",786,"2.csv","","null","resources/maskTrios/BT4B.jpg","null","",NA,NA,NA,NA,""
"image-keyboard-response",85,111369,"0.0-3.24-2.24","21l76q37rlyfuuy",786,"2.csv","","null","resources/images/coin2.png","null","",NA,NA,NA,NA,""
"image-keyboard-response",86,111728,"0.0-3.25-0.25","21l76q37rlyfuuy",786,"2.csv","","358.60000002384186","resources/trios/L1T1A2.jpg","37","restless",0.5,0.6,0.3,0.76584250424422,"false"
"image-keyboard-response",87,112132,"0.0-3.25-1.25","21l76q37rlyfuuy",786,"2.csv","","null","resources/maskTrios/L1BB.jpg","null","",NA,NA,NA,NA,""
"image-keyboard-response",88,113334,"0.0-3.25-2.25","21l76q37rlyfuuy",786,"2.csv","","null","resources/images/fishbone.png","null","",NA,NA,NA,NA,""
"image-keyboard-response",89,113653,"0.0-3.26-0.26","21l76q37rlyfuuy",786,"2.csv","","317.2999999523163","resources/trios/L1T1A2.jpg","38","restless",0.5,0.6,0.2,0.914139196390744,"false"
"image-keyboard-response",90,114055,"0.0-3.26-1.26","21l76q37rlyfuuy",786,"2.csv","","null","resources/maskTrios/BT1B.jpg","null","",NA,NA,NA,NA,""
"image-keyboard-response",91,115256,"0.0-3.26-2.26","21l76q37rlyfuuy",786,"2.csv","","null","resources/images/fishbone.png","null","",NA,NA,NA,NA,""
"image-keyboard-response",92,115560,"0.0-3.27-0.27","21l76q37rlyfuuy",786,"2.csv","","303.5","resources/trios/L1T4A2.jpg","39","restless",0.5,0.6,0.2,0.375349834472341,"false"
"image-keyboard-response",93,115964,"0.0-3.27-1.27","21l76q37rlyfuuy",786,"2.csv","","null","resources/maskTrios/BBA2.jpg","null","",NA,NA,NA,NA,""
"image-keyboard-response",94,117168,"0.0-3.27-2.27","21l76q37rlyfuuy",786,"2.csv","","null","resources/images/fishbone.png","null","",NA,NA,NA,NA,""
"image-keyboard-response",95,117525,"0.0-3.28-0.28","21l76q37rlyfuuy",786,"2.csv","","356.2999999523163","resources/trios/L1T1A1.jpg","37","restless",0.5,0.6,0.3,0.709858504721418,"false"
"image-keyboard-response",96,117928,"0.0-3.28-1.28","21l76q37rlyfuuy",786,"2.csv","","null","resources/maskTrios/L1BB.jpg","null","",NA,NA,NA,NA,""
"image-keyboard-response",97,119132,"0.0-3.28-2.28","21l76q37rlyfuuy",786,"2.csv","","null","resources/images/fishbone.png","null","",NA,NA,NA,NA,""
"image-keyboard-response",98,119471,"0.0-3.29-0.29","21l76q37rlyfuuy",786,"2.csv","","337.60000002384186","resources/trios/L2T4A1.jpg","38","restless",0.5,0.6,0.3,0.930671681117325,"false"
"image-keyboard-response",99,119873,"0.0-3.29-1.29","21l76q37rlyfuuy",786,"2.csv","","null","resources/maskTrios/BT4B.jpg","null","",NA,NA,NA,NA,""
"image-keyboard-response",100,121074,"0.0-3.29-2.29","21l76q37rlyfuuy",786,"2.csv","","null","resources/images/fishbone.png","null","",NA,NA,NA,NA,""
"image-keyboard-response",101,121674,"0.0-3.30-0.30","21l76q37rlyfuuy",786,"2.csv","","597.9000000953674","resources/trios/L2T4A2.jpg","39","restless",0.4,0.6,0.3,0.848920069550263,"false"
"image-keyboard-response",102,122077,"0.0-3.30-1.30","21l76q37rlyfuuy",786,"2.csv","","null","resources/maskTrios/BBA2.jpg","null","",NA,NA,NA,NA,""
"image-keyboard-response",103,123278,"0.0-3.30-2.30","21l76q37rlyfuuy",786,"2.csv","","null","resources/images/fishbone.png","null","",NA,NA,NA,NA,""
"image-keyboard-response",104,123661,"0.0-3.31-0.31","21l76q37rlyfuuy",786,"2.csv","","381.10000002384186","resources/trios/L1T4A2.jpg","37","restless",0.4,0.6,0.3,0.722075636722567,"false"
"image-keyboard-response",105,124062,"0.0-3.31-1.31","21l76q37rlyfuuy",786,"2.csv","","null","resources/maskTrios/L1BB.jpg","null","",NA,NA,NA,NA,""
"image-keyboard-response",106,125265,"0.0-3.31-2.31","21l76q37rlyfuuy",786,"2.csv","","null","resources/images/fishbone.png","null","",NA,NA,NA,NA,""
"image-keyboard-response",107,125654,"0.0-3.32-0.32","21l76q37rlyfuuy",786,"2.csv","","387.7999999523163","resources/trios/L1T1A2.jpg","39","restless",0.4,0.6,0.3,0.987271905717972,"false"
"image-keyboard-response",108,126058,"0.0-3.32-1.32","21l76q37rlyfuuy",786,"2.csv","","null","resources/maskTrios/BBA2.jpg","null","",NA,NA,NA,NA,""
"image-keyboard-response",109,127260,"0.0-3.32-2.32","21l76q37rlyfuuy",786,"2.csv","","null","resources/images/fishbone.png","null","",NA,NA,NA,NA,""
"image-keyboard-response",110,127608,"0.0-3.33-0.33","21l76q37rlyfuuy",786,"2.csv","","346.40000009536743","resources/trios/L1T1A2.jpg","39","restless",0.4,0.6,0.3,0.551305550743967,"false"
"image-keyboard-response",111,128012,"0.0-3.33-1.33","21l76q37rlyfuuy",786,"2.csv","","null","resources/maskTrios/BBA2.jpg","null","",NA,NA,NA,NA,""
"image-keyboard-response",112,129215,"0.0-3.33-2.33","21l76q37rlyfuuy",786,"2.csv","","null","resources/images/fishbone.png","null","",NA,NA,NA,NA,""
"image-keyboard-response",113,129536,"0.0-3.34-0.34","21l76q37rlyfuuy",786,"2.csv","","319.60000002384186","resources/trios/L2T1A2.jpg","39","restless",0.4,0.6,0.3,0.395428315742787,"false"
"image-keyboard-response",114,129939,"0.0-3.34-1.34","21l76q37rlyfuuy",786,"2.csv","","null","resources/maskTrios/BBA2.jpg","null","",NA,NA,NA,NA,""
"image-keyboard-response",115,131141,"0.0-3.34-2.34","21l76q37rlyfuuy",786,"2.csv","","null","resources/images/fishbone.png","null","",NA,NA,NA,NA,""
"image-keyboard-response",116,131521,"0.0-3.35-0.35","21l76q37rlyfuuy",786,"2.csv","","378.59999990463257","resources/trios/L2T1A2.jpg","38","restless",0.4,0.6,0.3,0.578807735645647,"true"
"image-keyboard-response",117,131923,"0.0-3.35-1.35","21l76q37rlyfuuy",786,"2.csv","","null","resources/maskTrios/BT1B.jpg","null","",NA,NA,NA,NA,""
"image-keyboard-response",118,133125,"0.0-3.35-2.35","21l76q37rlyfuuy",786,"2.csv","","null","resources/images/coin2.png","null","",NA,NA,NA,NA,""
"image-keyboard-response",119,133588,"0.0-3.36-0.36","21l76q37rlyfuuy",786,"2.csv","","461.89999997615814","resources/trios/L2T1A1.jpg","38","restless",0.4,0.6,0.3,0.8621034177519,"false"
"image-keyboard-response",120,133990,"0.0-3.36-1.36","21l76q37rlyfuuy",786,"2.csv","","null","resources/maskTrios/BT1B.jpg","null","",NA,NA,NA,NA,""
"image-keyboard-response",121,135193,"0.0-3.36-2.36","21l76q37rlyfuuy",786,"2.csv","","null","resources/images/fishbone.png","null","",NA,NA,NA,NA,""
"image-keyboard-response",122,135488,"0.0-3.37-0.37","21l76q37rlyfuuy",786,"2.csv","","293.40000009536743","resources/trios/L1T4A1.jpg","37","restless",0.4,0.6,0.4,0.284510569090152,"true"
"image-keyboard-response",123,135890,"0.0-3.37-1.37","21l76q37rlyfuuy",786,"2.csv","","null","resources/maskTrios/L1BB.jpg","null","",NA,NA,NA,NA,""
"image-keyboard-response",124,137091,"0.0-3.37-2.37","21l76q37rlyfuuy",786,"2.csv","","null","resources/images/coin2.png","null","",NA,NA,NA,NA,""
"image-keyboard-response",125,137310,"0.0-3.38-0.38","21l76q37rlyfuuy",786,"2.csv","","218.19999992847443","resources/trios/L2T4A2.jpg","37","restless",0.4,0.6,0.4,0.52781455105295,"false"
"image-keyboard-response",126,137714,"0.0-3.38-1.38","21l76q37rlyfuuy",786,"2.csv","","null","resources/maskTrios/L2BB.jpg","null","",NA,NA,NA,NA,""
"image-keyboard-response",127,138918,"0.0-3.38-2.38","21l76q37rlyfuuy",786,"2.csv","","null","resources/images/fishbone.png","null","",NA,NA,NA,NA,""
"image-keyboard-response",128,139368,"0.0-3.39-0.39","21l76q37rlyfuuy",786,"2.csv","","449.09999990463257","resources/trios/L1T4A1.jpg","39","restless",0.4,0.6,0.4,0.0915743931031292,"true"
"image-keyboard-response",129,139769,"0.0-3.39-1.39","21l76q37rlyfuuy",786,"2.csv","","null","resources/maskTrios/BBA1.jpg","null","",NA,NA,NA,NA,""
"image-keyboard-response",130,140971,"0.0-3.39-2.39","21l76q37rlyfuuy",786,"2.csv","","null","resources/images/coin2.png","null","",NA,NA,NA,NA,""
"image-keyboard-response",131,141903,"0.0-3.40-0.40","21l76q37rlyfuuy",786,"2.csv","","930.8999999761581","resources/trios/L1T4A1.jpg","39","restless",0.4,0.6,0.4,0.630767294147916,"false"
"image-keyboard-response",132,142305,"0.0-3.40-1.40","21l76q37rlyfuuy",786,"2.csv","","null","resources/maskTrios/BBA1.jpg","null","",NA,NA,NA,NA,""
"image-keyboard-response",133,143508,"0.0-3.40-2.40","21l76q37rlyfuuy",786,"2.csv","","null","resources/images/fishbone.png","null","",NA,NA,NA,NA,""
"image-keyboard-response",134,143667,"0.0-3.41-0.41","21l76q37rlyfuuy",786,"2.csv","","158.39999997615814","resources/trios/L2T1A2.jpg","38","restless",0.4,0.7,0.4,0.263413217852342,"true"
"image-keyboard-response",135,144069,"0.0-3.41-1.41","21l76q37rlyfuuy",786,"2.csv","","null","resources/maskTrios/BT1B.jpg","null","",NA,NA,NA,NA,""
"image-keyboard-response",136,145270,"0.0-3.41-2.41","21l76q37rlyfuuy",786,"2.csv","","null","resources/images/coin2.png","null","",NA,NA,NA,NA,""
"image-keyboard-response",137,145586,"0.0-3.42-0.42","21l76q37rlyfuuy",786,"2.csv","","315","resources/trios/L2T4A2.jpg","38","restless",0.5,0.7,0.3,0.268630695640554,"true"
"image-keyboard-response",138,145988,"0.0-3.42-1.42","21l76q37rlyfuuy",786,"2.csv","","null","resources/maskTrios/BT4B.jpg","null","",NA,NA,NA,NA,""
"image-keyboard-response",139,147189,"0.0-3.42-2.42","21l76q37rlyfuuy",786,"2.csv","","null","resources/images/coin2.png","null","",NA,NA,NA,NA,""
"image-keyboard-response",140,147521,"0.0-3.43-0.43","21l76q37rlyfuuy",786,"2.csv","","330.6999999284744","resources/trios/L1T4A1.jpg","38","restless",0.5,0.7,0.3,0.144425066660508,"true"
"image-keyboard-response",141,147923,"0.0-3.43-1.43","21l76q37rlyfuuy",786,"2.csv","","null","resources/maskTrios/BT4B.jpg","null","",NA,NA,NA,NA,""
"image-keyboard-response",142,149125,"0.0-3.43-2.43","21l76q37rlyfuuy",786,"2.csv","","null","resources/images/coin2.png","null","",NA,NA,NA,NA,""
"image-keyboard-response",143,149887,"0.0-3.44-0.44","21l76q37rlyfuuy",786,"2.csv","","760.8999999761581","resources/trios/L1T4A2.jpg","38","restless",0.5,0.7,0.3,0.806143868224858,"false"
"image-keyboard-response",144,150289,"0.0-3.44-1.44","21l76q37rlyfuuy",786,"2.csv","","null","resources/maskTrios/BT4B.jpg","null","",NA,NA,NA,NA,""
"image-keyboard-response",145,151491,"0.0-3.44-2.44","21l76q37rlyfuuy",786,"2.csv","","null","resources/images/fishbone.png","null","",NA,NA,NA,NA,""
"image-keyboard-response",146,151873,"0.0-3.45-0.45","21l76q37rlyfuuy",786,"2.csv","","380.2000000476837","resources/trios/L2T1A1.jpg","37","restless",0.5,0.7,0.3,0.912129743621238,"false"
"image-keyboard-response",147,152275,"0.0-3.45-1.45","21l76q37rlyfuuy",786,"2.csv","","null","resources/maskTrios/L2BB.jpg","null","",NA,NA,NA,NA,""
"image-keyboard-response",148,153476,"0.0-3.45-2.45","21l76q37rlyfuuy",786,"2.csv","","null","resources/images/fishbone.png","null","",NA,NA,NA,NA,""
"image-keyboard-response",149,153795,"0.0-3.46-0.46","21l76q37rlyfuuy",786,"2.csv","","317.7999999523163","resources/trios/L2T4A1.jpg","37","restless",0.5,0.7,0.3,0.221251540913523,"true"
"image-keyboard-response",150,154199,"0.0-3.46-1.46","21l76q37rlyfuuy",786,"2.csv","","null","resources/maskTrios/L2BB.jpg","null","",NA,NA,NA,NA,""
"image-keyboard-response",151,155401,"0.0-3.46-2.46","21l76q37rlyfuuy",786,"2.csv","","null","resources/images/coin2.png","null","",NA,NA,NA,NA,""
"image-keyboard-response",152,155765,"0.0-3.47-0.47","21l76q37rlyfuuy",786,"2.csv","","362.1999999284744","resources/trios/L2T4A2.jpg","37","restless",0.5,0.7,0.3,0.198579133351986,"true"
"image-keyboard-response",153,156168,"0.0-3.47-1.47","21l76q37rlyfuuy",786,"2.csv","","null","resources/maskTrios/L2BB.jpg","null","",NA,NA,NA,NA,""
"image-keyboard-response",154,157370,"0.0-3.47-2.47","21l76q37rlyfuuy",786,"2.csv","","null","resources/images/coin2.png","null","",NA,NA,NA,NA,""
"image-keyboard-response",155,158003,"0.0-3.48-0.48","21l76q37rlyfuuy",786,"2.csv","","632","resources/trios/L2T4A1.jpg","37","restless",0.4,0.7,0.3,0.278804997260944,"true"
"image-keyboard-response",156,158405,"0.0-3.48-1.48","21l76q37rlyfuuy",786,"2.csv","","null","resources/maskTrios/L2BB.jpg","null","",NA,NA,NA,NA,""
"image-keyboard-response",157,159607,"0.0-3.48-2.48","21l76q37rlyfuuy",786,"2.csv","","null","resources/images/coin2.png","null","",NA,NA,NA,NA,""
"image-keyboard-response",158,159946,"0.0-3.49-0.49","21l76q37rlyfuuy",786,"2.csv","","337.8000000715256","resources/trios/L1T4A2.jpg","37","restless",0.4,0.8,0.3,0.774391713067175,"false"
"image-keyboard-response",159,160349,"0.0-3.49-1.49","21l76q37rlyfuuy",786,"2.csv","","null","resources/maskTrios/L1BB.jpg","null","",NA,NA,NA,NA,""
"image-keyboard-response",160,161552,"0.0-3.49-2.49","21l76q37rlyfuuy",786,"2.csv","","null","resources/images/fishbone.png","null","",NA,NA,NA,NA,""
"image-keyboard-response",161,163025,"0.0-3.50-0.50","21l76q37rlyfuuy",786,"2.csv","","1472.8999999761581","resources/trios/L1T4A1.jpg","38","restless",0.4,0.8,0.3,0.423116750154129,"true"
"image-keyboard-response",162,163427,"0.0-3.50-1.50","21l76q37rlyfuuy",786,"2.csv","","null","resources/maskTrios/BT4B.jpg","null","",NA,NA,NA,NA,""
"image-keyboard-response",163,164628,"0.0-3.50-2.50","21l76q37rlyfuuy",786,"2.csv","","null","resources/images/coin2.png","null","",NA,NA,NA,NA,""
"image-keyboard-response",164,165308,"0.0-3.51-0.51","21l76q37rlyfuuy",786,"2.csv","","678.5","resources/trios/L2T4A1.jpg","38","restless",0.4,0.8,0.3,0.230058312348771,"true"
"image-keyboard-response",165,165711,"0.0-3.51-1.51","21l76q37rlyfuuy",786,"2.csv","","null","resources/maskTrios/BT4B.jpg","null","",NA,NA,NA,NA,""
"image-keyboard-response",166,166912,"0.0-3.51-2.51","21l76q37rlyfuuy",786,"2.csv","","null","resources/images/coin2.png","null","",NA,NA,NA,NA,""
"image-keyboard-response",167,167439,"0.0-3.52-0.52","21l76q37rlyfuuy",786,"2.csv","","525.3000000715256","resources/trios/L1T4A2.jpg","38","restless",0.4,0.8,0.3,0.912071666812345,"false"
"image-keyboard-response",168,167841,"0.0-3.52-1.52","21l76q37rlyfuuy",786,"2.csv","","null","resources/maskTrios/BT4B.jpg","null","",NA,NA,NA,NA,""
"image-keyboard-response",169,169044,"0.0-3.52-2.52","21l76q37rlyfuuy",786,"2.csv","","null","resources/images/fishbone.png","null","",NA,NA,NA,NA,""
"image-keyboard-response",170,169365,"0.0-3.53-0.53","21l76q37rlyfuuy",786,"2.csv","","319.1999999284744","resources/trios/L1T1A1.jpg","37","restless",0.4,0.8,0.3,0.76133766912517,"false"
"image-keyboard-response",171,169766,"0.0-3.53-1.53","21l76q37rlyfuuy",786,"2.csv","","null","resources/maskTrios/L1BB.jpg","null","",NA,NA,NA,NA,""
"image-keyboard-response",172,170969,"0.0-3.53-2.53","21l76q37rlyfuuy",786,"2.csv","","null","resources/images/fishbone.png","null","",NA,NA,NA,NA,""
"image-keyboard-response",173,171740,"0.0-3.54-0.54","21l76q37rlyfuuy",786,"2.csv","","769.8999999761581","resources/trios/L1T1A2.jpg","38","restless",0.4,0.8,0.3,0.297205424885645,"true"
"image-keyboard-response",174,172142,"0.0-3.54-1.54","21l76q37rlyfuuy",786,"2.csv","","null","resources/maskTrios/BT1B.jpg","null","",NA,NA,NA,NA,""
"image-keyboard-response",175,173346,"0.0-3.54-2.54","21l76q37rlyfuuy",786,"2.csv","","null","resources/images/coin2.png","null","",NA,NA,NA,NA,""
"image-keyboard-response",176,173680,"0.0-3.55-0.55","21l76q37rlyfuuy",786,"2.csv","","332.7999999523163","resources/trios/L2T4A2.jpg","38","restless",0.5,0.8,0.3,0.717678006335249,"true"
"image-keyboard-response",177,174083,"0.0-3.55-1.55","21l76q37rlyfuuy",786,"2.csv","","null","resources/maskTrios/BT4B.jpg","null","",NA,NA,NA,NA,""
"image-keyboard-response",178,175285,"0.0-3.55-2.55","21l76q37rlyfuuy",786,"2.csv","","null","resources/images/coin2.png","null","",NA,NA,NA,NA,""
"image-keyboard-response",179,175630,"0.0-3.56-0.56","21l76q37rlyfuuy",786,"2.csv","","343.39999997615814","resources/trios/L1T1A1.jpg","38","restless",0.5,0.8,0.3,0.0804909277683525,"true"
"image-keyboard-response",180,176033,"0.0-3.56-1.56","21l76q37rlyfuuy",786,"2.csv","","null","resources/maskTrios/BT1B.jpg","null","",NA,NA,NA,NA,""
"image-keyboard-response",181,177236,"0.0-3.56-2.56","21l76q37rlyfuuy",786,"2.csv","","null","resources/images/coin2.png","null","",NA,NA,NA,NA,""
"image-keyboard-response",182,177662,"0.0-3.57-0.57","21l76q37rlyfuuy",786,"2.csv","","423.60000002384186","resources/trios/L1T1A2.jpg","38","restless",0.5,0.8,0.3,0.649173614111501,"true"
"image-keyboard-response",183,178066,"0.0-3.57-1.57","21l76q37rlyfuuy",786,"2.csv","","null","resources/maskTrios/BT1B.jpg","null","",NA,NA,NA,NA,""
"image-keyboard-response",184,179269,"0.0-3.57-2.57","21l76q37rlyfuuy",786,"2.csv","","null","resources/images/coin2.png","null","",NA,NA,NA,NA,""
"image-keyboard-response",185,179698,"0.0-3.58-0.58","21l76q37rlyfuuy",786,"2.csv","","428","resources/trios/L2T4A2.jpg","37","restless",0.5,0.8,0.3,0.863864296062634,"false"
"image-keyboard-response",186,180102,"0.0-3.58-1.58","21l76q37rlyfuuy",786,"2.csv","","null","resources/maskTrios/L2BB.jpg","null","",NA,NA,NA,NA,""
"image-keyboard-response",187,181303,"0.0-3.58-2.58","21l76q37rlyfuuy",786,"2.csv","","null","resources/images/fishbone.png","null","",NA,NA,NA,NA,""
"image-keyboard-response",188,181561,"0.0-3.59-0.59","21l76q37rlyfuuy",786,"2.csv","","257","resources/trios/L2T4A2.jpg","38","restless",0.5,0.8,0.3,0.761525335895364,"true"
"image-keyboard-response",189,181963,"0.0-3.59-1.59","21l76q37rlyfuuy",786,"2.csv","","null","resources/maskTrios/BT4B.jpg","null","",NA,NA,NA,NA,""
"image-keyboard-response",190,183166,"0.0-3.59-2.59","21l76q37rlyfuuy",786,"2.csv","","null","resources/images/coin2.png","null","",NA,NA,NA,NA,""
"image-keyboard-response",191,183425,"0.0-3.60-0.60","21l76q37rlyfuuy",786,"2.csv","","257.2999999523163","resources/trios/L1T1A2.jpg","38","restless",0.5,0.8,0.3,0.241424761056393,"true"
"image-keyboard-response",192,183828,"0.0-3.60-1.60","21l76q37rlyfuuy",786,"2.csv","","null","resources/maskTrios/BT1B.jpg","null","",NA,NA,NA,NA,""
"image-keyboard-response",193,185032,"0.0-3.60-2.60","21l76q37rlyfuuy",786,"2.csv","","null","resources/images/coin2.png","null","",NA,NA,NA,NA,""
"image-keyboard-response",194,185305,"0.0-3.61-0.61","21l76q37rlyfuuy",786,"2.csv","","271.89999997615814","resources/trios/L1T4A1.jpg","38","restless",0.5,0.8,0.3,0.153736976238018,"true"
"image-keyboard-response",195,185707,"0.0-3.61-1.61","21l76q37rlyfuuy",786,"2.csv","","null","resources/maskTrios/BT4B.jpg","null","",NA,NA,NA,NA,""
"image-keyboard-response",196,186908,"0.0-3.61-2.61","21l76q37rlyfuuy",786,"2.csv","","null","resources/images/coin2.png","null","",NA,NA,NA,NA,""
"image-keyboard-response",197,186988,"0.0-3.62-0.62","21l76q37rlyfuuy",786,"2.csv","","78.80000007152557","resources/trios/L1T1A1.jpg","38","restless",0.5,0.9,0.3,0.817833846094533,"true"
"image-keyboard-response",198,187389,"0.0-3.62-1.62","21l76q37rlyfuuy",786,"2.csv","","null","resources/maskTrios/BT1B.jpg","null","",NA,NA,NA,NA,""
"image-keyboard-response",199,188591,"0.0-3.62-2.62","21l76q37rlyfuuy",786,"2.csv","","null","resources/images/coin2.png","null","",NA,NA,NA,NA,""
"image-keyboard-response",200,189803,"0.0-3.63-0.63","21l76q37rlyfuuy",786,"2.csv","","1210.7999999523163","resources/trios/L1T4A2.jpg","38","restless",0.5,0.8,0.3,0.539031188365139,"true"
"image-keyboard-response",201,190205,"0.0-3.63-1.63","21l76q37rlyfuuy",786,"2.csv","","null","resources/maskTrios/BT4B.jpg","null","",NA,NA,NA,NA,""
"image-keyboard-response",202,191407,"0.0-3.63-2.63","21l76q37rlyfuuy",786,"2.csv","","null","resources/images/coin2.png","null","",NA,NA,NA,NA,""
"image-keyboard-response",203,191876,"0.0-3.64-0.64","21l76q37rlyfuuy",786,"2.csv","","468","resources/trios/L2T4A2.jpg","38","restless",0.5,0.8,0.3,0.0711944228481431,"true"
"image-keyboard-response",204,192278,"0.0-3.64-1.64","21l76q37rlyfuuy",786,"2.csv","","null","resources/maskTrios/BT4B.jpg","null","",NA,NA,NA,NA,""
"image-keyboard-response",205,193480,"0.0-3.64-2.64","21l76q37rlyfuuy",786,"2.csv","","null","resources/images/coin2.png","null","",NA,NA,NA,NA,""
"image-keyboard-response",206,195933,"0.0-3.65-0.65","21l76q37rlyfuuy",786,"2.csv","","2451.6999999284744","resources/trios/L2T1A1.jpg","38","restless",0.5,0.8,0.3,0.11758814914921,"true"
"image-keyboard-response",207,196336,"0.0-3.65-1.65","21l76q37rlyfuuy",786,"2.csv","","null","resources/maskTrios/BT1B.jpg","null","",NA,NA,NA,NA,""
"image-keyboard-response",208,197537,"0.0-3.65-2.65","21l76q37rlyfuuy",786,"2.csv","","null","resources/images/coin2.png","null","",NA,NA,NA,NA,""
"image-keyboard-response",209,198047,"0.0-3.66-0.66","21l76q37rlyfuuy",786,"2.csv","","508.2000000476837","resources/trios/L1T4A2.jpg","38","restless",0.5,0.8,0.3,0.715940564493829,"true"
"image-keyboard-response",210,198450,"0.0-3.66-1.66","21l76q37rlyfuuy",786,"2.csv","","null","resources/maskTrios/BT4B.jpg","null","",NA,NA,NA,NA,""
"image-keyboard-response",211,199653,"0.0-3.66-2.66","21l76q37rlyfuuy",786,"2.csv","","null","resources/images/coin2.png","null","",NA,NA,NA,NA,""
"image-keyboard-response",212,199990,"0.0-3.67-0.67","21l76q37rlyfuuy",786,"2.csv","","336.39999997615814","resources/trios/L1T4A1.jpg","38","restless",0.5,0.8,0.3,0.149585930576562,"true"
"image-keyboard-response",213,200391,"0.0-3.67-1.67","21l76q37rlyfuuy",786,"2.csv","","null","resources/maskTrios/BT4B.jpg","null","",NA,NA,NA,NA,""
"image-keyboard-response",214,201594,"0.0-3.67-2.67","21l76q37rlyfuuy",786,"2.csv","","null","resources/images/coin2.png","null","",NA,NA,NA,NA,""
"image-keyboard-response",215,201975,"0.0-3.68-0.68","21l76q37rlyfuuy",786,"2.csv","","379.2999999523163","resources/trios/L1T4A1.jpg","38","restless",0.5,0.9,0.3,0.724012816036785,"true"
"image-keyboard-response",216,202378,"0.0-3.68-1.68","21l76q37rlyfuuy",786,"2.csv","","null","resources/maskTrios/BT4B.jpg","null","",NA,NA,NA,NA,""
"image-keyboard-response",217,203581,"0.0-3.68-2.68","21l76q37rlyfuuy",786,"2.csv","","null","resources/images/coin2.png","null","",NA,NA,NA,NA,""
"image-keyboard-response",218,203822,"0.0-3.69-0.69","21l76q37rlyfuuy",786,"2.csv","","240.10000002384186","resources/trios/L1T4A1.jpg","38","restless",0.5,0.9,0.3,0.902536436975548,"false"
"image-keyboard-response",219,204224,"0.0-3.69-1.69","21l76q37rlyfuuy",786,"2.csv","","null","resources/maskTrios/BT4B.jpg","null","",NA,NA,NA,NA,""
"image-keyboard-response",220,205427,"0.0-3.69-2.69","21l76q37rlyfuuy",786,"2.csv","","null","resources/images/fishbone.png","null","",NA,NA,NA,NA,""
"image-keyboard-response",221,205642,"0.0-3.70-0.70","21l76q37rlyfuuy",786,"2.csv","","214.19999992847443","resources/trios/L2T1A1.jpg","37","restless",0.4,0.9,0.3,0.107164269075062,"true"
"image-keyboard-response",222,206044,"0.0-3.70-1.70","21l76q37rlyfuuy",786,"2.csv","","null","resources/maskTrios/L2BB.jpg","null","",NA,NA,NA,NA,""
"image-keyboard-response",223,207248,"0.0-3.70-2.70","21l76q37rlyfuuy",786,"2.csv","","null","resources/images/coin2.png","null","",NA,NA,NA,NA,""
"image-keyboard-response",224,207489,"0.0-3.71-0.71","21l76q37rlyfuuy",786,"2.csv","","240","resources/trios/L1T1A2.jpg","38","restless",0.5,0.9,0.3,0.793249680933973,"true"
"image-keyboard-response",225,207892,"0.0-3.71-1.71","21l76q37rlyfuuy",786,"2.csv","","null","resources/maskTrios/BT1B.jpg","null","",NA,NA,NA,NA,""
"image-keyboard-response",226,209094,"0.0-3.71-2.71","21l76q37rlyfuuy",786,"2.csv","","null","resources/images/coin2.png","null","",NA,NA,NA,NA,""
"image-keyboard-response",227,209339,"0.0-3.72-0.72","21l76q37rlyfuuy",786,"2.csv","","244.29999995231628","resources/trios/L1T1A2.jpg","37","restless",0.5,0.8,0.3,0.538109541055109,"false"
"image-keyboard-response",228,209741,"0.0-3.72-1.72","21l76q37rlyfuuy",786,"2.csv","","null","resources/maskTrios/L1BB.jpg","null","",NA,NA,NA,NA,""
"image-keyboard-response",229,210943,"0.0-3.72-2.72","21l76q37rlyfuuy",786,"2.csv","","null","resources/images/fishbone.png","null","",NA,NA,NA,NA,""
"image-keyboard-response",230,211215,"0.0-3.73-0.73","21l76q37rlyfuuy",786,"2.csv","","271.7000000476837","resources/trios/L2T1A1.jpg","38","restless",0.5,0.8,0.3,0.158443972051779,"true"
"image-keyboard-response",231,211617,"0.0-3.73-1.73","21l76q37rlyfuuy",786,"2.csv","","null","resources/maskTrios/BT1B.jpg","null","",NA,NA,NA,NA,""
"image-keyboard-response",232,212819,"0.0-3.73-2.73","21l76q37rlyfuuy",786,"2.csv","","null","resources/images/coin2.png","null","",NA,NA,NA,NA,""
"image-keyboard-response",233,213111,"0.0-3.74-0.74","21l76q37rlyfuuy",786,"2.csv","","291.10000002384186","resources/trios/L1T1A2.jpg","39","restless",0.5,0.8,0.3,0.750490036864063,"false"
"image-keyboard-response",234,213513,"0.0-3.74-1.74","21l76q37rlyfuuy",786,"2.csv","","null","resources/maskTrios/BBA2.jpg","null","",NA,NA,NA,NA,""
"image-keyboard-response",235,214717,"0.0-3.74-2.74","21l76q37rlyfuuy",786,"2.csv","","null","resources/images/fishbone.png","null","",NA,NA,NA,NA,""
"image-keyboard-response",236,215077,"0.0-3.75-0.75","21l76q37rlyfuuy",786,"2.csv","","358.89999997615814","resources/trios/L1T1A1.jpg","38","restless",0.5,0.7,0.3,0.834087906594025,"false"
"image-keyboard-response",237,215480,"0.0-3.75-1.75","21l76q37rlyfuuy",786,"2.csv","","null","resources/maskTrios/BT1B.jpg","null","",NA,NA,NA,NA,""
"image-keyboard-response",238,216683,"0.0-3.75-2.75","21l76q37rlyfuuy",786,"2.csv","","null","resources/images/fishbone.png","null","",NA,NA,NA,NA,""
"image-keyboard-response",239,216969,"0.0-3.76-0.76","21l76q37rlyfuuy",786,"2.csv","","284.2000000476837","resources/trios/L2T4A2.jpg","37","restless",0.5,0.7,0.3,0.624090298863003,"false"
"image-keyboard-response",240,217370,"0.0-3.76-1.76","21l76q37rlyfuuy",786,"2.csv","","null","resources/maskTrios/L2BB.jpg","null","",NA,NA,NA,NA,""
"image-keyboard-response",241,218571,"0.0-3.76-2.76","21l76q37rlyfuuy",786,"2.csv","","null","resources/images/fishbone.png","null","",NA,NA,NA,NA,""
"image-keyboard-response",242,218868,"0.0-3.77-0.77","21l76q37rlyfuuy",786,"2.csv","","296.10000002384186","resources/trios/L2T4A1.jpg","37","restless",0.5,0.7,0.3,0.595084517770333,"false"
"image-keyboard-response",243,219270,"0.0-3.77-1.77","21l76q37rlyfuuy",786,"2.csv","","null","resources/maskTrios/L2BB.jpg","null","",NA,NA,NA,NA,""
"image-keyboard-response",244,220471,"0.0-3.77-2.77","21l76q37rlyfuuy",786,"2.csv","","null","resources/images/fishbone.png","null","",NA,NA,NA,NA,""
"image-keyboard-response",245,220707,"0.0-3.78-0.78","21l76q37rlyfuuy",786,"2.csv","","234.89999997615814","resources/trios/L1T4A2.jpg","38","restless",0.5,0.7,0.3,0.970577888566791,"false"
"image-keyboard-response",246,221109,"0.0-3.78-1.78","21l76q37rlyfuuy",786,"2.csv","","null","resources/maskTrios/BT4B.jpg","null","",NA,NA,NA,NA,""
"image-keyboard-response",247,222312,"0.0-3.78-2.78","21l76q37rlyfuuy",786,"2.csv","","null","resources/images/fishbone.png","null","",NA,NA,NA,NA,""
"image-keyboard-response",248,222792,"0.0-3.79-0.79","21l76q37rlyfuuy",786,"2.csv","","477.89999997615814","resources/trios/L2T4A2.jpg","38","restless",0.5,0.7,0.3,0.72509549170626,"false"
"image-keyboard-response",249,223194,"0.0-3.79-1.79","21l76q37rlyfuuy",786,"2.csv","","null","resources/maskTrios/BT4B.jpg","null","",NA,NA,NA,NA,""
"image-keyboard-response",250,224396,"0.0-3.79-2.79","21l76q37rlyfuuy",786,"2.csv","","null","resources/images/fishbone.png","null","",NA,NA,NA,NA,""
"image-keyboard-response",251,224588,"0.0-3.80-0.80","21l76q37rlyfuuy",786,"2.csv","","191.39999997615814","resources/trios/L2T4A1.jpg","39","restless",0.5,0.7,0.3,0.805914142764591,"false"
"image-keyboard-response",252,224990,"0.0-3.80-1.80","21l76q37rlyfuuy",786,"2.csv","","null","resources/maskTrios/BBA1.jpg","null","",NA,NA,NA,NA,""
"image-keyboard-response",253,226192,"0.0-3.80-2.80","21l76q37rlyfuuy",786,"2.csv","","null","resources/images/fishbone.png","null","",NA,NA,NA,NA,""
"image-keyboard-response",254,226621,"0.0-3.81-0.81","21l76q37rlyfuuy",786,"2.csv","","428.5","resources/trios/L1T1A2.jpg","38","restless",0.5,0.7,0.3,0.798753533363044,"false"
"image-keyboard-response",255,227023,"0.0-3.81-1.81","21l76q37rlyfuuy",786,"2.csv","","null","resources/maskTrios/BT1B.jpg","null","",NA,NA,NA,NA,""
"image-keyboard-response",256,228226,"0.0-3.81-2.81","21l76q37rlyfuuy",786,"2.csv","","null","resources/images/fishbone.png","null","",NA,NA,NA,NA,""
"image-keyboard-response",257,228533,"0.0-3.82-0.82","21l76q37rlyfuuy",786,"2.csv","","305.7999999523163","resources/trios/L1T1A2.jpg","37","restless",0.6,0.7,0.3,0.71807577324411,"false"
"image-keyboard-response",258,228936,"0.0-3.82-1.82","21l76q37rlyfuuy",786,"2.csv","","null","resources/maskTrios/L1BB.jpg","null","",NA,NA,NA,NA,""
"image-keyboard-response",259,230137,"0.0-3.82-2.82","21l76q37rlyfuuy",786,"2.csv","","null","resources/images/fishbone.png","null","",NA,NA,NA,NA,""
"image-keyboard-response",260,230622,"0.0-3.83-0.83","21l76q37rlyfuuy",786,"2.csv","","483.89999997615814","resources/trios/L1T4A2.jpg","39","restless",0.6,0.6,0.3,0.244953933004346,"true"
"image-keyboard-response",261,231024,"0.0-3.83-1.83","21l76q37rlyfuuy",786,"2.csv","","null","resources/maskTrios/BBA2.jpg","null","",NA,NA,NA,NA,""
"image-keyboard-response",262,232227,"0.0-3.83-2.83","21l76q37rlyfuuy",786,"2.csv","","null","resources/images/coin2.png","null","",NA,NA,NA,NA,""
"image-keyboard-response",263,232461,"0.0-3.84-0.84","21l76q37rlyfuuy",786,"2.csv","","232.70000004768372","resources/trios/L2T4A1.jpg","39","restless",0.6,0.6,0.3,0.602173762339309,"false"
"image-keyboard-response",264,232865,"0.0-3.84-1.84","21l76q37rlyfuuy",786,"2.csv","","null","resources/maskTrios/BBA1.jpg","null","",NA,NA,NA,NA,""
"image-keyboard-response",265,234069,"0.0-3.84-2.84","21l76q37rlyfuuy",786,"2.csv","","null","resources/images/fishbone.png","null","",NA,NA,NA,NA,""
"image-keyboard-response",266,234396,"0.0-3.85-0.85","21l76q37rlyfuuy",786,"2.csv","","325.60000002384186","resources/trios/L1T4A2.jpg","38","restless",0.6,0.6,0.3,0.812124283864304,"false"
"image-keyboard-response",267,234799,"0.0-3.85-1.85","21l76q37rlyfuuy",786,"2.csv","","null","resources/maskTrios/BT4B.jpg","null","",NA,NA,NA,NA,""
"image-keyboard-response",268,236001,"0.0-3.85-2.85","21l76q37rlyfuuy",786,"2.csv","","null","resources/images/fishbone.png","null","",NA,NA,NA,NA,""
"image-keyboard-response",269,236779,"0.0-3.86-0.86","21l76q37rlyfuuy",786,"2.csv","","777","resources/trios/L1T1A2.jpg","37","restless",0.5,0.6,0.3,0.70315529999908,"false"
"image-keyboard-response",270,237181,"0.0-3.86-1.86","21l76q37rlyfuuy",786,"2.csv","","null","resources/maskTrios/L1BB.jpg","null","",NA,NA,NA,NA,""
"image-keyboard-response",271,238384,"0.0-3.86-2.86","21l76q37rlyfuuy",786,"2.csv","","null","resources/images/fishbone.png","null","",NA,NA,NA,NA,""
"image-keyboard-response",272,238653,"0.0-3.87-0.87","21l76q37rlyfuuy",786,"2.csv","","268.10000002384186","resources/trios/L1T1A2.jpg","38","restless",0.5,0.6,0.3,0.374426918036493,"true"
"image-keyboard-response",273,239054,"0.0-3.87-1.87","21l76q37rlyfuuy",786,"2.csv","","null","resources/maskTrios/BT1B.jpg","null","",NA,NA,NA,NA,""
"image-keyboard-response",274,240256,"0.0-3.87-2.87","21l76q37rlyfuuy",786,"2.csv","","null","resources/images/coin2.png","null","",NA,NA,NA,NA,""
"image-keyboard-response",275,240661,"0.0-3.88-0.88","21l76q37rlyfuuy",786,"2.csv","","404.39999997615814","resources/trios/L1T1A1.jpg","38","restless",0.5,0.6,0.4,0.205280552132845,"true"
"image-keyboard-response",276,241065,"0.0-3.88-1.88","21l76q37rlyfuuy",786,"2.csv","","null","resources/maskTrios/BT1B.jpg","null","",NA,NA,NA,NA,""
"image-keyboard-response",277,242267,"0.0-3.88-2.88","21l76q37rlyfuuy",786,"2.csv","","null","resources/images/coin2.png","null","",NA,NA,NA,NA,""
"image-keyboard-response",278,242625,"0.0-3.89-0.89","21l76q37rlyfuuy",786,"2.csv","","356.10000002384186","resources/trios/L2T4A2.jpg","38","restless",0.5,0.6,0.4,0.780624438891396,"false"
"image-keyboard-response",279,243026,"0.0-3.89-1.89","21l76q37rlyfuuy",786,"2.csv","","null","resources/maskTrios/BT4B.jpg","null","",NA,NA,NA,NA,""
"image-keyboard-response",280,244228,"0.0-3.89-2.89","21l76q37rlyfuuy",786,"2.csv","","null","resources/images/fishbone.png","null","",NA,NA,NA,NA,""
"image-keyboard-response",281,244544,"0.0-3.90-0.90","21l76q37rlyfuuy",786,"2.csv","","314.59999990463257","resources/trios/L2T1A1.jpg","38","restless",0.5,0.6,0.4,0.553860751128973,"true"
"image-keyboard-response",282,244947,"0.0-3.90-1.90","21l76q37rlyfuuy",786,"2.csv","","null","resources/maskTrios/BT1B.jpg","null","",NA,NA,NA,NA,""
"image-keyboard-response",283,246153,"0.0-3.90-2.90","21l76q37rlyfuuy",786,"2.csv","","null","resources/images/coin2.png","null","",NA,NA,NA,NA,""
"image-keyboard-response",284,246565,"0.0-3.91-0.91","21l76q37rlyfuuy",786,"2.csv","","411.2000000476837","resources/trios/L1T4A2.jpg","38","restless",0.5,0.6,0.4,0.299622269408873,"true"
"image-keyboard-response",285,246971,"0.0-3.91-1.91","21l76q37rlyfuuy",786,"2.csv","","null","resources/maskTrios/BT4B.jpg","null","",NA,NA,NA,NA,""
"image-keyboard-response",286,248172,"0.0-3.91-2.91","21l76q37rlyfuuy",786,"2.csv","","null","resources/images/coin2.png","null","",NA,NA,NA,NA,""
"image-keyboard-response",287,249094,"0.0-3.92-0.92","21l76q37rlyfuuy",786,"2.csv","","920.7000000476837","resources/trios/L2T1A2.jpg","38","restless",0.5,0.6,0.4,0.551777853883104,"true"
"image-keyboard-response",288,249497,"0.0-3.92-1.92","21l76q37rlyfuuy",786,"2.csv","","null","resources/maskTrios/BT1B.jpg","null","",NA,NA,NA,NA,""
"image-keyboard-response",289,250701,"0.0-3.92-2.92","21l76q37rlyfuuy",786,"2.csv","","null","resources/images/coin2.png","null","",NA,NA,NA,NA,""
"image-keyboard-response",290,251183,"0.0-3.93-0.93","21l76q37rlyfuuy",786,"2.csv","","481","resources/trios/L1T4A1.jpg","38","restless",0.5,0.6,0.4,0.57106114999949,"true"
"image-keyboard-response",291,251586,"0.0-3.93-1.93","21l76q37rlyfuuy",786,"2.csv","","null","resources/maskTrios/BT4B.jpg","null","",NA,NA,NA,NA,""
"image-keyboard-response",292,252788,"0.0-3.93-2.93","21l76q37rlyfuuy",786,"2.csv","","null","resources/images/coin2.png","null","",NA,NA,NA,NA,""
"image-keyboard-response",293,253269,"0.0-3.94-0.94","21l76q37rlyfuuy",786,"2.csv","","480.10000002384186","resources/trios/L2T1A2.jpg","38","restless",0.5,0.6,0.4,0.853961292082428,"false"
"image-keyboard-response",294,253671,"0.0-3.94-1.94","21l76q37rlyfuuy",786,"2.csv","","null","resources/maskTrios/BT1B.jpg","null","",NA,NA,NA,NA,""
"image-keyboard-response",295,254872,"0.0-3.94-2.94","21l76q37rlyfuuy",786,"2.csv","","null","resources/images/fishbone.png","null","",NA,NA,NA,NA,""
"image-keyboard-response",296,255263,"0.0-3.95-0.95","21l76q37rlyfuuy",786,"2.csv","","389.7999999523163","resources/trios/L2T1A2.jpg","37","restless",0.5,0.6,0.4,0.342004095118903,"true"
"image-keyboard-response",297,255665,"0.0-3.95-1.95","21l76q37rlyfuuy",786,"2.csv","","null","resources/maskTrios/L2BB.jpg","null","",NA,NA,NA,NA,""
"image-keyboard-response",298,256870,"0.0-3.95-2.95","21l76q37rlyfuuy",786,"2.csv","","null","resources/images/coin2.png","null","",NA,NA,NA,NA,""
"image-keyboard-response",299,257284,"0.0-3.96-0.96","21l76q37rlyfuuy",786,"2.csv","","411.7000000476837","resources/trios/L1T4A2.jpg","37","restless",0.5,0.6,0.4,0.287077787199279,"true"
"image-keyboard-response",300,257687,"0.0-3.96-1.96","21l76q37rlyfuuy",786,"2.csv","","null","resources/maskTrios/L1BB.jpg","null","",NA,NA,NA,NA,""
"image-keyboard-response",301,258889,"0.0-3.96-2.96","21l76q37rlyfuuy",786,"2.csv","","null","resources/images/coin2.png","null","",NA,NA,NA,NA,""
"image-keyboard-response",302,259594,"0.0-3.97-0.97","21l76q37rlyfuuy",786,"2.csv","","703.7999999523163","resources/trios/L1T4A2.jpg","37","restless",0.5,0.6,0.4,0.192933014698127,"true"
"image-keyboard-response",303,259996,"0.0-3.97-1.97","21l76q37rlyfuuy",786,"2.csv","","null","resources/maskTrios/L1BB.jpg","null","",NA,NA,NA,NA,""
"image-keyboard-response",304,261197,"0.0-3.97-2.97","21l76q37rlyfuuy",786,"2.csv","","null","resources/images/coin2.png","null","",NA,NA,NA,NA,""
"image-keyboard-response",305,262021,"0.0-3.98-0.98","21l76q37rlyfuuy",786,"2.csv","","822.7999999523163","resources/trios/L2T1A2.jpg","37","restless",0.5,0.6,0.4,0.0551801853191385,"true"
"image-keyboard-response",306,262424,"0.0-3.98-1.98","21l76q37rlyfuuy",786,"2.csv","","null","resources/maskTrios/L2BB.jpg","null","",NA,NA,NA,NA,""
"image-keyboard-response",307,263626,"0.0-3.98-2.98","21l76q37rlyfuuy",786,"2.csv","","null","resources/images/coin2.png","null","",NA,NA,NA,NA,""
"image-keyboard-response",308,264174,"0.0-3.99-0.99","21l76q37rlyfuuy",786,"2.csv","","546.6000000238419","resources/trios/L1T1A1.jpg","37","restless",0.5,0.6,0.4,0.262750175671823,"true"
"image-keyboard-response",309,264576,"0.0-3.99-1.99","21l76q37rlyfuuy",786,"2.csv","","null","resources/maskTrios/L1BB.jpg","null","",NA,NA,NA,NA,""
"image-keyboard-response",310,265777,"0.0-3.99-2.99","21l76q37rlyfuuy",786,"2.csv","","null","resources/images/coin2.png","null","",NA,NA,NA,NA,""
"image-keyboard-response",311,267381,"0.0-3.100-0.100","21l76q37rlyfuuy",786,"2.csv","","1602.7999999523163","resources/trios/L2T1A2.jpg","37","restless",0.5,0.6,0.4,0.831045789612024,"false"
"image-keyboard-response",312,267784,"0.0-3.100-1.100","21l76q37rlyfuuy",786,"2.csv","","null","resources/maskTrios/L2BB.jpg","null","",NA,NA,NA,NA,""
"image-keyboard-response",313,268987,"0.0-3.100-2.100","21l76q37rlyfuuy",786,"2.csv","","null","resources/images/fishbone.png","null","",NA,NA,NA,NA,""
"image-keyboard-response",314,269242,"0.0-3.101-0.101","21l76q37rlyfuuy",786,"2.csv","","255.19999992847443","resources/trios/L2T4A2.jpg","38","restless",0.5,0.6,0.4,0.734094964825964,"false"
"image-keyboard-response",315,269644,"0.0-3.101-1.101","21l76q37rlyfuuy",786,"2.csv","","null","resources/maskTrios/BT4B.jpg","null","",NA,NA,NA,NA,""
"image-keyboard-response",316,270848,"0.0-3.101-2.101","21l76q37rlyfuuy",786,"2.csv","","null","resources/images/fishbone.png","null","",NA,NA,NA,NA,""
"image-keyboard-response",317,271194,"0.0-3.102-0.102","21l76q37rlyfuuy",786,"2.csv","","344.89999997615814","resources/trios/L2T4A2.jpg","39","restless",0.5,0.6,0.4,0.835242980866386,"false"
"image-keyboard-response",318,271596,"0.0-3.102-1.102","21l76q37rlyfuuy",786,"2.csv","","null","resources/maskTrios/BBA2.jpg","null","",NA,NA,NA,NA,""
"image-keyboard-response",319,272798,"0.0-3.102-2.102","21l76q37rlyfuuy",786,"2.csv","","null","resources/images/fishbone.png","null","",NA,NA,NA,NA,""
"image-keyboard-response",320,273085,"0.0-3.103-0.103","21l76q37rlyfuuy",786,"2.csv","","285.5","resources/trios/L2T1A1.jpg","38","restless",0.5,0.6,0.4,0.518875326561159,"true"
"image-keyboard-response",321,273487,"0.0-3.103-1.103","21l76q37rlyfuuy",786,"2.csv","","null","resources/maskTrios/BT1B.jpg","null","",NA,NA,NA,NA,""
"image-keyboard-response",322,274689,"0.0-3.103-2.103","21l76q37rlyfuuy",786,"2.csv","","null","resources/images/coin2.png","null","",NA,NA,NA,NA,""
"image-keyboard-response",323,275197,"0.0-3.104-0.104","21l76q37rlyfuuy",786,"2.csv","","506.5","resources/trios/L1T4A2.jpg","38","restless",0.5,0.5,0.4,0.659752987123172,"false"
"image-keyboard-response",324,275600,"0.0-3.104-1.104","21l76q37rlyfuuy",786,"2.csv","","null","resources/maskTrios/BT4B.jpg","null","",NA,NA,NA,NA,""
"image-keyboard-response",325,276801,"0.0-3.104-2.104","21l76q37rlyfuuy",786,"2.csv","","null","resources/images/fishbone.png","null","",NA,NA,NA,NA,""
"image-keyboard-response",326,277086,"0.0-3.105-0.105","21l76q37rlyfuuy",786,"2.csv","","283.8000000715256","resources/trios/L1T1A2.jpg","37","restless",0.5,0.5,0.4,0.389741729047148,"true"
"image-keyboard-response",327,277488,"0.0-3.105-1.105","21l76q37rlyfuuy",786,"2.csv","","null","resources/maskTrios/L1BB.jpg","null","",NA,NA,NA,NA,""
"image-keyboard-response",328,278689,"0.0-3.105-2.105","21l76q37rlyfuuy",786,"2.csv","","null","resources/images/coin2.png","null","",NA,NA,NA,NA,""
"image-keyboard-response",329,279305,"0.0-3.106-0.106","21l76q37rlyfuuy",786,"2.csv","","614.6999999284744","resources/trios/L1T4A2.jpg","37","restless",0.5,0.5,0.4,0.43526721132211,"true"
"image-keyboard-response",330,279707,"0.0-3.106-1.106","21l76q37rlyfuuy",786,"2.csv","","null","resources/maskTrios/L1BB.jpg","null","",NA,NA,NA,NA,""
"image-keyboard-response",331,280909,"0.0-3.106-2.106","21l76q37rlyfuuy",786,"2.csv","","null","resources/images/coin2.png","null","",NA,NA,NA,NA,""
"image-keyboard-response",332,281177,"0.0-3.107-0.107","21l76q37rlyfuuy",786,"2.csv","","267.1999999284744","resources/trios/L1T1A2.jpg","37","restless",0.5,0.5,0.4,0.572497927821908,"false"
"image-keyboard-response",333,281580,"0.0-3.107-1.107","21l76q37rlyfuuy",786,"2.csv","","null","resources/maskTrios/L1BB.jpg","null","",NA,NA,NA,NA,""
"image-keyboard-response",334,282784,"0.0-3.107-2.107","21l76q37rlyfuuy",786,"2.csv","","null","resources/images/fishbone.png","null","",NA,NA,NA,NA,""
"image-keyboard-response",335,283044,"0.0-3.108-0.108","21l76q37rlyfuuy",786,"2.csv","","258.60000002384186","resources/trios/L1T4A1.jpg","38","restless",0.4,0.5,0.5,0.8035414794906,"false"
"image-keyboard-response",336,283447,"0.0-3.108-1.108","21l76q37rlyfuuy",786,"2.csv","","null","resources/maskTrios/BT4B.jpg","null","",NA,NA,NA,NA,""
"image-keyboard-response",337,284650,"0.0-3.108-2.108","21l76q37rlyfuuy",786,"2.csv","","null","resources/images/fishbone.png","null","",NA,NA,NA,NA,""
"image-keyboard-response",338,284877,"0.0-3.109-0.109","21l76q37rlyfuuy",786,"2.csv","","224.89999997615814","resources/trios/L2T1A2.jpg","39","restless",0.4,0.5,0.5,0.0845536119885251,"true"
"image-keyboard-response",339,285280,"0.0-3.109-1.109","21l76q37rlyfuuy",786,"2.csv","","null","resources/maskTrios/BBA2.jpg","null","",NA,NA,NA,NA,""
"image-keyboard-response",340,286482,"0.0-3.109-2.109","21l76q37rlyfuuy",786,"2.csv","","null","resources/images/coin2.png","null","",NA,NA,NA,NA,""
"image-keyboard-response",341,286891,"0.0-3.110-0.110","21l76q37rlyfuuy",786,"2.csv","","407.7000000476837","resources/trios/L2T1A1.jpg","38","restless",0.4,0.5,0.5,0.865706111666353,"false"
"image-keyboard-response",342,287294,"0.0-3.110-1.110","21l76q37rlyfuuy",786,"2.csv","","null","resources/maskTrios/BT1B.jpg","null","",NA,NA,NA,NA,""
"image-keyboard-response",343,288497,"0.0-3.110-2.110","21l76q37rlyfuuy",786,"2.csv","","null","resources/images/fishbone.png","null","",NA,NA,NA,NA,""
"image-keyboard-response",344,288649,"0.0-3.111-0.111","21l76q37rlyfuuy",786,"2.csv","","150.29999995231628","resources/trios/L1T1A2.jpg","37","restless",0.4,0.5,0.5,0.672070757478878,"false"
"image-keyboard-response",345,289051,"0.0-3.111-1.111","21l76q37rlyfuuy",786,"2.csv","","null","resources/maskTrios/L1BB.jpg","null","",NA,NA,NA,NA,""
"image-keyboard-response",346,290254,"0.0-3.111-2.111","21l76q37rlyfuuy",786,"2.csv","","null","resources/images/fishbone.png","null","",NA,NA,NA,NA,""
"image-keyboard-response",347,290500,"0.0-3.112-0.112","21l76q37rlyfuuy",786,"2.csv","","245.60000002384186","resources/trios/L2T4A1.jpg","38","restless",0.4,0.5,0.4,0.261921200629249,"true"
"image-keyboard-response",348,290902,"0.0-3.112-1.112","21l76q37rlyfuuy",786,"2.csv","","null","resources/maskTrios/BT4B.jpg","null","",NA,NA,NA,NA,""
"image-keyboard-response",349,292104,"0.0-3.112-2.112","21l76q37rlyfuuy",786,"2.csv","","null","resources/images/coin2.png","null","",NA,NA,NA,NA,""
"image-keyboard-response",350,292763,"0.0-3.113-0.113","21l76q37rlyfuuy",786,"2.csv","","657.8999999761581","resources/trios/L2T1A1.jpg","38","restless",0.4,0.5,0.3,0.945083414933117,"false"
"image-keyboard-response",351,293166,"0.0-3.113-1.113","21l76q37rlyfuuy",786,"2.csv","","null","resources/maskTrios/BT1B.jpg","null","",NA,NA,NA,NA,""
"image-keyboard-response",352,294368,"0.0-3.113-2.113","21l76q37rlyfuuy",786,"2.csv","","null","resources/images/fishbone.png","null","",NA,NA,NA,NA,""
"image-keyboard-response",353,294707,"0.0-3.114-0.114","21l76q37rlyfuuy",786,"2.csv","","337.5","resources/trios/L2T1A2.jpg","39","restless",0.4,0.4,0.3,0.112794781287769,"true"
"image-keyboard-response",354,295109,"0.0-3.114-1.114","21l76q37rlyfuuy",786,"2.csv","","null","resources/maskTrios/BBA2.jpg","null","",NA,NA,NA,NA,""
"image-keyboard-response",355,296310,"0.0-3.114-2.114","21l76q37rlyfuuy",786,"2.csv","","null","resources/images/coin2.png","null","",NA,NA,NA,NA,""
"image-keyboard-response",356,296825,"0.0-3.115-0.115","21l76q37rlyfuuy",786,"2.csv","","513.1000000238419","resources/trios/L1T1A2.jpg","39","restless",0.4,0.4,0.3,0.275303960552682,"true"
"image-keyboard-response",357,297226,"0.0-3.115-1.115","21l76q37rlyfuuy",786,"2.csv","","null","resources/maskTrios/BBA2.jpg","null","",NA,NA,NA,NA,""
"image-keyboard-response",358,298429,"0.0-3.115-2.115","21l76q37rlyfuuy",786,"2.csv","","null","resources/images/coin2.png","null","",NA,NA,NA,NA,""
"image-keyboard-response",359,298964,"0.0-3.116-0.116","21l76q37rlyfuuy",786,"2.csv","","533.7999999523163","resources/trios/L1T1A1.jpg","39","restless",0.4,0.3,0.3,0.623802495872057,"false"
"image-keyboard-response",360,299366,"0.0-3.116-1.116","21l76q37rlyfuuy",786,"2.csv","","null","resources/maskTrios/BBA1.jpg","null","",NA,NA,NA,NA,""
"image-keyboard-response",361,300568,"0.0-3.116-2.116","21l76q37rlyfuuy",786,"2.csv","","null","resources/images/fishbone.png","null","",NA,NA,NA,NA,""
"image-keyboard-response",362,300885,"0.0-3.117-0.117","21l76q37rlyfuuy",786,"2.csv","","316.1999999284744","resources/trios/L1T1A1.jpg","38","restless",0.4,0.3,0.3,0.810699726971038,"false"
"image-keyboard-response",363,301288,"0.0-3.117-1.117","21l76q37rlyfuuy",786,"2.csv","","null","resources/maskTrios/BT1B.jpg","null","",NA,NA,NA,NA,""
"image-keyboard-response",364,302489,"0.0-3.117-2.117","21l76q37rlyfuuy",786,"2.csv","","null","resources/images/fishbone.png","null","",NA,NA,NA,NA,""
"image-keyboard-response",365,302930,"0.0-3.118-0.118","21l76q37rlyfuuy",786,"2.csv","","440.1999999284744","resources/trios/L2T4A1.jpg","37","restless",0.4,0.2,0.3,0.0570351402583094,"true"
"image-keyboard-response",366,303331,"0.0-3.118-1.118","21l76q37rlyfuuy",786,"2.csv","","null","resources/maskTrios/L2BB.jpg","null","",NA,NA,NA,NA,""
"image-keyboard-response",367,304535,"0.0-3.118-2.118","21l76q37rlyfuuy",786,"2.csv","","null","resources/images/coin2.png","null","",NA,NA,NA,NA,""
"image-keyboard-response",368,304822,"0.0-3.119-0.119","21l76q37rlyfuuy",786,"2.csv","","286.10000002384186","resources/trios/L1T1A2.jpg","38","restless",0.4,0.2,0.3,0.917416416937298,"false"
"image-keyboard-response",369,305225,"0.0-3.119-1.119","21l76q37rlyfuuy",786,"2.csv","","null","resources/maskTrios/BT1B.jpg","null","",NA,NA,NA,NA,""
"image-keyboard-response",370,306427,"0.0-3.119-2.119","21l76q37rlyfuuy",786,"2.csv","","null","resources/images/fishbone.png","null","",NA,NA,NA,NA,""
"image-keyboard-response",371,307119,"0.0-3.120-0.120","21l76q37rlyfuuy",786,"2.csv","","691.1000000238419","resources/trios/L1T4A1.jpg","37","restless",0.4,0.2,0.3,0.110247827809647,"true"
"image-keyboard-response",372,307521,"0.0-3.120-1.120","21l76q37rlyfuuy",786,"2.csv","","null","resources/maskTrios/L1BB.jpg","null","",NA,NA,NA,NA,""
"image-keyboard-response",373,308723,"0.0-3.120-2.120","21l76q37rlyfuuy",786,"2.csv","","null","resources/images/coin2.png","null","",NA,NA,NA,NA,""
"image-keyboard-response",374,309234,"0.0-3.121-0.121","21l76q37rlyfuuy",786,"2.csv","","509.89999997615814","resources/trios/L1T4A2.jpg","37","restless",0.4,0.2,0.3,0.210395952316865,"true"
"image-keyboard-response",375,309638,"0.0-3.121-1.121","21l76q37rlyfuuy",786,"2.csv","","null","resources/maskTrios/L1BB.jpg","null","",NA,NA,NA,NA,""
"image-keyboard-response",376,310839,"0.0-3.121-2.121","21l76q37rlyfuuy",786,"2.csv","","null","resources/images/coin2.png","null","",NA,NA,NA,NA,""
"image-keyboard-response",377,311651,"0.0-3.122-0.122","21l76q37rlyfuuy",786,"2.csv","","810.7000000476837","resources/trios/L2T1A2.jpg","37","restless",0.4,0.2,0.3,0.326544720339134,"true"
"image-keyboard-response",378,312055,"0.0-3.122-1.122","21l76q37rlyfuuy",786,"2.csv","","null","resources/maskTrios/L2BB.jpg","null","",NA,NA,NA,NA,""
"image-keyboard-response",379,313257,"0.0-3.122-2.122","21l76q37rlyfuuy",786,"2.csv","","null","resources/images/coin2.png","null","",NA,NA,NA,NA,""
"image-keyboard-response",380,313575,"0.0-3.123-0.123","21l76q37rlyfuuy",786,"2.csv","","317.39999997615814","resources/trios/L2T4A1.jpg","37","restless",0.4,0.2,0.3,0.986038575978925,"false"
"image-keyboard-response",381,313977,"0.0-3.123-1.123","21l76q37rlyfuuy",786,"2.csv","","null","resources/maskTrios/L2BB.jpg","null","",NA,NA,NA,NA,""
"image-keyboard-response",382,315179,"0.0-3.123-2.123","21l76q37rlyfuuy",786,"2.csv","","null","resources/images/fishbone.png","null","",NA,NA,NA,NA,""
"image-keyboard-response",383,315649,"0.0-3.124-0.124","21l76q37rlyfuuy",786,"2.csv","","468.6999999284744","resources/trios/L2T1A1.jpg","38","restless",0.4,0.2,0.3,0.312775410853703,"false"
"image-keyboard-response",384,316052,"0.0-3.124-1.124","21l76q37rlyfuuy",786,"2.csv","","null","resources/maskTrios/BT1B.jpg","null","",NA,NA,NA,NA,""
"image-keyboard-response",385,317254,"0.0-3.124-2.124","21l76q37rlyfuuy",786,"2.csv","","null","resources/images/fishbone.png","null","",NA,NA,NA,NA,""
"image-keyboard-response",386,317758,"0.0-3.125-0.125","21l76q37rlyfuuy",786,"2.csv","","502.2000000476837","resources/trios/L1T1A2.jpg","37","restless",0.4,0.2,0.4,0.986902106393353,"false"
"image-keyboard-response",387,318160,"0.0-3.125-1.125","21l76q37rlyfuuy",786,"2.csv","","null","resources/maskTrios/L1BB.jpg","null","",NA,NA,NA,NA,""
"image-keyboard-response",388,319363,"0.0-3.125-2.125","21l76q37rlyfuuy",786,"2.csv","","null","resources/images/fishbone.png","null","",NA,NA,NA,NA,""
"image-keyboard-response",389,319673,"0.0-3.126-0.126","21l76q37rlyfuuy",786,"2.csv","","309.5","resources/trios/L1T1A1.jpg","38","restless",0.4,0.2,0.4,0.663731960671306,"false"
"image-keyboard-response",390,320075,"0.0-3.126-1.126","21l76q37rlyfuuy",786,"2.csv","","null","resources/maskTrios/BT1B.jpg","null","",NA,NA,NA,NA,""
"image-keyboard-response",391,321276,"0.0-3.126-2.126","21l76q37rlyfuuy",786,"2.csv","","null","resources/images/fishbone.png","null","",NA,NA,NA,NA,""
"image-keyboard-response",392,321572,"0.0-3.127-0.127","21l76q37rlyfuuy",786,"2.csv","","294.2999999523163","resources/trios/L2T4A1.jpg","37","restless",0.4,0.2,0.4,0.729148236742667,"false"
"image-keyboard-response",393,321973,"0.0-3.127-1.127","21l76q37rlyfuuy",786,"2.csv","","null","resources/maskTrios/L2BB.jpg","null","",NA,NA,NA,NA,""
"image-keyboard-response",394,323175,"0.0-3.127-2.127","21l76q37rlyfuuy",786,"2.csv","","null","resources/images/fishbone.png","null","",NA,NA,NA,NA,""
"image-keyboard-response",395,323474,"0.0-3.128-0.128","21l76q37rlyfuuy",786,"2.csv","","297.89999997615814","resources/trios/L1T1A1.jpg","38","restless",0.4,0.2,0.4,0.1629816220043,"true"
"image-keyboard-response",396,323875,"0.0-3.128-1.128","21l76q37rlyfuuy",786,"2.csv","","null","resources/maskTrios/BT1B.jpg","null","",NA,NA,NA,NA,""
"image-keyboard-response",397,325077,"0.0-3.128-2.128","21l76q37rlyfuuy",786,"2.csv","","null","resources/images/coin2.png","null","",NA,NA,NA,NA,""
"image-keyboard-response",398,326042,"0.0-3.129-0.129","21l76q37rlyfuuy",786,"2.csv","","963.3000000715256","resources/trios/L2T1A2.jpg","38","restless",0.4,0.2,0.4,0.602076576200404,"false"
"image-keyboard-response",399,326443,"0.0-3.129-1.129","21l76q37rlyfuuy",786,"2.csv","","null","resources/maskTrios/BT1B.jpg","null","",NA,NA,NA,NA,""
"image-keyboard-response",400,327645,"0.0-3.129-2.129","21l76q37rlyfuuy",786,"2.csv","","null","resources/images/fishbone.png","null","",NA,NA,NA,NA,""
"image-keyboard-response",401,328091,"0.0-3.130-0.130","21l76q37rlyfuuy",786,"2.csv","","445","resources/trios/L1T1A2.jpg","37","restless",0.4,0.2,0.4,0.800229079355957,"false"
"image-keyboard-response",402,328494,"0.0-3.130-1.130","21l76q37rlyfuuy",786,"2.csv","","null","resources/maskTrios/L1BB.jpg","null","",NA,NA,NA,NA,""
"image-keyboard-response",403,329697,"0.0-3.130-2.130","21l76q37rlyfuuy",786,"2.csv","","null","resources/images/fishbone.png","null","",NA,NA,NA,NA,""
"image-keyboard-response",404,330192,"0.0-3.131-0.131","21l76q37rlyfuuy",786,"2.csv","","493.90000009536743","resources/trios/L1T1A2.jpg","39","restless",0.4,0.2,0.4,0.920791554593435,"false"
"image-keyboard-response",405,330594,"0.0-3.131-1.131","21l76q37rlyfuuy",786,"2.csv","","null","resources/maskTrios/BBA2.jpg","null","",NA,NA,NA,NA,""
"image-keyboard-response",406,331797,"0.0-3.131-2.131","21l76q37rlyfuuy",786,"2.csv","","null","resources/images/fishbone.png","null","",NA,NA,NA,NA,""
"image-keyboard-response",407,332109,"0.0-3.132-0.132","21l76q37rlyfuuy",786,"2.csv","","310.60000002384186","resources/trios/L1T4A1.jpg","38","restless",0.4,0.2,0.4,0.516325269710831,"false"
"image-keyboard-response",408,332510,"0.0-3.132-1.132","21l76q37rlyfuuy",786,"2.csv","","null","resources/maskTrios/BT4B.jpg","null","",NA,NA,NA,NA,""
"image-keyboard-response",409,333713,"0.0-3.132-2.132","21l76q37rlyfuuy",786,"2.csv","","null","resources/images/fishbone.png","null","",NA,NA,NA,NA,""
"image-keyboard-response",410,334094,"0.0-3.133-0.133","21l76q37rlyfuuy",786,"2.csv","","379.89999997615814","resources/trios/L1T4A2.jpg","37","restless",0.5,0.2,0.4,0.360282273850925,"true"
"image-keyboard-response",411,334497,"0.0-3.133-1.133","21l76q37rlyfuuy",786,"2.csv","","null","resources/maskTrios/L1BB.jpg","null","",NA,NA,NA,NA,""
"image-keyboard-response",412,335701,"0.0-3.133-2.133","21l76q37rlyfuuy",786,"2.csv","","null","resources/images/coin2.png","null","",NA,NA,NA,NA,""
"image-keyboard-response",413,336134,"0.0-3.134-0.134","21l76q37rlyfuuy",786,"2.csv","","431.7000000476837","resources/trios/L1T4A1.jpg","37","restless",0.5,0.2,0.4,0.516943807754739,"false"
"image-keyboard-response",414,336538,"0.0-3.134-1.134","21l76q37rlyfuuy",786,"2.csv","","null","resources/maskTrios/L1BB.jpg","null","",NA,NA,NA,NA,""
"image-keyboard-response",415,337739,"0.0-3.134-2.134","21l76q37rlyfuuy",786,"2.csv","","null","resources/images/fishbone.png","null","",NA,NA,NA,NA,""
"image-keyboard-response",416,338130,"0.0-3.135-0.135","21l76q37rlyfuuy",786,"2.csv","","389.89999997615814","resources/trios/L1T1A2.jpg","38","restless",0.5,0.2,0.4,0.0604238263660728,"true"
"image-keyboard-response",417,338533,"0.0-3.135-1.135","21l76q37rlyfuuy",786,"2.csv","","null","resources/maskTrios/BT1B.jpg","null","",NA,NA,NA,NA,""
"image-keyboard-response",418,339736,"0.0-3.135-2.135","21l76q37rlyfuuy",786,"2.csv","","null","resources/images/coin2.png","null","",NA,NA,NA,NA,""
"image-keyboard-response",419,340093,"0.0-3.136-0.136","21l76q37rlyfuuy",786,"2.csv","","355.40000009536743","resources/trios/L1T4A2.jpg","37","restless",0.5,0.2,0.4,0.452296663528233,"true"
"image-keyboard-response",420,340496,"0.0-3.136-1.136","21l76q37rlyfuuy",786,"2.csv","","null","resources/maskTrios/L1BB.jpg","null","",NA,NA,NA,NA,""
"image-keyboard-response",421,341698,"0.0-3.136-2.136","21l76q37rlyfuuy",786,"2.csv","","null","resources/images/coin2.png","null","",NA,NA,NA,NA,""
"image-keyboard-response",422,341990,"0.0-3.137-0.137","21l76q37rlyfuuy",786,"2.csv","","291.5","resources/trios/L2T1A2.jpg","38","restless",0.5,0.2,0.4,0.540903821980766,"false"
"image-keyboard-response",423,342393,"0.0-3.137-1.137","21l76q37rlyfuuy",786,"2.csv","","null","resources/maskTrios/BT1B.jpg","null","",NA,NA,NA,NA,""
"image-keyboard-response",424,343596,"0.0-3.137-2.137","21l76q37rlyfuuy",786,"2.csv","","null","resources/images/fishbone.png","null","",NA,NA,NA,NA,""
"image-keyboard-response",425,343878,"0.0-3.138-0.138","21l76q37rlyfuuy",786,"2.csv","","281.2000000476837","resources/trios/L1T4A1.jpg","37","restless",0.5,0.2,0.4,0.858960678188686,"false"
"image-keyboard-response",426,344281,"0.0-3.138-1.138","21l76q37rlyfuuy",786,"2.csv","","null","resources/maskTrios/L1BB.jpg","null","",NA,NA,NA,NA,""
"image-keyboard-response",427,345482,"0.0-3.138-2.138","21l76q37rlyfuuy",786,"2.csv","","null","resources/images/fishbone.png","null","",NA,NA,NA,NA,""
"image-keyboard-response",428,345804,"0.0-3.139-0.139","21l76q37rlyfuuy",786,"2.csv","","320.3000000715256","resources/trios/L1T4A2.jpg","38","restless",0.6,0.2,0.4,0.453963842356034,"false"
"image-keyboard-response",429,346205,"0.0-3.139-1.139","21l76q37rlyfuuy",786,"2.csv","","null","resources/maskTrios/BT4B.jpg","null","",NA,NA,NA,NA,""
"image-keyboard-response",430,347406,"0.0-3.139-2.139","21l76q37rlyfuuy",786,"2.csv","","null","resources/images/fishbone.png","null","",NA,NA,NA,NA,""
"image-keyboard-response",431,347675,"0.0-3.140-0.140","21l76q37rlyfuuy",786,"2.csv","","268.2000000476837","resources/trios/L1T1A1.jpg","39","restless",0.6,0.2,0.3,0.296201501412599,"true"
"image-keyboard-response",432,348077,"0.0-3.140-1.140","21l76q37rlyfuuy",786,"2.csv","","null","resources/maskTrios/BBA1.jpg","null","",NA,NA,NA,NA,""
"image-keyboard-response",433,349280,"0.0-3.140-2.140","21l76q37rlyfuuy",786,"2.csv","","null","resources/images/coin2.png","null","",NA,NA,NA,NA,""
"image-keyboard-response",434,349859,"0.0-3.141-0.141","21l76q37rlyfuuy",786,"2.csv","","577.7000000476837","resources/trios/L2T4A2.jpg","38","restless",0.6,0.3,0.3,0.579172767090967,"false"
"image-keyboard-response",435,350260,"0.0-3.141-1.141","21l76q37rlyfuuy",786,"2.csv","","null","resources/maskTrios/BT4B.jpg","null","",NA,NA,NA,NA,""
"image-keyboard-response",436,351463,"0.0-3.141-2.141","21l76q37rlyfuuy",786,"2.csv","","null","resources/images/fishbone.png","null","",NA,NA,NA,NA,""
"image-keyboard-response",437,351742,"0.0-3.142-0.142","21l76q37rlyfuuy",786,"2.csv","","278.1999999284744","resources/trios/L2T4A2.jpg","37","restless",0.6,0.3,0.3,0.591140938712803,"true"
"image-keyboard-response",438,352145,"0.0-3.142-1.142","21l76q37rlyfuuy",786,"2.csv","","null","resources/maskTrios/L2BB.jpg","null","",NA,NA,NA,NA,""
"image-keyboard-response",439,353348,"0.0-3.142-2.142","21l76q37rlyfuuy",786,"2.csv","","null","resources/images/coin2.png","null","",NA,NA,NA,NA,""
"image-keyboard-response",440,353759,"0.0-3.143-0.143","21l76q37rlyfuuy",786,"2.csv","","409.6999999284744","resources/trios/L1T4A1.jpg","37","restless",0.6,0.3,0.3,0.239996856538018,"true"
"image-keyboard-response",441,354161,"0.0-3.143-1.143","21l76q37rlyfuuy",786,"2.csv","","null","resources/maskTrios/L1BB.jpg","null","",NA,NA,NA,NA,""
"image-keyboard-response",442,355363,"0.0-3.143-2.143","21l76q37rlyfuuy",786,"2.csv","","null","resources/images/coin2.png","null","",NA,NA,NA,NA,""
"image-keyboard-response",443,355784,"0.0-3.144-0.144","21l76q37rlyfuuy",786,"2.csv","","420.1999999284744","resources/trios/L1T4A1.jpg","38","restless",0.6,0.3,0.3,0.953663699847398,"false"
"image-keyboard-response",444,356188,"0.0-3.144-1.144","21l76q37rlyfuuy",786,"2.csv","","null","resources/maskTrios/BT4B.jpg","null","",NA,NA,NA,NA,""
"image-keyboard-response",445,357389,"0.0-3.144-2.144","21l76q37rlyfuuy",786,"2.csv","","null","resources/images/fishbone.png","null","",NA,NA,NA,NA,""
"image-keyboard-response",446,358179,"0.0-3.145-0.145","21l76q37rlyfuuy",786,"2.csv","","788","resources/trios/L1T1A1.jpg","37","restless",0.6,0.3,0.3,0.590657243949304,"true"
"image-keyboard-response",447,358582,"0.0-3.145-1.145","21l76q37rlyfuuy",786,"2.csv","","null","resources/maskTrios/L1BB.jpg","null","",NA,NA,NA,NA,""
"image-keyboard-response",448,359786,"0.0-3.145-2.145","21l76q37rlyfuuy",786,"2.csv","","null","resources/images/coin2.png","null","",NA,NA,NA,NA,""
"image-keyboard-response",449,361076,"0.0-3.146-0.146","21l76q37rlyfuuy",786,"2.csv","","1288.7999999523163","resources/trios/L2T4A1.jpg","37","restless",0.5,0.3,0.3,0.227997076092364,"true"
"image-keyboard-response",450,361479,"0.0-3.146-1.146","21l76q37rlyfuuy",786,"2.csv","","null","resources/maskTrios/L2BB.jpg","null","",NA,NA,NA,NA,""
"image-keyboard-response",451,362683,"0.0-3.146-2.146","21l76q37rlyfuuy",786,"2.csv","","null","resources/images/coin2.png","null","",NA,NA,NA,NA,""
"image-keyboard-response",452,363174,"0.0-3.147-0.147","21l76q37rlyfuuy",786,"2.csv","","490.39999997615814","resources/trios/L2T4A2.jpg","37","restless",0.6,0.3,0.3,0.561447161118333,"true"
"image-keyboard-response",453,363576,"0.0-3.147-1.147","21l76q37rlyfuuy",786,"2.csv","","null","resources/maskTrios/L2BB.jpg","null","",NA,NA,NA,NA,""
"image-keyboard-response",454,364777,"0.0-3.147-2.147","21l76q37rlyfuuy",786,"2.csv","","null","resources/images/coin2.png","null","",NA,NA,NA,NA,""
"image-keyboard-response",455,365126,"0.0-3.148-0.148","21l76q37rlyfuuy",786,"2.csv","","347.39999997615814","resources/trios/L2T1A2.jpg","37","restless",0.5,0.3,0.3,0.182878078564285,"true"
"image-keyboard-response",456,365528,"0.0-3.148-1.148","21l76q37rlyfuuy",786,"2.csv","","null","resources/maskTrios/L2BB.jpg","null","",NA,NA,NA,NA,""
"image-keyboard-response",457,366730,"0.0-3.148-2.148","21l76q37rlyfuuy",786,"2.csv","","null","resources/images/coin2.png","null","",NA,NA,NA,NA,""
"image-keyboard-response",458,367104,"0.0-3.149-0.149","21l76q37rlyfuuy",786,"2.csv","","372.3000000715256","resources/trios/L1T1A2.jpg","37","restless",0.5,0.3,0.3,0.377220993640449,"true"
"image-keyboard-response",459,367506,"0.0-3.149-1.149","21l76q37rlyfuuy",786,"2.csv","","null","resources/maskTrios/L1BB.jpg","null","",NA,NA,NA,NA,""
"image-keyboard-response",460,368708,"0.0-3.149-2.149","21l76q37rlyfuuy",786,"2.csv","","null","resources/images/coin2.png","null","",NA,NA,NA,NA,""
"image-keyboard-response",461,368986,"0.0-3.150-0.150","21l76q37rlyfuuy",786,"2.csv","","276.6999999284744","resources/trios/L2T1A1.jpg","37","restless",0.5,0.4,0.3,0.886296799593951,"false"
"image-keyboard-response",462,369388,"0.0-3.150-1.150","21l76q37rlyfuuy",786,"2.csv","","null","resources/maskTrios/L2BB.jpg","null","",NA,NA,NA,NA,""
"image-keyboard-response",463,370589,"0.0-3.150-2.150","21l76q37rlyfuuy",786,"2.csv","","null","resources/images/fishbone.png","null","",NA,NA,NA,NA,""
"image-keyboard-response",464,370884,"0.0-3.151-0.151","21l76q37rlyfuuy",786,"2.csv","","294.2000000476837","resources/trios/L2T4A2.jpg","38","restless",0.5,0.4,0.3,0.777674038337475,"false"
"image-keyboard-response",465,371286,"0.0-3.151-1.151","21l76q37rlyfuuy",786,"2.csv","","null","resources/maskTrios/BT4B.jpg","null","",NA,NA,NA,NA,""
"image-keyboard-response",466,372488,"0.0-3.151-2.151","21l76q37rlyfuuy",786,"2.csv","","null","resources/images/fishbone.png","null","",NA,NA,NA,NA,""
"image-keyboard-response",467,372802,"0.0-3.152-0.152","21l76q37rlyfuuy",786,"2.csv","","312.10000002384186","resources/trios/L2T1A1.jpg","39","restless",0.4,0.4,0.4,0.633199753809795,"false"
"image-keyboard-response",468,373203,"0.0-3.152-1.152","21l76q37rlyfuuy",786,"2.csv","","null","resources/maskTrios/BBA1.jpg","null","",NA,NA,NA,NA,""
"image-keyboard-response",469,374406,"0.0-3.152-2.152","21l76q37rlyfuuy",786,"2.csv","","null","resources/images/fishbone.png","null","",NA,NA,NA,NA,""
"image-keyboard-response",470,374691,"0.0-3.153-0.153","21l76q37rlyfuuy",786,"2.csv","","284","resources/trios/L2T4A1.jpg","37","restless",0.4,0.4,0.5,0.66049072024877,"false"
"image-keyboard-response",471,375092,"0.0-3.153-1.153","21l76q37rlyfuuy",786,"2.csv","","null","resources/maskTrios/L2BB.jpg","null","",NA,NA,NA,NA,""
"image-keyboard-response",472,376294,"0.0-3.153-2.153","21l76q37rlyfuuy",786,"2.csv","","null","resources/images/fishbone.png","null","",NA,NA,NA,NA,""
"image-keyboard-response",473,376426,"0.0-3.154-0.154","21l76q37rlyfuuy",786,"2.csv","","130.5","resources/trios/L1T4A2.jpg","37","restless",0.4,0.4,0.5,0.76324491617608,"false"
"image-keyboard-response",474,376828,"0.0-3.154-1.154","21l76q37rlyfuuy",786,"2.csv","","null","resources/maskTrios/L1BB.jpg","null","",NA,NA,NA,NA,""
"image-keyboard-response",475,378030,"0.0-3.154-2.154","21l76q37rlyfuuy",786,"2.csv","","null","resources/images/fishbone.png","null","",NA,NA,NA,NA,""
"image-keyboard-response",476,378326,"0.0-3.155-0.155","21l76q37rlyfuuy",786,"2.csv","","294.10000002384186","resources/trios/L2T4A1.jpg","37","restless",0.4,0.4,0.5,0.232692637630979,"true"
"image-keyboard-response",477,378728,"0.0-3.155-1.155","21l76q37rlyfuuy",786,"2.csv","","null","resources/maskTrios/L2BB.jpg","null","",NA,NA,NA,NA,""
"image-keyboard-response",478,379930,"0.0-3.155-2.155","21l76q37rlyfuuy",786,"2.csv","","null","resources/images/coin2.png","null","",NA,NA,NA,NA,""
"image-keyboard-response",479,380340,"0.0-3.156-0.156","21l76q37rlyfuuy",786,"2.csv","","408.8000000715256","resources/trios/L2T4A1.jpg","37","restless",0.4,0.4,0.5,0.674036399699471,"false"
"image-keyboard-response",480,380742,"0.0-3.156-1.156","21l76q37rlyfuuy",786,"2.csv","","null","resources/maskTrios/L2BB.jpg","null","",NA,NA,NA,NA,""
"image-keyboard-response",481,381944,"0.0-3.156-2.156","21l76q37rlyfuuy",786,"2.csv","","null","resources/images/fishbone.png","null","",NA,NA,NA,NA,""
"image-keyboard-response",482,382309,"0.0-3.157-0.157","21l76q37rlyfuuy",786,"2.csv","","363.2999999523163","resources/trios/L1T1A1.jpg","37","restless",0.4,0.4,0.5,0.294876398791433,"true"
"image-keyboard-response",483,382711,"0.0-3.157-1.157","21l76q37rlyfuuy",786,"2.csv","","null","resources/maskTrios/L1BB.jpg","null","",NA,NA,NA,NA,""
"image-keyboard-response",484,383914,"0.0-3.157-2.157","21l76q37rlyfuuy",786,"2.csv","","null","resources/images/coin2.png","null","",NA,NA,NA,NA,""
"image-keyboard-response",485,384213,"0.0-3.158-0.158","21l76q37rlyfuuy",786,"2.csv","","297.5","resources/trios/L2T1A1.jpg","38","restless",0.4,0.4,0.5,0.73306299723156,"false"
"image-keyboard-response",486,384615,"0.0-3.158-1.158","21l76q37rlyfuuy",786,"2.csv","","null","resources/maskTrios/BT1B.jpg","null","",NA,NA,NA,NA,""
"image-keyboard-response",487,385817,"0.0-3.158-2.158","21l76q37rlyfuuy",786,"2.csv","","null","resources/images/fishbone.png","null","",NA,NA,NA,NA,""
"image-keyboard-response",488,386368,"0.0-3.159-0.159","21l76q37rlyfuuy",786,"2.csv","","550.5","resources/trios/L2T4A2.jpg","37","restless",0.3,0.5,0.5,0.408098736755554,"false"
"image-keyboard-response",489,386772,"0.0-3.159-1.159","21l76q37rlyfuuy",786,"2.csv","","null","resources/maskTrios/L2BB.jpg","null","",NA,NA,NA,NA,""
"image-keyboard-response",490,387973,"0.0-3.159-2.159","21l76q37rlyfuuy",786,"2.csv","","null","resources/images/fishbone.png","null","",NA,NA,NA,NA,""
"image-keyboard-response",491,388395,"0.0-3.160-0.160","21l76q37rlyfuuy",786,"2.csv","","421","resources/trios/L2T4A1.jpg","39","restless",0.3,0.5,0.5,0.314793421544051,"true"
"image-keyboard-response",492,388798,"0.0-3.160-1.160","21l76q37rlyfuuy",786,"2.csv","","null","resources/maskTrios/BBA1.jpg","null","",NA,NA,NA,NA,""
"image-keyboard-response",493,390002,"0.0-3.160-2.160","21l76q37rlyfuuy",786,"2.csv","","null","resources/images/coin2.png","null","",NA,NA,NA,NA,""
"image-keyboard-response",494,390293,"0.0-3.161-0.161","21l76q37rlyfuuy",786,"2.csv","","289.39999997615814","resources/trios/L2T4A2.jpg","38","restless",0.3,0.5,0.6,0.882837199594835,"false"
"image-keyboard-response",495,390696,"0.0-3.161-1.161","21l76q37rlyfuuy",786,"2.csv","","null","resources/maskTrios/BT4B.jpg","null","",NA,NA,NA,NA,""
"image-keyboard-response",496,391900,"0.0-3.161-2.161","21l76q37rlyfuuy",786,"2.csv","","null","resources/images/fishbone.png","null","",NA,NA,NA,NA,""
"image-keyboard-response",497,392193,"0.0-3.162-0.162","21l76q37rlyfuuy",786,"2.csv","","291.3000000715256","resources/trios/L1T1A2.jpg","39","restless",0.2,0.5,0.6,0.613609810059532,"false"
"image-keyboard-response",498,392595,"0.0-3.162-1.162","21l76q37rlyfuuy",786,"2.csv","","null","resources/maskTrios/BBA2.jpg","null","",NA,NA,NA,NA,""
"image-keyboard-response",499,393796,"0.0-3.162-2.162","21l76q37rlyfuuy",786,"2.csv","","null","resources/images/fishbone.png","null","",NA,NA,NA,NA,""
"image-keyboard-response",500,394076,"0.0-3.163-0.163","21l76q37rlyfuuy",786,"2.csv","","279.2000000476837","resources/trios/L1T1A2.jpg","37","restless",0.2,0.5,0.6,0.720337921283237,"false"
"image-keyboard-response",501,394478,"0.0-3.163-1.163","21l76q37rlyfuuy",786,"2.csv","","null","resources/maskTrios/L1BB.jpg","null","",NA,NA,NA,NA,""
"image-keyboard-response",502,395679,"0.0-3.163-2.163","21l76q37rlyfuuy",786,"2.csv","","null","resources/images/fishbone.png","null","",NA,NA,NA,NA,""
"image-keyboard-response",503,395975,"0.0-3.164-0.164","21l76q37rlyfuuy",786,"2.csv","","294.5","resources/trios/L1T4A2.jpg","38","restless",0.2,0.6,0.6,0.842041540117869,"false"
"image-keyboard-response",504,396377,"0.0-3.164-1.164","21l76q37rlyfuuy",786,"2.csv","","null","resources/maskTrios/BT4B.jpg","null","",NA,NA,NA,NA,""
"image-keyboard-response",505,397580,"0.0-3.164-2.164","21l76q37rlyfuuy",786,"2.csv","","null","resources/images/fishbone.png","null","",NA,NA,NA,NA,""
"image-keyboard-response",506,397868,"0.0-3.165-0.165","21l76q37rlyfuuy",786,"2.csv","","287.2000000476837","resources/trios/L1T1A1.jpg","38","restless",0.2,0.6,0.6,0.480231258658895,"true"
"image-keyboard-response",507,398273,"0.0-3.165-1.165","21l76q37rlyfuuy",786,"2.csv","","null","resources/maskTrios/BT1B.jpg","null","",NA,NA,NA,NA,""
"image-keyboard-response",508,399474,"0.0-3.165-2.165","21l76q37rlyfuuy",786,"2.csv","","null","resources/images/coin2.png","null","",NA,NA,NA,NA,""
"image-keyboard-response",509,399814,"0.0-3.166-0.166","21l76q37rlyfuuy",786,"2.csv","","338.7000000476837","resources/trios/L2T1A2.jpg","38","restless",0.2,0.6,0.6,0.252437105949548,"true"
"image-keyboard-response",510,400217,"0.0-3.166-1.166","21l76q37rlyfuuy",786,"2.csv","","null","resources/maskTrios/BT1B.jpg","null","",NA,NA,NA,NA,""
"image-keyboard-response",511,401420,"0.0-3.166-2.166","21l76q37rlyfuuy",786,"2.csv","","null","resources/images/coin2.png","null","",NA,NA,NA,NA,""
"image-keyboard-response",512,401838,"0.0-3.167-0.167","21l76q37rlyfuuy",786,"2.csv","","416.60000002384186","resources/trios/L1T1A2.jpg","38","restless",0.2,0.6,0.6,0.731711470252009,"false"
"image-keyboard-response",513,402240,"0.0-3.167-1.167","21l76q37rlyfuuy",786,"2.csv","","null","resources/maskTrios/BT1B.jpg","null","",NA,NA,NA,NA,""
"image-keyboard-response",514,403441,"0.0-3.167-2.167","21l76q37rlyfuuy",786,"2.csv","","null","resources/images/fishbone.png","null","",NA,NA,NA,NA,""
"image-keyboard-response",515,403911,"0.0-3.168-0.168","21l76q37rlyfuuy",786,"2.csv","","468.39999997615814","resources/trios/L1T1A1.jpg","38","restless",0.2,0.6,0.5,0.234128708338831,"true"
"image-keyboard-response",516,404314,"0.0-3.168-1.168","21l76q37rlyfuuy",786,"2.csv","","null","resources/maskTrios/BT1B.jpg","null","",NA,NA,NA,NA,""
"image-keyboard-response",517,405517,"0.0-3.168-2.168","21l76q37rlyfuuy",786,"2.csv","","null","resources/images/coin2.png","null","",NA,NA,NA,NA,""
"image-keyboard-response",518,406445,"0.0-3.169-0.169","21l76q37rlyfuuy",786,"2.csv","","925.8999999761581","resources/trios/L2T4A2.jpg","38","restless",0.2,0.6,0.5,0.229832597072457,"true"
"image-keyboard-response",519,406847,"0.0-3.169-1.169","21l76q37rlyfuuy",786,"2.csv","","null","resources/maskTrios/BT4B.jpg","null","",NA,NA,NA,NA,""
"image-keyboard-response",520,408050,"0.0-3.169-2.169","21l76q37rlyfuuy",786,"2.csv","","null","resources/images/coin2.png","null","",NA,NA,NA,NA,""
"image-keyboard-response",521,408424,"0.0-3.170-0.170","21l76q37rlyfuuy",786,"2.csv","","372.39999997615814","resources/trios/L2T1A1.jpg","38","restless",0.3,0.6,0.5,0.32835382873603,"true"
"image-keyboard-response",522,408826,"0.0-3.170-1.170","21l76q37rlyfuuy",786,"2.csv","","null","resources/maskTrios/BT1B.jpg","null","",NA,NA,NA,NA,""
"image-keyboard-response",523,410028,"0.0-3.170-2.170","21l76q37rlyfuuy",786,"2.csv","","null","resources/images/coin2.png","null","",NA,NA,NA,NA,""
"image-keyboard-response",524,410525,"0.0-3.171-0.171","21l76q37rlyfuuy",786,"2.csv","","494.89999997615814","resources/trios/L2T4A2.jpg","38","restless",0.3,0.6,0.5,0.155048246137184,"true"
"image-keyboard-response",525,410927,"0.0-3.171-1.171","21l76q37rlyfuuy",786,"2.csv","","null","resources/maskTrios/BT4B.jpg","null","",NA,NA,NA,NA,""
"image-keyboard-response",526,412129,"0.0-3.171-2.171","21l76q37rlyfuuy",786,"2.csv","","null","resources/images/coin2.png","null","",NA,NA,NA,NA,""
"image-keyboard-response",527,412824,"0.0-3.172-0.172","21l76q37rlyfuuy",786,"2.csv","","694","resources/trios/L1T1A1.jpg","38","restless",0.3,0.6,0.5,0.765538991797697,"false"
"image-keyboard-response",528,413226,"0.0-3.172-1.172","21l76q37rlyfuuy",786,"2.csv","","null","resources/maskTrios/BT1B.jpg","null","",NA,NA,NA,NA,""
"image-keyboard-response",529,414427,"0.0-3.172-2.172","21l76q37rlyfuuy",786,"2.csv","","null","resources/images/fishbone.png","null","",NA,NA,NA,NA,""
"image-keyboard-response",530,414974,"0.0-3.173-0.173","21l76q37rlyfuuy",786,"2.csv","","545.7999999523163","resources/trios/L1T4A1.jpg","37","restless",0.3,0.6,0.5,0.66770235942315,"false"
"image-keyboard-response",531,415376,"0.0-3.173-1.173","21l76q37rlyfuuy",786,"2.csv","","null","resources/maskTrios/L1BB.jpg","null","",NA,NA,NA,NA,""
"image-keyboard-response",532,416578,"0.0-3.173-2.173","21l76q37rlyfuuy",786,"2.csv","","null","resources/images/fishbone.png","null","",NA,NA,NA,NA,""
"image-keyboard-response",533,417879,"0.0-3.174-0.174","21l76q37rlyfuuy",786,"2.csv","","1299.6000000238419","resources/trios/L2T1A1.jpg","38","restless",0.3,0.6,0.6,0.607132055603121,"false"
"image-keyboard-response",534,418282,"0.0-3.174-1.174","21l76q37rlyfuuy",786,"2.csv","","null","resources/maskTrios/BT1B.jpg","null","",NA,NA,NA,NA,""
"image-keyboard-response",535,419487,"0.0-3.174-2.174","21l76q37rlyfuuy",786,"2.csv","","null","resources/images/fishbone.png","null","",NA,NA,NA,NA,""
"image-keyboard-response",536,421208,"0.0-3.175-0.175","21l76q37rlyfuuy",786,"2.csv","","1719.9000000953674","resources/trios/L2T1A1.jpg","39","restless",0.3,0.6,0.6,0.245157880003408,"true"
"image-keyboard-response",537,421610,"0.0-3.175-1.175","21l76q37rlyfuuy",786,"2.csv","","null","resources/maskTrios/BBA1.jpg","null","",NA,NA,NA,NA,""
"image-keyboard-response",538,422813,"0.0-3.175-2.175","21l76q37rlyfuuy",786,"2.csv","","null","resources/images/coin2.png","null","",NA,NA,NA,NA,""
"image-keyboard-response",539,423394,"0.0-3.176-0.176","21l76q37rlyfuuy",786,"2.csv","","580.3999999761581","resources/trios/L1T1A1.jpg","38","restless",0.3,0.6,0.7,0.995715824234953,"false"
"image-keyboard-response",540,423797,"0.0-3.176-1.176","21l76q37rlyfuuy",786,"2.csv","","null","resources/maskTrios/BT1B.jpg","null","",NA,NA,NA,NA,""
"image-keyboard-response",541,424999,"0.0-3.176-2.176","21l76q37rlyfuuy",786,"2.csv","","null","resources/images/fishbone.png","null","",NA,NA,NA,NA,""
"image-keyboard-response",542,425257,"0.0-3.177-0.177","21l76q37rlyfuuy",786,"2.csv","","256.7999999523163","resources/trios/L1T1A2.jpg","39","restless",0.3,0.6,0.7,0.0559413019867279,"true"
"image-keyboard-response",543,425659,"0.0-3.177-1.177","21l76q37rlyfuuy",786,"2.csv","","null","resources/maskTrios/BBA2.jpg","null","",NA,NA,NA,NA,""
"image-keyboard-response",544,426862,"0.0-3.177-2.177","21l76q37rlyfuuy",786,"2.csv","","null","resources/images/coin2.png","null","",NA,NA,NA,NA,""
"image-keyboard-response",545,427215,"0.0-3.178-0.178","21l76q37rlyfuuy",786,"2.csv","","352.3000000715256","resources/trios/L2T4A1.jpg","39","restless",0.3,0.5,0.7,0.803132347045801,"false"
"image-keyboard-response",546,427618,"0.0-3.178-1.178","21l76q37rlyfuuy",786,"2.csv","","null","resources/maskTrios/BBA1.jpg","null","",NA,NA,NA,NA,""
"image-keyboard-response",547,428821,"0.0-3.178-2.178","21l76q37rlyfuuy",786,"2.csv","","null","resources/images/fishbone.png","null","",NA,NA,NA,NA,""
"image-keyboard-response",548,429247,"0.0-3.179-0.179","21l76q37rlyfuuy",786,"2.csv","","424.2999999523163","resources/trios/L1T4A2.jpg","37","restless",0.3,0.5,0.7,0.451944194193159,"false"
"image-keyboard-response",549,429648,"0.0-3.179-1.179","21l76q37rlyfuuy",786,"2.csv","","null","resources/maskTrios/L1BB.jpg","null","",NA,NA,NA,NA,""
"image-keyboard-response",550,430851,"0.0-3.179-2.179","21l76q37rlyfuuy",786,"2.csv","","null","resources/images/fishbone.png","null","",NA,NA,NA,NA,""
"image-keyboard-response",551,432200,"0.0-3.180-0.180","21l76q37rlyfuuy",786,"2.csv","","1348","resources/trios/L1T4A1.jpg","38","restless",0.3,0.5,0.8,0.340915336573576,"true"
"image-keyboard-response",552,432604,"0.0-3.180-1.180","21l76q37rlyfuuy",786,"2.csv","","null","resources/maskTrios/BT4B.jpg","null","",NA,NA,NA,NA,""
"image-keyboard-response",553,433806,"0.0-3.180-2.180","21l76q37rlyfuuy",786,"2.csv","","null","resources/images/coin2.png","null","",NA,NA,NA,NA,""
"image-keyboard-response",554,434186,"0.0-3.181-0.181","21l76q37rlyfuuy",786,"2.csv","","379.10000002384186","resources/trios/L1T4A1.jpg","38","restless",0.3,0.5,0.8,0.250418095584368,"true"
"image-keyboard-response",555,434590,"0.0-3.181-1.181","21l76q37rlyfuuy",786,"2.csv","","null","resources/maskTrios/BT4B.jpg","null","",NA,NA,NA,NA,""
"image-keyboard-response",556,435792,"0.0-3.181-2.181","21l76q37rlyfuuy",786,"2.csv","","null","resources/images/coin2.png","null","",NA,NA,NA,NA,""
"image-keyboard-response",557,436136,"0.0-3.182-0.182","21l76q37rlyfuuy",786,"2.csv","","343","resources/trios/L2T1A2.jpg","38","restless",0.3,0.4,0.9,0.67526319406949,"false"
"image-keyboard-response",558,436539,"0.0-3.182-1.182","21l76q37rlyfuuy",786,"2.csv","","null","resources/maskTrios/BT1B.jpg","null","",NA,NA,NA,NA,""
"image-keyboard-response",559,437741,"0.0-3.182-2.182","21l76q37rlyfuuy",786,"2.csv","","null","resources/images/fishbone.png","null","",NA,NA,NA,NA,""
"image-keyboard-response",560,437910,"0.0-3.183-0.183","21l76q37rlyfuuy",786,"2.csv","","167.80000007152557","resources/trios/L1T1A2.jpg","37","restless",0.3,0.4,0.9,0.417303634602729,"false"
"image-keyboard-response",561,438312,"0.0-3.183-1.183","21l76q37rlyfuuy",786,"2.csv","","null","resources/maskTrios/L1BB.jpg","null","",NA,NA,NA,NA,""
"image-keyboard-response",562,439514,"0.0-3.183-2.183","21l76q37rlyfuuy",786,"2.csv","","null","resources/images/fishbone.png","null","",NA,NA,NA,NA,""
"image-keyboard-response",563,440452,"0.0-3.184-0.184","21l76q37rlyfuuy",786,"2.csv","","936.7000000476837","resources/trios/L1T1A1.jpg","39","restless",0.4,0.5,0.9,0.308135069613384,"true"
"image-keyboard-response",564,440857,"0.0-3.184-1.184","21l76q37rlyfuuy",786,"2.csv","","null","resources/maskTrios/BBA1.jpg","null","",NA,NA,NA,NA,""
"image-keyboard-response",565,442059,"0.0-3.184-2.184","21l76q37rlyfuuy",786,"2.csv","","null","resources/images/coin2.png","null","",NA,NA,NA,NA,""
"image-keyboard-response",566,442401,"0.0-3.185-0.185","21l76q37rlyfuuy",786,"2.csv","","341.5","resources/trios/L2T4A2.jpg","39","restless",0.4,0.5,0.9,0.421410993248641,"true"
"image-keyboard-response",567,442806,"0.0-3.185-1.185","21l76q37rlyfuuy",786,"2.csv","","null","resources/maskTrios/BBA2.jpg","null","",NA,NA,NA,NA,""
"image-keyboard-response",568,444008,"0.0-3.185-2.185","21l76q37rlyfuuy",786,"2.csv","","null","resources/images/coin2.png","null","",NA,NA,NA,NA,""
"image-keyboard-response",569,444404,"0.0-3.186-0.186","21l76q37rlyfuuy",786,"2.csv","","394.2999999523163","resources/trios/L1T1A2.jpg","39","restless",0.4,0.5,0.9,0.121673365927763,"true"
"image-keyboard-response",570,444807,"0.0-3.186-1.186","21l76q37rlyfuuy",786,"2.csv","","null","resources/maskTrios/BBA2.jpg","null","",NA,NA,NA,NA,""
"image-keyboard-response",571,446009,"0.0-3.186-2.186","21l76q37rlyfuuy",786,"2.csv","","null","resources/images/coin2.png","null","",NA,NA,NA,NA,""
"image-keyboard-response",572,446394,"0.0-3.187-0.187","21l76q37rlyfuuy",786,"2.csv","","384.2000000476837","resources/trios/L2T1A2.jpg","39","restless",0.4,0.5,0.9,0.661017822751487,"true"
"image-keyboard-response",573,446797,"0.0-3.187-1.187","21l76q37rlyfuuy",786,"2.csv","","null","resources/maskTrios/BBA2.jpg","null","",NA,NA,NA,NA,""
"image-keyboard-response",574,448001,"0.0-3.187-2.187","21l76q37rlyfuuy",786,"2.csv","","null","resources/images/coin2.png","null","",NA,NA,NA,NA,""
"image-keyboard-response",575,448287,"0.0-3.188-0.188","21l76q37rlyfuuy",786,"2.csv","","284.09999990463257","resources/trios/L1T1A1.jpg","39","restless",0.4,0.5,0.9,0.960346716356842,"false"
"image-keyboard-response",576,448690,"0.0-3.188-1.188","21l76q37rlyfuuy",786,"2.csv","","null","resources/maskTrios/BBA1.jpg","null","",NA,NA,NA,NA,""
"image-keyboard-response",577,449891,"0.0-3.188-2.188","21l76q37rlyfuuy",786,"2.csv","","null","resources/images/fishbone.png","null","",NA,NA,NA,NA,""
"image-keyboard-response",578,450194,"0.0-3.189-0.189","21l76q37rlyfuuy",786,"2.csv","","301.2000000476837","resources/trios/L1T4A1.jpg","38","restless",0.4,0.5,0.9,0.589673073053603,"false"
"image-keyboard-response",579,450596,"0.0-3.189-1.189","21l76q37rlyfuuy",786,"2.csv","","null","resources/maskTrios/BT4B.jpg","null","",NA,NA,NA,NA,""
"image-keyboard-response",580,451798,"0.0-3.189-2.189","21l76q37rlyfuuy",786,"2.csv","","null","resources/images/fishbone.png","null","",NA,NA,NA,NA,""
"image-keyboard-response",581,452261,"0.0-3.190-0.190","21l76q37rlyfuuy",786,"2.csv","","461.7999999523163","resources/trios/L2T1A1.jpg","37","restless",0.4,0.5,0.9,0.858524286538467,"false"
"image-keyboard-response",582,452662,"0.0-3.190-1.190","21l76q37rlyfuuy",786,"2.csv","","null","resources/maskTrios/L2BB.jpg","null","",NA,NA,NA,NA,""
"image-keyboard-response",583,453864,"0.0-3.190-2.190","21l76q37rlyfuuy",786,"2.csv","","null","resources/images/fishbone.png","null","",NA,NA,NA,NA,""
"image-keyboard-response",584,453960,"0.0-3.191-0.191","21l76q37rlyfuuy",786,"2.csv","","95","resources/trios/L2T4A1.jpg","38","restless",0.4,0.5,0.9,0.407253747101276,"true"
"image-keyboard-response",585,454363,"0.0-3.191-1.191","21l76q37rlyfuuy",786,"2.csv","","null","resources/maskTrios/BT4B.jpg","null","",NA,NA,NA,NA,""
"image-keyboard-response",586,455565,"0.0-3.191-2.191","21l76q37rlyfuuy",786,"2.csv","","null","resources/images/coin2.png","null","",NA,NA,NA,NA,""
"image-keyboard-response",587,455833,"0.0-3.192-0.192","21l76q37rlyfuuy",786,"2.csv","","266.2000000476837","resources/trios/L2T4A2.jpg","39","restless",0.4,0.5,0.9,0.682136691799591,"true"
"image-keyboard-response",588,456234,"0.0-3.192-1.192","21l76q37rlyfuuy",786,"2.csv","","null","resources/maskTrios/BBA2.jpg","null","",NA,NA,NA,NA,""
"image-keyboard-response",589,457437,"0.0-3.192-2.192","21l76q37rlyfuuy",786,"2.csv","","null","resources/images/coin2.png","null","",NA,NA,NA,NA,""
"image-keyboard-response",590,457775,"0.0-3.193-0.193","21l76q37rlyfuuy",786,"2.csv","","336.39999997615814","resources/trios/L2T1A2.jpg","39","restless",0.4,0.5,0.9,0.691335529712177,"true"
"image-keyboard-response",591,458177,"0.0-3.193-1.193","21l76q37rlyfuuy",786,"2.csv","","null","resources/maskTrios/BBA2.jpg","null","",NA,NA,NA,NA,""
"image-keyboard-response",592,459380,"0.0-3.193-2.193","21l76q37rlyfuuy",786,"2.csv","","null","resources/images/coin2.png","null","",NA,NA,NA,NA,""
"image-keyboard-response",593,459784,"0.0-3.194-0.194","21l76q37rlyfuuy",786,"2.csv","","402.7999999523163","resources/trios/L2T1A1.jpg","38","restless",0.5,0.5,0.9,0.555754046706951,"false"
"image-keyboard-response",594,460187,"0.0-3.194-1.194","21l76q37rlyfuuy",786,"2.csv","","null","resources/maskTrios/BT1B.jpg","null","",NA,NA,NA,NA,""
"image-keyboard-response",595,461390,"0.0-3.194-2.194","21l76q37rlyfuuy",786,"2.csv","","null","resources/images/fishbone.png","null","",NA,NA,NA,NA,""
"image-keyboard-response",596,461919,"0.0-3.195-0.195","21l76q37rlyfuuy",786,"2.csv","","527.7000000476837","resources/trios/L1T1A2.jpg","39","restless",0.5,0.5,0.9,0.215553391760875,"true"
"image-keyboard-response",597,462322,"0.0-3.195-1.195","21l76q37rlyfuuy",786,"2.csv","","null","resources/maskTrios/BBA2.jpg","null","",NA,NA,NA,NA,""
"image-keyboard-response",598,463524,"0.0-3.195-2.195","21l76q37rlyfuuy",786,"2.csv","","null","resources/images/coin2.png","null","",NA,NA,NA,NA,""
"image-keyboard-response",599,463718,"0.0-3.196-0.196","21l76q37rlyfuuy",786,"2.csv","","193","resources/trios/L1T4A2.jpg","39","restless",0.5,0.5,0.9,0.753561734534399,"true"
"image-keyboard-response",600,464121,"0.0-3.196-1.196","21l76q37rlyfuuy",786,"2.csv","","null","resources/maskTrios/BBA2.jpg","null","",NA,NA,NA,NA,""
"image-keyboard-response",601,465323,"0.0-3.196-2.196","21l76q37rlyfuuy",786,"2.csv","","null","resources/images/coin2.png","null","",NA,NA,NA,NA,""
"image-keyboard-response",602,465578,"0.0-3.197-0.197","21l76q37rlyfuuy",786,"2.csv","","254.30000007152557","resources/trios/L1T1A1.jpg","39","restless",0.5,0.5,0.9,0.949593227063376,"false"
"image-keyboard-response",603,465980,"0.0-3.197-1.197","21l76q37rlyfuuy",786,"2.csv","","null","resources/maskTrios/BBA1.jpg","null","",NA,NA,NA,NA,""
"image-keyboard-response",604,467181,"0.0-3.197-2.197","21l76q37rlyfuuy",786,"2.csv","","null","resources/images/fishbone.png","null","",NA,NA,NA,NA,""
"image-keyboard-response",605,467560,"0.0-3.198-0.198","21l76q37rlyfuuy",786,"2.csv","","377","resources/trios/L1T4A2.jpg","37","restless",0.5,0.5,0.9,0.323021497507074,"true"
"image-keyboard-response",606,467962,"0.0-3.198-1.198","21l76q37rlyfuuy",786,"2.csv","","null","resources/maskTrios/L1BB.jpg","null","",NA,NA,NA,NA,""
"image-keyboard-response",607,469163,"0.0-3.198-2.198","21l76q37rlyfuuy",786,"2.csv","","null","resources/images/coin2.png","null","",NA,NA,NA,NA,""
"image-keyboard-response",608,469439,"0.0-3.199-0.199","21l76q37rlyfuuy",786,"2.csv","","274","resources/trios/L1T1A1.jpg","39","restless",0.6,0.5,0.9,0.580559806445746,"true"
"image-keyboard-response",609,469840,"0.0-3.199-1.199","21l76q37rlyfuuy",786,"2.csv","","null","resources/maskTrios/BBA1.jpg","null","",NA,NA,NA,NA,""
"image-keyboard-response",610,471042,"0.0-3.199-2.199","21l76q37rlyfuuy",786,"2.csv","","null","resources/images/coin2.png","null","",NA,NA,NA,NA,""
"image-keyboard-response",611,471349,"0.0-3.200-0.200","21l76q37rlyfuuy",786,"2.csv","","305.39999997615814","resources/trios/L2T4A2.jpg","37","restless",0.6,0.5,0.8,0.422330424434443,"true"
"image-keyboard-response",612,471750,"0.0-3.200-1.200","21l76q37rlyfuuy",786,"2.csv","","null","resources/maskTrios/L2BB.jpg","null","",NA,NA,NA,NA,""
"image-keyboard-response",613,472954,"0.0-3.200-2.200","21l76q37rlyfuuy",786,"2.csv","","null","resources/images/coin2.png","null","",NA,NA,NA,NA,""
