"trial_type","trial_index","time_elapsed","internal_node_id","subject","walkNumber","success","rt","stimulus","key_press","test_part","leftProb","midProb","rightProb","generatedNum","correct"
"pavlovia",0,1873,"0.0-0.0","oszqtgdwfo2njuk","23.csv","","","","","",NA,NA,NA,NA,""
"fullscreen",1,25111,"0.0-1.0","oszqtgdwfo2njuk","23.csv","true","","","","",NA,NA,NA,NA,""
"html-keyboard-response",2,29623,"0.0-2.0-0.0","oszqtgdwfo2njuk","23.csv","","4505","<p><font size='6'>Arrrgh!</p></font><p>Can you be the best pirate? Try to find lots of gold! But beware, some islands have more gold than others, and over time, the island with the most gold may change. Can YOU figure it out? </p><font size='6'>GOOD LUCK, CAPTAIN!!!</font><p>Press any key to begin</p>","32","",NA,NA,NA,NA,""
"image-keyboard-response",3,32629,"0.0-2.0-1.0","oszqtgdwfo2njuk","23.csv","","null","resources/image_sets/111.png","null","",NA,NA,NA,NA,""
"image-keyboard-response",4,38640,"0.0-2.0-2.0","oszqtgdwfo2njuk","23.csv","","6006","resources/image_sets/left_highlight.png","37","",NA,NA,NA,NA,""
"image-keyboard-response",5,41534,"0.0-2.0-3.0","oszqtgdwfo2njuk","23.csv","","2892","resources/image_sets/mid_highlight.png","38","",NA,NA,NA,NA,""
"image-keyboard-response",6,42880,"0.0-2.0-4.0","oszqtgdwfo2njuk","23.csv","","1343.9999999999927","resources/image_sets/right_highlight.png","39","",NA,NA,NA,NA,""
"image-keyboard-response",7,45196,"0.0-2.0-5.0","oszqtgdwfo2njuk","23.csv","","2313.0000000000146","resources/image_sets/111.png","13","",NA,NA,NA,NA,""
"image-keyboard-response",8,46876,"0.0-2.0-6.0","oszqtgdwfo2njuk","23.csv","","1678","resources/images/coin2.png","13","",NA,NA,NA,NA,""
"image-keyboard-response",9,48634,"0.0-2.0-7.0","oszqtgdwfo2njuk","23.csv","","1757","resources/images/fishbone.png","13","",NA,NA,NA,NA,""
"html-keyboard-response",10,53261,"0.0-2.0-8.0","oszqtgdwfo2njuk","23.csv","","4624","<p>Your first journey will be a long one, but you will get a well deserved break at the end</p><p>After the break you will have four more journeys, but each will be much shorter than the first, and you will have breaks in between each</p><p>Press Enter to begin</p>","13","",NA,NA,NA,NA,""
"image-keyboard-response",11,54996,"0.0-3.0-0.0","oszqtgdwfo2njuk","23.csv","","1733","resources/trios/L1T4A3.jpg","39","restless",0.3,0.7,0.9,0.422066104405184,"true"
"image-keyboard-response",12,55399,"0.0-3.0-1.0","oszqtgdwfo2njuk","23.csv","","null","resources/maskTrios/BBA3.jpg","null","",NA,NA,NA,NA,""
"image-keyboard-response",13,56603,"0.0-3.0-2.0","oszqtgdwfo2njuk","23.csv","","null","resources/images/coin2.png","null","",NA,NA,NA,NA,""
"image-keyboard-response",14,58057,"0.0-3.1-0.1","oszqtgdwfo2njuk","23.csv","","1452","resources/trios/L4T4A1.jpg","37","restless",0.3,0.7,0.9,0.952460036085737,"false"
"image-keyboard-response",15,58460,"0.0-3.1-1.1","oszqtgdwfo2njuk","23.csv","","null","resources/maskTrios/L4BB.jpg","null","",NA,NA,NA,NA,""
"image-keyboard-response",16,59663,"0.0-3.1-2.1","oszqtgdwfo2njuk","23.csv","","null","resources/images/fishbone.png","null","",NA,NA,NA,NA,""
"image-keyboard-response",17,60502,"0.0-3.2-0.2","oszqtgdwfo2njuk","23.csv","","837","resources/trios/L1T4A1.jpg","37","restless",0.3,0.7,0.8,0.382965759230067,"false"
"image-keyboard-response",18,60905,"0.0-3.2-1.2","oszqtgdwfo2njuk","23.csv","","null","resources/maskTrios/L1BB.jpg","null","",NA,NA,NA,NA,""
"image-keyboard-response",19,62108,"0.0-3.2-2.2","oszqtgdwfo2njuk","23.csv","","null","resources/images/fishbone.png","null","",NA,NA,NA,NA,""
"image-keyboard-response",20,63434,"0.0-3.3-0.3","oszqtgdwfo2njuk","23.csv","","1324.0000000000146","resources/trios/L1T4A3.jpg","38","restless",0.3,0.7,0.8,0.349309997028876,"true"
"image-keyboard-response",21,63837,"0.0-3.3-1.3","oszqtgdwfo2njuk","23.csv","","null","resources/maskTrios/BT4B.jpg","null","",NA,NA,NA,NA,""
"image-keyboard-response",22,65039,"0.0-3.3-2.3","oszqtgdwfo2njuk","23.csv","","null","resources/images/coin2.png","null","",NA,NA,NA,NA,""
"image-keyboard-response",23,66458,"0.0-3.4-0.4","oszqtgdwfo2njuk","23.csv","","1417","resources/trios/L1T4A3.jpg","39","restless",0.3,0.7,0.8,0.321998923077273,"true"
"image-keyboard-response",24,66860,"0.0-3.4-1.4","oszqtgdwfo2njuk","23.csv","","null","resources/maskTrios/BBA3.jpg","null","",NA,NA,NA,NA,""
"image-keyboard-response",25,68063,"0.0-3.4-2.4","oszqtgdwfo2njuk","23.csv","","null","resources/images/coin2.png","null","",NA,NA,NA,NA,""
"image-keyboard-response",26,68680,"0.0-3.5-0.5","oszqtgdwfo2njuk","23.csv","","616","resources/trios/L1T2A1.jpg","37","restless",0.3,0.7,0.8,0.699271818285653,"false"
"image-keyboard-response",27,69081,"0.0-3.5-1.5","oszqtgdwfo2njuk","23.csv","","null","resources/maskTrios/L1BB.jpg","null","",NA,NA,NA,NA,""
"image-keyboard-response",28,70284,"0.0-3.5-2.5","oszqtgdwfo2njuk","23.csv","","null","resources/images/fishbone.png","null","",NA,NA,NA,NA,""
"image-keyboard-response",29,70668,"0.0-3.6-0.6","oszqtgdwfo2njuk","23.csv","","381","resources/trios/L1T2A1.jpg","38","restless",0.3,0.7,0.8,0.544098362214742,"true"
"image-keyboard-response",30,71070,"0.0-3.6-1.6","oszqtgdwfo2njuk","23.csv","","null","resources/maskTrios/BT2B.jpg","null","",NA,NA,NA,NA,""
"image-keyboard-response",31,72272,"0.0-3.6-2.6","oszqtgdwfo2njuk","23.csv","","null","resources/images/coin2.png","null","",NA,NA,NA,NA,""
"image-keyboard-response",32,72891,"0.0-3.7-0.7","oszqtgdwfo2njuk","23.csv","","617","resources/trios/L4T2A1.jpg","39","restless",0.3,0.7,0.7,0.540520889030704,"true"
"image-keyboard-response",33,73293,"0.0-3.7-1.7","oszqtgdwfo2njuk","23.csv","","null","resources/maskTrios/BBA1.jpg","null","",NA,NA,NA,NA,""
"image-keyboard-response",34,74497,"0.0-3.7-2.7","oszqtgdwfo2njuk","23.csv","","null","resources/images/coin2.png","null","",NA,NA,NA,NA,""
"image-keyboard-response",35,75298,"0.0-3.8-0.8","oszqtgdwfo2njuk","23.csv","","799","resources/trios/L4T2A1.jpg","38","restless",0.3,0.7,0.7,0.612043340996413,"true"
"image-keyboard-response",36,75701,"0.0-3.8-1.8","oszqtgdwfo2njuk","23.csv","","null","resources/maskTrios/BT2B.jpg","null","",NA,NA,NA,NA,""
"image-keyboard-response",37,76905,"0.0-3.8-2.8","oszqtgdwfo2njuk","23.csv","","null","resources/images/coin2.png","null","",NA,NA,NA,NA,""
"image-keyboard-response",38,78198,"0.0-3.9-0.9","oszqtgdwfo2njuk","23.csv","","1292","resources/trios/L4T2A3.jpg","37","restless",0.3,0.7,0.7,0.537594984949172,"false"
"image-keyboard-response",39,78601,"0.0-3.9-1.9","oszqtgdwfo2njuk","23.csv","","null","resources/maskTrios/L4BB.jpg","null","",NA,NA,NA,NA,""
"image-keyboard-response",40,79802,"0.0-3.9-2.9","oszqtgdwfo2njuk","23.csv","","null","resources/images/fishbone.png","null","",NA,NA,NA,NA,""
"image-keyboard-response",41,80627,"0.0-3.10-0.10","oszqtgdwfo2njuk","23.csv","","823","resources/trios/L1T2A3.jpg","39","restless",0.3,0.7,0.7,0.138074057439726,"true"
"image-keyboard-response",42,81029,"0.0-3.10-1.10","oszqtgdwfo2njuk","23.csv","","null","resources/maskTrios/BBA3.jpg","null","",NA,NA,NA,NA,""
"image-keyboard-response",43,82232,"0.0-3.10-2.10","oszqtgdwfo2njuk","23.csv","","null","resources/images/coin2.png","null","",NA,NA,NA,NA,""
"image-keyboard-response",44,85461,"0.0-3.11-0.11","oszqtgdwfo2njuk","23.csv","","3227","resources/trios/L4T4A1.jpg","38","restless",0.3,0.7,0.7,0.92705240098205,"false"
"image-keyboard-response",45,85862,"0.0-3.11-1.11","oszqtgdwfo2njuk","23.csv","","null","resources/maskTrios/BT4B.jpg","null","",NA,NA,NA,NA,""
"image-keyboard-response",46,87063,"0.0-3.11-2.11","oszqtgdwfo2njuk","23.csv","","null","resources/images/fishbone.png","null","",NA,NA,NA,NA,""
"image-keyboard-response",47,87633,"0.0-3.12-0.12","oszqtgdwfo2njuk","23.csv","","568","resources/trios/L4T4A1.jpg","37","restless",0.4,0.7,0.7,0.725372419100135,"false"
"image-keyboard-response",48,88036,"0.0-3.12-1.12","oszqtgdwfo2njuk","23.csv","","null","resources/maskTrios/L4BB.jpg","null","",NA,NA,NA,NA,""
"image-keyboard-response",49,89239,"0.0-3.12-2.12","oszqtgdwfo2njuk","23.csv","","null","resources/images/fishbone.png","null","",NA,NA,NA,NA,""
"image-keyboard-response",50,89841,"0.0-3.13-0.13","oszqtgdwfo2njuk","23.csv","","600","resources/trios/L1T4A1.jpg","39","restless",0.4,0.7,0.7,0.570924189503055,"true"
"image-keyboard-response",51,90243,"0.0-3.13-1.13","oszqtgdwfo2njuk","23.csv","","null","resources/maskTrios/BBA1.jpg","null","",NA,NA,NA,NA,""
"image-keyboard-response",52,91446,"0.0-3.13-2.13","oszqtgdwfo2njuk","23.csv","","null","resources/images/coin2.png","null","",NA,NA,NA,NA,""
"image-keyboard-response",53,92250,"0.0-3.14-0.14","oszqtgdwfo2njuk","23.csv","","802.9999999999854","resources/trios/L1T2A3.jpg","38","restless",0.4,0.7,0.7,0.701700424884161,"false"
"image-keyboard-response",54,92653,"0.0-3.14-1.14","oszqtgdwfo2njuk","23.csv","","null","resources/maskTrios/BT2B.jpg","null","",NA,NA,NA,NA,""
"image-keyboard-response",55,93855,"0.0-3.14-2.14","oszqtgdwfo2njuk","23.csv","","null","resources/images/fishbone.png","null","",NA,NA,NA,NA,""
"image-keyboard-response",56,97003,"0.0-3.15-0.15","oszqtgdwfo2njuk","23.csv","","3147","resources/trios/L1T2A1.jpg","37","restless",0.4,0.7,0.7,0.255390072378219,"true"
"image-keyboard-response",57,97406,"0.0-3.15-1.15","oszqtgdwfo2njuk","23.csv","","null","resources/maskTrios/L1BB.jpg","null","",NA,NA,NA,NA,""
"image-keyboard-response",58,98609,"0.0-3.15-2.15","oszqtgdwfo2njuk","23.csv","","null","resources/images/coin2.png","null","",NA,NA,NA,NA,""
"image-keyboard-response",59,99195,"0.0-3.16-0.16","oszqtgdwfo2njuk","23.csv","","583.9999999999854","resources/trios/L4T4A1.jpg","39","restless",0.4,0.7,0.7,0.746418450580484,"false"
"image-keyboard-response",60,99598,"0.0-3.16-1.16","oszqtgdwfo2njuk","23.csv","","null","resources/maskTrios/BBA1.jpg","null","",NA,NA,NA,NA,""
"image-keyboard-response",61,100801,"0.0-3.16-2.16","oszqtgdwfo2njuk","23.csv","","null","resources/images/fishbone.png","null","",NA,NA,NA,NA,""
"image-keyboard-response",62,101256,"0.0-3.17-0.17","oszqtgdwfo2njuk","23.csv","","454","resources/trios/L1T4A3.jpg","38","restless",0.4,0.7,0.7,0.808848767232354,"false"
"image-keyboard-response",63,101659,"0.0-3.17-1.17","oszqtgdwfo2njuk","23.csv","","null","resources/maskTrios/BT4B.jpg","null","",NA,NA,NA,NA,""
"image-keyboard-response",64,102862,"0.0-3.17-2.17","oszqtgdwfo2njuk","23.csv","","null","resources/images/fishbone.png","null","",NA,NA,NA,NA,""
"image-keyboard-response",65,103332,"0.0-3.18-0.18","oszqtgdwfo2njuk","23.csv","","467.99999999998545","resources/trios/L4T2A1.jpg","39","restless",0.4,0.7,0.7,0.416040208044425,"true"
"image-keyboard-response",66,103735,"0.0-3.18-1.18","oszqtgdwfo2njuk","23.csv","","null","resources/maskTrios/BBA1.jpg","null","",NA,NA,NA,NA,""
"image-keyboard-response",67,104938,"0.0-3.18-2.18","oszqtgdwfo2njuk","23.csv","","null","resources/images/coin2.png","null","",NA,NA,NA,NA,""
"image-keyboard-response",68,106089,"0.0-3.19-0.19","oszqtgdwfo2njuk","23.csv","","1149.999999999971","resources/trios/L1T2A1.jpg","37","restless",0.4,0.7,0.7,0.475386582904833,"false"
"image-keyboard-response",69,106492,"0.0-3.19-1.19","oszqtgdwfo2njuk","23.csv","","null","resources/maskTrios/L1BB.jpg","null","",NA,NA,NA,NA,""
"image-keyboard-response",70,107695,"0.0-3.19-2.19","oszqtgdwfo2njuk","23.csv","","null","resources/images/fishbone.png","null","",NA,NA,NA,NA,""
"image-keyboard-response",71,108383,"0.0-3.20-0.20","oszqtgdwfo2njuk","23.csv","","687","resources/trios/L4T4A1.jpg","38","restless",0.4,0.7,0.7,0.134145969647949,"true"
"image-keyboard-response",72,108786,"0.0-3.20-1.20","oszqtgdwfo2njuk","23.csv","","null","resources/maskTrios/BT4B.jpg","null","",NA,NA,NA,NA,""
"image-keyboard-response",73,109989,"0.0-3.20-2.20","oszqtgdwfo2njuk","23.csv","","null","resources/images/coin2.png","null","",NA,NA,NA,NA,""
"image-keyboard-response",74,110498,"0.0-3.21-0.21","oszqtgdwfo2njuk","23.csv","","508","resources/trios/L1T4A1.jpg","39","restless",0.3,0.7,0.7,0.278874001912412,"true"
"image-keyboard-response",75,110901,"0.0-3.21-1.21","oszqtgdwfo2njuk","23.csv","","null","resources/maskTrios/BBA1.jpg","null","",NA,NA,NA,NA,""
"image-keyboard-response",76,112104,"0.0-3.21-2.21","oszqtgdwfo2njuk","23.csv","","null","resources/images/coin2.png","null","",NA,NA,NA,NA,""
"image-keyboard-response",77,119862,"0.0-3.22-0.22","oszqtgdwfo2njuk","23.csv","","7757","resources/trios/L4T2A1.jpg","39","restless",0.3,0.7,0.7,0.365174440028826,"true"
"image-keyboard-response",78,120265,"0.0-3.22-1.22","oszqtgdwfo2njuk","23.csv","","null","resources/maskTrios/BBA1.jpg","null","",NA,NA,NA,NA,""
"image-keyboard-response",79,121466,"0.0-3.22-2.22","oszqtgdwfo2njuk","23.csv","","null","resources/images/coin2.png","null","",NA,NA,NA,NA,""
"image-keyboard-response",80,123350,"0.0-3.23-0.23","oszqtgdwfo2njuk","23.csv","","1882","resources/trios/L1T2A1.jpg","37","restless",0.3,0.7,0.7,0.577320984528822,"false"
"image-keyboard-response",81,123753,"0.0-3.23-1.23","oszqtgdwfo2njuk","23.csv","","null","resources/maskTrios/L1BB.jpg","null","",NA,NA,NA,NA,""
"image-keyboard-response",82,124955,"0.0-3.23-2.23","oszqtgdwfo2njuk","23.csv","","null","resources/images/fishbone.png","null","",NA,NA,NA,NA,""
"image-keyboard-response",83,126054,"0.0-3.24-0.24","oszqtgdwfo2njuk","23.csv","","1098","resources/trios/L1T4A3.jpg","38","restless",0.3,0.7,0.7,0.336890409419881,"true"
"image-keyboard-response",84,126457,"0.0-3.24-1.24","oszqtgdwfo2njuk","23.csv","","null","resources/maskTrios/BT4B.jpg","null","",NA,NA,NA,NA,""
"image-keyboard-response",85,127659,"0.0-3.24-2.24","oszqtgdwfo2njuk","23.csv","","null","resources/images/coin2.png","null","",NA,NA,NA,NA,""
"image-keyboard-response",86,128150,"0.0-3.25-0.25","oszqtgdwfo2njuk","23.csv","","490","resources/trios/L1T4A3.jpg","39","restless",0.3,0.7,0.7,0.261871865865511,"true"
"image-keyboard-response",87,128552,"0.0-3.25-1.25","oszqtgdwfo2njuk","23.csv","","null","resources/maskTrios/BBA3.jpg","null","",NA,NA,NA,NA,""
"image-keyboard-response",88,129755,"0.0-3.25-2.25","oszqtgdwfo2njuk","23.csv","","null","resources/images/coin2.png","null","",NA,NA,NA,NA,""
"image-keyboard-response",89,130319,"0.0-3.26-0.26","oszqtgdwfo2njuk","23.csv","","562","resources/trios/L1T4A3.jpg","39","restless",0.3,0.7,0.7,0.641008793092497,"true"
"image-keyboard-response",90,130721,"0.0-3.26-1.26","oszqtgdwfo2njuk","23.csv","","null","resources/maskTrios/BBA3.jpg","null","",NA,NA,NA,NA,""
"image-keyboard-response",91,131923,"0.0-3.26-2.26","oszqtgdwfo2njuk","23.csv","","null","resources/images/coin2.png","null","",NA,NA,NA,NA,""
"image-keyboard-response",92,132315,"0.0-3.27-0.27","oszqtgdwfo2njuk","23.csv","","392","resources/trios/L1T4A3.jpg","37","restless",0.3,0.7,0.7,0.133889027233724,"true"
"image-keyboard-response",93,132718,"0.0-3.27-1.27","oszqtgdwfo2njuk","23.csv","","null","resources/maskTrios/L1BB.jpg","null","",NA,NA,NA,NA,""
"image-keyboard-response",94,133921,"0.0-3.27-2.27","oszqtgdwfo2njuk","23.csv","","null","resources/images/coin2.png","null","",NA,NA,NA,NA,""
"image-keyboard-response",95,135060,"0.0-3.28-0.28","oszqtgdwfo2njuk","23.csv","","1137","resources/trios/L1T4A1.jpg","38","restless",0.3,0.7,0.7,0.958305914283037,"false"
"image-keyboard-response",96,135462,"0.0-3.28-1.28","oszqtgdwfo2njuk","23.csv","","null","resources/maskTrios/BT4B.jpg","null","",NA,NA,NA,NA,""
"image-keyboard-response",97,136663,"0.0-3.28-2.28","oszqtgdwfo2njuk","23.csv","","null","resources/images/fishbone.png","null","",NA,NA,NA,NA,""
"image-keyboard-response",98,137376,"0.0-3.29-0.29","oszqtgdwfo2njuk","23.csv","","712","resources/trios/L4T2A1.jpg","39","restless",0.3,0.7,0.7,0.444097099682528,"true"
"image-keyboard-response",99,137779,"0.0-3.29-1.29","oszqtgdwfo2njuk","23.csv","","null","resources/maskTrios/BBA1.jpg","null","",NA,NA,NA,NA,""
"image-keyboard-response",100,138982,"0.0-3.29-2.29","oszqtgdwfo2njuk","23.csv","","null","resources/images/coin2.png","null","",NA,NA,NA,NA,""
"image-keyboard-response",101,142550,"0.0-3.30-0.30","oszqtgdwfo2njuk","23.csv","","3567","resources/trios/L1T4A1.jpg","37","restless",0.3,0.7,0.7,0.724197380494191,"false"
"image-keyboard-response",102,142953,"0.0-3.30-1.30","oszqtgdwfo2njuk","23.csv","","null","resources/maskTrios/L1BB.jpg","null","",NA,NA,NA,NA,""
"image-keyboard-response",103,144155,"0.0-3.30-2.30","oszqtgdwfo2njuk","23.csv","","null","resources/images/fishbone.png","null","",NA,NA,NA,NA,""
"image-keyboard-response",104,147734,"0.0-3.31-0.31","oszqtgdwfo2njuk","23.csv","","3577","resources/trios/L1T2A1.jpg","38","restless",0.3,0.7,0.7,0.50135847304921,"true"
"image-keyboard-response",105,148136,"0.0-3.31-1.31","oszqtgdwfo2njuk","23.csv","","null","resources/maskTrios/BT2B.jpg","null","",NA,NA,NA,NA,""
"image-keyboard-response",106,149339,"0.0-3.31-2.31","oszqtgdwfo2njuk","23.csv","","null","resources/images/coin2.png","null","",NA,NA,NA,NA,""
"image-keyboard-response",107,150785,"0.0-3.32-0.32","oszqtgdwfo2njuk","23.csv","","1445","resources/trios/L4T2A1.jpg","39","restless",0.3,0.7,0.7,0.536122319728011,"true"
"image-keyboard-response",108,151188,"0.0-3.32-1.32","oszqtgdwfo2njuk","23.csv","","null","resources/maskTrios/BBA1.jpg","null","",NA,NA,NA,NA,""
"image-keyboard-response",109,152389,"0.0-3.32-2.32","oszqtgdwfo2njuk","23.csv","","null","resources/images/coin2.png","null","",NA,NA,NA,NA,""
"image-keyboard-response",110,153655,"0.0-3.33-0.33","oszqtgdwfo2njuk","23.csv","","1264","resources/trios/L1T2A1.jpg","37","restless",0.2,0.7,0.7,0.465660201557816,"false"
"image-keyboard-response",111,154062,"0.0-3.33-1.33","oszqtgdwfo2njuk","23.csv","","null","resources/maskTrios/L1BB.jpg","null","",NA,NA,NA,NA,""
"image-keyboard-response",112,155264,"0.0-3.33-2.33","oszqtgdwfo2njuk","23.csv","","null","resources/images/fishbone.png","null","",NA,NA,NA,NA,""
"image-keyboard-response",113,155851,"0.0-3.34-0.34","oszqtgdwfo2njuk","23.csv","","584.9999999999709","resources/trios/L1T2A1.jpg","38","restless",0.3,0.6,0.7,0.516355939474587,"true"
"image-keyboard-response",114,156253,"0.0-3.34-1.34","oszqtgdwfo2njuk","23.csv","","null","resources/maskTrios/BT2B.jpg","null","",NA,NA,NA,NA,""
"image-keyboard-response",115,157456,"0.0-3.34-2.34","oszqtgdwfo2njuk","23.csv","","null","resources/images/coin2.png","null","",NA,NA,NA,NA,""
"image-keyboard-response",116,158112,"0.0-3.35-0.35","oszqtgdwfo2njuk","23.csv","","653.9999999999709","resources/trios/L1T4A1.jpg","39","restless",0.3,0.6,0.7,0.658296425510021,"true"
"image-keyboard-response",117,158515,"0.0-3.35-1.35","oszqtgdwfo2njuk","23.csv","","null","resources/maskTrios/BBA1.jpg","null","",NA,NA,NA,NA,""
"image-keyboard-response",118,159718,"0.0-3.35-2.35","oszqtgdwfo2njuk","23.csv","","null","resources/images/coin2.png","null","",NA,NA,NA,NA,""
"image-keyboard-response",119,162721,"0.0-3.36-0.36","oszqtgdwfo2njuk","23.csv","","3002","resources/trios/L4T4A1.jpg","39","restless",0.3,0.6,0.7,0.00274509735222006,"true"
"image-keyboard-response",120,163124,"0.0-3.36-1.36","oszqtgdwfo2njuk","23.csv","","null","resources/maskTrios/BBA1.jpg","null","",NA,NA,NA,NA,""
"image-keyboard-response",121,164327,"0.0-3.36-2.36","oszqtgdwfo2njuk","23.csv","","null","resources/images/coin2.png","null","",NA,NA,NA,NA,""
"image-keyboard-response",122,167886,"0.0-3.37-0.37","oszqtgdwfo2njuk","23.csv","","3558","resources/trios/L4T2A3.jpg","37","restless",0.3,0.6,0.7,0.0312000091911241,"true"
"image-keyboard-response",123,168289,"0.0-3.37-1.37","oszqtgdwfo2njuk","23.csv","","null","resources/maskTrios/L4BB.jpg","null","",NA,NA,NA,NA,""
"image-keyboard-response",124,169492,"0.0-3.37-2.37","oszqtgdwfo2njuk","23.csv","","null","resources/images/coin2.png","null","",NA,NA,NA,NA,""
"image-keyboard-response",125,170244,"0.0-3.38-0.38","oszqtgdwfo2njuk","23.csv","","750","resources/trios/L4T2A3.jpg","38","restless",0.3,0.6,0.7,0.934038157564316,"false"
"image-keyboard-response",126,170647,"0.0-3.38-1.38","oszqtgdwfo2njuk","23.csv","","null","resources/maskTrios/BT2B.jpg","null","",NA,NA,NA,NA,""
"image-keyboard-response",127,171850,"0.0-3.38-2.38","oszqtgdwfo2njuk","23.csv","","null","resources/images/fishbone.png","null","",NA,NA,NA,NA,""
"image-keyboard-response",128,172178,"0.0-3.39-0.39","oszqtgdwfo2njuk","23.csv","","323","resources/trios/L4T2A1.jpg","39","restless",0.3,0.6,0.7,0.334427152608914,"true"
"image-keyboard-response",129,172581,"0.0-3.39-1.39","oszqtgdwfo2njuk","23.csv","","null","resources/maskTrios/BBA1.jpg","null","",NA,NA,NA,NA,""
"image-keyboard-response",130,173784,"0.0-3.39-2.39","oszqtgdwfo2njuk","23.csv","","null","resources/images/coin2.png","null","",NA,NA,NA,NA,""
"image-keyboard-response",131,174986,"0.0-3.40-0.40","oszqtgdwfo2njuk","23.csv","","1195","resources/trios/L4T4A1.jpg","37","restless",0.3,0.6,0.7,0.593155739634261,"false"
"image-keyboard-response",132,175389,"0.0-3.40-1.40","oszqtgdwfo2njuk","23.csv","","null","resources/maskTrios/L4BB.jpg","null","",NA,NA,NA,NA,""
"image-keyboard-response",133,176592,"0.0-3.40-2.40","oszqtgdwfo2njuk","23.csv","","null","resources/images/fishbone.png","null","",NA,NA,NA,NA,""
"image-keyboard-response",134,188968,"0.0-3.41-0.41","oszqtgdwfo2njuk","23.csv","","12376.00000000003","resources/trios/L4T4A1.jpg","38","restless",0.3,0.5,0.8,0.37827626972458,"true"
"image-keyboard-response",135,189370,"0.0-3.41-1.41","oszqtgdwfo2njuk","23.csv","","null","resources/maskTrios/BT4B.jpg","null","",NA,NA,NA,NA,""
"image-keyboard-response",136,190573,"0.0-3.41-2.41","oszqtgdwfo2njuk","23.csv","","null","resources/images/coin2.png","null","",NA,NA,NA,NA,""
"image-keyboard-response",137,190973,"0.0-3.42-0.42","oszqtgdwfo2njuk","23.csv","","399","resources/trios/L4T2A3.jpg","39","restless",0.3,0.5,0.8,0.800763621182467,"false"
"image-keyboard-response",138,191376,"0.0-3.42-1.42","oszqtgdwfo2njuk","23.csv","","null","resources/maskTrios/BBA3.jpg","null","",NA,NA,NA,NA,""
"image-keyboard-response",139,192579,"0.0-3.42-2.42","oszqtgdwfo2njuk","23.csv","","null","resources/images/fishbone.png","null","",NA,NA,NA,NA,""
"image-keyboard-response",140,193808,"0.0-3.43-0.43","oszqtgdwfo2njuk","23.csv","","1227.000000000029","resources/trios/L4T4A1.jpg","37","restless",0.3,0.5,0.7,0.0716169643749255,"true"
"image-keyboard-response",141,194210,"0.0-3.43-1.43","oszqtgdwfo2njuk","23.csv","","null","resources/maskTrios/L4BB.jpg","null","",NA,NA,NA,NA,""
"image-keyboard-response",142,195413,"0.0-3.43-2.43","oszqtgdwfo2njuk","23.csv","","null","resources/images/coin2.png","null","",NA,NA,NA,NA,""
"image-keyboard-response",143,205534,"0.0-3.44-0.44","oszqtgdwfo2njuk","23.csv","","10119","resources/trios/L4T4A3.jpg","39","restless",0.3,0.5,0.7,0.150128656372373,"true"
"image-keyboard-response",144,205937,"0.0-3.44-1.44","oszqtgdwfo2njuk","23.csv","","null","resources/maskTrios/BBA3.jpg","null","",NA,NA,NA,NA,""
"image-keyboard-response",145,207140,"0.0-3.44-2.44","oszqtgdwfo2njuk","23.csv","","null","resources/images/coin2.png","null","",NA,NA,NA,NA,""
"image-keyboard-response",146,209320,"0.0-3.45-0.45","oszqtgdwfo2njuk","23.csv","","2179","resources/trios/L4T4A3.jpg","37","restless",0.3,0.5,0.7,0.5554829468199,"false"
"image-keyboard-response",147,209723,"0.0-3.45-1.45","oszqtgdwfo2njuk","23.csv","","null","resources/maskTrios/L4BB.jpg","null","",NA,NA,NA,NA,""
"image-keyboard-response",148,210924,"0.0-3.45-2.45","oszqtgdwfo2njuk","23.csv","","null","resources/images/fishbone.png","null","",NA,NA,NA,NA,""
"image-keyboard-response",149,211349,"0.0-3.46-0.46","oszqtgdwfo2njuk","23.csv","","423","resources/trios/L4T2A1.jpg","38","restless",0.3,0.5,0.7,0.82596790135885,"false"
"image-keyboard-response",150,211752,"0.0-3.46-1.46","oszqtgdwfo2njuk","23.csv","","null","resources/maskTrios/BT2B.jpg","null","",NA,NA,NA,NA,""
"image-keyboard-response",151,212953,"0.0-3.46-2.46","oszqtgdwfo2njuk","23.csv","","null","resources/images/fishbone.png","null","",NA,NA,NA,NA,""
"image-keyboard-response",152,215624,"0.0-3.47-0.47","oszqtgdwfo2njuk","23.csv","","2668","resources/trios/L1T4A1.jpg","38","restless",0.3,0.5,0.7,0.0119272695726265,"true"
"image-keyboard-response",153,216030,"0.0-3.47-1.47","oszqtgdwfo2njuk","23.csv","","null","resources/maskTrios/BT4B.jpg","null","",NA,NA,NA,NA,""
"image-keyboard-response",154,217233,"0.0-3.47-2.47","oszqtgdwfo2njuk","23.csv","","null","resources/images/coin2.png","null","",NA,NA,NA,NA,""
"image-keyboard-response",155,220488,"0.0-3.48-0.48","oszqtgdwfo2njuk","23.csv","","3253","resources/trios/L4T4A3.jpg","39","restless",0.4,0.5,0.7,0.799533747471994,"false"
"image-keyboard-response",156,220891,"0.0-3.48-1.48","oszqtgdwfo2njuk","23.csv","","null","resources/maskTrios/BBA3.jpg","null","",NA,NA,NA,NA,""
"image-keyboard-response",157,222093,"0.0-3.48-2.48","oszqtgdwfo2njuk","23.csv","","null","resources/images/fishbone.png","null","",NA,NA,NA,NA,""
"image-keyboard-response",158,222476,"0.0-3.49-0.49","oszqtgdwfo2njuk","23.csv","","380","resources/trios/L1T4A1.jpg","37","restless",0.4,0.4,0.6,0.821469789778232,"false"
"image-keyboard-response",159,222878,"0.0-3.49-1.49","oszqtgdwfo2njuk","23.csv","","null","resources/maskTrios/L1BB.jpg","null","",NA,NA,NA,NA,""
"image-keyboard-response",160,224080,"0.0-3.49-2.49","oszqtgdwfo2njuk","23.csv","","null","resources/images/fishbone.png","null","",NA,NA,NA,NA,""
"image-keyboard-response",161,224569,"0.0-3.50-0.50","oszqtgdwfo2njuk","23.csv","","487.0000000000291","resources/trios/L4T2A1.jpg","38","restless",0.4,0.4,0.6,0.861833826015512,"false"
"image-keyboard-response",162,224972,"0.0-3.50-1.50","oszqtgdwfo2njuk","23.csv","","null","resources/maskTrios/BT2B.jpg","null","",NA,NA,NA,NA,""
"image-keyboard-response",163,226175,"0.0-3.50-2.50","oszqtgdwfo2njuk","23.csv","","null","resources/images/fishbone.png","null","",NA,NA,NA,NA,""
"image-keyboard-response",164,226802,"0.0-3.51-0.51","oszqtgdwfo2njuk","23.csv","","625","resources/trios/L4T4A1.jpg","39","restless",0.5,0.4,0.6,0.0780936726646558,"true"
"image-keyboard-response",165,227205,"0.0-3.51-1.51","oszqtgdwfo2njuk","23.csv","","null","resources/maskTrios/BBA1.jpg","null","",NA,NA,NA,NA,""
"image-keyboard-response",166,228408,"0.0-3.51-2.51","oszqtgdwfo2njuk","23.csv","","null","resources/images/coin2.png","null","",NA,NA,NA,NA,""
"image-keyboard-response",167,230828,"0.0-3.52-0.52","oszqtgdwfo2njuk","23.csv","","2419","resources/trios/L1T2A3.jpg","38","restless",0.5,0.4,0.6,0.552768823213559,"false"
"image-keyboard-response",168,231234,"0.0-3.52-1.52","oszqtgdwfo2njuk","23.csv","","null","resources/maskTrios/BT2B.jpg","null","",NA,NA,NA,NA,""
"image-keyboard-response",169,232437,"0.0-3.52-2.52","oszqtgdwfo2njuk","23.csv","","null","resources/images/fishbone.png","null","",NA,NA,NA,NA,""
"image-keyboard-response",170,233192,"0.0-3.53-0.53","oszqtgdwfo2njuk","23.csv","","753","resources/trios/L1T4A1.jpg","37","restless",0.5,0.4,0.6,0.032880318644222,"true"
"image-keyboard-response",171,233594,"0.0-3.53-1.53","oszqtgdwfo2njuk","23.csv","","null","resources/maskTrios/L1BB.jpg","null","",NA,NA,NA,NA,""
"image-keyboard-response",172,234796,"0.0-3.53-2.53","oszqtgdwfo2njuk","23.csv","","null","resources/images/coin2.png","null","",NA,NA,NA,NA,""
"image-keyboard-response",173,235790,"0.0-3.54-0.54","oszqtgdwfo2njuk","23.csv","","992.0000000000291","resources/trios/L4T2A3.jpg","39","restless",0.5,0.4,0.6,0.640100994448606,"false"
"image-keyboard-response",174,236193,"0.0-3.54-1.54","oszqtgdwfo2njuk","23.csv","","null","resources/maskTrios/BBA3.jpg","null","",NA,NA,NA,NA,""
"image-keyboard-response",175,237396,"0.0-3.54-2.54","oszqtgdwfo2njuk","23.csv","","null","resources/images/fishbone.png","null","",NA,NA,NA,NA,""
"image-keyboard-response",176,237761,"0.0-3.55-0.55","oszqtgdwfo2njuk","23.csv","","364.0000000000291","resources/trios/L4T2A3.jpg","38","restless",0.5,0.4,0.6,0.994580417098051,"false"
"image-keyboard-response",177,238168,"0.0-3.55-1.55","oszqtgdwfo2njuk","23.csv","","null","resources/maskTrios/BT2B.jpg","null","",NA,NA,NA,NA,""
"image-keyboard-response",178,239369,"0.0-3.55-2.55","oszqtgdwfo2njuk","23.csv","","null","resources/images/fishbone.png","null","",NA,NA,NA,NA,""
"image-keyboard-response",179,239661,"0.0-3.56-0.56","oszqtgdwfo2njuk","23.csv","","290","resources/trios/L1T2A3.jpg","37","restless",0.6,0.4,0.6,0.580525429697875,"true"
"image-keyboard-response",180,240064,"0.0-3.56-1.56","oszqtgdwfo2njuk","23.csv","","null","resources/maskTrios/L1BB.jpg","null","",NA,NA,NA,NA,""
"image-keyboard-response",181,241266,"0.0-3.56-2.56","oszqtgdwfo2njuk","23.csv","","null","resources/images/coin2.png","null","",NA,NA,NA,NA,""
"image-keyboard-response",182,241699,"0.0-3.57-0.57","oszqtgdwfo2njuk","23.csv","","431.9999999999418","resources/trios/L1T2A3.jpg","37","restless",0.7,0.4,0.6,0.166282344044861,"true"
"image-keyboard-response",183,242101,"0.0-3.57-1.57","oszqtgdwfo2njuk","23.csv","","null","resources/maskTrios/L1BB.jpg","null","",NA,NA,NA,NA,""
"image-keyboard-response",184,243305,"0.0-3.57-2.57","oszqtgdwfo2njuk","23.csv","","null","resources/images/coin2.png","null","",NA,NA,NA,NA,""
"image-keyboard-response",185,243617,"0.0-3.58-0.58","oszqtgdwfo2njuk","23.csv","","310","resources/trios/L4T2A1.jpg","39","restless",0.8,0.5,0.6,0.463508935428214,"true"
"image-keyboard-response",186,244020,"0.0-3.58-1.58","oszqtgdwfo2njuk","23.csv","","null","resources/maskTrios/BBA1.jpg","null","",NA,NA,NA,NA,""
"image-keyboard-response",187,245222,"0.0-3.58-2.58","oszqtgdwfo2njuk","23.csv","","null","resources/images/coin2.png","null","",NA,NA,NA,NA,""
"image-keyboard-response",188,245544,"0.0-3.59-0.59","oszqtgdwfo2njuk","23.csv","","320","resources/trios/L4T2A3.jpg","39","restless",0.8,0.5,0.6,0.24151932709179,"true"
"image-keyboard-response",189,245947,"0.0-3.59-1.59","oszqtgdwfo2njuk","23.csv","","null","resources/maskTrios/BBA3.jpg","null","",NA,NA,NA,NA,""
"image-keyboard-response",190,247150,"0.0-3.59-2.59","oszqtgdwfo2njuk","23.csv","","null","resources/images/coin2.png","null","",NA,NA,NA,NA,""
"image-keyboard-response",191,247542,"0.0-3.60-0.60","oszqtgdwfo2njuk","23.csv","","387","resources/trios/L4T4A3.jpg","38","restless",0.9,0.5,0.6,0.609818587704832,"false"
"image-keyboard-response",192,247944,"0.0-3.60-1.60","oszqtgdwfo2njuk","23.csv","","null","resources/maskTrios/BT4B.jpg","null","",NA,NA,NA,NA,""
"image-keyboard-response",193,249146,"0.0-3.60-2.60","oszqtgdwfo2njuk","23.csv","","null","resources/images/fishbone.png","null","",NA,NA,NA,NA,""
"image-keyboard-response",194,249437,"0.0-3.61-0.61","oszqtgdwfo2njuk","23.csv","","288","resources/trios/L4T2A3.jpg","38","restless",0.9,0.5,0.6,0.0111701843171126,"true"
"image-keyboard-response",195,249840,"0.0-3.61-1.61","oszqtgdwfo2njuk","23.csv","","null","resources/maskTrios/BT2B.jpg","null","",NA,NA,NA,NA,""
"image-keyboard-response",196,251043,"0.0-3.61-2.61","oszqtgdwfo2njuk","23.csv","","null","resources/images/coin2.png","null","",NA,NA,NA,NA,""
"image-keyboard-response",197,251546,"0.0-3.62-0.62","oszqtgdwfo2njuk","23.csv","","496","resources/trios/L4T4A1.jpg","39","restless",0.9,0.5,0.6,0.712106387249286,"false"
"image-keyboard-response",198,251949,"0.0-3.62-1.62","oszqtgdwfo2njuk","23.csv","","null","resources/maskTrios/BBA1.jpg","null","",NA,NA,NA,NA,""
"image-keyboard-response",199,253152,"0.0-3.62-2.62","oszqtgdwfo2njuk","23.csv","","null","resources/images/fishbone.png","null","",NA,NA,NA,NA,""
"image-keyboard-response",200,253458,"0.0-3.63-0.63","oszqtgdwfo2njuk","23.csv","","302.9999999999418","resources/trios/L1T4A1.jpg","37","restless",0.9,0.5,0.6,0.274741803820984,"true"
"image-keyboard-response",201,253860,"0.0-3.63-1.63","oszqtgdwfo2njuk","23.csv","","null","resources/maskTrios/L1BB.jpg","null","",NA,NA,NA,NA,""
"image-keyboard-response",202,255063,"0.0-3.63-2.63","oszqtgdwfo2njuk","23.csv","","null","resources/images/coin2.png","null","",NA,NA,NA,NA,""
"image-keyboard-response",203,261741,"0.0-3.64-0.64","oszqtgdwfo2njuk","23.csv","","6676","resources/trios/L1T4A3.jpg","37","restless",0.8,0.5,0.6,0.370946111171489,"true"
"image-keyboard-response",204,262143,"0.0-3.64-1.64","oszqtgdwfo2njuk","23.csv","","null","resources/maskTrios/L1BB.jpg","null","",NA,NA,NA,NA,""
"image-keyboard-response",205,263346,"0.0-3.64-2.64","oszqtgdwfo2njuk","23.csv","","null","resources/images/coin2.png","null","",NA,NA,NA,NA,""
"image-keyboard-response",206,273272,"0.0-3.65-0.65","oszqtgdwfo2njuk","23.csv","","9925","resources/trios/L4T2A1.jpg","39","restless",0.8,0.5,0.6,0.855339440292764,"false"
"image-keyboard-response",207,273674,"0.0-3.65-1.65","oszqtgdwfo2njuk","23.csv","","null","resources/maskTrios/BBA1.jpg","null","",NA,NA,NA,NA,""
"image-keyboard-response",208,274877,"0.0-3.65-2.65","oszqtgdwfo2njuk","23.csv","","null","resources/images/fishbone.png","null","",NA,NA,NA,NA,""
"image-keyboard-response",209,295829,"0.0-3.66-0.66","oszqtgdwfo2njuk","23.csv","","20951","resources/trios/L1T2A3.jpg","37","restless",0.8,0.5,0.6,0.909513574999875,"false"
"image-keyboard-response",210,296232,"0.0-3.66-1.66","oszqtgdwfo2njuk","23.csv","","null","resources/maskTrios/L1BB.jpg","null","",NA,NA,NA,NA,""
"image-keyboard-response",211,297435,"0.0-3.66-2.66","oszqtgdwfo2njuk","23.csv","","null","resources/images/fishbone.png","null","",NA,NA,NA,NA,""
"image-keyboard-response",212,301009,"0.0-3.67-0.67","oszqtgdwfo2njuk","23.csv","","3571","resources/trios/L4T4A3.jpg","38","restless",0.8,0.5,0.6,0.489870479299129,"true"
"image-keyboard-response",213,301412,"0.0-3.67-1.67","oszqtgdwfo2njuk","23.csv","","null","resources/maskTrios/BT4B.jpg","null","",NA,NA,NA,NA,""
"image-keyboard-response",214,302615,"0.0-3.67-2.67","oszqtgdwfo2njuk","23.csv","","null","resources/images/coin2.png","null","",NA,NA,NA,NA,""
"image-keyboard-response",215,303255,"0.0-3.68-0.68","oszqtgdwfo2njuk","23.csv","","639","resources/trios/L1T4A3.jpg","38","restless",0.8,0.5,0.6,0.351570187467729,"true"
"image-keyboard-response",216,303657,"0.0-3.68-1.68","oszqtgdwfo2njuk","23.csv","","null","resources/maskTrios/BT4B.jpg","null","",NA,NA,NA,NA,""
"image-keyboard-response",217,304860,"0.0-3.68-2.68","oszqtgdwfo2njuk","23.csv","","null","resources/images/coin2.png","null","",NA,NA,NA,NA,""
"image-keyboard-response",218,318730,"0.0-3.69-0.69","oszqtgdwfo2njuk","23.csv","","13869","resources/trios/L1T2A1.jpg","38","restless",0.8,0.5,0.6,0.357750350237336,"true"
"image-keyboard-response",219,319136,"0.0-3.69-1.69","oszqtgdwfo2njuk","23.csv","","null","resources/maskTrios/BT2B.jpg","null","",NA,NA,NA,NA,""
"image-keyboard-response",220,320340,"0.0-3.69-2.69","oszqtgdwfo2njuk","23.csv","","null","resources/images/coin2.png","null","",NA,NA,NA,NA,""
"image-keyboard-response",221,330430,"0.0-3.70-0.70","oszqtgdwfo2njuk","23.csv","","10089","resources/trios/L4T4A3.jpg","38","restless",0.8,0.5,0.6,0.632169067947796,"false"
"image-keyboard-response",222,330833,"0.0-3.70-1.70","oszqtgdwfo2njuk","23.csv","","null","resources/maskTrios/BT4B.jpg","null","",NA,NA,NA,NA,""
"image-keyboard-response",223,332036,"0.0-3.70-2.70","oszqtgdwfo2njuk","23.csv","","null","resources/images/fishbone.png","null","",NA,NA,NA,NA,""
"image-keyboard-response",224,332486,"0.0-3.71-0.71","oszqtgdwfo2njuk","23.csv","","449","resources/trios/L1T4A1.jpg","37","restless",0.8,0.5,0.6,0.330931609423566,"true"
"image-keyboard-response",225,332888,"0.0-3.71-1.71","oszqtgdwfo2njuk","23.csv","","null","resources/maskTrios/L1BB.jpg","null","",NA,NA,NA,NA,""
"image-keyboard-response",226,334089,"0.0-3.71-2.71","oszqtgdwfo2njuk","23.csv","","null","resources/images/coin2.png","null","",NA,NA,NA,NA,""
"image-keyboard-response",227,336709,"0.0-3.72-0.72","oszqtgdwfo2njuk","23.csv","","2618","resources/trios/L4T4A1.jpg","37","restless",0.8,0.5,0.6,0.931324411432754,"false"
"image-keyboard-response",228,337111,"0.0-3.72-1.72","oszqtgdwfo2njuk","23.csv","","null","resources/maskTrios/L4BB.jpg","null","",NA,NA,NA,NA,""
"image-keyboard-response",229,338313,"0.0-3.72-2.72","oszqtgdwfo2njuk","23.csv","","null","resources/images/fishbone.png","null","",NA,NA,NA,NA,""
"image-keyboard-response",230,340200,"0.0-3.73-0.73","oszqtgdwfo2njuk","23.csv","","1885","resources/trios/L4T2A3.jpg","39","restless",0.8,0.5,0.6,0.664145763608884,"false"
"image-keyboard-response",231,340603,"0.0-3.73-1.73","oszqtgdwfo2njuk","23.csv","","null","resources/maskTrios/BBA3.jpg","null","",NA,NA,NA,NA,""
"image-keyboard-response",232,341805,"0.0-3.73-2.73","oszqtgdwfo2njuk","23.csv","","null","resources/images/fishbone.png","null","",NA,NA,NA,NA,""
"image-keyboard-response",233,342568,"0.0-3.74-0.74","oszqtgdwfo2njuk","23.csv","","762","resources/trios/L1T4A1.jpg","38","restless",0.8,0.5,0.6,0.417918258516404,"true"
"image-keyboard-response",234,342970,"0.0-3.74-1.74","oszqtgdwfo2njuk","23.csv","","null","resources/maskTrios/BT4B.jpg","null","",NA,NA,NA,NA,""
"image-keyboard-response",235,344176,"0.0-3.74-2.74","oszqtgdwfo2njuk","23.csv","","null","resources/images/coin2.png","null","",NA,NA,NA,NA,""
"image-keyboard-response",236,348862,"0.0-3.75-0.75","oszqtgdwfo2njuk","23.csv","","4684.000000000058","resources/trios/L4T4A1.jpg","37","restless",0.8,0.5,0.6,0.0998612929033382,"true"
"image-keyboard-response",237,349265,"0.0-3.75-1.75","oszqtgdwfo2njuk","23.csv","","null","resources/maskTrios/L4BB.jpg","null","",NA,NA,NA,NA,""
"image-keyboard-response",238,350468,"0.0-3.75-2.75","oszqtgdwfo2njuk","23.csv","","null","resources/images/coin2.png","null","",NA,NA,NA,NA,""
"image-keyboard-response",239,352054,"0.0-3.76-0.76","oszqtgdwfo2njuk","23.csv","","1585","resources/trios/L4T2A1.jpg","37","restless",0.8,0.5,0.6,0.367096241371061,"true"
"image-keyboard-response",240,352457,"0.0-3.76-1.76","oszqtgdwfo2njuk","23.csv","","null","resources/maskTrios/L4BB.jpg","null","",NA,NA,NA,NA,""
"image-keyboard-response",241,353659,"0.0-3.76-2.76","oszqtgdwfo2njuk","23.csv","","null","resources/images/coin2.png","null","",NA,NA,NA,NA,""
"image-keyboard-response",242,354611,"0.0-3.77-0.77","oszqtgdwfo2njuk","23.csv","","950","resources/trios/L4T2A1.jpg","38","restless",0.8,0.5,0.6,0.584326923525775,"false"
"image-keyboard-response",243,355014,"0.0-3.77-1.77","oszqtgdwfo2njuk","23.csv","","null","resources/maskTrios/BT2B.jpg","null","",NA,NA,NA,NA,""
"image-keyboard-response",244,356215,"0.0-3.77-2.77","oszqtgdwfo2njuk","23.csv","","null","resources/images/fishbone.png","null","",NA,NA,NA,NA,""
"image-keyboard-response",245,356715,"0.0-3.78-0.78","oszqtgdwfo2njuk","23.csv","","498","resources/trios/L1T4A1.jpg","38","restless",0.8,0.4,0.6,0.306193579227741,"true"
"image-keyboard-response",246,357117,"0.0-3.78-1.78","oszqtgdwfo2njuk","23.csv","","null","resources/maskTrios/BT4B.jpg","null","",NA,NA,NA,NA,""
"image-keyboard-response",247,358318,"0.0-3.78-2.78","oszqtgdwfo2njuk","23.csv","","null","resources/images/coin2.png","null","",NA,NA,NA,NA,""
"image-keyboard-response",248,359401,"0.0-3.79-0.79","oszqtgdwfo2njuk","23.csv","","1081","resources/trios/L1T2A1.jpg","39","restless",0.8,0.4,0.5,0.515894052361358,"false"
"image-keyboard-response",249,359803,"0.0-3.79-1.79","oszqtgdwfo2njuk","23.csv","","null","resources/maskTrios/BBA1.jpg","null","",NA,NA,NA,NA,""
"image-keyboard-response",250,361005,"0.0-3.79-2.79","oszqtgdwfo2njuk","23.csv","","null","resources/images/fishbone.png","null","",NA,NA,NA,NA,""
"image-keyboard-response",251,361442,"0.0-3.80-0.80","oszqtgdwfo2njuk","23.csv","","435","resources/trios/L1T4A3.jpg","37","restless",0.8,0.4,0.6,0.338482523492579,"true"
"image-keyboard-response",252,361844,"0.0-3.80-1.80","oszqtgdwfo2njuk","23.csv","","null","resources/maskTrios/L1BB.jpg","null","",NA,NA,NA,NA,""
"image-keyboard-response",253,363046,"0.0-3.80-2.80","oszqtgdwfo2njuk","23.csv","","null","resources/images/coin2.png","null","",NA,NA,NA,NA,""
"image-keyboard-response",254,369985,"0.0-3.81-0.81","oszqtgdwfo2njuk","23.csv","","6937","resources/trios/L4T2A1.jpg","39","restless",0.8,0.4,0.6,0.638248819894385,"false"
"image-keyboard-response",255,370387,"0.0-3.81-1.81","oszqtgdwfo2njuk","23.csv","","null","resources/maskTrios/BBA1.jpg","null","",NA,NA,NA,NA,""
"image-keyboard-response",256,371589,"0.0-3.81-2.81","oszqtgdwfo2njuk","23.csv","","null","resources/images/fishbone.png","null","",NA,NA,NA,NA,""
"image-keyboard-response",257,373910,"0.0-3.82-0.82","oszqtgdwfo2njuk","23.csv","","2319.000000000058","resources/trios/L4T2A3.jpg","38","restless",0.7,0.4,0.5,0.603562184939199,"false"
"image-keyboard-response",258,374312,"0.0-3.82-1.82","oszqtgdwfo2njuk","23.csv","","null","resources/maskTrios/BT2B.jpg","null","",NA,NA,NA,NA,""
"image-keyboard-response",259,375514,"0.0-3.82-2.82","oszqtgdwfo2njuk","23.csv","","null","resources/images/fishbone.png","null","",NA,NA,NA,NA,""
"image-keyboard-response",260,375885,"0.0-3.83-0.83","oszqtgdwfo2njuk","23.csv","","368.9999999999418","resources/trios/L4T2A3.jpg","37","restless",0.7,0.4,0.5,0.289229873383151,"true"
"image-keyboard-response",261,376287,"0.0-3.83-1.83","oszqtgdwfo2njuk","23.csv","","null","resources/maskTrios/L4BB.jpg","null","",NA,NA,NA,NA,""
"image-keyboard-response",262,377489,"0.0-3.83-2.83","oszqtgdwfo2njuk","23.csv","","null","resources/images/coin2.png","null","",NA,NA,NA,NA,""
"image-keyboard-response",263,378078,"0.0-3.84-0.84","oszqtgdwfo2njuk","23.csv","","588","resources/trios/L1T2A1.jpg","39","restless",0.7,0.4,0.5,0.559620607018295,"false"
"image-keyboard-response",264,378481,"0.0-3.84-1.84","oszqtgdwfo2njuk","23.csv","","null","resources/maskTrios/BBA1.jpg","null","",NA,NA,NA,NA,""
"image-keyboard-response",265,379683,"0.0-3.84-2.84","oszqtgdwfo2njuk","23.csv","","null","resources/images/fishbone.png","null","",NA,NA,NA,NA,""
"image-keyboard-response",266,381516,"0.0-3.85-0.85","oszqtgdwfo2njuk","23.csv","","1831.0000000000582","resources/trios/L4T2A3.jpg","38","restless",0.7,0.4,0.4,0.655325168169526,"false"
"image-keyboard-response",267,381919,"0.0-3.85-1.85","oszqtgdwfo2njuk","23.csv","","null","resources/maskTrios/BT2B.jpg","null","",NA,NA,NA,NA,""
"image-keyboard-response",268,383120,"0.0-3.85-2.85","oszqtgdwfo2njuk","23.csv","","null","resources/images/fishbone.png","null","",NA,NA,NA,NA,""
"image-keyboard-response",269,383579,"0.0-3.86-0.86","oszqtgdwfo2njuk","23.csv","","458","resources/trios/L1T2A1.jpg","37","restless",0.6,0.4,0.4,0.202717230859161,"true"
"image-keyboard-response",270,383982,"0.0-3.86-1.86","oszqtgdwfo2njuk","23.csv","","null","resources/maskTrios/L1BB.jpg","null","",NA,NA,NA,NA,""
"image-keyboard-response",271,385185,"0.0-3.86-2.86","oszqtgdwfo2njuk","23.csv","","null","resources/images/coin2.png","null","",NA,NA,NA,NA,""
"image-keyboard-response",272,385680,"0.0-3.87-0.87","oszqtgdwfo2njuk","23.csv","","494","resources/trios/L4T2A1.jpg","37","restless",0.6,0.4,0.4,0.354727457186438,"true"
"image-keyboard-response",273,386082,"0.0-3.87-1.87","oszqtgdwfo2njuk","23.csv","","null","resources/maskTrios/L4BB.jpg","null","",NA,NA,NA,NA,""
"image-keyboard-response",274,387285,"0.0-3.87-2.87","oszqtgdwfo2njuk","23.csv","","null","resources/images/coin2.png","null","",NA,NA,NA,NA,""
"image-keyboard-response",275,387986,"0.0-3.88-0.88","oszqtgdwfo2njuk","23.csv","","700.0000000000582","resources/trios/L1T4A3.jpg","39","restless",0.6,0.4,0.4,0.142295881231994,"true"
"image-keyboard-response",276,388389,"0.0-3.88-1.88","oszqtgdwfo2njuk","23.csv","","null","resources/maskTrios/BBA3.jpg","null","",NA,NA,NA,NA,""
"image-keyboard-response",277,389590,"0.0-3.88-2.88","oszqtgdwfo2njuk","23.csv","","null","resources/images/coin2.png","null","",NA,NA,NA,NA,""
"image-keyboard-response",278,390454,"0.0-3.89-0.89","oszqtgdwfo2njuk","23.csv","","863","resources/trios/L1T2A3.jpg","39","restless",0.6,0.4,0.4,0.9746516598963,"false"
"image-keyboard-response",279,390857,"0.0-3.89-1.89","oszqtgdwfo2njuk","23.csv","","null","resources/maskTrios/BBA3.jpg","null","",NA,NA,NA,NA,""
"image-keyboard-response",280,392064,"0.0-3.89-2.89","oszqtgdwfo2njuk","23.csv","","null","resources/images/fishbone.png","null","",NA,NA,NA,NA,""
"image-keyboard-response",281,392915,"0.0-3.90-0.90","oszqtgdwfo2njuk","23.csv","","848.0000000000582","resources/trios/L1T2A1.jpg","38","restless",0.6,0.4,0.3,0.967079626394057,"false"
"image-keyboard-response",282,393320,"0.0-3.90-1.90","oszqtgdwfo2njuk","23.csv","","null","resources/maskTrios/BT2B.jpg","null","",NA,NA,NA,NA,""
"image-keyboard-response",283,394525,"0.0-3.90-2.90","oszqtgdwfo2njuk","23.csv","","null","resources/images/fishbone.png","null","",NA,NA,NA,NA,""
"image-keyboard-response",284,399083,"0.0-3.91-0.91","oszqtgdwfo2njuk","23.csv","","4555","resources/trios/L4T4A1.jpg","37","restless",0.6,0.4,0.3,0.136253667606195,"true"
"image-keyboard-response",285,399485,"0.0-3.91-1.91","oszqtgdwfo2njuk","23.csv","","null","resources/maskTrios/L4BB.jpg","null","",NA,NA,NA,NA,""
"image-keyboard-response",286,400688,"0.0-3.91-2.91","oszqtgdwfo2njuk","23.csv","","null","resources/images/coin2.png","null","",NA,NA,NA,NA,""
"image-keyboard-response",287,403289,"0.0-3.92-0.92","oszqtgdwfo2njuk","23.csv","","2598","resources/trios/L4T2A3.jpg","37","restless",0.6,0.4,0.3,0.952495373479931,"false"
"image-keyboard-response",288,403691,"0.0-3.92-1.92","oszqtgdwfo2njuk","23.csv","","null","resources/maskTrios/L4BB.jpg","null","",NA,NA,NA,NA,""
"image-keyboard-response",289,404894,"0.0-3.92-2.92","oszqtgdwfo2njuk","23.csv","","null","resources/images/fishbone.png","null","",NA,NA,NA,NA,""
"image-keyboard-response",290,406035,"0.0-3.93-0.93","oszqtgdwfo2njuk","23.csv","","1139","resources/trios/L1T2A1.jpg","38","restless",0.6,0.4,0.3,0.878207339573476,"false"
"image-keyboard-response",291,406437,"0.0-3.93-1.93","oszqtgdwfo2njuk","23.csv","","null","resources/maskTrios/BT2B.jpg","null","",NA,NA,NA,NA,""
"image-keyboard-response",292,407640,"0.0-3.93-2.93","oszqtgdwfo2njuk","23.csv","","null","resources/images/fishbone.png","null","",NA,NA,NA,NA,""
"image-keyboard-response",293,408191,"0.0-3.94-0.94","oszqtgdwfo2njuk","23.csv","","549","resources/trios/L1T2A3.jpg","39","restless",0.6,0.4,0.3,0.525250708285696,"false"
"image-keyboard-response",294,408593,"0.0-3.94-1.94","oszqtgdwfo2njuk","23.csv","","null","resources/maskTrios/BBA3.jpg","null","",NA,NA,NA,NA,""
"image-keyboard-response",295,409796,"0.0-3.94-2.94","oszqtgdwfo2njuk","23.csv","","null","resources/images/fishbone.png","null","",NA,NA,NA,NA,""
"image-keyboard-response",296,410976,"0.0-3.95-0.95","oszqtgdwfo2njuk","23.csv","","1178","resources/trios/L1T4A1.jpg","38","restless",0.6,0.3,0.3,0.240509639665194,"true"
"image-keyboard-response",297,411379,"0.0-3.95-1.95","oszqtgdwfo2njuk","23.csv","","null","resources/maskTrios/BT4B.jpg","null","",NA,NA,NA,NA,""
"image-keyboard-response",298,412582,"0.0-3.95-2.95","oszqtgdwfo2njuk","23.csv","","null","resources/images/coin2.png","null","",NA,NA,NA,NA,""
"image-keyboard-response",299,413570,"0.0-3.96-0.96","oszqtgdwfo2njuk","23.csv","","986.0000000000582","resources/trios/L4T4A3.jpg","37","restless",0.6,0.3,0.2,0.371570555790823,"true"
"image-keyboard-response",300,413974,"0.0-3.96-1.96","oszqtgdwfo2njuk","23.csv","","null","resources/maskTrios/L4BB.jpg","null","",NA,NA,NA,NA,""
"image-keyboard-response",301,415177,"0.0-3.96-2.96","oszqtgdwfo2njuk","23.csv","","null","resources/images/coin2.png","null","",NA,NA,NA,NA,""
"image-keyboard-response",302,415926,"0.0-3.97-0.97","oszqtgdwfo2njuk","23.csv","","747.0000000000582","resources/trios/L4T4A3.jpg","39","restless",0.6,0.3,0.2,0.43641928993352,"false"
"image-keyboard-response",303,416328,"0.0-3.97-1.97","oszqtgdwfo2njuk","23.csv","","null","resources/maskTrios/BBA3.jpg","null","",NA,NA,NA,NA,""
"image-keyboard-response",304,417530,"0.0-3.97-2.97","oszqtgdwfo2njuk","23.csv","","null","resources/images/fishbone.png","null","",NA,NA,NA,NA,""
"image-keyboard-response",305,418595,"0.0-3.98-0.98","oszqtgdwfo2njuk","23.csv","","1063","resources/trios/L1T4A3.jpg","38","restless",0.6,0.4,0.2,0.00272417513974799,"true"
"image-keyboard-response",306,418997,"0.0-3.98-1.98","oszqtgdwfo2njuk","23.csv","","null","resources/maskTrios/BT4B.jpg","null","",NA,NA,NA,NA,""
"image-keyboard-response",307,420200,"0.0-3.98-2.98","oszqtgdwfo2njuk","23.csv","","null","resources/images/coin2.png","null","",NA,NA,NA,NA,""
"image-keyboard-response",308,420798,"0.0-3.99-0.99","oszqtgdwfo2njuk","23.csv","","596","resources/trios/L4T2A1.jpg","37","restless",0.6,0.4,0.2,0.163540729115751,"true"
"image-keyboard-response",309,421202,"0.0-3.99-1.99","oszqtgdwfo2njuk","23.csv","","null","resources/maskTrios/L4BB.jpg","null","",NA,NA,NA,NA,""
"image-keyboard-response",310,422404,"0.0-3.99-2.99","oszqtgdwfo2njuk","23.csv","","null","resources/images/coin2.png","null","",NA,NA,NA,NA,""
"image-keyboard-response",311,422692,"0.0-3.100-0.100","oszqtgdwfo2njuk","23.csv","","282","resources/trios/L4T4A1.jpg","37","restless",0.6,0.5,0.2,0.644793520758748,"false"
"image-keyboard-response",312,423094,"0.0-3.100-1.100","oszqtgdwfo2njuk","23.csv","","null","resources/maskTrios/L4BB.jpg","null","",NA,NA,NA,NA,""
"image-keyboard-response",313,424297,"0.0-3.100-2.100","oszqtgdwfo2njuk","23.csv","","null","resources/images/fishbone.png","null","",NA,NA,NA,NA,""
"image-keyboard-response",314,424513,"0.0-3.101-0.101","oszqtgdwfo2njuk","23.csv","","214","resources/trios/L4T4A3.jpg","38","restless",0.6,0.5,0.2,0.551458884443987,"false"
"image-keyboard-response",315,424916,"0.0-3.101-1.101","oszqtgdwfo2njuk","23.csv","","null","resources/maskTrios/BT4B.jpg","null","",NA,NA,NA,NA,""
"image-keyboard-response",316,426118,"0.0-3.101-2.101","oszqtgdwfo2njuk","23.csv","","null","resources/images/fishbone.png","null","",NA,NA,NA,NA,""
"image-keyboard-response",317,426512,"0.0-3.102-0.102","oszqtgdwfo2njuk","23.csv","","391","resources/trios/L4T4A3.jpg","39","restless",0.6,0.5,0.2,0.494185822544608,"false"
"image-keyboard-response",318,426915,"0.0-3.102-1.102","oszqtgdwfo2njuk","23.csv","","null","resources/maskTrios/BBA3.jpg","null","",NA,NA,NA,NA,""
"image-keyboard-response",319,428117,"0.0-3.102-2.102","oszqtgdwfo2njuk","23.csv","","null","resources/images/fishbone.png","null","",NA,NA,NA,NA,""
"image-keyboard-response",320,428489,"0.0-3.103-0.103","oszqtgdwfo2njuk","23.csv","","370","resources/trios/L1T4A1.jpg","39","restless",0.6,0.5,0.2,0.0871688239095155,"true"
"image-keyboard-response",321,428891,"0.0-3.103-1.103","oszqtgdwfo2njuk","23.csv","","null","resources/maskTrios/BBA1.jpg","null","",NA,NA,NA,NA,""
"image-keyboard-response",322,430094,"0.0-3.103-2.103","oszqtgdwfo2njuk","23.csv","","null","resources/images/coin2.png","null","",NA,NA,NA,NA,""
"image-keyboard-response",323,430818,"0.0-3.104-0.104","oszqtgdwfo2njuk","23.csv","","723","resources/trios/L4T4A3.jpg","38","restless",0.6,0.5,0.2,0.305080033126356,"true"
"image-keyboard-response",324,431221,"0.0-3.104-1.104","oszqtgdwfo2njuk","23.csv","","null","resources/maskTrios/BT4B.jpg","null","",NA,NA,NA,NA,""
"image-keyboard-response",325,432424,"0.0-3.104-2.104","oszqtgdwfo2njuk","23.csv","","null","resources/images/coin2.png","null","",NA,NA,NA,NA,""
"image-keyboard-response",326,432893,"0.0-3.105-0.105","oszqtgdwfo2njuk","23.csv","","468","resources/trios/L1T4A1.jpg","38","restless",0.6,0.5,0.2,0.363285677192944,"true"
"image-keyboard-response",327,433294,"0.0-3.105-1.105","oszqtgdwfo2njuk","23.csv","","null","resources/maskTrios/BT4B.jpg","null","",NA,NA,NA,NA,""
"image-keyboard-response",328,434497,"0.0-3.105-2.105","oszqtgdwfo2njuk","23.csv","","null","resources/images/coin2.png","null","",NA,NA,NA,NA,""
"image-keyboard-response",329,435976,"0.0-3.106-0.106","oszqtgdwfo2njuk","23.csv","","1477","resources/trios/L4T2A1.jpg","38","restless",0.6,0.5,0.2,0.770513222647534,"false"
"image-keyboard-response",330,436378,"0.0-3.106-1.106","oszqtgdwfo2njuk","23.csv","","null","resources/maskTrios/BT2B.jpg","null","",NA,NA,NA,NA,""
"image-keyboard-response",331,437580,"0.0-3.106-2.106","oszqtgdwfo2njuk","23.csv","","null","resources/images/fishbone.png","null","",NA,NA,NA,NA,""
"image-keyboard-response",332,437960,"0.0-3.107-0.107","oszqtgdwfo2njuk","23.csv","","374","resources/trios/L1T2A3.jpg","37","restless",0.7,0.5,0.2,0.516662959792505,"true"
"image-keyboard-response",333,438362,"0.0-3.107-1.107","oszqtgdwfo2njuk","23.csv","","null","resources/maskTrios/L1BB.jpg","null","",NA,NA,NA,NA,""
"image-keyboard-response",334,439565,"0.0-3.107-2.107","oszqtgdwfo2njuk","23.csv","","null","resources/images/coin2.png","null","",NA,NA,NA,NA,""
"image-keyboard-response",335,440252,"0.0-3.108-0.108","oszqtgdwfo2njuk","23.csv","","685","resources/trios/L1T2A1.jpg","37","restless",0.7,0.5,0.3,0.728669979219058,"false"
"image-keyboard-response",336,440654,"0.0-3.108-1.108","oszqtgdwfo2njuk","23.csv","","null","resources/maskTrios/L1BB.jpg","null","",NA,NA,NA,NA,""
"image-keyboard-response",337,441856,"0.0-3.108-2.108","oszqtgdwfo2njuk","23.csv","","null","resources/images/fishbone.png","null","",NA,NA,NA,NA,""
"image-keyboard-response",338,442275,"0.0-3.109-0.109","oszqtgdwfo2njuk","23.csv","","418","resources/trios/L1T4A1.jpg","38","restless",0.7,0.5,0.3,0.980556975290381,"false"
"image-keyboard-response",339,442680,"0.0-3.109-1.109","oszqtgdwfo2njuk","23.csv","","null","resources/maskTrios/BT4B.jpg","null","",NA,NA,NA,NA,""
"image-keyboard-response",340,443885,"0.0-3.109-2.109","oszqtgdwfo2njuk","23.csv","","null","resources/images/fishbone.png","null","",NA,NA,NA,NA,""
"image-keyboard-response",341,444596,"0.0-3.110-0.110","oszqtgdwfo2njuk","23.csv","","708","resources/trios/L4T2A1.jpg","39","restless",0.7,0.5,0.3,0.387866442353944,"false"
"image-keyboard-response",342,444999,"0.0-3.110-1.110","oszqtgdwfo2njuk","23.csv","","null","resources/maskTrios/BBA1.jpg","null","",NA,NA,NA,NA,""
"image-keyboard-response",343,446202,"0.0-3.110-2.110","oszqtgdwfo2njuk","23.csv","","null","resources/images/fishbone.png","null","",NA,NA,NA,NA,""
"image-keyboard-response",344,447229,"0.0-3.111-0.111","oszqtgdwfo2njuk","23.csv","","1024","resources/trios/L4T4A1.jpg","39","restless",0.7,0.5,0.3,0.0362218125907916,"true"
"image-keyboard-response",345,447630,"0.0-3.111-1.111","oszqtgdwfo2njuk","23.csv","","null","resources/maskTrios/BBA1.jpg","null","",NA,NA,NA,NA,""
"image-keyboard-response",346,448833,"0.0-3.111-2.111","oszqtgdwfo2njuk","23.csv","","null","resources/images/coin2.png","null","",NA,NA,NA,NA,""
"image-keyboard-response",347,450345,"0.0-3.112-0.112","oszqtgdwfo2njuk","23.csv","","1510","resources/trios/L1T4A3.jpg","38","restless",0.7,0.5,0.3,0.8900695503702,"false"
"image-keyboard-response",348,450747,"0.0-3.112-1.112","oszqtgdwfo2njuk","23.csv","","null","resources/maskTrios/BT4B.jpg","null","",NA,NA,NA,NA,""
"image-keyboard-response",349,451950,"0.0-3.112-2.112","oszqtgdwfo2njuk","23.csv","","null","resources/images/fishbone.png","null","",NA,NA,NA,NA,""
"image-keyboard-response",350,454948,"0.0-3.113-0.113","oszqtgdwfo2njuk","23.csv","","2997","resources/trios/L1T4A1.jpg","37","restless",0.6,0.5,0.3,0.393123304618119,"true"
"image-keyboard-response",351,455350,"0.0-3.113-1.113","oszqtgdwfo2njuk","23.csv","","null","resources/maskTrios/L1BB.jpg","null","",NA,NA,NA,NA,""
"image-keyboard-response",352,456553,"0.0-3.113-2.113","oszqtgdwfo2njuk","23.csv","","null","resources/images/coin2.png","null","",NA,NA,NA,NA,""
"image-keyboard-response",353,459746,"0.0-3.114-0.114","oszqtgdwfo2njuk","23.csv","","3192","resources/trios/L4T2A1.jpg","37","restless",0.5,0.5,0.3,0.448720280513082,"true"
"image-keyboard-response",354,460148,"0.0-3.114-1.114","oszqtgdwfo2njuk","23.csv","","null","resources/maskTrios/L4BB.jpg","null","",NA,NA,NA,NA,""
"image-keyboard-response",355,461351,"0.0-3.114-2.114","oszqtgdwfo2njuk","23.csv","","null","resources/images/coin2.png","null","",NA,NA,NA,NA,""
"image-keyboard-response",356,462158,"0.0-3.115-0.115","oszqtgdwfo2njuk","23.csv","","806.0000000000582","resources/trios/L4T4A3.jpg","38","restless",0.5,0.5,0.3,0.837416702736297,"false"
"image-keyboard-response",357,462564,"0.0-3.115-1.115","oszqtgdwfo2njuk","23.csv","","null","resources/maskTrios/BT4B.jpg","null","",NA,NA,NA,NA,""
"image-keyboard-response",358,463766,"0.0-3.115-2.115","oszqtgdwfo2njuk","23.csv","","null","resources/images/fishbone.png","null","",NA,NA,NA,NA,""
"image-keyboard-response",359,464282,"0.0-3.116-0.116","oszqtgdwfo2njuk","23.csv","","513","resources/trios/L1T2A3.jpg","39","restless",0.5,0.5,0.3,0.618368200209493,"false"
"image-keyboard-response",360,464683,"0.0-3.116-1.116","oszqtgdwfo2njuk","23.csv","","null","resources/maskTrios/BBA3.jpg","null","",NA,NA,NA,NA,""
"image-keyboard-response",361,465886,"0.0-3.116-2.116","oszqtgdwfo2njuk","23.csv","","null","resources/images/fishbone.png","null","",NA,NA,NA,NA,""
"image-keyboard-response",362,468605,"0.0-3.117-0.117","oszqtgdwfo2njuk","23.csv","","2717.000000000058","resources/trios/L1T4A1.jpg","39","restless",0.5,0.5,0.3,0.606437565666734,"false"
"image-keyboard-response",363,469007,"0.0-3.117-1.117","oszqtgdwfo2njuk","23.csv","","null","resources/maskTrios/BBA1.jpg","null","",NA,NA,NA,NA,""
"image-keyboard-response",364,470214,"0.0-3.117-2.117","oszqtgdwfo2njuk","23.csv","","null","resources/images/fishbone.png","null","",NA,NA,NA,NA,""
"image-keyboard-response",365,473514,"0.0-3.118-0.118","oszqtgdwfo2njuk","23.csv","","3298.000000000058","resources/trios/L1T4A3.jpg","37","restless",0.5,0.4,0.3,0.516823636099565,"false"
"image-keyboard-response",366,473916,"0.0-3.118-1.118","oszqtgdwfo2njuk","23.csv","","null","resources/maskTrios/L1BB.jpg","null","",NA,NA,NA,NA,""
"image-keyboard-response",367,475119,"0.0-3.118-2.118","oszqtgdwfo2njuk","23.csv","","null","resources/images/fishbone.png","null","",NA,NA,NA,NA,""
"image-keyboard-response",368,475855,"0.0-3.119-0.119","oszqtgdwfo2njuk","23.csv","","735.0000000000582","resources/trios/L1T2A1.jpg","38","restless",0.5,0.4,0.3,0.111509440040783,"true"
"image-keyboard-response",369,476255,"0.0-3.119-1.119","oszqtgdwfo2njuk","23.csv","","null","resources/maskTrios/BT2B.jpg","null","",NA,NA,NA,NA,""
"image-keyboard-response",370,477457,"0.0-3.119-2.119","oszqtgdwfo2njuk","23.csv","","null","resources/images/coin2.png","null","",NA,NA,NA,NA,""
"image-keyboard-response",371,478606,"0.0-3.120-0.120","oszqtgdwfo2njuk","23.csv","","1147","resources/trios/L1T2A3.jpg","39","restless",0.5,0.4,0.3,0.978853328264024,"false"
"image-keyboard-response",372,479009,"0.0-3.120-1.120","oszqtgdwfo2njuk","23.csv","","null","resources/maskTrios/BBA3.jpg","null","",NA,NA,NA,NA,""
"image-keyboard-response",373,480211,"0.0-3.120-2.120","oszqtgdwfo2njuk","23.csv","","null","resources/images/fishbone.png","null","",NA,NA,NA,NA,""
"image-keyboard-response",374,487534,"0.0-3.121-0.121","oszqtgdwfo2njuk","23.csv","","7319","resources/trios/L4T2A1.jpg","38","restless",0.5,0.4,0.3,0.546744388413794,"false"
"image-keyboard-response",375,487937,"0.0-3.121-1.121","oszqtgdwfo2njuk","23.csv","","null","resources/maskTrios/BT2B.jpg","null","",NA,NA,NA,NA,""
"image-keyboard-response",376,489139,"0.0-3.121-2.121","oszqtgdwfo2njuk","23.csv","","null","resources/images/fishbone.png","null","",NA,NA,NA,NA,""
"image-keyboard-response",377,496041,"0.0-3.122-0.122","oszqtgdwfo2njuk","23.csv","","6900.999999999942","resources/trios/L4T4A3.jpg","39","restless",0.5,0.4,0.3,0.179854130074194,"true"
"image-keyboard-response",378,496444,"0.0-3.122-1.122","oszqtgdwfo2njuk","23.csv","","null","resources/maskTrios/BBA3.jpg","null","",NA,NA,NA,NA,""
"image-keyboard-response",379,497648,"0.0-3.122-2.122","oszqtgdwfo2njuk","23.csv","","null","resources/images/coin2.png","null","",NA,NA,NA,NA,""
"image-keyboard-response",380,500143,"0.0-3.123-0.123","oszqtgdwfo2njuk","23.csv","","2493.9999999998836","resources/trios/L4T4A3.jpg","37","restless",0.5,0.4,0.3,0.900348672235236,"false"
"image-keyboard-response",381,500546,"0.0-3.123-1.123","oszqtgdwfo2njuk","23.csv","","null","resources/maskTrios/L4BB.jpg","null","",NA,NA,NA,NA,""
"image-keyboard-response",382,501749,"0.0-3.123-2.123","oszqtgdwfo2njuk","23.csv","","null","resources/images/fishbone.png","null","",NA,NA,NA,NA,""
"image-keyboard-response",383,511076,"0.0-3.124-0.124","oszqtgdwfo2njuk","23.csv","","9325","resources/trios/L1T2A1.jpg","39","restless",0.5,0.3,0.2,0.273760975439338,"false"
"image-keyboard-response",384,511478,"0.0-3.124-1.124","oszqtgdwfo2njuk","23.csv","","null","resources/maskTrios/BBA1.jpg","null","",NA,NA,NA,NA,""
"image-keyboard-response",385,512681,"0.0-3.124-2.124","oszqtgdwfo2njuk","23.csv","","null","resources/images/fishbone.png","null","",NA,NA,NA,NA,""
"image-keyboard-response",386,513077,"0.0-3.125-0.125","oszqtgdwfo2njuk","23.csv","","395","resources/trios/L1T2A1.jpg","37","restless",0.5,0.4,0.2,0.728841269562507,"false"
"image-keyboard-response",387,513480,"0.0-3.125-1.125","oszqtgdwfo2njuk","23.csv","","null","resources/maskTrios/L1BB.jpg","null","",NA,NA,NA,NA,""
"image-keyboard-response",388,514683,"0.0-3.125-2.125","oszqtgdwfo2njuk","23.csv","","null","resources/images/fishbone.png","null","",NA,NA,NA,NA,""
"image-keyboard-response",389,515209,"0.0-3.126-0.126","oszqtgdwfo2njuk","23.csv","","524","resources/trios/L1T4A1.jpg","38","restless",0.5,0.4,0.2,0.531566351505477,"false"
"image-keyboard-response",390,515611,"0.0-3.126-1.126","oszqtgdwfo2njuk","23.csv","","null","resources/maskTrios/BT4B.jpg","null","",NA,NA,NA,NA,""
"image-keyboard-response",391,516813,"0.0-3.126-2.126","oszqtgdwfo2njuk","23.csv","","null","resources/images/fishbone.png","null","",NA,NA,NA,NA,""
"image-keyboard-response",392,517119,"0.0-3.127-0.127","oszqtgdwfo2njuk","23.csv","","304","resources/trios/L1T2A1.jpg","37","restless",0.5,0.5,0.2,0.968039885192771,"false"
"image-keyboard-response",393,517521,"0.0-3.127-1.127","oszqtgdwfo2njuk","23.csv","","null","resources/maskTrios/L1BB.jpg","null","",NA,NA,NA,NA,""
"image-keyboard-response",394,518723,"0.0-3.127-2.127","oszqtgdwfo2njuk","23.csv","","null","resources/images/fishbone.png","null","",NA,NA,NA,NA,""
"image-keyboard-response",395,519095,"0.0-3.128-0.128","oszqtgdwfo2njuk","23.csv","","371","resources/trios/L1T2A1.jpg","39","restless",0.5,0.5,0.2,0.359590852352514,"false"
"image-keyboard-response",396,519498,"0.0-3.128-1.128","oszqtgdwfo2njuk","23.csv","","null","resources/maskTrios/BBA1.jpg","null","",NA,NA,NA,NA,""
"image-keyboard-response",397,520705,"0.0-3.128-2.128","oszqtgdwfo2njuk","23.csv","","null","resources/images/fishbone.png","null","",NA,NA,NA,NA,""
"image-keyboard-response",398,521087,"0.0-3.129-0.129","oszqtgdwfo2njuk","23.csv","","380","resources/trios/L4T4A3.jpg","38","restless",0.5,0.5,0.2,0.512215954326238,"false"
"image-keyboard-response",399,521490,"0.0-3.129-1.129","oszqtgdwfo2njuk","23.csv","","null","resources/maskTrios/BT4B.jpg","null","",NA,NA,NA,NA,""
"image-keyboard-response",400,522693,"0.0-3.129-2.129","oszqtgdwfo2njuk","23.csv","","null","resources/images/fishbone.png","null","",NA,NA,NA,NA,""
"image-keyboard-response",401,523008,"0.0-3.130-0.130","oszqtgdwfo2njuk","23.csv","","313","resources/trios/L4T2A3.jpg","37","restless",0.5,0.5,0.2,0.35393459157025,"true"
"image-keyboard-response",402,523411,"0.0-3.130-1.130","oszqtgdwfo2njuk","23.csv","","null","resources/maskTrios/L4BB.jpg","null","",NA,NA,NA,NA,""
"image-keyboard-response",403,524614,"0.0-3.130-2.130","oszqtgdwfo2njuk","23.csv","","null","resources/images/coin2.png","null","",NA,NA,NA,NA,""
"image-keyboard-response",404,545252,"0.0-3.131-0.131","oszqtgdwfo2njuk","23.csv","","20636","resources/trios/L4T4A1.jpg","39","restless",0.5,0.5,0.2,0.619409631444244,"false"
"image-keyboard-response",405,545654,"0.0-3.131-1.131","oszqtgdwfo2njuk","23.csv","","null","resources/maskTrios/BBA1.jpg","null","",NA,NA,NA,NA,""
"image-keyboard-response",406,546857,"0.0-3.131-2.131","oszqtgdwfo2njuk","23.csv","","null","resources/images/fishbone.png","null","",NA,NA,NA,NA,""
"image-keyboard-response",407,570451,"0.0-3.132-0.132","oszqtgdwfo2njuk","23.csv","","23592","resources/trios/L4T4A3.jpg","37","restless",0.5,0.5,0.2,0.586466803264736,"false"
"image-keyboard-response",408,570854,"0.0-3.132-1.132","oszqtgdwfo2njuk","23.csv","","null","resources/maskTrios/L4BB.jpg","null","",NA,NA,NA,NA,""
"image-keyboard-response",409,572056,"0.0-3.132-2.132","oszqtgdwfo2njuk","23.csv","","null","resources/images/fishbone.png","null","",NA,NA,NA,NA,""
"image-keyboard-response",410,572491,"0.0-3.133-0.133","oszqtgdwfo2njuk","23.csv","","433","resources/trios/L1T4A1.jpg","39","restless",0.5,0.5,0.2,0.94562454916687,"false"
"image-keyboard-response",411,572894,"0.0-3.133-1.133","oszqtgdwfo2njuk","23.csv","","null","resources/maskTrios/BBA1.jpg","null","",NA,NA,NA,NA,""
"image-keyboard-response",412,574095,"0.0-3.133-2.133","oszqtgdwfo2njuk","23.csv","","null","resources/images/fishbone.png","null","",NA,NA,NA,NA,""
"image-keyboard-response",413,574763,"0.0-3.134-0.134","oszqtgdwfo2njuk","23.csv","","666","resources/trios/L1T4A3.jpg","38","restless",0.5,0.5,0.1,0.543869271528161,"false"
"image-keyboard-response",414,575165,"0.0-3.134-1.134","oszqtgdwfo2njuk","23.csv","","null","resources/maskTrios/BT4B.jpg","null","",NA,NA,NA,NA,""
"image-keyboard-response",415,576368,"0.0-3.134-2.134","oszqtgdwfo2njuk","23.csv","","null","resources/images/fishbone.png","null","",NA,NA,NA,NA,""
"image-keyboard-response",416,576691,"0.0-3.135-0.135","oszqtgdwfo2njuk","23.csv","","321.0000000001164","resources/trios/L1T2A3.jpg","38","restless",0.5,0.5,0.1,0.225724364248802,"true"
"image-keyboard-response",417,577094,"0.0-3.135-1.135","oszqtgdwfo2njuk","23.csv","","null","resources/maskTrios/BT2B.jpg","null","",NA,NA,NA,NA,""
"image-keyboard-response",418,578296,"0.0-3.135-2.135","oszqtgdwfo2njuk","23.csv","","null","resources/images/coin2.png","null","",NA,NA,NA,NA,""
"image-keyboard-response",419,578672,"0.0-3.136-0.136","oszqtgdwfo2njuk","23.csv","","375","resources/trios/L4T2A1.jpg","37","restless",0.5,0.5,0.2,0.714084742668851,"false"
"image-keyboard-response",420,579075,"0.0-3.136-1.136","oszqtgdwfo2njuk","23.csv","","null","resources/maskTrios/L4BB.jpg","null","",NA,NA,NA,NA,""
"image-keyboard-response",421,580278,"0.0-3.136-2.136","oszqtgdwfo2njuk","23.csv","","null","resources/images/fishbone.png","null","",NA,NA,NA,NA,""
"image-keyboard-response",422,580565,"0.0-3.137-0.137","oszqtgdwfo2njuk","23.csv","","285","resources/trios/L4T4A1.jpg","37","restless",0.5,0.5,0.2,0.278310271680585,"true"
"image-keyboard-response",423,580967,"0.0-3.137-1.137","oszqtgdwfo2njuk","23.csv","","null","resources/maskTrios/L4BB.jpg","null","",NA,NA,NA,NA,""
"image-keyboard-response",424,582170,"0.0-3.137-2.137","oszqtgdwfo2njuk","23.csv","","null","resources/images/coin2.png","null","",NA,NA,NA,NA,""
"image-keyboard-response",425,582585,"0.0-3.138-0.138","oszqtgdwfo2njuk","23.csv","","413","resources/trios/L4T2A1.jpg","39","restless",0.6,0.6,0.2,0.672392423347354,"false"
"image-keyboard-response",426,582987,"0.0-3.138-1.138","oszqtgdwfo2njuk","23.csv","","null","resources/maskTrios/BBA1.jpg","null","",NA,NA,NA,NA,""
"image-keyboard-response",427,584190,"0.0-3.138-2.138","oszqtgdwfo2njuk","23.csv","","null","resources/images/fishbone.png","null","",NA,NA,NA,NA,""
"image-keyboard-response",428,584649,"0.0-3.139-0.139","oszqtgdwfo2njuk","23.csv","","456.9999999998836","resources/trios/L1T2A3.jpg","39","restless",0.6,0.6,0.2,0.805173946754016,"false"
"image-keyboard-response",429,585051,"0.0-3.139-1.139","oszqtgdwfo2njuk","23.csv","","null","resources/maskTrios/BBA3.jpg","null","",NA,NA,NA,NA,""
"image-keyboard-response",430,586253,"0.0-3.139-2.139","oszqtgdwfo2njuk","23.csv","","null","resources/images/fishbone.png","null","",NA,NA,NA,NA,""
"image-keyboard-response",431,586736,"0.0-3.140-0.140","oszqtgdwfo2njuk","23.csv","","481","resources/trios/L4T2A1.jpg","38","restless",0.6,0.7,0.2,0.484163702890257,"true"
"image-keyboard-response",432,587138,"0.0-3.140-1.140","oszqtgdwfo2njuk","23.csv","","null","resources/maskTrios/BT2B.jpg","null","",NA,NA,NA,NA,""
"image-keyboard-response",433,588344,"0.0-3.140-2.140","oszqtgdwfo2njuk","23.csv","","null","resources/images/coin2.png","null","",NA,NA,NA,NA,""
"image-keyboard-response",434,589125,"0.0-3.141-0.141","oszqtgdwfo2njuk","23.csv","","780","resources/trios/L1T2A1.jpg","38","restless",0.6,0.7,0.2,0.770555816974219,"false"
"image-keyboard-response",435,589527,"0.0-3.141-1.141","oszqtgdwfo2njuk","23.csv","","null","resources/maskTrios/BT2B.jpg","null","",NA,NA,NA,NA,""
"image-keyboard-response",436,590730,"0.0-3.141-2.141","oszqtgdwfo2njuk","23.csv","","null","resources/images/fishbone.png","null","",NA,NA,NA,NA,""
"image-keyboard-response",437,591744,"0.0-3.142-0.142","oszqtgdwfo2njuk","23.csv","","1007","resources/trios/L1T2A1.jpg","37","restless",0.6,0.7,0.2,0.430459559482235,"true"
"image-keyboard-response",438,592146,"0.0-3.142-1.142","oszqtgdwfo2njuk","23.csv","","null","resources/maskTrios/L1BB.jpg","null","",NA,NA,NA,NA,""
"image-keyboard-response",439,593350,"0.0-3.142-2.142","oszqtgdwfo2njuk","23.csv","","null","resources/images/coin2.png","null","",NA,NA,NA,NA,""
"image-keyboard-response",440,593807,"0.0-3.143-0.143","oszqtgdwfo2njuk","23.csv","","454","resources/trios/L4T4A1.jpg","37","restless",0.6,0.7,0.2,0.76073396831017,"false"
"image-keyboard-response",441,594209,"0.0-3.143-1.143","oszqtgdwfo2njuk","23.csv","","null","resources/maskTrios/L4BB.jpg","null","",NA,NA,NA,NA,""
"image-keyboard-response",442,595410,"0.0-3.143-2.143","oszqtgdwfo2njuk","23.csv","","null","resources/images/fishbone.png","null","",NA,NA,NA,NA,""
"image-keyboard-response",443,597114,"0.0-3.144-0.144","oszqtgdwfo2njuk","23.csv","","1702","resources/trios/L1T4A1.jpg","39","restless",0.6,0.7,0.2,0.372597351599628,"false"
"image-keyboard-response",444,597517,"0.0-3.144-1.144","oszqtgdwfo2njuk","23.csv","","null","resources/maskTrios/BBA1.jpg","null","",NA,NA,NA,NA,""
"image-keyboard-response",445,598719,"0.0-3.144-2.144","oszqtgdwfo2njuk","23.csv","","null","resources/images/fishbone.png","null","",NA,NA,NA,NA,""
"image-keyboard-response",446,599282,"0.0-3.145-0.145","oszqtgdwfo2njuk","23.csv","","561.0000000001164","resources/trios/L1T2A3.jpg","39","restless",0.6,0.7,0.2,0.771691964558142,"false"
"image-keyboard-response",447,599685,"0.0-3.145-1.145","oszqtgdwfo2njuk","23.csv","","null","resources/maskTrios/BBA3.jpg","null","",NA,NA,NA,NA,""
"image-keyboard-response",448,600887,"0.0-3.145-2.145","oszqtgdwfo2njuk","23.csv","","null","resources/images/fishbone.png","null","",NA,NA,NA,NA,""
"image-keyboard-response",449,607717,"0.0-3.146-0.146","oszqtgdwfo2njuk","23.csv","","6829","resources/trios/L1T2A3.jpg","38","restless",0.5,0.7,0.2,0.598395330847871,"true"
"image-keyboard-response",450,608123,"0.0-3.146-1.146","oszqtgdwfo2njuk","23.csv","","null","resources/maskTrios/BT2B.jpg","null","",NA,NA,NA,NA,""
"image-keyboard-response",451,609327,"0.0-3.146-2.146","oszqtgdwfo2njuk","23.csv","","null","resources/images/coin2.png","null","",NA,NA,NA,NA,""
"image-keyboard-response",452,624191,"0.0-3.147-0.147","oszqtgdwfo2njuk","23.csv","","14863","resources/trios/L4T2A1.jpg","37","restless",0.5,0.7,0.2,0.0297744075512066,"true"
"image-keyboard-response",453,624595,"0.0-3.147-1.147","oszqtgdwfo2njuk","23.csv","","null","resources/maskTrios/L4BB.jpg","null","",NA,NA,NA,NA,""
"image-keyboard-response",454,625796,"0.0-3.147-2.147","oszqtgdwfo2njuk","23.csv","","null","resources/images/coin2.png","null","",NA,NA,NA,NA,""
"image-keyboard-response",455,628018,"0.0-3.148-0.148","oszqtgdwfo2njuk","23.csv","","2219","resources/trios/L1T2A3.jpg","37","restless",0.5,0.7,0.2,0.555019478339298,"false"
"image-keyboard-response",456,628421,"0.0-3.148-1.148","oszqtgdwfo2njuk","23.csv","","null","resources/maskTrios/L1BB.jpg","null","",NA,NA,NA,NA,""
"image-keyboard-response",457,629622,"0.0-3.148-2.148","oszqtgdwfo2njuk","23.csv","","null","resources/images/fishbone.png","null","",NA,NA,NA,NA,""
"image-keyboard-response",458,629944,"0.0-3.149-0.149","oszqtgdwfo2njuk","23.csv","","319","resources/trios/L4T2A3.jpg","38","restless",0.5,0.7,0.2,0.124349858209928,"true"
"image-keyboard-response",459,630346,"0.0-3.149-1.149","oszqtgdwfo2njuk","23.csv","","null","resources/maskTrios/BT2B.jpg","null","",NA,NA,NA,NA,""
"image-keyboard-response",460,631550,"0.0-3.149-2.149","oszqtgdwfo2njuk","23.csv","","null","resources/images/coin2.png","null","",NA,NA,NA,NA,""
"image-keyboard-response",461,632000,"0.0-3.150-0.150","oszqtgdwfo2njuk","23.csv","","449","resources/trios/L1T4A1.jpg","38","restless",0.5,0.7,0.2,0.572534846456849,"true"
"image-keyboard-response",462,632403,"0.0-3.150-1.150","oszqtgdwfo2njuk","23.csv","","null","resources/maskTrios/BT4B.jpg","null","",NA,NA,NA,NA,""
"image-keyboard-response",463,633606,"0.0-3.150-2.150","oszqtgdwfo2njuk","23.csv","","null","resources/images/coin2.png","null","",NA,NA,NA,NA,""
"image-keyboard-response",464,635792,"0.0-3.151-0.151","oszqtgdwfo2njuk","23.csv","","2183.9999999998836","resources/trios/L1T4A1.jpg","39","restless",0.4,0.7,0.2,0.646759286165291,"false"
"image-keyboard-response",465,636194,"0.0-3.151-1.151","oszqtgdwfo2njuk","23.csv","","null","resources/maskTrios/BBA1.jpg","null","",NA,NA,NA,NA,""
"image-keyboard-response",466,637396,"0.0-3.151-2.151","oszqtgdwfo2njuk","23.csv","","null","resources/images/fishbone.png","null","",NA,NA,NA,NA,""
"image-keyboard-response",467,637757,"0.0-3.152-0.152","oszqtgdwfo2njuk","23.csv","","360.0000000001164","resources/trios/L1T4A1.jpg","39","restless",0.4,0.7,0.2,0.920811612596499,"false"
"image-keyboard-response",468,638159,"0.0-3.152-1.152","oszqtgdwfo2njuk","23.csv","","null","resources/maskTrios/BBA1.jpg","null","",NA,NA,NA,NA,""
"image-keyboard-response",469,639361,"0.0-3.152-2.152","oszqtgdwfo2njuk","23.csv","","null","resources/images/fishbone.png","null","",NA,NA,NA,NA,""
"image-keyboard-response",470,642692,"0.0-3.153-0.153","oszqtgdwfo2njuk","23.csv","","3328.9999999998836","resources/trios/L1T4A1.jpg","37","restless",0.4,0.7,0.2,0.225925120247104,"true"
"image-keyboard-response",471,643094,"0.0-3.153-1.153","oszqtgdwfo2njuk","23.csv","","null","resources/maskTrios/L1BB.jpg","null","",NA,NA,NA,NA,""
"image-keyboard-response",472,644296,"0.0-3.153-2.153","oszqtgdwfo2njuk","23.csv","","null","resources/images/coin2.png","null","",NA,NA,NA,NA,""
"image-keyboard-response",473,645650,"0.0-3.154-0.154","oszqtgdwfo2njuk","23.csv","","1353","resources/trios/L4T4A3.jpg","37","restless",0.4,0.7,0.2,0.309032916786144,"true"
"image-keyboard-response",474,646052,"0.0-3.154-1.154","oszqtgdwfo2njuk","23.csv","","null","resources/maskTrios/L4BB.jpg","null","",NA,NA,NA,NA,""
"image-keyboard-response",475,647255,"0.0-3.154-2.154","oszqtgdwfo2njuk","23.csv","","null","resources/images/coin2.png","null","",NA,NA,NA,NA,""
"image-keyboard-response",476,647870,"0.0-3.155-0.155","oszqtgdwfo2njuk","23.csv","","611.9999999998836","resources/trios/L1T4A3.jpg","38","restless",0.4,0.7,0.2,0.985372127568699,"false"
"image-keyboard-response",477,648272,"0.0-3.155-1.155","oszqtgdwfo2njuk","23.csv","","null","resources/maskTrios/BT4B.jpg","null","",NA,NA,NA,NA,""
"image-keyboard-response",478,649475,"0.0-3.155-2.155","oszqtgdwfo2njuk","23.csv","","null","resources/images/fishbone.png","null","",NA,NA,NA,NA,""
"image-keyboard-response",479,649792,"0.0-3.156-0.156","oszqtgdwfo2njuk","23.csv","","315","resources/trios/L4T4A3.jpg","38","restless",0.4,0.8,0.2,0.472193757135632,"true"
"image-keyboard-response",480,650195,"0.0-3.156-1.156","oszqtgdwfo2njuk","23.csv","","null","resources/maskTrios/BT4B.jpg","null","",NA,NA,NA,NA,""
"image-keyboard-response",481,651397,"0.0-3.156-2.156","oszqtgdwfo2njuk","23.csv","","null","resources/images/coin2.png","null","",NA,NA,NA,NA,""
"image-keyboard-response",482,651985,"0.0-3.157-0.157","oszqtgdwfo2njuk","23.csv","","586","resources/trios/L1T2A3.jpg","39","restless",0.5,0.8,0.2,0.1058227533699,"true"
"image-keyboard-response",483,652388,"0.0-3.157-1.157","oszqtgdwfo2njuk","23.csv","","null","resources/maskTrios/BBA3.jpg","null","",NA,NA,NA,NA,""
"image-keyboard-response",484,653591,"0.0-3.157-2.157","oszqtgdwfo2njuk","23.csv","","null","resources/images/coin2.png","null","",NA,NA,NA,NA,""
"image-keyboard-response",485,654353,"0.0-3.158-0.158","oszqtgdwfo2njuk","23.csv","","760.0000000001164","resources/trios/L1T4A3.jpg","39","restless",0.5,0.8,0.2,0.653067317378973,"false"
"image-keyboard-response",486,654755,"0.0-3.158-1.158","oszqtgdwfo2njuk","23.csv","","null","resources/maskTrios/BBA3.jpg","null","",NA,NA,NA,NA,""
"image-keyboard-response",487,655957,"0.0-3.158-2.158","oszqtgdwfo2njuk","23.csv","","null","resources/images/fishbone.png","null","",NA,NA,NA,NA,""
"image-keyboard-response",488,656502,"0.0-3.159-0.159","oszqtgdwfo2njuk","23.csv","","542.9999999998836","resources/trios/L4T4A1.jpg","38","restless",0.5,0.7,0.2,0.946830306685615,"false"
"image-keyboard-response",489,656904,"0.0-3.159-1.159","oszqtgdwfo2njuk","23.csv","","null","resources/maskTrios/BT4B.jpg","null","",NA,NA,NA,NA,""
"image-keyboard-response",490,658107,"0.0-3.159-2.159","oszqtgdwfo2njuk","23.csv","","null","resources/images/fishbone.png","null","",NA,NA,NA,NA,""
"image-keyboard-response",491,658441,"0.0-3.160-0.160","oszqtgdwfo2njuk","23.csv","","332.9999999998836","resources/trios/L1T4A1.jpg","38","restless",0.5,0.7,0.3,0.868613909169784,"false"
"image-keyboard-response",492,658843,"0.0-3.160-1.160","oszqtgdwfo2njuk","23.csv","","null","resources/maskTrios/BT4B.jpg","null","",NA,NA,NA,NA,""
"image-keyboard-response",493,660045,"0.0-3.160-2.160","oszqtgdwfo2njuk","23.csv","","null","resources/images/fishbone.png","null","",NA,NA,NA,NA,""
"image-keyboard-response",494,661098,"0.0-3.161-0.161","oszqtgdwfo2njuk","23.csv","","1051","resources/trios/L1T2A3.jpg","37","restless",0.6,0.7,0.3,0.647222348014697,"false"
"image-keyboard-response",495,661500,"0.0-3.161-1.161","oszqtgdwfo2njuk","23.csv","","null","resources/maskTrios/L1BB.jpg","null","",NA,NA,NA,NA,""
"image-keyboard-response",496,662707,"0.0-3.161-2.161","oszqtgdwfo2njuk","23.csv","","null","resources/images/fishbone.png","null","",NA,NA,NA,NA,""
"image-keyboard-response",497,663203,"0.0-3.162-0.162","oszqtgdwfo2njuk","23.csv","","493.9999999998836","resources/trios/L1T2A1.jpg","37","restless",0.6,0.8,0.3,0.771704809952257,"false"
"image-keyboard-response",498,663605,"0.0-3.162-1.162","oszqtgdwfo2njuk","23.csv","","null","resources/maskTrios/L1BB.jpg","null","",NA,NA,NA,NA,""
"image-keyboard-response",499,664808,"0.0-3.162-2.162","oszqtgdwfo2njuk","23.csv","","null","resources/images/fishbone.png","null","",NA,NA,NA,NA,""
"image-keyboard-response",500,672535,"0.0-3.163-0.163","oszqtgdwfo2njuk","23.csv","","7726","resources/trios/L4T2A3.jpg","38","restless",0.6,0.8,0.3,0.378961924883126,"true"
"image-keyboard-response",501,672939,"0.0-3.163-1.163","oszqtgdwfo2njuk","23.csv","","null","resources/maskTrios/BT2B.jpg","null","",NA,NA,NA,NA,""
"image-keyboard-response",502,674142,"0.0-3.163-2.163","oszqtgdwfo2njuk","23.csv","","null","resources/images/coin2.png","null","",NA,NA,NA,NA,""
"image-keyboard-response",503,675486,"0.0-3.164-0.164","oszqtgdwfo2njuk","23.csv","","1344","resources/trios/L1T4A1.jpg","38","restless",0.6,0.8,0.3,0.45340991578372,"true"
"image-keyboard-response",504,675888,"0.0-3.164-1.164","oszqtgdwfo2njuk","23.csv","","null","resources/maskTrios/BT4B.jpg","null","",NA,NA,NA,NA,""
"image-keyboard-response",505,677092,"0.0-3.164-2.164","oszqtgdwfo2njuk","23.csv","","null","resources/images/coin2.png","null","",NA,NA,NA,NA,""
"image-keyboard-response",506,678773,"0.0-3.165-0.165","oszqtgdwfo2njuk","23.csv","","1679","resources/trios/L1T4A3.jpg","39","restless",0.6,0.8,0.3,0.287194473590745,"true"
"image-keyboard-response",507,679175,"0.0-3.165-1.165","oszqtgdwfo2njuk","23.csv","","null","resources/maskTrios/BBA3.jpg","null","",NA,NA,NA,NA,""
"image-keyboard-response",508,680378,"0.0-3.165-2.165","oszqtgdwfo2njuk","23.csv","","null","resources/images/coin2.png","null","",NA,NA,NA,NA,""
"image-keyboard-response",509,680856,"0.0-3.166-0.166","oszqtgdwfo2njuk","23.csv","","476","resources/trios/L4T4A3.jpg","39","restless",0.6,0.8,0.3,0.585787850899956,"false"
"image-keyboard-response",510,681259,"0.0-3.166-1.166","oszqtgdwfo2njuk","23.csv","","null","resources/maskTrios/BBA3.jpg","null","",NA,NA,NA,NA,""
"image-keyboard-response",511,682462,"0.0-3.166-2.166","oszqtgdwfo2njuk","23.csv","","null","resources/images/fishbone.png","null","",NA,NA,NA,NA,""
"image-keyboard-response",512,682920,"0.0-3.167-0.167","oszqtgdwfo2njuk","23.csv","","456.9999999998836","resources/trios/L4T4A3.jpg","38","restless",0.6,0.8,0.2,0.660036188445564,"true"
"image-keyboard-response",513,683323,"0.0-3.167-1.167","oszqtgdwfo2njuk","23.csv","","null","resources/maskTrios/BT4B.jpg","null","",NA,NA,NA,NA,""
"image-keyboard-response",514,684526,"0.0-3.167-2.167","oszqtgdwfo2njuk","23.csv","","null","resources/images/coin2.png","null","",NA,NA,NA,NA,""
"image-keyboard-response",515,686066,"0.0-3.168-0.168","oszqtgdwfo2njuk","23.csv","","1533","resources/trios/L1T4A3.jpg","38","restless",0.6,0.8,0.2,0.0204509967755637,"true"
"image-keyboard-response",516,686469,"0.0-3.168-1.168","oszqtgdwfo2njuk","23.csv","","null","resources/maskTrios/BT4B.jpg","null","",NA,NA,NA,NA,""
"image-keyboard-response",517,687672,"0.0-3.168-2.168","oszqtgdwfo2njuk","23.csv","","null","resources/images/coin2.png","null","",NA,NA,NA,NA,""
"image-keyboard-response",518,688735,"0.0-3.169-0.169","oszqtgdwfo2njuk","23.csv","","1060","resources/trios/L4T4A1.jpg","37","restless",0.6,0.8,0.2,0.280069962548413,"true"
"image-keyboard-response",519,689138,"0.0-3.169-1.169","oszqtgdwfo2njuk","23.csv","","null","resources/maskTrios/L4BB.jpg","null","",NA,NA,NA,NA,""
"image-keyboard-response",520,690341,"0.0-3.169-2.169","oszqtgdwfo2njuk","23.csv","","null","resources/images/coin2.png","null","",NA,NA,NA,NA,""
"image-keyboard-response",521,691584,"0.0-3.170-0.170","oszqtgdwfo2njuk","23.csv","","1242","resources/trios/L4T4A3.jpg","37","restless",0.6,0.7,0.2,0.608141555898987,"false"
"image-keyboard-response",522,691986,"0.0-3.170-1.170","oszqtgdwfo2njuk","23.csv","","null","resources/maskTrios/L4BB.jpg","null","",NA,NA,NA,NA,""
"image-keyboard-response",523,693189,"0.0-3.170-2.170","oszqtgdwfo2njuk","23.csv","","null","resources/images/fishbone.png","null","",NA,NA,NA,NA,""
"image-keyboard-response",524,695236,"0.0-3.171-0.171","oszqtgdwfo2njuk","23.csv","","2045","resources/trios/L1T2A1.jpg","38","restless",0.6,0.7,0.2,0.0648892300790822,"true"
"image-keyboard-response",525,695638,"0.0-3.171-1.171","oszqtgdwfo2njuk","23.csv","","null","resources/maskTrios/BT2B.jpg","null","",NA,NA,NA,NA,""
"image-keyboard-response",526,696841,"0.0-3.171-2.171","oszqtgdwfo2njuk","23.csv","","null","resources/images/coin2.png","null","",NA,NA,NA,NA,""
"image-keyboard-response",527,698360,"0.0-3.172-0.172","oszqtgdwfo2njuk","23.csv","","1518","resources/trios/L1T2A1.jpg","38","restless",0.6,0.7,0.2,0.550682784671178,"true"
"image-keyboard-response",528,698762,"0.0-3.172-1.172","oszqtgdwfo2njuk","23.csv","","null","resources/maskTrios/BT2B.jpg","null","",NA,NA,NA,NA,""
"image-keyboard-response",529,699964,"0.0-3.172-2.172","oszqtgdwfo2njuk","23.csv","","null","resources/images/coin2.png","null","",NA,NA,NA,NA,""
"image-keyboard-response",530,701129,"0.0-3.173-0.173","oszqtgdwfo2njuk","23.csv","","1160","resources/trios/L1T2A3.jpg","39","restless",0.6,0.7,0.2,0.46453530737713,"false"
"image-keyboard-response",531,701531,"0.0-3.173-1.173","oszqtgdwfo2njuk","23.csv","","null","resources/maskTrios/BBA3.jpg","null","",NA,NA,NA,NA,""
"image-keyboard-response",532,702733,"0.0-3.173-2.173","oszqtgdwfo2njuk","23.csv","","null","resources/images/fishbone.png","null","",NA,NA,NA,NA,""
"image-keyboard-response",533,703695,"0.0-3.174-0.174","oszqtgdwfo2njuk","23.csv","","960","resources/trios/L1T4A1.jpg","39","restless",0.6,0.7,0.2,0.499343865598493,"false"
"image-keyboard-response",534,704097,"0.0-3.174-1.174","oszqtgdwfo2njuk","23.csv","","null","resources/maskTrios/BBA1.jpg","null","",NA,NA,NA,NA,""
"image-keyboard-response",535,705299,"0.0-3.174-2.174","oszqtgdwfo2njuk","23.csv","","null","resources/images/fishbone.png","null","",NA,NA,NA,NA,""
"image-keyboard-response",536,705626,"0.0-3.175-0.175","oszqtgdwfo2njuk","23.csv","","320.9999999998836","resources/trios/L1T4A1.jpg","38","restless",0.6,0.7,0.3,0.911141850150778,"false"
"image-keyboard-response",537,706028,"0.0-3.175-1.175","oszqtgdwfo2njuk","23.csv","","null","resources/maskTrios/BT4B.jpg","null","",NA,NA,NA,NA,""
"image-keyboard-response",538,707230,"0.0-3.175-2.175","oszqtgdwfo2njuk","23.csv","","null","resources/images/fishbone.png","null","",NA,NA,NA,NA,""
"image-keyboard-response",539,707543,"0.0-3.176-0.176","oszqtgdwfo2njuk","23.csv","","310.9999999998836","resources/trios/L1T2A1.jpg","38","restless",0.6,0.7,0.4,0.853780435371681,"false"
"image-keyboard-response",540,707946,"0.0-3.176-1.176","oszqtgdwfo2njuk","23.csv","","null","resources/maskTrios/BT2B.jpg","null","",NA,NA,NA,NA,""
"image-keyboard-response",541,709149,"0.0-3.176-2.176","oszqtgdwfo2njuk","23.csv","","null","resources/images/fishbone.png","null","",NA,NA,NA,NA,""
"image-keyboard-response",542,709780,"0.0-3.177-0.177","oszqtgdwfo2njuk","23.csv","","629.0000000001164","resources/trios/L4T4A3.jpg","37","restless",0.5,0.7,0.4,0.505715795337077,"false"
"image-keyboard-response",543,710182,"0.0-3.177-1.177","oszqtgdwfo2njuk","23.csv","","null","resources/maskTrios/L4BB.jpg","null","",NA,NA,NA,NA,""
"image-keyboard-response",544,711385,"0.0-3.177-2.177","oszqtgdwfo2njuk","23.csv","","null","resources/images/fishbone.png","null","",NA,NA,NA,NA,""
"image-keyboard-response",545,711731,"0.0-3.178-0.178","oszqtgdwfo2njuk","23.csv","","344","resources/trios/L4T4A3.jpg","37","restless",0.5,0.7,0.4,0.785136207254203,"false"
"image-keyboard-response",546,712134,"0.0-3.178-1.178","oszqtgdwfo2njuk","23.csv","","null","resources/maskTrios/L4BB.jpg","null","",NA,NA,NA,NA,""
"image-keyboard-response",547,713335,"0.0-3.178-2.178","oszqtgdwfo2njuk","23.csv","","null","resources/images/fishbone.png","null","",NA,NA,NA,NA,""
"image-keyboard-response",548,716217,"0.0-3.179-0.179","oszqtgdwfo2njuk","23.csv","","2880","resources/trios/L4T4A1.jpg","39","restless",0.5,0.7,0.4,0.512039771116198,"false"
"image-keyboard-response",549,716620,"0.0-3.179-1.179","oszqtgdwfo2njuk","23.csv","","null","resources/maskTrios/BBA1.jpg","null","",NA,NA,NA,NA,""
"image-keyboard-response",550,717822,"0.0-3.179-2.179","oszqtgdwfo2njuk","23.csv","","null","resources/images/fishbone.png","null","",NA,NA,NA,NA,""
"image-keyboard-response",551,718852,"0.0-3.180-0.180","oszqtgdwfo2njuk","23.csv","","1029.0000000001164","resources/trios/L1T2A3.jpg","38","restless",0.6,0.7,0.4,0.513538764016389,"true"
"image-keyboard-response",552,719255,"0.0-3.180-1.180","oszqtgdwfo2njuk","23.csv","","null","resources/maskTrios/BT2B.jpg","null","",NA,NA,NA,NA,""
"image-keyboard-response",553,720458,"0.0-3.180-2.180","oszqtgdwfo2njuk","23.csv","","null","resources/images/coin2.png","null","",NA,NA,NA,NA,""
"image-keyboard-response",554,721589,"0.0-3.181-0.181","oszqtgdwfo2njuk","23.csv","","1129","resources/trios/L4T4A1.jpg","37","restless",0.6,0.7,0.4,0.0786865308154471,"true"
"image-keyboard-response",555,721992,"0.0-3.181-1.181","oszqtgdwfo2njuk","23.csv","","null","resources/maskTrios/L4BB.jpg","null","",NA,NA,NA,NA,""
"image-keyboard-response",556,723193,"0.0-3.181-2.181","oszqtgdwfo2njuk","23.csv","","null","resources/images/coin2.png","null","",NA,NA,NA,NA,""
"image-keyboard-response",557,727602,"0.0-3.182-0.182","oszqtgdwfo2njuk","23.csv","","4404.000000000116","resources/trios/L1T2A1.jpg","39","restless",0.6,0.7,0.4,0.518660253944255,"false"
"image-keyboard-response",558,728005,"0.0-3.182-1.182","oszqtgdwfo2njuk","23.csv","","null","resources/maskTrios/BBA1.jpg","null","",NA,NA,NA,NA,""
"image-keyboard-response",559,729208,"0.0-3.182-2.182","oszqtgdwfo2njuk","23.csv","","null","resources/images/fishbone.png","null","",NA,NA,NA,NA,""
"image-keyboard-response",560,729787,"0.0-3.183-0.183","oszqtgdwfo2njuk","23.csv","","577","resources/trios/L4T2A1.jpg","38","restless",0.6,0.7,0.4,0.359582871911519,"true"
"image-keyboard-response",561,730192,"0.0-3.183-1.183","oszqtgdwfo2njuk","23.csv","","null","resources/maskTrios/BT2B.jpg","null","",NA,NA,NA,NA,""
"image-keyboard-response",562,731395,"0.0-3.183-2.183","oszqtgdwfo2njuk","23.csv","","null","resources/images/coin2.png","null","",NA,NA,NA,NA,""
"image-keyboard-response",563,732410,"0.0-3.184-0.184","oszqtgdwfo2njuk","23.csv","","1013.0000000001164","resources/trios/L1T2A1.jpg","37","restless",0.6,0.7,0.4,0.616109228346914,"false"
"image-keyboard-response",564,732811,"0.0-3.184-1.184","oszqtgdwfo2njuk","23.csv","","null","resources/maskTrios/L1BB.jpg","null","",NA,NA,NA,NA,""
"image-keyboard-response",565,734014,"0.0-3.184-2.184","oszqtgdwfo2njuk","23.csv","","null","resources/images/fishbone.png","null","",NA,NA,NA,NA,""
"image-keyboard-response",566,734616,"0.0-3.185-0.185","oszqtgdwfo2njuk","23.csv","","599","resources/trios/L4T4A3.jpg","37","restless",0.6,0.7,0.4,0.301513576158001,"true"
"image-keyboard-response",567,735018,"0.0-3.185-1.185","oszqtgdwfo2njuk","23.csv","","null","resources/maskTrios/L4BB.jpg","null","",NA,NA,NA,NA,""
"image-keyboard-response",568,736221,"0.0-3.185-2.185","oszqtgdwfo2njuk","23.csv","","null","resources/images/coin2.png","null","",NA,NA,NA,NA,""
"image-keyboard-response",569,736627,"0.0-3.186-0.186","oszqtgdwfo2njuk","23.csv","","404","resources/trios/L4T2A1.jpg","38","restless",0.6,0.7,0.4,0.2836681785037,"true"
"image-keyboard-response",570,737031,"0.0-3.186-1.186","oszqtgdwfo2njuk","23.csv","","null","resources/maskTrios/BT2B.jpg","null","",NA,NA,NA,NA,""
"image-keyboard-response",571,738233,"0.0-3.186-2.186","oszqtgdwfo2njuk","23.csv","","null","resources/images/coin2.png","null","",NA,NA,NA,NA,""
"image-keyboard-response",572,738679,"0.0-3.187-0.187","oszqtgdwfo2njuk","23.csv","","445.0000000001164","resources/trios/L4T2A3.jpg","38","restless",0.6,0.7,0.4,0.244846274683567,"true"
"image-keyboard-response",573,739082,"0.0-3.187-1.187","oszqtgdwfo2njuk","23.csv","","null","resources/maskTrios/BT2B.jpg","null","",NA,NA,NA,NA,""
"image-keyboard-response",574,740285,"0.0-3.187-2.187","oszqtgdwfo2njuk","23.csv","","null","resources/images/coin2.png","null","",NA,NA,NA,NA,""
"image-keyboard-response",575,740755,"0.0-3.188-0.188","oszqtgdwfo2njuk","23.csv","","468","resources/trios/L4T2A3.jpg","39","restless",0.6,0.7,0.4,0.237388571217317,"true"
"image-keyboard-response",576,741158,"0.0-3.188-1.188","oszqtgdwfo2njuk","23.csv","","null","resources/maskTrios/BBA3.jpg","null","",NA,NA,NA,NA,""
"image-keyboard-response",577,742360,"0.0-3.188-2.188","oszqtgdwfo2njuk","23.csv","","null","resources/images/coin2.png","null","",NA,NA,NA,NA,""
"image-keyboard-response",578,742807,"0.0-3.189-0.189","oszqtgdwfo2njuk","23.csv","","444.9999999998836","resources/trios/L1T2A3.jpg","39","restless",0.6,0.7,0.5,0.617781562991607,"false"
"image-keyboard-response",579,743209,"0.0-3.189-1.189","oszqtgdwfo2njuk","23.csv","","null","resources/maskTrios/BBA3.jpg","null","",NA,NA,NA,NA,""
"image-keyboard-response",580,744411,"0.0-3.189-2.189","oszqtgdwfo2njuk","23.csv","","null","resources/images/fishbone.png","null","",NA,NA,NA,NA,""
"image-keyboard-response",581,744705,"0.0-3.190-0.190","oszqtgdwfo2njuk","23.csv","","292","resources/trios/L1T2A3.jpg","38","restless",0.6,0.7,0.5,0.0895326462921593,"true"
"image-keyboard-response",582,745111,"0.0-3.190-1.190","oszqtgdwfo2njuk","23.csv","","null","resources/maskTrios/BT2B.jpg","null","",NA,NA,NA,NA,""
"image-keyboard-response",583,746314,"0.0-3.190-2.190","oszqtgdwfo2njuk","23.csv","","null","resources/images/coin2.png","null","",NA,NA,NA,NA,""
"image-keyboard-response",584,746666,"0.0-3.191-0.191","oszqtgdwfo2njuk","23.csv","","349","resources/trios/L1T2A1.jpg","38","restless",0.6,0.7,0.5,0.981029500642839,"false"
"image-keyboard-response",585,747069,"0.0-3.191-1.191","oszqtgdwfo2njuk","23.csv","","null","resources/maskTrios/BT2B.jpg","null","",NA,NA,NA,NA,""
"image-keyboard-response",586,748271,"0.0-3.191-2.191","oszqtgdwfo2njuk","23.csv","","null","resources/images/fishbone.png","null","",NA,NA,NA,NA,""
"image-keyboard-response",587,748892,"0.0-3.192-0.192","oszqtgdwfo2njuk","23.csv","","619","resources/trios/L4T4A1.jpg","37","restless",0.6,0.7,0.5,0.839931372415562,"false"
"image-keyboard-response",588,749295,"0.0-3.192-1.192","oszqtgdwfo2njuk","23.csv","","null","resources/maskTrios/L4BB.jpg","null","",NA,NA,NA,NA,""
"image-keyboard-response",589,750497,"0.0-3.192-2.192","oszqtgdwfo2njuk","23.csv","","null","resources/images/fishbone.png","null","",NA,NA,NA,NA,""
"image-keyboard-response",590,751144,"0.0-3.193-0.193","oszqtgdwfo2njuk","23.csv","","646","resources/trios/L1T2A1.jpg","37","restless",0.6,0.7,0.5,0.345803319305988,"true"
"image-keyboard-response",591,751546,"0.0-3.193-1.193","oszqtgdwfo2njuk","23.csv","","null","resources/maskTrios/L1BB.jpg","null","",NA,NA,NA,NA,""
"image-keyboard-response",592,752752,"0.0-3.193-2.193","oszqtgdwfo2njuk","23.csv","","null","resources/images/coin2.png","null","",NA,NA,NA,NA,""
"image-keyboard-response",593,753091,"0.0-3.194-0.194","oszqtgdwfo2njuk","23.csv","","337","resources/trios/L4T2A3.jpg","39","restless",0.6,0.7,0.5,0.693722478289241,"false"
"image-keyboard-response",594,753492,"0.0-3.194-1.194","oszqtgdwfo2njuk","23.csv","","null","resources/maskTrios/BBA3.jpg","null","",NA,NA,NA,NA,""
"image-keyboard-response",595,754695,"0.0-3.194-2.194","oszqtgdwfo2njuk","23.csv","","null","resources/images/fishbone.png","null","",NA,NA,NA,NA,""
"image-keyboard-response",596,755646,"0.0-3.195-0.195","oszqtgdwfo2njuk","23.csv","","950","resources/trios/L1T4A3.jpg","39","restless",0.5,0.7,0.5,0.135697736550649,"true"
"image-keyboard-response",597,756049,"0.0-3.195-1.195","oszqtgdwfo2njuk","23.csv","","null","resources/maskTrios/BBA3.jpg","null","",NA,NA,NA,NA,""
"image-keyboard-response",598,757252,"0.0-3.195-2.195","oszqtgdwfo2njuk","23.csv","","null","resources/images/coin2.png","null","",NA,NA,NA,NA,""
"image-keyboard-response",599,757886,"0.0-3.196-0.196","oszqtgdwfo2njuk","23.csv","","631.0000000001164","resources/trios/L1T2A3.jpg","39","restless",0.5,0.7,0.5,0.174121337723081,"true"
"image-keyboard-response",600,758288,"0.0-3.196-1.196","oszqtgdwfo2njuk","23.csv","","null","resources/maskTrios/BBA3.jpg","null","",NA,NA,NA,NA,""
"image-keyboard-response",601,759490,"0.0-3.196-2.196","oszqtgdwfo2njuk","23.csv","","null","resources/images/coin2.png","null","",NA,NA,NA,NA,""
"image-keyboard-response",602,762051,"0.0-3.197-0.197","oszqtgdwfo2njuk","23.csv","","2558","resources/trios/L4T2A3.jpg","39","restless",0.5,0.7,0.5,0.868621038554704,"false"
"image-keyboard-response",603,762454,"0.0-3.197-1.197","oszqtgdwfo2njuk","23.csv","","null","resources/maskTrios/BBA3.jpg","null","",NA,NA,NA,NA,""
"image-keyboard-response",604,763656,"0.0-3.197-2.197","oszqtgdwfo2njuk","23.csv","","null","resources/images/fishbone.png","null","",NA,NA,NA,NA,""
"image-keyboard-response",605,763927,"0.0-3.198-0.198","oszqtgdwfo2njuk","23.csv","","269","resources/trios/L4T4A3.jpg","38","restless",0.5,0.6,0.5,0.870589401356621,"false"
"image-keyboard-response",606,764330,"0.0-3.198-1.198","oszqtgdwfo2njuk","23.csv","","null","resources/maskTrios/BT4B.jpg","null","",NA,NA,NA,NA,""
"image-keyboard-response",607,765533,"0.0-3.198-2.198","oszqtgdwfo2njuk","23.csv","","null","resources/images/fishbone.png","null","",NA,NA,NA,NA,""
"image-keyboard-response",608,765655,"0.0-3.199-0.199","oszqtgdwfo2njuk","23.csv","","120","resources/trios/L1T4A1.jpg","37","restless",0.5,0.5,0.5,0.966821935036157,"false"
"image-keyboard-response",609,766058,"0.0-3.199-1.199","oszqtgdwfo2njuk","23.csv","","null","resources/maskTrios/L1BB.jpg","null","",NA,NA,NA,NA,""
"image-keyboard-response",610,767261,"0.0-3.199-2.199","oszqtgdwfo2njuk","23.csv","","null","resources/images/fishbone.png","null","",NA,NA,NA,NA,""
"image-keyboard-response",611,767341,"0.0-3.200-0.200","oszqtgdwfo2njuk","23.csv","","77","resources/trios/L4T4A3.jpg","37","restless",0.5,0.5,0.5,0.0325147321031906,"true"
"image-keyboard-response",612,767744,"0.0-3.200-1.200","oszqtgdwfo2njuk","23.csv","","null","resources/maskTrios/L4BB.jpg","null","",NA,NA,NA,NA,""
"image-keyboard-response",613,768946,"0.0-3.200-2.200","oszqtgdwfo2njuk","23.csv","","null","resources/images/coin2.png","null","",NA,NA,NA,NA,""
"image-keyboard-response",614,769533,"0.0-3.201-0.201","oszqtgdwfo2njuk","23.csv","","585","resources/trios/L4T2A3.jpg","38","restless",0.5,0.5,0.5,0.744157445268776,"false"
"image-keyboard-response",615,769936,"0.0-3.201-1.201","oszqtgdwfo2njuk","23.csv","","null","resources/maskTrios/BT2B.jpg","null","",NA,NA,NA,NA,""
"image-keyboard-response",616,771139,"0.0-3.201-2.201","oszqtgdwfo2njuk","23.csv","","null","resources/images/fishbone.png","null","",NA,NA,NA,NA,""
"image-keyboard-response",617,771447,"0.0-3.202-0.202","oszqtgdwfo2njuk","23.csv","","307","resources/trios/L4T2A1.jpg","38","restless",0.5,0.5,0.5,0.99036901188674,"false"
"image-keyboard-response",618,771850,"0.0-3.202-1.202","oszqtgdwfo2njuk","23.csv","","null","resources/maskTrios/BT2B.jpg","null","",NA,NA,NA,NA,""
"image-keyboard-response",619,773052,"0.0-3.202-2.202","oszqtgdwfo2njuk","23.csv","","null","resources/images/fishbone.png","null","",NA,NA,NA,NA,""
"image-keyboard-response",620,773377,"0.0-3.203-0.203","oszqtgdwfo2njuk","23.csv","","323","resources/trios/L4T2A1.jpg","39","restless",0.4,0.5,0.6,0.976455939993507,"false"
"image-keyboard-response",621,773779,"0.0-3.203-1.203","oszqtgdwfo2njuk","23.csv","","null","resources/maskTrios/BBA1.jpg","null","",NA,NA,NA,NA,""
"image-keyboard-response",622,774981,"0.0-3.203-2.203","oszqtgdwfo2njuk","23.csv","","null","resources/images/fishbone.png","null","",NA,NA,NA,NA,""
"image-keyboard-response",623,775594,"0.0-3.204-0.204","oszqtgdwfo2njuk","23.csv","","611","resources/trios/L4T4A1.jpg","39","restless",0.4,0.5,0.6,0.65845235074779,"false"
"image-keyboard-response",624,775996,"0.0-3.204-1.204","oszqtgdwfo2njuk","23.csv","","null","resources/maskTrios/BBA1.jpg","null","",NA,NA,NA,NA,""
"image-keyboard-response",625,777198,"0.0-3.204-2.204","oszqtgdwfo2njuk","23.csv","","null","resources/images/fishbone.png","null","",NA,NA,NA,NA,""
"image-keyboard-response",626,777540,"0.0-3.205-0.205","oszqtgdwfo2njuk","23.csv","","340","resources/trios/L1T4A3.jpg","38","restless",0.3,0.5,0.6,0.537658462857849,"false"
"image-keyboard-response",627,777942,"0.0-3.205-1.205","oszqtgdwfo2njuk","23.csv","","null","resources/maskTrios/BT4B.jpg","null","",NA,NA,NA,NA,""
"image-keyboard-response",628,779145,"0.0-3.205-2.205","oszqtgdwfo2njuk","23.csv","","null","resources/images/fishbone.png","null","",NA,NA,NA,NA,""
"image-keyboard-response",629,779404,"0.0-3.206-0.206","oszqtgdwfo2njuk","23.csv","","257.0000000001164","resources/trios/L1T4A3.jpg","38","restless",0.3,0.5,0.6,0.219100757443665,"true"
"image-keyboard-response",630,779806,"0.0-3.206-1.206","oszqtgdwfo2njuk","23.csv","","null","resources/maskTrios/BT4B.jpg","null","",NA,NA,NA,NA,""
"image-keyboard-response",631,781008,"0.0-3.206-2.206","oszqtgdwfo2njuk","23.csv","","null","resources/images/coin2.png","null","",NA,NA,NA,NA,""
"image-keyboard-response",632,781522,"0.0-3.207-0.207","oszqtgdwfo2njuk","23.csv","","511.9999999998836","resources/trios/L4T2A3.jpg","38","restless",0.3,0.5,0.6,0.897752268970251,"false"
"image-keyboard-response",633,781926,"0.0-3.207-1.207","oszqtgdwfo2njuk","23.csv","","null","resources/maskTrios/BT2B.jpg","null","",NA,NA,NA,NA,""
"image-keyboard-response",634,783128,"0.0-3.207-2.207","oszqtgdwfo2njuk","23.csv","","null","resources/images/fishbone.png","null","",NA,NA,NA,NA,""
"image-keyboard-response",635,783703,"0.0-3.208-0.208","oszqtgdwfo2njuk","23.csv","","572","resources/trios/L4T4A1.jpg","37","restless",0.3,0.5,0.6,0.528459967766205,"false"
