"trial_type","trial_index","time_elapsed","internal_node_id","subject","participantCode","walkNumber","success","rt","stimulus","key_press","test_part","leftProb","midProb","rightProb","generatedNum","correct"
"pavlovia",0,1678,"0.0-0.0","5x11pzsynjysc0x",251,"185.csv","","","","","",NA,NA,NA,NA,""
"fullscreen",1,6724,"0.0-1.0","5x11pzsynjysc0x",251,"185.csv","true","","","","",NA,NA,NA,NA,""
"html-keyboard-response",2,20460,"0.0-2.0-0.0","5x11pzsynjysc0x",251,"185.csv","","13734.5","<p><font size='6'>Arrrgh!</p></font><p>Can you be the best pirate? Try to find lots of gold! But beware, some islands have more gold than others, and over time, the island with the most gold may change. Can YOU figure it out? </p><font size='6'>GOOD LUCK, CAPTAIN!!!</font><p>Press any key to begin</p>","32","",NA,NA,NA,NA,""
"image-keyboard-response",3,23465,"0.0-2.0-1.0","5x11pzsynjysc0x",251,"185.csv","","null","resources/image_sets/111.png","null","",NA,NA,NA,NA,""
"image-keyboard-response",4,29456,"0.0-2.0-2.0","5x11pzsynjysc0x",251,"185.csv","","5989.5","resources/image_sets/left_highlight.png","37","",NA,NA,NA,NA,""
"image-keyboard-response",5,30859,"0.0-2.0-3.0","5x11pzsynjysc0x",251,"185.csv","","1401.6000000238419","resources/image_sets/mid_highlight.png","38","",NA,NA,NA,NA,""
"image-keyboard-response",6,31249,"0.0-2.0-4.0","5x11pzsynjysc0x",251,"185.csv","","388.30000001192093","resources/image_sets/right_highlight.png","39","",NA,NA,NA,NA,""
"image-keyboard-response",7,38433,"0.0-2.0-5.0","5x11pzsynjysc0x",251,"185.csv","","7182.899999976158","resources/image_sets/111.png","13","",NA,NA,NA,NA,""
"image-keyboard-response",8,41000,"0.0-2.0-6.0","5x11pzsynjysc0x",251,"185.csv","","2565.800000011921","resources/images/coin2.png","13","",NA,NA,NA,NA,""
"image-keyboard-response",9,42774,"0.0-2.0-7.0","5x11pzsynjysc0x",251,"185.csv","","1773.3999999761581","resources/images/fishbone.png","13","",NA,NA,NA,NA,""
"html-keyboard-response",10,48607,"0.0-2.0-8.0","5x11pzsynjysc0x",251,"185.csv","","5832","<p>Your first journey will be a long one, but you will get a well deserved break at the end</p><p>After the break you will have four more journeys, but each will be much shorter than the first, and you will have breaks in between each</p><p>Press Enter to begin</p>","13","",NA,NA,NA,NA,""
"image-keyboard-response",11,49512,"0.0-3.0-0.0","5x11pzsynjysc0x",251,"185.csv","","903.1999999880791","resources/trios/L2T4A1.jpg","39","restless",0.7,0.3,0.9,0.219155482001701,"true"
"image-keyboard-response",12,49923,"0.0-3.0-1.0","5x11pzsynjysc0x",251,"185.csv","","null","resources/maskTrios/BBA1.jpg","null","",NA,NA,NA,NA,""
"image-keyboard-response",13,51130,"0.0-3.0-2.0","5x11pzsynjysc0x",251,"185.csv","","null","resources/images/coin2.png","null","",NA,NA,NA,NA,""
"image-keyboard-response",14,52751,"0.0-3.1-0.1","5x11pzsynjysc0x",251,"185.csv","","1619.4000000357628","resources/trios/L4T4A3.jpg","38","restless",0.7,0.3,0.9,0.329985070934973,"false"
"image-keyboard-response",15,53155,"0.0-3.1-1.1","5x11pzsynjysc0x",251,"185.csv","","null","resources/maskTrios/BT4B.jpg","null","",NA,NA,NA,NA,""
"image-keyboard-response",16,54362,"0.0-3.1-2.1","5x11pzsynjysc0x",251,"185.csv","","null","resources/images/fishbone.png","null","",NA,NA,NA,NA,""
"image-keyboard-response",17,55921,"0.0-3.2-0.2","5x11pzsynjysc0x",251,"185.csv","","1557.6000000238419","resources/trios/L4T4A3.jpg","39","restless",0.7,0.3,0.8,0.823309960254281,"false"
"image-keyboard-response",18,56330,"0.0-3.2-1.2","5x11pzsynjysc0x",251,"185.csv","","null","resources/maskTrios/BBA3.jpg","null","",NA,NA,NA,NA,""
"image-keyboard-response",19,57540,"0.0-3.2-2.2","5x11pzsynjysc0x",251,"185.csv","","null","resources/images/fishbone.png","null","",NA,NA,NA,NA,""
"image-keyboard-response",20,57890,"0.0-3.3-0.3","5x11pzsynjysc0x",251,"185.csv","","348.0999999642372","resources/trios/L4T4A3.jpg","38","restless",0.7,0.3,0.7,0.366023137820653,"false"
"image-keyboard-response",21,58302,"0.0-3.3-1.3","5x11pzsynjysc0x",251,"185.csv","","null","resources/maskTrios/BT4B.jpg","null","",NA,NA,NA,NA,""
"image-keyboard-response",22,59510,"0.0-3.3-2.3","5x11pzsynjysc0x",251,"185.csv","","null","resources/images/fishbone.png","null","",NA,NA,NA,NA,""
"image-keyboard-response",23,59762,"0.0-3.4-0.4","5x11pzsynjysc0x",251,"185.csv","","250.19999998807907","resources/trios/L4T1A3.jpg","37","restless",0.7,0.3,0.7,0.691722953783845,"true"
"image-keyboard-response",24,60166,"0.0-3.4-1.4","5x11pzsynjysc0x",251,"185.csv","","null","resources/maskTrios/L4BB.jpg","null","",NA,NA,NA,NA,""
"image-keyboard-response",25,61374,"0.0-3.4-2.4","5x11pzsynjysc0x",251,"185.csv","","null","resources/images/coin2.png","null","",NA,NA,NA,NA,""
"image-keyboard-response",26,63379,"0.0-3.5-0.5","5x11pzsynjysc0x",251,"185.csv","","2003.199999988079","resources/trios/L2T4A1.jpg","37","restless",0.7,0.3,0.7,0.161685850322305,"true"
"image-keyboard-response",27,63786,"0.0-3.5-1.5","5x11pzsynjysc0x",251,"185.csv","","null","resources/maskTrios/L2BB.jpg","null","",NA,NA,NA,NA,""
"image-keyboard-response",28,64998,"0.0-3.5-2.5","5x11pzsynjysc0x",251,"185.csv","","null","resources/images/coin2.png","null","",NA,NA,NA,NA,""
"image-keyboard-response",29,65310,"0.0-3.6-0.6","5x11pzsynjysc0x",251,"185.csv","","309.89999997615814","resources/trios/L2T1A3.jpg","37","restless",0.7,0.3,0.7,0.65684096078261,"true"
"image-keyboard-response",30,65719,"0.0-3.6-1.6","5x11pzsynjysc0x",251,"185.csv","","null","resources/maskTrios/L2BB.jpg","null","",NA,NA,NA,NA,""
"image-keyboard-response",31,66925,"0.0-3.6-2.6","5x11pzsynjysc0x",251,"185.csv","","null","resources/images/coin2.png","null","",NA,NA,NA,NA,""
"image-keyboard-response",32,67304,"0.0-3.7-0.7","5x11pzsynjysc0x",251,"185.csv","","377.5","resources/trios/L4T4A1.jpg","37","restless",0.7,0.3,0.7,0.710786128220415,"false"
"image-keyboard-response",33,67710,"0.0-3.7-1.7","5x11pzsynjysc0x",251,"185.csv","","null","resources/maskTrios/L4BB.jpg","null","",NA,NA,NA,NA,""
"image-keyboard-response",34,68913,"0.0-3.7-2.7","5x11pzsynjysc0x",251,"185.csv","","null","resources/images/fishbone.png","null","",NA,NA,NA,NA,""
"image-keyboard-response",35,69224,"0.0-3.8-0.8","5x11pzsynjysc0x",251,"185.csv","","308.80000001192093","resources/trios/L4T1A3.jpg","39","restless",0.7,0.3,0.7,0.693066162406642,"true"
"image-keyboard-response",36,69628,"0.0-3.8-1.8","5x11pzsynjysc0x",251,"185.csv","","null","resources/maskTrios/BBA3.jpg","null","",NA,NA,NA,NA,""
"image-keyboard-response",37,70838,"0.0-3.8-2.8","5x11pzsynjysc0x",251,"185.csv","","null","resources/images/coin2.png","null","",NA,NA,NA,NA,""
"image-keyboard-response",38,71103,"0.0-3.9-0.9","5x11pzsynjysc0x",251,"185.csv","","262.60000002384186","resources/trios/L4T4A3.jpg","39","restless",0.7,0.3,0.7,0.990640206272852,"false"
"image-keyboard-response",39,71507,"0.0-3.9-1.9","5x11pzsynjysc0x",251,"185.csv","","null","resources/maskTrios/BBA3.jpg","null","",NA,NA,NA,NA,""
"image-keyboard-response",40,72715,"0.0-3.9-2.9","5x11pzsynjysc0x",251,"185.csv","","null","resources/images/fishbone.png","null","",NA,NA,NA,NA,""
"image-keyboard-response",41,73137,"0.0-3.10-0.10","5x11pzsynjysc0x",251,"185.csv","","420.39999997615814","resources/trios/L4T4A1.jpg","38","restless",0.7,0.3,0.7,0.362087793230429,"false"
"image-keyboard-response",42,73550,"0.0-3.10-1.10","5x11pzsynjysc0x",251,"185.csv","","null","resources/maskTrios/BT4B.jpg","null","",NA,NA,NA,NA,""
"image-keyboard-response",43,74754,"0.0-3.10-2.10","5x11pzsynjysc0x",251,"185.csv","","null","resources/images/fishbone.png","null","",NA,NA,NA,NA,""
"image-keyboard-response",44,75048,"0.0-3.11-0.11","5x11pzsynjysc0x",251,"185.csv","","293","resources/trios/L4T4A1.jpg","37","restless",0.6,0.3,0.7,0.452384954666926,"true"
"image-keyboard-response",45,75461,"0.0-3.11-1.11","5x11pzsynjysc0x",251,"185.csv","","null","resources/maskTrios/L4BB.jpg","null","",NA,NA,NA,NA,""
"image-keyboard-response",46,76669,"0.0-3.11-2.11","5x11pzsynjysc0x",251,"185.csv","","null","resources/images/coin2.png","null","",NA,NA,NA,NA,""
"image-keyboard-response",47,76950,"0.0-3.12-0.12","5x11pzsynjysc0x",251,"185.csv","","280.10000002384186","resources/trios/L2T4A1.jpg","37","restless",0.6,0.3,0.6,0.146978131620143,"true"
"image-keyboard-response",48,77354,"0.0-3.12-1.12","5x11pzsynjysc0x",251,"185.csv","","null","resources/maskTrios/L2BB.jpg","null","",NA,NA,NA,NA,""
"image-keyboard-response",49,78562,"0.0-3.12-2.12","5x11pzsynjysc0x",251,"185.csv","","null","resources/images/coin2.png","null","",NA,NA,NA,NA,""
"image-keyboard-response",50,78932,"0.0-3.13-0.13","5x11pzsynjysc0x",251,"185.csv","","368","resources/trios/L4T4A3.jpg","37","restless",0.6,0.3,0.6,0.548582756713275,"true"
"image-keyboard-response",51,79338,"0.0-3.13-1.13","5x11pzsynjysc0x",251,"185.csv","","null","resources/maskTrios/L4BB.jpg","null","",NA,NA,NA,NA,""
"image-keyboard-response",52,80550,"0.0-3.13-2.13","5x11pzsynjysc0x",251,"185.csv","","null","resources/images/coin2.png","null","",NA,NA,NA,NA,""
"image-keyboard-response",53,80720,"0.0-3.14-0.14","5x11pzsynjysc0x",251,"185.csv","","169.10000002384186","resources/trios/L2T1A1.jpg","39","restless",0.6,0.3,0.6,0.00750284391197065,"true"
"image-keyboard-response",54,81134,"0.0-3.14-1.14","5x11pzsynjysc0x",251,"185.csv","","null","resources/maskTrios/BBA1.jpg","null","",NA,NA,NA,NA,""
"image-keyboard-response",55,82338,"0.0-3.14-2.14","5x11pzsynjysc0x",251,"185.csv","","null","resources/images/coin2.png","null","",NA,NA,NA,NA,""
"image-keyboard-response",56,82584,"0.0-3.15-0.15","5x11pzsynjysc0x",251,"185.csv","","244.5","resources/trios/L4T1A1.jpg","37","restless",0.6,0.2,0.6,0.456841470795394,"true"
"image-keyboard-response",57,82986,"0.0-3.15-1.15","5x11pzsynjysc0x",251,"185.csv","","null","resources/maskTrios/L4BB.jpg","null","",NA,NA,NA,NA,""
"image-keyboard-response",58,84198,"0.0-3.15-2.15","5x11pzsynjysc0x",251,"185.csv","","null","resources/images/coin2.png","null","",NA,NA,NA,NA,""
"image-keyboard-response",59,84337,"0.0-3.16-0.16","5x11pzsynjysc0x",251,"185.csv","","137","resources/trios/L2T1A3.jpg","37","restless",0.6,0.2,0.6,0.217983552242612,"true"
"image-keyboard-response",60,84738,"0.0-3.16-1.16","5x11pzsynjysc0x",251,"185.csv","","null","resources/maskTrios/L2BB.jpg","null","",NA,NA,NA,NA,""
"image-keyboard-response",61,85947,"0.0-3.16-2.16","5x11pzsynjysc0x",251,"185.csv","","null","resources/images/coin2.png","null","",NA,NA,NA,NA,""
"image-keyboard-response",62,86295,"0.0-3.17-0.17","5x11pzsynjysc0x",251,"185.csv","","347.5","resources/trios/L2T1A1.jpg","37","restless",0.6,0.2,0.6,0.00738308011252986,"true"
"image-keyboard-response",63,86703,"0.0-3.17-1.17","5x11pzsynjysc0x",251,"185.csv","","null","resources/maskTrios/L2BB.jpg","null","",NA,NA,NA,NA,""
"image-keyboard-response",64,87910,"0.0-3.17-2.17","5x11pzsynjysc0x",251,"185.csv","","null","resources/images/coin2.png","null","",NA,NA,NA,NA,""
"image-keyboard-response",65,88652,"0.0-3.18-0.18","5x11pzsynjysc0x",251,"185.csv","","740.5999999642372","resources/trios/L4T1A3.jpg","39","restless",0.6,0.2,0.6,0.728912352656276,"false"
"image-keyboard-response",66,89063,"0.0-3.18-1.18","5x11pzsynjysc0x",251,"185.csv","","null","resources/maskTrios/BBA3.jpg","null","",NA,NA,NA,NA,""
"image-keyboard-response",67,90271,"0.0-3.18-2.18","5x11pzsynjysc0x",251,"185.csv","","null","resources/images/fishbone.png","null","",NA,NA,NA,NA,""
"image-keyboard-response",68,90603,"0.0-3.19-0.19","5x11pzsynjysc0x",251,"185.csv","","330.69999998807907","resources/trios/L4T4A1.jpg","38","restless",0.6,0.2,0.6,0.339984151660953,"false"
"image-keyboard-response",69,91013,"0.0-3.19-1.19","5x11pzsynjysc0x",251,"185.csv","","null","resources/maskTrios/BT4B.jpg","null","",NA,NA,NA,NA,""
"image-keyboard-response",70,92218,"0.0-3.19-2.19","5x11pzsynjysc0x",251,"185.csv","","null","resources/images/fishbone.png","null","",NA,NA,NA,NA,""
"image-keyboard-response",71,92788,"0.0-3.20-0.20","5x11pzsynjysc0x",251,"185.csv","","569.3000000119209","resources/trios/L4T4A1.jpg","37","restless",0.6,0.2,0.6,0.0181766860949462,"true"
"image-keyboard-response",72,93199,"0.0-3.20-1.20","5x11pzsynjysc0x",251,"185.csv","","null","resources/maskTrios/L4BB.jpg","null","",NA,NA,NA,NA,""
"image-keyboard-response",73,94407,"0.0-3.20-2.20","5x11pzsynjysc0x",251,"185.csv","","null","resources/images/coin2.png","null","",NA,NA,NA,NA,""
"image-keyboard-response",74,94765,"0.0-3.21-0.21","5x11pzsynjysc0x",251,"185.csv","","356.5","resources/trios/L4T4A3.jpg","37","restless",0.6,0.2,0.6,0.144256022797615,"true"
"image-keyboard-response",75,95175,"0.0-3.21-1.21","5x11pzsynjysc0x",251,"185.csv","","null","resources/maskTrios/L4BB.jpg","null","",NA,NA,NA,NA,""
"image-keyboard-response",76,96380,"0.0-3.21-2.21","5x11pzsynjysc0x",251,"185.csv","","null","resources/images/coin2.png","null","",NA,NA,NA,NA,""
"image-keyboard-response",77,96674,"0.0-3.22-0.22","5x11pzsynjysc0x",251,"185.csv","","291.80000001192093","resources/trios/L4T1A1.jpg","37","restless",0.6,0.2,0.5,0.105202827804541,"true"
"image-keyboard-response",78,97084,"0.0-3.22-1.22","5x11pzsynjysc0x",251,"185.csv","","null","resources/maskTrios/L4BB.jpg","null","",NA,NA,NA,NA,""
"image-keyboard-response",79,98293,"0.0-3.22-2.22","5x11pzsynjysc0x",251,"185.csv","","null","resources/images/coin2.png","null","",NA,NA,NA,NA,""
"image-keyboard-response",80,98545,"0.0-3.23-0.23","5x11pzsynjysc0x",251,"185.csv","","250.19999998807907","resources/trios/L2T1A3.jpg","37","restless",0.6,0.2,0.5,0.567816526831869,"true"
"image-keyboard-response",81,98957,"0.0-3.23-1.23","5x11pzsynjysc0x",251,"185.csv","","null","resources/maskTrios/L2BB.jpg","null","",NA,NA,NA,NA,""
"image-keyboard-response",82,100167,"0.0-3.23-2.23","5x11pzsynjysc0x",251,"185.csv","","null","resources/images/coin2.png","null","",NA,NA,NA,NA,""
"image-keyboard-response",83,100434,"0.0-3.24-0.24","5x11pzsynjysc0x",251,"185.csv","","265.5","resources/trios/L2T1A1.jpg","37","restless",0.6,0.2,0.5,0.0222361676266645,"true"
"image-keyboard-response",84,100845,"0.0-3.24-1.24","5x11pzsynjysc0x",251,"185.csv","","null","resources/maskTrios/L2BB.jpg","null","",NA,NA,NA,NA,""
"image-keyboard-response",85,102054,"0.0-3.24-2.24","5x11pzsynjysc0x",251,"185.csv","","null","resources/images/coin2.png","null","",NA,NA,NA,NA,""
"image-keyboard-response",86,102323,"0.0-3.25-0.25","5x11pzsynjysc0x",251,"185.csv","","268.2999999523163","resources/trios/L2T4A1.jpg","37","restless",0.6,0.2,0.5,0.0282581600243563,"true"
"image-keyboard-response",87,102733,"0.0-3.25-1.25","5x11pzsynjysc0x",251,"185.csv","","null","resources/maskTrios/L2BB.jpg","null","",NA,NA,NA,NA,""
"image-keyboard-response",88,103939,"0.0-3.25-2.25","5x11pzsynjysc0x",251,"185.csv","","null","resources/images/coin2.png","null","",NA,NA,NA,NA,""
"image-keyboard-response",89,103994,"0.0-3.26-0.26","5x11pzsynjysc0x",251,"185.csv","","54","resources/trios/L2T4A3.jpg","37","restless",0.6,0.2,0.5,0.781088861626533,"false"
"image-keyboard-response",90,104407,"0.0-3.26-1.26","5x11pzsynjysc0x",251,"185.csv","","null","resources/maskTrios/L2BB.jpg","null","",NA,NA,NA,NA,""
"image-keyboard-response",91,105615,"0.0-3.26-2.26","5x11pzsynjysc0x",251,"185.csv","","null","resources/images/fishbone.png","null","",NA,NA,NA,NA,""
"image-keyboard-response",92,105730,"0.0-3.27-0.27","5x11pzsynjysc0x",251,"185.csv","","113.79999995231628","resources/trios/L4T4A3.jpg","39","restless",0.6,0.2,0.5,0.538009198135142,"false"
"image-keyboard-response",93,106140,"0.0-3.27-1.27","5x11pzsynjysc0x",251,"185.csv","","null","resources/maskTrios/BBA3.jpg","null","",NA,NA,NA,NA,""
"image-keyboard-response",94,107347,"0.0-3.27-2.27","5x11pzsynjysc0x",251,"185.csv","","null","resources/images/fishbone.png","null","",NA,NA,NA,NA,""
"image-keyboard-response",95,107839,"0.0-3.28-0.28","5x11pzsynjysc0x",251,"185.csv","","490.80000001192093","resources/trios/L2T1A1.jpg","38","restless",0.6,0.2,0.5,0.363836783660199,"false"
"image-keyboard-response",96,108242,"0.0-3.28-1.28","5x11pzsynjysc0x",251,"185.csv","","null","resources/maskTrios/BT1B.jpg","null","",NA,NA,NA,NA,""
"image-keyboard-response",97,109451,"0.0-3.28-2.28","5x11pzsynjysc0x",251,"185.csv","","null","resources/images/fishbone.png","null","",NA,NA,NA,NA,""
"image-keyboard-response",98,109462,"0.0-3.29-0.29","5x11pzsynjysc0x",251,"185.csv","","10.100000023841858","resources/trios/L4T1A1.jpg","37","restless",0.6,0.2,0.5,0.0624562783877995,"true"
"image-keyboard-response",99,109867,"0.0-3.29-1.29","5x11pzsynjysc0x",251,"185.csv","","null","resources/maskTrios/L4BB.jpg","null","",NA,NA,NA,NA,""
"image-keyboard-response",100,111079,"0.0-3.29-2.29","5x11pzsynjysc0x",251,"185.csv","","null","resources/images/coin2.png","null","",NA,NA,NA,NA,""
"image-keyboard-response",101,111314,"0.0-3.30-0.30","5x11pzsynjysc0x",251,"185.csv","","233.5","resources/trios/L4T4A3.jpg","37","restless",0.6,0.2,0.5,0.643145888570336,"false"
"image-keyboard-response",102,111719,"0.0-3.30-1.30","5x11pzsynjysc0x",251,"185.csv","","null","resources/maskTrios/L4BB.jpg","null","",NA,NA,NA,NA,""
"image-keyboard-response",103,112927,"0.0-3.30-2.30","5x11pzsynjysc0x",251,"185.csv","","null","resources/images/fishbone.png","null","",NA,NA,NA,NA,""
"image-keyboard-response",104,113631,"0.0-3.31-0.31","5x11pzsynjysc0x",251,"185.csv","","702.7999999523163","resources/trios/L4T4A3.jpg","37","restless",0.6,0.2,0.5,0.795707152943854,"false"
"image-keyboard-response",105,114039,"0.0-3.31-1.31","5x11pzsynjysc0x",251,"185.csv","","null","resources/maskTrios/L4BB.jpg","null","",NA,NA,NA,NA,""
"image-keyboard-response",106,115247,"0.0-3.31-2.31","5x11pzsynjysc0x",251,"185.csv","","null","resources/images/fishbone.png","null","",NA,NA,NA,NA,""
"image-keyboard-response",107,115749,"0.0-3.32-0.32","5x11pzsynjysc0x",251,"185.csv","","501.0999999642372","resources/trios/L2T1A3.jpg","38","restless",0.6,0.2,0.5,0.181346679402167,"true"
"image-keyboard-response",108,116158,"0.0-3.32-1.32","5x11pzsynjysc0x",251,"185.csv","","null","resources/maskTrios/BT1B.jpg","null","",NA,NA,NA,NA,""
"image-keyboard-response",109,117365,"0.0-3.32-2.32","5x11pzsynjysc0x",251,"185.csv","","null","resources/images/coin2.png","null","",NA,NA,NA,NA,""
"image-keyboard-response",110,118150,"0.0-3.33-0.33","5x11pzsynjysc0x",251,"185.csv","","783.3999999761581","resources/trios/L2T1A1.jpg","38","restless",0.6,0.1,0.5,0.684022962784486,"false"
"image-keyboard-response",111,118559,"0.0-3.33-1.33","5x11pzsynjysc0x",251,"185.csv","","null","resources/maskTrios/BT1B.jpg","null","",NA,NA,NA,NA,""
"image-keyboard-response",112,119767,"0.0-3.33-2.33","5x11pzsynjysc0x",251,"185.csv","","null","resources/images/fishbone.png","null","",NA,NA,NA,NA,""
"image-keyboard-response",113,120379,"0.0-3.34-0.34","5x11pzsynjysc0x",251,"185.csv","","610.8999999761581","resources/trios/L4T4A3.jpg","39","restless",0.5,0.1,0.5,0.98515037865953,"false"
"image-keyboard-response",114,120787,"0.0-3.34-1.34","5x11pzsynjysc0x",251,"185.csv","","null","resources/maskTrios/BBA3.jpg","null","",NA,NA,NA,NA,""
"image-keyboard-response",115,121999,"0.0-3.34-2.34","5x11pzsynjysc0x",251,"185.csv","","null","resources/images/fishbone.png","null","",NA,NA,NA,NA,""
"image-keyboard-response",116,122426,"0.0-3.35-0.35","5x11pzsynjysc0x",251,"185.csv","","426","resources/trios/L4T1A1.jpg","37","restless",0.5,0.1,0.5,0.679935127339357,"false"
"image-keyboard-response",117,122835,"0.0-3.35-1.35","5x11pzsynjysc0x",251,"185.csv","","null","resources/maskTrios/L4BB.jpg","null","",NA,NA,NA,NA,""
"image-keyboard-response",118,124044,"0.0-3.35-2.35","5x11pzsynjysc0x",251,"185.csv","","null","resources/images/fishbone.png","null","",NA,NA,NA,NA,""
"image-keyboard-response",119,124048,"0.0-3.36-0.36","5x11pzsynjysc0x",251,"185.csv","","2.900000035762787","resources/trios/L4T1A1.jpg","38","restless",0.5,0.1,0.5,0.32872445218863,"false"
"image-keyboard-response",120,124453,"0.0-3.36-1.36","5x11pzsynjysc0x",251,"185.csv","","null","resources/maskTrios/BT1B.jpg","null","",NA,NA,NA,NA,""
"image-keyboard-response",121,125660,"0.0-3.36-2.36","5x11pzsynjysc0x",251,"185.csv","","null","resources/images/fishbone.png","null","",NA,NA,NA,NA,""
"image-keyboard-response",122,126823,"0.0-3.37-0.37","5x11pzsynjysc0x",251,"185.csv","","1161.8999999761581","resources/trios/L4T1A1.jpg","39","restless",0.5,0.2,0.5,0.337136920296898,"true"
"image-keyboard-response",123,127231,"0.0-3.37-1.37","5x11pzsynjysc0x",251,"185.csv","","null","resources/maskTrios/BBA1.jpg","null","",NA,NA,NA,NA,""
"image-keyboard-response",124,128439,"0.0-3.37-2.37","5x11pzsynjysc0x",251,"185.csv","","null","resources/images/coin2.png","null","",NA,NA,NA,NA,""
"image-keyboard-response",125,128849,"0.0-3.38-0.38","5x11pzsynjysc0x",251,"185.csv","","408.5","resources/trios/L4T4A1.jpg","39","restless",0.5,0.3,0.5,0.201425594686916,"true"
"image-keyboard-response",126,129263,"0.0-3.38-1.38","5x11pzsynjysc0x",251,"185.csv","","null","resources/maskTrios/BBA1.jpg","null","",NA,NA,NA,NA,""
"image-keyboard-response",127,130470,"0.0-3.38-2.38","5x11pzsynjysc0x",251,"185.csv","","null","resources/images/coin2.png","null","",NA,NA,NA,NA,""
"image-keyboard-response",128,130569,"0.0-3.39-0.39","5x11pzsynjysc0x",251,"185.csv","","96.79999995231628","resources/trios/L4T4A1.jpg","39","restless",0.5,0.3,0.5,0.427088795883591,"true"
"image-keyboard-response",129,130979,"0.0-3.39-1.39","5x11pzsynjysc0x",251,"185.csv","","null","resources/maskTrios/BBA1.jpg","null","",NA,NA,NA,NA,""
"image-keyboard-response",130,132191,"0.0-3.39-2.39","5x11pzsynjysc0x",251,"185.csv","","null","resources/images/coin2.png","null","",NA,NA,NA,NA,""
"image-keyboard-response",131,132540,"0.0-3.40-0.40","5x11pzsynjysc0x",251,"185.csv","","347.80000001192093","resources/trios/L4T1A1.jpg","39","restless",0.5,0.3,0.5,0.808706616723121,"false"
"image-keyboard-response",132,132947,"0.0-3.40-1.40","5x11pzsynjysc0x",251,"185.csv","","null","resources/maskTrios/BBA1.jpg","null","",NA,NA,NA,NA,""
"image-keyboard-response",133,134159,"0.0-3.40-2.40","5x11pzsynjysc0x",251,"185.csv","","null","resources/images/fishbone.png","null","",NA,NA,NA,NA,""
"image-keyboard-response",134,134468,"0.0-3.41-0.41","5x11pzsynjysc0x",251,"185.csv","","307.89999997615814","resources/trios/L2T1A3.jpg","37","restless",0.5,0.2,0.5,0.143013023260785,"true"
"image-keyboard-response",135,134879,"0.0-3.41-1.41","5x11pzsynjysc0x",251,"185.csv","","null","resources/maskTrios/L2BB.jpg","null","",NA,NA,NA,NA,""
"image-keyboard-response",136,136087,"0.0-3.41-2.41","5x11pzsynjysc0x",251,"185.csv","","null","resources/images/coin2.png","null","",NA,NA,NA,NA,""
"image-keyboard-response",137,136438,"0.0-3.42-0.42","5x11pzsynjysc0x",251,"185.csv","","349.19999998807907","resources/trios/L2T4A3.jpg","37","restless",0.5,0.2,0.5,0.391894432392502,"true"
"image-keyboard-response",138,136843,"0.0-3.42-1.42","5x11pzsynjysc0x",251,"185.csv","","null","resources/maskTrios/L2BB.jpg","null","",NA,NA,NA,NA,""
"image-keyboard-response",139,138051,"0.0-3.42-2.42","5x11pzsynjysc0x",251,"185.csv","","null","resources/images/coin2.png","null","",NA,NA,NA,NA,""
"image-keyboard-response",140,138574,"0.0-3.43-0.43","5x11pzsynjysc0x",251,"185.csv","","521.5","resources/trios/L2T1A1.jpg","37","restless",0.4,0.2,0.5,0.832645460405138,"false"
"image-keyboard-response",141,138983,"0.0-3.43-1.43","5x11pzsynjysc0x",251,"185.csv","","null","resources/maskTrios/L2BB.jpg","null","",NA,NA,NA,NA,""
"image-keyboard-response",142,140187,"0.0-3.43-2.43","5x11pzsynjysc0x",251,"185.csv","","null","resources/images/fishbone.png","null","",NA,NA,NA,NA,""
"image-keyboard-response",143,141484,"0.0-3.44-0.44","5x11pzsynjysc0x",251,"185.csv","","1295.800000011921","resources/trios/L4T4A3.jpg","37","restless",0.4,0.2,0.5,0.784032001214283,"false"
"image-keyboard-response",144,141892,"0.0-3.44-1.44","5x11pzsynjysc0x",251,"185.csv","","null","resources/maskTrios/L4BB.jpg","null","",NA,NA,NA,NA,""
"image-keyboard-response",145,143101,"0.0-3.44-2.44","5x11pzsynjysc0x",251,"185.csv","","null","resources/images/fishbone.png","null","",NA,NA,NA,NA,""
"image-keyboard-response",146,143766,"0.0-3.45-0.45","5x11pzsynjysc0x",251,"185.csv","","663.5999999642372","resources/trios/L2T1A3.jpg","37","restless",0.4,0.2,0.5,0.0854085818032972,"true"
"image-keyboard-response",147,144171,"0.0-3.45-1.45","5x11pzsynjysc0x",251,"185.csv","","null","resources/maskTrios/L2BB.jpg","null","",NA,NA,NA,NA,""
"image-keyboard-response",148,145383,"0.0-3.45-2.45","5x11pzsynjysc0x",251,"185.csv","","null","resources/images/coin2.png","null","",NA,NA,NA,NA,""
"image-keyboard-response",149,146424,"0.0-3.46-0.46","5x11pzsynjysc0x",251,"185.csv","","1039.5","resources/trios/L4T1A1.jpg","39","restless",0.4,0.3,0.5,0.441759948936313,"true"
"image-keyboard-response",150,146830,"0.0-3.46-1.46","5x11pzsynjysc0x",251,"185.csv","","null","resources/maskTrios/BBA1.jpg","null","",NA,NA,NA,NA,""
"image-keyboard-response",151,148035,"0.0-3.46-2.46","5x11pzsynjysc0x",251,"185.csv","","null","resources/images/coin2.png","null","",NA,NA,NA,NA,""
"image-keyboard-response",152,148948,"0.0-3.47-0.47","5x11pzsynjysc0x",251,"185.csv","","911.3999999761581","resources/trios/L2T1A1.jpg","37","restless",0.4,0.3,0.5,0.225260458924086,"true"
"image-keyboard-response",153,149356,"0.0-3.47-1.47","5x11pzsynjysc0x",251,"185.csv","","null","resources/maskTrios/L2BB.jpg","null","",NA,NA,NA,NA,""
"image-keyboard-response",154,150563,"0.0-3.47-2.47","5x11pzsynjysc0x",251,"185.csv","","null","resources/images/coin2.png","null","",NA,NA,NA,NA,""
"image-keyboard-response",155,151788,"0.0-3.48-0.48","5x11pzsynjysc0x",251,"185.csv","","1224","resources/trios/L2T1A3.jpg","37","restless",0.4,0.3,0.5,0.797660140872436,"false"
"image-keyboard-response",156,152195,"0.0-3.48-1.48","5x11pzsynjysc0x",251,"185.csv","","null","resources/maskTrios/L2BB.jpg","null","",NA,NA,NA,NA,""
"image-keyboard-response",157,153403,"0.0-3.48-2.48","5x11pzsynjysc0x",251,"185.csv","","null","resources/images/fishbone.png","null","",NA,NA,NA,NA,""
"image-keyboard-response",158,154413,"0.0-3.49-0.49","5x11pzsynjysc0x",251,"185.csv","","1008.1999999880791","resources/trios/L2T4A3.jpg","39","restless",0.3,0.3,0.5,0.822683877182342,"false"
"image-keyboard-response",159,154823,"0.0-3.49-1.49","5x11pzsynjysc0x",251,"185.csv","","null","resources/maskTrios/BBA3.jpg","null","",NA,NA,NA,NA,""
"image-keyboard-response",160,156030,"0.0-3.49-2.49","5x11pzsynjysc0x",251,"185.csv","","null","resources/images/fishbone.png","null","",NA,NA,NA,NA,""
"image-keyboard-response",161,157586,"0.0-3.50-0.50","5x11pzsynjysc0x",251,"185.csv","","1554","resources/trios/L4T1A1.jpg","39","restless",0.3,0.3,0.5,0.854882535564854,"false"
"image-keyboard-response",162,157990,"0.0-3.50-1.50","5x11pzsynjysc0x",251,"185.csv","","null","resources/maskTrios/BBA1.jpg","null","",NA,NA,NA,NA,""
"image-keyboard-response",163,159194,"0.0-3.50-2.50","5x11pzsynjysc0x",251,"185.csv","","null","resources/images/fishbone.png","null","",NA,NA,NA,NA,""
"image-keyboard-response",164,159540,"0.0-3.51-0.51","5x11pzsynjysc0x",251,"185.csv","","344.4000000357628","resources/trios/L4T1A3.jpg","38","restless",0.3,0.3,0.5,0.470100752634304,"false"
"image-keyboard-response",165,159951,"0.0-3.51-1.51","5x11pzsynjysc0x",251,"185.csv","","null","resources/maskTrios/BT1B.jpg","null","",NA,NA,NA,NA,""
"image-keyboard-response",166,161159,"0.0-3.51-2.51","5x11pzsynjysc0x",251,"185.csv","","null","resources/images/fishbone.png","null","",NA,NA,NA,NA,""
"image-keyboard-response",167,161468,"0.0-3.52-0.52","5x11pzsynjysc0x",251,"185.csv","","307.19999998807907","resources/trios/L4T1A1.jpg","37","restless",0.3,0.3,0.5,0.112385754072287,"true"
"image-keyboard-response",168,161875,"0.0-3.52-1.52","5x11pzsynjysc0x",251,"185.csv","","null","resources/maskTrios/L4BB.jpg","null","",NA,NA,NA,NA,""
"image-keyboard-response",169,163085,"0.0-3.52-2.52","5x11pzsynjysc0x",251,"185.csv","","null","resources/images/coin2.png","null","",NA,NA,NA,NA,""
"image-keyboard-response",170,163603,"0.0-3.53-0.53","5x11pzsynjysc0x",251,"185.csv","","516.6999999880791","resources/trios/L2T4A1.jpg","37","restless",0.3,0.3,0.5,0.785153919210133,"false"
"image-keyboard-response",171,164015,"0.0-3.53-1.53","5x11pzsynjysc0x",251,"185.csv","","null","resources/maskTrios/L2BB.jpg","null","",NA,NA,NA,NA,""
"image-keyboard-response",172,165222,"0.0-3.53-2.53","5x11pzsynjysc0x",251,"185.csv","","null","resources/images/fishbone.png","null","",NA,NA,NA,NA,""
"image-keyboard-response",173,165558,"0.0-3.54-0.54","5x11pzsynjysc0x",251,"185.csv","","334","resources/trios/L2T4A3.jpg","39","restless",0.3,0.3,0.5,0.0360476132699787,"true"
"image-keyboard-response",174,165965,"0.0-3.54-1.54","5x11pzsynjysc0x",251,"185.csv","","null","resources/maskTrios/BBA3.jpg","null","",NA,NA,NA,NA,""
"image-keyboard-response",175,167170,"0.0-3.54-2.54","5x11pzsynjysc0x",251,"185.csv","","null","resources/images/coin2.png","null","",NA,NA,NA,NA,""
"image-keyboard-response",176,167535,"0.0-3.55-0.55","5x11pzsynjysc0x",251,"185.csv","","363","resources/trios/L4T4A3.jpg","39","restless",0.3,0.2,0.5,0.175832294167599,"true"
"image-keyboard-response",177,167939,"0.0-3.55-1.55","5x11pzsynjysc0x",251,"185.csv","","null","resources/maskTrios/BBA3.jpg","null","",NA,NA,NA,NA,""
"image-keyboard-response",178,169147,"0.0-3.55-2.55","5x11pzsynjysc0x",251,"185.csv","","null","resources/images/coin2.png","null","",NA,NA,NA,NA,""
"image-keyboard-response",179,170368,"0.0-3.56-0.56","5x11pzsynjysc0x",251,"185.csv","","1219.7000000476837","resources/trios/L4T4A1.jpg","37","restless",0.3,0.2,0.5,0.643004142757209,"false"
"image-keyboard-response",180,170775,"0.0-3.56-1.56","5x11pzsynjysc0x",251,"185.csv","","null","resources/maskTrios/L4BB.jpg","null","",NA,NA,NA,NA,""
"image-keyboard-response",181,171983,"0.0-3.56-2.56","5x11pzsynjysc0x",251,"185.csv","","null","resources/images/fishbone.png","null","",NA,NA,NA,NA,""
"image-keyboard-response",182,173033,"0.0-3.57-0.57","5x11pzsynjysc0x",251,"185.csv","","1047.8999999761581","resources/trios/L4T4A3.jpg","38","restless",0.3,0.3,0.5,0.472822282690198,"false"
"image-keyboard-response",183,173435,"0.0-3.57-1.57","5x11pzsynjysc0x",251,"185.csv","","null","resources/maskTrios/BT4B.jpg","null","",NA,NA,NA,NA,""
"image-keyboard-response",184,174645,"0.0-3.57-2.57","5x11pzsynjysc0x",251,"185.csv","","null","resources/images/fishbone.png","null","",NA,NA,NA,NA,""
"image-keyboard-response",185,175027,"0.0-3.58-0.58","5x11pzsynjysc0x",251,"185.csv","","381.30000001192093","resources/trios/L4T1A3.jpg","39","restless",0.4,0.3,0.5,0.140262844736701,"true"
"image-keyboard-response",186,175439,"0.0-3.58-1.58","5x11pzsynjysc0x",251,"185.csv","","null","resources/maskTrios/BBA3.jpg","null","",NA,NA,NA,NA,""
"image-keyboard-response",187,176647,"0.0-3.58-2.58","5x11pzsynjysc0x",251,"185.csv","","null","resources/images/coin2.png","null","",NA,NA,NA,NA,""
"image-keyboard-response",188,177374,"0.0-3.59-0.59","5x11pzsynjysc0x",251,"185.csv","","725.6999999880791","resources/trios/L2T1A3.jpg","37","restless",0.4,0.3,0.5,0.128075221034293,"true"
"image-keyboard-response",189,177779,"0.0-3.59-1.59","5x11pzsynjysc0x",251,"185.csv","","null","resources/maskTrios/L2BB.jpg","null","",NA,NA,NA,NA,""
"image-keyboard-response",190,178989,"0.0-3.59-2.59","5x11pzsynjysc0x",251,"185.csv","","null","resources/images/coin2.png","null","",NA,NA,NA,NA,""
"image-keyboard-response",191,179834,"0.0-3.60-0.60","5x11pzsynjysc0x",251,"185.csv","","843.5999999642372","resources/trios/L4T1A3.jpg","39","restless",0.4,0.3,0.5,0.821227635376527,"false"
"image-keyboard-response",192,180247,"0.0-3.60-1.60","5x11pzsynjysc0x",251,"185.csv","","null","resources/maskTrios/BBA3.jpg","null","",NA,NA,NA,NA,""
"image-keyboard-response",193,181451,"0.0-3.60-2.60","5x11pzsynjysc0x",251,"185.csv","","null","resources/images/fishbone.png","null","",NA,NA,NA,NA,""
"image-keyboard-response",194,182546,"0.0-3.61-0.61","5x11pzsynjysc0x",251,"185.csv","","1093.5","resources/trios/L4T4A3.jpg","39","restless",0.4,0.3,0.5,0.889935632450836,"false"
"image-keyboard-response",195,182955,"0.0-3.61-1.61","5x11pzsynjysc0x",251,"185.csv","","null","resources/maskTrios/BBA3.jpg","null","",NA,NA,NA,NA,""
"image-keyboard-response",196,184163,"0.0-3.61-2.61","5x11pzsynjysc0x",251,"185.csv","","null","resources/images/fishbone.png","null","",NA,NA,NA,NA,""
"image-keyboard-response",197,185439,"0.0-3.62-0.62","5x11pzsynjysc0x",251,"185.csv","","1275.300000011921","resources/trios/L4T4A3.jpg","38","restless",0.3,0.3,0.5,0.517094906793582,"false"
"image-keyboard-response",198,185847,"0.0-3.62-1.62","5x11pzsynjysc0x",251,"185.csv","","null","resources/maskTrios/BT4B.jpg","null","",NA,NA,NA,NA,""
"image-keyboard-response",199,187051,"0.0-3.62-2.62","5x11pzsynjysc0x",251,"185.csv","","null","resources/images/fishbone.png","null","",NA,NA,NA,NA,""
"image-keyboard-response",200,188598,"0.0-3.63-0.63","5x11pzsynjysc0x",251,"185.csv","","1544.800000011921","resources/trios/L4T1A1.jpg","39","restless",0.4,0.3,0.5,0.507186936136625,"false"
"image-keyboard-response",201,189004,"0.0-3.63-1.63","5x11pzsynjysc0x",251,"185.csv","","null","resources/maskTrios/BBA1.jpg","null","",NA,NA,NA,NA,""
"image-keyboard-response",202,190214,"0.0-3.63-2.63","5x11pzsynjysc0x",251,"185.csv","","null","resources/images/fishbone.png","null","",NA,NA,NA,NA,""
"image-keyboard-response",203,190495,"0.0-3.64-0.64","5x11pzsynjysc0x",251,"185.csv","","279.0999999642372","resources/trios/L2T4A1.jpg","37","restless",0.4,0.3,0.5,0.442357460372506,"false"
"image-keyboard-response",204,190899,"0.0-3.64-1.64","5x11pzsynjysc0x",251,"185.csv","","null","resources/maskTrios/L2BB.jpg","null","",NA,NA,NA,NA,""
"image-keyboard-response",205,192111,"0.0-3.64-2.64","5x11pzsynjysc0x",251,"185.csv","","null","resources/images/fishbone.png","null","",NA,NA,NA,NA,""
"image-keyboard-response",206,193183,"0.0-3.65-0.65","5x11pzsynjysc0x",251,"185.csv","","1070.3999999761581","resources/trios/L4T1A1.jpg","38","restless",0.4,0.3,0.6,0.461151180276285,"false"
"image-keyboard-response",207,193587,"0.0-3.65-1.65","5x11pzsynjysc0x",251,"185.csv","","null","resources/maskTrios/BT1B.jpg","null","",NA,NA,NA,NA,""
"image-keyboard-response",208,194799,"0.0-3.65-2.65","5x11pzsynjysc0x",251,"185.csv","","null","resources/images/fishbone.png","null","",NA,NA,NA,NA,""
"image-keyboard-response",209,195016,"0.0-3.66-0.66","5x11pzsynjysc0x",251,"185.csv","","215","resources/trios/L2T1A3.jpg","39","restless",0.4,0.3,0.6,0.166689102631012,"true"
"image-keyboard-response",210,195421,"0.0-3.66-1.66","5x11pzsynjysc0x",251,"185.csv","","null","resources/maskTrios/BBA3.jpg","null","",NA,NA,NA,NA,""
"image-keyboard-response",211,196631,"0.0-3.66-2.66","5x11pzsynjysc0x",251,"185.csv","","null","resources/images/coin2.png","null","",NA,NA,NA,NA,""
"image-keyboard-response",212,197151,"0.0-3.67-0.67","5x11pzsynjysc0x",251,"185.csv","","517.7999999523163","resources/trios/L4T4A1.jpg","39","restless",0.4,0.3,0.6,0.109358801409013,"true"
"image-keyboard-response",213,197556,"0.0-3.67-1.67","5x11pzsynjysc0x",251,"185.csv","","null","resources/maskTrios/BBA1.jpg","null","",NA,NA,NA,NA,""
"image-keyboard-response",214,198768,"0.0-3.67-2.67","5x11pzsynjysc0x",251,"185.csv","","null","resources/images/coin2.png","null","",NA,NA,NA,NA,""
"image-keyboard-response",215,199816,"0.0-3.68-0.68","5x11pzsynjysc0x",251,"185.csv","","1046.8999999761581","resources/trios/L2T4A3.jpg","37","restless",0.4,0.3,0.6,0.445542206014361,"false"
"image-keyboard-response",216,200221,"0.0-3.68-1.68","5x11pzsynjysc0x",251,"185.csv","","null","resources/maskTrios/L2BB.jpg","null","",NA,NA,NA,NA,""
"image-keyboard-response",217,201428,"0.0-3.68-2.68","5x11pzsynjysc0x",251,"185.csv","","null","resources/images/fishbone.png","null","",NA,NA,NA,NA,""
"image-keyboard-response",218,201967,"0.0-3.69-0.69","5x11pzsynjysc0x",251,"185.csv","","537.5","resources/trios/L2T4A1.jpg","37","restless",0.4,0.3,0.6,0.409145920192989,"false"
"image-keyboard-response",219,202375,"0.0-3.69-1.69","5x11pzsynjysc0x",251,"185.csv","","null","resources/maskTrios/L2BB.jpg","null","",NA,NA,NA,NA,""
"image-keyboard-response",220,203581,"0.0-3.69-2.69","5x11pzsynjysc0x",251,"185.csv","","null","resources/images/fishbone.png","null","",NA,NA,NA,NA,""
"image-keyboard-response",221,203907,"0.0-3.70-0.70","5x11pzsynjysc0x",251,"185.csv","","323.60000002384186","resources/trios/L4T4A1.jpg","39","restless",0.4,0.3,0.6,0.995245056314692,"false"
"image-keyboard-response",222,204315,"0.0-3.70-1.70","5x11pzsynjysc0x",251,"185.csv","","null","resources/maskTrios/BBA1.jpg","null","",NA,NA,NA,NA,""
"image-keyboard-response",223,205523,"0.0-3.70-2.70","5x11pzsynjysc0x",251,"185.csv","","null","resources/images/fishbone.png","null","",NA,NA,NA,NA,""
"image-keyboard-response",224,206373,"0.0-3.71-0.71","5x11pzsynjysc0x",251,"185.csv","","848.2000000476837","resources/trios/L4T1A3.jpg","39","restless",0.4,0.3,0.6,0.275204773087335,"true"
"image-keyboard-response",225,206784,"0.0-3.71-1.71","5x11pzsynjysc0x",251,"185.csv","","null","resources/maskTrios/BBA3.jpg","null","",NA,NA,NA,NA,""
"image-keyboard-response",226,207990,"0.0-3.71-2.71","5x11pzsynjysc0x",251,"185.csv","","null","resources/images/coin2.png","null","",NA,NA,NA,NA,""
"image-keyboard-response",227,208987,"0.0-3.72-0.72","5x11pzsynjysc0x",251,"185.csv","","995.5","resources/trios/L4T4A1.jpg","37","restless",0.4,0.3,0.6,0.807762105416045,"false"
"image-keyboard-response",228,209392,"0.0-3.72-1.72","5x11pzsynjysc0x",251,"185.csv","","null","resources/maskTrios/L4BB.jpg","null","",NA,NA,NA,NA,""
"image-keyboard-response",229,210598,"0.0-3.72-2.72","5x11pzsynjysc0x",251,"185.csv","","null","resources/images/fishbone.png","null","",NA,NA,NA,NA,""
"image-keyboard-response",230,211609,"0.0-3.73-0.73","5x11pzsynjysc0x",251,"185.csv","","1009.5999999642372","resources/trios/L4T1A3.jpg","39","restless",0.4,0.3,0.6,0.97777538822465,"false"
"image-keyboard-response",231,212012,"0.0-3.73-1.73","5x11pzsynjysc0x",251,"185.csv","","null","resources/maskTrios/BBA3.jpg","null","",NA,NA,NA,NA,""
"image-keyboard-response",232,213224,"0.0-3.73-2.73","5x11pzsynjysc0x",251,"185.csv","","null","resources/images/fishbone.png","null","",NA,NA,NA,NA,""
"image-keyboard-response",233,213633,"0.0-3.74-0.74","5x11pzsynjysc0x",251,"185.csv","","408.0999999642372","resources/trios/L2T4A1.jpg","38","restless",0.4,0.4,0.6,0.164539870689081,"true"
"image-keyboard-response",234,214035,"0.0-3.74-1.74","5x11pzsynjysc0x",251,"185.csv","","null","resources/maskTrios/BT4B.jpg","null","",NA,NA,NA,NA,""
"image-keyboard-response",235,215248,"0.0-3.74-2.74","5x11pzsynjysc0x",251,"185.csv","","null","resources/images/coin2.png","null","",NA,NA,NA,NA,""
"image-keyboard-response",236,217177,"0.0-3.75-0.75","5x11pzsynjysc0x",251,"185.csv","","1928","resources/trios/L2T1A1.jpg","39","restless",0.4,0.4,0.6,0.303821625060282,"true"
"image-keyboard-response",237,217584,"0.0-3.75-1.75","5x11pzsynjysc0x",251,"185.csv","","null","resources/maskTrios/BBA1.jpg","null","",NA,NA,NA,NA,""
"image-keyboard-response",238,218792,"0.0-3.75-2.75","5x11pzsynjysc0x",251,"185.csv","","null","resources/images/coin2.png","null","",NA,NA,NA,NA,""
"image-keyboard-response",239,220545,"0.0-3.76-0.76","5x11pzsynjysc0x",251,"185.csv","","1751.800000011921","resources/trios/L2T1A3.jpg","37","restless",0.4,0.3,0.6,0.170379130091849,"true"
"image-keyboard-response",240,220947,"0.0-3.76-1.76","5x11pzsynjysc0x",251,"185.csv","","null","resources/maskTrios/L2BB.jpg","null","",NA,NA,NA,NA,""
"image-keyboard-response",241,222157,"0.0-3.76-2.76","5x11pzsynjysc0x",251,"185.csv","","null","resources/images/coin2.png","null","",NA,NA,NA,NA,""
"image-keyboard-response",242,224024,"0.0-3.77-0.77","5x11pzsynjysc0x",251,"185.csv","","1865.4000000357628","resources/trios/L2T1A1.jpg","38","restless",0.4,0.3,0.6,0.482449373548388,"false"
"image-keyboard-response",243,224427,"0.0-3.77-1.77","5x11pzsynjysc0x",251,"185.csv","","null","resources/maskTrios/BT1B.jpg","null","",NA,NA,NA,NA,""
"image-keyboard-response",244,225640,"0.0-3.77-2.77","5x11pzsynjysc0x",251,"185.csv","","null","resources/images/fishbone.png","null","",NA,NA,NA,NA,""
"image-keyboard-response",245,226405,"0.0-3.78-0.78","5x11pzsynjysc0x",251,"185.csv","","763.4000000357628","resources/trios/L2T1A3.jpg","37","restless",0.5,0.3,0.6,0.652068022938628,"false"
"image-keyboard-response",246,226811,"0.0-3.78-1.78","5x11pzsynjysc0x",251,"185.csv","","null","resources/maskTrios/L2BB.jpg","null","",NA,NA,NA,NA,""
"image-keyboard-response",247,228024,"0.0-3.78-2.78","5x11pzsynjysc0x",251,"185.csv","","null","resources/images/fishbone.png","null","",NA,NA,NA,NA,""
"image-keyboard-response",248,228789,"0.0-3.79-0.79","5x11pzsynjysc0x",251,"185.csv","","763.6999999880791","resources/trios/L2T4A1.jpg","39","restless",0.5,0.3,0.5,0.261030590832595,"true"
"image-keyboard-response",249,229200,"0.0-3.79-1.79","5x11pzsynjysc0x",251,"185.csv","","null","resources/maskTrios/BBA1.jpg","null","",NA,NA,NA,NA,""
"image-keyboard-response",250,230404,"0.0-3.79-2.79","5x11pzsynjysc0x",251,"185.csv","","null","resources/images/coin2.png","null","",NA,NA,NA,NA,""
"image-keyboard-response",251,231466,"0.0-3.80-0.80","5x11pzsynjysc0x",251,"185.csv","","1061.1000000238419","resources/trios/L2T1A3.jpg","37","restless",0.5,0.3,0.5,0.461034650910356,"true"
"image-keyboard-response",252,231877,"0.0-3.80-1.80","5x11pzsynjysc0x",251,"185.csv","","null","resources/maskTrios/L2BB.jpg","null","",NA,NA,NA,NA,""
"image-keyboard-response",253,233086,"0.0-3.80-2.80","5x11pzsynjysc0x",251,"185.csv","","null","resources/images/coin2.png","null","",NA,NA,NA,NA,""
"image-keyboard-response",254,234461,"0.0-3.81-0.81","5x11pzsynjysc0x",251,"185.csv","","1373.699999988079","resources/trios/L2T1A3.jpg","37","restless",0.5,0.3,0.5,0.155665467218947,"true"
"image-keyboard-response",255,234869,"0.0-3.81-1.81","5x11pzsynjysc0x",251,"185.csv","","null","resources/maskTrios/L2BB.jpg","null","",NA,NA,NA,NA,""
"image-keyboard-response",256,236077,"0.0-3.81-2.81","5x11pzsynjysc0x",251,"185.csv","","null","resources/images/coin2.png","null","",NA,NA,NA,NA,""
"image-keyboard-response",257,238033,"0.0-3.82-0.82","5x11pzsynjysc0x",251,"185.csv","","1954.5","resources/trios/L4T1A1.jpg","39","restless",0.5,0.3,0.5,0.923031774826518,"false"
"image-keyboard-response",258,238439,"0.0-3.82-1.82","5x11pzsynjysc0x",251,"185.csv","","null","resources/maskTrios/BBA1.jpg","null","",NA,NA,NA,NA,""
"image-keyboard-response",259,239648,"0.0-3.82-2.82","5x11pzsynjysc0x",251,"185.csv","","null","resources/images/fishbone.png","null","",NA,NA,NA,NA,""
"image-keyboard-response",260,240452,"0.0-3.83-0.83","5x11pzsynjysc0x",251,"185.csv","","802.5","resources/trios/L4T4A3.jpg","39","restless",0.5,0.3,0.5,0.211103540935468,"true"
"image-keyboard-response",261,240863,"0.0-3.83-1.83","5x11pzsynjysc0x",251,"185.csv","","null","resources/maskTrios/BBA3.jpg","null","",NA,NA,NA,NA,""
"image-keyboard-response",262,242072,"0.0-3.83-2.83","5x11pzsynjysc0x",251,"185.csv","","null","resources/images/coin2.png","null","",NA,NA,NA,NA,""
"image-keyboard-response",263,243575,"0.0-3.84-0.84","5x11pzsynjysc0x",251,"185.csv","","1501.5","resources/trios/L4T1A1.jpg","39","restless",0.5,0.3,0.5,0.18777789979901,"true"
"image-keyboard-response",264,243983,"0.0-3.84-1.84","5x11pzsynjysc0x",251,"185.csv","","null","resources/maskTrios/BBA1.jpg","null","",NA,NA,NA,NA,""
"image-keyboard-response",265,245192,"0.0-3.84-2.84","5x11pzsynjysc0x",251,"185.csv","","null","resources/images/coin2.png","null","",NA,NA,NA,NA,""
"image-keyboard-response",266,248178,"0.0-3.85-0.85","5x11pzsynjysc0x",251,"185.csv","","2985.100000023842","resources/trios/L4T4A3.jpg","38","restless",0.5,0.3,0.5,0.12474705875004,"true"
"image-keyboard-response",267,248592,"0.0-3.85-1.85","5x11pzsynjysc0x",251,"185.csv","","null","resources/maskTrios/BT4B.jpg","null","",NA,NA,NA,NA,""
"image-keyboard-response",268,249796,"0.0-3.85-2.85","5x11pzsynjysc0x",251,"185.csv","","null","resources/images/coin2.png","null","",NA,NA,NA,NA,""
"image-keyboard-response",269,251428,"0.0-3.86-0.86","5x11pzsynjysc0x",251,"185.csv","","1630.3999999761581","resources/trios/L4T1A3.jpg","39","restless",0.5,0.2,0.5,0.0256445797007441,"true"
"image-keyboard-response",270,251835,"0.0-3.86-1.86","5x11pzsynjysc0x",251,"185.csv","","null","resources/maskTrios/BBA3.jpg","null","",NA,NA,NA,NA,""
"image-keyboard-response",271,253045,"0.0-3.86-2.86","5x11pzsynjysc0x",251,"185.csv","","null","resources/images/coin2.png","null","",NA,NA,NA,NA,""
"image-keyboard-response",272,254691,"0.0-3.87-0.87","5x11pzsynjysc0x",251,"185.csv","","1644.8999999761581","resources/trios/L2T1A3.jpg","37","restless",0.5,0.2,0.5,0.079331976556327,"true"
"image-keyboard-response",273,255100,"0.0-3.87-1.87","5x11pzsynjysc0x",251,"185.csv","","null","resources/maskTrios/L2BB.jpg","null","",NA,NA,NA,NA,""
"image-keyboard-response",274,256308,"0.0-3.87-2.87","5x11pzsynjysc0x",251,"185.csv","","null","resources/images/coin2.png","null","",NA,NA,NA,NA,""
"image-keyboard-response",275,256723,"0.0-3.88-0.88","5x11pzsynjysc0x",251,"185.csv","","413.2999999523163","resources/trios/L2T4A3.jpg","37","restless",0.5,0.2,0.5,0.846084398901455,"false"
"image-keyboard-response",276,257134,"0.0-3.88-1.88","5x11pzsynjysc0x",251,"185.csv","","null","resources/maskTrios/L2BB.jpg","null","",NA,NA,NA,NA,""
"image-keyboard-response",277,258344,"0.0-3.88-2.88","5x11pzsynjysc0x",251,"185.csv","","null","resources/images/fishbone.png","null","",NA,NA,NA,NA,""
"image-keyboard-response",278,260224,"0.0-3.89-0.89","5x11pzsynjysc0x",251,"185.csv","","1878.699999988079","resources/trios/L2T1A1.jpg","39","restless",0.5,0.2,0.4,0.784415112765811,"false"
"image-keyboard-response",279,260629,"0.0-3.89-1.89","5x11pzsynjysc0x",251,"185.csv","","null","resources/maskTrios/BBA1.jpg","null","",NA,NA,NA,NA,""
"image-keyboard-response",280,261840,"0.0-3.89-2.89","5x11pzsynjysc0x",251,"185.csv","","null","resources/images/fishbone.png","null","",NA,NA,NA,NA,""
"image-keyboard-response",281,262379,"0.0-3.90-0.90","5x11pzsynjysc0x",251,"185.csv","","537.5999999642372","resources/trios/L4T1A3.jpg","38","restless",0.5,0.2,0.4,0.608889236777864,"false"
"image-keyboard-response",282,262788,"0.0-3.90-1.90","5x11pzsynjysc0x",251,"185.csv","","null","resources/maskTrios/BT1B.jpg","null","",NA,NA,NA,NA,""
"image-keyboard-response",283,264000,"0.0-3.90-2.90","5x11pzsynjysc0x",251,"185.csv","","null","resources/images/fishbone.png","null","",NA,NA,NA,NA,""
"image-keyboard-response",284,265039,"0.0-3.91-0.91","5x11pzsynjysc0x",251,"185.csv","","1037.300000011921","resources/trios/L4T1A3.jpg","39","restless",0.6,0.2,0.4,0.664261744351848,"false"
"image-keyboard-response",285,265448,"0.0-3.91-1.91","5x11pzsynjysc0x",251,"185.csv","","null","resources/maskTrios/BBA3.jpg","null","",NA,NA,NA,NA,""
"image-keyboard-response",286,266651,"0.0-3.91-2.91","5x11pzsynjysc0x",251,"185.csv","","null","resources/images/fishbone.png","null","",NA,NA,NA,NA,""
"image-keyboard-response",287,267056,"0.0-3.92-0.92","5x11pzsynjysc0x",251,"185.csv","","403.4000000357628","resources/trios/L4T1A1.jpg","38","restless",0.6,0.2,0.4,0.113020152856358,"true"
"image-keyboard-response",288,267460,"0.0-3.92-1.92","5x11pzsynjysc0x",251,"185.csv","","null","resources/maskTrios/BT1B.jpg","null","",NA,NA,NA,NA,""
"image-keyboard-response",289,268667,"0.0-3.92-2.92","5x11pzsynjysc0x",251,"185.csv","","null","resources/images/coin2.png","null","",NA,NA,NA,NA,""
"image-keyboard-response",290,270228,"0.0-3.93-0.93","5x11pzsynjysc0x",251,"185.csv","","1560.5","resources/trios/L4T4A3.jpg","38","restless",0.6,0.2,0.4,0.283573785630582,"false"
"image-keyboard-response",291,270636,"0.0-3.93-1.93","5x11pzsynjysc0x",251,"185.csv","","null","resources/maskTrios/BT4B.jpg","null","",NA,NA,NA,NA,""
"image-keyboard-response",292,271844,"0.0-3.93-2.93","5x11pzsynjysc0x",251,"185.csv","","null","resources/images/fishbone.png","null","",NA,NA,NA,NA,""
"image-keyboard-response",293,273198,"0.0-3.94-0.94","5x11pzsynjysc0x",251,"185.csv","","1352.199999988079","resources/trios/L2T1A1.jpg","37","restless",0.6,0.2,0.4,0.772485659058783,"false"
"image-keyboard-response",294,273608,"0.0-3.94-1.94","5x11pzsynjysc0x",251,"185.csv","","null","resources/maskTrios/L2BB.jpg","null","",NA,NA,NA,NA,""
"image-keyboard-response",295,274811,"0.0-3.94-2.94","5x11pzsynjysc0x",251,"185.csv","","null","resources/images/fishbone.png","null","",NA,NA,NA,NA,""
"image-keyboard-response",296,275532,"0.0-3.95-0.95","5x11pzsynjysc0x",251,"185.csv","","719.6999999880791","resources/trios/L2T1A1.jpg","39","restless",0.6,0.2,0.4,0.54974885678074,"false"
"image-keyboard-response",297,275944,"0.0-3.95-1.95","5x11pzsynjysc0x",251,"185.csv","","null","resources/maskTrios/BBA1.jpg","null","",NA,NA,NA,NA,""
"image-keyboard-response",298,277148,"0.0-3.95-2.95","5x11pzsynjysc0x",251,"185.csv","","null","resources/images/fishbone.png","null","",NA,NA,NA,NA,""
"image-keyboard-response",299,278576,"0.0-3.96-0.96","5x11pzsynjysc0x",251,"185.csv","","1426.5","resources/trios/L4T4A3.jpg","39","restless",0.6,0.2,0.5,0.516037586720131,"false"
"image-keyboard-response",300,278984,"0.0-3.96-1.96","5x11pzsynjysc0x",251,"185.csv","","null","resources/maskTrios/BBA3.jpg","null","",NA,NA,NA,NA,""
"image-keyboard-response",301,280192,"0.0-3.96-2.96","5x11pzsynjysc0x",251,"185.csv","","null","resources/images/fishbone.png","null","",NA,NA,NA,NA,""
"image-keyboard-response",302,280790,"0.0-3.97-0.97","5x11pzsynjysc0x",251,"185.csv","","596.6999999880791","resources/trios/L2T4A1.jpg","37","restless",0.6,0.1,0.5,0.0429997639604616,"true"
"image-keyboard-response",303,281197,"0.0-3.97-1.97","5x11pzsynjysc0x",251,"185.csv","","null","resources/maskTrios/L2BB.jpg","null","",NA,NA,NA,NA,""
"image-keyboard-response",304,282408,"0.0-3.97-2.97","5x11pzsynjysc0x",251,"185.csv","","null","resources/images/coin2.png","null","",NA,NA,NA,NA,""
"image-keyboard-response",305,283382,"0.0-3.98-0.98","5x11pzsynjysc0x",251,"185.csv","","972.7999999523163","resources/trios/L4T4A3.jpg","39","restless",0.6,0.1,0.5,0.846362805420942,"false"
"image-keyboard-response",306,283792,"0.0-3.98-1.98","5x11pzsynjysc0x",251,"185.csv","","null","resources/maskTrios/BBA3.jpg","null","",NA,NA,NA,NA,""
"image-keyboard-response",307,284999,"0.0-3.98-2.98","5x11pzsynjysc0x",251,"185.csv","","null","resources/images/fishbone.png","null","",NA,NA,NA,NA,""
"image-keyboard-response",308,285400,"0.0-3.99-0.99","5x11pzsynjysc0x",251,"185.csv","","399.7000000476837","resources/trios/L2T4A1.jpg","38","restless",0.6,0.1,0.5,0.386802678616912,"false"
"image-keyboard-response",309,285808,"0.0-3.99-1.99","5x11pzsynjysc0x",251,"185.csv","","null","resources/maskTrios/BT4B.jpg","null","",NA,NA,NA,NA,""
"image-keyboard-response",310,287013,"0.0-3.99-2.99","5x11pzsynjysc0x",251,"185.csv","","null","resources/images/fishbone.png","null","",NA,NA,NA,NA,""
"image-keyboard-response",311,287459,"0.0-3.100-0.100","5x11pzsynjysc0x",251,"185.csv","","444.5","resources/trios/L2T1A1.jpg","37","restless",0.6,0.2,0.5,0.0343522440049646,"true"
"image-keyboard-response",312,287864,"0.0-3.100-1.100","5x11pzsynjysc0x",251,"185.csv","","null","resources/maskTrios/L2BB.jpg","null","",NA,NA,NA,NA,""
"image-keyboard-response",313,289071,"0.0-3.100-2.100","5x11pzsynjysc0x",251,"185.csv","","null","resources/images/coin2.png","null","",NA,NA,NA,NA,""
"image-keyboard-response",314,289718,"0.0-3.101-0.101","5x11pzsynjysc0x",251,"185.csv","","644.6999999880791","resources/trios/L4T4A3.jpg","37","restless",0.6,0.2,0.5,0.0547552158576861,"true"
"image-keyboard-response",315,290120,"0.0-3.101-1.101","5x11pzsynjysc0x",251,"185.csv","","null","resources/maskTrios/L4BB.jpg","null","",NA,NA,NA,NA,""
"image-keyboard-response",316,291323,"0.0-3.101-2.101","5x11pzsynjysc0x",251,"185.csv","","null","resources/images/coin2.png","null","",NA,NA,NA,NA,""
"image-keyboard-response",317,292484,"0.0-3.102-0.102","5x11pzsynjysc0x",251,"185.csv","","1159","resources/trios/L4T4A1.jpg","39","restless",0.6,0.2,0.5,0.996648166208499,"false"
"image-keyboard-response",318,292892,"0.0-3.102-1.102","5x11pzsynjysc0x",251,"185.csv","","null","resources/maskTrios/BBA1.jpg","null","",NA,NA,NA,NA,""
"image-keyboard-response",319,294104,"0.0-3.102-2.102","5x11pzsynjysc0x",251,"185.csv","","null","resources/images/fishbone.png","null","",NA,NA,NA,NA,""
"image-keyboard-response",320,294861,"0.0-3.103-0.103","5x11pzsynjysc0x",251,"185.csv","","755.5","resources/trios/L4T4A1.jpg","39","restless",0.6,0.2,0.5,0.505883847156432,"false"
"image-keyboard-response",321,295271,"0.0-3.103-1.103","5x11pzsynjysc0x",251,"185.csv","","null","resources/maskTrios/BBA1.jpg","null","",NA,NA,NA,NA,""
"image-keyboard-response",322,296480,"0.0-3.103-2.103","5x11pzsynjysc0x",251,"185.csv","","null","resources/images/fishbone.png","null","",NA,NA,NA,NA,""
"image-keyboard-response",323,296893,"0.0-3.104-0.104","5x11pzsynjysc0x",251,"185.csv","","412.10000002384186","resources/trios/L4T1A1.jpg","37","restless",0.6,0.2,0.5,0.777306700814994,"false"
"image-keyboard-response",324,297304,"0.0-3.104-1.104","5x11pzsynjysc0x",251,"185.csv","","null","resources/maskTrios/L4BB.jpg","null","",NA,NA,NA,NA,""
"image-keyboard-response",325,298508,"0.0-3.104-2.104","5x11pzsynjysc0x",251,"185.csv","","null","resources/images/fishbone.png","null","",NA,NA,NA,NA,""
"image-keyboard-response",326,299169,"0.0-3.105-0.105","5x11pzsynjysc0x",251,"185.csv","","659.1999999880791","resources/trios/L4T4A1.jpg","38","restless",0.6,0.2,0.4,0.0111949391527697,"true"
"image-keyboard-response",327,299576,"0.0-3.105-1.105","5x11pzsynjysc0x",251,"185.csv","","null","resources/maskTrios/BT4B.jpg","null","",NA,NA,NA,NA,""
"image-keyboard-response",328,300783,"0.0-3.105-2.105","5x11pzsynjysc0x",251,"185.csv","","null","resources/images/coin2.png","null","",NA,NA,NA,NA,""
"image-keyboard-response",329,301446,"0.0-3.106-0.106","5x11pzsynjysc0x",251,"185.csv","","661.6000000238419","resources/trios/L4T1A3.jpg","38","restless",0.6,0.2,0.5,0.15797679333282,"true"
"image-keyboard-response",330,301855,"0.0-3.106-1.106","5x11pzsynjysc0x",251,"185.csv","","null","resources/maskTrios/BT1B.jpg","null","",NA,NA,NA,NA,""
"image-keyboard-response",331,303063,"0.0-3.106-2.106","5x11pzsynjysc0x",251,"185.csv","","null","resources/images/coin2.png","null","",NA,NA,NA,NA,""
"image-keyboard-response",332,303537,"0.0-3.107-0.107","5x11pzsynjysc0x",251,"185.csv","","473.5","resources/trios/L2T4A3.jpg","38","restless",0.6,0.1,0.5,0.00317534013482823,"true"
"image-keyboard-response",333,303944,"0.0-3.107-1.107","5x11pzsynjysc0x",251,"185.csv","","null","resources/maskTrios/BT4B.jpg","null","",NA,NA,NA,NA,""
"image-keyboard-response",334,305152,"0.0-3.107-2.107","5x11pzsynjysc0x",251,"185.csv","","null","resources/images/coin2.png","null","",NA,NA,NA,NA,""
"image-keyboard-response",335,306382,"0.0-3.108-0.108","5x11pzsynjysc0x",251,"185.csv","","1227.8999999761581","resources/trios/L2T1A3.jpg","37","restless",0.6,0.1,0.5,0.746193581809074,"false"
"image-keyboard-response",336,306791,"0.0-3.108-1.108","5x11pzsynjysc0x",251,"185.csv","","null","resources/maskTrios/L2BB.jpg","null","",NA,NA,NA,NA,""
"image-keyboard-response",337,308000,"0.0-3.108-2.108","5x11pzsynjysc0x",251,"185.csv","","null","resources/images/fishbone.png","null","",NA,NA,NA,NA,""
"image-keyboard-response",338,308841,"0.0-3.109-0.109","5x11pzsynjysc0x",251,"185.csv","","839.1999999880791","resources/trios/L4T1A3.jpg","37","restless",0.6,0.1,0.5,0.223680237476526,"true"
"image-keyboard-response",339,309248,"0.0-3.109-1.109","5x11pzsynjysc0x",251,"185.csv","","null","resources/maskTrios/L4BB.jpg","null","",NA,NA,NA,NA,""
"image-keyboard-response",340,310456,"0.0-3.109-2.109","5x11pzsynjysc0x",251,"185.csv","","null","resources/images/coin2.png","null","",NA,NA,NA,NA,""
"image-keyboard-response",341,311519,"0.0-3.110-0.110","5x11pzsynjysc0x",251,"185.csv","","1061.199999988079","resources/trios/L2T1A3.jpg","39","restless",0.6,0.1,0.4,0.657014295372943,"false"
"image-keyboard-response",342,311925,"0.0-3.110-1.110","5x11pzsynjysc0x",251,"185.csv","","null","resources/maskTrios/BBA3.jpg","null","",NA,NA,NA,NA,""
"image-keyboard-response",343,313136,"0.0-3.110-2.110","5x11pzsynjysc0x",251,"185.csv","","null","resources/images/fishbone.png","null","",NA,NA,NA,NA,""
"image-keyboard-response",344,314912,"0.0-3.111-0.111","5x11pzsynjysc0x",251,"185.csv","","1773.8999999761581","resources/trios/L2T1A1.jpg","38","restless",0.7,0.1,0.4,0.85950428934906,"false"
"image-keyboard-response",345,315318,"0.0-3.111-1.111","5x11pzsynjysc0x",251,"185.csv","","null","resources/maskTrios/BT1B.jpg","null","",NA,NA,NA,NA,""
"image-keyboard-response",346,316527,"0.0-3.111-2.111","5x11pzsynjysc0x",251,"185.csv","","null","resources/images/fishbone.png","null","",NA,NA,NA,NA,""
"image-keyboard-response",347,317316,"0.0-3.112-0.112","5x11pzsynjysc0x",251,"185.csv","","788","resources/trios/L4T1A1.jpg","37","restless",0.8,0.1,0.4,0.731678016350685,"true"
"image-keyboard-response",348,317727,"0.0-3.112-1.112","5x11pzsynjysc0x",251,"185.csv","","null","resources/maskTrios/L4BB.jpg","null","",NA,NA,NA,NA,""
"image-keyboard-response",349,318932,"0.0-3.112-2.112","5x11pzsynjysc0x",251,"185.csv","","null","resources/images/coin2.png","null","",NA,NA,NA,NA,""
"image-keyboard-response",350,319443,"0.0-3.113-0.113","5x11pzsynjysc0x",251,"185.csv","","509.30000001192093","resources/trios/L4T4A1.jpg","37","restless",0.8,0.1,0.5,0.4468365884665,"true"
"image-keyboard-response",351,319854,"0.0-3.113-1.113","5x11pzsynjysc0x",251,"185.csv","","null","resources/maskTrios/L4BB.jpg","null","",NA,NA,NA,NA,""
"image-keyboard-response",352,321063,"0.0-3.113-2.113","5x11pzsynjysc0x",251,"185.csv","","null","resources/images/coin2.png","null","",NA,NA,NA,NA,""
"image-keyboard-response",353,322491,"0.0-3.114-0.114","5x11pzsynjysc0x",251,"185.csv","","1426.5","resources/trios/L4T1A1.jpg","39","restless",0.8,0.1,0.5,0.746907319285158,"false"
"image-keyboard-response",354,322905,"0.0-3.114-1.114","5x11pzsynjysc0x",251,"185.csv","","null","resources/maskTrios/BBA1.jpg","null","",NA,NA,NA,NA,""
"image-keyboard-response",355,324111,"0.0-3.114-2.114","5x11pzsynjysc0x",251,"185.csv","","null","resources/images/fishbone.png","null","",NA,NA,NA,NA,""
"image-keyboard-response",356,324475,"0.0-3.115-0.115","5x11pzsynjysc0x",251,"185.csv","","361.80000001192093","resources/trios/L4T4A3.jpg","37","restless",0.8,0.1,0.5,0.442592960358932,"true"
"image-keyboard-response",357,324886,"0.0-3.115-1.115","5x11pzsynjysc0x",251,"185.csv","","null","resources/maskTrios/L4BB.jpg","null","",NA,NA,NA,NA,""
"image-keyboard-response",358,326097,"0.0-3.115-2.115","5x11pzsynjysc0x",251,"185.csv","","null","resources/images/coin2.png","null","",NA,NA,NA,NA,""
"image-keyboard-response",359,326601,"0.0-3.116-0.116","5x11pzsynjysc0x",251,"185.csv","","502.5","resources/trios/L4T1A3.jpg","37","restless",0.8,0.1,0.5,0.64794020817379,"true"
"image-keyboard-response",360,327004,"0.0-3.116-1.116","5x11pzsynjysc0x",251,"185.csv","","null","resources/maskTrios/L4BB.jpg","null","",NA,NA,NA,NA,""
"image-keyboard-response",361,328217,"0.0-3.116-2.116","5x11pzsynjysc0x",251,"185.csv","","null","resources/images/coin2.png","null","",NA,NA,NA,NA,""
"image-keyboard-response",362,328818,"0.0-3.117-0.117","5x11pzsynjysc0x",251,"185.csv","","599.7999999523163","resources/trios/L4T1A1.jpg","37","restless",0.8,0.1,0.5,0.974685570904853,"false"
"image-keyboard-response",363,329222,"0.0-3.117-1.117","5x11pzsynjysc0x",251,"185.csv","","null","resources/maskTrios/L4BB.jpg","null","",NA,NA,NA,NA,""
"image-keyboard-response",364,330428,"0.0-3.117-2.117","5x11pzsynjysc0x",251,"185.csv","","null","resources/images/fishbone.png","null","",NA,NA,NA,NA,""
"image-keyboard-response",365,330970,"0.0-3.118-0.118","5x11pzsynjysc0x",251,"185.csv","","541.1000000238419","resources/trios/L2T1A3.jpg","39","restless",0.9,0.1,0.5,0.214390408550413,"true"
"image-keyboard-response",366,331381,"0.0-3.118-1.118","5x11pzsynjysc0x",251,"185.csv","","null","resources/maskTrios/BBA3.jpg","null","",NA,NA,NA,NA,""
"image-keyboard-response",367,332589,"0.0-3.118-2.118","5x11pzsynjysc0x",251,"185.csv","","null","resources/images/coin2.png","null","",NA,NA,NA,NA,""
"image-keyboard-response",368,332961,"0.0-3.119-0.119","5x11pzsynjysc0x",251,"185.csv","","371.2999999523163","resources/trios/L4T4A3.jpg","39","restless",0.9,0.1,0.5,0.741064848866335,"false"
"image-keyboard-response",369,333369,"0.0-3.119-1.119","5x11pzsynjysc0x",251,"185.csv","","null","resources/maskTrios/BBA3.jpg","null","",NA,NA,NA,NA,""
"image-keyboard-response",370,334573,"0.0-3.119-2.119","5x11pzsynjysc0x",251,"185.csv","","null","resources/images/fishbone.png","null","",NA,NA,NA,NA,""
"image-keyboard-response",371,334960,"0.0-3.120-0.120","5x11pzsynjysc0x",251,"185.csv","","385.69999998807907","resources/trios/L2T1A3.jpg","38","restless",0.9,0.1,0.5,0.0474234204714379,"true"
"image-keyboard-response",372,335365,"0.0-3.120-1.120","5x11pzsynjysc0x",251,"185.csv","","null","resources/maskTrios/BT1B.jpg","null","",NA,NA,NA,NA,""
"image-keyboard-response",373,336572,"0.0-3.120-2.120","5x11pzsynjysc0x",251,"185.csv","","null","resources/images/coin2.png","null","",NA,NA,NA,NA,""
"image-keyboard-response",374,337303,"0.0-3.121-0.121","5x11pzsynjysc0x",251,"185.csv","","729.5","resources/trios/L2T4A1.jpg","38","restless",0.9,0.1,0.5,0.968529613310485,"false"
"image-keyboard-response",375,337712,"0.0-3.121-1.121","5x11pzsynjysc0x",251,"185.csv","","null","resources/maskTrios/BT4B.jpg","null","",NA,NA,NA,NA,""
"image-keyboard-response",376,338921,"0.0-3.121-2.121","5x11pzsynjysc0x",251,"185.csv","","null","resources/images/fishbone.png","null","",NA,NA,NA,NA,""
"image-keyboard-response",377,339673,"0.0-3.122-0.122","5x11pzsynjysc0x",251,"185.csv","","751.1999999880791","resources/trios/L4T4A1.jpg","39","restless",0.9,0.2,0.5,0.0301633910498158,"true"
"image-keyboard-response",378,340077,"0.0-3.122-1.122","5x11pzsynjysc0x",251,"185.csv","","null","resources/maskTrios/BBA1.jpg","null","",NA,NA,NA,NA,""
"image-keyboard-response",379,341285,"0.0-3.122-2.122","5x11pzsynjysc0x",251,"185.csv","","null","resources/images/coin2.png","null","",NA,NA,NA,NA,""
"image-keyboard-response",380,343047,"0.0-3.123-0.123","5x11pzsynjysc0x",251,"185.csv","","1760.0999999642372","resources/trios/L4T1A3.jpg","39","restless",0.9,0.2,0.5,0.076360138115745,"true"
"image-keyboard-response",381,343453,"0.0-3.123-1.123","5x11pzsynjysc0x",251,"185.csv","","null","resources/maskTrios/BBA3.jpg","null","",NA,NA,NA,NA,""
"image-keyboard-response",382,344660,"0.0-3.123-2.123","5x11pzsynjysc0x",251,"185.csv","","null","resources/images/coin2.png","null","",NA,NA,NA,NA,""
"image-keyboard-response",383,345101,"0.0-3.124-0.124","5x11pzsynjysc0x",251,"185.csv","","440.69999998807907","resources/trios/L4T1A3.jpg","39","restless",0.9,0.2,0.5,0.770649624548132,"false"
"image-keyboard-response",384,345513,"0.0-3.124-1.124","5x11pzsynjysc0x",251,"185.csv","","null","resources/maskTrios/BBA3.jpg","null","",NA,NA,NA,NA,""
"image-keyboard-response",385,346717,"0.0-3.124-2.124","5x11pzsynjysc0x",251,"185.csv","","null","resources/images/fishbone.png","null","",NA,NA,NA,NA,""
"image-keyboard-response",386,347201,"0.0-3.125-0.125","5x11pzsynjysc0x",251,"185.csv","","482.2999999523163","resources/trios/L4T1A1.jpg","37","restless",0.9,0.3,0.5,0.475920776913474,"true"
"image-keyboard-response",387,347605,"0.0-3.125-1.125","5x11pzsynjysc0x",251,"185.csv","","null","resources/maskTrios/L4BB.jpg","null","",NA,NA,NA,NA,""
"image-keyboard-response",388,348817,"0.0-3.125-2.125","5x11pzsynjysc0x",251,"185.csv","","null","resources/images/coin2.png","null","",NA,NA,NA,NA,""
"image-keyboard-response",389,349680,"0.0-3.126-0.126","5x11pzsynjysc0x",251,"185.csv","","862.1999999880791","resources/trios/L4T4A3.jpg","38","restless",0.9,0.3,0.6,0.557332510236671,"false"
"image-keyboard-response",390,350088,"0.0-3.126-1.126","5x11pzsynjysc0x",251,"185.csv","","null","resources/maskTrios/BT4B.jpg","null","",NA,NA,NA,NA,""
"image-keyboard-response",391,351293,"0.0-3.126-2.126","5x11pzsynjysc0x",251,"185.csv","","null","resources/images/fishbone.png","null","",NA,NA,NA,NA,""
"image-keyboard-response",392,352928,"0.0-3.127-0.127","5x11pzsynjysc0x",251,"185.csv","","1634.0999999642372","resources/trios/L2T4A3.jpg","39","restless",0.9,0.3,0.6,0.390057135905085,"true"
"image-keyboard-response",393,353333,"0.0-3.127-1.127","5x11pzsynjysc0x",251,"185.csv","","null","resources/maskTrios/BBA3.jpg","null","",NA,NA,NA,NA,""
"image-keyboard-response",394,354544,"0.0-3.127-2.127","5x11pzsynjysc0x",251,"185.csv","","null","resources/images/coin2.png","null","",NA,NA,NA,NA,""
"image-keyboard-response",395,355318,"0.0-3.128-0.128","5x11pzsynjysc0x",251,"185.csv","","772.3000000119209","resources/trios/L2T1A1.jpg","37","restless",0.9,0.3,0.6,0.280413011082128,"true"
"image-keyboard-response",396,355724,"0.0-3.128-1.128","5x11pzsynjysc0x",251,"185.csv","","null","resources/maskTrios/L2BB.jpg","null","",NA,NA,NA,NA,""
"image-keyboard-response",397,356937,"0.0-3.128-2.128","5x11pzsynjysc0x",251,"185.csv","","null","resources/images/coin2.png","null","",NA,NA,NA,NA,""
"image-keyboard-response",398,357603,"0.0-3.129-0.129","5x11pzsynjysc0x",251,"185.csv","","664.3000000119209","resources/trios/L2T4A1.jpg","37","restless",0.9,0.3,0.7,0.84689583203913,"true"
"image-keyboard-response",399,358013,"0.0-3.129-1.129","5x11pzsynjysc0x",251,"185.csv","","null","resources/maskTrios/L2BB.jpg","null","",NA,NA,NA,NA,""
"image-keyboard-response",400,359220,"0.0-3.129-2.129","5x11pzsynjysc0x",251,"185.csv","","null","resources/images/coin2.png","null","",NA,NA,NA,NA,""
"image-keyboard-response",401,360694,"0.0-3.130-0.130","5x11pzsynjysc0x",251,"185.csv","","1472.5","resources/trios/L4T1A3.jpg","37","restless",0.9,0.3,0.7,0.902057456838638,"false"
"image-keyboard-response",402,361105,"0.0-3.130-1.130","5x11pzsynjysc0x",251,"185.csv","","null","resources/maskTrios/L4BB.jpg","null","",NA,NA,NA,NA,""
"image-keyboard-response",403,362312,"0.0-3.130-2.130","5x11pzsynjysc0x",251,"185.csv","","null","resources/images/fishbone.png","null","",NA,NA,NA,NA,""
"image-keyboard-response",404,362941,"0.0-3.131-0.131","5x11pzsynjysc0x",251,"185.csv","","626.8999999761581","resources/trios/L4T1A1.jpg","39","restless",0.9,0.3,0.7,0.652973202467264,"true"
"image-keyboard-response",405,363353,"0.0-3.131-1.131","5x11pzsynjysc0x",251,"185.csv","","null","resources/maskTrios/BBA1.jpg","null","",NA,NA,NA,NA,""
"image-keyboard-response",406,364561,"0.0-3.131-2.131","5x11pzsynjysc0x",251,"185.csv","","null","resources/images/coin2.png","null","",NA,NA,NA,NA,""
"image-keyboard-response",407,365592,"0.0-3.132-0.132","5x11pzsynjysc0x",251,"185.csv","","1030.300000011921","resources/trios/L2T1A3.jpg","37","restless",0.9,0.3,0.7,0.889761639618323,"true"
"image-keyboard-response",408,365997,"0.0-3.132-1.132","5x11pzsynjysc0x",251,"185.csv","","null","resources/maskTrios/L2BB.jpg","null","",NA,NA,NA,NA,""
"image-keyboard-response",409,367207,"0.0-3.132-2.132","5x11pzsynjysc0x",251,"185.csv","","null","resources/images/coin2.png","null","",NA,NA,NA,NA,""
"image-keyboard-response",410,367712,"0.0-3.133-0.133","5x11pzsynjysc0x",251,"185.csv","","503.30000001192093","resources/trios/L2T1A1.jpg","37","restless",0.9,0.4,0.7,0.160768533055628,"true"
"image-keyboard-response",411,368117,"0.0-3.133-1.133","5x11pzsynjysc0x",251,"185.csv","","null","resources/maskTrios/L2BB.jpg","null","",NA,NA,NA,NA,""
"image-keyboard-response",412,369325,"0.0-3.133-2.133","5x11pzsynjysc0x",251,"185.csv","","null","resources/images/coin2.png","null","",NA,NA,NA,NA,""
"image-keyboard-response",413,370381,"0.0-3.134-0.134","5x11pzsynjysc0x",251,"185.csv","","1054.300000011921","resources/trios/L2T4A1.jpg","38","restless",0.9,0.5,0.7,0.0530390231241284,"true"
"image-keyboard-response",414,370789,"0.0-3.134-1.134","5x11pzsynjysc0x",251,"185.csv","","null","resources/maskTrios/BT4B.jpg","null","",NA,NA,NA,NA,""
"image-keyboard-response",415,371998,"0.0-3.134-2.134","5x11pzsynjysc0x",251,"185.csv","","null","resources/images/coin2.png","null","",NA,NA,NA,NA,""
"image-keyboard-response",416,373290,"0.0-3.135-0.135","5x11pzsynjysc0x",251,"185.csv","","1290.0999999642372","resources/trios/L4T1A3.jpg","39","restless",0.8,0.5,0.7,0.396784801693705,"true"
"image-keyboard-response",417,373693,"0.0-3.135-1.135","5x11pzsynjysc0x",251,"185.csv","","null","resources/maskTrios/BBA3.jpg","null","",NA,NA,NA,NA,""
"image-keyboard-response",418,374900,"0.0-3.135-2.135","5x11pzsynjysc0x",251,"185.csv","","null","resources/images/coin2.png","null","",NA,NA,NA,NA,""
"image-keyboard-response",419,376936,"0.0-3.136-0.136","5x11pzsynjysc0x",251,"185.csv","","2034.1000000238419","resources/trios/L4T4A1.jpg","39","restless",0.8,0.5,0.7,0.282784594886286,"true"
"image-keyboard-response",420,377341,"0.0-3.136-1.136","5x11pzsynjysc0x",251,"185.csv","","null","resources/maskTrios/BBA1.jpg","null","",NA,NA,NA,NA,""
"image-keyboard-response",421,378549,"0.0-3.136-2.136","5x11pzsynjysc0x",251,"185.csv","","null","resources/images/coin2.png","null","",NA,NA,NA,NA,""
"image-keyboard-response",422,379901,"0.0-3.137-0.137","5x11pzsynjysc0x",251,"185.csv","","1351.199999988079","resources/trios/L4T4A3.jpg","39","restless",0.8,0.5,0.7,0.942304699303845,"false"
"image-keyboard-response",423,380313,"0.0-3.137-1.137","5x11pzsynjysc0x",251,"185.csv","","null","resources/maskTrios/BBA3.jpg","null","",NA,NA,NA,NA,""
"image-keyboard-response",424,381521,"0.0-3.137-2.137","5x11pzsynjysc0x",251,"185.csv","","null","resources/images/fishbone.png","null","",NA,NA,NA,NA,""
"image-keyboard-response",425,382240,"0.0-3.138-0.138","5x11pzsynjysc0x",251,"185.csv","","717.8999999761581","resources/trios/L4T1A3.jpg","37","restless",0.8,0.5,0.7,0.660264494307262,"true"
"image-keyboard-response",426,382644,"0.0-3.138-1.138","5x11pzsynjysc0x",251,"185.csv","","null","resources/maskTrios/L4BB.jpg","null","",NA,NA,NA,NA,""
"image-keyboard-response",427,383857,"0.0-3.138-2.138","5x11pzsynjysc0x",251,"185.csv","","null","resources/images/coin2.png","null","",NA,NA,NA,NA,""
"image-keyboard-response",428,385440,"0.0-3.139-0.139","5x11pzsynjysc0x",251,"185.csv","","1581.5","resources/trios/L4T1A3.jpg","37","restless",0.8,0.5,0.7,0.358341770840521,"true"
"image-keyboard-response",429,385849,"0.0-3.139-1.139","5x11pzsynjysc0x",251,"185.csv","","null","resources/maskTrios/L4BB.jpg","null","",NA,NA,NA,NA,""
"image-keyboard-response",430,387054,"0.0-3.139-2.139","5x11pzsynjysc0x",251,"185.csv","","null","resources/images/coin2.png","null","",NA,NA,NA,NA,""
"image-keyboard-response",431,388355,"0.0-3.140-0.140","5x11pzsynjysc0x",251,"185.csv","","1299.1000000238419","resources/trios/L4T1A3.jpg","37","restless",0.8,0.6,0.7,0.714708763474169,"true"
"image-keyboard-response",432,388766,"0.0-3.140-1.140","5x11pzsynjysc0x",251,"185.csv","","null","resources/maskTrios/L4BB.jpg","null","",NA,NA,NA,NA,""
"image-keyboard-response",433,389977,"0.0-3.140-2.140","5x11pzsynjysc0x",251,"185.csv","","null","resources/images/coin2.png","null","",NA,NA,NA,NA,""
"image-keyboard-response",434,390771,"0.0-3.141-0.141","5x11pzsynjysc0x",251,"185.csv","","792.8000000119209","resources/trios/L4T1A3.jpg","37","restless",0.8,0.6,0.7,0.0841393348476058,"true"
"image-keyboard-response",435,391173,"0.0-3.141-1.141","5x11pzsynjysc0x",251,"185.csv","","null","resources/maskTrios/L4BB.jpg","null","",NA,NA,NA,NA,""
"image-keyboard-response",436,392381,"0.0-3.141-2.141","5x11pzsynjysc0x",251,"185.csv","","null","resources/images/coin2.png","null","",NA,NA,NA,NA,""
"image-keyboard-response",437,393933,"0.0-3.142-0.142","5x11pzsynjysc0x",251,"185.csv","","1551.2999999523163","resources/trios/L2T1A3.jpg","38","restless",0.9,0.6,0.7,0.417848911726839,"true"
"image-keyboard-response",438,394345,"0.0-3.142-1.142","5x11pzsynjysc0x",251,"185.csv","","null","resources/maskTrios/BT1B.jpg","null","",NA,NA,NA,NA,""
"image-keyboard-response",439,395553,"0.0-3.142-2.142","5x11pzsynjysc0x",251,"185.csv","","null","resources/images/coin2.png","null","",NA,NA,NA,NA,""
"image-keyboard-response",440,397937,"0.0-3.143-0.143","5x11pzsynjysc0x",251,"185.csv","","2382.199999988079","resources/trios/L4T1A1.jpg","37","restless",0.9,0.6,0.7,0.900530808571038,"false"
"image-keyboard-response",441,398345,"0.0-3.143-1.143","5x11pzsynjysc0x",251,"185.csv","","null","resources/maskTrios/L4BB.jpg","null","",NA,NA,NA,NA,""
"image-keyboard-response",442,399548,"0.0-3.143-2.143","5x11pzsynjysc0x",251,"185.csv","","null","resources/images/fishbone.png","null","",NA,NA,NA,NA,""
"image-keyboard-response",443,400156,"0.0-3.144-0.144","5x11pzsynjysc0x",251,"185.csv","","606.1000000238419","resources/trios/L4T1A3.jpg","38","restless",0.9,0.6,0.7,0.942300592515767,"false"
"image-keyboard-response",444,400569,"0.0-3.144-1.144","5x11pzsynjysc0x",251,"185.csv","","null","resources/maskTrios/BT1B.jpg","null","",NA,NA,NA,NA,""
"image-keyboard-response",445,401777,"0.0-3.144-2.144","5x11pzsynjysc0x",251,"185.csv","","null","resources/images/fishbone.png","null","",NA,NA,NA,NA,""
"image-keyboard-response",446,404122,"0.0-3.145-0.145","5x11pzsynjysc0x",251,"185.csv","","2343.400000035763","resources/trios/L2T4A1.jpg","37","restless",0.9,0.6,0.7,0.344122180583478,"true"
"image-keyboard-response",447,404525,"0.0-3.145-1.145","5x11pzsynjysc0x",251,"185.csv","","null","resources/maskTrios/L2BB.jpg","null","",NA,NA,NA,NA,""
"image-keyboard-response",448,405737,"0.0-3.145-2.145","5x11pzsynjysc0x",251,"185.csv","","null","resources/images/coin2.png","null","",NA,NA,NA,NA,""
"image-keyboard-response",449,407720,"0.0-3.146-0.146","5x11pzsynjysc0x",251,"185.csv","","1981.3999999761581","resources/trios/L4T1A1.jpg","38","restless",0.8,0.7,0.7,0.541904057200297,"true"
"image-keyboard-response",450,408122,"0.0-3.146-1.146","5x11pzsynjysc0x",251,"185.csv","","null","resources/maskTrios/BT1B.jpg","null","",NA,NA,NA,NA,""
"image-keyboard-response",451,409328,"0.0-3.146-2.146","5x11pzsynjysc0x",251,"185.csv","","null","resources/images/coin2.png","null","",NA,NA,NA,NA,""
"image-keyboard-response",452,411789,"0.0-3.147-0.147","5x11pzsynjysc0x",251,"185.csv","","2459","resources/trios/L2T1A3.jpg","39","restless",0.8,0.7,0.7,0.441940206558247,"true"
"image-keyboard-response",453,412201,"0.0-3.147-1.147","5x11pzsynjysc0x",251,"185.csv","","null","resources/maskTrios/BBA3.jpg","null","",NA,NA,NA,NA,""
"image-keyboard-response",454,413409,"0.0-3.147-2.147","5x11pzsynjysc0x",251,"185.csv","","null","resources/images/coin2.png","null","",NA,NA,NA,NA,""
"image-keyboard-response",455,414726,"0.0-3.148-0.148","5x11pzsynjysc0x",251,"185.csv","","1315.300000011921","resources/trios/L4T4A3.jpg","37","restless",0.8,0.7,0.6,0.437699458359914,"true"
"image-keyboard-response",456,415133,"0.0-3.148-1.148","5x11pzsynjysc0x",251,"185.csv","","null","resources/maskTrios/L4BB.jpg","null","",NA,NA,NA,NA,""
"image-keyboard-response",457,416342,"0.0-3.148-2.148","5x11pzsynjysc0x",251,"185.csv","","null","resources/images/coin2.png","null","",NA,NA,NA,NA,""
"image-keyboard-response",458,418087,"0.0-3.149-0.149","5x11pzsynjysc0x",251,"185.csv","","1743.199999988079","resources/trios/L2T1A1.jpg","38","restless",0.8,0.7,0.6,0.474920497345844,"true"
"image-keyboard-response",459,418494,"0.0-3.149-1.149","5x11pzsynjysc0x",251,"185.csv","","null","resources/maskTrios/BT1B.jpg","null","",NA,NA,NA,NA,""
"image-keyboard-response",460,419703,"0.0-3.149-2.149","5x11pzsynjysc0x",251,"185.csv","","null","resources/images/coin2.png","null","",NA,NA,NA,NA,""
"image-keyboard-response",461,421443,"0.0-3.150-0.150","5x11pzsynjysc0x",251,"185.csv","","1738.699999988079","resources/trios/L2T1A3.jpg","39","restless",0.8,0.7,0.5,0.476285433102103,"true"
"image-keyboard-response",462,421857,"0.0-3.150-1.150","5x11pzsynjysc0x",251,"185.csv","","null","resources/maskTrios/BBA3.jpg","null","",NA,NA,NA,NA,""
"image-keyboard-response",463,423065,"0.0-3.150-2.150","5x11pzsynjysc0x",251,"185.csv","","null","resources/images/coin2.png","null","",NA,NA,NA,NA,""
"image-keyboard-response",464,426952,"0.0-3.151-0.151","5x11pzsynjysc0x",251,"185.csv","","3884.7999999523163","resources/trios/L4T1A1.jpg","37","restless",0.8,0.7,0.5,0.11550558961763,"true"
"image-keyboard-response",465,427360,"0.0-3.151-1.151","5x11pzsynjysc0x",251,"185.csv","","null","resources/maskTrios/L4BB.jpg","null","",NA,NA,NA,NA,""
"image-keyboard-response",466,428570,"0.0-3.151-2.151","5x11pzsynjysc0x",251,"185.csv","","null","resources/images/coin2.png","null","",NA,NA,NA,NA,""
"image-keyboard-response",467,430013,"0.0-3.152-0.152","5x11pzsynjysc0x",251,"185.csv","","1442","resources/trios/L2T1A1.jpg","38","restless",0.8,0.7,0.5,0.43178887397514,"true"
"image-keyboard-response",468,430422,"0.0-3.152-1.152","5x11pzsynjysc0x",251,"185.csv","","null","resources/maskTrios/BT1B.jpg","null","",NA,NA,NA,NA,""
"image-keyboard-response",469,431629,"0.0-3.152-2.152","5x11pzsynjysc0x",251,"185.csv","","null","resources/images/coin2.png","null","",NA,NA,NA,NA,""
"image-keyboard-response",470,434612,"0.0-3.153-0.153","5x11pzsynjysc0x",251,"185.csv","","2981.699999988079","resources/trios/L4T4A1.jpg","38","restless",0.8,0.7,0.5,0.477740422570729,"true"
"image-keyboard-response",471,435023,"0.0-3.153-1.153","5x11pzsynjysc0x",251,"185.csv","","null","resources/maskTrios/BT4B.jpg","null","",NA,NA,NA,NA,""
"image-keyboard-response",472,436234,"0.0-3.153-2.153","5x11pzsynjysc0x",251,"185.csv","","null","resources/images/coin2.png","null","",NA,NA,NA,NA,""
"image-keyboard-response",473,437558,"0.0-3.154-0.154","5x11pzsynjysc0x",251,"185.csv","","1323","resources/trios/L4T1A3.jpg","39","restless",0.8,0.7,0.5,0.265661060458364,"true"
"image-keyboard-response",474,437966,"0.0-3.154-1.154","5x11pzsynjysc0x",251,"185.csv","","null","resources/maskTrios/BBA3.jpg","null","",NA,NA,NA,NA,""
"image-keyboard-response",475,439177,"0.0-3.154-2.154","5x11pzsynjysc0x",251,"185.csv","","null","resources/images/coin2.png","null","",NA,NA,NA,NA,""
"image-keyboard-response",476,442161,"0.0-3.155-0.155","5x11pzsynjysc0x",251,"185.csv","","2982.399999976158","resources/trios/L4T1A1.jpg","37","restless",0.7,0.7,0.5,0.685737316776323,"true"
"image-keyboard-response",477,442567,"0.0-3.155-1.155","5x11pzsynjysc0x",251,"185.csv","","null","resources/maskTrios/L4BB.jpg","null","",NA,NA,NA,NA,""
"image-keyboard-response",478,443775,"0.0-3.155-2.155","5x11pzsynjysc0x",251,"185.csv","","null","resources/images/coin2.png","null","",NA,NA,NA,NA,""
"image-keyboard-response",479,445406,"0.0-3.156-0.156","5x11pzsynjysc0x",251,"185.csv","","1629.5","resources/trios/L2T1A3.jpg","38","restless",0.6,0.7,0.5,0.536602724142153,"true"
"image-keyboard-response",480,445814,"0.0-3.156-1.156","5x11pzsynjysc0x",251,"185.csv","","null","resources/maskTrios/BT1B.jpg","null","",NA,NA,NA,NA,""
"image-keyboard-response",481,447025,"0.0-3.156-2.156","5x11pzsynjysc0x",251,"185.csv","","null","resources/images/coin2.png","null","",NA,NA,NA,NA,""
"image-keyboard-response",482,449155,"0.0-3.157-0.157","5x11pzsynjysc0x",251,"185.csv","","2128.300000011921","resources/trios/L4T4A3.jpg","39","restless",0.6,0.7,0.5,0.56416750068114,"false"
"image-keyboard-response",483,449559,"0.0-3.157-1.157","5x11pzsynjysc0x",251,"185.csv","","null","resources/maskTrios/BBA3.jpg","null","",NA,NA,NA,NA,""
"image-keyboard-response",484,450770,"0.0-3.157-2.157","5x11pzsynjysc0x",251,"185.csv","","null","resources/images/fishbone.png","null","",NA,NA,NA,NA,""
"image-keyboard-response",485,451546,"0.0-3.158-0.158","5x11pzsynjysc0x",251,"185.csv","","774.5","resources/trios/L4T4A3.jpg","37","restless",0.6,0.7,0.5,0.702955988635493,"false"
"image-keyboard-response",486,451950,"0.0-3.158-1.158","5x11pzsynjysc0x",251,"185.csv","","null","resources/maskTrios/L4BB.jpg","null","",NA,NA,NA,NA,""
"image-keyboard-response",487,453157,"0.0-3.158-2.158","5x11pzsynjysc0x",251,"185.csv","","null","resources/images/fishbone.png","null","",NA,NA,NA,NA,""
"image-keyboard-response",488,457707,"0.0-3.159-0.159","5x11pzsynjysc0x",251,"185.csv","","4548.699999988079","resources/trios/L4T1A3.jpg","39","restless",0.6,0.7,0.5,0.650505818033478,"false"
"image-keyboard-response",489,458114,"0.0-3.159-1.159","5x11pzsynjysc0x",251,"185.csv","","null","resources/maskTrios/BBA3.jpg","null","",NA,NA,NA,NA,""
"image-keyboard-response",490,459317,"0.0-3.159-2.159","5x11pzsynjysc0x",251,"185.csv","","null","resources/images/fishbone.png","null","",NA,NA,NA,NA,""
"image-keyboard-response",491,460031,"0.0-3.160-0.160","5x11pzsynjysc0x",251,"185.csv","","712.1000000238419","resources/trios/L4T1A3.jpg","38","restless",0.6,0.7,0.5,0.506122529029146,"true"
"image-keyboard-response",492,460442,"0.0-3.160-1.160","5x11pzsynjysc0x",251,"185.csv","","null","resources/maskTrios/BT1B.jpg","null","",NA,NA,NA,NA,""
"image-keyboard-response",493,461650,"0.0-3.160-2.160","5x11pzsynjysc0x",251,"185.csv","","null","resources/images/coin2.png","null","",NA,NA,NA,NA,""
"image-keyboard-response",494,463613,"0.0-3.161-0.161","5x11pzsynjysc0x",251,"185.csv","","1962","resources/trios/L2T4A3.jpg","37","restless",0.6,0.7,0.5,0.215688851629732,"true"
"image-keyboard-response",495,464024,"0.0-3.161-1.161","5x11pzsynjysc0x",251,"185.csv","","null","resources/maskTrios/L2BB.jpg","null","",NA,NA,NA,NA,""
"image-keyboard-response",496,465229,"0.0-3.161-2.161","5x11pzsynjysc0x",251,"185.csv","","null","resources/images/coin2.png","null","",NA,NA,NA,NA,""
"image-keyboard-response",497,468080,"0.0-3.162-0.162","5x11pzsynjysc0x",251,"185.csv","","2849.199999988079","resources/trios/L4T4A1.jpg","39","restless",0.6,0.7,0.5,0.943038213783566,"false"
"image-keyboard-response",498,468486,"0.0-3.162-1.162","5x11pzsynjysc0x",251,"185.csv","","null","resources/maskTrios/BBA1.jpg","null","",NA,NA,NA,NA,""
"image-keyboard-response",499,469696,"0.0-3.162-2.162","5x11pzsynjysc0x",251,"185.csv","","null","resources/images/fishbone.png","null","",NA,NA,NA,NA,""
"image-keyboard-response",500,470723,"0.0-3.163-0.163","5x11pzsynjysc0x",251,"185.csv","","1025.699999988079","resources/trios/L4T1A1.jpg","38","restless",0.6,0.7,0.5,0.573735479232697,"true"
"image-keyboard-response",501,471125,"0.0-3.163-1.163","5x11pzsynjysc0x",251,"185.csv","","null","resources/maskTrios/BT1B.jpg","null","",NA,NA,NA,NA,""
"image-keyboard-response",502,472333,"0.0-3.163-2.163","5x11pzsynjysc0x",251,"185.csv","","null","resources/images/coin2.png","null","",NA,NA,NA,NA,""
"image-keyboard-response",503,472902,"0.0-3.164-0.164","5x11pzsynjysc0x",251,"185.csv","","567","resources/trios/L4T1A1.jpg","38","restless",0.6,0.7,0.5,0.790582675330893,"false"
"image-keyboard-response",504,473314,"0.0-3.164-1.164","5x11pzsynjysc0x",251,"185.csv","","null","resources/maskTrios/BT1B.jpg","null","",NA,NA,NA,NA,""
"image-keyboard-response",505,474518,"0.0-3.164-2.164","5x11pzsynjysc0x",251,"185.csv","","null","resources/images/fishbone.png","null","",NA,NA,NA,NA,""
"image-keyboard-response",506,475379,"0.0-3.165-0.165","5x11pzsynjysc0x",251,"185.csv","","859.8000000119209","resources/trios/L4T1A1.jpg","37","restless",0.6,0.7,0.5,0.438892574081275,"true"
"image-keyboard-response",507,475793,"0.0-3.165-1.165","5x11pzsynjysc0x",251,"185.csv","","null","resources/maskTrios/L4BB.jpg","null","",NA,NA,NA,NA,""
"image-keyboard-response",508,477002,"0.0-3.165-2.165","5x11pzsynjysc0x",251,"185.csv","","null","resources/images/coin2.png","null","",NA,NA,NA,NA,""
"image-keyboard-response",509,480298,"0.0-3.166-0.166","5x11pzsynjysc0x",251,"185.csv","","3294.400000035763","resources/trios/L2T1A3.jpg","37","restless",0.6,0.7,0.5,0.519478821255086,"true"
"image-keyboard-response",510,480702,"0.0-3.166-1.166","5x11pzsynjysc0x",251,"185.csv","","null","resources/maskTrios/L2BB.jpg","null","",NA,NA,NA,NA,""
"image-keyboard-response",511,481913,"0.0-3.166-2.166","5x11pzsynjysc0x",251,"185.csv","","null","resources/images/coin2.png","null","",NA,NA,NA,NA,""
"image-keyboard-response",512,483005,"0.0-3.167-0.167","5x11pzsynjysc0x",251,"185.csv","","1090.4000000357628","resources/trios/L2T1A3.jpg","37","restless",0.5,0.7,0.4,0.557533959583972,"false"
"image-keyboard-response",513,483413,"0.0-3.167-1.167","5x11pzsynjysc0x",251,"185.csv","","null","resources/maskTrios/L2BB.jpg","null","",NA,NA,NA,NA,""
"image-keyboard-response",514,484622,"0.0-3.167-2.167","5x11pzsynjysc0x",251,"185.csv","","null","resources/images/fishbone.png","null","",NA,NA,NA,NA,""
"image-keyboard-response",515,486703,"0.0-3.168-0.168","5x11pzsynjysc0x",251,"185.csv","","2079.399999976158","resources/trios/L2T4A3.jpg","39","restless",0.5,0.7,0.4,0.67703910627018,"false"
"image-keyboard-response",516,487111,"0.0-3.168-1.168","5x11pzsynjysc0x",251,"185.csv","","null","resources/maskTrios/BBA3.jpg","null","",NA,NA,NA,NA,""
"image-keyboard-response",517,488318,"0.0-3.168-2.168","5x11pzsynjysc0x",251,"185.csv","","null","resources/images/fishbone.png","null","",NA,NA,NA,NA,""
"image-keyboard-response",518,488811,"0.0-3.169-0.169","5x11pzsynjysc0x",251,"185.csv","","491.60000002384186","resources/trios/L4T4A3.jpg","38","restless",0.5,0.7,0.5,0.0410312099280725,"true"
"image-keyboard-response",519,489213,"0.0-3.169-1.169","5x11pzsynjysc0x",251,"185.csv","","null","resources/maskTrios/BT4B.jpg","null","",NA,NA,NA,NA,""
"image-keyboard-response",520,490426,"0.0-3.169-2.169","5x11pzsynjysc0x",251,"185.csv","","null","resources/images/coin2.png","null","",NA,NA,NA,NA,""
"image-keyboard-response",521,494942,"0.0-3.170-0.170","5x11pzsynjysc0x",251,"185.csv","","4514.599999964237","resources/trios/L2T1A3.jpg","37","restless",0.4,0.7,0.5,0.939434434481325,"false"
"image-keyboard-response",522,495351,"0.0-3.170-1.170","5x11pzsynjysc0x",251,"185.csv","","null","resources/maskTrios/L2BB.jpg","null","",NA,NA,NA,NA,""
"image-keyboard-response",523,496560,"0.0-3.170-2.170","5x11pzsynjysc0x",251,"185.csv","","null","resources/images/fishbone.png","null","",NA,NA,NA,NA,""
"image-keyboard-response",524,498070,"0.0-3.171-0.171","5x11pzsynjysc0x",251,"185.csv","","1508.699999988079","resources/trios/L2T4A3.jpg","38","restless",0.4,0.7,0.5,0.170166891545327,"true"
"image-keyboard-response",525,498482,"0.0-3.171-1.171","5x11pzsynjysc0x",251,"185.csv","","null","resources/maskTrios/BT4B.jpg","null","",NA,NA,NA,NA,""
"image-keyboard-response",526,499690,"0.0-3.171-2.171","5x11pzsynjysc0x",251,"185.csv","","null","resources/images/coin2.png","null","",NA,NA,NA,NA,""
"image-keyboard-response",527,500168,"0.0-3.172-0.172","5x11pzsynjysc0x",251,"185.csv","","476.5","resources/trios/L2T1A1.jpg","38","restless",0.3,0.7,0.5,0.938734905616112,"false"
"image-keyboard-response",528,500577,"0.0-3.172-1.172","5x11pzsynjysc0x",251,"185.csv","","null","resources/maskTrios/BT1B.jpg","null","",NA,NA,NA,NA,""
"image-keyboard-response",529,501784,"0.0-3.172-2.172","5x11pzsynjysc0x",251,"185.csv","","null","resources/images/fishbone.png","null","",NA,NA,NA,NA,""
"image-keyboard-response",530,503212,"0.0-3.173-0.173","5x11pzsynjysc0x",251,"185.csv","","1426.699999988079","resources/trios/L4T1A1.jpg","37","restless",0.3,0.7,0.5,0.0866106176332841,"true"
"image-keyboard-response",531,503625,"0.0-3.173-1.173","5x11pzsynjysc0x",251,"185.csv","","null","resources/maskTrios/L4BB.jpg","null","",NA,NA,NA,NA,""
"image-keyboard-response",532,504830,"0.0-3.173-2.173","5x11pzsynjysc0x",251,"185.csv","","null","resources/images/coin2.png","null","",NA,NA,NA,NA,""
"image-keyboard-response",533,506594,"0.0-3.174-0.174","5x11pzsynjysc0x",251,"185.csv","","1762.4000000357628","resources/trios/L2T1A1.jpg","39","restless",0.3,0.7,0.5,0.919526465106133,"false"
"image-keyboard-response",534,506998,"0.0-3.174-1.174","5x11pzsynjysc0x",251,"185.csv","","null","resources/maskTrios/BBA1.jpg","null","",NA,NA,NA,NA,""
"image-keyboard-response",535,508207,"0.0-3.174-2.174","5x11pzsynjysc0x",251,"185.csv","","null","resources/images/fishbone.png","null","",NA,NA,NA,NA,""
"image-keyboard-response",536,509278,"0.0-3.175-0.175","5x11pzsynjysc0x",251,"185.csv","","1069","resources/trios/L4T1A1.jpg","38","restless",0.3,0.7,0.4,0.460249890277092,"true"
"image-keyboard-response",537,509688,"0.0-3.175-1.175","5x11pzsynjysc0x",251,"185.csv","","null","resources/maskTrios/BT1B.jpg","null","",NA,NA,NA,NA,""
"image-keyboard-response",538,510895,"0.0-3.175-2.175","5x11pzsynjysc0x",251,"185.csv","","null","resources/images/coin2.png","null","",NA,NA,NA,NA,""
"image-keyboard-response",539,512270,"0.0-3.176-0.176","5x11pzsynjysc0x",251,"185.csv","","1373.300000011921","resources/trios/L4T4A3.jpg","37","restless",0.3,0.7,0.4,0.0229787093648961,"true"
"image-keyboard-response",540,512680,"0.0-3.176-1.176","5x11pzsynjysc0x",251,"185.csv","","null","resources/maskTrios/L4BB.jpg","null","",NA,NA,NA,NA,""
"image-keyboard-response",541,513887,"0.0-3.176-2.176","5x11pzsynjysc0x",251,"185.csv","","null","resources/images/coin2.png","null","",NA,NA,NA,NA,""
"image-keyboard-response",542,514987,"0.0-3.177-0.177","5x11pzsynjysc0x",251,"185.csv","","1099.300000011921","resources/trios/L4T1A3.jpg","37","restless",0.3,0.7,0.4,0.280652883477349,"true"
"image-keyboard-response",543,515394,"0.0-3.177-1.177","5x11pzsynjysc0x",251,"185.csv","","null","resources/maskTrios/L4BB.jpg","null","",NA,NA,NA,NA,""
"image-keyboard-response",544,516598,"0.0-3.177-2.177","5x11pzsynjysc0x",251,"185.csv","","null","resources/images/coin2.png","null","",NA,NA,NA,NA,""
"image-keyboard-response",545,517749,"0.0-3.178-0.178","5x11pzsynjysc0x",251,"185.csv","","1148.9000000357628","resources/trios/L4T4A3.jpg","38","restless",0.3,0.7,0.4,0.944690550502665,"false"
"image-keyboard-response",546,518154,"0.0-3.178-1.178","5x11pzsynjysc0x",251,"185.csv","","null","resources/maskTrios/BT4B.jpg","null","",NA,NA,NA,NA,""
"image-keyboard-response",547,519358,"0.0-3.178-2.178","5x11pzsynjysc0x",251,"185.csv","","null","resources/images/fishbone.png","null","",NA,NA,NA,NA,""
"image-keyboard-response",548,519788,"0.0-3.179-0.179","5x11pzsynjysc0x",251,"185.csv","","428.5","resources/trios/L2T4A3.jpg","39","restless",0.3,0.7,0.4,0.565899249589183,"false"
"image-keyboard-response",549,520202,"0.0-3.179-1.179","5x11pzsynjysc0x",251,"185.csv","","null","resources/maskTrios/BBA3.jpg","null","",NA,NA,NA,NA,""
"image-keyboard-response",550,521410,"0.0-3.179-2.179","5x11pzsynjysc0x",251,"185.csv","","null","resources/images/fishbone.png","null","",NA,NA,NA,NA,""
"image-keyboard-response",551,523176,"0.0-3.180-0.180","5x11pzsynjysc0x",251,"185.csv","","1764.300000011921","resources/trios/L2T1A1.jpg","38","restless",0.3,0.7,0.4,0.412364375693177,"true"
"image-keyboard-response",552,523584,"0.0-3.180-1.180","5x11pzsynjysc0x",251,"185.csv","","null","resources/maskTrios/BT1B.jpg","null","",NA,NA,NA,NA,""
"image-keyboard-response",553,524793,"0.0-3.180-2.180","5x11pzsynjysc0x",251,"185.csv","","null","resources/images/coin2.png","null","",NA,NA,NA,NA,""
"image-keyboard-response",554,527141,"0.0-3.181-0.181","5x11pzsynjysc0x",251,"185.csv","","2346.699999988079","resources/trios/L4T1A3.jpg","38","restless",0.3,0.7,0.4,0.164886596813046,"true"
"image-keyboard-response",555,527550,"0.0-3.181-1.181","5x11pzsynjysc0x",251,"185.csv","","null","resources/maskTrios/BT1B.jpg","null","",NA,NA,NA,NA,""
"image-keyboard-response",556,528762,"0.0-3.181-2.181","5x11pzsynjysc0x",251,"185.csv","","null","resources/images/coin2.png","null","",NA,NA,NA,NA,""
"image-keyboard-response",557,529579,"0.0-3.182-0.182","5x11pzsynjysc0x",251,"185.csv","","815.3000000119209","resources/trios/L4T4A1.jpg","37","restless",0.3,0.7,0.5,0.0388351734078578,"true"
"image-keyboard-response",558,529985,"0.0-3.182-1.182","5x11pzsynjysc0x",251,"185.csv","","null","resources/maskTrios/L4BB.jpg","null","",NA,NA,NA,NA,""
"image-keyboard-response",559,531192,"0.0-3.182-2.182","5x11pzsynjysc0x",251,"185.csv","","null","resources/images/coin2.png","null","",NA,NA,NA,NA,""
"image-keyboard-response",560,533622,"0.0-3.183-0.183","5x11pzsynjysc0x",251,"185.csv","","2428.2999999523163","resources/trios/L2T1A1.jpg","38","restless",0.3,0.7,0.5,0.317544058380762,"true"
"image-keyboard-response",561,534034,"0.0-3.183-1.183","5x11pzsynjysc0x",251,"185.csv","","null","resources/maskTrios/BT1B.jpg","null","",NA,NA,NA,NA,""
"image-keyboard-response",562,535239,"0.0-3.183-2.183","5x11pzsynjysc0x",251,"185.csv","","null","resources/images/coin2.png","null","",NA,NA,NA,NA,""
"image-keyboard-response",563,536395,"0.0-3.184-0.184","5x11pzsynjysc0x",251,"185.csv","","1154.7000000476837","resources/trios/L2T1A1.jpg","38","restless",0.3,0.7,0.5,0.602129952832637,"true"
"image-keyboard-response",564,536799,"0.0-3.184-1.184","5x11pzsynjysc0x",251,"185.csv","","null","resources/maskTrios/BT1B.jpg","null","",NA,NA,NA,NA,""
"image-keyboard-response",565,538007,"0.0-3.184-2.184","5x11pzsynjysc0x",251,"185.csv","","null","resources/images/coin2.png","null","",NA,NA,NA,NA,""
"image-keyboard-response",566,541480,"0.0-3.185-0.185","5x11pzsynjysc0x",251,"185.csv","","3472.099999964237","resources/trios/L4T1A3.jpg","38","restless",0.4,0.7,0.5,0.104238961796796,"true"
"image-keyboard-response",567,541889,"0.0-3.185-1.185","5x11pzsynjysc0x",251,"185.csv","","null","resources/maskTrios/BT1B.jpg","null","",NA,NA,NA,NA,""
"image-keyboard-response",568,543095,"0.0-3.185-2.185","5x11pzsynjysc0x",251,"185.csv","","null","resources/images/coin2.png","null","",NA,NA,NA,NA,""
"image-keyboard-response",569,544688,"0.0-3.186-0.186","5x11pzsynjysc0x",251,"185.csv","","1591.2000000476837","resources/trios/L2T1A3.jpg","38","restless",0.4,0.8,0.4,0.0817230728756912,"true"
"image-keyboard-response",570,545099,"0.0-3.186-1.186","5x11pzsynjysc0x",251,"185.csv","","null","resources/maskTrios/BT1B.jpg","null","",NA,NA,NA,NA,""
"image-keyboard-response",571,546302,"0.0-3.186-2.186","5x11pzsynjysc0x",251,"185.csv","","null","resources/images/coin2.png","null","",NA,NA,NA,NA,""
"image-keyboard-response",572,547889,"0.0-3.187-0.187","5x11pzsynjysc0x",251,"185.csv","","1585.199999988079","resources/trios/L4T1A3.jpg","38","restless",0.4,0.8,0.4,0.870472850547035,"false"
"image-keyboard-response",573,548299,"0.0-3.187-1.187","5x11pzsynjysc0x",251,"185.csv","","null","resources/maskTrios/BT1B.jpg","null","",NA,NA,NA,NA,""
"image-keyboard-response",574,549507,"0.0-3.187-2.187","5x11pzsynjysc0x",251,"185.csv","","null","resources/images/fishbone.png","null","",NA,NA,NA,NA,""
"image-keyboard-response",575,551866,"0.0-3.188-0.188","5x11pzsynjysc0x",251,"185.csv","","2358.300000011921","resources/trios/L4T4A3.jpg","38","restless",0.4,0.8,0.4,0.425749507577762,"true"
"image-keyboard-response",576,552275,"0.0-3.188-1.188","5x11pzsynjysc0x",251,"185.csv","","null","resources/maskTrios/BT4B.jpg","null","",NA,NA,NA,NA,""
"image-keyboard-response",577,553483,"0.0-3.188-2.188","5x11pzsynjysc0x",251,"185.csv","","null","resources/images/coin2.png","null","",NA,NA,NA,NA,""
"image-keyboard-response",578,554822,"0.0-3.189-0.189","5x11pzsynjysc0x",251,"185.csv","","1338","resources/trios/L4T1A1.jpg","39","restless",0.4,0.8,0.4,0.883702270376716,"false"
"image-keyboard-response",579,555234,"0.0-3.189-1.189","5x11pzsynjysc0x",251,"185.csv","","null","resources/maskTrios/BBA1.jpg","null","",NA,NA,NA,NA,""
"image-keyboard-response",580,556438,"0.0-3.189-2.189","5x11pzsynjysc0x",251,"185.csv","","null","resources/images/fishbone.png","null","",NA,NA,NA,NA,""
"image-keyboard-response",581,556986,"0.0-3.190-0.190","5x11pzsynjysc0x",251,"185.csv","","547.1000000238419","resources/trios/L4T1A1.jpg","37","restless",0.4,0.8,0.4,0.128236732126393,"true"
"image-keyboard-response",582,557395,"0.0-3.190-1.190","5x11pzsynjysc0x",251,"185.csv","","null","resources/maskTrios/L4BB.jpg","null","",NA,NA,NA,NA,""
"image-keyboard-response",583,558598,"0.0-3.190-2.190","5x11pzsynjysc0x",251,"185.csv","","null","resources/images/coin2.png","null","",NA,NA,NA,NA,""
"image-keyboard-response",584,561012,"0.0-3.191-0.191","5x11pzsynjysc0x",251,"185.csv","","2412.399999976158","resources/trios/L2T1A1.jpg","38","restless",0.5,0.8,0.4,0.250467839948828,"true"
"image-keyboard-response",585,561419,"0.0-3.191-1.191","5x11pzsynjysc0x",251,"185.csv","","null","resources/maskTrios/BT1B.jpg","null","",NA,NA,NA,NA,""
"image-keyboard-response",586,562624,"0.0-3.191-2.191","5x11pzsynjysc0x",251,"185.csv","","null","resources/images/coin2.png","null","",NA,NA,NA,NA,""
"image-keyboard-response",587,564132,"0.0-3.192-0.192","5x11pzsynjysc0x",251,"185.csv","","1505.800000011921","resources/trios/L4T4A3.jpg","38","restless",0.5,0.8,0.4,0.235178992265039,"true"
"image-keyboard-response",588,564539,"0.0-3.192-1.192","5x11pzsynjysc0x",251,"185.csv","","null","resources/maskTrios/BT4B.jpg","null","",NA,NA,NA,NA,""
"image-keyboard-response",589,565747,"0.0-3.192-2.192","5x11pzsynjysc0x",251,"185.csv","","null","resources/images/coin2.png","null","",NA,NA,NA,NA,""
"image-keyboard-response",590,567541,"0.0-3.193-0.193","5x11pzsynjysc0x",251,"185.csv","","1792","resources/trios/L2T1A3.jpg","37","restless",0.5,0.8,0.3,0.00234280868318959,"true"
"image-keyboard-response",591,567955,"0.0-3.193-1.193","5x11pzsynjysc0x",251,"185.csv","","null","resources/maskTrios/L2BB.jpg","null","",NA,NA,NA,NA,""
"image-keyboard-response",592,569163,"0.0-3.193-2.193","5x11pzsynjysc0x",251,"185.csv","","null","resources/images/coin2.png","null","",NA,NA,NA,NA,""
"image-keyboard-response",593,570505,"0.0-3.194-0.194","5x11pzsynjysc0x",251,"185.csv","","1340.0999999642372","resources/trios/L4T4A1.jpg","39","restless",0.5,0.8,0.3,0.0619586991089782,"true"
"image-keyboard-response",594,570914,"0.0-3.194-1.194","5x11pzsynjysc0x",251,"185.csv","","null","resources/maskTrios/BBA1.jpg","null","",NA,NA,NA,NA,""
"image-keyboard-response",595,572119,"0.0-3.194-2.194","5x11pzsynjysc0x",251,"185.csv","","null","resources/images/coin2.png","null","",NA,NA,NA,NA,""
"image-keyboard-response",596,573736,"0.0-3.195-0.195","5x11pzsynjysc0x",251,"185.csv","","1615.0999999642372","resources/trios/L2T4A1.jpg","37","restless",0.5,0.8,0.3,0.434041116474059,"true"
"image-keyboard-response",597,574144,"0.0-3.195-1.195","5x11pzsynjysc0x",251,"185.csv","","null","resources/maskTrios/L2BB.jpg","null","",NA,NA,NA,NA,""
"image-keyboard-response",598,575351,"0.0-3.195-2.195","5x11pzsynjysc0x",251,"185.csv","","null","resources/images/coin2.png","null","",NA,NA,NA,NA,""
"image-keyboard-response",599,576869,"0.0-3.196-0.196","5x11pzsynjysc0x",251,"185.csv","","1515.5","resources/trios/L4T4A3.jpg","37","restless",0.5,0.8,0.3,0.150518567041839,"true"
"image-keyboard-response",600,577271,"0.0-3.196-1.196","5x11pzsynjysc0x",251,"185.csv","","null","resources/maskTrios/L4BB.jpg","null","",NA,NA,NA,NA,""
"image-keyboard-response",601,578480,"0.0-3.196-2.196","5x11pzsynjysc0x",251,"185.csv","","null","resources/images/coin2.png","null","",NA,NA,NA,NA,""
"image-keyboard-response",602,581670,"0.0-3.197-0.197","5x11pzsynjysc0x",251,"185.csv","","3188.300000011921","resources/trios/L2T4A1.jpg","37","restless",0.5,0.8,0.3,0.861764948954469,"false"
"image-keyboard-response",603,582080,"0.0-3.197-1.197","5x11pzsynjysc0x",251,"185.csv","","null","resources/maskTrios/L2BB.jpg","null","",NA,NA,NA,NA,""
"image-keyboard-response",604,583289,"0.0-3.197-2.197","5x11pzsynjysc0x",251,"185.csv","","null","resources/images/fishbone.png","null","",NA,NA,NA,NA,""
"image-keyboard-response",605,584786,"0.0-3.198-0.198","5x11pzsynjysc0x",251,"185.csv","","1495.5999999642372","resources/trios/L2T4A3.jpg","37","restless",0.5,0.8,0.3,0.381444355486762,"true"
"image-keyboard-response",606,585195,"0.0-3.198-1.198","5x11pzsynjysc0x",251,"185.csv","","null","resources/maskTrios/L2BB.jpg","null","",NA,NA,NA,NA,""
"image-keyboard-response",607,586403,"0.0-3.198-2.198","5x11pzsynjysc0x",251,"185.csv","","null","resources/images/coin2.png","null","",NA,NA,NA,NA,""
