"trial_type","trial_index","time_elapsed","internal_node_id","subject","participantCode","walkNumber","success","rt","stimulus","key_press","test_part","leftProb","midProb","rightProb","generatedNum","correct"
"pavlovia",0,1167,"0.0-0.0","juevtd54px1lch7",580,"162.csv","","","","","",NA,NA,NA,NA,""
"fullscreen",1,23324,"0.0-1.0","juevtd54px1lch7",580,"162.csv","true","","","","",NA,NA,NA,NA,""
"html-keyboard-response",2,30488,"0.0-2.0-0.0","juevtd54px1lch7",580,"162.csv","","7162.300000190735","<p><font size='6'>Arrrgh!</p></font><p>Can you be the best pirate? Try to find lots of gold! But beware, some islands have more gold than others, and over time, the island with the most gold may change. Can YOU figure it out? </p><font size='6'>GOOD LUCK, CAPTAIN!!!</font><p>Press any key to begin</p>","32","",NA,NA,NA,NA,""
"image-keyboard-response",3,33509,"0.0-2.0-1.0","juevtd54px1lch7",580,"162.csv","","null","resources/image_sets/111.png","null","",NA,NA,NA,NA,""
"image-keyboard-response",4,37066,"0.0-2.0-2.0","juevtd54px1lch7",580,"162.csv","","3556.2000000476837","resources/image_sets/left_highlight.png","37","",NA,NA,NA,NA,""
"image-keyboard-response",5,38547,"0.0-2.0-3.0","juevtd54px1lch7",580,"162.csv","","1479.7000000476837","resources/image_sets/mid_highlight.png","38","",NA,NA,NA,NA,""
"image-keyboard-response",6,39311,"0.0-2.0-4.0","juevtd54px1lch7",580,"162.csv","","763.5","resources/image_sets/right_highlight.png","39","",NA,NA,NA,NA,""
"image-keyboard-response",7,45281,"0.0-2.0-5.0","juevtd54px1lch7",580,"162.csv","","5969","resources/image_sets/111.png","13","",NA,NA,NA,NA,""
"image-keyboard-response",8,48516,"0.0-2.0-6.0","juevtd54px1lch7",580,"162.csv","","3234.0999999046326","resources/images/coin2.png","13","",NA,NA,NA,NA,""
"image-keyboard-response",9,50717,"0.0-2.0-7.0","juevtd54px1lch7",580,"162.csv","","2200.7999999523163","resources/images/fishbone.png","13","",NA,NA,NA,NA,""
"html-keyboard-response",10,59446,"0.0-2.0-8.0","juevtd54px1lch7",580,"162.csv","","8728.299999952316","<p>Your first journey will be a long one, but you will get a well deserved break at the end</p><p>After the break you will have four more journeys, but each will be much shorter than the first, and you will have breaks in between each</p><p>Press Enter to begin</p>","13","",NA,NA,NA,NA,""
"image-keyboard-response",11,61602,"0.0-3.0-0.0","juevtd54px1lch7",580,"162.csv","","2154.0999999046326","resources/trios/L4T1A1.jpg","38","restless",0.9,0.7,0.3,0.636239000711462,"true"
"image-keyboard-response",12,62018,"0.0-3.0-1.0","juevtd54px1lch7",580,"162.csv","","null","resources/maskTrios/BT1B.jpg","null","",NA,NA,NA,NA,""
"image-keyboard-response",13,63235,"0.0-3.0-2.0","juevtd54px1lch7",580,"162.csv","","null","resources/images/coin2.png","null","",NA,NA,NA,NA,""
"image-keyboard-response",14,65255,"0.0-3.1-0.1","juevtd54px1lch7",580,"162.csv","","2019.0999999046326","resources/trios/L1T1A3.jpg","37","restless",0.9,0.7,0.3,0.823477652195765,"true"
"image-keyboard-response",15,65672,"0.0-3.1-1.1","juevtd54px1lch7",580,"162.csv","","null","resources/maskTrios/L1BB.jpg","null","",NA,NA,NA,NA,""
"image-keyboard-response",16,66893,"0.0-3.1-2.1","juevtd54px1lch7",580,"162.csv","","null","resources/images/coin2.png","null","",NA,NA,NA,NA,""
"image-keyboard-response",17,68505,"0.0-3.2-0.2","juevtd54px1lch7",580,"162.csv","","1610.4000000953674","resources/trios/L1T2A3.jpg","38","restless",0.9,0.7,0.2,0.112946129720612,"true"
"image-keyboard-response",18,68923,"0.0-3.2-1.2","juevtd54px1lch7",580,"162.csv","","null","resources/maskTrios/BT2B.jpg","null","",NA,NA,NA,NA,""
"image-keyboard-response",19,70138,"0.0-3.2-2.2","juevtd54px1lch7",580,"162.csv","","null","resources/images/coin2.png","null","",NA,NA,NA,NA,""
"image-keyboard-response",20,71874,"0.0-3.3-0.3","juevtd54px1lch7",580,"162.csv","","1734.2000000476837","resources/trios/L4T1A1.jpg","37","restless",0.9,0.7,0.1,0.186810831826828,"true"
"image-keyboard-response",21,72280,"0.0-3.3-1.3","juevtd54px1lch7",580,"162.csv","","null","resources/maskTrios/L4BB.jpg","null","",NA,NA,NA,NA,""
"image-keyboard-response",22,73501,"0.0-3.3-2.3","juevtd54px1lch7",580,"162.csv","","null","resources/images/coin2.png","null","",NA,NA,NA,NA,""
"image-keyboard-response",23,75583,"0.0-3.4-0.4","juevtd54px1lch7",580,"162.csv","","2081.100000143051","resources/trios/L4T1A3.jpg","37","restless",0.9,0.7,0.2,0.735811623557252,"true"
"image-keyboard-response",24,76006,"0.0-3.4-1.4","juevtd54px1lch7",580,"162.csv","","null","resources/maskTrios/L4BB.jpg","null","",NA,NA,NA,NA,""
"image-keyboard-response",25,77213,"0.0-3.4-2.4","juevtd54px1lch7",580,"162.csv","","null","resources/images/coin2.png","null","",NA,NA,NA,NA,""
"image-keyboard-response",26,78467,"0.0-3.5-0.5","juevtd54px1lch7",580,"162.csv","","1252.2000000476837","resources/trios/L4T2A1.jpg","38","restless",0.9,0.7,0.2,0.743397553326215,"false"
"image-keyboard-response",27,78887,"0.0-3.5-1.5","juevtd54px1lch7",580,"162.csv","","null","resources/maskTrios/BT2B.jpg","null","",NA,NA,NA,NA,""
"image-keyboard-response",28,80103,"0.0-3.5-2.5","juevtd54px1lch7",580,"162.csv","","null","resources/images/fishbone.png","null","",NA,NA,NA,NA,""
"image-keyboard-response",29,81045,"0.0-3.6-0.6","juevtd54px1lch7",580,"162.csv","","941","resources/trios/L4T2A1.jpg","39","restless",0.9,0.7,0.2,0.753664831576537,"false"
"image-keyboard-response",30,81449,"0.0-3.6-1.6","juevtd54px1lch7",580,"162.csv","","null","resources/maskTrios/BBA1.jpg","null","",NA,NA,NA,NA,""
"image-keyboard-response",31,82668,"0.0-3.6-2.6","juevtd54px1lch7",580,"162.csv","","null","resources/images/fishbone.png","null","",NA,NA,NA,NA,""
"image-keyboard-response",32,83488,"0.0-3.7-0.7","juevtd54px1lch7",580,"162.csv","","819.2000000476837","resources/trios/L1T2A3.jpg","37","restless",0.9,0.6,0.2,0.566750088846429,"true"
"image-keyboard-response",33,83910,"0.0-3.7-1.7","juevtd54px1lch7",580,"162.csv","","null","resources/maskTrios/L1BB.jpg","null","",NA,NA,NA,NA,""
"image-keyboard-response",34,85113,"0.0-3.7-2.7","juevtd54px1lch7",580,"162.csv","","null","resources/images/coin2.png","null","",NA,NA,NA,NA,""
"image-keyboard-response",35,87691,"0.0-3.8-0.8","juevtd54px1lch7",580,"162.csv","","2576.4000000953674","resources/trios/L4T2A3.jpg","37","restless",0.9,0.6,0.2,0.682542293580751,"true"
"image-keyboard-response",36,88109,"0.0-3.8-1.8","juevtd54px1lch7",580,"162.csv","","null","resources/maskTrios/L4BB.jpg","null","",NA,NA,NA,NA,""
"image-keyboard-response",37,89324,"0.0-3.8-2.8","juevtd54px1lch7",580,"162.csv","","null","resources/images/coin2.png","null","",NA,NA,NA,NA,""
"image-keyboard-response",38,90228,"0.0-3.9-0.9","juevtd54px1lch7",580,"162.csv","","902","resources/trios/L4T2A1.jpg","37","restless",0.9,0.5,0.2,0.290777479817865,"true"
"image-keyboard-response",39,90634,"0.0-3.9-1.9","juevtd54px1lch7",580,"162.csv","","null","resources/maskTrios/L4BB.jpg","null","",NA,NA,NA,NA,""
"image-keyboard-response",40,91840,"0.0-3.9-2.9","juevtd54px1lch7",580,"162.csv","","null","resources/images/coin2.png","null","",NA,NA,NA,NA,""
"image-keyboard-response",41,92713,"0.0-3.10-0.10","juevtd54px1lch7",580,"162.csv","","872.1999998092651","resources/trios/L1T2A3.jpg","37","restless",0.9,0.5,0.2,0.750893178788738,"true"
"image-keyboard-response",42,93133,"0.0-3.10-1.10","juevtd54px1lch7",580,"162.csv","","null","resources/maskTrios/L1BB.jpg","null","",NA,NA,NA,NA,""
"image-keyboard-response",43,94350,"0.0-3.10-2.10","juevtd54px1lch7",580,"162.csv","","null","resources/images/coin2.png","null","",NA,NA,NA,NA,""
"image-keyboard-response",44,94713,"0.0-3.11-0.11","juevtd54px1lch7",580,"162.csv","","361.5","resources/trios/L1T1A3.jpg","37","restless",0.9,0.5,0.2,0.313633654853413,"true"
"image-keyboard-response",45,95135,"0.0-3.11-1.11","juevtd54px1lch7",580,"162.csv","","null","resources/maskTrios/L1BB.jpg","null","",NA,NA,NA,NA,""
"image-keyboard-response",46,96351,"0.0-3.11-2.11","juevtd54px1lch7",580,"162.csv","","null","resources/images/coin2.png","null","",NA,NA,NA,NA,""
"image-keyboard-response",47,96911,"0.0-3.12-0.12","juevtd54px1lch7",580,"162.csv","","559.6000001430511","resources/trios/L4T1A3.jpg","37","restless",0.9,0.5,0.2,0.112686350343225,"true"
"image-keyboard-response",48,97332,"0.0-3.12-1.12","juevtd54px1lch7",580,"162.csv","","null","resources/maskTrios/L4BB.jpg","null","",NA,NA,NA,NA,""
"image-keyboard-response",49,98537,"0.0-3.12-2.12","juevtd54px1lch7",580,"162.csv","","null","resources/images/coin2.png","null","",NA,NA,NA,NA,""
"image-keyboard-response",50,98943,"0.0-3.13-0.13","juevtd54px1lch7",580,"162.csv","","404.40000009536743","resources/trios/L4T2A3.jpg","37","restless",0.9,0.5,0.3,0.428377018036315,"true"
"image-keyboard-response",51,99348,"0.0-3.13-1.13","juevtd54px1lch7",580,"162.csv","","null","resources/maskTrios/L4BB.jpg","null","",NA,NA,NA,NA,""
"image-keyboard-response",52,100556,"0.0-3.13-2.13","juevtd54px1lch7",580,"162.csv","","null","resources/images/coin2.png","null","",NA,NA,NA,NA,""
"image-keyboard-response",53,101057,"0.0-3.14-0.14","juevtd54px1lch7",580,"162.csv","","499.7000000476837","resources/trios/L4T1A3.jpg","37","restless",0.9,0.5,0.3,0.567855021704258,"true"
"image-keyboard-response",54,101478,"0.0-3.14-1.14","juevtd54px1lch7",580,"162.csv","","null","resources/maskTrios/L4BB.jpg","null","",NA,NA,NA,NA,""
"image-keyboard-response",55,102683,"0.0-3.14-2.14","juevtd54px1lch7",580,"162.csv","","null","resources/images/coin2.png","null","",NA,NA,NA,NA,""
"image-keyboard-response",56,103136,"0.0-3.15-0.15","juevtd54px1lch7",580,"162.csv","","451.60000014305115","resources/trios/L4T2A3.jpg","37","restless",0.9,0.5,0.3,0.539388844333575,"true"
"image-keyboard-response",57,103558,"0.0-3.15-1.15","juevtd54px1lch7",580,"162.csv","","null","resources/maskTrios/L4BB.jpg","null","",NA,NA,NA,NA,""
"image-keyboard-response",58,104774,"0.0-3.15-2.15","juevtd54px1lch7",580,"162.csv","","null","resources/images/coin2.png","null","",NA,NA,NA,NA,""
"image-keyboard-response",59,105167,"0.0-3.16-0.16","juevtd54px1lch7",580,"162.csv","","392.7999999523163","resources/trios/L4T2A3.jpg","37","restless",0.9,0.5,0.4,0.230750577431138,"true"
"image-keyboard-response",60,105589,"0.0-3.16-1.16","juevtd54px1lch7",580,"162.csv","","null","resources/maskTrios/L4BB.jpg","null","",NA,NA,NA,NA,""
"image-keyboard-response",61,106802,"0.0-3.16-2.16","juevtd54px1lch7",580,"162.csv","","null","resources/images/coin2.png","null","",NA,NA,NA,NA,""
"image-keyboard-response",62,107208,"0.0-3.17-0.17","juevtd54px1lch7",580,"162.csv","","404.90000009536743","resources/trios/L1T2A1.jpg","37","restless",0.9,0.5,0.4,0.508856840342195,"true"
"image-keyboard-response",63,107627,"0.0-3.17-1.17","juevtd54px1lch7",580,"162.csv","","null","resources/maskTrios/L1BB.jpg","null","",NA,NA,NA,NA,""
"image-keyboard-response",64,108846,"0.0-3.17-2.17","juevtd54px1lch7",580,"162.csv","","null","resources/images/coin2.png","null","",NA,NA,NA,NA,""
"image-keyboard-response",65,109365,"0.0-3.18-0.18","juevtd54px1lch7",580,"162.csv","","517.7999999523163","resources/trios/L1T1A1.jpg","37","restless",0.9,0.5,0.4,0.425628845157016,"true"
"image-keyboard-response",66,109771,"0.0-3.18-1.18","juevtd54px1lch7",580,"162.csv","","null","resources/maskTrios/L1BB.jpg","null","",NA,NA,NA,NA,""
"image-keyboard-response",67,110977,"0.0-3.18-2.18","juevtd54px1lch7",580,"162.csv","","null","resources/images/coin2.png","null","",NA,NA,NA,NA,""
"image-keyboard-response",68,111400,"0.0-3.19-0.19","juevtd54px1lch7",580,"162.csv","","421.5","resources/trios/L1T2A1.jpg","37","restless",0.9,0.5,0.4,0.733110897217333,"true"
"image-keyboard-response",69,111808,"0.0-3.19-1.19","juevtd54px1lch7",580,"162.csv","","null","resources/maskTrios/L1BB.jpg","null","",NA,NA,NA,NA,""
"image-keyboard-response",70,113025,"0.0-3.19-2.19","juevtd54px1lch7",580,"162.csv","","null","resources/images/coin2.png","null","",NA,NA,NA,NA,""
"image-keyboard-response",71,113357,"0.0-3.20-0.20","juevtd54px1lch7",580,"162.csv","","330.7999999523163","resources/trios/L1T1A3.jpg","37","restless",0.9,0.5,0.4,0.212364092534259,"true"
"image-keyboard-response",72,113763,"0.0-3.20-1.20","juevtd54px1lch7",580,"162.csv","","null","resources/maskTrios/L1BB.jpg","null","",NA,NA,NA,NA,""
"image-keyboard-response",73,114981,"0.0-3.20-2.20","juevtd54px1lch7",580,"162.csv","","null","resources/images/coin2.png","null","",NA,NA,NA,NA,""
"image-keyboard-response",74,115360,"0.0-3.21-0.21","juevtd54px1lch7",580,"162.csv","","377.39999985694885","resources/trios/L4T2A3.jpg","37","restless",0.9,0.5,0.4,0.972100176747799,"false"
"image-keyboard-response",75,115780,"0.0-3.21-1.21","juevtd54px1lch7",580,"162.csv","","null","resources/maskTrios/L4BB.jpg","null","",NA,NA,NA,NA,""
"image-keyboard-response",76,116995,"0.0-3.21-2.21","juevtd54px1lch7",580,"162.csv","","null","resources/images/fishbone.png","null","",NA,NA,NA,NA,""
"image-keyboard-response",77,119236,"0.0-3.22-0.22","juevtd54px1lch7",580,"162.csv","","2239.5","resources/trios/L4T1A3.jpg","38","restless",0.9,0.5,0.4,0.730045743110966,"false"
"image-keyboard-response",78,119654,"0.0-3.22-1.22","juevtd54px1lch7",580,"162.csv","","null","resources/maskTrios/BT1B.jpg","null","",NA,NA,NA,NA,""
"image-keyboard-response",79,120871,"0.0-3.22-2.22","juevtd54px1lch7",580,"162.csv","","null","resources/images/fishbone.png","null","",NA,NA,NA,NA,""
"image-keyboard-response",80,122371,"0.0-3.23-0.23","juevtd54px1lch7",580,"162.csv","","1499.2999999523163","resources/trios/L4T1A3.jpg","39","restless",0.9,0.5,0.4,0.751343332230497,"false"
"image-keyboard-response",81,122778,"0.0-3.23-1.23","juevtd54px1lch7",580,"162.csv","","null","resources/maskTrios/BBA3.jpg","null","",NA,NA,NA,NA,""
"image-keyboard-response",82,123993,"0.0-3.23-2.23","juevtd54px1lch7",580,"162.csv","","null","resources/images/fishbone.png","null","",NA,NA,NA,NA,""
"image-keyboard-response",83,124963,"0.0-3.24-0.24","juevtd54px1lch7",580,"162.csv","","968.6999998092651","resources/trios/L1T2A1.jpg","37","restless",0.9,0.5,0.4,0.170498106914218,"true"
"image-keyboard-response",84,125368,"0.0-3.24-1.24","juevtd54px1lch7",580,"162.csv","","null","resources/maskTrios/L1BB.jpg","null","",NA,NA,NA,NA,""
"image-keyboard-response",85,126591,"0.0-3.24-2.24","juevtd54px1lch7",580,"162.csv","","null","resources/images/coin2.png","null","",NA,NA,NA,NA,""
"image-keyboard-response",86,127969,"0.0-3.25-0.25","juevtd54px1lch7",580,"162.csv","","1376.6999998092651","resources/trios/L4T2A1.jpg","38","restless",0.9,0.5,0.4,0.906195211148806,"false"
"image-keyboard-response",87,128390,"0.0-3.25-1.25","juevtd54px1lch7",580,"162.csv","","null","resources/maskTrios/BT2B.jpg","null","",NA,NA,NA,NA,""
"image-keyboard-response",88,129595,"0.0-3.25-2.25","juevtd54px1lch7",580,"162.csv","","null","resources/images/fishbone.png","null","",NA,NA,NA,NA,""
"image-keyboard-response",89,130565,"0.0-3.26-0.26","juevtd54px1lch7",580,"162.csv","","968.7999999523163","resources/trios/L1T1A3.jpg","37","restless",0.9,0.5,0.5,0.243515557164502,"true"
"image-keyboard-response",90,130973,"0.0-3.26-1.26","juevtd54px1lch7",580,"162.csv","","null","resources/maskTrios/L1BB.jpg","null","",NA,NA,NA,NA,""
"image-keyboard-response",91,132182,"0.0-3.26-2.26","juevtd54px1lch7",580,"162.csv","","null","resources/images/coin2.png","null","",NA,NA,NA,NA,""
"image-keyboard-response",92,133893,"0.0-3.27-0.27","juevtd54px1lch7",580,"162.csv","","1710.5999999046326","resources/trios/L4T1A3.jpg","39","restless",0.9,0.5,0.5,0.32260533916685,"true"
"image-keyboard-response",93,134298,"0.0-3.27-1.27","juevtd54px1lch7",580,"162.csv","","null","resources/maskTrios/BBA3.jpg","null","",NA,NA,NA,NA,""
"image-keyboard-response",94,135516,"0.0-3.27-2.27","juevtd54px1lch7",580,"162.csv","","null","resources/images/coin2.png","null","",NA,NA,NA,NA,""
"image-keyboard-response",95,136514,"0.0-3.28-0.28","juevtd54px1lch7",580,"162.csv","","997","resources/trios/L1T2A3.jpg","37","restless",0.9,0.5,0.5,0.113717950410682,"true"
"image-keyboard-response",96,136920,"0.0-3.28-1.28","juevtd54px1lch7",580,"162.csv","","null","resources/maskTrios/L1BB.jpg","null","",NA,NA,NA,NA,""
"image-keyboard-response",97,138137,"0.0-3.28-2.28","juevtd54px1lch7",580,"162.csv","","null","resources/images/coin2.png","null","",NA,NA,NA,NA,""
"image-keyboard-response",98,140420,"0.0-3.29-0.29","juevtd54px1lch7",580,"162.csv","","2281.399999856949","resources/trios/L4T2A3.jpg","39","restless",0.9,0.5,0.5,0.867141164840646,"false"
"image-keyboard-response",99,140825,"0.0-3.29-1.29","juevtd54px1lch7",580,"162.csv","","null","resources/maskTrios/BBA3.jpg","null","",NA,NA,NA,NA,""
"image-keyboard-response",100,142047,"0.0-3.29-2.29","juevtd54px1lch7",580,"162.csv","","null","resources/images/fishbone.png","null","",NA,NA,NA,NA,""
"image-keyboard-response",101,143985,"0.0-3.30-0.30","juevtd54px1lch7",580,"162.csv","","1936.8999998569489","resources/trios/L1T2A3.jpg","37","restless",0.9,0.5,0.5,0.698615241366426,"true"
"image-keyboard-response",102,144405,"0.0-3.30-1.30","juevtd54px1lch7",580,"162.csv","","null","resources/maskTrios/L1BB.jpg","null","",NA,NA,NA,NA,""
"image-keyboard-response",103,145609,"0.0-3.30-2.30","juevtd54px1lch7",580,"162.csv","","null","resources/images/coin2.png","null","",NA,NA,NA,NA,""
"image-keyboard-response",104,146423,"0.0-3.31-0.31","juevtd54px1lch7",580,"162.csv","","812.8999998569489","resources/trios/L1T2A1.jpg","37","restless",0.9,0.5,0.5,0.771923334190172,"true"
"image-keyboard-response",105,146841,"0.0-3.31-1.31","juevtd54px1lch7",580,"162.csv","","null","resources/maskTrios/L1BB.jpg","null","",NA,NA,NA,NA,""
"image-keyboard-response",106,148062,"0.0-3.31-2.31","juevtd54px1lch7",580,"162.csv","","null","resources/images/coin2.png","null","",NA,NA,NA,NA,""
"image-keyboard-response",107,148532,"0.0-3.32-0.32","juevtd54px1lch7",580,"162.csv","","469.2999999523163","resources/trios/L1T2A1.jpg","37","restless",0.9,0.5,0.5,0.21851823382482,"true"
"image-keyboard-response",108,148950,"0.0-3.32-1.32","juevtd54px1lch7",580,"162.csv","","null","resources/maskTrios/L1BB.jpg","null","",NA,NA,NA,NA,""
"image-keyboard-response",109,150153,"0.0-3.32-2.32","juevtd54px1lch7",580,"162.csv","","null","resources/images/coin2.png","null","",NA,NA,NA,NA,""
"image-keyboard-response",110,150562,"0.0-3.33-0.33","juevtd54px1lch7",580,"162.csv","","407.5","resources/trios/L1T2A3.jpg","37","restless",0.9,0.5,0.5,0.617030582103486,"true"
"image-keyboard-response",111,150968,"0.0-3.33-1.33","juevtd54px1lch7",580,"162.csv","","null","resources/maskTrios/L1BB.jpg","null","",NA,NA,NA,NA,""
"image-keyboard-response",112,152190,"0.0-3.33-2.33","juevtd54px1lch7",580,"162.csv","","null","resources/images/coin2.png","null","",NA,NA,NA,NA,""
"image-keyboard-response",113,155022,"0.0-3.34-0.34","juevtd54px1lch7",580,"162.csv","","2831.199999809265","resources/trios/L4T1A1.jpg","39","restless",0.9,0.5,0.5,0.210971037843386,"true"
"image-keyboard-response",114,155429,"0.0-3.34-1.34","juevtd54px1lch7",580,"162.csv","","null","resources/maskTrios/BBA1.jpg","null","",NA,NA,NA,NA,""
"image-keyboard-response",115,156640,"0.0-3.34-2.34","juevtd54px1lch7",580,"162.csv","","null","resources/images/coin2.png","null","",NA,NA,NA,NA,""
"image-keyboard-response",116,157627,"0.0-3.35-0.35","juevtd54px1lch7",580,"162.csv","","985.5999999046326","resources/trios/L4T1A1.jpg","39","restless",0.9,0.5,0.5,0.589098846201228,"false"
"image-keyboard-response",117,158044,"0.0-3.35-1.35","juevtd54px1lch7",580,"162.csv","","null","resources/maskTrios/BBA1.jpg","null","",NA,NA,NA,NA,""
"image-keyboard-response",118,159250,"0.0-3.35-2.35","juevtd54px1lch7",580,"162.csv","","null","resources/images/fishbone.png","null","",NA,NA,NA,NA,""
"image-keyboard-response",119,160377,"0.0-3.36-0.36","juevtd54px1lch7",580,"162.csv","","1125.7999999523163","resources/trios/L1T2A3.jpg","37","restless",0.9,0.5,0.5,0.460516447331425,"true"
"image-keyboard-response",120,160798,"0.0-3.36-1.36","juevtd54px1lch7",580,"162.csv","","null","resources/maskTrios/L1BB.jpg","null","",NA,NA,NA,NA,""
"image-keyboard-response",121,162016,"0.0-3.36-2.36","juevtd54px1lch7",580,"162.csv","","null","resources/images/coin2.png","null","",NA,NA,NA,NA,""
"image-keyboard-response",122,163268,"0.0-3.37-0.37","juevtd54px1lch7",580,"162.csv","","1251.2000000476837","resources/trios/L1T1A1.jpg","37","restless",0.9,0.4,0.5,0.652188027798597,"true"
"image-keyboard-response",123,163686,"0.0-3.37-1.37","juevtd54px1lch7",580,"162.csv","","null","resources/maskTrios/L1BB.jpg","null","",NA,NA,NA,NA,""
"image-keyboard-response",124,164902,"0.0-3.37-2.37","juevtd54px1lch7",580,"162.csv","","null","resources/images/coin2.png","null","",NA,NA,NA,NA,""
"image-keyboard-response",125,167128,"0.0-3.38-0.38","juevtd54px1lch7",580,"162.csv","","2224.600000143051","resources/trios/L4T2A3.jpg","39","restless",0.9,0.4,0.6,0.807436700711481,"false"
"image-keyboard-response",126,167549,"0.0-3.38-1.38","juevtd54px1lch7",580,"162.csv","","null","resources/maskTrios/BBA3.jpg","null","",NA,NA,NA,NA,""
"image-keyboard-response",127,168754,"0.0-3.38-2.38","juevtd54px1lch7",580,"162.csv","","null","resources/images/fishbone.png","null","",NA,NA,NA,NA,""
"image-keyboard-response",128,171184,"0.0-3.39-0.39","juevtd54px1lch7",580,"162.csv","","2428.7999999523163","resources/trios/L4T2A1.jpg","39","restless",0.9,0.4,0.6,0.171158589006003,"true"
"image-keyboard-response",129,171605,"0.0-3.39-1.39","juevtd54px1lch7",580,"162.csv","","null","resources/maskTrios/BBA1.jpg","null","",NA,NA,NA,NA,""
"image-keyboard-response",130,172824,"0.0-3.39-2.39","juevtd54px1lch7",580,"162.csv","","null","resources/images/coin2.png","null","",NA,NA,NA,NA,""
"image-keyboard-response",131,173749,"0.0-3.40-0.40","juevtd54px1lch7",580,"162.csv","","924.1999998092651","resources/trios/L1T1A3.jpg","37","restless",0.8,0.4,0.6,0.195893798858508,"true"
"image-keyboard-response",132,174168,"0.0-3.40-1.40","juevtd54px1lch7",580,"162.csv","","null","resources/maskTrios/L1BB.jpg","null","",NA,NA,NA,NA,""
"image-keyboard-response",133,175389,"0.0-3.40-2.40","juevtd54px1lch7",580,"162.csv","","null","resources/images/coin2.png","null","",NA,NA,NA,NA,""
"image-keyboard-response",134,177309,"0.0-3.41-0.41","juevtd54px1lch7",580,"162.csv","","1918.2999999523163","resources/trios/L4T1A1.jpg","39","restless",0.8,0.4,0.6,0.967555908996052,"false"
"image-keyboard-response",135,177713,"0.0-3.41-1.41","juevtd54px1lch7",580,"162.csv","","null","resources/maskTrios/BBA1.jpg","null","",NA,NA,NA,NA,""
"image-keyboard-response",136,178926,"0.0-3.41-2.41","juevtd54px1lch7",580,"162.csv","","null","resources/images/fishbone.png","null","",NA,NA,NA,NA,""
"image-keyboard-response",137,180969,"0.0-3.42-0.42","juevtd54px1lch7",580,"162.csv","","2041.8999998569489","resources/trios/L4T1A1.jpg","38","restless",0.8,0.4,0.6,0.180941121522573,"true"
"image-keyboard-response",138,181390,"0.0-3.42-1.42","juevtd54px1lch7",580,"162.csv","","null","resources/maskTrios/BT1B.jpg","null","",NA,NA,NA,NA,""
"image-keyboard-response",139,182607,"0.0-3.42-2.42","juevtd54px1lch7",580,"162.csv","","null","resources/images/coin2.png","null","",NA,NA,NA,NA,""
"image-keyboard-response",140,184538,"0.0-3.43-0.43","juevtd54px1lch7",580,"162.csv","","1930.7000000476837","resources/trios/L4T1A3.jpg","38","restless",0.8,0.4,0.6,0.998214246094995,"false"
"image-keyboard-response",141,184959,"0.0-3.43-1.43","juevtd54px1lch7",580,"162.csv","","null","resources/maskTrios/BT1B.jpg","null","",NA,NA,NA,NA,""
"image-keyboard-response",142,186164,"0.0-3.43-2.43","juevtd54px1lch7",580,"162.csv","","null","resources/images/fishbone.png","null","",NA,NA,NA,NA,""
"image-keyboard-response",143,187008,"0.0-3.44-0.44","juevtd54px1lch7",580,"162.csv","","843.7000000476837","resources/trios/L4T2A3.jpg","39","restless",0.8,0.4,0.6,0.279803659001999,"true"
"image-keyboard-response",144,187430,"0.0-3.44-1.44","juevtd54px1lch7",580,"162.csv","","null","resources/maskTrios/BBA3.jpg","null","",NA,NA,NA,NA,""
"image-keyboard-response",145,188639,"0.0-3.44-2.44","juevtd54px1lch7",580,"162.csv","","null","resources/images/coin2.png","null","",NA,NA,NA,NA,""
"image-keyboard-response",146,189410,"0.0-3.45-0.45","juevtd54px1lch7",580,"162.csv","","770.2999999523163","resources/trios/L1T2A1.jpg","37","restless",0.8,0.3,0.6,0.698060494779637,"true"
"image-keyboard-response",147,189830,"0.0-3.45-1.45","juevtd54px1lch7",580,"162.csv","","null","resources/maskTrios/L1BB.jpg","null","",NA,NA,NA,NA,""
"image-keyboard-response",148,191046,"0.0-3.45-2.45","juevtd54px1lch7",580,"162.csv","","null","resources/images/coin2.png","null","",NA,NA,NA,NA,""
"image-keyboard-response",149,196126,"0.0-3.46-0.46","juevtd54px1lch7",580,"162.csv","","5079.100000143051","resources/trios/L4T2A3.jpg","39","restless",0.8,0.3,0.7,0.975264531408955,"false"
"image-keyboard-response",150,196530,"0.0-3.46-1.46","juevtd54px1lch7",580,"162.csv","","null","resources/maskTrios/BBA3.jpg","null","",NA,NA,NA,NA,""
"image-keyboard-response",151,197747,"0.0-3.46-2.46","juevtd54px1lch7",580,"162.csv","","null","resources/images/fishbone.png","null","",NA,NA,NA,NA,""
"image-keyboard-response",152,198877,"0.0-3.47-0.47","juevtd54px1lch7",580,"162.csv","","1129","resources/trios/L1T2A1.jpg","37","restless",0.8,0.3,0.7,0.562575254754105,"true"
"image-keyboard-response",153,199284,"0.0-3.47-1.47","juevtd54px1lch7",580,"162.csv","","null","resources/maskTrios/L1BB.jpg","null","",NA,NA,NA,NA,""
"image-keyboard-response",154,200500,"0.0-3.47-2.47","juevtd54px1lch7",580,"162.csv","","null","resources/images/coin2.png","null","",NA,NA,NA,NA,""
"image-keyboard-response",155,201795,"0.0-3.48-0.48","juevtd54px1lch7",580,"162.csv","","1294.4000000953674","resources/trios/L4T2A3.jpg","38","restless",0.8,0.3,0.7,0.0767593460823495,"true"
"image-keyboard-response",156,202214,"0.0-3.48-1.48","juevtd54px1lch7",580,"162.csv","","null","resources/maskTrios/BT2B.jpg","null","",NA,NA,NA,NA,""
"image-keyboard-response",157,203430,"0.0-3.48-2.48","juevtd54px1lch7",580,"162.csv","","null","resources/images/coin2.png","null","",NA,NA,NA,NA,""
"image-keyboard-response",158,205419,"0.0-3.49-0.49","juevtd54px1lch7",580,"162.csv","","1987.8999998569489","resources/trios/L4T2A3.jpg","38","restless",0.8,0.3,0.7,0.497446285391075,"false"
"image-keyboard-response",159,205825,"0.0-3.49-1.49","juevtd54px1lch7",580,"162.csv","","null","resources/maskTrios/BT2B.jpg","null","",NA,NA,NA,NA,""
"image-keyboard-response",160,207044,"0.0-3.49-2.49","juevtd54px1lch7",580,"162.csv","","null","resources/images/fishbone.png","null","",NA,NA,NA,NA,""
"image-keyboard-response",161,208434,"0.0-3.50-0.50","juevtd54px1lch7",580,"162.csv","","1388.6000001430511","resources/trios/L1T1A3.jpg","37","restless",0.8,0.3,0.7,0.415516414706631,"true"
"image-keyboard-response",162,208855,"0.0-3.50-1.50","juevtd54px1lch7",580,"162.csv","","null","resources/maskTrios/L1BB.jpg","null","",NA,NA,NA,NA,""
"image-keyboard-response",163,210073,"0.0-3.50-2.50","juevtd54px1lch7",580,"162.csv","","null","resources/images/coin2.png","null","",NA,NA,NA,NA,""
"image-keyboard-response",164,210555,"0.0-3.51-0.51","juevtd54px1lch7",580,"162.csv","","480.89999985694885","resources/trios/L1T2A1.jpg","37","restless",0.8,0.3,0.7,0.666022167016268,"true"
"image-keyboard-response",165,210975,"0.0-3.51-1.51","juevtd54px1lch7",580,"162.csv","","null","resources/maskTrios/L1BB.jpg","null","",NA,NA,NA,NA,""
"image-keyboard-response",166,212195,"0.0-3.51-2.51","juevtd54px1lch7",580,"162.csv","","null","resources/images/coin2.png","null","",NA,NA,NA,NA,""
"image-keyboard-response",167,217225,"0.0-3.52-0.52","juevtd54px1lch7",580,"162.csv","","5029.400000095367","resources/trios/L4T1A3.jpg","38","restless",0.7,0.3,0.7,0.455483764567006,"false"
"image-keyboard-response",168,217646,"0.0-3.52-1.52","juevtd54px1lch7",580,"162.csv","","null","resources/maskTrios/BT1B.jpg","null","",NA,NA,NA,NA,""
"image-keyboard-response",169,218857,"0.0-3.52-2.52","juevtd54px1lch7",580,"162.csv","","null","resources/images/fishbone.png","null","",NA,NA,NA,NA,""
"image-keyboard-response",170,219610,"0.0-3.53-0.53","juevtd54px1lch7",580,"162.csv","","752.7000000476837","resources/trios/L1T2A1.jpg","37","restless",0.7,0.3,0.7,0.575920919619294,"true"
"image-keyboard-response",171,220017,"0.0-3.53-1.53","juevtd54px1lch7",580,"162.csv","","null","resources/maskTrios/L1BB.jpg","null","",NA,NA,NA,NA,""
"image-keyboard-response",172,221237,"0.0-3.53-2.53","juevtd54px1lch7",580,"162.csv","","null","resources/images/coin2.png","null","",NA,NA,NA,NA,""
"image-keyboard-response",173,222004,"0.0-3.54-0.54","juevtd54px1lch7",580,"162.csv","","765.5999999046326","resources/trios/L1T2A3.jpg","37","restless",0.7,0.3,0.7,0.431201454712339,"true"
"image-keyboard-response",174,222423,"0.0-3.54-1.54","juevtd54px1lch7",580,"162.csv","","null","resources/maskTrios/L1BB.jpg","null","",NA,NA,NA,NA,""
"image-keyboard-response",175,223639,"0.0-3.54-2.54","juevtd54px1lch7",580,"162.csv","","null","resources/images/coin2.png","null","",NA,NA,NA,NA,""
"image-keyboard-response",176,224250,"0.0-3.55-0.55","juevtd54px1lch7",580,"162.csv","","609.4000000953674","resources/trios/L1T1A1.jpg","37","restless",0.7,0.3,0.7,0.693012197908738,"true"
"image-keyboard-response",177,224657,"0.0-3.55-1.55","juevtd54px1lch7",580,"162.csv","","null","resources/maskTrios/L1BB.jpg","null","",NA,NA,NA,NA,""
"image-keyboard-response",178,225865,"0.0-3.55-2.55","juevtd54px1lch7",580,"162.csv","","null","resources/images/coin2.png","null","",NA,NA,NA,NA,""
"image-keyboard-response",179,229274,"0.0-3.56-0.56","juevtd54px1lch7",580,"162.csv","","3407.600000143051","resources/trios/L4T1A3.jpg","39","restless",0.7,0.2,0.7,0.484198101158418,"true"
"image-keyboard-response",180,229692,"0.0-3.56-1.56","juevtd54px1lch7",580,"162.csv","","null","resources/maskTrios/BBA3.jpg","null","",NA,NA,NA,NA,""
"image-keyboard-response",181,230899,"0.0-3.56-2.56","juevtd54px1lch7",580,"162.csv","","null","resources/images/coin2.png","null","",NA,NA,NA,NA,""
"image-keyboard-response",182,232561,"0.0-3.57-0.57","juevtd54px1lch7",580,"162.csv","","1660.1999998092651","resources/trios/L1T1A1.jpg","37","restless",0.7,0.2,0.7,0.768949837356818,"false"
"image-keyboard-response",183,232980,"0.0-3.57-1.57","juevtd54px1lch7",580,"162.csv","","null","resources/maskTrios/L1BB.jpg","null","",NA,NA,NA,NA,""
"image-keyboard-response",184,234186,"0.0-3.57-2.57","juevtd54px1lch7",580,"162.csv","","null","resources/images/fishbone.png","null","",NA,NA,NA,NA,""
"image-keyboard-response",185,238182,"0.0-3.58-0.58","juevtd54px1lch7",580,"162.csv","","3994.5999999046326","resources/trios/L4T1A1.jpg","39","restless",0.7,0.2,0.7,0.684314910115179,"true"
"image-keyboard-response",186,238586,"0.0-3.58-1.58","juevtd54px1lch7",580,"162.csv","","null","resources/maskTrios/BBA1.jpg","null","",NA,NA,NA,NA,""
"image-keyboard-response",187,239799,"0.0-3.58-2.58","juevtd54px1lch7",580,"162.csv","","null","resources/images/coin2.png","null","",NA,NA,NA,NA,""
"image-keyboard-response",188,243033,"0.0-3.59-0.59","juevtd54px1lch7",580,"162.csv","","3233.399999856949","resources/trios/L4T1A1.jpg","39","restless",0.8,0.2,0.7,0.384478823305174,"true"
"image-keyboard-response",189,243452,"0.0-3.59-1.59","juevtd54px1lch7",580,"162.csv","","null","resources/maskTrios/BBA1.jpg","null","",NA,NA,NA,NA,""
"image-keyboard-response",190,244662,"0.0-3.59-2.59","juevtd54px1lch7",580,"162.csv","","null","resources/images/coin2.png","null","",NA,NA,NA,NA,""
"image-keyboard-response",191,246149,"0.0-3.60-0.60","juevtd54px1lch7",580,"162.csv","","1485.4000000953674","resources/trios/L1T2A3.jpg","37","restless",0.8,0.2,0.8,0.450490121762853,"true"
"image-keyboard-response",192,246554,"0.0-3.60-1.60","juevtd54px1lch7",580,"162.csv","","null","resources/maskTrios/L1BB.jpg","null","",NA,NA,NA,NA,""
"image-keyboard-response",193,247767,"0.0-3.60-2.60","juevtd54px1lch7",580,"162.csv","","null","resources/images/coin2.png","null","",NA,NA,NA,NA,""
"image-keyboard-response",194,249300,"0.0-3.61-0.61","juevtd54px1lch7",580,"162.csv","","1531.7000000476837","resources/trios/L1T2A3.jpg","37","restless",0.8,0.2,0.8,0.0581651205999085,"true"
"image-keyboard-response",195,249719,"0.0-3.61-1.61","juevtd54px1lch7",580,"162.csv","","null","resources/maskTrios/L1BB.jpg","null","",NA,NA,NA,NA,""
"image-keyboard-response",196,250942,"0.0-3.61-2.61","juevtd54px1lch7",580,"162.csv","","null","resources/images/coin2.png","null","",NA,NA,NA,NA,""
"image-keyboard-response",197,254486,"0.0-3.62-0.62","juevtd54px1lch7",580,"162.csv","","3542.9000000953674","resources/trios/L4T1A3.jpg","37","restless",0.8,0.2,0.8,0.572362345457381,"true"
"image-keyboard-response",198,254889,"0.0-3.62-1.62","juevtd54px1lch7",580,"162.csv","","null","resources/maskTrios/L4BB.jpg","null","",NA,NA,NA,NA,""
"image-keyboard-response",199,256108,"0.0-3.62-2.62","juevtd54px1lch7",580,"162.csv","","null","resources/images/coin2.png","null","",NA,NA,NA,NA,""
"image-keyboard-response",200,258869,"0.0-3.63-0.63","juevtd54px1lch7",580,"162.csv","","2760.100000143051","resources/trios/L4T2A1.jpg","39","restless",0.8,0.2,0.8,0.623750885545351,"true"
"image-keyboard-response",201,259273,"0.0-3.63-1.63","juevtd54px1lch7",580,"162.csv","","null","resources/maskTrios/BBA1.jpg","null","",NA,NA,NA,NA,""
"image-keyboard-response",202,260494,"0.0-3.63-2.63","juevtd54px1lch7",580,"162.csv","","null","resources/images/coin2.png","null","",NA,NA,NA,NA,""
"image-keyboard-response",203,262933,"0.0-3.64-0.64","juevtd54px1lch7",580,"162.csv","","2438.300000190735","resources/trios/L4T2A3.jpg","37","restless",0.8,0.2,0.8,0.353898556847342,"true"
"image-keyboard-response",204,263350,"0.0-3.64-1.64","juevtd54px1lch7",580,"162.csv","","null","resources/maskTrios/L4BB.jpg","null","",NA,NA,NA,NA,""
"image-keyboard-response",205,264565,"0.0-3.64-2.64","juevtd54px1lch7",580,"162.csv","","null","resources/images/coin2.png","null","",NA,NA,NA,NA,""
"image-keyboard-response",206,265344,"0.0-3.65-0.65","juevtd54px1lch7",580,"162.csv","","778","resources/trios/L1T2A1.jpg","37","restless",0.8,0.2,0.8,0.12410252622573,"true"
"image-keyboard-response",207,265765,"0.0-3.65-1.65","juevtd54px1lch7",580,"162.csv","","null","resources/maskTrios/L1BB.jpg","null","",NA,NA,NA,NA,""
"image-keyboard-response",208,266968,"0.0-3.65-2.65","juevtd54px1lch7",580,"162.csv","","null","resources/images/coin2.png","null","",NA,NA,NA,NA,""
"image-keyboard-response",209,267782,"0.0-3.66-0.66","juevtd54px1lch7",580,"162.csv","","812.2999999523163","resources/trios/L1T2A3.jpg","37","restless",0.8,0.2,0.7,0.925498239154452,"false"
"image-keyboard-response",210,268185,"0.0-3.66-1.66","juevtd54px1lch7",580,"162.csv","","null","resources/maskTrios/L1BB.jpg","null","",NA,NA,NA,NA,""
"image-keyboard-response",211,269401,"0.0-3.66-2.66","juevtd54px1lch7",580,"162.csv","","null","resources/images/fishbone.png","null","",NA,NA,NA,NA,""
"image-keyboard-response",212,273244,"0.0-3.67-0.67","juevtd54px1lch7",580,"162.csv","","3841.7000000476837","resources/trios/L1T1A3.jpg","37","restless",0.8,0.2,0.7,0.218795007933816,"true"
"image-keyboard-response",213,273653,"0.0-3.67-1.67","juevtd54px1lch7",580,"162.csv","","null","resources/maskTrios/L1BB.jpg","null","",NA,NA,NA,NA,""
"image-keyboard-response",214,274870,"0.0-3.67-2.67","juevtd54px1lch7",580,"162.csv","","null","resources/images/coin2.png","null","",NA,NA,NA,NA,""
"image-keyboard-response",215,275808,"0.0-3.68-0.68","juevtd54px1lch7",580,"162.csv","","937.2000000476837","resources/trios/L1T2A3.jpg","37","restless",0.8,0.2,0.7,0.461860934680915,"true"
"image-keyboard-response",216,276227,"0.0-3.68-1.68","juevtd54px1lch7",580,"162.csv","","null","resources/maskTrios/L1BB.jpg","null","",NA,NA,NA,NA,""
"image-keyboard-response",217,277446,"0.0-3.68-2.68","juevtd54px1lch7",580,"162.csv","","null","resources/images/coin2.png","null","",NA,NA,NA,NA,""
"image-keyboard-response",218,278634,"0.0-3.69-0.69","juevtd54px1lch7",580,"162.csv","","1186.8000001907349","resources/trios/L1T1A1.jpg","39","restless",0.8,0.2,0.7,0.523045730364543,"true"
"image-keyboard-response",219,279053,"0.0-3.69-1.69","juevtd54px1lch7",580,"162.csv","","null","resources/maskTrios/BBA1.jpg","null","",NA,NA,NA,NA,""
"image-keyboard-response",220,280269,"0.0-3.69-2.69","juevtd54px1lch7",580,"162.csv","","null","resources/images/coin2.png","null","",NA,NA,NA,NA,""
"image-keyboard-response",221,282414,"0.0-3.70-0.70","juevtd54px1lch7",580,"162.csv","","2144","resources/trios/L4T2A3.jpg","37","restless",0.8,0.2,0.7,0.571165751165186,"true"
"image-keyboard-response",222,282819,"0.0-3.70-1.70","juevtd54px1lch7",580,"162.csv","","null","resources/maskTrios/L4BB.jpg","null","",NA,NA,NA,NA,""
"image-keyboard-response",223,284031,"0.0-3.70-2.70","juevtd54px1lch7",580,"162.csv","","null","resources/images/coin2.png","null","",NA,NA,NA,NA,""
"image-keyboard-response",224,287309,"0.0-3.71-0.71","juevtd54px1lch7",580,"162.csv","","3276.5999999046326","resources/trios/L4T1A1.jpg","37","restless",0.7,0.2,0.6,0.63273868734447,"true"
"image-keyboard-response",225,287727,"0.0-3.71-1.71","juevtd54px1lch7",580,"162.csv","","null","resources/maskTrios/L4BB.jpg","null","",NA,NA,NA,NA,""
"image-keyboard-response",226,288944,"0.0-3.71-2.71","juevtd54px1lch7",580,"162.csv","","null","resources/images/coin2.png","null","",NA,NA,NA,NA,""
"image-keyboard-response",227,291868,"0.0-3.72-0.72","juevtd54px1lch7",580,"162.csv","","2922.5999999046326","resources/trios/L1T1A3.jpg","37","restless",0.7,0.2,0.6,0.26737102779998,"true"
"image-keyboard-response",228,292286,"0.0-3.72-1.72","juevtd54px1lch7",580,"162.csv","","null","resources/maskTrios/L1BB.jpg","null","",NA,NA,NA,NA,""
"image-keyboard-response",229,293493,"0.0-3.72-2.72","juevtd54px1lch7",580,"162.csv","","null","resources/images/coin2.png","null","",NA,NA,NA,NA,""
"image-keyboard-response",230,295730,"0.0-3.73-0.73","juevtd54px1lch7",580,"162.csv","","2235.5","resources/trios/L4T1A3.jpg","37","restless",0.7,0.2,0.6,0.0895750009298713,"true"
"image-keyboard-response",231,296150,"0.0-3.73-1.73","juevtd54px1lch7",580,"162.csv","","null","resources/maskTrios/L4BB.jpg","null","",NA,NA,NA,NA,""
"image-keyboard-response",232,297357,"0.0-3.73-2.73","juevtd54px1lch7",580,"162.csv","","null","resources/images/coin2.png","null","",NA,NA,NA,NA,""
"image-keyboard-response",233,299621,"0.0-3.74-0.74","juevtd54px1lch7",580,"162.csv","","2263","resources/trios/L4T1A1.jpg","39","restless",0.7,0.2,0.6,0.674315256504975,"false"
"image-keyboard-response",234,300025,"0.0-3.74-1.74","juevtd54px1lch7",580,"162.csv","","null","resources/maskTrios/BBA1.jpg","null","",NA,NA,NA,NA,""
"image-keyboard-response",235,301245,"0.0-3.74-2.74","juevtd54px1lch7",580,"162.csv","","null","resources/images/fishbone.png","null","",NA,NA,NA,NA,""
"image-keyboard-response",236,302635,"0.0-3.75-0.75","juevtd54px1lch7",580,"162.csv","","1389.1000001430511","resources/trios/L4T1A1.jpg","37","restless",0.7,0.2,0.6,0.754562676303978,"false"
"image-keyboard-response",237,303043,"0.0-3.75-1.75","juevtd54px1lch7",580,"162.csv","","null","resources/maskTrios/L4BB.jpg","null","",NA,NA,NA,NA,""
"image-keyboard-response",238,304262,"0.0-3.75-2.75","juevtd54px1lch7",580,"162.csv","","null","resources/images/fishbone.png","null","",NA,NA,NA,NA,""
"image-keyboard-response",239,305560,"0.0-3.76-0.76","juevtd54px1lch7",580,"162.csv","","1296.9000000953674","resources/trios/L1T2A3.jpg","37","restless",0.7,0.2,0.6,0.597474011195139,"true"
"image-keyboard-response",240,305979,"0.0-3.76-1.76","juevtd54px1lch7",580,"162.csv","","null","resources/maskTrios/L1BB.jpg","null","",NA,NA,NA,NA,""
"image-keyboard-response",241,307186,"0.0-3.76-2.76","juevtd54px1lch7",580,"162.csv","","null","resources/images/coin2.png","null","",NA,NA,NA,NA,""
"image-keyboard-response",242,311739,"0.0-3.77-0.77","juevtd54px1lch7",580,"162.csv","","4551.299999952316","resources/trios/L4T1A3.jpg","37","restless",0.7,0.2,0.5,0.748710632096333,"false"
"image-keyboard-response",243,312159,"0.0-3.77-1.77","juevtd54px1lch7",580,"162.csv","","null","resources/maskTrios/L4BB.jpg","null","",NA,NA,NA,NA,""
"image-keyboard-response",244,313375,"0.0-3.77-2.77","juevtd54px1lch7",580,"162.csv","","null","resources/images/fishbone.png","null","",NA,NA,NA,NA,""
"image-keyboard-response",245,314362,"0.0-3.78-0.78","juevtd54px1lch7",580,"162.csv","","986.2999999523163","resources/trios/L1T1A1.jpg","37","restless",0.7,0.2,0.5,0.201021544706134,"true"
"image-keyboard-response",246,314769,"0.0-3.78-1.78","juevtd54px1lch7",580,"162.csv","","null","resources/maskTrios/L1BB.jpg","null","",NA,NA,NA,NA,""
"image-keyboard-response",247,315990,"0.0-3.78-2.78","juevtd54px1lch7",580,"162.csv","","null","resources/images/coin2.png","null","",NA,NA,NA,NA,""
"image-keyboard-response",248,317023,"0.0-3.79-0.79","juevtd54px1lch7",580,"162.csv","","1031.2000000476837","resources/trios/L1T2A3.jpg","39","restless",0.7,0.3,0.5,0.134690418330046,"true"
"image-keyboard-response",249,317444,"0.0-3.79-1.79","juevtd54px1lch7",580,"162.csv","","null","resources/maskTrios/BBA3.jpg","null","",NA,NA,NA,NA,""
"image-keyboard-response",250,318651,"0.0-3.79-2.79","juevtd54px1lch7",580,"162.csv","","null","resources/images/coin2.png","null","",NA,NA,NA,NA,""
"image-keyboard-response",251,320652,"0.0-3.80-0.80","juevtd54px1lch7",580,"162.csv","","1999.9000000953674","resources/trios/L1T1A3.jpg","37","restless",0.7,0.3,0.4,0.813047249848186,"false"
"image-keyboard-response",252,321059,"0.0-3.80-1.80","juevtd54px1lch7",580,"162.csv","","null","resources/maskTrios/L1BB.jpg","null","",NA,NA,NA,NA,""
"image-keyboard-response",253,322265,"0.0-3.80-2.80","juevtd54px1lch7",580,"162.csv","","null","resources/images/fishbone.png","null","",NA,NA,NA,NA,""
"image-keyboard-response",254,323845,"0.0-3.81-0.81","juevtd54px1lch7",580,"162.csv","","1578.5","resources/trios/L4T1A3.jpg","39","restless",0.7,0.3,0.4,0.192421816290228,"true"
"image-keyboard-response",255,324250,"0.0-3.81-1.81","juevtd54px1lch7",580,"162.csv","","null","resources/maskTrios/BBA3.jpg","null","",NA,NA,NA,NA,""
"image-keyboard-response",256,325462,"0.0-3.81-2.81","juevtd54px1lch7",580,"162.csv","","null","resources/images/coin2.png","null","",NA,NA,NA,NA,""
"image-keyboard-response",257,327217,"0.0-3.82-0.82","juevtd54px1lch7",580,"162.csv","","1753.2000000476837","resources/trios/L4T2A3.jpg","37","restless",0.7,0.3,0.5,0.902394450018158,"false"
"image-keyboard-response",258,327625,"0.0-3.82-1.82","juevtd54px1lch7",580,"162.csv","","null","resources/maskTrios/L4BB.jpg","null","",NA,NA,NA,NA,""
"image-keyboard-response",259,328840,"0.0-3.82-2.82","juevtd54px1lch7",580,"162.csv","","null","resources/images/fishbone.png","null","",NA,NA,NA,NA,""
"image-keyboard-response",260,330249,"0.0-3.83-0.83","juevtd54px1lch7",580,"162.csv","","1407.8999998569489","resources/trios/L1T2A1.jpg","37","restless",0.7,0.3,0.5,0.30296869255623,"true"
"image-keyboard-response",261,330667,"0.0-3.83-1.83","juevtd54px1lch7",580,"162.csv","","null","resources/maskTrios/L1BB.jpg","null","",NA,NA,NA,NA,""
"image-keyboard-response",262,331874,"0.0-3.83-2.83","juevtd54px1lch7",580,"162.csv","","null","resources/images/coin2.png","null","",NA,NA,NA,NA,""
"image-keyboard-response",263,332922,"0.0-3.84-0.84","juevtd54px1lch7",580,"162.csv","","1046.5","resources/trios/L1T2A3.jpg","39","restless",0.7,0.3,0.5,0.168505578042742,"true"
"image-keyboard-response",264,333329,"0.0-3.84-1.84","juevtd54px1lch7",580,"162.csv","","null","resources/maskTrios/BBA3.jpg","null","",NA,NA,NA,NA,""
"image-keyboard-response",265,334544,"0.0-3.84-2.84","juevtd54px1lch7",580,"162.csv","","null","resources/images/coin2.png","null","",NA,NA,NA,NA,""
"image-keyboard-response",266,336106,"0.0-3.85-0.85","juevtd54px1lch7",580,"162.csv","","1560.5999999046326","resources/trios/L4T2A3.jpg","37","restless",0.6,0.3,0.5,0.402189944634467,"true"
"image-keyboard-response",267,336525,"0.0-3.85-1.85","juevtd54px1lch7",580,"162.csv","","null","resources/maskTrios/L4BB.jpg","null","",NA,NA,NA,NA,""
"image-keyboard-response",268,337743,"0.0-3.85-2.85","juevtd54px1lch7",580,"162.csv","","null","resources/images/coin2.png","null","",NA,NA,NA,NA,""
"image-keyboard-response",269,339259,"0.0-3.86-0.86","juevtd54px1lch7",580,"162.csv","","1515.5","resources/trios/L4T2A3.jpg","37","restless",0.6,0.3,0.5,0.970085146501161,"false"
"image-keyboard-response",270,339664,"0.0-3.86-1.86","juevtd54px1lch7",580,"162.csv","","null","resources/maskTrios/L4BB.jpg","null","",NA,NA,NA,NA,""
"image-keyboard-response",271,340883,"0.0-3.86-2.86","juevtd54px1lch7",580,"162.csv","","null","resources/images/fishbone.png","null","",NA,NA,NA,NA,""
"image-keyboard-response",272,342313,"0.0-3.87-0.87","juevtd54px1lch7",580,"162.csv","","1428.8999998569489","resources/trios/L1T1A3.jpg","37","restless",0.6,0.3,0.5,0.0925016067258271,"true"
"image-keyboard-response",273,342734,"0.0-3.87-1.87","juevtd54px1lch7",580,"162.csv","","null","resources/maskTrios/L1BB.jpg","null","",NA,NA,NA,NA,""
"image-keyboard-response",274,343937,"0.0-3.87-2.87","juevtd54px1lch7",580,"162.csv","","null","resources/images/coin2.png","null","",NA,NA,NA,NA,""
"image-keyboard-response",275,346576,"0.0-3.88-0.88","juevtd54px1lch7",580,"162.csv","","2637.5","resources/trios/L4T2A3.jpg","38","restless",0.6,0.3,0.5,0.947045498728159,"false"
"image-keyboard-response",276,346998,"0.0-3.88-1.88","juevtd54px1lch7",580,"162.csv","","null","resources/maskTrios/BT2B.jpg","null","",NA,NA,NA,NA,""
"image-keyboard-response",277,348214,"0.0-3.88-2.88","juevtd54px1lch7",580,"162.csv","","null","resources/images/fishbone.png","null","",NA,NA,NA,NA,""
"image-keyboard-response",278,349415,"0.0-3.89-0.89","juevtd54px1lch7",580,"162.csv","","1199.8999998569489","resources/trios/L1T2A1.jpg","39","restless",0.7,0.3,0.5,0.762504937694226,"false"
"image-keyboard-response",279,349819,"0.0-3.89-1.89","juevtd54px1lch7",580,"162.csv","","null","resources/maskTrios/BBA1.jpg","null","",NA,NA,NA,NA,""
"image-keyboard-response",280,351036,"0.0-3.89-2.89","juevtd54px1lch7",580,"162.csv","","null","resources/images/fishbone.png","null","",NA,NA,NA,NA,""
"image-keyboard-response",281,351662,"0.0-3.90-0.90","juevtd54px1lch7",580,"162.csv","","625.1000001430511","resources/trios/L1T1A1.jpg","37","restless",0.7,0.3,0.5,0.869473394518451,"false"
"image-keyboard-response",282,352070,"0.0-3.90-1.90","juevtd54px1lch7",580,"162.csv","","null","resources/maskTrios/L1BB.jpg","null","",NA,NA,NA,NA,""
"image-keyboard-response",283,353279,"0.0-3.90-2.90","juevtd54px1lch7",580,"162.csv","","null","resources/images/fishbone.png","null","",NA,NA,NA,NA,""
"image-keyboard-response",284,355079,"0.0-3.91-0.91","juevtd54px1lch7",580,"162.csv","","1798.7999999523163","resources/trios/L4T1A3.jpg","37","restless",0.7,0.3,0.4,0.894156929750658,"false"
"image-keyboard-response",285,355487,"0.0-3.91-1.91","juevtd54px1lch7",580,"162.csv","","null","resources/maskTrios/L4BB.jpg","null","",NA,NA,NA,NA,""
"image-keyboard-response",286,356705,"0.0-3.91-2.91","juevtd54px1lch7",580,"162.csv","","null","resources/images/fishbone.png","null","",NA,NA,NA,NA,""
"image-keyboard-response",287,357238,"0.0-3.92-0.92","juevtd54px1lch7",580,"162.csv","","531.8000001907349","resources/trios/L4T1A1.jpg","39","restless",0.7,0.3,0.4,0.719878152553474,"false"
"image-keyboard-response",288,357642,"0.0-3.92-1.92","juevtd54px1lch7",580,"162.csv","","null","resources/maskTrios/BBA1.jpg","null","",NA,NA,NA,NA,""
"image-keyboard-response",289,358863,"0.0-3.92-2.92","juevtd54px1lch7",580,"162.csv","","null","resources/images/fishbone.png","null","",NA,NA,NA,NA,""
"image-keyboard-response",290,359238,"0.0-3.93-0.93","juevtd54px1lch7",580,"162.csv","","373.90000009536743","resources/trios/L1T2A1.jpg","37","restless",0.7,0.3,0.4,0.660625720205819,"true"
"image-keyboard-response",291,359655,"0.0-3.93-1.93","juevtd54px1lch7",580,"162.csv","","null","resources/maskTrios/L1BB.jpg","null","",NA,NA,NA,NA,""
"image-keyboard-response",292,360872,"0.0-3.93-2.93","juevtd54px1lch7",580,"162.csv","","null","resources/images/coin2.png","null","",NA,NA,NA,NA,""
"image-keyboard-response",293,361573,"0.0-3.94-0.94","juevtd54px1lch7",580,"162.csv","","699.8999998569489","resources/trios/L4T1A3.jpg","38","restless",0.6,0.3,0.4,0.202034269968451,"true"
"image-keyboard-response",294,361981,"0.0-3.94-1.94","juevtd54px1lch7",580,"162.csv","","null","resources/maskTrios/BT1B.jpg","null","",NA,NA,NA,NA,""
"image-keyboard-response",295,363183,"0.0-3.94-2.94","juevtd54px1lch7",580,"162.csv","","null","resources/images/coin2.png","null","",NA,NA,NA,NA,""
"image-keyboard-response",296,363965,"0.0-3.95-0.95","juevtd54px1lch7",580,"162.csv","","781.2999999523163","resources/trios/L4T2A3.jpg","37","restless",0.6,0.3,0.4,0.685343508857249,"false"
"image-keyboard-response",297,364372,"0.0-3.95-1.95","juevtd54px1lch7",580,"162.csv","","null","resources/maskTrios/L4BB.jpg","null","",NA,NA,NA,NA,""
"image-keyboard-response",298,365591,"0.0-3.95-2.95","juevtd54px1lch7",580,"162.csv","","null","resources/images/fishbone.png","null","",NA,NA,NA,NA,""
"image-keyboard-response",299,366265,"0.0-3.96-0.96","juevtd54px1lch7",580,"162.csv","","673.2999999523163","resources/trios/L4T2A1.jpg","38","restless",0.6,0.3,0.5,0.346234484201726,"false"
"image-keyboard-response",300,366684,"0.0-3.96-1.96","juevtd54px1lch7",580,"162.csv","","null","resources/maskTrios/BT2B.jpg","null","",NA,NA,NA,NA,""
"image-keyboard-response",301,367903,"0.0-3.96-2.96","juevtd54px1lch7",580,"162.csv","","null","resources/images/fishbone.png","null","",NA,NA,NA,NA,""
"image-keyboard-response",302,369562,"0.0-3.97-0.97","juevtd54px1lch7",580,"162.csv","","1657.7999999523163","resources/trios/L4T1A1.jpg","39","restless",0.6,0.3,0.5,0.955476801383554,"false"
"image-keyboard-response",303,369968,"0.0-3.97-1.97","juevtd54px1lch7",580,"162.csv","","null","resources/maskTrios/BBA1.jpg","null","",NA,NA,NA,NA,""
"image-keyboard-response",304,371189,"0.0-3.97-2.97","juevtd54px1lch7",580,"162.csv","","null","resources/images/fishbone.png","null","",NA,NA,NA,NA,""
"image-keyboard-response",305,372037,"0.0-3.98-0.98","juevtd54px1lch7",580,"162.csv","","847.5","resources/trios/L1T2A1.jpg","37","restless",0.6,0.3,0.5,0.360990111771889,"true"
"image-keyboard-response",306,372442,"0.0-3.98-1.98","juevtd54px1lch7",580,"162.csv","","null","resources/maskTrios/L1BB.jpg","null","",NA,NA,NA,NA,""
"image-keyboard-response",307,373661,"0.0-3.98-2.98","juevtd54px1lch7",580,"162.csv","","null","resources/images/coin2.png","null","",NA,NA,NA,NA,""
"image-keyboard-response",308,374461,"0.0-3.99-0.99","juevtd54px1lch7",580,"162.csv","","799","resources/trios/L1T1A1.jpg","37","restless",0.6,0.3,0.4,0.711136176292798,"false"
"image-keyboard-response",309,374879,"0.0-3.99-1.99","juevtd54px1lch7",580,"162.csv","","null","resources/maskTrios/L1BB.jpg","null","",NA,NA,NA,NA,""
"image-keyboard-response",310,376097,"0.0-3.99-2.99","juevtd54px1lch7",580,"162.csv","","null","resources/images/fishbone.png","null","",NA,NA,NA,NA,""
"image-keyboard-response",311,383214,"0.0-3.100-0.100","juevtd54px1lch7",580,"162.csv","","7115.100000143051","resources/trios/L4T1A1.jpg","39","restless",0.6,0.3,0.4,0.968558280859844,"false"
"image-keyboard-response",312,383618,"0.0-3.100-1.100","juevtd54px1lch7",580,"162.csv","","null","resources/maskTrios/BBA1.jpg","null","",NA,NA,NA,NA,""
"image-keyboard-response",313,384824,"0.0-3.100-2.100","juevtd54px1lch7",580,"162.csv","","null","resources/images/fishbone.png","null","",NA,NA,NA,NA,""
"image-keyboard-response",314,385823,"0.0-3.101-0.101","juevtd54px1lch7",580,"162.csv","","998.5999999046326","resources/trios/L1T2A1.jpg","37","restless",0.6,0.3,0.4,0.353001072123292,"true"
"image-keyboard-response",315,386243,"0.0-3.101-1.101","juevtd54px1lch7",580,"162.csv","","null","resources/maskTrios/L1BB.jpg","null","",NA,NA,NA,NA,""
"image-keyboard-response",316,387452,"0.0-3.101-2.101","juevtd54px1lch7",580,"162.csv","","null","resources/images/coin2.png","null","",NA,NA,NA,NA,""
"image-keyboard-response",317,389219,"0.0-3.102-0.102","juevtd54px1lch7",580,"162.csv","","1766.5999999046326","resources/trios/L1T2A1.jpg","38","restless",0.6,0.3,0.4,0.490776068960031,"false"
"image-keyboard-response",318,389639,"0.0-3.102-1.102","juevtd54px1lch7",580,"162.csv","","null","resources/maskTrios/BT2B.jpg","null","",NA,NA,NA,NA,""
"image-keyboard-response",319,390859,"0.0-3.102-2.102","juevtd54px1lch7",580,"162.csv","","null","resources/images/fishbone.png","null","",NA,NA,NA,NA,""
"image-keyboard-response",320,393200,"0.0-3.103-0.103","juevtd54px1lch7",580,"162.csv","","2339.800000190735","resources/trios/L4T2A3.jpg","38","restless",0.6,0.3,0.4,0.345420805819707,"false"
"image-keyboard-response",321,393621,"0.0-3.103-1.103","juevtd54px1lch7",580,"162.csv","","null","resources/maskTrios/BT2B.jpg","null","",NA,NA,NA,NA,""
"image-keyboard-response",322,394826,"0.0-3.103-2.103","juevtd54px1lch7",580,"162.csv","","null","resources/images/fishbone.png","null","",NA,NA,NA,NA,""
"image-keyboard-response",323,477669,"0.0-3.104-0.104","juevtd54px1lch7",580,"162.csv","","82842.20000004768","resources/trios/L4T2A3.jpg","39","restless",0.6,0.3,0.4,0.108971686032485,"true"
"image-keyboard-response",324,478075,"0.0-3.104-1.104","juevtd54px1lch7",580,"162.csv","","null","resources/maskTrios/BBA3.jpg","null","",NA,NA,NA,NA,""
"image-keyboard-response",325,479282,"0.0-3.104-2.104","juevtd54px1lch7",580,"162.csv","","null","resources/images/coin2.png","null","",NA,NA,NA,NA,""
"image-keyboard-response",326,481745,"0.0-3.105-0.105","juevtd54px1lch7",580,"162.csv","","2462.5","resources/trios/L4T2A3.jpg","39","restless",0.6,0.3,0.4,0.380536913843138,"true"
"image-keyboard-response",327,482166,"0.0-3.105-1.105","juevtd54px1lch7",580,"162.csv","","null","resources/maskTrios/BBA3.jpg","null","",NA,NA,NA,NA,""
"image-keyboard-response",328,483378,"0.0-3.105-2.105","juevtd54px1lch7",580,"162.csv","","null","resources/images/coin2.png","null","",NA,NA,NA,NA,""
"image-keyboard-response",329,486345,"0.0-3.106-0.106","juevtd54px1lch7",580,"162.csv","","2966","resources/trios/L1T2A1.jpg","37","restless",0.6,0.3,0.4,0.510500407509028,"true"
"image-keyboard-response",330,486766,"0.0-3.106-1.106","juevtd54px1lch7",580,"162.csv","","null","resources/maskTrios/L1BB.jpg","null","",NA,NA,NA,NA,""
"image-keyboard-response",331,487990,"0.0-3.106-2.106","juevtd54px1lch7",580,"162.csv","","null","resources/images/coin2.png","null","",NA,NA,NA,NA,""
"image-keyboard-response",332,489686,"0.0-3.107-0.107","juevtd54px1lch7",580,"162.csv","","1695.3000001907349","resources/trios/L1T1A1.jpg","39","restless",0.6,0.3,0.5,0.862111478919089,"false"
"image-keyboard-response",333,490094,"0.0-3.107-1.107","juevtd54px1lch7",580,"162.csv","","null","resources/maskTrios/BBA1.jpg","null","",NA,NA,NA,NA,""
"image-keyboard-response",334,491312,"0.0-3.107-2.107","juevtd54px1lch7",580,"162.csv","","null","resources/images/fishbone.png","null","",NA,NA,NA,NA,""
"image-keyboard-response",335,493386,"0.0-3.108-0.108","juevtd54px1lch7",580,"162.csv","","2073.2000000476837","resources/trios/L4T2A3.jpg","39","restless",0.6,0.3,0.5,0.546461566280986,"false"
"image-keyboard-response",336,493804,"0.0-3.108-1.108","juevtd54px1lch7",580,"162.csv","","null","resources/maskTrios/BBA3.jpg","null","",NA,NA,NA,NA,""
"image-keyboard-response",337,495021,"0.0-3.108-2.108","juevtd54px1lch7",580,"162.csv","","null","resources/images/fishbone.png","null","",NA,NA,NA,NA,""
"image-keyboard-response",338,495684,"0.0-3.109-0.109","juevtd54px1lch7",580,"162.csv","","661.3000001907349","resources/trios/L1T1A1.jpg","37","restless",0.6,0.3,0.5,0.94367374331729,"false"
"image-keyboard-response",339,496089,"0.0-3.109-1.109","juevtd54px1lch7",580,"162.csv","","null","resources/maskTrios/L1BB.jpg","null","",NA,NA,NA,NA,""
"image-keyboard-response",340,497307,"0.0-3.109-2.109","juevtd54px1lch7",580,"162.csv","","null","resources/images/fishbone.png","null","",NA,NA,NA,NA,""
"image-keyboard-response",341,497654,"0.0-3.110-0.110","juevtd54px1lch7",580,"162.csv","","345.2999999523163","resources/trios/L4T2A3.jpg","38","restless",0.6,0.3,0.5,0.970813936284186,"false"
"image-keyboard-response",342,498059,"0.0-3.110-1.110","juevtd54px1lch7",580,"162.csv","","null","resources/maskTrios/BT2B.jpg","null","",NA,NA,NA,NA,""
"image-keyboard-response",343,499277,"0.0-3.110-2.110","juevtd54px1lch7",580,"162.csv","","null","resources/images/fishbone.png","null","",NA,NA,NA,NA,""
"image-keyboard-response",344,499561,"0.0-3.111-0.111","juevtd54px1lch7",580,"162.csv","","283.7000000476837","resources/trios/L1T2A3.jpg","39","restless",0.6,0.3,0.5,0.786372564709942,"false"
"image-keyboard-response",345,499982,"0.0-3.111-1.111","juevtd54px1lch7",580,"162.csv","","null","resources/maskTrios/BBA3.jpg","null","",NA,NA,NA,NA,""
"image-keyboard-response",346,501196,"0.0-3.111-2.111","juevtd54px1lch7",580,"162.csv","","null","resources/images/fishbone.png","null","",NA,NA,NA,NA,""
"image-keyboard-response",347,501543,"0.0-3.112-0.112","juevtd54px1lch7",580,"162.csv","","346.2999999523163","resources/trios/L4T1A3.jpg","37","restless",0.6,0.3,0.5,0.826147656876598,"false"
"image-keyboard-response",348,501965,"0.0-3.112-1.112","juevtd54px1lch7",580,"162.csv","","null","resources/maskTrios/L4BB.jpg","null","",NA,NA,NA,NA,""
"image-keyboard-response",349,503168,"0.0-3.112-2.112","juevtd54px1lch7",580,"162.csv","","null","resources/images/fishbone.png","null","",NA,NA,NA,NA,""
"image-keyboard-response",350,503500,"0.0-3.113-0.113","juevtd54px1lch7",580,"162.csv","","330.90000009536743","resources/trios/L1T2A3.jpg","38","restless",0.6,0.4,0.5,0.611549178489733,"false"
"image-keyboard-response",351,503904,"0.0-3.113-1.113","juevtd54px1lch7",580,"162.csv","","null","resources/maskTrios/BT2B.jpg","null","",NA,NA,NA,NA,""
"image-keyboard-response",352,505114,"0.0-3.113-2.113","juevtd54px1lch7",580,"162.csv","","null","resources/images/fishbone.png","null","",NA,NA,NA,NA,""
"image-keyboard-response",353,505976,"0.0-3.114-0.114","juevtd54px1lch7",580,"162.csv","","860.9000000953674","resources/trios/L1T1A3.jpg","37","restless",0.6,0.4,0.5,0.18034839267733,"true"
"image-keyboard-response",354,506397,"0.0-3.114-1.114","juevtd54px1lch7",580,"162.csv","","null","resources/maskTrios/L1BB.jpg","null","",NA,NA,NA,NA,""
"image-keyboard-response",355,507613,"0.0-3.114-2.114","juevtd54px1lch7",580,"162.csv","","null","resources/images/coin2.png","null","",NA,NA,NA,NA,""
"image-keyboard-response",356,508649,"0.0-3.115-0.115","juevtd54px1lch7",580,"162.csv","","1034.7000000476837","resources/trios/L4T2A1.jpg","37","restless",0.6,0.4,0.5,0.459189534071701,"true"
"image-keyboard-response",357,509068,"0.0-3.115-1.115","juevtd54px1lch7",580,"162.csv","","null","resources/maskTrios/L4BB.jpg","null","",NA,NA,NA,NA,""
"image-keyboard-response",358,510276,"0.0-3.115-2.115","juevtd54px1lch7",580,"162.csv","","null","resources/images/coin2.png","null","",NA,NA,NA,NA,""
"image-keyboard-response",359,511344,"0.0-3.116-0.116","juevtd54px1lch7",580,"162.csv","","1066","resources/trios/L4T2A1.jpg","39","restless",0.7,0.4,0.5,0.304403584892787,"true"
"image-keyboard-response",360,511762,"0.0-3.116-1.116","juevtd54px1lch7",580,"162.csv","","null","resources/maskTrios/BBA1.jpg","null","",NA,NA,NA,NA,""
"image-keyboard-response",361,512982,"0.0-3.116-2.116","juevtd54px1lch7",580,"162.csv","","null","resources/images/coin2.png","null","",NA,NA,NA,NA,""
"image-keyboard-response",362,514374,"0.0-3.117-0.117","juevtd54px1lch7",580,"162.csv","","1390.6000001430511","resources/trios/L1T1A1.jpg","37","restless",0.7,0.4,0.5,0.951590633752667,"false"
"image-keyboard-response",363,514777,"0.0-3.117-1.117","juevtd54px1lch7",580,"162.csv","","null","resources/maskTrios/L1BB.jpg","null","",NA,NA,NA,NA,""
"image-keyboard-response",364,515998,"0.0-3.117-2.117","juevtd54px1lch7",580,"162.csv","","null","resources/images/fishbone.png","null","",NA,NA,NA,NA,""
"image-keyboard-response",365,521028,"0.0-3.118-0.118","juevtd54px1lch7",580,"162.csv","","5029.199999809265","resources/trios/L1T1A3.jpg","39","restless",0.7,0.4,0.5,0.873540333513958,"false"
"image-keyboard-response",366,521433,"0.0-3.118-1.118","juevtd54px1lch7",580,"162.csv","","null","resources/maskTrios/BBA3.jpg","null","",NA,NA,NA,NA,""
"image-keyboard-response",367,522649,"0.0-3.118-2.118","juevtd54px1lch7",580,"162.csv","","null","resources/images/fishbone.png","null","",NA,NA,NA,NA,""
"image-keyboard-response",368,523513,"0.0-3.119-0.119","juevtd54px1lch7",580,"162.csv","","863","resources/trios/L4T2A3.jpg","37","restless",0.7,0.4,0.5,0.847158625315431,"false"
"image-keyboard-response",369,523934,"0.0-3.119-1.119","juevtd54px1lch7",580,"162.csv","","null","resources/maskTrios/L4BB.jpg","null","",NA,NA,NA,NA,""
"image-keyboard-response",370,525152,"0.0-3.119-2.119","juevtd54px1lch7",580,"162.csv","","null","resources/images/fishbone.png","null","",NA,NA,NA,NA,""
"image-keyboard-response",371,525641,"0.0-3.120-0.120","juevtd54px1lch7",580,"162.csv","","487.7000000476837","resources/trios/L1T1A1.jpg","39","restless",0.7,0.4,0.5,0.164337470215431,"true"
"image-keyboard-response",372,526063,"0.0-3.120-1.120","juevtd54px1lch7",580,"162.csv","","null","resources/maskTrios/BBA1.jpg","null","",NA,NA,NA,NA,""
"image-keyboard-response",373,527281,"0.0-3.120-2.120","juevtd54px1lch7",580,"162.csv","","null","resources/images/coin2.png","null","",NA,NA,NA,NA,""
"image-keyboard-response",374,531830,"0.0-3.121-0.121","juevtd54px1lch7",580,"162.csv","","4548","resources/trios/L1T2A1.jpg","37","restless",0.7,0.4,0.5,0.577954127858322,"true"
"image-keyboard-response",375,532237,"0.0-3.121-1.121","juevtd54px1lch7",580,"162.csv","","null","resources/maskTrios/L1BB.jpg","null","",NA,NA,NA,NA,""
"image-keyboard-response",376,533442,"0.0-3.121-2.121","juevtd54px1lch7",580,"162.csv","","null","resources/images/coin2.png","null","",NA,NA,NA,NA,""
"image-keyboard-response",377,534789,"0.0-3.122-0.122","juevtd54px1lch7",580,"162.csv","","1345.5","resources/trios/L1T1A1.jpg","37","restless",0.7,0.5,0.5,0.159724095243945,"true"
"image-keyboard-response",378,535207,"0.0-3.122-1.122","juevtd54px1lch7",580,"162.csv","","null","resources/maskTrios/L1BB.jpg","null","",NA,NA,NA,NA,""
"image-keyboard-response",379,536425,"0.0-3.122-2.122","juevtd54px1lch7",580,"162.csv","","null","resources/images/coin2.png","null","",NA,NA,NA,NA,""
"image-keyboard-response",380,540238,"0.0-3.123-0.123","juevtd54px1lch7",580,"162.csv","","3811.7999999523163","resources/trios/L4T2A3.jpg","38","restless",0.7,0.5,0.5,0.323225608215385,"true"
"image-keyboard-response",381,540658,"0.0-3.123-1.123","juevtd54px1lch7",580,"162.csv","","null","resources/maskTrios/BT2B.jpg","null","",NA,NA,NA,NA,""
"image-keyboard-response",382,541876,"0.0-3.123-2.123","juevtd54px1lch7",580,"162.csv","","null","resources/images/coin2.png","null","",NA,NA,NA,NA,""
"image-keyboard-response",383,544292,"0.0-3.124-0.124","juevtd54px1lch7",580,"162.csv","","2414.7000000476837","resources/trios/L4T1A1.jpg","38","restless",0.7,0.5,0.5,0.411273810915541,"true"
"image-keyboard-response",384,544697,"0.0-3.124-1.124","juevtd54px1lch7",580,"162.csv","","null","resources/maskTrios/BT1B.jpg","null","",NA,NA,NA,NA,""
"image-keyboard-response",385,545915,"0.0-3.124-2.124","juevtd54px1lch7",580,"162.csv","","null","resources/images/coin2.png","null","",NA,NA,NA,NA,""
"image-keyboard-response",386,548329,"0.0-3.125-0.125","juevtd54px1lch7",580,"162.csv","","2412.5","resources/trios/L4T2A1.jpg","38","restless",0.7,0.4,0.5,0.620175392943577,"false"
"image-keyboard-response",387,548748,"0.0-3.125-1.125","juevtd54px1lch7",580,"162.csv","","null","resources/maskTrios/BT2B.jpg","null","",NA,NA,NA,NA,""
"image-keyboard-response",388,549955,"0.0-3.125-2.125","juevtd54px1lch7",580,"162.csv","","null","resources/images/fishbone.png","null","",NA,NA,NA,NA,""
"image-keyboard-response",389,551189,"0.0-3.126-0.126","juevtd54px1lch7",580,"162.csv","","1233.2999999523163","resources/trios/L4T2A3.jpg","38","restless",0.7,0.4,0.5,0.516327215190067,"false"
"image-keyboard-response",390,551593,"0.0-3.126-1.126","juevtd54px1lch7",580,"162.csv","","null","resources/maskTrios/BT2B.jpg","null","",NA,NA,NA,NA,""
"image-keyboard-response",391,552811,"0.0-3.126-2.126","juevtd54px1lch7",580,"162.csv","","null","resources/images/fishbone.png","null","",NA,NA,NA,NA,""
"image-keyboard-response",392,553859,"0.0-3.127-0.127","juevtd54px1lch7",580,"162.csv","","1047","resources/trios/L4T1A1.jpg","38","restless",0.7,0.4,0.4,0.660958504006973,"false"
"image-keyboard-response",393,554265,"0.0-3.127-1.127","juevtd54px1lch7",580,"162.csv","","null","resources/maskTrios/BT1B.jpg","null","",NA,NA,NA,NA,""
"image-keyboard-response",394,555485,"0.0-3.127-2.127","juevtd54px1lch7",580,"162.csv","","null","resources/images/fishbone.png","null","",NA,NA,NA,NA,""
"image-keyboard-response",395,557908,"0.0-3.128-0.128","juevtd54px1lch7",580,"162.csv","","2422.4000000953674","resources/trios/L1T1A3.jpg","37","restless",0.7,0.4,0.4,0.188917263570297,"true"
"image-keyboard-response",396,558312,"0.0-3.128-1.128","juevtd54px1lch7",580,"162.csv","","null","resources/maskTrios/L1BB.jpg","null","",NA,NA,NA,NA,""
"image-keyboard-response",397,559534,"0.0-3.128-2.128","juevtd54px1lch7",580,"162.csv","","null","resources/images/coin2.png","null","",NA,NA,NA,NA,""
"image-keyboard-response",398,576252,"0.0-3.129-0.129","juevtd54px1lch7",580,"162.csv","","16716.799999952316","resources/trios/L1T2A1.jpg","37","restless",0.7,0.4,0.4,0.0755149169273612,"true"
"image-keyboard-response",399,576656,"0.0-3.129-1.129","juevtd54px1lch7",580,"162.csv","","null","resources/maskTrios/L1BB.jpg","null","",NA,NA,NA,NA,""
"image-keyboard-response",400,577864,"0.0-3.129-2.129","juevtd54px1lch7",580,"162.csv","","null","resources/images/coin2.png","null","",NA,NA,NA,NA,""
"image-keyboard-response",401,583127,"0.0-3.130-0.130","juevtd54px1lch7",580,"162.csv","","5261.299999952316","resources/trios/L4T2A3.jpg","37","restless",0.7,0.5,0.4,0.0782649069551107,"true"
"image-keyboard-response",402,583544,"0.0-3.130-1.130","juevtd54px1lch7",580,"162.csv","","null","resources/maskTrios/L4BB.jpg","null","",NA,NA,NA,NA,""
"image-keyboard-response",403,584766,"0.0-3.130-2.130","juevtd54px1lch7",580,"162.csv","","null","resources/images/coin2.png","null","",NA,NA,NA,NA,""
"image-keyboard-response",404,586833,"0.0-3.131-0.131","juevtd54px1lch7",580,"162.csv","","2066.199999809265","resources/trios/L1T1A1.jpg","38","restless",0.7,0.5,0.4,0.834076002900586,"false"
"image-keyboard-response",405,587254,"0.0-3.131-1.131","juevtd54px1lch7",580,"162.csv","","null","resources/maskTrios/BT1B.jpg","null","",NA,NA,NA,NA,""
"image-keyboard-response",406,588465,"0.0-3.131-2.131","juevtd54px1lch7",580,"162.csv","","null","resources/images/fishbone.png","null","",NA,NA,NA,NA,""
"image-keyboard-response",407,590886,"0.0-3.132-0.132","juevtd54px1lch7",580,"162.csv","","2420.0999999046326","resources/trios/L1T1A1.jpg","37","restless",0.7,0.5,0.4,0.0644961250802183,"true"
"image-keyboard-response",408,591292,"0.0-3.132-1.132","juevtd54px1lch7",580,"162.csv","","null","resources/maskTrios/L1BB.jpg","null","",NA,NA,NA,NA,""
"image-keyboard-response",409,592508,"0.0-3.132-2.132","juevtd54px1lch7",580,"162.csv","","null","resources/images/coin2.png","null","",NA,NA,NA,NA,""
"image-keyboard-response",410,597676,"0.0-3.133-0.133","juevtd54px1lch7",580,"162.csv","","5167.299999952316","resources/trios/L1T2A1.jpg","39","restless",0.7,0.5,0.4,0.483578712351205,"false"
"image-keyboard-response",411,598085,"0.0-3.133-1.133","juevtd54px1lch7",580,"162.csv","","null","resources/maskTrios/BBA1.jpg","null","",NA,NA,NA,NA,""
"image-keyboard-response",412,599300,"0.0-3.133-2.133","juevtd54px1lch7",580,"162.csv","","null","resources/images/fishbone.png","null","",NA,NA,NA,NA,""
"image-keyboard-response",413,604435,"0.0-3.134-0.134","juevtd54px1lch7",580,"162.csv","","5133","resources/trios/L4T2A3.jpg","38","restless",0.6,0.5,0.4,0.892693404918018,"false"
"image-keyboard-response",414,604842,"0.0-3.134-1.134","juevtd54px1lch7",580,"162.csv","","null","resources/maskTrios/BT2B.jpg","null","",NA,NA,NA,NA,""
"image-keyboard-response",415,606059,"0.0-3.134-2.134","juevtd54px1lch7",580,"162.csv","","null","resources/images/fishbone.png","null","",NA,NA,NA,NA,""
"image-keyboard-response",416,609518,"0.0-3.135-0.135","juevtd54px1lch7",580,"162.csv","","3458.5999999046326","resources/trios/L1T1A3.jpg","38","restless",0.6,0.5,0.4,0.480547405333921,"true"
"image-keyboard-response",417,609938,"0.0-3.135-1.135","juevtd54px1lch7",580,"162.csv","","null","resources/maskTrios/BT1B.jpg","null","",NA,NA,NA,NA,""
"image-keyboard-response",418,611154,"0.0-3.135-2.135","juevtd54px1lch7",580,"162.csv","","null","resources/images/coin2.png","null","",NA,NA,NA,NA,""
"image-keyboard-response",419,614533,"0.0-3.136-0.136","juevtd54px1lch7",580,"162.csv","","3377.2999999523163","resources/trios/L4T2A1.jpg","37","restless",0.6,0.4,0.4,0.830036173050224,"false"
"image-keyboard-response",420,614940,"0.0-3.136-1.136","juevtd54px1lch7",580,"162.csv","","null","resources/maskTrios/L4BB.jpg","null","",NA,NA,NA,NA,""
"image-keyboard-response",421,616144,"0.0-3.136-2.136","juevtd54px1lch7",580,"162.csv","","null","resources/images/fishbone.png","null","",NA,NA,NA,NA,""
"image-keyboard-response",422,616629,"0.0-3.137-0.137","juevtd54px1lch7",580,"162.csv","","482.7999999523163","resources/trios/L4T1A3.jpg","38","restless",0.6,0.4,0.4,0.985072252786168,"false"
"image-keyboard-response",423,617032,"0.0-3.137-1.137","juevtd54px1lch7",580,"162.csv","","null","resources/maskTrios/BT1B.jpg","null","",NA,NA,NA,NA,""
"image-keyboard-response",424,618246,"0.0-3.137-2.137","juevtd54px1lch7",580,"162.csv","","null","resources/images/fishbone.png","null","",NA,NA,NA,NA,""
"image-keyboard-response",425,618607,"0.0-3.138-0.138","juevtd54px1lch7",580,"162.csv","","359.7000000476837","resources/trios/L1T1A1.jpg","37","restless",0.6,0.4,0.4,0.2620781398462,"true"
"image-keyboard-response",426,619025,"0.0-3.138-1.138","juevtd54px1lch7",580,"162.csv","","null","resources/maskTrios/L1BB.jpg","null","",NA,NA,NA,NA,""
"image-keyboard-response",427,620242,"0.0-3.138-2.138","juevtd54px1lch7",580,"162.csv","","null","resources/images/coin2.png","null","",NA,NA,NA,NA,""
"image-keyboard-response",428,621571,"0.0-3.139-0.139","juevtd54px1lch7",580,"162.csv","","1328","resources/trios/L4T1A3.jpg","39","restless",0.6,0.4,0.4,0.70933785584924,"false"
"image-keyboard-response",429,621976,"0.0-3.139-1.139","juevtd54px1lch7",580,"162.csv","","null","resources/maskTrios/BBA3.jpg","null","",NA,NA,NA,NA,""
"image-keyboard-response",430,623196,"0.0-3.139-2.139","juevtd54px1lch7",580,"162.csv","","null","resources/images/fishbone.png","null","",NA,NA,NA,NA,""
"image-keyboard-response",431,623665,"0.0-3.140-0.140","juevtd54px1lch7",580,"162.csv","","467.7999999523163","resources/trios/L4T1A3.jpg","37","restless",0.6,0.4,0.4,0.361667423361112,"true"
"image-keyboard-response",432,624087,"0.0-3.140-1.140","juevtd54px1lch7",580,"162.csv","","null","resources/maskTrios/L4BB.jpg","null","",NA,NA,NA,NA,""
"image-keyboard-response",433,625309,"0.0-3.140-2.140","juevtd54px1lch7",580,"162.csv","","null","resources/images/coin2.png","null","",NA,NA,NA,NA,""
"image-keyboard-response",434,626240,"0.0-3.141-0.141","juevtd54px1lch7",580,"162.csv","","929.7999999523163","resources/trios/L1T1A1.jpg","37","restless",0.6,0.4,0.4,0.331556603939772,"true"
"image-keyboard-response",435,626663,"0.0-3.141-1.141","juevtd54px1lch7",580,"162.csv","","null","resources/maskTrios/L1BB.jpg","null","",NA,NA,NA,NA,""
"image-keyboard-response",436,627881,"0.0-3.141-2.141","juevtd54px1lch7",580,"162.csv","","null","resources/images/coin2.png","null","",NA,NA,NA,NA,""
"image-keyboard-response",437,628754,"0.0-3.142-0.142","juevtd54px1lch7",580,"162.csv","","872.0999999046326","resources/trios/L1T1A1.jpg","37","restless",0.6,0.4,0.4,0.00562478682218459,"true"
"image-keyboard-response",438,629173,"0.0-3.142-1.142","juevtd54px1lch7",580,"162.csv","","null","resources/maskTrios/L1BB.jpg","null","",NA,NA,NA,NA,""
"image-keyboard-response",439,630376,"0.0-3.142-2.142","juevtd54px1lch7",580,"162.csv","","null","resources/images/coin2.png","null","",NA,NA,NA,NA,""
"image-keyboard-response",440,630911,"0.0-3.143-0.143","juevtd54px1lch7",580,"162.csv","","534","resources/trios/L1T1A3.jpg","37","restless",0.6,0.4,0.4,0.242619329905396,"true"
"image-keyboard-response",441,631330,"0.0-3.143-1.143","juevtd54px1lch7",580,"162.csv","","null","resources/maskTrios/L1BB.jpg","null","",NA,NA,NA,NA,""
"image-keyboard-response",442,632548,"0.0-3.143-2.143","juevtd54px1lch7",580,"162.csv","","null","resources/images/coin2.png","null","",NA,NA,NA,NA,""
"image-keyboard-response",443,632878,"0.0-3.144-0.144","juevtd54px1lch7",580,"162.csv","","328.89999985694885","resources/trios/L4T2A1.jpg","37","restless",0.6,0.5,0.4,0.0767141011001189,"true"
"image-keyboard-response",444,633282,"0.0-3.144-1.144","juevtd54px1lch7",580,"162.csv","","null","resources/maskTrios/L4BB.jpg","null","",NA,NA,NA,NA,""
"image-keyboard-response",445,634501,"0.0-3.144-2.144","juevtd54px1lch7",580,"162.csv","","null","resources/images/coin2.png","null","",NA,NA,NA,NA,""
"image-keyboard-response",446,636060,"0.0-3.145-0.145","juevtd54px1lch7",580,"162.csv","","1557.3999998569489","resources/trios/L1T1A1.jpg","38","restless",0.7,0.6,0.4,0.362314954676953,"true"
"image-keyboard-response",447,636479,"0.0-3.145-1.145","juevtd54px1lch7",580,"162.csv","","null","resources/maskTrios/BT1B.jpg","null","",NA,NA,NA,NA,""
"image-keyboard-response",448,637698,"0.0-3.145-2.145","juevtd54px1lch7",580,"162.csv","","null","resources/images/coin2.png","null","",NA,NA,NA,NA,""
"image-keyboard-response",449,638650,"0.0-3.146-0.146","juevtd54px1lch7",580,"162.csv","","950.2000000476837","resources/trios/L4T2A1.jpg","37","restless",0.7,0.6,0.5,0.745808631622614,"false"
"image-keyboard-response",450,639071,"0.0-3.146-1.146","juevtd54px1lch7",580,"162.csv","","null","resources/maskTrios/L4BB.jpg","null","",NA,NA,NA,NA,""
"image-keyboard-response",451,640289,"0.0-3.146-2.146","juevtd54px1lch7",580,"162.csv","","null","resources/images/fishbone.png","null","",NA,NA,NA,NA,""
"image-keyboard-response",452,640570,"0.0-3.147-0.147","juevtd54px1lch7",580,"162.csv","","278.89999985694885","resources/trios/L4T2A3.jpg","39","restless",0.7,0.6,0.5,0.0837466933626574,"true"
"image-keyboard-response",453,640978,"0.0-3.147-1.147","juevtd54px1lch7",580,"162.csv","","null","resources/maskTrios/BBA3.jpg","null","",NA,NA,NA,NA,""
"image-keyboard-response",454,642199,"0.0-3.147-2.147","juevtd54px1lch7",580,"162.csv","","null","resources/images/coin2.png","null","",NA,NA,NA,NA,""
"image-keyboard-response",455,643172,"0.0-3.148-0.148","juevtd54px1lch7",580,"162.csv","","972.4000000953674","resources/trios/L4T1A1.jpg","37","restless",0.7,0.7,0.5,0.168143927975738,"true"
"image-keyboard-response",456,643576,"0.0-3.148-1.148","juevtd54px1lch7",580,"162.csv","","null","resources/maskTrios/L4BB.jpg","null","",NA,NA,NA,NA,""
"image-keyboard-response",457,644792,"0.0-3.148-2.148","juevtd54px1lch7",580,"162.csv","","null","resources/images/coin2.png","null","",NA,NA,NA,NA,""
"image-keyboard-response",458,645545,"0.0-3.149-0.149","juevtd54px1lch7",580,"162.csv","","752.3999998569489","resources/trios/L1T1A1.jpg","37","restless",0.7,0.7,0.5,0.495652938126876,"true"
"image-keyboard-response",459,645965,"0.0-3.149-1.149","juevtd54px1lch7",580,"162.csv","","null","resources/maskTrios/L1BB.jpg","null","",NA,NA,NA,NA,""
"image-keyboard-response",460,647171,"0.0-3.149-2.149","juevtd54px1lch7",580,"162.csv","","null","resources/images/coin2.png","null","",NA,NA,NA,NA,""
"image-keyboard-response",461,648294,"0.0-3.150-0.150","juevtd54px1lch7",580,"162.csv","","1122","resources/trios/L4T1A3.jpg","37","restless",0.6,0.7,0.6,0.735023506393855,"false"
"image-keyboard-response",462,648699,"0.0-3.150-1.150","juevtd54px1lch7",580,"162.csv","","null","resources/maskTrios/L4BB.jpg","null","",NA,NA,NA,NA,""
"image-keyboard-response",463,649918,"0.0-3.150-2.150","juevtd54px1lch7",580,"162.csv","","null","resources/images/fishbone.png","null","",NA,NA,NA,NA,""
"image-keyboard-response",464,650310,"0.0-3.151-0.151","juevtd54px1lch7",580,"162.csv","","391.59999990463257","resources/trios/L4T1A3.jpg","39","restless",0.6,0.7,0.6,0.440210700681701,"true"
"image-keyboard-response",465,650715,"0.0-3.151-1.151","juevtd54px1lch7",580,"162.csv","","null","resources/maskTrios/BBA3.jpg","null","",NA,NA,NA,NA,""
"image-keyboard-response",466,651920,"0.0-3.151-2.151","juevtd54px1lch7",580,"162.csv","","null","resources/images/coin2.png","null","",NA,NA,NA,NA,""
"image-keyboard-response",467,652436,"0.0-3.152-0.152","juevtd54px1lch7",580,"162.csv","","514.5","resources/trios/L4T2A1.jpg","37","restless",0.6,0.7,0.6,0.239923941718698,"true"
"image-keyboard-response",468,652843,"0.0-3.152-1.152","juevtd54px1lch7",580,"162.csv","","null","resources/maskTrios/L4BB.jpg","null","",NA,NA,NA,NA,""
"image-keyboard-response",469,654062,"0.0-3.152-2.152","juevtd54px1lch7",580,"162.csv","","null","resources/images/coin2.png","null","",NA,NA,NA,NA,""
"image-keyboard-response",470,654735,"0.0-3.153-0.153","juevtd54px1lch7",580,"162.csv","","672","resources/trios/L1T2A3.jpg","38","restless",0.6,0.7,0.6,0.410130654208803,"true"
"image-keyboard-response",471,655138,"0.0-3.153-1.153","juevtd54px1lch7",580,"162.csv","","null","resources/maskTrios/BT2B.jpg","null","",NA,NA,NA,NA,""
"image-keyboard-response",472,656347,"0.0-3.153-2.153","juevtd54px1lch7",580,"162.csv","","null","resources/images/coin2.png","null","",NA,NA,NA,NA,""
"image-keyboard-response",473,656899,"0.0-3.154-0.154","juevtd54px1lch7",580,"162.csv","","550.4000000953674","resources/trios/L1T1A1.jpg","37","restless",0.5,0.7,0.6,0.674019424324184,"false"
"image-keyboard-response",474,657317,"0.0-3.154-1.154","juevtd54px1lch7",580,"162.csv","","null","resources/maskTrios/L1BB.jpg","null","",NA,NA,NA,NA,""
"image-keyboard-response",475,658522,"0.0-3.154-2.154","juevtd54px1lch7",580,"162.csv","","null","resources/images/fishbone.png","null","",NA,NA,NA,NA,""
"image-keyboard-response",476,659679,"0.0-3.155-0.155","juevtd54px1lch7",580,"162.csv","","1156.5","resources/trios/L4T1A1.jpg","39","restless",0.5,0.7,0.6,0.0315736868301124,"true"
"image-keyboard-response",477,660096,"0.0-3.155-1.155","juevtd54px1lch7",580,"162.csv","","null","resources/maskTrios/BBA1.jpg","null","",NA,NA,NA,NA,""
"image-keyboard-response",478,661315,"0.0-3.155-2.155","juevtd54px1lch7",580,"162.csv","","null","resources/images/coin2.png","null","",NA,NA,NA,NA,""
"image-keyboard-response",479,661756,"0.0-3.156-0.156","juevtd54px1lch7",580,"162.csv","","439","resources/trios/L4T1A1.jpg","38","restless",0.5,0.7,0.6,0.63152937568939,"true"
"image-keyboard-response",480,662175,"0.0-3.156-1.156","juevtd54px1lch7",580,"162.csv","","null","resources/maskTrios/BT1B.jpg","null","",NA,NA,NA,NA,""
"image-keyboard-response",481,663392,"0.0-3.156-2.156","juevtd54px1lch7",580,"162.csv","","null","resources/images/coin2.png","null","",NA,NA,NA,NA,""
"image-keyboard-response",482,663885,"0.0-3.157-0.157","juevtd54px1lch7",580,"162.csv","","491.69999980926514","resources/trios/L4T1A3.jpg","37","restless",0.5,0.7,0.5,0.561727514809802,"false"
"image-keyboard-response",483,664292,"0.0-3.157-1.157","juevtd54px1lch7",580,"162.csv","","null","resources/maskTrios/L4BB.jpg","null","",NA,NA,NA,NA,""
"image-keyboard-response",484,665496,"0.0-3.157-2.157","juevtd54px1lch7",580,"162.csv","","null","resources/images/fishbone.png","null","",NA,NA,NA,NA,""
"image-keyboard-response",485,666403,"0.0-3.158-0.158","juevtd54px1lch7",580,"162.csv","","906.2999999523163","resources/trios/L1T2A3.jpg","39","restless",0.5,0.8,0.5,0.293543319698222,"true"
"image-keyboard-response",486,666823,"0.0-3.158-1.158","juevtd54px1lch7",580,"162.csv","","null","resources/maskTrios/BBA3.jpg","null","",NA,NA,NA,NA,""
"image-keyboard-response",487,668038,"0.0-3.158-2.158","juevtd54px1lch7",580,"162.csv","","null","resources/images/coin2.png","null","",NA,NA,NA,NA,""
"image-keyboard-response",488,668527,"0.0-3.159-0.159","juevtd54px1lch7",580,"162.csv","","488","resources/trios/L4T1A1.jpg","38","restless",0.5,0.8,0.5,0.803034960520647,"false"
"image-keyboard-response",489,668947,"0.0-3.159-1.159","juevtd54px1lch7",580,"162.csv","","null","resources/maskTrios/BT1B.jpg","null","",NA,NA,NA,NA,""
"image-keyboard-response",490,670164,"0.0-3.159-2.159","juevtd54px1lch7",580,"162.csv","","null","resources/images/fishbone.png","null","",NA,NA,NA,NA,""
"image-keyboard-response",491,670899,"0.0-3.160-0.160","juevtd54px1lch7",580,"162.csv","","733.6000001430511","resources/trios/L1T2A3.jpg","39","restless",0.5,0.8,0.5,0.632632425863579,"false"
"image-keyboard-response",492,671319,"0.0-3.160-1.160","juevtd54px1lch7",580,"162.csv","","null","resources/maskTrios/BBA3.jpg","null","",NA,NA,NA,NA,""
"image-keyboard-response",493,672536,"0.0-3.160-2.160","juevtd54px1lch7",580,"162.csv","","null","resources/images/fishbone.png","null","",NA,NA,NA,NA,""
"image-keyboard-response",494,672864,"0.0-3.161-0.161","juevtd54px1lch7",580,"162.csv","","327.5","resources/trios/L4T1A1.jpg","38","restless",0.5,0.8,0.5,0.0679479068760784,"true"
"image-keyboard-response",495,673284,"0.0-3.161-1.161","juevtd54px1lch7",580,"162.csv","","null","resources/maskTrios/BT1B.jpg","null","",NA,NA,NA,NA,""
"image-keyboard-response",496,674502,"0.0-3.161-2.161","juevtd54px1lch7",580,"162.csv","","null","resources/images/coin2.png","null","",NA,NA,NA,NA,""
"image-keyboard-response",497,674863,"0.0-3.162-0.162","juevtd54px1lch7",580,"162.csv","","360","resources/trios/L1T2A1.jpg","37","restless",0.5,0.8,0.5,0.788452980446559,"false"
"image-keyboard-response",498,675282,"0.0-3.162-1.162","juevtd54px1lch7",580,"162.csv","","null","resources/maskTrios/L1BB.jpg","null","",NA,NA,NA,NA,""
"image-keyboard-response",499,676502,"0.0-3.162-2.162","juevtd54px1lch7",580,"162.csv","","null","resources/images/fishbone.png","null","",NA,NA,NA,NA,""
"image-keyboard-response",500,676786,"0.0-3.163-0.163","juevtd54px1lch7",580,"162.csv","","282.7999999523163","resources/trios/L1T2A1.jpg","38","restless",0.5,0.8,0.5,0.325440365644635,"true"
"image-keyboard-response",501,677205,"0.0-3.163-1.163","juevtd54px1lch7",580,"162.csv","","null","resources/maskTrios/BT2B.jpg","null","",NA,NA,NA,NA,""
"image-keyboard-response",502,678422,"0.0-3.163-2.163","juevtd54px1lch7",580,"162.csv","","null","resources/images/coin2.png","null","",NA,NA,NA,NA,""
"image-keyboard-response",503,679346,"0.0-3.164-0.164","juevtd54px1lch7",580,"162.csv","","923.5999999046326","resources/trios/L1T1A1.jpg","38","restless",0.5,0.8,0.5,0.871268747769431,"false"
"image-keyboard-response",504,679765,"0.0-3.164-1.164","juevtd54px1lch7",580,"162.csv","","null","resources/maskTrios/BT1B.jpg","null","",NA,NA,NA,NA,""
"image-keyboard-response",505,680969,"0.0-3.164-2.164","juevtd54px1lch7",580,"162.csv","","null","resources/images/fishbone.png","null","",NA,NA,NA,NA,""
"image-keyboard-response",506,681566,"0.0-3.165-0.165","juevtd54px1lch7",580,"162.csv","","596.0999999046326","resources/trios/L1T1A1.jpg","37","restless",0.5,0.8,0.5,0.594558022431182,"false"
"image-keyboard-response",507,681982,"0.0-3.165-1.165","juevtd54px1lch7",580,"162.csv","","null","resources/maskTrios/L1BB.jpg","null","",NA,NA,NA,NA,""
"image-keyboard-response",508,683198,"0.0-3.165-2.165","juevtd54px1lch7",580,"162.csv","","null","resources/images/fishbone.png","null","",NA,NA,NA,NA,""
"image-keyboard-response",509,683573,"0.0-3.166-0.166","juevtd54px1lch7",580,"162.csv","","373.7999999523163","resources/trios/L1T1A3.jpg","39","restless",0.5,0.8,0.5,0.628065162244236,"false"
"image-keyboard-response",510,683980,"0.0-3.166-1.166","juevtd54px1lch7",580,"162.csv","","null","resources/maskTrios/BBA3.jpg","null","",NA,NA,NA,NA,""
"image-keyboard-response",511,685196,"0.0-3.166-2.166","juevtd54px1lch7",580,"162.csv","","null","resources/images/fishbone.png","null","",NA,NA,NA,NA,""
"image-keyboard-response",512,686022,"0.0-3.167-0.167","juevtd54px1lch7",580,"162.csv","","824.8999998569489","resources/trios/L1T2A3.jpg","37","restless",0.4,0.8,0.4,0.00459810823471662,"true"
"image-keyboard-response",513,686425,"0.0-3.167-1.167","juevtd54px1lch7",580,"162.csv","","null","resources/maskTrios/L1BB.jpg","null","",NA,NA,NA,NA,""
"image-keyboard-response",514,687641,"0.0-3.167-2.167","juevtd54px1lch7",580,"162.csv","","null","resources/images/coin2.png","null","",NA,NA,NA,NA,""
"image-keyboard-response",515,689241,"0.0-3.168-0.168","juevtd54px1lch7",580,"162.csv","","1598.1999998092651","resources/trios/L1T1A3.jpg","39","restless",0.4,0.8,0.4,0.558797815313772,"false"
"image-keyboard-response",516,689659,"0.0-3.168-1.168","juevtd54px1lch7",580,"162.csv","","null","resources/maskTrios/BBA3.jpg","null","",NA,NA,NA,NA,""
"image-keyboard-response",517,690878,"0.0-3.168-2.168","juevtd54px1lch7",580,"162.csv","","null","resources/images/fishbone.png","null","",NA,NA,NA,NA,""
"image-keyboard-response",518,691424,"0.0-3.169-0.169","juevtd54px1lch7",580,"162.csv","","545.2000000476837","resources/trios/L4T1A1.jpg","37","restless",0.4,0.8,0.4,0.848212801880031,"false"
"image-keyboard-response",519,691832,"0.0-3.169-1.169","juevtd54px1lch7",580,"162.csv","","null","resources/maskTrios/L4BB.jpg","null","",NA,NA,NA,NA,""
"image-keyboard-response",520,693051,"0.0-3.169-2.169","juevtd54px1lch7",580,"162.csv","","null","resources/images/fishbone.png","null","",NA,NA,NA,NA,""
"image-keyboard-response",521,693332,"0.0-3.170-0.170","juevtd54px1lch7",580,"162.csv","","280.09999990463257","resources/trios/L1T2A1.jpg","38","restless",0.4,0.9,0.4,0.166859610624591,"true"
"image-keyboard-response",522,693750,"0.0-3.170-1.170","juevtd54px1lch7",580,"162.csv","","null","resources/maskTrios/BT2B.jpg","null","",NA,NA,NA,NA,""
"image-keyboard-response",523,694967,"0.0-3.170-2.170","juevtd54px1lch7",580,"162.csv","","null","resources/images/coin2.png","null","",NA,NA,NA,NA,""
"image-keyboard-response",524,695731,"0.0-3.171-0.171","juevtd54px1lch7",580,"162.csv","","762.8999998569489","resources/trios/L4T1A1.jpg","37","restless",0.4,0.9,0.4,0.127688035699177,"true"
"image-keyboard-response",525,696150,"0.0-3.171-1.171","juevtd54px1lch7",580,"162.csv","","null","resources/maskTrios/L4BB.jpg","null","",NA,NA,NA,NA,""
"image-keyboard-response",526,697358,"0.0-3.171-2.171","juevtd54px1lch7",580,"162.csv","","null","resources/images/coin2.png","null","",NA,NA,NA,NA,""
"image-keyboard-response",527,697965,"0.0-3.172-0.172","juevtd54px1lch7",580,"162.csv","","606.2999999523163","resources/trios/L4T2A3.jpg","39","restless",0.4,0.9,0.4,0.866908954254986,"false"
"image-keyboard-response",528,698369,"0.0-3.172-1.172","juevtd54px1lch7",580,"162.csv","","null","resources/maskTrios/BBA3.jpg","null","",NA,NA,NA,NA,""
"image-keyboard-response",529,699588,"0.0-3.172-2.172","juevtd54px1lch7",580,"162.csv","","null","resources/images/fishbone.png","null","",NA,NA,NA,NA,""
"image-keyboard-response",530,700105,"0.0-3.173-0.173","juevtd54px1lch7",580,"162.csv","","515.2000000476837","resources/trios/L4T1A1.jpg","38","restless",0.4,0.9,0.4,0.31480186323526,"true"
"image-keyboard-response",531,700527,"0.0-3.173-1.173","juevtd54px1lch7",580,"162.csv","","null","resources/maskTrios/BT1B.jpg","null","",NA,NA,NA,NA,""
"image-keyboard-response",532,701748,"0.0-3.173-2.173","juevtd54px1lch7",580,"162.csv","","null","resources/images/coin2.png","null","",NA,NA,NA,NA,""
"image-keyboard-response",533,702735,"0.0-3.174-0.174","juevtd54px1lch7",580,"162.csv","","986.5","resources/trios/L1T2A1.jpg","37","restless",0.4,0.9,0.4,0.994796346814086,"false"
"image-keyboard-response",534,703157,"0.0-3.174-1.174","juevtd54px1lch7",580,"162.csv","","null","resources/maskTrios/L1BB.jpg","null","",NA,NA,NA,NA,""
"image-keyboard-response",535,704374,"0.0-3.174-2.174","juevtd54px1lch7",580,"162.csv","","null","resources/images/fishbone.png","null","",NA,NA,NA,NA,""
"image-keyboard-response",536,704846,"0.0-3.175-0.175","juevtd54px1lch7",580,"162.csv","","469.7999999523163","resources/trios/L1T2A3.jpg","38","restless",0.4,0.9,0.4,0.921299470866552,"false"
"image-keyboard-response",537,705253,"0.0-3.175-1.175","juevtd54px1lch7",580,"162.csv","","null","resources/maskTrios/BT2B.jpg","null","",NA,NA,NA,NA,""
"image-keyboard-response",538,706459,"0.0-3.175-2.175","juevtd54px1lch7",580,"162.csv","","null","resources/images/fishbone.png","null","",NA,NA,NA,NA,""
"image-keyboard-response",539,706744,"0.0-3.176-0.176","juevtd54px1lch7",580,"162.csv","","283.90000009536743","resources/trios/L1T1A3.jpg","39","restless",0.4,0.9,0.4,0.884374298299142,"false"
"image-keyboard-response",540,707163,"0.0-3.176-1.176","juevtd54px1lch7",580,"162.csv","","null","resources/maskTrios/BBA3.jpg","null","",NA,NA,NA,NA,""
"image-keyboard-response",541,708381,"0.0-3.176-2.176","juevtd54px1lch7",580,"162.csv","","null","resources/images/fishbone.png","null","",NA,NA,NA,NA,""
"image-keyboard-response",542,708792,"0.0-3.177-0.177","juevtd54px1lch7",580,"162.csv","","409.39999985694885","resources/trios/L1T2A1.jpg","39","restless",0.4,0.9,0.4,0.920036570087723,"false"
"image-keyboard-response",543,709211,"0.0-3.177-1.177","juevtd54px1lch7",580,"162.csv","","null","resources/maskTrios/BBA1.jpg","null","",NA,NA,NA,NA,""
"image-keyboard-response",544,710431,"0.0-3.177-2.177","juevtd54px1lch7",580,"162.csv","","null","resources/images/fishbone.png","null","",NA,NA,NA,NA,""
"image-keyboard-response",545,710604,"0.0-3.178-0.178","juevtd54px1lch7",580,"162.csv","","172","resources/trios/L4T2A1.jpg","38","restless",0.4,0.9,0.4,0.931431011838919,"false"
"image-keyboard-response",546,711023,"0.0-3.178-1.178","juevtd54px1lch7",580,"162.csv","","null","resources/maskTrios/BT2B.jpg","null","",NA,NA,NA,NA,""
"image-keyboard-response",547,712244,"0.0-3.178-2.178","juevtd54px1lch7",580,"162.csv","","null","resources/images/fishbone.png","null","",NA,NA,NA,NA,""
"image-keyboard-response",548,712654,"0.0-3.179-0.179","juevtd54px1lch7",580,"162.csv","","408.09999990463257","resources/trios/L1T2A1.jpg","37","restless",0.4,0.9,0.4,0.658635073828255,"false"
"image-keyboard-response",549,713057,"0.0-3.179-1.179","juevtd54px1lch7",580,"162.csv","","null","resources/maskTrios/L1BB.jpg","null","",NA,NA,NA,NA,""
"image-keyboard-response",550,714278,"0.0-3.179-2.179","juevtd54px1lch7",580,"162.csv","","null","resources/images/fishbone.png","null","",NA,NA,NA,NA,""
"image-keyboard-response",551,714874,"0.0-3.180-0.180","juevtd54px1lch7",580,"162.csv","","594.4000000953674","resources/trios/L4T1A3.jpg","37","restless",0.4,0.9,0.4,0.772521098436078,"false"
"image-keyboard-response",552,715294,"0.0-3.180-1.180","juevtd54px1lch7",580,"162.csv","","null","resources/maskTrios/L4BB.jpg","null","",NA,NA,NA,NA,""
"image-keyboard-response",553,716499,"0.0-3.180-2.180","juevtd54px1lch7",580,"162.csv","","null","resources/images/fishbone.png","null","",NA,NA,NA,NA,""
"image-keyboard-response",554,716812,"0.0-3.181-0.181","juevtd54px1lch7",580,"162.csv","","311.89999985694885","resources/trios/L4T1A3.jpg","38","restless",0.4,0.9,0.4,0.343232080179749,"true"
"image-keyboard-response",555,717231,"0.0-3.181-1.181","juevtd54px1lch7",580,"162.csv","","null","resources/maskTrios/BT1B.jpg","null","",NA,NA,NA,NA,""
"image-keyboard-response",556,718450,"0.0-3.181-2.181","juevtd54px1lch7",580,"162.csv","","null","resources/images/coin2.png","null","",NA,NA,NA,NA,""
"image-keyboard-response",557,719344,"0.0-3.182-0.182","juevtd54px1lch7",580,"162.csv","","893.3999998569489","resources/trios/L4T1A1.jpg","37","restless",0.4,0.9,0.4,0.360224112990448,"true"
"image-keyboard-response",558,719766,"0.0-3.182-1.182","juevtd54px1lch7",580,"162.csv","","null","resources/maskTrios/L4BB.jpg","null","",NA,NA,NA,NA,""
"image-keyboard-response",559,720971,"0.0-3.182-2.182","juevtd54px1lch7",580,"162.csv","","null","resources/images/coin2.png","null","",NA,NA,NA,NA,""
"image-keyboard-response",560,721790,"0.0-3.183-0.183","juevtd54px1lch7",580,"162.csv","","817.4000000953674","resources/trios/L1T1A1.jpg","39","restless",0.3,0.9,0.4,0.0323302904655889,"true"
"image-keyboard-response",561,722206,"0.0-3.183-1.183","juevtd54px1lch7",580,"162.csv","","null","resources/maskTrios/BBA1.jpg","null","",NA,NA,NA,NA,""
"image-keyboard-response",562,723409,"0.0-3.183-2.183","juevtd54px1lch7",580,"162.csv","","null","resources/images/coin2.png","null","",NA,NA,NA,NA,""
"image-keyboard-response",563,724067,"0.0-3.184-0.184","juevtd54px1lch7",580,"162.csv","","656.3999998569489","resources/trios/L4T1A1.jpg","38","restless",0.3,0.9,0.4,0.730160506523891,"true"
"image-keyboard-response",564,724487,"0.0-3.184-1.184","juevtd54px1lch7",580,"162.csv","","null","resources/maskTrios/BT1B.jpg","null","",NA,NA,NA,NA,""
"image-keyboard-response",565,725697,"0.0-3.184-2.184","juevtd54px1lch7",580,"162.csv","","null","resources/images/coin2.png","null","",NA,NA,NA,NA,""
"image-keyboard-response",566,726184,"0.0-3.185-0.185","juevtd54px1lch7",580,"162.csv","","485.7999999523163","resources/trios/L4T2A1.jpg","37","restless",0.3,0.9,0.4,0.649236400263161,"false"
"image-keyboard-response",567,726603,"0.0-3.185-1.185","juevtd54px1lch7",580,"162.csv","","null","resources/maskTrios/L4BB.jpg","null","",NA,NA,NA,NA,""
"image-keyboard-response",568,727819,"0.0-3.185-2.185","juevtd54px1lch7",580,"162.csv","","null","resources/images/fishbone.png","null","",NA,NA,NA,NA,""
"image-keyboard-response",569,728526,"0.0-3.186-0.186","juevtd54px1lch7",580,"162.csv","","705.7999999523163","resources/trios/L1T1A3.jpg","37","restless",0.3,0.9,0.4,0.249669529787141,"true"
"image-keyboard-response",570,728930,"0.0-3.186-1.186","juevtd54px1lch7",580,"162.csv","","null","resources/maskTrios/L1BB.jpg","null","",NA,NA,NA,NA,""
"image-keyboard-response",571,730137,"0.0-3.186-2.186","juevtd54px1lch7",580,"162.csv","","null","resources/images/coin2.png","null","",NA,NA,NA,NA,""
"image-keyboard-response",572,730715,"0.0-3.187-0.187","juevtd54px1lch7",580,"162.csv","","577","resources/trios/L4T1A1.jpg","39","restless",0.3,0.9,0.4,0.858787550240392,"false"
"image-keyboard-response",573,731122,"0.0-3.187-1.187","juevtd54px1lch7",580,"162.csv","","null","resources/maskTrios/BBA1.jpg","null","",NA,NA,NA,NA,""
"image-keyboard-response",574,732329,"0.0-3.187-2.187","juevtd54px1lch7",580,"162.csv","","null","resources/images/fishbone.png","null","",NA,NA,NA,NA,""
"image-keyboard-response",575,732831,"0.0-3.188-0.188","juevtd54px1lch7",580,"162.csv","","501","resources/trios/L1T1A1.jpg","38","restless",0.3,0.8,0.4,0.941122571303268,"false"
"image-keyboard-response",576,733251,"0.0-3.188-1.188","juevtd54px1lch7",580,"162.csv","","null","resources/maskTrios/BT1B.jpg","null","",NA,NA,NA,NA,""
"image-keyboard-response",577,734471,"0.0-3.188-2.188","juevtd54px1lch7",580,"162.csv","","null","resources/images/fishbone.png","null","",NA,NA,NA,NA,""
"image-keyboard-response",578,734706,"0.0-3.189-0.189","juevtd54px1lch7",580,"162.csv","","232.90000009536743","resources/trios/L4T1A1.jpg","37","restless",0.3,0.8,0.4,0.343901556204847,"false"
"image-keyboard-response",579,735124,"0.0-3.189-1.189","juevtd54px1lch7",580,"162.csv","","null","resources/maskTrios/L4BB.jpg","null","",NA,NA,NA,NA,""
"image-keyboard-response",580,736342,"0.0-3.189-2.189","juevtd54px1lch7",580,"162.csv","","null","resources/images/fishbone.png","null","",NA,NA,NA,NA,""
"image-keyboard-response",581,736563,"0.0-3.190-0.190","juevtd54px1lch7",580,"162.csv","","219.79999995231628","resources/trios/L4T1A1.jpg","39","restless",0.3,0.8,0.4,0.651497965932684,"false"
"image-keyboard-response",582,736982,"0.0-3.190-1.190","juevtd54px1lch7",580,"162.csv","","null","resources/maskTrios/BBA1.jpg","null","",NA,NA,NA,NA,""
"image-keyboard-response",583,738187,"0.0-3.190-2.190","juevtd54px1lch7",580,"162.csv","","null","resources/images/fishbone.png","null","",NA,NA,NA,NA,""
"image-keyboard-response",584,738624,"0.0-3.191-0.191","juevtd54px1lch7",580,"162.csv","","435.40000009536743","resources/trios/L1T1A3.jpg","38","restless",0.3,0.8,0.4,0.162767862308429,"true"
"image-keyboard-response",585,739041,"0.0-3.191-1.191","juevtd54px1lch7",580,"162.csv","","null","resources/maskTrios/BT1B.jpg","null","",NA,NA,NA,NA,""
"image-keyboard-response",586,740260,"0.0-3.191-2.191","juevtd54px1lch7",580,"162.csv","","null","resources/images/coin2.png","null","",NA,NA,NA,NA,""
"image-keyboard-response",587,740746,"0.0-3.192-0.192","juevtd54px1lch7",580,"162.csv","","484.2999999523163","resources/trios/L1T2A1.jpg","37","restless",0.2,0.8,0.4,0.491248779674633,"false"
"image-keyboard-response",588,741152,"0.0-3.192-1.192","juevtd54px1lch7",580,"162.csv","","null","resources/maskTrios/L1BB.jpg","null","",NA,NA,NA,NA,""
"image-keyboard-response",589,742369,"0.0-3.192-2.192","juevtd54px1lch7",580,"162.csv","","null","resources/images/fishbone.png","null","",NA,NA,NA,NA,""
"image-keyboard-response",590,744842,"0.0-3.193-0.193","juevtd54px1lch7",580,"162.csv","","2472.2999999523163","resources/trios/L4T1A3.jpg","39","restless",0.3,0.8,0.3,0.15994448360943,"true"
"image-keyboard-response",591,745261,"0.0-3.193-1.193","juevtd54px1lch7",580,"162.csv","","null","resources/maskTrios/BBA3.jpg","null","",NA,NA,NA,NA,""
"image-keyboard-response",592,746465,"0.0-3.193-2.193","juevtd54px1lch7",580,"162.csv","","null","resources/images/coin2.png","null","",NA,NA,NA,NA,""
"image-keyboard-response",593,747246,"0.0-3.194-0.194","juevtd54px1lch7",580,"162.csv","","779.6000001430511","resources/trios/L4T2A3.jpg","37","restless",0.3,0.8,0.3,0.628071074553948,"false"
"image-keyboard-response",594,747650,"0.0-3.194-1.194","juevtd54px1lch7",580,"162.csv","","null","resources/maskTrios/L4BB.jpg","null","",NA,NA,NA,NA,""
"image-keyboard-response",595,748871,"0.0-3.194-2.194","juevtd54px1lch7",580,"162.csv","","null","resources/images/fishbone.png","null","",NA,NA,NA,NA,""
"image-keyboard-response",596,749215,"0.0-3.195-0.195","juevtd54px1lch7",580,"162.csv","","343","resources/trios/L4T2A3.jpg","38","restless",0.3,0.8,0.3,0.935518004932336,"false"
"image-keyboard-response",597,749637,"0.0-3.195-1.195","juevtd54px1lch7",580,"162.csv","","null","resources/maskTrios/BT2B.jpg","null","",NA,NA,NA,NA,""
"image-keyboard-response",598,750853,"0.0-3.195-2.195","juevtd54px1lch7",580,"162.csv","","null","resources/images/fishbone.png","null","",NA,NA,NA,NA,""
"image-keyboard-response",599,751244,"0.0-3.196-0.196","juevtd54px1lch7",580,"162.csv","","390.19999980926514","resources/trios/L4T1A1.jpg","37","restless",0.4,0.8,0.3,0.154324309521263,"true"
"image-keyboard-response",600,751649,"0.0-3.196-1.196","juevtd54px1lch7",580,"162.csv","","null","resources/maskTrios/L4BB.jpg","null","",NA,NA,NA,NA,""
"image-keyboard-response",601,752856,"0.0-3.196-2.196","juevtd54px1lch7",580,"162.csv","","null","resources/images/coin2.png","null","",NA,NA,NA,NA,""
"image-keyboard-response",602,753338,"0.0-3.197-0.197","juevtd54px1lch7",580,"162.csv","","481.2999999523163","resources/trios/L1T2A3.jpg","37","restless",0.4,0.8,0.3,0.374737196082809,"true"
"image-keyboard-response",603,753744,"0.0-3.197-1.197","juevtd54px1lch7",580,"162.csv","","null","resources/maskTrios/L1BB.jpg","null","",NA,NA,NA,NA,""
"image-keyboard-response",604,754948,"0.0-3.197-2.197","juevtd54px1lch7",580,"162.csv","","null","resources/images/coin2.png","null","",NA,NA,NA,NA,""
"image-keyboard-response",605,755246,"0.0-3.198-0.198","juevtd54px1lch7",580,"162.csv","","297.30000019073486","resources/trios/L4T2A1.jpg","37","restless",0.3,0.8,0.4,0.481629434836324,"false"
"image-keyboard-response",606,755652,"0.0-3.198-1.198","juevtd54px1lch7",580,"162.csv","","null","resources/maskTrios/L4BB.jpg","null","",NA,NA,NA,NA,""
