"trial_type","trial_index","time_elapsed","internal_node_id","subject","participantCode","walkNumber","success","rt","stimulus","key_press","test_part","leftProb","midProb","rightProb","generatedNum","correct"
"pavlovia",0,1088,"0.0-0.0","xd06oaz2xzcha2t",121,"163.csv","","","","","",NA,NA,NA,NA,""
"fullscreen",1,4647,"0.0-1.0","xd06oaz2xzcha2t",121,"163.csv","true","","","","",NA,NA,NA,NA,""
"html-keyboard-response",2,13861,"0.0-2.0-0.0","xd06oaz2xzcha2t",121,"163.csv","","9211.800000071526","<p><font size='6'>Arrrgh!</p></font><p>Can you be the best pirate? Try to find lots of gold! But beware, some islands have more gold than others, and over time, the island with the most gold may change. Can YOU figure it out? </p><font size='6'>GOOD LUCK, CAPTAIN!!!</font><p>Press any key to begin</p>","32","",NA,NA,NA,NA,""
"image-keyboard-response",3,16863,"0.0-2.0-1.0","xd06oaz2xzcha2t",121,"163.csv","","null","resources/image_sets/111.png","null","",NA,NA,NA,NA,""
"image-keyboard-response",4,25414,"0.0-2.0-2.0","xd06oaz2xzcha2t",121,"163.csv","","8549.600000023842","resources/image_sets/left_highlight.png","37","",NA,NA,NA,NA,""
"image-keyboard-response",5,29913,"0.0-2.0-3.0","xd06oaz2xzcha2t",121,"163.csv","","4498","resources/image_sets/mid_highlight.png","38","",NA,NA,NA,NA,""
"image-keyboard-response",6,31868,"0.0-2.0-4.0","xd06oaz2xzcha2t",121,"163.csv","","1953.6000000238419","resources/image_sets/right_highlight.png","39","",NA,NA,NA,NA,""
"image-keyboard-response",7,37414,"0.0-2.0-5.0","xd06oaz2xzcha2t",121,"163.csv","","5544.799999952316","resources/image_sets/111.png","13","",NA,NA,NA,NA,""
"image-keyboard-response",8,39565,"0.0-2.0-6.0","xd06oaz2xzcha2t",121,"163.csv","","2150.100000023842","resources/images/coin2.png","13","",NA,NA,NA,NA,""
"image-keyboard-response",9,41456,"0.0-2.0-7.0","xd06oaz2xzcha2t",121,"163.csv","","1890.0999999046326","resources/images/fishbone.png","13","",NA,NA,NA,NA,""
"html-keyboard-response",10,46505,"0.0-2.0-8.0","xd06oaz2xzcha2t",121,"163.csv","","5047.899999976158","<p>Your first journey will be a long one, but you will get a well deserved break at the end</p><p>After the break you will have four more journeys, but each will be much shorter than the first, and you will have breaks in between each</p><p>Press Enter to begin</p>","13","",NA,NA,NA,NA,""
"image-keyboard-response",11,50432,"0.0-3.0-0.0","xd06oaz2xzcha2t",121,"163.csv","","3925.5","resources/trios/L2T2A1.jpg","38","restless",0.3,0.9,0.7,0.313190250550679,"true"
"image-keyboard-response",12,50838,"0.0-3.0-1.0","xd06oaz2xzcha2t",121,"163.csv","","null","resources/maskTrios/BT2B.jpg","null","",NA,NA,NA,NA,""
"image-keyboard-response",13,52044,"0.0-3.0-2.0","xd06oaz2xzcha2t",121,"163.csv","","null","resources/images/coin2.png","null","",NA,NA,NA,NA,""
"image-keyboard-response",14,54548,"0.0-3.1-0.1","xd06oaz2xzcha2t",121,"163.csv","","2501.7999999523163","resources/trios/L2T2A3.jpg","38","restless",0.4,0.9,0.7,0.35778671912152,"true"
"image-keyboard-response",15,54955,"0.0-3.1-1.1","xd06oaz2xzcha2t",121,"163.csv","","null","resources/maskTrios/BT2B.jpg","null","",NA,NA,NA,NA,""
"image-keyboard-response",16,56158,"0.0-3.1-2.1","xd06oaz2xzcha2t",121,"163.csv","","null","resources/images/coin2.png","null","",NA,NA,NA,NA,""
"image-keyboard-response",17,58668,"0.0-3.2-0.2","xd06oaz2xzcha2t",121,"163.csv","","2508.4000000953674","resources/trios/L2T4A3.jpg","38","restless",0.4,0.8,0.7,0.775473627533839,"true"
"image-keyboard-response",18,59075,"0.0-3.2-1.2","xd06oaz2xzcha2t",121,"163.csv","","null","resources/maskTrios/BT4B.jpg","null","",NA,NA,NA,NA,""
"image-keyboard-response",19,60282,"0.0-3.2-2.2","xd06oaz2xzcha2t",121,"163.csv","","null","resources/images/coin2.png","null","",NA,NA,NA,NA,""
"image-keyboard-response",20,62234,"0.0-3.3-0.3","xd06oaz2xzcha2t",121,"163.csv","","1949.9000000953674","resources/trios/L4T4A1.jpg","38","restless",0.4,0.8,0.7,0.728169801407019,"true"
"image-keyboard-response",21,62639,"0.0-3.3-1.3","xd06oaz2xzcha2t",121,"163.csv","","null","resources/maskTrios/BT4B.jpg","null","",NA,NA,NA,NA,""
"image-keyboard-response",22,63843,"0.0-3.3-2.3","xd06oaz2xzcha2t",121,"163.csv","","null","resources/images/coin2.png","null","",NA,NA,NA,NA,""
"image-keyboard-response",23,66928,"0.0-3.4-0.4","xd06oaz2xzcha2t",121,"163.csv","","3083.2000000476837","resources/trios/L2T2A3.jpg","38","restless",0.4,0.8,0.7,0.320503529655298,"true"
"image-keyboard-response",24,67337,"0.0-3.4-1.4","xd06oaz2xzcha2t",121,"163.csv","","null","resources/maskTrios/BT2B.jpg","null","",NA,NA,NA,NA,""
"image-keyboard-response",25,68545,"0.0-3.4-2.4","xd06oaz2xzcha2t",121,"163.csv","","null","resources/images/coin2.png","null","",NA,NA,NA,NA,""
"image-keyboard-response",26,70043,"0.0-3.5-0.5","xd06oaz2xzcha2t",121,"163.csv","","1496.0999999046326","resources/trios/L4T4A3.jpg","38","restless",0.4,0.8,0.7,0.833577726817382,"false"
"image-keyboard-response",27,70452,"0.0-3.5-1.5","xd06oaz2xzcha2t",121,"163.csv","","null","resources/maskTrios/BT4B.jpg","null","",NA,NA,NA,NA,""
"image-keyboard-response",28,71656,"0.0-3.5-2.5","xd06oaz2xzcha2t",121,"163.csv","","null","resources/images/fishbone.png","null","",NA,NA,NA,NA,""
"image-keyboard-response",29,74569,"0.0-3.6-0.6","xd06oaz2xzcha2t",121,"163.csv","","2911.100000023842","resources/trios/L4T4A1.jpg","38","restless",0.4,0.8,0.7,0.88661375741305,"false"
"image-keyboard-response",30,74976,"0.0-3.6-1.6","xd06oaz2xzcha2t",121,"163.csv","","null","resources/maskTrios/BT4B.jpg","null","",NA,NA,NA,NA,""
"image-keyboard-response",31,76183,"0.0-3.6-2.6","xd06oaz2xzcha2t",121,"163.csv","","null","resources/images/fishbone.png","null","",NA,NA,NA,NA,""
"image-keyboard-response",32,77943,"0.0-3.7-0.7","xd06oaz2xzcha2t",121,"163.csv","","1758.3999999761581","resources/trios/L4T4A1.jpg","37","restless",0.4,0.8,0.6,0.395522593617748,"true"
"image-keyboard-response",33,78350,"0.0-3.7-1.7","xd06oaz2xzcha2t",121,"163.csv","","null","resources/maskTrios/L4BB.jpg","null","",NA,NA,NA,NA,""
"image-keyboard-response",34,79555,"0.0-3.7-2.7","xd06oaz2xzcha2t",121,"163.csv","","null","resources/images/coin2.png","null","",NA,NA,NA,NA,""
"image-keyboard-response",35,81137,"0.0-3.8-0.8","xd06oaz2xzcha2t",121,"163.csv","","1580.6000000238419","resources/trios/L2T2A3.jpg","37","restless",0.4,0.8,0.6,0.437776148398199,"false"
"image-keyboard-response",36,81542,"0.0-3.8-1.8","xd06oaz2xzcha2t",121,"163.csv","","null","resources/maskTrios/L2BB.jpg","null","",NA,NA,NA,NA,""
"image-keyboard-response",37,82749,"0.0-3.8-2.8","xd06oaz2xzcha2t",121,"163.csv","","null","resources/images/fishbone.png","null","",NA,NA,NA,NA,""
"image-keyboard-response",38,83425,"0.0-3.9-0.9","xd06oaz2xzcha2t",121,"163.csv","","674.1000000238419","resources/trios/L4T2A1.jpg","38","restless",0.4,0.8,0.6,0.508103583568248,"true"
"image-keyboard-response",39,83828,"0.0-3.9-1.9","xd06oaz2xzcha2t",121,"163.csv","","null","resources/maskTrios/BT2B.jpg","null","",NA,NA,NA,NA,""
"image-keyboard-response",40,85031,"0.0-3.9-2.9","xd06oaz2xzcha2t",121,"163.csv","","null","resources/images/coin2.png","null","",NA,NA,NA,NA,""
"image-keyboard-response",41,86734,"0.0-3.10-0.10","xd06oaz2xzcha2t",121,"163.csv","","1700.8000000715256","resources/trios/L2T4A3.jpg","37","restless",0.4,0.8,0.6,0.214966827451074,"true"
"image-keyboard-response",42,87142,"0.0-3.10-1.10","xd06oaz2xzcha2t",121,"163.csv","","null","resources/maskTrios/L2BB.jpg","null","",NA,NA,NA,NA,""
"image-keyboard-response",43,88352,"0.0-3.10-2.10","xd06oaz2xzcha2t",121,"163.csv","","null","resources/images/coin2.png","null","",NA,NA,NA,NA,""
"image-keyboard-response",44,89274,"0.0-3.11-0.11","xd06oaz2xzcha2t",121,"163.csv","","920.3999999761581","resources/trios/L2T4A3.jpg","38","restless",0.5,0.8,0.6,0.896564846225878,"false"
"image-keyboard-response",45,89683,"0.0-3.11-1.11","xd06oaz2xzcha2t",121,"163.csv","","null","resources/maskTrios/BT4B.jpg","null","",NA,NA,NA,NA,""
"image-keyboard-response",46,90886,"0.0-3.11-2.11","xd06oaz2xzcha2t",121,"163.csv","","null","resources/images/fishbone.png","null","",NA,NA,NA,NA,""
"image-keyboard-response",47,93295,"0.0-3.12-0.12","xd06oaz2xzcha2t",121,"163.csv","","2406.600000023842","resources/trios/L2T4A1.jpg","39","restless",0.5,0.8,0.6,0.466561730307699,"true"
"image-keyboard-response",48,93696,"0.0-3.12-1.12","xd06oaz2xzcha2t",121,"163.csv","","null","resources/maskTrios/BBA1.jpg","null","",NA,NA,NA,NA,""
"image-keyboard-response",49,94899,"0.0-3.12-2.12","xd06oaz2xzcha2t",121,"163.csv","","null","resources/images/coin2.png","null","",NA,NA,NA,NA,""
"image-keyboard-response",50,96367,"0.0-3.13-0.13","xd06oaz2xzcha2t",121,"163.csv","","1465.9000000953674","resources/trios/L4T2A3.jpg","39","restless",0.5,0.8,0.6,0.409299739745567,"true"
"image-keyboard-response",51,96774,"0.0-3.13-1.13","xd06oaz2xzcha2t",121,"163.csv","","null","resources/maskTrios/BBA3.jpg","null","",NA,NA,NA,NA,""
"image-keyboard-response",52,97980,"0.0-3.13-2.13","xd06oaz2xzcha2t",121,"163.csv","","null","resources/images/coin2.png","null","",NA,NA,NA,NA,""
"image-keyboard-response",53,99762,"0.0-3.14-0.14","xd06oaz2xzcha2t",121,"163.csv","","1779.5","resources/trios/L4T2A1.jpg","37","restless",0.5,0.8,0.6,0.62789857121426,"false"
"image-keyboard-response",54,100167,"0.0-3.14-1.14","xd06oaz2xzcha2t",121,"163.csv","","null","resources/maskTrios/L4BB.jpg","null","",NA,NA,NA,NA,""
"image-keyboard-response",55,101372,"0.0-3.14-2.14","xd06oaz2xzcha2t",121,"163.csv","","null","resources/images/fishbone.png","null","",NA,NA,NA,NA,""
"image-keyboard-response",56,101818,"0.0-3.15-0.15","xd06oaz2xzcha2t",121,"163.csv","","444.7000000476837","resources/trios/L2T4A1.jpg","38","restless",0.5,0.7,0.6,0.945711452383581,"false"
"image-keyboard-response",57,102224,"0.0-3.15-1.15","xd06oaz2xzcha2t",121,"163.csv","","null","resources/maskTrios/BT4B.jpg","null","",NA,NA,NA,NA,""
"image-keyboard-response",58,103426,"0.0-3.15-2.15","xd06oaz2xzcha2t",121,"163.csv","","null","resources/images/fishbone.png","null","",NA,NA,NA,NA,""
"image-keyboard-response",59,103690,"0.0-3.16-0.16","xd06oaz2xzcha2t",121,"163.csv","","263","resources/trios/L2T2A1.jpg","39","restless",0.5,0.7,0.6,0.502063012223426,"true"
"image-keyboard-response",60,104097,"0.0-3.16-1.16","xd06oaz2xzcha2t",121,"163.csv","","null","resources/maskTrios/BBA1.jpg","null","",NA,NA,NA,NA,""
"image-keyboard-response",61,105303,"0.0-3.16-2.16","xd06oaz2xzcha2t",121,"163.csv","","null","resources/images/coin2.png","null","",NA,NA,NA,NA,""
"image-keyboard-response",62,105981,"0.0-3.17-0.17","xd06oaz2xzcha2t",121,"163.csv","","676.2999999523163","resources/trios/L4T4A3.jpg","39","restless",0.5,0.6,0.6,0.663904959181881,"false"
"image-keyboard-response",63,106384,"0.0-3.17-1.17","xd06oaz2xzcha2t",121,"163.csv","","null","resources/maskTrios/BBA3.jpg","null","",NA,NA,NA,NA,""
"image-keyboard-response",64,107590,"0.0-3.17-2.17","xd06oaz2xzcha2t",121,"163.csv","","null","resources/images/fishbone.png","null","",NA,NA,NA,NA,""
"image-keyboard-response",65,108538,"0.0-3.18-0.18","xd06oaz2xzcha2t",121,"163.csv","","946.7000000476837","resources/trios/L4T4A1.jpg","39","restless",0.5,0.6,0.6,0.433916047385873,"true"
"image-keyboard-response",66,108942,"0.0-3.18-1.18","xd06oaz2xzcha2t",121,"163.csv","","null","resources/maskTrios/BBA1.jpg","null","",NA,NA,NA,NA,""
"image-keyboard-response",67,110149,"0.0-3.18-2.18","xd06oaz2xzcha2t",121,"163.csv","","null","resources/images/coin2.png","null","",NA,NA,NA,NA,""
"image-keyboard-response",68,110906,"0.0-3.19-0.19","xd06oaz2xzcha2t",121,"163.csv","","755","resources/trios/L2T4A1.jpg","39","restless",0.5,0.6,0.6,0.110662767714016,"true"
"image-keyboard-response",69,111315,"0.0-3.19-1.19","xd06oaz2xzcha2t",121,"163.csv","","null","resources/maskTrios/BBA1.jpg","null","",NA,NA,NA,NA,""
"image-keyboard-response",70,112523,"0.0-3.19-2.19","xd06oaz2xzcha2t",121,"163.csv","","null","resources/images/coin2.png","null","",NA,NA,NA,NA,""
"image-keyboard-response",71,113956,"0.0-3.20-0.20","xd06oaz2xzcha2t",121,"163.csv","","1431.8999999761581","resources/trios/L4T2A3.jpg","39","restless",0.5,0.6,0.6,0.0504203806741537,"true"
"image-keyboard-response",72,114358,"0.0-3.20-1.20","xd06oaz2xzcha2t",121,"163.csv","","null","resources/maskTrios/BBA3.jpg","null","",NA,NA,NA,NA,""
"image-keyboard-response",73,115565,"0.0-3.20-2.20","xd06oaz2xzcha2t",121,"163.csv","","null","resources/images/coin2.png","null","",NA,NA,NA,NA,""
"image-keyboard-response",74,116661,"0.0-3.21-0.21","xd06oaz2xzcha2t",121,"163.csv","","1094.1000000238419","resources/trios/L4T4A1.jpg","39","restless",0.5,0.5,0.6,0.542393436513507,"true"
"image-keyboard-response",75,117068,"0.0-3.21-1.21","xd06oaz2xzcha2t",121,"163.csv","","null","resources/maskTrios/BBA1.jpg","null","",NA,NA,NA,NA,""
"image-keyboard-response",76,118272,"0.0-3.21-2.21","xd06oaz2xzcha2t",121,"163.csv","","null","resources/images/coin2.png","null","",NA,NA,NA,NA,""
"image-keyboard-response",77,119871,"0.0-3.22-0.22","xd06oaz2xzcha2t",121,"163.csv","","1596.6000000238419","resources/trios/L4T2A3.jpg","39","restless",0.5,0.5,0.6,0.640927688200667,"false"
"image-keyboard-response",78,120272,"0.0-3.22-1.22","xd06oaz2xzcha2t",121,"163.csv","","null","resources/maskTrios/BBA3.jpg","null","",NA,NA,NA,NA,""
"image-keyboard-response",79,121479,"0.0-3.22-2.22","xd06oaz2xzcha2t",121,"163.csv","","null","resources/images/fishbone.png","null","",NA,NA,NA,NA,""
"image-keyboard-response",80,122324,"0.0-3.23-0.23","xd06oaz2xzcha2t",121,"163.csv","","843","resources/trios/L2T2A1.jpg","39","restless",0.5,0.5,0.6,0.468648481305168,"true"
"image-keyboard-response",81,122731,"0.0-3.23-1.23","xd06oaz2xzcha2t",121,"163.csv","","null","resources/maskTrios/BBA1.jpg","null","",NA,NA,NA,NA,""
"image-keyboard-response",82,123937,"0.0-3.23-2.23","xd06oaz2xzcha2t",121,"163.csv","","null","resources/images/coin2.png","null","",NA,NA,NA,NA,""
"image-keyboard-response",83,124699,"0.0-3.24-0.24","xd06oaz2xzcha2t",121,"163.csv","","760.3999999761581","resources/trios/L4T2A3.jpg","37","restless",0.5,0.5,0.6,0.726983045110053,"false"
"image-keyboard-response",84,125106,"0.0-3.24-1.24","xd06oaz2xzcha2t",121,"163.csv","","null","resources/maskTrios/L4BB.jpg","null","",NA,NA,NA,NA,""
"image-keyboard-response",85,126314,"0.0-3.24-2.24","xd06oaz2xzcha2t",121,"163.csv","","null","resources/images/fishbone.png","null","",NA,NA,NA,NA,""
"image-keyboard-response",86,126620,"0.0-3.25-0.25","xd06oaz2xzcha2t",121,"163.csv","","303.39999997615814","resources/trios/L4T2A1.jpg","39","restless",0.5,0.5,0.6,0.21272918470406,"true"
"image-keyboard-response",87,127024,"0.0-3.25-1.25","xd06oaz2xzcha2t",121,"163.csv","","null","resources/maskTrios/BBA1.jpg","null","",NA,NA,NA,NA,""
"image-keyboard-response",88,128231,"0.0-3.25-2.25","xd06oaz2xzcha2t",121,"163.csv","","null","resources/images/coin2.png","null","",NA,NA,NA,NA,""
"image-keyboard-response",89,128615,"0.0-3.26-0.26","xd06oaz2xzcha2t",121,"163.csv","","382.1999999284744","resources/trios/L4T4A3.jpg","39","restless",0.5,0.5,0.6,0.595528589763008,"true"
"image-keyboard-response",90,129018,"0.0-3.26-1.26","xd06oaz2xzcha2t",121,"163.csv","","null","resources/maskTrios/BBA3.jpg","null","",NA,NA,NA,NA,""
"image-keyboard-response",91,130224,"0.0-3.26-2.26","xd06oaz2xzcha2t",121,"163.csv","","null","resources/images/coin2.png","null","",NA,NA,NA,NA,""
"image-keyboard-response",92,130614,"0.0-3.27-0.27","xd06oaz2xzcha2t",121,"163.csv","","388.39999997615814","resources/trios/L2T2A3.jpg","39","restless",0.5,0.5,0.5,0.10653782300685,"true"
"image-keyboard-response",93,131021,"0.0-3.27-1.27","xd06oaz2xzcha2t",121,"163.csv","","null","resources/maskTrios/BBA3.jpg","null","",NA,NA,NA,NA,""
"image-keyboard-response",94,132224,"0.0-3.27-2.27","xd06oaz2xzcha2t",121,"163.csv","","null","resources/images/coin2.png","null","",NA,NA,NA,NA,""
"image-keyboard-response",95,132690,"0.0-3.28-0.28","xd06oaz2xzcha2t",121,"163.csv","","464.5","resources/trios/L2T4A3.jpg","39","restless",0.5,0.5,0.5,0.800916081266208,"false"
"image-keyboard-response",96,133096,"0.0-3.28-1.28","xd06oaz2xzcha2t",121,"163.csv","","null","resources/maskTrios/BBA3.jpg","null","",NA,NA,NA,NA,""
"image-keyboard-response",97,134299,"0.0-3.28-2.28","xd06oaz2xzcha2t",121,"163.csv","","null","resources/images/fishbone.png","null","",NA,NA,NA,NA,""
"image-keyboard-response",98,134825,"0.0-3.29-0.29","xd06oaz2xzcha2t",121,"163.csv","","524.1000000238419","resources/trios/L4T4A1.jpg","38","restless",0.5,0.5,0.5,0.589425112855481,"false"
"image-keyboard-response",99,135232,"0.0-3.29-1.29","xd06oaz2xzcha2t",121,"163.csv","","null","resources/maskTrios/BT4B.jpg","null","",NA,NA,NA,NA,""
"image-keyboard-response",100,136438,"0.0-3.29-2.29","xd06oaz2xzcha2t",121,"163.csv","","null","resources/images/fishbone.png","null","",NA,NA,NA,NA,""
"image-keyboard-response",101,136667,"0.0-3.30-0.30","xd06oaz2xzcha2t",121,"163.csv","","227.09999990463257","resources/trios/L2T4A3.jpg","39","restless",0.5,0.5,0.5,0.384367015710268,"true"
"image-keyboard-response",102,137071,"0.0-3.30-1.30","xd06oaz2xzcha2t",121,"163.csv","","null","resources/maskTrios/BBA3.jpg","null","",NA,NA,NA,NA,""
"image-keyboard-response",103,138273,"0.0-3.30-2.30","xd06oaz2xzcha2t",121,"163.csv","","null","resources/images/coin2.png","null","",NA,NA,NA,NA,""
"image-keyboard-response",104,138992,"0.0-3.31-0.31","xd06oaz2xzcha2t",121,"163.csv","","716.3999999761581","resources/trios/L2T2A1.jpg","38","restless",0.5,0.5,0.5,0.551185042214717,"false"
"image-keyboard-response",105,139395,"0.0-3.31-1.31","xd06oaz2xzcha2t",121,"163.csv","","null","resources/maskTrios/BT2B.jpg","null","",NA,NA,NA,NA,""
"image-keyboard-response",106,140597,"0.0-3.31-2.31","xd06oaz2xzcha2t",121,"163.csv","","null","resources/images/fishbone.png","null","",NA,NA,NA,NA,""
"image-keyboard-response",107,140860,"0.0-3.32-0.32","xd06oaz2xzcha2t",121,"163.csv","","260.8000000715256","resources/trios/L2T2A3.jpg","39","restless",0.5,0.5,0.5,0.536504221267829,"false"
"image-keyboard-response",108,141269,"0.0-3.32-1.32","xd06oaz2xzcha2t",121,"163.csv","","null","resources/maskTrios/BBA3.jpg","null","",NA,NA,NA,NA,""
"image-keyboard-response",109,142472,"0.0-3.32-2.32","xd06oaz2xzcha2t",121,"163.csv","","null","resources/images/fishbone.png","null","",NA,NA,NA,NA,""
"image-keyboard-response",110,143007,"0.0-3.33-0.33","xd06oaz2xzcha2t",121,"163.csv","","533.1000000238419","resources/trios/L4T2A1.jpg","37","restless",0.5,0.5,0.5,0.580624601251195,"false"
"image-keyboard-response",111,143414,"0.0-3.33-1.33","xd06oaz2xzcha2t",121,"163.csv","","null","resources/maskTrios/L4BB.jpg","null","",NA,NA,NA,NA,""
"image-keyboard-response",112,144616,"0.0-3.33-2.33","xd06oaz2xzcha2t",121,"163.csv","","null","resources/images/fishbone.png","null","",NA,NA,NA,NA,""
"image-keyboard-response",113,144882,"0.0-3.34-0.34","xd06oaz2xzcha2t",121,"163.csv","","263.7000000476837","resources/trios/L4T2A3.jpg","38","restless",0.5,0.5,0.5,0.390533437277243,"true"
"image-keyboard-response",114,145290,"0.0-3.34-1.34","xd06oaz2xzcha2t",121,"163.csv","","null","resources/maskTrios/BT2B.jpg","null","",NA,NA,NA,NA,""
"image-keyboard-response",115,146499,"0.0-3.34-2.34","xd06oaz2xzcha2t",121,"163.csv","","null","resources/images/coin2.png","null","",NA,NA,NA,NA,""
"image-keyboard-response",116,146824,"0.0-3.35-0.35","xd06oaz2xzcha2t",121,"163.csv","","323.09999990463257","resources/trios/L2T4A1.jpg","38","restless",0.5,0.5,0.5,0.287153572893151,"true"
"image-keyboard-response",117,147231,"0.0-3.35-1.35","xd06oaz2xzcha2t",121,"163.csv","","null","resources/maskTrios/BT4B.jpg","null","",NA,NA,NA,NA,""
"image-keyboard-response",118,148437,"0.0-3.35-2.35","xd06oaz2xzcha2t",121,"163.csv","","null","resources/images/coin2.png","null","",NA,NA,NA,NA,""
"image-keyboard-response",119,148698,"0.0-3.36-0.36","xd06oaz2xzcha2t",121,"163.csv","","259.39999997615814","resources/trios/L4T2A3.jpg","38","restless",0.6,0.5,0.5,0.917800868687224,"false"
"image-keyboard-response",120,149106,"0.0-3.36-1.36","xd06oaz2xzcha2t",121,"163.csv","","null","resources/maskTrios/BT2B.jpg","null","",NA,NA,NA,NA,""
"image-keyboard-response",121,150312,"0.0-3.36-2.36","xd06oaz2xzcha2t",121,"163.csv","","null","resources/images/fishbone.png","null","",NA,NA,NA,NA,""
"image-keyboard-response",122,150589,"0.0-3.37-0.37","xd06oaz2xzcha2t",121,"163.csv","","275.5","resources/trios/L4T4A3.jpg","37","restless",0.6,0.5,0.5,0.758900216402519,"false"
"image-keyboard-response",123,150997,"0.0-3.37-1.37","xd06oaz2xzcha2t",121,"163.csv","","null","resources/maskTrios/L4BB.jpg","null","",NA,NA,NA,NA,""
"image-keyboard-response",124,152203,"0.0-3.37-2.37","xd06oaz2xzcha2t",121,"163.csv","","null","resources/images/fishbone.png","null","",NA,NA,NA,NA,""
"image-keyboard-response",125,152453,"0.0-3.38-0.38","xd06oaz2xzcha2t",121,"163.csv","","248","resources/trios/L4T4A3.jpg","39","restless",0.6,0.5,0.5,0.116817418673824,"true"
"image-keyboard-response",126,152855,"0.0-3.38-1.38","xd06oaz2xzcha2t",121,"163.csv","","null","resources/maskTrios/BBA3.jpg","null","",NA,NA,NA,NA,""
"image-keyboard-response",127,154064,"0.0-3.38-2.38","xd06oaz2xzcha2t",121,"163.csv","","null","resources/images/coin2.png","null","",NA,NA,NA,NA,""
"image-keyboard-response",128,154309,"0.0-3.39-0.39","xd06oaz2xzcha2t",121,"163.csv","","242.70000004768372","resources/trios/L4T2A1.jpg","39","restless",0.7,0.5,0.5,0.749811594361033,"false"
"image-keyboard-response",129,154711,"0.0-3.39-1.39","xd06oaz2xzcha2t",121,"163.csv","","null","resources/maskTrios/BBA1.jpg","null","",NA,NA,NA,NA,""
"image-keyboard-response",130,155917,"0.0-3.39-2.39","xd06oaz2xzcha2t",121,"163.csv","","null","resources/images/fishbone.png","null","",NA,NA,NA,NA,""
"image-keyboard-response",131,156162,"0.0-3.40-0.40","xd06oaz2xzcha2t",121,"163.csv","","240.89999997615814","resources/trios/L4T4A3.jpg","38","restless",0.7,0.5,0.5,0.0241472669246585,"true"
"image-keyboard-response",132,156571,"0.0-3.40-1.40","xd06oaz2xzcha2t",121,"163.csv","","null","resources/maskTrios/BT4B.jpg","null","",NA,NA,NA,NA,""
"image-keyboard-response",133,157777,"0.0-3.40-2.40","xd06oaz2xzcha2t",121,"163.csv","","null","resources/images/coin2.png","null","",NA,NA,NA,NA,""
"image-keyboard-response",134,158059,"0.0-3.41-0.41","xd06oaz2xzcha2t",121,"163.csv","","280.09999990463257","resources/trios/L4T2A3.jpg","38","restless",0.7,0.5,0.5,0.451515137167666,"true"
"image-keyboard-response",135,158466,"0.0-3.41-1.41","xd06oaz2xzcha2t",121,"163.csv","","null","resources/maskTrios/BT2B.jpg","null","",NA,NA,NA,NA,""
"image-keyboard-response",136,159672,"0.0-3.41-2.41","xd06oaz2xzcha2t",121,"163.csv","","null","resources/images/coin2.png","null","",NA,NA,NA,NA,""
"image-keyboard-response",137,159966,"0.0-3.42-0.42","xd06oaz2xzcha2t",121,"163.csv","","292.90000009536743","resources/trios/L4T2A1.jpg","38","restless",0.7,0.5,0.5,0.765107096658632,"false"
"image-keyboard-response",138,160372,"0.0-3.42-1.42","xd06oaz2xzcha2t",121,"163.csv","","null","resources/maskTrios/BT2B.jpg","null","",NA,NA,NA,NA,""
"image-keyboard-response",139,161581,"0.0-3.42-2.42","xd06oaz2xzcha2t",121,"163.csv","","null","resources/images/fishbone.png","null","",NA,NA,NA,NA,""
"image-keyboard-response",140,161848,"0.0-3.43-0.43","xd06oaz2xzcha2t",121,"163.csv","","265.2000000476837","resources/trios/L2T4A3.jpg","39","restless",0.7,0.5,0.5,0.584566891801473,"false"
"image-keyboard-response",141,162253,"0.0-3.43-1.43","xd06oaz2xzcha2t",121,"163.csv","","null","resources/maskTrios/BBA3.jpg","null","",NA,NA,NA,NA,""
"image-keyboard-response",142,163457,"0.0-3.43-2.43","xd06oaz2xzcha2t",121,"163.csv","","null","resources/images/fishbone.png","null","",NA,NA,NA,NA,""
"image-keyboard-response",143,163991,"0.0-3.44-0.44","xd06oaz2xzcha2t",121,"163.csv","","531.3999999761581","resources/trios/L4T4A3.jpg","37","restless",0.7,0.5,0.5,0.498308619598486,"true"
"image-keyboard-response",144,164397,"0.0-3.44-1.44","xd06oaz2xzcha2t",121,"163.csv","","null","resources/maskTrios/L4BB.jpg","null","",NA,NA,NA,NA,""
"image-keyboard-response",145,165603,"0.0-3.44-2.44","xd06oaz2xzcha2t",121,"163.csv","","null","resources/images/coin2.png","null","",NA,NA,NA,NA,""
"image-keyboard-response",146,166067,"0.0-3.45-0.45","xd06oaz2xzcha2t",121,"163.csv","","462.2999999523163","resources/trios/L4T2A3.jpg","37","restless",0.7,0.5,0.5,0.820846871614835,"false"
"image-keyboard-response",147,166470,"0.0-3.45-1.45","xd06oaz2xzcha2t",121,"163.csv","","null","resources/maskTrios/L4BB.jpg","null","",NA,NA,NA,NA,""
"image-keyboard-response",148,167673,"0.0-3.45-2.45","xd06oaz2xzcha2t",121,"163.csv","","null","resources/images/fishbone.png","null","",NA,NA,NA,NA,""
"image-keyboard-response",149,168153,"0.0-3.46-0.46","xd06oaz2xzcha2t",121,"163.csv","","477.8000000715256","resources/trios/L2T4A3.jpg","38","restless",0.7,0.5,0.5,0.635529127524278,"false"
"image-keyboard-response",150,168555,"0.0-3.46-1.46","xd06oaz2xzcha2t",121,"163.csv","","null","resources/maskTrios/BT4B.jpg","null","",NA,NA,NA,NA,""
"image-keyboard-response",151,169759,"0.0-3.46-2.46","xd06oaz2xzcha2t",121,"163.csv","","null","resources/images/fishbone.png","null","",NA,NA,NA,NA,""
"image-keyboard-response",152,170033,"0.0-3.47-0.47","xd06oaz2xzcha2t",121,"163.csv","","272.2000000476837","resources/trios/L4T2A3.jpg","39","restless",0.7,0.4,0.5,0.233955806203649,"true"
"image-keyboard-response",153,170436,"0.0-3.47-1.47","xd06oaz2xzcha2t",121,"163.csv","","null","resources/maskTrios/BBA3.jpg","null","",NA,NA,NA,NA,""
"image-keyboard-response",154,171645,"0.0-3.47-2.47","xd06oaz2xzcha2t",121,"163.csv","","null","resources/images/coin2.png","null","",NA,NA,NA,NA,""
"image-keyboard-response",155,171920,"0.0-3.48-0.48","xd06oaz2xzcha2t",121,"163.csv","","272.89999997615814","resources/trios/L4T2A3.jpg","39","restless",0.8,0.4,0.5,0.701230825574798,"false"
"image-keyboard-response",156,172324,"0.0-3.48-1.48","xd06oaz2xzcha2t",121,"163.csv","","null","resources/maskTrios/BBA3.jpg","null","",NA,NA,NA,NA,""
"image-keyboard-response",157,173530,"0.0-3.48-2.48","xd06oaz2xzcha2t",121,"163.csv","","null","resources/images/fishbone.png","null","",NA,NA,NA,NA,""
"image-keyboard-response",158,173813,"0.0-3.49-0.49","xd06oaz2xzcha2t",121,"163.csv","","280.5","resources/trios/L2T2A1.jpg","38","restless",0.8,0.4,0.4,0.0110162578682811,"true"
"image-keyboard-response",159,174217,"0.0-3.49-1.49","xd06oaz2xzcha2t",121,"163.csv","","null","resources/maskTrios/BT2B.jpg","null","",NA,NA,NA,NA,""
"image-keyboard-response",160,175424,"0.0-3.49-2.49","xd06oaz2xzcha2t",121,"163.csv","","null","resources/images/coin2.png","null","",NA,NA,NA,NA,""
"image-keyboard-response",161,175792,"0.0-3.50-0.50","xd06oaz2xzcha2t",121,"163.csv","","365.6999999284744","resources/trios/L2T4A1.jpg","38","restless",0.8,0.4,0.4,0.671833439806583,"false"
"image-keyboard-response",162,176200,"0.0-3.50-1.50","xd06oaz2xzcha2t",121,"163.csv","","null","resources/maskTrios/BT4B.jpg","null","",NA,NA,NA,NA,""
"image-keyboard-response",163,177405,"0.0-3.50-2.50","xd06oaz2xzcha2t",121,"163.csv","","null","resources/images/fishbone.png","null","",NA,NA,NA,NA,""
"image-keyboard-response",164,177706,"0.0-3.51-0.51","xd06oaz2xzcha2t",121,"163.csv","","298.5","resources/trios/L2T2A3.jpg","37","restless",0.8,0.4,0.4,0.408546965400875,"true"
"image-keyboard-response",165,178113,"0.0-3.51-1.51","xd06oaz2xzcha2t",121,"163.csv","","null","resources/maskTrios/L2BB.jpg","null","",NA,NA,NA,NA,""
"image-keyboard-response",166,179321,"0.0-3.51-2.51","xd06oaz2xzcha2t",121,"163.csv","","null","resources/images/coin2.png","null","",NA,NA,NA,NA,""
"image-keyboard-response",167,179710,"0.0-3.52-0.52","xd06oaz2xzcha2t",121,"163.csv","","387.5","resources/trios/L4T2A1.jpg","39","restless",0.8,0.4,0.4,0.777453702610295,"false"
"image-keyboard-response",168,180117,"0.0-3.52-1.52","xd06oaz2xzcha2t",121,"163.csv","","null","resources/maskTrios/BBA1.jpg","null","",NA,NA,NA,NA,""
"image-keyboard-response",169,181323,"0.0-3.52-2.52","xd06oaz2xzcha2t",121,"163.csv","","null","resources/images/fishbone.png","null","",NA,NA,NA,NA,""
"image-keyboard-response",170,181813,"0.0-3.53-0.53","xd06oaz2xzcha2t",121,"163.csv","","488.39999997615814","resources/trios/L2T2A3.jpg","37","restless",0.8,0.4,0.4,0.950298395323506,"false"
"image-keyboard-response",171,182218,"0.0-3.53-1.53","xd06oaz2xzcha2t",121,"163.csv","","null","resources/maskTrios/L2BB.jpg","null","",NA,NA,NA,NA,""
"image-keyboard-response",172,183423,"0.0-3.53-2.53","xd06oaz2xzcha2t",121,"163.csv","","null","resources/images/fishbone.png","null","",NA,NA,NA,NA,""
"image-keyboard-response",173,183658,"0.0-3.54-0.54","xd06oaz2xzcha2t",121,"163.csv","","233.60000002384186","resources/trios/L2T4A3.jpg","38","restless",0.9,0.4,0.3,0.166366701261907,"true"
"image-keyboard-response",174,184062,"0.0-3.54-1.54","xd06oaz2xzcha2t",121,"163.csv","","null","resources/maskTrios/BT4B.jpg","null","",NA,NA,NA,NA,""
"image-keyboard-response",175,185268,"0.0-3.54-2.54","xd06oaz2xzcha2t",121,"163.csv","","null","resources/images/coin2.png","null","",NA,NA,NA,NA,""
"image-keyboard-response",176,185576,"0.0-3.55-0.55","xd06oaz2xzcha2t",121,"163.csv","","306.2000000476837","resources/trios/L2T2A1.jpg","38","restless",0.9,0.4,0.3,0.429738033441961,"false"
"image-keyboard-response",177,185978,"0.0-3.55-1.55","xd06oaz2xzcha2t",121,"163.csv","","null","resources/maskTrios/BT2B.jpg","null","",NA,NA,NA,NA,""
"image-keyboard-response",178,187186,"0.0-3.55-2.55","xd06oaz2xzcha2t",121,"163.csv","","null","resources/images/fishbone.png","null","",NA,NA,NA,NA,""
"image-keyboard-response",179,187492,"0.0-3.56-0.56","xd06oaz2xzcha2t",121,"163.csv","","303.60000002384186","resources/trios/L4T2A3.jpg","37","restless",0.9,0.4,0.3,0.0984862401225344,"true"
"image-keyboard-response",180,187895,"0.0-3.56-1.56","xd06oaz2xzcha2t",121,"163.csv","","null","resources/maskTrios/L4BB.jpg","null","",NA,NA,NA,NA,""
"image-keyboard-response",181,189103,"0.0-3.56-2.56","xd06oaz2xzcha2t",121,"163.csv","","null","resources/images/coin2.png","null","",NA,NA,NA,NA,""
"image-keyboard-response",182,189357,"0.0-3.57-0.57","xd06oaz2xzcha2t",121,"163.csv","","252.10000002384186","resources/trios/L4T4A3.jpg","39","restless",0.9,0.4,0.3,0.840439503685114,"false"
"image-keyboard-response",183,189759,"0.0-3.57-1.57","xd06oaz2xzcha2t",121,"163.csv","","null","resources/maskTrios/BBA3.jpg","null","",NA,NA,NA,NA,""
"image-keyboard-response",184,190965,"0.0-3.57-2.57","xd06oaz2xzcha2t",121,"163.csv","","null","resources/images/fishbone.png","null","",NA,NA,NA,NA,""
"image-keyboard-response",185,191210,"0.0-3.58-0.58","xd06oaz2xzcha2t",121,"163.csv","","242.60000002384186","resources/trios/L2T2A1.jpg","37","restless",0.9,0.4,0.3,0.659414979315813,"true"
"image-keyboard-response",186,191616,"0.0-3.58-1.58","xd06oaz2xzcha2t",121,"163.csv","","null","resources/maskTrios/L2BB.jpg","null","",NA,NA,NA,NA,""
"image-keyboard-response",187,192822,"0.0-3.58-2.58","xd06oaz2xzcha2t",121,"163.csv","","null","resources/images/coin2.png","null","",NA,NA,NA,NA,""
"image-keyboard-response",188,193060,"0.0-3.59-0.59","xd06oaz2xzcha2t",121,"163.csv","","236.09999990463257","resources/trios/L2T4A3.jpg","37","restless",0.9,0.4,0.3,0.186320341578551,"true"
"image-keyboard-response",189,193465,"0.0-3.59-1.59","xd06oaz2xzcha2t",121,"163.csv","","null","resources/maskTrios/L2BB.jpg","null","",NA,NA,NA,NA,""
"image-keyboard-response",190,194667,"0.0-3.59-2.59","xd06oaz2xzcha2t",121,"163.csv","","null","resources/images/coin2.png","null","",NA,NA,NA,NA,""
"image-keyboard-response",191,194958,"0.0-3.60-0.60","xd06oaz2xzcha2t",121,"163.csv","","288.89999997615814","resources/trios/L2T4A3.jpg","37","restless",0.9,0.4,0.2,0.0749964565257564,"true"
"image-keyboard-response",192,195367,"0.0-3.60-1.60","xd06oaz2xzcha2t",121,"163.csv","","null","resources/maskTrios/L2BB.jpg","null","",NA,NA,NA,NA,""
"image-keyboard-response",193,196574,"0.0-3.60-2.60","xd06oaz2xzcha2t",121,"163.csv","","null","resources/images/coin2.png","null","",NA,NA,NA,NA,""
"image-keyboard-response",194,196912,"0.0-3.61-0.61","xd06oaz2xzcha2t",121,"163.csv","","336","resources/trios/L4T2A1.jpg","37","restless",0.9,0.4,0.2,0.264679602312241,"true"
"image-keyboard-response",195,197317,"0.0-3.61-1.61","xd06oaz2xzcha2t",121,"163.csv","","null","resources/maskTrios/L4BB.jpg","null","",NA,NA,NA,NA,""
"image-keyboard-response",196,198525,"0.0-3.61-2.61","xd06oaz2xzcha2t",121,"163.csv","","null","resources/images/coin2.png","null","",NA,NA,NA,NA,""
"image-keyboard-response",197,198817,"0.0-3.62-0.62","xd06oaz2xzcha2t",121,"163.csv","","290","resources/trios/L2T4A1.jpg","37","restless",0.9,0.4,0.2,0.19270391618035,"true"
"image-keyboard-response",198,199220,"0.0-3.62-1.62","xd06oaz2xzcha2t",121,"163.csv","","null","resources/maskTrios/L2BB.jpg","null","",NA,NA,NA,NA,""
"image-keyboard-response",199,200427,"0.0-3.62-2.62","xd06oaz2xzcha2t",121,"163.csv","","null","resources/images/coin2.png","null","",NA,NA,NA,NA,""
"image-keyboard-response",200,200708,"0.0-3.63-0.63","xd06oaz2xzcha2t",121,"163.csv","","278.60000002384186","resources/trios/L2T4A3.jpg","37","restless",0.9,0.4,0.2,0.653296627528423,"true"
"image-keyboard-response",201,201112,"0.0-3.63-1.63","xd06oaz2xzcha2t",121,"163.csv","","null","resources/maskTrios/L2BB.jpg","null","",NA,NA,NA,NA,""
"image-keyboard-response",202,202317,"0.0-3.63-2.63","xd06oaz2xzcha2t",121,"163.csv","","null","resources/images/coin2.png","null","",NA,NA,NA,NA,""
"image-keyboard-response",203,202615,"0.0-3.64-0.64","xd06oaz2xzcha2t",121,"163.csv","","295.89999997615814","resources/trios/L4T2A1.jpg","37","restless",0.8,0.4,0.2,0.288795095571771,"true"
"image-keyboard-response",204,203019,"0.0-3.64-1.64","xd06oaz2xzcha2t",121,"163.csv","","null","resources/maskTrios/L4BB.jpg","null","",NA,NA,NA,NA,""
"image-keyboard-response",205,204225,"0.0-3.64-2.64","xd06oaz2xzcha2t",121,"163.csv","","null","resources/images/coin2.png","null","",NA,NA,NA,NA,""
"image-keyboard-response",206,204424,"0.0-3.65-0.65","xd06oaz2xzcha2t",121,"163.csv","","196.89999997615814","resources/trios/L2T4A3.jpg","37","restless",0.8,0.4,0.2,0.860194119481737,"false"
"image-keyboard-response",207,204830,"0.0-3.65-1.65","xd06oaz2xzcha2t",121,"163.csv","","null","resources/maskTrios/L2BB.jpg","null","",NA,NA,NA,NA,""
"image-keyboard-response",208,206034,"0.0-3.65-2.65","xd06oaz2xzcha2t",121,"163.csv","","null","resources/images/fishbone.png","null","",NA,NA,NA,NA,""
"image-keyboard-response",209,206952,"0.0-3.66-0.66","xd06oaz2xzcha2t",121,"163.csv","","916.3999999761581","resources/trios/L4T2A3.jpg","39","restless",0.8,0.4,0.2,0.861732961596908,"false"
"image-keyboard-response",210,207357,"0.0-3.66-1.66","xd06oaz2xzcha2t",121,"163.csv","","null","resources/maskTrios/BBA3.jpg","null","",NA,NA,NA,NA,""
"image-keyboard-response",211,208560,"0.0-3.66-2.66","xd06oaz2xzcha2t",121,"163.csv","","null","resources/images/fishbone.png","null","",NA,NA,NA,NA,""
"image-keyboard-response",212,217050,"0.0-3.67-0.67","xd06oaz2xzcha2t",121,"163.csv","","8488.700000047684","resources/trios/L2T4A3.jpg","39","restless",0.8,0.4,0.2,0.601826971086521,"false"
"image-keyboard-response",213,217456,"0.0-3.67-1.67","xd06oaz2xzcha2t",121,"163.csv","","null","resources/maskTrios/BBA3.jpg","null","",NA,NA,NA,NA,""
"image-keyboard-response",214,218661,"0.0-3.67-2.67","xd06oaz2xzcha2t",121,"163.csv","","null","resources/images/fishbone.png","null","",NA,NA,NA,NA,""
"image-keyboard-response",215,218898,"0.0-3.68-0.68","xd06oaz2xzcha2t",121,"163.csv","","235.09999990463257","resources/trios/L4T2A1.jpg","38","restless",0.8,0.5,0.2,0.3025036981459,"true"
"image-keyboard-response",216,219306,"0.0-3.68-1.68","xd06oaz2xzcha2t",121,"163.csv","","null","resources/maskTrios/BT2B.jpg","null","",NA,NA,NA,NA,""
"image-keyboard-response",217,220511,"0.0-3.68-2.68","xd06oaz2xzcha2t",121,"163.csv","","null","resources/images/coin2.png","null","",NA,NA,NA,NA,""
"image-keyboard-response",218,220826,"0.0-3.69-0.69","xd06oaz2xzcha2t",121,"163.csv","","313","resources/trios/L2T4A3.jpg","38","restless",0.8,0.5,0.2,0.421767824807213,"true"
"image-keyboard-response",219,221232,"0.0-3.69-1.69","xd06oaz2xzcha2t",121,"163.csv","","null","resources/maskTrios/BT4B.jpg","null","",NA,NA,NA,NA,""
"image-keyboard-response",220,222439,"0.0-3.69-2.69","xd06oaz2xzcha2t",121,"163.csv","","null","resources/images/coin2.png","null","",NA,NA,NA,NA,""
"image-keyboard-response",221,222709,"0.0-3.70-0.70","xd06oaz2xzcha2t",121,"163.csv","","268.60000002384186","resources/trios/L2T4A3.jpg","38","restless",0.8,0.5,0.2,0.93862227379067,"false"
"image-keyboard-response",222,223115,"0.0-3.70-1.70","xd06oaz2xzcha2t",121,"163.csv","","null","resources/maskTrios/BT4B.jpg","null","",NA,NA,NA,NA,""
"image-keyboard-response",223,224318,"0.0-3.70-2.70","xd06oaz2xzcha2t",121,"163.csv","","null","resources/images/fishbone.png","null","",NA,NA,NA,NA,""
"image-keyboard-response",224,224393,"0.0-3.71-0.71","xd06oaz2xzcha2t",121,"163.csv","","73.60000002384186","resources/trios/L2T4A1.jpg","39","restless",0.8,0.5,0.2,0.025635017236243,"true"
"image-keyboard-response",225,224799,"0.0-3.71-1.71","xd06oaz2xzcha2t",121,"163.csv","","null","resources/maskTrios/BBA1.jpg","null","",NA,NA,NA,NA,""
"image-keyboard-response",226,226006,"0.0-3.71-2.71","xd06oaz2xzcha2t",121,"163.csv","","null","resources/images/coin2.png","null","",NA,NA,NA,NA,""
"image-keyboard-response",227,226043,"0.0-3.72-0.72","xd06oaz2xzcha2t",121,"163.csv","","34.39999997615814","resources/trios/L2T4A1.jpg","39","restless",0.8,0.5,0.2,0.586996849856319,"false"
"image-keyboard-response",228,226449,"0.0-3.72-1.72","xd06oaz2xzcha2t",121,"163.csv","","null","resources/maskTrios/BBA1.jpg","null","",NA,NA,NA,NA,""
"image-keyboard-response",229,227656,"0.0-3.72-2.72","xd06oaz2xzcha2t",121,"163.csv","","null","resources/images/fishbone.png","null","",NA,NA,NA,NA,""
"image-keyboard-response",230,227907,"0.0-3.73-0.73","xd06oaz2xzcha2t",121,"163.csv","","249.40000009536743","resources/trios/L4T2A1.jpg","37","restless",0.7,0.5,0.2,0.258418790086919,"true"
"image-keyboard-response",231,228310,"0.0-3.73-1.73","xd06oaz2xzcha2t",121,"163.csv","","null","resources/maskTrios/L4BB.jpg","null","",NA,NA,NA,NA,""
"image-keyboard-response",232,229512,"0.0-3.73-2.73","xd06oaz2xzcha2t",121,"163.csv","","null","resources/images/coin2.png","null","",NA,NA,NA,NA,""
"image-keyboard-response",233,229863,"0.0-3.74-0.74","xd06oaz2xzcha2t",121,"163.csv","","349.2999999523163","resources/trios/L4T2A3.jpg","37","restless",0.7,0.5,0.2,0.373539331537656,"true"
"image-keyboard-response",234,230269,"0.0-3.74-1.74","xd06oaz2xzcha2t",121,"163.csv","","null","resources/maskTrios/L4BB.jpg","null","",NA,NA,NA,NA,""
"image-keyboard-response",235,231471,"0.0-3.74-2.74","xd06oaz2xzcha2t",121,"163.csv","","null","resources/images/coin2.png","null","",NA,NA,NA,NA,""
"image-keyboard-response",236,231761,"0.0-3.75-0.75","xd06oaz2xzcha2t",121,"163.csv","","288.5","resources/trios/L4T4A3.jpg","38","restless",0.7,0.6,0.2,0.080411078686268,"true"
"image-keyboard-response",237,232165,"0.0-3.75-1.75","xd06oaz2xzcha2t",121,"163.csv","","null","resources/maskTrios/BT4B.jpg","null","",NA,NA,NA,NA,""
"image-keyboard-response",238,233368,"0.0-3.75-2.75","xd06oaz2xzcha2t",121,"163.csv","","null","resources/images/coin2.png","null","",NA,NA,NA,NA,""
"image-keyboard-response",239,233639,"0.0-3.76-0.76","xd06oaz2xzcha2t",121,"163.csv","","269.10000002384186","resources/trios/L4T2A1.jpg","38","restless",0.7,0.5,0.2,0.560044247038558,"false"
"image-keyboard-response",240,234046,"0.0-3.76-1.76","xd06oaz2xzcha2t",121,"163.csv","","null","resources/maskTrios/BT2B.jpg","null","",NA,NA,NA,NA,""
"image-keyboard-response",241,235252,"0.0-3.76-2.76","xd06oaz2xzcha2t",121,"163.csv","","null","resources/images/fishbone.png","null","",NA,NA,NA,NA,""
"image-keyboard-response",242,235468,"0.0-3.77-0.77","xd06oaz2xzcha2t",121,"163.csv","","214","resources/trios/L2T2A1.jpg","39","restless",0.7,0.5,0.2,0.510873041413562,"false"
"image-keyboard-response",243,235877,"0.0-3.77-1.77","xd06oaz2xzcha2t",121,"163.csv","","null","resources/maskTrios/BBA1.jpg","null","",NA,NA,NA,NA,""
"image-keyboard-response",244,237079,"0.0-3.77-2.77","xd06oaz2xzcha2t",121,"163.csv","","null","resources/images/fishbone.png","null","",NA,NA,NA,NA,""
"image-keyboard-response",245,238143,"0.0-3.78-0.78","xd06oaz2xzcha2t",121,"163.csv","","1061.7000000476837","resources/trios/L2T2A1.jpg","37","restless",0.6,0.6,0.2,0.440147086075978,"true"
"image-keyboard-response",246,238548,"0.0-3.78-1.78","xd06oaz2xzcha2t",121,"163.csv","","null","resources/maskTrios/L2BB.jpg","null","",NA,NA,NA,NA,""
"image-keyboard-response",247,239753,"0.0-3.78-2.78","xd06oaz2xzcha2t",121,"163.csv","","null","resources/images/coin2.png","null","",NA,NA,NA,NA,""
"image-keyboard-response",248,240508,"0.0-3.79-0.79","xd06oaz2xzcha2t",121,"163.csv","","753.6000000238419","resources/trios/L2T4A1.jpg","37","restless",0.6,0.6,0.3,0.969407842059444,"false"
"image-keyboard-response",249,240914,"0.0-3.79-1.79","xd06oaz2xzcha2t",121,"163.csv","","null","resources/maskTrios/L2BB.jpg","null","",NA,NA,NA,NA,""
"image-keyboard-response",250,242119,"0.0-3.79-2.79","xd06oaz2xzcha2t",121,"163.csv","","null","resources/images/fishbone.png","null","",NA,NA,NA,NA,""
"image-keyboard-response",251,242815,"0.0-3.80-0.80","xd06oaz2xzcha2t",121,"163.csv","","693.7000000476837","resources/trios/L4T4A1.jpg","38","restless",0.6,0.6,0.3,0.841851275727842,"false"
"image-keyboard-response",252,243222,"0.0-3.80-1.80","xd06oaz2xzcha2t",121,"163.csv","","null","resources/maskTrios/BT4B.jpg","null","",NA,NA,NA,NA,""
"image-keyboard-response",253,244429,"0.0-3.80-2.80","xd06oaz2xzcha2t",121,"163.csv","","null","resources/images/fishbone.png","null","",NA,NA,NA,NA,""
"image-keyboard-response",254,245605,"0.0-3.81-0.81","xd06oaz2xzcha2t",121,"163.csv","","1174.5","resources/trios/L4T2A1.jpg","37","restless",0.6,0.5,0.3,0.00570403769618522,"true"
"image-keyboard-response",255,246012,"0.0-3.81-1.81","xd06oaz2xzcha2t",121,"163.csv","","null","resources/maskTrios/L4BB.jpg","null","",NA,NA,NA,NA,""
"image-keyboard-response",256,247214,"0.0-3.81-2.81","xd06oaz2xzcha2t",121,"163.csv","","null","resources/images/coin2.png","null","",NA,NA,NA,NA,""
"image-keyboard-response",257,247850,"0.0-3.82-0.82","xd06oaz2xzcha2t",121,"163.csv","","634.6000000238419","resources/trios/L4T2A3.jpg","37","restless",0.6,0.5,0.3,0.822029203890792,"false"
"image-keyboard-response",258,248252,"0.0-3.82-1.82","xd06oaz2xzcha2t",121,"163.csv","","null","resources/maskTrios/L4BB.jpg","null","",NA,NA,NA,NA,""
"image-keyboard-response",259,249455,"0.0-3.82-2.82","xd06oaz2xzcha2t",121,"163.csv","","null","resources/images/fishbone.png","null","",NA,NA,NA,NA,""
"image-keyboard-response",260,249774,"0.0-3.83-0.83","xd06oaz2xzcha2t",121,"163.csv","","317.10000002384186","resources/trios/L4T2A1.jpg","39","restless",0.6,0.5,0.3,0.81614699399584,"false"
"image-keyboard-response",261,250180,"0.0-3.83-1.83","xd06oaz2xzcha2t",121,"163.csv","","null","resources/maskTrios/BBA1.jpg","null","",NA,NA,NA,NA,""
"image-keyboard-response",262,251388,"0.0-3.83-2.83","xd06oaz2xzcha2t",121,"163.csv","","null","resources/images/fishbone.png","null","",NA,NA,NA,NA,""
"image-keyboard-response",263,251730,"0.0-3.84-0.84","xd06oaz2xzcha2t",121,"163.csv","","339.7999999523163","resources/trios/L4T4A1.jpg","38","restless",0.6,0.5,0.2,0.087280974101676,"true"
"image-keyboard-response",264,252132,"0.0-3.84-1.84","xd06oaz2xzcha2t",121,"163.csv","","null","resources/maskTrios/BT4B.jpg","null","",NA,NA,NA,NA,""
"image-keyboard-response",265,253339,"0.0-3.84-2.84","xd06oaz2xzcha2t",121,"163.csv","","null","resources/images/coin2.png","null","",NA,NA,NA,NA,""
"image-keyboard-response",266,253647,"0.0-3.85-0.85","xd06oaz2xzcha2t",121,"163.csv","","305.7000000476837","resources/trios/L2T2A3.jpg","38","restless",0.6,0.5,0.2,0.779111423441718,"false"
"image-keyboard-response",267,254054,"0.0-3.85-1.85","xd06oaz2xzcha2t",121,"163.csv","","null","resources/maskTrios/BT2B.jpg","null","",NA,NA,NA,NA,""
"image-keyboard-response",268,255260,"0.0-3.85-2.85","xd06oaz2xzcha2t",121,"163.csv","","null","resources/images/fishbone.png","null","",NA,NA,NA,NA,""
"image-keyboard-response",269,255556,"0.0-3.86-0.86","xd06oaz2xzcha2t",121,"163.csv","","294.2000000476837","resources/trios/L2T4A3.jpg","37","restless",0.6,0.5,0.2,0.619739485825591,"false"
"image-keyboard-response",270,255965,"0.0-3.86-1.86","xd06oaz2xzcha2t",121,"163.csv","","null","resources/maskTrios/L2BB.jpg","null","",NA,NA,NA,NA,""
"image-keyboard-response",271,257169,"0.0-3.86-2.86","xd06oaz2xzcha2t",121,"163.csv","","null","resources/images/fishbone.png","null","",NA,NA,NA,NA,""
"image-keyboard-response",272,257445,"0.0-3.87-0.87","xd06oaz2xzcha2t",121,"163.csv","","273.89999997615814","resources/trios/L4T4A3.jpg","39","restless",0.5,0.5,0.2,0.389717898234532,"false"
"image-keyboard-response",273,257848,"0.0-3.87-1.87","xd06oaz2xzcha2t",121,"163.csv","","null","resources/maskTrios/BBA3.jpg","null","",NA,NA,NA,NA,""
"image-keyboard-response",274,259057,"0.0-3.87-2.87","xd06oaz2xzcha2t",121,"163.csv","","null","resources/images/fishbone.png","null","",NA,NA,NA,NA,""
"image-keyboard-response",275,259273,"0.0-3.88-0.88","xd06oaz2xzcha2t",121,"163.csv","","214","resources/trios/L2T2A1.jpg","38","restless",0.5,0.5,0.2,0.367920223354984,"true"
"image-keyboard-response",276,259679,"0.0-3.88-1.88","xd06oaz2xzcha2t",121,"163.csv","","null","resources/maskTrios/BT2B.jpg","null","",NA,NA,NA,NA,""
"image-keyboard-response",277,260886,"0.0-3.88-2.88","xd06oaz2xzcha2t",121,"163.csv","","null","resources/images/coin2.png","null","",NA,NA,NA,NA,""
"image-keyboard-response",278,261206,"0.0-3.89-0.89","xd06oaz2xzcha2t",121,"163.csv","","317.60000002384186","resources/trios/L4T4A3.jpg","38","restless",0.5,0.5,0.2,0.770474526578361,"false"
"image-keyboard-response",279,261612,"0.0-3.89-1.89","xd06oaz2xzcha2t",121,"163.csv","","null","resources/maskTrios/BT4B.jpg","null","",NA,NA,NA,NA,""
"image-keyboard-response",280,262816,"0.0-3.89-2.89","xd06oaz2xzcha2t",121,"163.csv","","null","resources/images/fishbone.png","null","",NA,NA,NA,NA,""
"image-keyboard-response",281,263741,"0.0-3.90-0.90","xd06oaz2xzcha2t",121,"163.csv","","923.6000000238419","resources/trios/L2T4A1.jpg","37","restless",0.5,0.5,0.2,0.550771562488794,"false"
"image-keyboard-response",282,264148,"0.0-3.90-1.90","xd06oaz2xzcha2t",121,"163.csv","","null","resources/maskTrios/L2BB.jpg","null","",NA,NA,NA,NA,""
"image-keyboard-response",283,265352,"0.0-3.90-2.90","xd06oaz2xzcha2t",121,"163.csv","","null","resources/images/fishbone.png","null","",NA,NA,NA,NA,""
"image-keyboard-response",284,265977,"0.0-3.91-0.91","xd06oaz2xzcha2t",121,"163.csv","","622.3999999761581","resources/trios/L4T4A1.jpg","39","restless",0.5,0.5,0.1,0.580102493959786,"false"
"image-keyboard-response",285,266381,"0.0-3.91-1.91","xd06oaz2xzcha2t",121,"163.csv","","null","resources/maskTrios/BBA1.jpg","null","",NA,NA,NA,NA,""
"image-keyboard-response",286,267590,"0.0-3.91-2.91","xd06oaz2xzcha2t",121,"163.csv","","null","resources/images/fishbone.png","null","",NA,NA,NA,NA,""
"image-keyboard-response",287,268078,"0.0-3.92-0.92","xd06oaz2xzcha2t",121,"163.csv","","486.7999999523163","resources/trios/L4T4A3.jpg","38","restless",0.5,0.6,0.1,0.931492119839213,"false"
"image-keyboard-response",288,268487,"0.0-3.92-1.92","xd06oaz2xzcha2t",121,"163.csv","","null","resources/maskTrios/BT4B.jpg","null","",NA,NA,NA,NA,""
"image-keyboard-response",289,269690,"0.0-3.92-2.92","xd06oaz2xzcha2t",121,"163.csv","","null","resources/images/fishbone.png","null","",NA,NA,NA,NA,""
"image-keyboard-response",290,269980,"0.0-3.93-0.93","xd06oaz2xzcha2t",121,"163.csv","","288.7999999523163","resources/trios/L2T2A1.jpg","39","restless",0.5,0.7,0.1,0.0240983092860838,"true"
"image-keyboard-response",291,270389,"0.0-3.93-1.93","xd06oaz2xzcha2t",121,"163.csv","","null","resources/maskTrios/BBA1.jpg","null","",NA,NA,NA,NA,""
"image-keyboard-response",292,271598,"0.0-3.93-2.93","xd06oaz2xzcha2t",121,"163.csv","","null","resources/images/coin2.png","null","",NA,NA,NA,NA,""
"image-keyboard-response",293,272054,"0.0-3.94-0.94","xd06oaz2xzcha2t",121,"163.csv","","454.89999997615814","resources/trios/L2T2A3.jpg","39","restless",0.5,0.8,0.1,0.785605831291355,"false"
"image-keyboard-response",294,272457,"0.0-3.94-1.94","xd06oaz2xzcha2t",121,"163.csv","","null","resources/maskTrios/BBA3.jpg","null","",NA,NA,NA,NA,""
"image-keyboard-response",295,273664,"0.0-3.94-2.94","xd06oaz2xzcha2t",121,"163.csv","","null","resources/images/fishbone.png","null","",NA,NA,NA,NA,""
"image-keyboard-response",296,274005,"0.0-3.95-0.95","xd06oaz2xzcha2t",121,"163.csv","","339","resources/trios/L4T4A1.jpg","37","restless",0.5,0.8,0.1,0.489656657834326,"true"
"image-keyboard-response",297,274409,"0.0-3.95-1.95","xd06oaz2xzcha2t",121,"163.csv","","null","resources/maskTrios/L4BB.jpg","null","",NA,NA,NA,NA,""
"image-keyboard-response",298,275611,"0.0-3.95-2.95","xd06oaz2xzcha2t",121,"163.csv","","null","resources/images/coin2.png","null","",NA,NA,NA,NA,""
"image-keyboard-response",299,276027,"0.0-3.96-0.96","xd06oaz2xzcha2t",121,"163.csv","","413.10000002384186","resources/trios/L4T4A3.jpg","37","restless",0.5,0.8,0.1,0.767900694610793,"false"
"image-keyboard-response",300,276430,"0.0-3.96-1.96","xd06oaz2xzcha2t",121,"163.csv","","null","resources/maskTrios/L4BB.jpg","null","",NA,NA,NA,NA,""
"image-keyboard-response",301,277639,"0.0-3.96-2.96","xd06oaz2xzcha2t",121,"163.csv","","null","resources/images/fishbone.png","null","",NA,NA,NA,NA,""
"image-keyboard-response",302,278455,"0.0-3.97-0.97","xd06oaz2xzcha2t",121,"163.csv","","814","resources/trios/L4T2A1.jpg","38","restless",0.5,0.8,0.1,0.585227906345843,"true"
"image-keyboard-response",303,278860,"0.0-3.97-1.97","xd06oaz2xzcha2t",121,"163.csv","","null","resources/maskTrios/BT2B.jpg","null","",NA,NA,NA,NA,""
"image-keyboard-response",304,280066,"0.0-3.97-2.97","xd06oaz2xzcha2t",121,"163.csv","","null","resources/images/coin2.png","null","",NA,NA,NA,NA,""
"image-keyboard-response",305,280510,"0.0-3.98-0.98","xd06oaz2xzcha2t",121,"163.csv","","442.1999999284744","resources/trios/L2T4A1.jpg","38","restless",0.5,0.8,0.1,0.361701636105991,"true"
"image-keyboard-response",306,280916,"0.0-3.98-1.98","xd06oaz2xzcha2t",121,"163.csv","","null","resources/maskTrios/BT4B.jpg","null","",NA,NA,NA,NA,""
"image-keyboard-response",307,282121,"0.0-3.98-2.98","xd06oaz2xzcha2t",121,"163.csv","","null","resources/images/coin2.png","null","",NA,NA,NA,NA,""
"image-keyboard-response",308,282953,"0.0-3.99-0.99","xd06oaz2xzcha2t",121,"163.csv","","830.2999999523163","resources/trios/L2T4A1.jpg","38","restless",0.5,0.8,0.2,0.376402834646452,"true"
"image-keyboard-response",309,283359,"0.0-3.99-1.99","xd06oaz2xzcha2t",121,"163.csv","","null","resources/maskTrios/BT4B.jpg","null","",NA,NA,NA,NA,""
"image-keyboard-response",310,284562,"0.0-3.99-2.99","xd06oaz2xzcha2t",121,"163.csv","","null","resources/images/coin2.png","null","",NA,NA,NA,NA,""
"image-keyboard-response",311,284943,"0.0-3.100-0.100","xd06oaz2xzcha2t",121,"163.csv","","379.7000000476837","resources/trios/L2T2A3.jpg","38","restless",0.5,0.8,0.2,0.745712556721831,"true"
"image-keyboard-response",312,285349,"0.0-3.100-1.100","xd06oaz2xzcha2t",121,"163.csv","","null","resources/maskTrios/BT2B.jpg","null","",NA,NA,NA,NA,""
"image-keyboard-response",313,286552,"0.0-3.100-2.100","xd06oaz2xzcha2t",121,"163.csv","","null","resources/images/coin2.png","null","",NA,NA,NA,NA,""
"image-keyboard-response",314,286919,"0.0-3.101-0.101","xd06oaz2xzcha2t",121,"163.csv","","365.3000000715256","resources/trios/L2T4A3.jpg","38","restless",0.5,0.8,0.2,0.170483870508165,"true"
"image-keyboard-response",315,287322,"0.0-3.101-1.101","xd06oaz2xzcha2t",121,"163.csv","","null","resources/maskTrios/BT4B.jpg","null","",NA,NA,NA,NA,""
"image-keyboard-response",316,288529,"0.0-3.101-2.101","xd06oaz2xzcha2t",121,"163.csv","","null","resources/images/coin2.png","null","",NA,NA,NA,NA,""
"image-keyboard-response",317,289050,"0.0-3.102-0.102","xd06oaz2xzcha2t",121,"163.csv","","520.1000000238419","resources/trios/L2T4A1.jpg","38","restless",0.5,0.8,0.3,0.761961580834015,"true"
"image-keyboard-response",318,289454,"0.0-3.102-1.102","xd06oaz2xzcha2t",121,"163.csv","","null","resources/maskTrios/BT4B.jpg","null","",NA,NA,NA,NA,""
"image-keyboard-response",319,290660,"0.0-3.102-2.102","xd06oaz2xzcha2t",121,"163.csv","","null","resources/images/coin2.png","null","",NA,NA,NA,NA,""
"image-keyboard-response",320,290955,"0.0-3.103-0.103","xd06oaz2xzcha2t",121,"163.csv","","293","resources/trios/L2T4A3.jpg","38","restless",0.5,0.8,0.3,0.793404079777788,"true"
"image-keyboard-response",321,291360,"0.0-3.103-1.103","xd06oaz2xzcha2t",121,"163.csv","","null","resources/maskTrios/BT4B.jpg","null","",NA,NA,NA,NA,""
"image-keyboard-response",322,292561,"0.0-3.103-2.103","xd06oaz2xzcha2t",121,"163.csv","","null","resources/images/coin2.png","null","",NA,NA,NA,NA,""
"image-keyboard-response",323,292936,"0.0-3.104-0.104","xd06oaz2xzcha2t",121,"163.csv","","372.89999997615814","resources/trios/L4T4A1.jpg","38","restless",0.5,0.8,0.3,0.849742708058004,"false"
"image-keyboard-response",324,293340,"0.0-3.104-1.104","xd06oaz2xzcha2t",121,"163.csv","","null","resources/maskTrios/BT4B.jpg","null","",NA,NA,NA,NA,""
"image-keyboard-response",325,294546,"0.0-3.104-2.104","xd06oaz2xzcha2t",121,"163.csv","","null","resources/images/fishbone.png","null","",NA,NA,NA,NA,""
"image-keyboard-response",326,295717,"0.0-3.105-0.105","xd06oaz2xzcha2t",121,"163.csv","","1168.7999999523163","resources/trios/L4T2A3.jpg","37","restless",0.5,0.8,0.3,0.756828678609314,"false"
"image-keyboard-response",327,296120,"0.0-3.105-1.105","xd06oaz2xzcha2t",121,"163.csv","","null","resources/maskTrios/L4BB.jpg","null","",NA,NA,NA,NA,""
"image-keyboard-response",328,297327,"0.0-3.105-2.105","xd06oaz2xzcha2t",121,"163.csv","","null","resources/images/fishbone.png","null","",NA,NA,NA,NA,""
"image-keyboard-response",329,297878,"0.0-3.106-0.106","xd06oaz2xzcha2t",121,"163.csv","","549.5999999046326","resources/trios/L2T2A3.jpg","39","restless",0.5,0.8,0.3,0.849246204292594,"false"
"image-keyboard-response",330,298281,"0.0-3.106-1.106","xd06oaz2xzcha2t",121,"163.csv","","null","resources/maskTrios/BBA3.jpg","null","",NA,NA,NA,NA,""
"image-keyboard-response",331,299485,"0.0-3.106-2.106","xd06oaz2xzcha2t",121,"163.csv","","null","resources/images/fishbone.png","null","",NA,NA,NA,NA,""
"image-keyboard-response",332,300336,"0.0-3.107-0.107","xd06oaz2xzcha2t",121,"163.csv","","849.5","resources/trios/L4T2A1.jpg","37","restless",0.5,0.7,0.3,0.737085147658902,"false"
"image-keyboard-response",333,300738,"0.0-3.107-1.107","xd06oaz2xzcha2t",121,"163.csv","","null","resources/maskTrios/L4BB.jpg","null","",NA,NA,NA,NA,""
"image-keyboard-response",334,301944,"0.0-3.107-2.107","xd06oaz2xzcha2t",121,"163.csv","","null","resources/images/fishbone.png","null","",NA,NA,NA,NA,""
"image-keyboard-response",335,302194,"0.0-3.108-0.108","xd06oaz2xzcha2t",121,"163.csv","","248.5","resources/trios/L4T4A1.jpg","38","restless",0.5,0.7,0.3,0.903394001589857,"false"
"image-keyboard-response",336,302600,"0.0-3.108-1.108","xd06oaz2xzcha2t",121,"163.csv","","null","resources/maskTrios/BT4B.jpg","null","",NA,NA,NA,NA,""
"image-keyboard-response",337,303809,"0.0-3.108-2.108","xd06oaz2xzcha2t",121,"163.csv","","null","resources/images/fishbone.png","null","",NA,NA,NA,NA,""
"image-keyboard-response",338,304119,"0.0-3.109-0.109","xd06oaz2xzcha2t",121,"163.csv","","307.90000009536743","resources/trios/L2T2A1.jpg","39","restless",0.5,0.7,0.3,0.147994801424063,"true"
"image-keyboard-response",339,304522,"0.0-3.109-1.109","xd06oaz2xzcha2t",121,"163.csv","","null","resources/maskTrios/BBA1.jpg","null","",NA,NA,NA,NA,""
"image-keyboard-response",340,305727,"0.0-3.109-2.109","xd06oaz2xzcha2t",121,"163.csv","","null","resources/images/coin2.png","null","",NA,NA,NA,NA,""
"image-keyboard-response",341,305990,"0.0-3.110-0.110","xd06oaz2xzcha2t",121,"163.csv","","260.7999999523163","resources/trios/L4T2A1.jpg","39","restless",0.5,0.7,0.3,0.651792004774021,"false"
"image-keyboard-response",342,306393,"0.0-3.110-1.110","xd06oaz2xzcha2t",121,"163.csv","","null","resources/maskTrios/BBA1.jpg","null","",NA,NA,NA,NA,""
"image-keyboard-response",343,307597,"0.0-3.110-2.110","xd06oaz2xzcha2t",121,"163.csv","","null","resources/images/fishbone.png","null","",NA,NA,NA,NA,""
"image-keyboard-response",344,308023,"0.0-3.111-0.111","xd06oaz2xzcha2t",121,"163.csv","","424.1999999284744","resources/trios/L4T2A3.jpg","38","restless",0.5,0.7,0.3,0.813502722269194,"false"
"image-keyboard-response",345,308427,"0.0-3.111-1.111","xd06oaz2xzcha2t",121,"163.csv","","null","resources/maskTrios/BT2B.jpg","null","",NA,NA,NA,NA,""
"image-keyboard-response",346,309631,"0.0-3.111-2.111","xd06oaz2xzcha2t",121,"163.csv","","null","resources/images/fishbone.png","null","",NA,NA,NA,NA,""
"image-keyboard-response",347,311305,"0.0-3.112-0.112","xd06oaz2xzcha2t",121,"163.csv","","1671.4000000953674","resources/trios/L4T4A1.jpg","37","restless",0.6,0.6,0.3,0.514385602284427,"true"
"image-keyboard-response",348,311710,"0.0-3.112-1.112","xd06oaz2xzcha2t",121,"163.csv","","null","resources/maskTrios/L4BB.jpg","null","",NA,NA,NA,NA,""
"image-keyboard-response",349,312915,"0.0-3.112-2.112","xd06oaz2xzcha2t",121,"163.csv","","null","resources/images/coin2.png","null","",NA,NA,NA,NA,""
"image-keyboard-response",350,313584,"0.0-3.113-0.113","xd06oaz2xzcha2t",121,"163.csv","","666.5","resources/trios/L4T4A1.jpg","37","restless",0.5,0.6,0.3,0.60150771340247,"false"
"image-keyboard-response",351,313990,"0.0-3.113-1.113","xd06oaz2xzcha2t",121,"163.csv","","null","resources/maskTrios/L4BB.jpg","null","",NA,NA,NA,NA,""
"image-keyboard-response",352,315193,"0.0-3.113-2.113","xd06oaz2xzcha2t",121,"163.csv","","null","resources/images/fishbone.png","null","",NA,NA,NA,NA,""
"image-keyboard-response",353,315645,"0.0-3.114-0.114","xd06oaz2xzcha2t",121,"163.csv","","450.5","resources/trios/L2T2A1.jpg","38","restless",0.5,0.6,0.3,0.396346958888976,"true"
"image-keyboard-response",354,316052,"0.0-3.114-1.114","xd06oaz2xzcha2t",121,"163.csv","","null","resources/maskTrios/BT2B.jpg","null","",NA,NA,NA,NA,""
"image-keyboard-response",355,317259,"0.0-3.114-2.114","xd06oaz2xzcha2t",121,"163.csv","","null","resources/images/coin2.png","null","",NA,NA,NA,NA,""
"image-keyboard-response",356,317775,"0.0-3.115-0.115","xd06oaz2xzcha2t",121,"163.csv","","514.3000000715256","resources/trios/L4T4A1.jpg","38","restless",0.5,0.6,0.3,0.735531532299487,"false"
"image-keyboard-response",357,318182,"0.0-3.115-1.115","xd06oaz2xzcha2t",121,"163.csv","","null","resources/maskTrios/BT4B.jpg","null","",NA,NA,NA,NA,""
"image-keyboard-response",358,319389,"0.0-3.115-2.115","xd06oaz2xzcha2t",121,"163.csv","","null","resources/images/fishbone.png","null","",NA,NA,NA,NA,""
"image-keyboard-response",359,319859,"0.0-3.116-0.116","xd06oaz2xzcha2t",121,"163.csv","","468.89999997615814","resources/trios/L4T2A1.jpg","39","restless",0.5,0.6,0.3,0.842966932405188,"false"
"image-keyboard-response",360,320264,"0.0-3.116-1.116","xd06oaz2xzcha2t",121,"163.csv","","null","resources/maskTrios/BBA1.jpg","null","",NA,NA,NA,NA,""
"image-keyboard-response",361,321469,"0.0-3.116-2.116","xd06oaz2xzcha2t",121,"163.csv","","null","resources/images/fishbone.png","null","",NA,NA,NA,NA,""
"image-keyboard-response",362,321876,"0.0-3.117-0.117","xd06oaz2xzcha2t",121,"163.csv","","404.7999999523163","resources/trios/L2T4A1.jpg","37","restless",0.5,0.6,0.3,0.57493396353938,"false"
"image-keyboard-response",363,322278,"0.0-3.117-1.117","xd06oaz2xzcha2t",121,"163.csv","","null","resources/maskTrios/L2BB.jpg","null","",NA,NA,NA,NA,""
"image-keyboard-response",364,323482,"0.0-3.117-2.117","xd06oaz2xzcha2t",121,"163.csv","","null","resources/images/fishbone.png","null","",NA,NA,NA,NA,""
"image-keyboard-response",365,323791,"0.0-3.118-0.118","xd06oaz2xzcha2t",121,"163.csv","","307.10000002384186","resources/trios/L2T4A3.jpg","38","restless",0.5,0.6,0.2,0.984019484189527,"false"
"image-keyboard-response",366,324194,"0.0-3.118-1.118","xd06oaz2xzcha2t",121,"163.csv","","null","resources/maskTrios/BT4B.jpg","null","",NA,NA,NA,NA,""
"image-keyboard-response",367,325396,"0.0-3.118-2.118","xd06oaz2xzcha2t",121,"163.csv","","null","resources/images/fishbone.png","null","",NA,NA,NA,NA,""
"image-keyboard-response",368,325658,"0.0-3.119-0.119","xd06oaz2xzcha2t",121,"163.csv","","260.2000000476837","resources/trios/L4T4A3.jpg","39","restless",0.5,0.5,0.2,0.0640388358104114,"true"
"image-keyboard-response",369,326063,"0.0-3.119-1.119","xd06oaz2xzcha2t",121,"163.csv","","null","resources/maskTrios/BBA3.jpg","null","",NA,NA,NA,NA,""
"image-keyboard-response",370,327270,"0.0-3.119-2.119","xd06oaz2xzcha2t",121,"163.csv","","null","resources/images/coin2.png","null","",NA,NA,NA,NA,""
"image-keyboard-response",371,327603,"0.0-3.120-0.120","xd06oaz2xzcha2t",121,"163.csv","","330.7999999523163","resources/trios/L2T4A3.jpg","39","restless",0.5,0.5,0.2,0.185509442912217,"true"
"image-keyboard-response",372,328009,"0.0-3.120-1.120","xd06oaz2xzcha2t",121,"163.csv","","null","resources/maskTrios/BBA3.jpg","null","",NA,NA,NA,NA,""
"image-keyboard-response",373,329213,"0.0-3.120-2.120","xd06oaz2xzcha2t",121,"163.csv","","null","resources/images/coin2.png","null","",NA,NA,NA,NA,""
"image-keyboard-response",374,330115,"0.0-3.121-0.121","xd06oaz2xzcha2t",121,"163.csv","","899.8000000715256","resources/trios/L2T4A3.jpg","39","restless",0.5,0.5,0.2,0.968251715086829,"false"
"image-keyboard-response",375,330517,"0.0-3.121-1.121","xd06oaz2xzcha2t",121,"163.csv","","null","resources/maskTrios/BBA3.jpg","null","",NA,NA,NA,NA,""
"image-keyboard-response",376,331719,"0.0-3.121-2.121","xd06oaz2xzcha2t",121,"163.csv","","null","resources/images/fishbone.png","null","",NA,NA,NA,NA,""
"image-keyboard-response",377,332185,"0.0-3.122-0.122","xd06oaz2xzcha2t",121,"163.csv","","464.3000000715256","resources/trios/L2T2A1.jpg","37","restless",0.5,0.5,0.2,0.382653015412551,"true"
"image-keyboard-response",378,332592,"0.0-3.122-1.122","xd06oaz2xzcha2t",121,"163.csv","","null","resources/maskTrios/L2BB.jpg","null","",NA,NA,NA,NA,""
"image-keyboard-response",379,333799,"0.0-3.122-2.122","xd06oaz2xzcha2t",121,"163.csv","","null","resources/images/coin2.png","null","",NA,NA,NA,NA,""
"image-keyboard-response",380,334783,"0.0-3.123-0.123","xd06oaz2xzcha2t",121,"163.csv","","981.8000000715256","resources/trios/L4T2A3.jpg","37","restless",0.5,0.5,0.2,0.892613835506903,"false"
"image-keyboard-response",381,335185,"0.0-3.123-1.123","xd06oaz2xzcha2t",121,"163.csv","","null","resources/maskTrios/L4BB.jpg","null","",NA,NA,NA,NA,""
"image-keyboard-response",382,336394,"0.0-3.123-2.123","xd06oaz2xzcha2t",121,"163.csv","","null","resources/images/fishbone.png","null","",NA,NA,NA,NA,""
"image-keyboard-response",383,337605,"0.0-3.124-0.124","xd06oaz2xzcha2t",121,"163.csv","","1209","resources/trios/L4T2A3.jpg","38","restless",0.5,0.5,0.2,0.976579914657656,"false"
"image-keyboard-response",384,338010,"0.0-3.124-1.124","xd06oaz2xzcha2t",121,"163.csv","","null","resources/maskTrios/BT2B.jpg","null","",NA,NA,NA,NA,""
"image-keyboard-response",385,339218,"0.0-3.124-2.124","xd06oaz2xzcha2t",121,"163.csv","","null","resources/images/fishbone.png","null","",NA,NA,NA,NA,""
"image-keyboard-response",386,341673,"0.0-3.125-0.125","xd06oaz2xzcha2t",121,"163.csv","","2452.600000023842","resources/trios/L4T4A1.jpg","39","restless",0.5,0.5,0.2,0.55426265063331,"false"
"image-keyboard-response",387,342076,"0.0-3.125-1.125","xd06oaz2xzcha2t",121,"163.csv","","null","resources/maskTrios/BBA1.jpg","null","",NA,NA,NA,NA,""
"image-keyboard-response",388,343280,"0.0-3.125-2.125","xd06oaz2xzcha2t",121,"163.csv","","null","resources/images/fishbone.png","null","",NA,NA,NA,NA,""
"image-keyboard-response",389,343873,"0.0-3.126-0.126","xd06oaz2xzcha2t",121,"163.csv","","590.6999999284744","resources/trios/L2T2A3.jpg","37","restless",0.5,0.5,0.2,0.659287411897578,"false"
"image-keyboard-response",390,344276,"0.0-3.126-1.126","xd06oaz2xzcha2t",121,"163.csv","","null","resources/maskTrios/L2BB.jpg","null","",NA,NA,NA,NA,""
"image-keyboard-response",391,345480,"0.0-3.126-2.126","xd06oaz2xzcha2t",121,"163.csv","","null","resources/images/fishbone.png","null","",NA,NA,NA,NA,""
"image-keyboard-response",392,345679,"0.0-3.127-0.127","xd06oaz2xzcha2t",121,"163.csv","","196.89999997615814","resources/trios/L4T2A1.jpg","39","restless",0.5,0.5,0.2,0.782324230698006,"false"
"image-keyboard-response",393,346085,"0.0-3.127-1.127","xd06oaz2xzcha2t",121,"163.csv","","null","resources/maskTrios/BBA1.jpg","null","",NA,NA,NA,NA,""
"image-keyboard-response",394,347289,"0.0-3.127-2.127","xd06oaz2xzcha2t",121,"163.csv","","null","resources/images/fishbone.png","null","",NA,NA,NA,NA,""
"image-keyboard-response",395,347580,"0.0-3.128-0.128","xd06oaz2xzcha2t",121,"163.csv","","289.3000000715256","resources/trios/L4T4A1.jpg","38","restless",0.5,0.5,0.2,0.0988770399058823,"true"
"image-keyboard-response",396,347983,"0.0-3.128-1.128","xd06oaz2xzcha2t",121,"163.csv","","null","resources/maskTrios/BT4B.jpg","null","",NA,NA,NA,NA,""
"image-keyboard-response",397,349192,"0.0-3.128-2.128","xd06oaz2xzcha2t",121,"163.csv","","null","resources/images/coin2.png","null","",NA,NA,NA,NA,""
"image-keyboard-response",398,350625,"0.0-3.129-0.129","xd06oaz2xzcha2t",121,"163.csv","","1430.7999999523163","resources/trios/L2T2A3.jpg","38","restless",0.5,0.5,0.2,0.720237402002578,"false"
"image-keyboard-response",399,351034,"0.0-3.129-1.129","xd06oaz2xzcha2t",121,"163.csv","","null","resources/maskTrios/BT2B.jpg","null","",NA,NA,NA,NA,""
"image-keyboard-response",400,352243,"0.0-3.129-2.129","xd06oaz2xzcha2t",121,"163.csv","","null","resources/images/fishbone.png","null","",NA,NA,NA,NA,""
"image-keyboard-response",401,352668,"0.0-3.130-0.130","xd06oaz2xzcha2t",121,"163.csv","","423.5","resources/trios/L2T2A3.jpg","37","restless",0.5,0.5,0.2,0.15425766455822,"true"
"image-keyboard-response",402,353073,"0.0-3.130-1.130","xd06oaz2xzcha2t",121,"163.csv","","null","resources/maskTrios/L2BB.jpg","null","",NA,NA,NA,NA,""
"image-keyboard-response",403,354279,"0.0-3.130-2.130","xd06oaz2xzcha2t",121,"163.csv","","null","resources/images/coin2.png","null","",NA,NA,NA,NA,""
"image-keyboard-response",404,355308,"0.0-3.131-0.131","xd06oaz2xzcha2t",121,"163.csv","","1028.5","resources/trios/L4T4A3.jpg","37","restless",0.5,0.5,0.2,0.179320375245619,"true"
"image-keyboard-response",405,355713,"0.0-3.131-1.131","xd06oaz2xzcha2t",121,"163.csv","","null","resources/maskTrios/L4BB.jpg","null","",NA,NA,NA,NA,""
"image-keyboard-response",406,356916,"0.0-3.131-2.131","xd06oaz2xzcha2t",121,"163.csv","","null","resources/images/coin2.png","null","",NA,NA,NA,NA,""
"image-keyboard-response",407,357442,"0.0-3.132-0.132","xd06oaz2xzcha2t",121,"163.csv","","523.6000000238419","resources/trios/L2T4A1.jpg","37","restless",0.5,0.5,0.2,0.321214863736346,"true"
"image-keyboard-response",408,357844,"0.0-3.132-1.132","xd06oaz2xzcha2t",121,"163.csv","","null","resources/maskTrios/L2BB.jpg","null","",NA,NA,NA,NA,""
"image-keyboard-response",409,359046,"0.0-3.132-2.132","xd06oaz2xzcha2t",121,"163.csv","","null","resources/images/coin2.png","null","",NA,NA,NA,NA,""
"image-keyboard-response",410,359513,"0.0-3.133-0.133","xd06oaz2xzcha2t",121,"163.csv","","465.60000002384186","resources/trios/L2T4A1.jpg","37","restless",0.6,0.5,0.2,0.0835406468985183,"true"
"image-keyboard-response",411,359919,"0.0-3.133-1.133","xd06oaz2xzcha2t",121,"163.csv","","null","resources/maskTrios/L2BB.jpg","null","",NA,NA,NA,NA,""
"image-keyboard-response",412,361123,"0.0-3.133-2.133","xd06oaz2xzcha2t",121,"163.csv","","null","resources/images/coin2.png","null","",NA,NA,NA,NA,""
"image-keyboard-response",413,361472,"0.0-3.134-0.134","xd06oaz2xzcha2t",121,"163.csv","","346.7999999523163","resources/trios/L4T2A3.jpg","37","restless",0.6,0.5,0.2,0.741629436975426,"false"
"image-keyboard-response",414,361877,"0.0-3.134-1.134","xd06oaz2xzcha2t",121,"163.csv","","null","resources/maskTrios/L4BB.jpg","null","",NA,NA,NA,NA,""
"image-keyboard-response",415,363082,"0.0-3.134-2.134","xd06oaz2xzcha2t",121,"163.csv","","null","resources/images/fishbone.png","null","",NA,NA,NA,NA,""
"image-keyboard-response",416,363752,"0.0-3.135-0.135","xd06oaz2xzcha2t",121,"163.csv","","667.7999999523163","resources/trios/L4T4A1.jpg","39","restless",0.6,0.5,0.2,0.689814853435341,"false"
"image-keyboard-response",417,364157,"0.0-3.135-1.135","xd06oaz2xzcha2t",121,"163.csv","","null","resources/maskTrios/BBA1.jpg","null","",NA,NA,NA,NA,""
"image-keyboard-response",418,365363,"0.0-3.135-2.135","xd06oaz2xzcha2t",121,"163.csv","","null","resources/images/fishbone.png","null","",NA,NA,NA,NA,""
"image-keyboard-response",419,366068,"0.0-3.136-0.136","xd06oaz2xzcha2t",121,"163.csv","","702","resources/trios/L2T4A1.jpg","38","restless",0.6,0.5,0.3,0.0992306916698558,"true"
"image-keyboard-response",420,366473,"0.0-3.136-1.136","xd06oaz2xzcha2t",121,"163.csv","","null","resources/maskTrios/BT4B.jpg","null","",NA,NA,NA,NA,""
"image-keyboard-response",421,367680,"0.0-3.136-2.136","xd06oaz2xzcha2t",121,"163.csv","","null","resources/images/coin2.png","null","",NA,NA,NA,NA,""
"image-keyboard-response",422,368412,"0.0-3.137-0.137","xd06oaz2xzcha2t",121,"163.csv","","729.7000000476837","resources/trios/L2T2A3.jpg","38","restless",0.6,0.5,0.3,0.614953171194339,"false"
"image-keyboard-response",423,368816,"0.0-3.137-1.137","xd06oaz2xzcha2t",121,"163.csv","","null","resources/maskTrios/BT2B.jpg","null","",NA,NA,NA,NA,""
"image-keyboard-response",424,370019,"0.0-3.137-2.137","xd06oaz2xzcha2t",121,"163.csv","","null","resources/images/fishbone.png","null","",NA,NA,NA,NA,""
"image-keyboard-response",425,370609,"0.0-3.138-0.138","xd06oaz2xzcha2t",121,"163.csv","","588.3999999761581","resources/trios/L4T2A1.jpg","39","restless",0.6,0.5,0.3,0.547248512419813,"false"
"image-keyboard-response",426,371012,"0.0-3.138-1.138","xd06oaz2xzcha2t",121,"163.csv","","null","resources/maskTrios/BBA1.jpg","null","",NA,NA,NA,NA,""
"image-keyboard-response",427,372219,"0.0-3.138-2.138","xd06oaz2xzcha2t",121,"163.csv","","null","resources/images/fishbone.png","null","",NA,NA,NA,NA,""
"image-keyboard-response",428,372982,"0.0-3.139-0.139","xd06oaz2xzcha2t",121,"163.csv","","761","resources/trios/L2T4A1.jpg","37","restless",0.6,0.5,0.3,0.187740131593295,"true"
"image-keyboard-response",429,373390,"0.0-3.139-1.139","xd06oaz2xzcha2t",121,"163.csv","","null","resources/maskTrios/L2BB.jpg","null","",NA,NA,NA,NA,""
"image-keyboard-response",430,374596,"0.0-3.139-2.139","xd06oaz2xzcha2t",121,"163.csv","","null","resources/images/coin2.png","null","",NA,NA,NA,NA,""
"image-keyboard-response",431,375373,"0.0-3.140-0.140","xd06oaz2xzcha2t",121,"163.csv","","775.1000000238419","resources/trios/L2T4A3.jpg","37","restless",0.6,0.5,0.3,0.447359388004071,"true"
"image-keyboard-response",432,375778,"0.0-3.140-1.140","xd06oaz2xzcha2t",121,"163.csv","","null","resources/maskTrios/L2BB.jpg","null","",NA,NA,NA,NA,""
"image-keyboard-response",433,376985,"0.0-3.140-2.140","xd06oaz2xzcha2t",121,"163.csv","","null","resources/images/coin2.png","null","",NA,NA,NA,NA,""
"image-keyboard-response",434,377907,"0.0-3.141-0.141","xd06oaz2xzcha2t",121,"163.csv","","919.8000000715256","resources/trios/L2T2A3.jpg","37","restless",0.6,0.5,0.3,0.743880305899826,"false"
"image-keyboard-response",435,378316,"0.0-3.141-1.141","xd06oaz2xzcha2t",121,"163.csv","","null","resources/maskTrios/L2BB.jpg","null","",NA,NA,NA,NA,""
"image-keyboard-response",436,379518,"0.0-3.141-2.141","xd06oaz2xzcha2t",121,"163.csv","","null","resources/images/fishbone.png","null","",NA,NA,NA,NA,""
"image-keyboard-response",437,380107,"0.0-3.142-0.142","xd06oaz2xzcha2t",121,"163.csv","","587","resources/trios/L4T4A3.jpg","38","restless",0.6,0.5,0.3,0.993573439424697,"false"
"image-keyboard-response",438,380515,"0.0-3.142-1.142","xd06oaz2xzcha2t",121,"163.csv","","null","resources/maskTrios/BT4B.jpg","null","",NA,NA,NA,NA,""
"image-keyboard-response",439,381718,"0.0-3.142-2.142","xd06oaz2xzcha2t",121,"163.csv","","null","resources/images/fishbone.png","null","",NA,NA,NA,NA,""
"image-keyboard-response",440,382045,"0.0-3.143-0.143","xd06oaz2xzcha2t",121,"163.csv","","325.2000000476837","resources/trios/L2T2A1.jpg","39","restless",0.6,0.5,0.3,0.587269162637408,"false"
"image-keyboard-response",441,382448,"0.0-3.143-1.143","xd06oaz2xzcha2t",121,"163.csv","","null","resources/maskTrios/BBA1.jpg","null","",NA,NA,NA,NA,""
"image-keyboard-response",442,383655,"0.0-3.143-2.143","xd06oaz2xzcha2t",121,"163.csv","","null","resources/images/fishbone.png","null","",NA,NA,NA,NA,""
"image-keyboard-response",443,384226,"0.0-3.144-0.144","xd06oaz2xzcha2t",121,"163.csv","","568.7999999523163","resources/trios/L2T4A3.jpg","37","restless",0.6,0.5,0.3,0.695530888755425,"false"
"image-keyboard-response",444,384632,"0.0-3.144-1.144","xd06oaz2xzcha2t",121,"163.csv","","null","resources/maskTrios/L2BB.jpg","null","",NA,NA,NA,NA,""
"image-keyboard-response",445,385836,"0.0-3.144-2.144","xd06oaz2xzcha2t",121,"163.csv","","null","resources/images/fishbone.png","null","",NA,NA,NA,NA,""
"image-keyboard-response",446,386185,"0.0-3.145-0.145","xd06oaz2xzcha2t",121,"163.csv","","347.2999999523163","resources/trios/L2T4A1.jpg","38","restless",0.6,0.5,0.3,0.670850382875111,"false"
"image-keyboard-response",447,386589,"0.0-3.145-1.145","xd06oaz2xzcha2t",121,"163.csv","","null","resources/maskTrios/BT4B.jpg","null","",NA,NA,NA,NA,""
"image-keyboard-response",448,387796,"0.0-3.145-2.145","xd06oaz2xzcha2t",121,"163.csv","","null","resources/images/fishbone.png","null","",NA,NA,NA,NA,""
"image-keyboard-response",449,388188,"0.0-3.146-0.146","xd06oaz2xzcha2t",121,"163.csv","","389.7999999523163","resources/trios/L2T2A1.jpg","38","restless",0.6,0.5,0.3,0.0208311165769119,"true"
"image-keyboard-response",450,388594,"0.0-3.146-1.146","xd06oaz2xzcha2t",121,"163.csv","","null","resources/maskTrios/BT2B.jpg","null","",NA,NA,NA,NA,""
"image-keyboard-response",451,389797,"0.0-3.146-2.146","xd06oaz2xzcha2t",121,"163.csv","","null","resources/images/coin2.png","null","",NA,NA,NA,NA,""
"image-keyboard-response",452,390179,"0.0-3.147-0.147","xd06oaz2xzcha2t",121,"163.csv","","380","resources/trios/L4T4A3.jpg","37","restless",0.6,0.5,0.3,0.542496421316484,"true"
"image-keyboard-response",453,390586,"0.0-3.147-1.147","xd06oaz2xzcha2t",121,"163.csv","","null","resources/maskTrios/L4BB.jpg","null","",NA,NA,NA,NA,""
"image-keyboard-response",454,391788,"0.0-3.147-2.147","xd06oaz2xzcha2t",121,"163.csv","","null","resources/images/coin2.png","null","",NA,NA,NA,NA,""
"image-keyboard-response",455,392150,"0.0-3.148-0.148","xd06oaz2xzcha2t",121,"163.csv","","360.7000000476837","resources/trios/L2T2A1.jpg","37","restless",0.6,0.5,0.3,0.580649222179434,"true"
"image-keyboard-response",456,392555,"0.0-3.148-1.148","xd06oaz2xzcha2t",121,"163.csv","","null","resources/maskTrios/L2BB.jpg","null","",NA,NA,NA,NA,""
"image-keyboard-response",457,393759,"0.0-3.148-2.148","xd06oaz2xzcha2t",121,"163.csv","","null","resources/images/coin2.png","null","",NA,NA,NA,NA,""
"image-keyboard-response",458,394230,"0.0-3.149-0.149","xd06oaz2xzcha2t",121,"163.csv","","469.7000000476837","resources/trios/L4T4A1.jpg","37","restless",0.6,0.5,0.4,0.677175207759698,"false"
"image-keyboard-response",459,394636,"0.0-3.149-1.149","xd06oaz2xzcha2t",121,"163.csv","","null","resources/maskTrios/L4BB.jpg","null","",NA,NA,NA,NA,""
"image-keyboard-response",460,395838,"0.0-3.149-2.149","xd06oaz2xzcha2t",121,"163.csv","","null","resources/images/fishbone.png","null","",NA,NA,NA,NA,""
"image-keyboard-response",461,396269,"0.0-3.150-0.150","xd06oaz2xzcha2t",121,"163.csv","","428.60000002384186","resources/trios/L4T2A3.jpg","38","restless",0.6,0.5,0.4,0.844645914133221,"false"
"image-keyboard-response",462,396671,"0.0-3.150-1.150","xd06oaz2xzcha2t",121,"163.csv","","null","resources/maskTrios/BT2B.jpg","null","",NA,NA,NA,NA,""
"image-keyboard-response",463,397872,"0.0-3.150-2.150","xd06oaz2xzcha2t",121,"163.csv","","null","resources/images/fishbone.png","null","",NA,NA,NA,NA,""
"image-keyboard-response",464,398288,"0.0-3.151-0.151","xd06oaz2xzcha2t",121,"163.csv","","413.7000000476837","resources/trios/L4T4A1.jpg","39","restless",0.6,0.5,0.4,0.208909581062789,"true"
"image-keyboard-response",465,398690,"0.0-3.151-1.151","xd06oaz2xzcha2t",121,"163.csv","","null","resources/maskTrios/BBA1.jpg","null","",NA,NA,NA,NA,""
"image-keyboard-response",466,399893,"0.0-3.151-2.151","xd06oaz2xzcha2t",121,"163.csv","","null","resources/images/coin2.png","null","",NA,NA,NA,NA,""
"image-keyboard-response",467,400419,"0.0-3.152-0.152","xd06oaz2xzcha2t",121,"163.csv","","524","resources/trios/L4T4A3.jpg","39","restless",0.6,0.5,0.4,0.181353015160439,"true"
"image-keyboard-response",468,400822,"0.0-3.152-1.152","xd06oaz2xzcha2t",121,"163.csv","","null","resources/maskTrios/BBA3.jpg","null","",NA,NA,NA,NA,""
"image-keyboard-response",469,402030,"0.0-3.152-2.152","xd06oaz2xzcha2t",121,"163.csv","","null","resources/images/coin2.png","null","",NA,NA,NA,NA,""
"image-keyboard-response",470,402865,"0.0-3.153-0.153","xd06oaz2xzcha2t",121,"163.csv","","833.3000000715256","resources/trios/L4T4A3.jpg","39","restless",0.6,0.5,0.4,0.393768079199071,"true"
"image-keyboard-response",471,403271,"0.0-3.153-1.153","xd06oaz2xzcha2t",121,"163.csv","","null","resources/maskTrios/BBA3.jpg","null","",NA,NA,NA,NA,""
"image-keyboard-response",472,404473,"0.0-3.153-2.153","xd06oaz2xzcha2t",121,"163.csv","","null","resources/images/coin2.png","null","",NA,NA,NA,NA,""
"image-keyboard-response",473,405947,"0.0-3.154-0.154","xd06oaz2xzcha2t",121,"163.csv","","1472.3999999761581","resources/trios/L2T4A3.jpg","39","restless",0.6,0.5,0.4,0.69842601788965,"false"
"image-keyboard-response",474,406351,"0.0-3.154-1.154","xd06oaz2xzcha2t",121,"163.csv","","null","resources/maskTrios/BBA3.jpg","null","",NA,NA,NA,NA,""
"image-keyboard-response",475,407553,"0.0-3.154-2.154","xd06oaz2xzcha2t",121,"163.csv","","null","resources/images/fishbone.png","null","",NA,NA,NA,NA,""
"image-keyboard-response",476,407987,"0.0-3.155-0.155","xd06oaz2xzcha2t",121,"163.csv","","432.39999997615814","resources/trios/L4T2A1.jpg","37","restless",0.6,0.5,0.3,0.00800759420009745,"true"
"image-keyboard-response",477,408394,"0.0-3.155-1.155","xd06oaz2xzcha2t",121,"163.csv","","null","resources/maskTrios/L4BB.jpg","null","",NA,NA,NA,NA,""
"image-keyboard-response",478,409598,"0.0-3.155-2.155","xd06oaz2xzcha2t",121,"163.csv","","null","resources/images/coin2.png","null","",NA,NA,NA,NA,""
"image-keyboard-response",479,410036,"0.0-3.156-0.156","xd06oaz2xzcha2t",121,"163.csv","","436","resources/trios/L4T4A1.jpg","37","restless",0.6,0.5,0.3,0.0088786374749803,"true"
"image-keyboard-response",480,410443,"0.0-3.156-1.156","xd06oaz2xzcha2t",121,"163.csv","","null","resources/maskTrios/L4BB.jpg","null","",NA,NA,NA,NA,""
"image-keyboard-response",481,411645,"0.0-3.156-2.156","xd06oaz2xzcha2t",121,"163.csv","","null","resources/images/coin2.png","null","",NA,NA,NA,NA,""
"image-keyboard-response",482,412069,"0.0-3.157-0.157","xd06oaz2xzcha2t",121,"163.csv","","422.10000002384186","resources/trios/L2T4A1.jpg","37","restless",0.6,0.5,0.3,0.310623373524612,"true"
"image-keyboard-response",483,412472,"0.0-3.157-1.157","xd06oaz2xzcha2t",121,"163.csv","","null","resources/maskTrios/L2BB.jpg","null","",NA,NA,NA,NA,""
"image-keyboard-response",484,413681,"0.0-3.157-2.157","xd06oaz2xzcha2t",121,"163.csv","","null","resources/images/coin2.png","null","",NA,NA,NA,NA,""
"image-keyboard-response",485,415092,"0.0-3.158-0.158","xd06oaz2xzcha2t",121,"163.csv","","1409.6000000238419","resources/trios/L4T2A1.jpg","37","restless",0.6,0.5,0.3,0.153692640118115,"true"
"image-keyboard-response",486,415494,"0.0-3.158-1.158","xd06oaz2xzcha2t",121,"163.csv","","null","resources/maskTrios/L4BB.jpg","null","",NA,NA,NA,NA,""
"image-keyboard-response",487,416703,"0.0-3.158-2.158","xd06oaz2xzcha2t",121,"163.csv","","null","resources/images/coin2.png","null","",NA,NA,NA,NA,""
"image-keyboard-response",488,418109,"0.0-3.159-0.159","xd06oaz2xzcha2t",121,"163.csv","","1404.3000000715256","resources/trios/L2T2A3.jpg","37","restless",0.6,0.5,0.4,0.668688303067811,"false"
"image-keyboard-response",489,418515,"0.0-3.159-1.159","xd06oaz2xzcha2t",121,"163.csv","","null","resources/maskTrios/L2BB.jpg","null","",NA,NA,NA,NA,""
"image-keyboard-response",490,419720,"0.0-3.159-2.159","xd06oaz2xzcha2t",121,"163.csv","","null","resources/images/fishbone.png","null","",NA,NA,NA,NA,""
"image-keyboard-response",491,420319,"0.0-3.160-0.160","xd06oaz2xzcha2t",121,"163.csv","","597","resources/trios/L4T4A3.jpg","38","restless",0.6,0.5,0.4,0.357806885742706,"true"
"image-keyboard-response",492,420720,"0.0-3.160-1.160","xd06oaz2xzcha2t",121,"163.csv","","null","resources/maskTrios/BT4B.jpg","null","",NA,NA,NA,NA,""
"image-keyboard-response",493,421928,"0.0-3.160-2.160","xd06oaz2xzcha2t",121,"163.csv","","null","resources/images/coin2.png","null","",NA,NA,NA,NA,""
"image-keyboard-response",494,423005,"0.0-3.161-0.161","xd06oaz2xzcha2t",121,"163.csv","","1075.1000000238419","resources/trios/L4T2A3.jpg","38","restless",0.6,0.5,0.4,0.316885002144019,"true"
"image-keyboard-response",495,423411,"0.0-3.161-1.161","xd06oaz2xzcha2t",121,"163.csv","","null","resources/maskTrios/BT2B.jpg","null","",NA,NA,NA,NA,""
"image-keyboard-response",496,424619,"0.0-3.161-2.161","xd06oaz2xzcha2t",121,"163.csv","","null","resources/images/coin2.png","null","",NA,NA,NA,NA,""
"image-keyboard-response",497,425144,"0.0-3.162-0.162","xd06oaz2xzcha2t",121,"163.csv","","523.3999999761581","resources/trios/L4T4A3.jpg","38","restless",0.6,0.5,0.4,0.287003313897059,"true"
"image-keyboard-response",498,425546,"0.0-3.162-1.162","xd06oaz2xzcha2t",121,"163.csv","","null","resources/maskTrios/BT4B.jpg","null","",NA,NA,NA,NA,""
"image-keyboard-response",499,426751,"0.0-3.162-2.162","xd06oaz2xzcha2t",121,"163.csv","","null","resources/images/coin2.png","null","",NA,NA,NA,NA,""
"image-keyboard-response",500,427115,"0.0-3.163-0.163","xd06oaz2xzcha2t",121,"163.csv","","361.7000000476837","resources/trios/L4T2A1.jpg","38","restless",0.5,0.5,0.4,0.950294077521891,"false"
"image-keyboard-response",501,427519,"0.0-3.163-1.163","xd06oaz2xzcha2t",121,"163.csv","","null","resources/maskTrios/BT2B.jpg","null","",NA,NA,NA,NA,""
"image-keyboard-response",502,428726,"0.0-3.163-2.163","xd06oaz2xzcha2t",121,"163.csv","","null","resources/images/fishbone.png","null","",NA,NA,NA,NA,""
"image-keyboard-response",503,429083,"0.0-3.164-0.164","xd06oaz2xzcha2t",121,"163.csv","","355.60000002384186","resources/trios/L4T2A1.jpg","39","restless",0.5,0.4,0.4,0.278632345154768,"true"
"image-keyboard-response",504,429489,"0.0-3.164-1.164","xd06oaz2xzcha2t",121,"163.csv","","null","resources/maskTrios/BBA1.jpg","null","",NA,NA,NA,NA,""
"image-keyboard-response",505,430696,"0.0-3.164-2.164","xd06oaz2xzcha2t",121,"163.csv","","null","resources/images/coin2.png","null","",NA,NA,NA,NA,""
"image-keyboard-response",506,431097,"0.0-3.165-0.165","xd06oaz2xzcha2t",121,"163.csv","","398.89999997615814","resources/trios/L2T2A1.jpg","39","restless",0.5,0.4,0.4,0.390080997634168,"true"
"image-keyboard-response",507,431504,"0.0-3.165-1.165","xd06oaz2xzcha2t",121,"163.csv","","null","resources/maskTrios/BBA1.jpg","null","",NA,NA,NA,NA,""
"image-keyboard-response",508,432706,"0.0-3.165-2.165","xd06oaz2xzcha2t",121,"163.csv","","null","resources/images/coin2.png","null","",NA,NA,NA,NA,""
"image-keyboard-response",509,433202,"0.0-3.166-0.166","xd06oaz2xzcha2t",121,"163.csv","","494.59999990463257","resources/trios/L4T2A1.jpg","39","restless",0.5,0.3,0.5,0.547444322836476,"false"
"image-keyboard-response",510,433612,"0.0-3.166-1.166","xd06oaz2xzcha2t",121,"163.csv","","null","resources/maskTrios/BBA1.jpg","null","",NA,NA,NA,NA,""
"image-keyboard-response",511,434821,"0.0-3.166-2.166","xd06oaz2xzcha2t",121,"163.csv","","null","resources/images/fishbone.png","null","",NA,NA,NA,NA,""
"image-keyboard-response",512,435197,"0.0-3.167-0.167","xd06oaz2xzcha2t",121,"163.csv","","374.2000000476837","resources/trios/L4T4A1.jpg","37","restless",0.5,0.3,0.5,0.718857926795374,"false"
"image-keyboard-response",513,435603,"0.0-3.167-1.167","xd06oaz2xzcha2t",121,"163.csv","","null","resources/maskTrios/L4BB.jpg","null","",NA,NA,NA,NA,""
"image-keyboard-response",514,436810,"0.0-3.167-2.167","xd06oaz2xzcha2t",121,"163.csv","","null","resources/images/fishbone.png","null","",NA,NA,NA,NA,""
"image-keyboard-response",515,437108,"0.0-3.168-0.168","xd06oaz2xzcha2t",121,"163.csv","","296.39999997615814","resources/trios/L4T2A1.jpg","38","restless",0.5,0.3,0.5,0.796331683967869,"false"
"image-keyboard-response",516,437512,"0.0-3.168-1.168","xd06oaz2xzcha2t",121,"163.csv","","null","resources/maskTrios/BT2B.jpg","null","",NA,NA,NA,NA,""
"image-keyboard-response",517,438714,"0.0-3.168-2.168","xd06oaz2xzcha2t",121,"163.csv","","null","resources/images/fishbone.png","null","",NA,NA,NA,NA,""
"image-keyboard-response",518,438966,"0.0-3.169-0.169","xd06oaz2xzcha2t",121,"163.csv","","249.70000004768372","resources/trios/L2T4A1.jpg","39","restless",0.5,0.4,0.5,0.196261062393764,"true"
"image-keyboard-response",519,439367,"0.0-3.169-1.169","xd06oaz2xzcha2t",121,"163.csv","","null","resources/maskTrios/BBA1.jpg","null","",NA,NA,NA,NA,""
"image-keyboard-response",520,440571,"0.0-3.169-2.169","xd06oaz2xzcha2t",121,"163.csv","","null","resources/images/coin2.png","null","",NA,NA,NA,NA,""
"image-keyboard-response",521,441865,"0.0-3.170-0.170","xd06oaz2xzcha2t",121,"163.csv","","1292.6000000238419","resources/trios/L4T4A1.jpg","39","restless",0.5,0.4,0.5,0.690904014117256,"false"
"image-keyboard-response",522,442268,"0.0-3.170-1.170","xd06oaz2xzcha2t",121,"163.csv","","null","resources/maskTrios/BBA1.jpg","null","",NA,NA,NA,NA,""
"image-keyboard-response",523,443473,"0.0-3.170-2.170","xd06oaz2xzcha2t",121,"163.csv","","null","resources/images/fishbone.png","null","",NA,NA,NA,NA,""
"image-keyboard-response",524,443809,"0.0-3.171-0.171","xd06oaz2xzcha2t",121,"163.csv","","334.7999999523163","resources/trios/L4T2A1.jpg","37","restless",0.5,0.4,0.5,0.677567978806064,"false"
"image-keyboard-response",525,444214,"0.0-3.171-1.171","xd06oaz2xzcha2t",121,"163.csv","","null","resources/maskTrios/L4BB.jpg","null","",NA,NA,NA,NA,""
"image-keyboard-response",526,445418,"0.0-3.171-2.171","xd06oaz2xzcha2t",121,"163.csv","","null","resources/images/fishbone.png","null","",NA,NA,NA,NA,""
"image-keyboard-response",527,445948,"0.0-3.172-0.172","xd06oaz2xzcha2t",121,"163.csv","","528.5","resources/trios/L2T2A3.jpg","38","restless",0.5,0.4,0.5,0.532030668389633,"false"
"image-keyboard-response",528,446351,"0.0-3.172-1.172","xd06oaz2xzcha2t",121,"163.csv","","null","resources/maskTrios/BT2B.jpg","null","",NA,NA,NA,NA,""
"image-keyboard-response",529,447560,"0.0-3.172-2.172","xd06oaz2xzcha2t",121,"163.csv","","null","resources/images/fishbone.png","null","",NA,NA,NA,NA,""
"image-keyboard-response",530,449693,"0.0-3.173-0.173","xd06oaz2xzcha2t",121,"163.csv","","2131.399999976158","resources/trios/L2T4A1.jpg","39","restless",0.5,0.4,0.5,0.184138215755085,"true"
"image-keyboard-response",531,450100,"0.0-3.173-1.173","xd06oaz2xzcha2t",121,"163.csv","","null","resources/maskTrios/BBA1.jpg","null","",NA,NA,NA,NA,""
"image-keyboard-response",532,451303,"0.0-3.173-2.173","xd06oaz2xzcha2t",121,"163.csv","","null","resources/images/coin2.png","null","",NA,NA,NA,NA,""
"image-keyboard-response",533,451805,"0.0-3.174-0.174","xd06oaz2xzcha2t",121,"163.csv","","499.7999999523163","resources/trios/L4T4A1.jpg","39","restless",0.6,0.4,0.5,0.970997289324219,"false"
"image-keyboard-response",534,452214,"0.0-3.174-1.174","xd06oaz2xzcha2t",121,"163.csv","","null","resources/maskTrios/BBA1.jpg","null","",NA,NA,NA,NA,""
"image-keyboard-response",535,453417,"0.0-3.174-2.174","xd06oaz2xzcha2t",121,"163.csv","","null","resources/images/fishbone.png","null","",NA,NA,NA,NA,""
"image-keyboard-response",536,454501,"0.0-3.175-0.175","xd06oaz2xzcha2t",121,"163.csv","","1081.6000000238419","resources/trios/L4T4A1.jpg","37","restless",0.6,0.4,0.6,0.975138595367927,"false"
"image-keyboard-response",537,454908,"0.0-3.175-1.175","xd06oaz2xzcha2t",121,"163.csv","","null","resources/maskTrios/L4BB.jpg","null","",NA,NA,NA,NA,""
"image-keyboard-response",538,456112,"0.0-3.175-2.175","xd06oaz2xzcha2t",121,"163.csv","","null","resources/images/fishbone.png","null","",NA,NA,NA,NA,""
"image-keyboard-response",539,456442,"0.0-3.176-0.176","xd06oaz2xzcha2t",121,"163.csv","","328.60000002384186","resources/trios/L2T2A1.jpg","38","restless",0.6,0.4,0.6,0.40540505984816,"false"
"image-keyboard-response",540,456849,"0.0-3.176-1.176","xd06oaz2xzcha2t",121,"163.csv","","null","resources/maskTrios/BT2B.jpg","null","",NA,NA,NA,NA,""
"image-keyboard-response",541,458053,"0.0-3.176-2.176","xd06oaz2xzcha2t",121,"163.csv","","null","resources/images/fishbone.png","null","",NA,NA,NA,NA,""
"image-keyboard-response",542,458357,"0.0-3.177-0.177","xd06oaz2xzcha2t",121,"163.csv","","302.40000009536743","resources/trios/L4T4A1.jpg","39","restless",0.6,0.4,0.6,0.243729373211747,"true"
"image-keyboard-response",543,458761,"0.0-3.177-1.177","xd06oaz2xzcha2t",121,"163.csv","","null","resources/maskTrios/BBA1.jpg","null","",NA,NA,NA,NA,""
"image-keyboard-response",544,459966,"0.0-3.177-2.177","xd06oaz2xzcha2t",121,"163.csv","","null","resources/images/coin2.png","null","",NA,NA,NA,NA,""
"image-keyboard-response",545,460937,"0.0-3.178-0.178","xd06oaz2xzcha2t",121,"163.csv","","969","resources/trios/L4T4A3.jpg","39","restless",0.6,0.4,0.6,0.787786442761956,"false"
"image-keyboard-response",546,461339,"0.0-3.178-1.178","xd06oaz2xzcha2t",121,"163.csv","","null","resources/maskTrios/BBA3.jpg","null","",NA,NA,NA,NA,""
"image-keyboard-response",547,462545,"0.0-3.178-2.178","xd06oaz2xzcha2t",121,"163.csv","","null","resources/images/fishbone.png","null","",NA,NA,NA,NA,""
"image-keyboard-response",548,463137,"0.0-3.179-0.179","xd06oaz2xzcha2t",121,"163.csv","","590.5","resources/trios/L2T4A1.jpg","37","restless",0.6,0.4,0.6,0.754243249334654,"false"
"image-keyboard-response",549,463540,"0.0-3.179-1.179","xd06oaz2xzcha2t",121,"163.csv","","null","resources/maskTrios/L2BB.jpg","null","",NA,NA,NA,NA,""
"image-keyboard-response",550,464749,"0.0-3.179-2.179","xd06oaz2xzcha2t",121,"163.csv","","null","resources/images/fishbone.png","null","",NA,NA,NA,NA,""
"image-keyboard-response",551,465179,"0.0-3.180-0.180","xd06oaz2xzcha2t",121,"163.csv","","428.5","resources/trios/L4T2A3.jpg","38","restless",0.6,0.4,0.6,0.609290268372472,"false"
"image-keyboard-response",552,465583,"0.0-3.180-1.180","xd06oaz2xzcha2t",121,"163.csv","","null","resources/maskTrios/BT2B.jpg","null","",NA,NA,NA,NA,""
"image-keyboard-response",553,466785,"0.0-3.180-2.180","xd06oaz2xzcha2t",121,"163.csv","","null","resources/images/fishbone.png","null","",NA,NA,NA,NA,""
"image-keyboard-response",554,468200,"0.0-3.181-0.181","xd06oaz2xzcha2t",121,"163.csv","","1413.7000000476837","resources/trios/L2T2A1.jpg","37","restless",0.6,0.4,0.7,0.529198608705951,"true"
"image-keyboard-response",555,468604,"0.0-3.181-1.181","xd06oaz2xzcha2t",121,"163.csv","","null","resources/maskTrios/L2BB.jpg","null","",NA,NA,NA,NA,""
"image-keyboard-response",556,469807,"0.0-3.181-2.181","xd06oaz2xzcha2t",121,"163.csv","","null","resources/images/coin2.png","null","",NA,NA,NA,NA,""
"image-keyboard-response",557,470581,"0.0-3.182-0.182","xd06oaz2xzcha2t",121,"163.csv","","772.7000000476837","resources/trios/L2T2A3.jpg","37","restless",0.6,0.3,0.7,0.147904769379113,"true"
"image-keyboard-response",558,470987,"0.0-3.182-1.182","xd06oaz2xzcha2t",121,"163.csv","","null","resources/maskTrios/L2BB.jpg","null","",NA,NA,NA,NA,""
"image-keyboard-response",559,472196,"0.0-3.182-2.182","xd06oaz2xzcha2t",121,"163.csv","","null","resources/images/coin2.png","null","",NA,NA,NA,NA,""
"image-keyboard-response",560,472990,"0.0-3.183-0.183","xd06oaz2xzcha2t",121,"163.csv","","791.5999999046326","resources/trios/L2T4A3.jpg","37","restless",0.6,0.3,0.7,0.917309292530825,"false"
"image-keyboard-response",561,473399,"0.0-3.183-1.183","xd06oaz2xzcha2t",121,"163.csv","","null","resources/maskTrios/L2BB.jpg","null","",NA,NA,NA,NA,""
"image-keyboard-response",562,474605,"0.0-3.183-2.183","xd06oaz2xzcha2t",121,"163.csv","","null","resources/images/fishbone.png","null","",NA,NA,NA,NA,""
"image-keyboard-response",563,475199,"0.0-3.184-0.184","xd06oaz2xzcha2t",121,"163.csv","","591.9000000953674","resources/trios/L4T2A3.jpg","39","restless",0.6,0.4,0.7,0.587621973701689,"true"
"image-keyboard-response",564,475604,"0.0-3.184-1.184","xd06oaz2xzcha2t",121,"163.csv","","null","resources/maskTrios/BBA3.jpg","null","",NA,NA,NA,NA,""
"image-keyboard-response",565,476810,"0.0-3.184-2.184","xd06oaz2xzcha2t",121,"163.csv","","null","resources/images/coin2.png","null","",NA,NA,NA,NA,""
"image-keyboard-response",566,478398,"0.0-3.185-0.185","xd06oaz2xzcha2t",121,"163.csv","","1585.7000000476837","resources/trios/L2T4A3.jpg","39","restless",0.6,0.4,0.7,0.0954290954151289,"true"
"image-keyboard-response",567,478806,"0.0-3.185-1.185","xd06oaz2xzcha2t",121,"163.csv","","null","resources/maskTrios/BBA3.jpg","null","",NA,NA,NA,NA,""
"image-keyboard-response",568,480016,"0.0-3.185-2.185","xd06oaz2xzcha2t",121,"163.csv","","null","resources/images/coin2.png","null","",NA,NA,NA,NA,""
"image-keyboard-response",569,480774,"0.0-3.186-0.186","xd06oaz2xzcha2t",121,"163.csv","","756.4000000953674","resources/trios/L4T2A3.jpg","39","restless",0.6,0.4,0.7,0.382686306919837,"true"
"image-keyboard-response",570,481182,"0.0-3.186-1.186","xd06oaz2xzcha2t",121,"163.csv","","null","resources/maskTrios/BBA3.jpg","null","",NA,NA,NA,NA,""
"image-keyboard-response",571,482388,"0.0-3.186-2.186","xd06oaz2xzcha2t",121,"163.csv","","null","resources/images/coin2.png","null","",NA,NA,NA,NA,""
"image-keyboard-response",572,483252,"0.0-3.187-0.187","xd06oaz2xzcha2t",121,"163.csv","","862","resources/trios/L4T4A1.jpg","39","restless",0.5,0.4,0.8,0.162782220335687,"true"
"image-keyboard-response",573,483661,"0.0-3.187-1.187","xd06oaz2xzcha2t",121,"163.csv","","null","resources/maskTrios/BBA1.jpg","null","",NA,NA,NA,NA,""
"image-keyboard-response",574,484865,"0.0-3.187-2.187","xd06oaz2xzcha2t",121,"163.csv","","null","resources/images/coin2.png","null","",NA,NA,NA,NA,""
"image-keyboard-response",575,486505,"0.0-3.188-0.188","xd06oaz2xzcha2t",121,"163.csv","","1637.3000000715256","resources/trios/L2T2A3.jpg","39","restless",0.5,0.4,0.8,0.259359832299952,"true"
"image-keyboard-response",576,486911,"0.0-3.188-1.188","xd06oaz2xzcha2t",121,"163.csv","","null","resources/maskTrios/BBA3.jpg","null","",NA,NA,NA,NA,""
"image-keyboard-response",577,488115,"0.0-3.188-2.188","xd06oaz2xzcha2t",121,"163.csv","","null","resources/images/coin2.png","null","",NA,NA,NA,NA,""
"image-keyboard-response",578,490194,"0.0-3.189-0.189","xd06oaz2xzcha2t",121,"163.csv","","2077.100000023842","resources/trios/L4T4A3.jpg","39","restless",0.4,0.4,0.8,0.144059561200244,"true"
"image-keyboard-response",579,490598,"0.0-3.189-1.189","xd06oaz2xzcha2t",121,"163.csv","","null","resources/maskTrios/BBA3.jpg","null","",NA,NA,NA,NA,""
"image-keyboard-response",580,491801,"0.0-3.189-2.189","xd06oaz2xzcha2t",121,"163.csv","","null","resources/images/coin2.png","null","",NA,NA,NA,NA,""
"image-keyboard-response",581,493600,"0.0-3.190-0.190","xd06oaz2xzcha2t",121,"163.csv","","1797.1000000238419","resources/trios/L4T2A3.jpg","39","restless",0.4,0.4,0.8,0.747774428291099,"true"
"image-keyboard-response",582,494006,"0.0-3.190-1.190","xd06oaz2xzcha2t",121,"163.csv","","null","resources/maskTrios/BBA3.jpg","null","",NA,NA,NA,NA,""
"image-keyboard-response",583,495213,"0.0-3.190-2.190","xd06oaz2xzcha2t",121,"163.csv","","null","resources/images/coin2.png","null","",NA,NA,NA,NA,""
"image-keyboard-response",584,497184,"0.0-3.191-0.191","xd06oaz2xzcha2t",121,"163.csv","","1968.9000000953674","resources/trios/L2T2A1.jpg","39","restless",0.4,0.4,0.8,0.207151679643301,"true"
"image-keyboard-response",585,497586,"0.0-3.191-1.191","xd06oaz2xzcha2t",121,"163.csv","","null","resources/maskTrios/BBA1.jpg","null","",NA,NA,NA,NA,""
"image-keyboard-response",586,498794,"0.0-3.191-2.191","xd06oaz2xzcha2t",121,"163.csv","","null","resources/images/coin2.png","null","",NA,NA,NA,NA,""
"image-keyboard-response",587,499467,"0.0-3.192-0.192","xd06oaz2xzcha2t",121,"163.csv","","670.5","resources/trios/L2T4A1.jpg","39","restless",0.4,0.4,0.8,0.114140014640171,"true"
"image-keyboard-response",588,499873,"0.0-3.192-1.192","xd06oaz2xzcha2t",121,"163.csv","","null","resources/maskTrios/BBA1.jpg","null","",NA,NA,NA,NA,""
"image-keyboard-response",589,501082,"0.0-3.192-2.192","xd06oaz2xzcha2t",121,"163.csv","","null","resources/images/coin2.png","null","",NA,NA,NA,NA,""
"image-keyboard-response",590,501699,"0.0-3.193-0.193","xd06oaz2xzcha2t",121,"163.csv","","614.8999999761581","resources/trios/L4T2A1.jpg","39","restless",0.4,0.4,0.9,0.726105396101486,"true"
"image-keyboard-response",591,502104,"0.0-3.193-1.193","xd06oaz2xzcha2t",121,"163.csv","","null","resources/maskTrios/BBA1.jpg","null","",NA,NA,NA,NA,""
"image-keyboard-response",592,503310,"0.0-3.193-2.193","xd06oaz2xzcha2t",121,"163.csv","","null","resources/images/coin2.png","null","",NA,NA,NA,NA,""
"image-keyboard-response",593,503703,"0.0-3.194-0.194","xd06oaz2xzcha2t",121,"163.csv","","390.3000000715256","resources/trios/L4T4A1.jpg","39","restless",0.4,0.4,0.9,0.406918255282578,"true"
"image-keyboard-response",594,504109,"0.0-3.194-1.194","xd06oaz2xzcha2t",121,"163.csv","","null","resources/maskTrios/BBA1.jpg","null","",NA,NA,NA,NA,""
"image-keyboard-response",595,505312,"0.0-3.194-2.194","xd06oaz2xzcha2t",121,"163.csv","","null","resources/images/coin2.png","null","",NA,NA,NA,NA,""
"image-keyboard-response",596,505655,"0.0-3.195-0.195","xd06oaz2xzcha2t",121,"163.csv","","341.39999997615814","resources/trios/L4T4A3.jpg","39","restless",0.4,0.4,0.9,0.377954758885374,"true"
"image-keyboard-response",597,506057,"0.0-3.195-1.195","xd06oaz2xzcha2t",121,"163.csv","","null","resources/maskTrios/BBA3.jpg","null","",NA,NA,NA,NA,""
"image-keyboard-response",598,507262,"0.0-3.195-2.195","xd06oaz2xzcha2t",121,"163.csv","","null","resources/images/coin2.png","null","",NA,NA,NA,NA,""
"image-keyboard-response",599,507648,"0.0-3.196-0.196","xd06oaz2xzcha2t",121,"163.csv","","383.7000000476837","resources/trios/L4T4A3.jpg","39","restless",0.4,0.4,0.9,0.585844836766542,"true"
"image-keyboard-response",600,508053,"0.0-3.196-1.196","xd06oaz2xzcha2t",121,"163.csv","","null","resources/maskTrios/BBA3.jpg","null","",NA,NA,NA,NA,""
"image-keyboard-response",601,509260,"0.0-3.196-2.196","xd06oaz2xzcha2t",121,"163.csv","","null","resources/images/coin2.png","null","",NA,NA,NA,NA,""
"image-keyboard-response",602,509883,"0.0-3.197-0.197","xd06oaz2xzcha2t",121,"163.csv","","620.5","resources/trios/L4T2A3.jpg","39","restless",0.4,0.3,0.8,0.021398141925393,"true"
"image-keyboard-response",603,510286,"0.0-3.197-1.197","xd06oaz2xzcha2t",121,"163.csv","","null","resources/maskTrios/BBA3.jpg","null","",NA,NA,NA,NA,""
"image-keyboard-response",604,511495,"0.0-3.197-2.197","xd06oaz2xzcha2t",121,"163.csv","","null","resources/images/coin2.png","null","",NA,NA,NA,NA,""
"image-keyboard-response",605,512651,"0.0-3.198-0.198","xd06oaz2xzcha2t",121,"163.csv","","1153.6000000238419","resources/trios/L2T2A3.jpg","39","restless",0.4,0.2,0.7,0.746026186685195,"false"
"image-keyboard-response",606,513059,"0.0-3.198-1.198","xd06oaz2xzcha2t",121,"163.csv","","null","resources/maskTrios/BBA3.jpg","null","",NA,NA,NA,NA,""
