"trial_type","trial_index","time_elapsed","internal_node_id","subject","participantCode","walkNumber","success","rt","stimulus","key_press","test_part","leftProb","midProb","rightProb","generatedNum","correct"
"pavlovia",0,1287,"0.0-0.0","6rufc2lcx3w072l",514,"117.csv","","","","","",NA,NA,NA,NA,""
"fullscreen",1,6263,"0.0-1.0","6rufc2lcx3w072l",514,"117.csv","true","","","","",NA,NA,NA,NA,""
"html-keyboard-response",2,45579,"0.0-2.0-0.0","6rufc2lcx3w072l",514,"117.csv","","39315","<p><font size='6'>Arrrgh!</p></font><p>Can you be the best pirate? Try to find lots of gold! But beware, some islands have more gold than others, and over time, the island with the most gold may change. Can YOU figure it out? </p><font size='6'>GOOD LUCK, CAPTAIN!!!</font><p>Press any key to begin</p>","32","",NA,NA,NA,NA,""
"image-keyboard-response",3,48582,"0.0-2.0-1.0","6rufc2lcx3w072l",514,"117.csv","","null","resources/image_sets/111.png","null","",NA,NA,NA,NA,""
"image-keyboard-response",4,68685,"0.0-2.0-2.0","6rufc2lcx3w072l",514,"117.csv","","20102","resources/image_sets/left_highlight.png","37","",NA,NA,NA,NA,""
"image-keyboard-response",5,72621,"0.0-2.0-3.0","6rufc2lcx3w072l",514,"117.csv","","3934.0000000000146","resources/image_sets/mid_highlight.png","38","",NA,NA,NA,NA,""
"image-keyboard-response",6,73673,"0.0-2.0-4.0","6rufc2lcx3w072l",514,"117.csv","","1050","resources/image_sets/right_highlight.png","39","",NA,NA,NA,NA,""
"image-keyboard-response",7,77799,"0.0-2.0-5.0","6rufc2lcx3w072l",514,"117.csv","","4125","resources/image_sets/111.png","13","",NA,NA,NA,NA,""
"image-keyboard-response",8,81300,"0.0-2.0-6.0","6rufc2lcx3w072l",514,"117.csv","","3499","resources/images/coin2.png","13","",NA,NA,NA,NA,""
"image-keyboard-response",9,83423,"0.0-2.0-7.0","6rufc2lcx3w072l",514,"117.csv","","2121","resources/images/fishbone.png","13","",NA,NA,NA,NA,""
"html-keyboard-response",10,100593,"0.0-2.0-8.0","6rufc2lcx3w072l",514,"117.csv","","17169","<p>Your first journey will be a long one, but you will get a well deserved break at the end</p><p>After the break you will have four more journeys, but each will be much shorter than the first, and you will have breaks in between each</p><p>Press Enter to begin</p>","13","",NA,NA,NA,NA,""
"image-keyboard-response",11,103387,"0.0-3.0-0.0","6rufc2lcx3w072l",514,"117.csv","","2792","resources/trios/L4T4A2.jpg","38","restless",0.7,0.3,0.9,0.783299554932573,"false"
"image-keyboard-response",12,103792,"0.0-3.0-1.0","6rufc2lcx3w072l",514,"117.csv","","null","resources/maskTrios/BT4B.jpg","null","",NA,NA,NA,NA,""
"image-keyboard-response",13,104996,"0.0-3.0-2.0","6rufc2lcx3w072l",514,"117.csv","","null","resources/images/fishbone.png","null","",NA,NA,NA,NA,""
"image-keyboard-response",14,107214,"0.0-3.1-0.1","6rufc2lcx3w072l",514,"117.csv","","2215","resources/trios/L1T4A3.jpg","38","restless",0.7,0.2,0.9,0.400857719461089,"false"
"image-keyboard-response",15,107618,"0.0-3.1-1.1","6rufc2lcx3w072l",514,"117.csv","","null","resources/maskTrios/BT4B.jpg","null","",NA,NA,NA,NA,""
"image-keyboard-response",16,108821,"0.0-3.1-2.1","6rufc2lcx3w072l",514,"117.csv","","null","resources/images/fishbone.png","null","",NA,NA,NA,NA,""
"image-keyboard-response",17,111956,"0.0-3.2-0.2","6rufc2lcx3w072l",514,"117.csv","","3132","resources/trios/L4T1A2.jpg","38","restless",0.7,0.2,0.9,0.632773669521391,"false"
"image-keyboard-response",18,112359,"0.0-3.2-1.2","6rufc2lcx3w072l",514,"117.csv","","null","resources/maskTrios/BT1B.jpg","null","",NA,NA,NA,NA,""
"image-keyboard-response",19,113562,"0.0-3.2-2.2","6rufc2lcx3w072l",514,"117.csv","","null","resources/images/fishbone.png","null","",NA,NA,NA,NA,""
"image-keyboard-response",20,115583,"0.0-3.3-0.3","6rufc2lcx3w072l",514,"117.csv","","2020","resources/trios/L1T4A3.jpg","37","restless",0.7,0.2,0.9,0.27998829241828,"true"
"image-keyboard-response",21,115987,"0.0-3.3-1.3","6rufc2lcx3w072l",514,"117.csv","","null","resources/maskTrios/L1BB.jpg","null","",NA,NA,NA,NA,""
"image-keyboard-response",22,117191,"0.0-3.3-2.3","6rufc2lcx3w072l",514,"117.csv","","null","resources/images/coin2.png","null","",NA,NA,NA,NA,""
"image-keyboard-response",23,117742,"0.0-3.4-0.4","6rufc2lcx3w072l",514,"117.csv","","549","resources/trios/L1T4A2.jpg","37","restless",0.7,0.2,0.9,0.394458385956829,"true"
"image-keyboard-response",24,118146,"0.0-3.4-1.4","6rufc2lcx3w072l",514,"117.csv","","null","resources/maskTrios/L1BB.jpg","null","",NA,NA,NA,NA,""
"image-keyboard-response",25,119349,"0.0-3.4-2.4","6rufc2lcx3w072l",514,"117.csv","","null","resources/images/coin2.png","null","",NA,NA,NA,NA,""
"image-keyboard-response",26,119783,"0.0-3.5-0.5","6rufc2lcx3w072l",514,"117.csv","","432.00000000001455","resources/trios/L4T4A2.jpg","37","restless",0.7,0.2,0.9,0.0765896148996336,"true"
"image-keyboard-response",27,120186,"0.0-3.5-1.5","6rufc2lcx3w072l",514,"117.csv","","null","resources/maskTrios/L4BB.jpg","null","",NA,NA,NA,NA,""
"image-keyboard-response",28,121390,"0.0-3.5-2.5","6rufc2lcx3w072l",514,"117.csv","","null","resources/images/coin2.png","null","",NA,NA,NA,NA,""
"image-keyboard-response",29,121860,"0.0-3.6-0.6","6rufc2lcx3w072l",514,"117.csv","","468","resources/trios/L4T1A2.jpg","37","restless",0.7,0.3,0.9,0.682474769673373,"true"
"image-keyboard-response",30,122264,"0.0-3.6-1.6","6rufc2lcx3w072l",514,"117.csv","","null","resources/maskTrios/L4BB.jpg","null","",NA,NA,NA,NA,""
"image-keyboard-response",31,123466,"0.0-3.6-2.6","6rufc2lcx3w072l",514,"117.csv","","null","resources/images/coin2.png","null","",NA,NA,NA,NA,""
"image-keyboard-response",32,124285,"0.0-3.7-0.7","6rufc2lcx3w072l",514,"117.csv","","816","resources/trios/L1T1A3.jpg","37","restless",0.7,0.3,0.9,0.7749129953632,"false"
"image-keyboard-response",33,124689,"0.0-3.7-1.7","6rufc2lcx3w072l",514,"117.csv","","null","resources/maskTrios/L1BB.jpg","null","",NA,NA,NA,NA,""
"image-keyboard-response",34,125892,"0.0-3.7-2.7","6rufc2lcx3w072l",514,"117.csv","","null","resources/images/fishbone.png","null","",NA,NA,NA,NA,""
"image-keyboard-response",35,128279,"0.0-3.8-0.8","6rufc2lcx3w072l",514,"117.csv","","2384.9999999999854","resources/trios/L4T1A3.jpg","38","restless",0.7,0.3,0.9,0.117167049562235,"true"
"image-keyboard-response",36,128683,"0.0-3.8-1.8","6rufc2lcx3w072l",514,"117.csv","","null","resources/maskTrios/BT1B.jpg","null","",NA,NA,NA,NA,""
"image-keyboard-response",37,129886,"0.0-3.8-2.8","6rufc2lcx3w072l",514,"117.csv","","null","resources/images/coin2.png","null","",NA,NA,NA,NA,""
"image-keyboard-response",38,131448,"0.0-3.9-0.9","6rufc2lcx3w072l",514,"117.csv","","1559","resources/trios/L4T4A2.jpg","38","restless",0.7,0.3,0.8,0.170378846248327,"true"
"image-keyboard-response",39,131852,"0.0-3.9-1.9","6rufc2lcx3w072l",514,"117.csv","","null","resources/maskTrios/BT4B.jpg","null","",NA,NA,NA,NA,""
"image-keyboard-response",40,133055,"0.0-3.9-2.9","6rufc2lcx3w072l",514,"117.csv","","null","resources/images/coin2.png","null","",NA,NA,NA,NA,""
"image-keyboard-response",41,133596,"0.0-3.10-0.10","6rufc2lcx3w072l",514,"117.csv","","539","resources/trios/L4T4A3.jpg","38","restless",0.7,0.4,0.8,0.14031974278633,"true"
"image-keyboard-response",42,133999,"0.0-3.10-1.10","6rufc2lcx3w072l",514,"117.csv","","null","resources/maskTrios/BT4B.jpg","null","",NA,NA,NA,NA,""
"image-keyboard-response",43,135203,"0.0-3.10-2.10","6rufc2lcx3w072l",514,"117.csv","","null","resources/images/coin2.png","null","",NA,NA,NA,NA,""
"image-keyboard-response",44,135700,"0.0-3.11-0.11","6rufc2lcx3w072l",514,"117.csv","","495","resources/trios/L4T4A3.jpg","38","restless",0.7,0.4,0.8,0.0808106363047721,"true"
"image-keyboard-response",45,136103,"0.0-3.11-1.11","6rufc2lcx3w072l",514,"117.csv","","null","resources/maskTrios/BT4B.jpg","null","",NA,NA,NA,NA,""
"image-keyboard-response",46,137306,"0.0-3.11-2.11","6rufc2lcx3w072l",514,"117.csv","","null","resources/images/coin2.png","null","",NA,NA,NA,NA,""
"image-keyboard-response",47,138954,"0.0-3.12-0.12","6rufc2lcx3w072l",514,"117.csv","","1646","resources/trios/L1T1A2.jpg","39","restless",0.7,0.5,0.8,0.281887419073669,"true"
"image-keyboard-response",48,139358,"0.0-3.12-1.12","6rufc2lcx3w072l",514,"117.csv","","null","resources/maskTrios/BBA2.jpg","null","",NA,NA,NA,NA,""
"image-keyboard-response",49,140561,"0.0-3.12-2.12","6rufc2lcx3w072l",514,"117.csv","","null","resources/images/coin2.png","null","",NA,NA,NA,NA,""
"image-keyboard-response",50,141108,"0.0-3.13-0.13","6rufc2lcx3w072l",514,"117.csv","","544.9999999999709","resources/trios/L4T1A3.jpg","39","restless",0.7,0.5,0.8,0.582669420208311,"true"
"image-keyboard-response",51,141511,"0.0-3.13-1.13","6rufc2lcx3w072l",514,"117.csv","","null","resources/maskTrios/BBA3.jpg","null","",NA,NA,NA,NA,""
"image-keyboard-response",52,142715,"0.0-3.13-2.13","6rufc2lcx3w072l",514,"117.csv","","null","resources/images/coin2.png","null","",NA,NA,NA,NA,""
"image-keyboard-response",53,143042,"0.0-3.14-0.14","6rufc2lcx3w072l",514,"117.csv","","326","resources/trios/L1T1A2.jpg","39","restless",0.7,0.5,0.8,0.665230111224561,"true"
"image-keyboard-response",54,143445,"0.0-3.14-1.14","6rufc2lcx3w072l",514,"117.csv","","null","resources/maskTrios/BBA2.jpg","null","",NA,NA,NA,NA,""
"image-keyboard-response",55,144649,"0.0-3.14-2.14","6rufc2lcx3w072l",514,"117.csv","","null","resources/images/coin2.png","null","",NA,NA,NA,NA,""
"image-keyboard-response",56,145037,"0.0-3.15-0.15","6rufc2lcx3w072l",514,"117.csv","","385","resources/trios/L4T1A2.jpg","39","restless",0.7,0.5,0.8,0.0331829042559535,"true"
"image-keyboard-response",57,145440,"0.0-3.15-1.15","6rufc2lcx3w072l",514,"117.csv","","null","resources/maskTrios/BBA2.jpg","null","",NA,NA,NA,NA,""
"image-keyboard-response",58,146643,"0.0-3.15-2.15","6rufc2lcx3w072l",514,"117.csv","","null","resources/images/coin2.png","null","",NA,NA,NA,NA,""
"image-keyboard-response",59,148611,"0.0-3.16-0.16","6rufc2lcx3w072l",514,"117.csv","","1966.000000000029","resources/trios/L1T1A3.jpg","38","restless",0.7,0.5,0.7,0.364190567992334,"true"
"image-keyboard-response",60,149015,"0.0-3.16-1.16","6rufc2lcx3w072l",514,"117.csv","","null","resources/maskTrios/BT1B.jpg","null","",NA,NA,NA,NA,""
"image-keyboard-response",61,150218,"0.0-3.16-2.16","6rufc2lcx3w072l",514,"117.csv","","null","resources/images/coin2.png","null","",NA,NA,NA,NA,""
"image-keyboard-response",62,150742,"0.0-3.17-0.17","6rufc2lcx3w072l",514,"117.csv","","522.0000000000291","resources/trios/L1T1A3.jpg","38","restless",0.7,0.4,0.7,0.968892643556058,"false"
"image-keyboard-response",63,151145,"0.0-3.17-1.17","6rufc2lcx3w072l",514,"117.csv","","null","resources/maskTrios/BT1B.jpg","null","",NA,NA,NA,NA,""
"image-keyboard-response",64,152348,"0.0-3.17-2.17","6rufc2lcx3w072l",514,"117.csv","","null","resources/images/fishbone.png","null","",NA,NA,NA,NA,""
"image-keyboard-response",65,153015,"0.0-3.18-0.18","6rufc2lcx3w072l",514,"117.csv","","666","resources/trios/L1T4A3.jpg","37","restless",0.8,0.4,0.7,0.512506341546547,"true"
"image-keyboard-response",66,153419,"0.0-3.18-1.18","6rufc2lcx3w072l",514,"117.csv","","null","resources/maskTrios/L1BB.jpg","null","",NA,NA,NA,NA,""
"image-keyboard-response",67,154622,"0.0-3.18-2.18","6rufc2lcx3w072l",514,"117.csv","","null","resources/images/coin2.png","null","",NA,NA,NA,NA,""
"image-keyboard-response",68,155020,"0.0-3.19-0.19","6rufc2lcx3w072l",514,"117.csv","","396","resources/trios/L1T1A2.jpg","37","restless",0.8,0.4,0.7,0.729091268300177,"true"
"image-keyboard-response",69,155423,"0.0-3.19-1.19","6rufc2lcx3w072l",514,"117.csv","","null","resources/maskTrios/L1BB.jpg","null","",NA,NA,NA,NA,""
"image-keyboard-response",70,156626,"0.0-3.19-2.19","6rufc2lcx3w072l",514,"117.csv","","null","resources/images/coin2.png","null","",NA,NA,NA,NA,""
"image-keyboard-response",71,157095,"0.0-3.20-0.20","6rufc2lcx3w072l",514,"117.csv","","468","resources/trios/L1T1A3.jpg","37","restless",0.9,0.3,0.7,0.123594111789074,"true"
"image-keyboard-response",72,157499,"0.0-3.20-1.20","6rufc2lcx3w072l",514,"117.csv","","null","resources/maskTrios/L1BB.jpg","null","",NA,NA,NA,NA,""
"image-keyboard-response",73,158702,"0.0-3.20-2.20","6rufc2lcx3w072l",514,"117.csv","","null","resources/images/coin2.png","null","",NA,NA,NA,NA,""
"image-keyboard-response",74,159007,"0.0-3.21-0.21","6rufc2lcx3w072l",514,"117.csv","","303","resources/trios/L1T4A3.jpg","37","restless",0.9,0.3,0.7,0.331510242807135,"true"
"image-keyboard-response",75,159411,"0.0-3.21-1.21","6rufc2lcx3w072l",514,"117.csv","","null","resources/maskTrios/L1BB.jpg","null","",NA,NA,NA,NA,""
"image-keyboard-response",76,160614,"0.0-3.21-2.21","6rufc2lcx3w072l",514,"117.csv","","null","resources/images/coin2.png","null","",NA,NA,NA,NA,""
"image-keyboard-response",77,160997,"0.0-3.22-0.22","6rufc2lcx3w072l",514,"117.csv","","381","resources/trios/L1T4A2.jpg","37","restless",0.9,0.3,0.7,0.594798404961914,"true"
"image-keyboard-response",78,161401,"0.0-3.22-1.22","6rufc2lcx3w072l",514,"117.csv","","null","resources/maskTrios/L1BB.jpg","null","",NA,NA,NA,NA,""
"image-keyboard-response",79,162604,"0.0-3.22-2.22","6rufc2lcx3w072l",514,"117.csv","","null","resources/images/coin2.png","null","",NA,NA,NA,NA,""
"image-keyboard-response",80,163001,"0.0-3.23-0.23","6rufc2lcx3w072l",514,"117.csv","","394","resources/trios/L1T4A2.jpg","37","restless",0.9,0.3,0.6,0.655432979132401,"true"
"image-keyboard-response",81,163404,"0.0-3.23-1.23","6rufc2lcx3w072l",514,"117.csv","","null","resources/maskTrios/L1BB.jpg","null","",NA,NA,NA,NA,""
"image-keyboard-response",82,164607,"0.0-3.23-2.23","6rufc2lcx3w072l",514,"117.csv","","null","resources/images/coin2.png","null","",NA,NA,NA,NA,""
"image-keyboard-response",83,165101,"0.0-3.24-0.24","6rufc2lcx3w072l",514,"117.csv","","492","resources/trios/L4T1A3.jpg","37","restless",0.9,0.4,0.6,0.828922689585292,"true"
"image-keyboard-response",84,165504,"0.0-3.24-1.24","6rufc2lcx3w072l",514,"117.csv","","null","resources/maskTrios/L4BB.jpg","null","",NA,NA,NA,NA,""
"image-keyboard-response",85,166707,"0.0-3.24-2.24","6rufc2lcx3w072l",514,"117.csv","","null","resources/images/coin2.png","null","",NA,NA,NA,NA,""
"image-keyboard-response",86,167189,"0.0-3.25-0.25","6rufc2lcx3w072l",514,"117.csv","","480","resources/trios/L4T1A2.jpg","37","restless",0.9,0.4,0.6,0.582624462489835,"true"
"image-keyboard-response",87,167592,"0.0-3.25-1.25","6rufc2lcx3w072l",514,"117.csv","","null","resources/maskTrios/L4BB.jpg","null","",NA,NA,NA,NA,""
"image-keyboard-response",88,168800,"0.0-3.25-2.25","6rufc2lcx3w072l",514,"117.csv","","null","resources/images/coin2.png","null","",NA,NA,NA,NA,""
"image-keyboard-response",89,169151,"0.0-3.26-0.26","6rufc2lcx3w072l",514,"117.csv","","345","resources/trios/L4T1A2.jpg","37","restless",0.9,0.4,0.6,0.895706813236074,"true"
"image-keyboard-response",90,169554,"0.0-3.26-1.26","6rufc2lcx3w072l",514,"117.csv","","null","resources/maskTrios/L4BB.jpg","null","",NA,NA,NA,NA,""
"image-keyboard-response",91,170757,"0.0-3.26-2.26","6rufc2lcx3w072l",514,"117.csv","","null","resources/images/coin2.png","null","",NA,NA,NA,NA,""
"image-keyboard-response",92,171111,"0.0-3.27-0.27","6rufc2lcx3w072l",514,"117.csv","","351","resources/trios/L1T1A3.jpg","37","restless",0.9,0.4,0.6,0.662238820686744,"true"
"image-keyboard-response",93,171514,"0.0-3.27-1.27","6rufc2lcx3w072l",514,"117.csv","","null","resources/maskTrios/L1BB.jpg","null","",NA,NA,NA,NA,""
"image-keyboard-response",94,172718,"0.0-3.27-2.27","6rufc2lcx3w072l",514,"117.csv","","null","resources/images/coin2.png","null","",NA,NA,NA,NA,""
"image-keyboard-response",95,173072,"0.0-3.28-0.28","6rufc2lcx3w072l",514,"117.csv","","352","resources/trios/L4T1A3.jpg","37","restless",0.9,0.4,0.6,0.819110152912913,"true"
"image-keyboard-response",96,173475,"0.0-3.28-1.28","6rufc2lcx3w072l",514,"117.csv","","null","resources/maskTrios/L4BB.jpg","null","",NA,NA,NA,NA,""
"image-keyboard-response",97,174679,"0.0-3.28-2.28","6rufc2lcx3w072l",514,"117.csv","","null","resources/images/coin2.png","null","",NA,NA,NA,NA,""
"image-keyboard-response",98,175110,"0.0-3.29-0.29","6rufc2lcx3w072l",514,"117.csv","","429.0000000000291","resources/trios/L1T1A3.jpg","37","restless",0.9,0.4,0.6,0.52429949718458,"true"
"image-keyboard-response",99,175513,"0.0-3.29-1.29","6rufc2lcx3w072l",514,"117.csv","","null","resources/maskTrios/L1BB.jpg","null","",NA,NA,NA,NA,""
"image-keyboard-response",100,176716,"0.0-3.29-2.29","6rufc2lcx3w072l",514,"117.csv","","null","resources/images/coin2.png","null","",NA,NA,NA,NA,""
"image-keyboard-response",101,177113,"0.0-3.30-0.30","6rufc2lcx3w072l",514,"117.csv","","394","resources/trios/L4T4A3.jpg","37","restless",0.8,0.4,0.6,0.149093236492104,"true"
"image-keyboard-response",102,177516,"0.0-3.30-1.30","6rufc2lcx3w072l",514,"117.csv","","null","resources/maskTrios/L4BB.jpg","null","",NA,NA,NA,NA,""
"image-keyboard-response",103,178719,"0.0-3.30-2.30","6rufc2lcx3w072l",514,"117.csv","","null","resources/images/coin2.png","null","",NA,NA,NA,NA,""
"image-keyboard-response",104,179058,"0.0-3.31-0.31","6rufc2lcx3w072l",514,"117.csv","","334","resources/trios/L4T4A2.jpg","37","restless",0.8,0.4,0.6,0.669612940726609,"true"
"image-keyboard-response",105,179462,"0.0-3.31-1.31","6rufc2lcx3w072l",514,"117.csv","","null","resources/maskTrios/L4BB.jpg","null","",NA,NA,NA,NA,""
"image-keyboard-response",106,180665,"0.0-3.31-2.31","6rufc2lcx3w072l",514,"117.csv","","null","resources/images/coin2.png","null","",NA,NA,NA,NA,""
"image-keyboard-response",107,180995,"0.0-3.32-0.32","6rufc2lcx3w072l",514,"117.csv","","324","resources/trios/L4T1A2.jpg","37","restless",0.8,0.4,0.6,0.819634173756298,"false"
"image-keyboard-response",108,181398,"0.0-3.32-1.32","6rufc2lcx3w072l",514,"117.csv","","null","resources/maskTrios/L4BB.jpg","null","",NA,NA,NA,NA,""
"image-keyboard-response",109,182601,"0.0-3.32-2.32","6rufc2lcx3w072l",514,"117.csv","","null","resources/images/fishbone.png","null","",NA,NA,NA,NA,""
"image-keyboard-response",110,184744,"0.0-3.33-0.33","6rufc2lcx3w072l",514,"117.csv","","2139.999999999971","resources/trios/L1T1A2.jpg","38","restless",0.8,0.4,0.6,0.870155986090194,"false"
"image-keyboard-response",111,185147,"0.0-3.33-1.33","6rufc2lcx3w072l",514,"117.csv","","null","resources/maskTrios/BT1B.jpg","null","",NA,NA,NA,NA,""
"image-keyboard-response",112,186350,"0.0-3.33-2.33","6rufc2lcx3w072l",514,"117.csv","","null","resources/images/fishbone.png","null","",NA,NA,NA,NA,""
"image-keyboard-response",113,186735,"0.0-3.34-0.34","6rufc2lcx3w072l",514,"117.csv","","383","resources/trios/L1T1A2.jpg","39","restless",0.8,0.3,0.7,0.802621136766061,"false"
"image-keyboard-response",114,187138,"0.0-3.34-1.34","6rufc2lcx3w072l",514,"117.csv","","null","resources/maskTrios/BBA2.jpg","null","",NA,NA,NA,NA,""
"image-keyboard-response",115,188341,"0.0-3.34-2.34","6rufc2lcx3w072l",514,"117.csv","","null","resources/images/fishbone.png","null","",NA,NA,NA,NA,""
"image-keyboard-response",116,188684,"0.0-3.35-0.35","6rufc2lcx3w072l",514,"117.csv","","341","resources/trios/L1T4A2.jpg","38","restless",0.8,0.3,0.7,0.235873729577305,"true"
"image-keyboard-response",117,189087,"0.0-3.35-1.35","6rufc2lcx3w072l",514,"117.csv","","null","resources/maskTrios/BT4B.jpg","null","",NA,NA,NA,NA,""
"image-keyboard-response",118,190290,"0.0-3.35-2.35","6rufc2lcx3w072l",514,"117.csv","","null","resources/images/coin2.png","null","",NA,NA,NA,NA,""
"image-keyboard-response",119,190650,"0.0-3.36-0.36","6rufc2lcx3w072l",514,"117.csv","","357","resources/trios/L4T4A2.jpg","38","restless",0.8,0.3,0.7,0.393521617666923,"false"
"image-keyboard-response",120,191053,"0.0-3.36-1.36","6rufc2lcx3w072l",514,"117.csv","","null","resources/maskTrios/BT4B.jpg","null","",NA,NA,NA,NA,""
"image-keyboard-response",121,192256,"0.0-3.36-2.36","6rufc2lcx3w072l",514,"117.csv","","null","resources/images/fishbone.png","null","",NA,NA,NA,NA,""
"image-keyboard-response",122,192714,"0.0-3.37-0.37","6rufc2lcx3w072l",514,"117.csv","","454.9999999999709","resources/trios/L4T1A2.jpg","37","restless",0.8,0.3,0.6,0.762663124491693,"true"
"image-keyboard-response",123,193117,"0.0-3.37-1.37","6rufc2lcx3w072l",514,"117.csv","","null","resources/maskTrios/L4BB.jpg","null","",NA,NA,NA,NA,""
"image-keyboard-response",124,194320,"0.0-3.37-2.37","6rufc2lcx3w072l",514,"117.csv","","null","resources/images/coin2.png","null","",NA,NA,NA,NA,""
"image-keyboard-response",125,194753,"0.0-3.38-0.38","6rufc2lcx3w072l",514,"117.csv","","431","resources/trios/L4T1A2.jpg","37","restless",0.8,0.3,0.6,0.767002203824727,"true"
"image-keyboard-response",126,195159,"0.0-3.38-1.38","6rufc2lcx3w072l",514,"117.csv","","null","resources/maskTrios/L4BB.jpg","null","",NA,NA,NA,NA,""
"image-keyboard-response",127,196362,"0.0-3.38-2.38","6rufc2lcx3w072l",514,"117.csv","","null","resources/images/coin2.png","null","",NA,NA,NA,NA,""
"image-keyboard-response",128,196633,"0.0-3.39-0.39","6rufc2lcx3w072l",514,"117.csv","","268","resources/trios/L1T1A2.jpg","37","restless",0.8,0.3,0.6,0.594551841540234,"true"
"image-keyboard-response",129,197036,"0.0-3.39-1.39","6rufc2lcx3w072l",514,"117.csv","","null","resources/maskTrios/L1BB.jpg","null","",NA,NA,NA,NA,""
"image-keyboard-response",130,198239,"0.0-3.39-2.39","6rufc2lcx3w072l",514,"117.csv","","null","resources/images/coin2.png","null","",NA,NA,NA,NA,""
"image-keyboard-response",131,198734,"0.0-3.40-0.40","6rufc2lcx3w072l",514,"117.csv","","492.0000000000291","resources/trios/L4T1A2.jpg","37","restless",0.8,0.4,0.7,0.384159202111165,"true"
"image-keyboard-response",132,199137,"0.0-3.40-1.40","6rufc2lcx3w072l",514,"117.csv","","null","resources/maskTrios/L4BB.jpg","null","",NA,NA,NA,NA,""
"image-keyboard-response",133,200340,"0.0-3.40-2.40","6rufc2lcx3w072l",514,"117.csv","","null","resources/images/coin2.png","null","",NA,NA,NA,NA,""
"image-keyboard-response",134,200407,"0.0-3.41-0.41","6rufc2lcx3w072l",514,"117.csv","","61.000000000029104","resources/trios/L4T1A2.jpg","37","restless",0.8,0.4,0.7,0.361270337322319,"true"
"image-keyboard-response",135,200809,"0.0-3.41-1.41","6rufc2lcx3w072l",514,"117.csv","","null","resources/maskTrios/L4BB.jpg","null","",NA,NA,NA,NA,""
"image-keyboard-response",136,202012,"0.0-3.41-2.41","6rufc2lcx3w072l",514,"117.csv","","null","resources/images/coin2.png","null","",NA,NA,NA,NA,""
"image-keyboard-response",137,202412,"0.0-3.42-0.42","6rufc2lcx3w072l",514,"117.csv","","397","resources/trios/L1T4A3.jpg","37","restless",0.8,0.5,0.7,0.547581939244964,"true"
"image-keyboard-response",138,202815,"0.0-3.42-1.42","6rufc2lcx3w072l",514,"117.csv","","null","resources/maskTrios/L1BB.jpg","null","",NA,NA,NA,NA,""
"image-keyboard-response",139,204019,"0.0-3.42-2.42","6rufc2lcx3w072l",514,"117.csv","","null","resources/images/coin2.png","null","",NA,NA,NA,NA,""
"image-keyboard-response",140,204324,"0.0-3.43-0.43","6rufc2lcx3w072l",514,"117.csv","","303","resources/trios/L4T1A3.jpg","37","restless",0.8,0.5,0.7,0.556718459005798,"true"
"image-keyboard-response",141,204727,"0.0-3.43-1.43","6rufc2lcx3w072l",514,"117.csv","","null","resources/maskTrios/L4BB.jpg","null","",NA,NA,NA,NA,""
"image-keyboard-response",142,205930,"0.0-3.43-2.43","6rufc2lcx3w072l",514,"117.csv","","null","resources/images/coin2.png","null","",NA,NA,NA,NA,""
"image-keyboard-response",143,206210,"0.0-3.44-0.44","6rufc2lcx3w072l",514,"117.csv","","277.0000000000291","resources/trios/L1T4A2.jpg","37","restless",0.8,0.5,0.7,0.55467897827482,"true"
"image-keyboard-response",144,206613,"0.0-3.44-1.44","6rufc2lcx3w072l",514,"117.csv","","null","resources/maskTrios/L1BB.jpg","null","",NA,NA,NA,NA,""
"image-keyboard-response",145,207816,"0.0-3.44-2.44","6rufc2lcx3w072l",514,"117.csv","","null","resources/images/coin2.png","null","",NA,NA,NA,NA,""
"image-keyboard-response",146,208249,"0.0-3.45-0.45","6rufc2lcx3w072l",514,"117.csv","","428","resources/trios/L1T1A3.jpg","37","restless",0.8,0.6,0.7,0.537452044588576,"true"
"image-keyboard-response",147,208652,"0.0-3.45-1.45","6rufc2lcx3w072l",514,"117.csv","","null","resources/maskTrios/L1BB.jpg","null","",NA,NA,NA,NA,""
"image-keyboard-response",148,209855,"0.0-3.45-2.45","6rufc2lcx3w072l",514,"117.csv","","null","resources/images/coin2.png","null","",NA,NA,NA,NA,""
"image-keyboard-response",149,210161,"0.0-3.46-0.46","6rufc2lcx3w072l",514,"117.csv","","303","resources/trios/L1T1A3.jpg","37","restless",0.8,0.6,0.7,0.282216726286042,"true"
"image-keyboard-response",150,210564,"0.0-3.46-1.46","6rufc2lcx3w072l",514,"117.csv","","null","resources/maskTrios/L1BB.jpg","null","",NA,NA,NA,NA,""
"image-keyboard-response",151,211770,"0.0-3.46-2.46","6rufc2lcx3w072l",514,"117.csv","","null","resources/images/coin2.png","null","",NA,NA,NA,NA,""
"image-keyboard-response",152,212126,"0.0-3.47-0.47","6rufc2lcx3w072l",514,"117.csv","","353","resources/trios/L4T1A2.jpg","37","restless",0.8,0.6,0.7,0.691060373614184,"true"
"image-keyboard-response",153,212529,"0.0-3.47-1.47","6rufc2lcx3w072l",514,"117.csv","","null","resources/maskTrios/L4BB.jpg","null","",NA,NA,NA,NA,""
"image-keyboard-response",154,213732,"0.0-3.47-2.47","6rufc2lcx3w072l",514,"117.csv","","null","resources/images/coin2.png","null","",NA,NA,NA,NA,""
"image-keyboard-response",155,214064,"0.0-3.48-0.48","6rufc2lcx3w072l",514,"117.csv","","329","resources/trios/L4T4A2.jpg","37","restless",0.8,0.6,0.7,0.948720296261974,"false"
"image-keyboard-response",156,214467,"0.0-3.48-1.48","6rufc2lcx3w072l",514,"117.csv","","null","resources/maskTrios/L4BB.jpg","null","",NA,NA,NA,NA,""
"image-keyboard-response",157,215670,"0.0-3.48-2.48","6rufc2lcx3w072l",514,"117.csv","","null","resources/images/fishbone.png","null","",NA,NA,NA,NA,""
"image-keyboard-response",158,216114,"0.0-3.49-0.49","6rufc2lcx3w072l",514,"117.csv","","442.0000000000291","resources/trios/L4T1A2.jpg","38","restless",0.8,0.6,0.7,0.149285094456498,"true"
"image-keyboard-response",159,216518,"0.0-3.49-1.49","6rufc2lcx3w072l",514,"117.csv","","null","resources/maskTrios/BT1B.jpg","null","",NA,NA,NA,NA,""
"image-keyboard-response",160,217720,"0.0-3.49-2.49","6rufc2lcx3w072l",514,"117.csv","","null","resources/images/coin2.png","null","",NA,NA,NA,NA,""
"image-keyboard-response",161,218026,"0.0-3.50-0.50","6rufc2lcx3w072l",514,"117.csv","","304","resources/trios/L1T4A3.jpg","38","restless",0.8,0.6,0.7,0.0144932555712667,"true"
"image-keyboard-response",162,218430,"0.0-3.50-1.50","6rufc2lcx3w072l",514,"117.csv","","null","resources/maskTrios/BT4B.jpg","null","",NA,NA,NA,NA,""
"image-keyboard-response",163,219633,"0.0-3.50-2.50","6rufc2lcx3w072l",514,"117.csv","","null","resources/images/coin2.png","null","",NA,NA,NA,NA,""
"image-keyboard-response",164,220201,"0.0-3.51-0.51","6rufc2lcx3w072l",514,"117.csv","","566","resources/trios/L4T4A2.jpg","38","restless",0.8,0.6,0.7,0.30472836154761,"true"
"image-keyboard-response",165,220604,"0.0-3.51-1.51","6rufc2lcx3w072l",514,"117.csv","","null","resources/maskTrios/BT4B.jpg","null","",NA,NA,NA,NA,""
"image-keyboard-response",166,221808,"0.0-3.51-2.51","6rufc2lcx3w072l",514,"117.csv","","null","resources/images/coin2.png","null","",NA,NA,NA,NA,""
"image-keyboard-response",167,222133,"0.0-3.52-0.52","6rufc2lcx3w072l",514,"117.csv","","322.9999999999709","resources/trios/L1T4A3.jpg","38","restless",0.8,0.6,0.6,0.500451053097709,"true"
"image-keyboard-response",168,222537,"0.0-3.52-1.52","6rufc2lcx3w072l",514,"117.csv","","null","resources/maskTrios/BT4B.jpg","null","",NA,NA,NA,NA,""
"image-keyboard-response",169,223740,"0.0-3.52-2.52","6rufc2lcx3w072l",514,"117.csv","","null","resources/images/coin2.png","null","",NA,NA,NA,NA,""
"image-keyboard-response",170,224330,"0.0-3.53-0.53","6rufc2lcx3w072l",514,"117.csv","","584.9999999999709","resources/trios/L4T4A2.jpg","38","restless",0.8,0.6,0.6,0.499370035031715,"true"
"image-keyboard-response",171,224734,"0.0-3.53-1.53","6rufc2lcx3w072l",514,"117.csv","","null","resources/maskTrios/BT4B.jpg","null","",NA,NA,NA,NA,""
"image-keyboard-response",172,225937,"0.0-3.53-2.53","6rufc2lcx3w072l",514,"117.csv","","null","resources/images/coin2.png","null","",NA,NA,NA,NA,""
"image-keyboard-response",173,226423,"0.0-3.54-0.54","6rufc2lcx3w072l",514,"117.csv","","483","resources/trios/L1T4A3.jpg","38","restless",0.8,0.6,0.6,0.0380079041612109,"true"
"image-keyboard-response",174,226826,"0.0-3.54-1.54","6rufc2lcx3w072l",514,"117.csv","","null","resources/maskTrios/BT4B.jpg","null","",NA,NA,NA,NA,""
"image-keyboard-response",175,228029,"0.0-3.54-2.54","6rufc2lcx3w072l",514,"117.csv","","null","resources/images/coin2.png","null","",NA,NA,NA,NA,""
"image-keyboard-response",176,228540,"0.0-3.55-0.55","6rufc2lcx3w072l",514,"117.csv","","508","resources/trios/L4T4A3.jpg","38","restless",0.8,0.6,0.6,0.987757209616706,"false"
"image-keyboard-response",177,228943,"0.0-3.55-1.55","6rufc2lcx3w072l",514,"117.csv","","null","resources/maskTrios/BT4B.jpg","null","",NA,NA,NA,NA,""
"image-keyboard-response",178,230146,"0.0-3.55-2.55","6rufc2lcx3w072l",514,"117.csv","","null","resources/images/fishbone.png","null","",NA,NA,NA,NA,""
"image-keyboard-response",179,230392,"0.0-3.56-0.56","6rufc2lcx3w072l",514,"117.csv","","244","resources/trios/L4T4A2.jpg","39","restless",0.8,0.6,0.6,0.786894993957702,"false"
"image-keyboard-response",180,230795,"0.0-3.56-1.56","6rufc2lcx3w072l",514,"117.csv","","null","resources/maskTrios/BBA2.jpg","null","",NA,NA,NA,NA,""
"image-keyboard-response",181,231998,"0.0-3.56-2.56","6rufc2lcx3w072l",514,"117.csv","","null","resources/images/fishbone.png","null","",NA,NA,NA,NA,""
"image-keyboard-response",182,233283,"0.0-3.57-0.57","6rufc2lcx3w072l",514,"117.csv","","1284","resources/trios/L1T4A3.jpg","37","restless",0.7,0.6,0.6,0.901266912753282,"false"
"image-keyboard-response",183,233687,"0.0-3.57-1.57","6rufc2lcx3w072l",514,"117.csv","","null","resources/maskTrios/L1BB.jpg","null","",NA,NA,NA,NA,""
"image-keyboard-response",184,234889,"0.0-3.57-2.57","6rufc2lcx3w072l",514,"117.csv","","null","resources/images/fishbone.png","null","",NA,NA,NA,NA,""
"image-keyboard-response",185,235320,"0.0-3.58-0.58","6rufc2lcx3w072l",514,"117.csv","","429","resources/trios/L4T4A3.jpg","39","restless",0.7,0.6,0.5,0.532221046879725,"false"
"image-keyboard-response",186,235723,"0.0-3.58-1.58","6rufc2lcx3w072l",514,"117.csv","","null","resources/maskTrios/BBA3.jpg","null","",NA,NA,NA,NA,""
"image-keyboard-response",187,236926,"0.0-3.58-2.58","6rufc2lcx3w072l",514,"117.csv","","null","resources/images/fishbone.png","null","",NA,NA,NA,NA,""
"image-keyboard-response",188,237462,"0.0-3.59-0.59","6rufc2lcx3w072l",514,"117.csv","","533","resources/trios/L1T1A3.jpg","37","restless",0.7,0.6,0.5,0.523780506081649,"true"
"image-keyboard-response",189,237865,"0.0-3.59-1.59","6rufc2lcx3w072l",514,"117.csv","","null","resources/maskTrios/L1BB.jpg","null","",NA,NA,NA,NA,""
"image-keyboard-response",190,239068,"0.0-3.59-2.59","6rufc2lcx3w072l",514,"117.csv","","null","resources/images/coin2.png","null","",NA,NA,NA,NA,""
"image-keyboard-response",191,239418,"0.0-3.60-0.60","6rufc2lcx3w072l",514,"117.csv","","348","resources/trios/L1T1A3.jpg","37","restless",0.7,0.6,0.5,0.584306430491885,"true"
"image-keyboard-response",192,239821,"0.0-3.60-1.60","6rufc2lcx3w072l",514,"117.csv","","null","resources/maskTrios/L1BB.jpg","null","",NA,NA,NA,NA,""
"image-keyboard-response",193,241024,"0.0-3.60-2.60","6rufc2lcx3w072l",514,"117.csv","","null","resources/images/coin2.png","null","",NA,NA,NA,NA,""
"image-keyboard-response",194,241320,"0.0-3.61-0.61","6rufc2lcx3w072l",514,"117.csv","","291","resources/trios/L1T4A3.jpg","37","restless",0.7,0.6,0.5,0.138127163363318,"true"
"image-keyboard-response",195,241723,"0.0-3.61-1.61","6rufc2lcx3w072l",514,"117.csv","","null","resources/maskTrios/L1BB.jpg","null","",NA,NA,NA,NA,""
"image-keyboard-response",196,242927,"0.0-3.61-2.61","6rufc2lcx3w072l",514,"117.csv","","null","resources/images/coin2.png","null","",NA,NA,NA,NA,""
"image-keyboard-response",197,243032,"0.0-3.62-0.62","6rufc2lcx3w072l",514,"117.csv","","103","resources/trios/L1T1A2.jpg","37","restless",0.7,0.6,0.5,0.00231565086819896,"true"
"image-keyboard-response",198,243435,"0.0-3.62-1.62","6rufc2lcx3w072l",514,"117.csv","","null","resources/maskTrios/L1BB.jpg","null","",NA,NA,NA,NA,""
"image-keyboard-response",199,244638,"0.0-3.62-2.62","6rufc2lcx3w072l",514,"117.csv","","null","resources/images/coin2.png","null","",NA,NA,NA,NA,""
"image-keyboard-response",200,245044,"0.0-3.63-0.63","6rufc2lcx3w072l",514,"117.csv","","400.9999999999709","resources/trios/L1T1A2.jpg","37","restless",0.7,0.6,0.5,0.569037240331765,"true"
"image-keyboard-response",201,245447,"0.0-3.63-1.63","6rufc2lcx3w072l",514,"117.csv","","null","resources/maskTrios/L1BB.jpg","null","",NA,NA,NA,NA,""
"image-keyboard-response",202,246650,"0.0-3.63-2.63","6rufc2lcx3w072l",514,"117.csv","","null","resources/images/coin2.png","null","",NA,NA,NA,NA,""
"image-keyboard-response",203,247005,"0.0-3.64-0.64","6rufc2lcx3w072l",514,"117.csv","","352","resources/trios/L1T1A2.jpg","37","restless",0.7,0.6,0.5,0.490697786956359,"true"
"image-keyboard-response",204,247408,"0.0-3.64-1.64","6rufc2lcx3w072l",514,"117.csv","","null","resources/maskTrios/L1BB.jpg","null","",NA,NA,NA,NA,""
"image-keyboard-response",205,248611,"0.0-3.64-2.64","6rufc2lcx3w072l",514,"117.csv","","null","resources/images/coin2.png","null","",NA,NA,NA,NA,""
"image-keyboard-response",206,248982,"0.0-3.65-0.65","6rufc2lcx3w072l",514,"117.csv","","369.9999999999709","resources/trios/L1T1A3.jpg","37","restless",0.7,0.6,0.5,0.524905218653535,"true"
"image-keyboard-response",207,249386,"0.0-3.65-1.65","6rufc2lcx3w072l",514,"117.csv","","null","resources/maskTrios/L1BB.jpg","null","",NA,NA,NA,NA,""
"image-keyboard-response",208,250589,"0.0-3.65-2.65","6rufc2lcx3w072l",514,"117.csv","","null","resources/images/coin2.png","null","",NA,NA,NA,NA,""
"image-keyboard-response",209,251145,"0.0-3.66-0.66","6rufc2lcx3w072l",514,"117.csv","","555","resources/trios/L4T4A3.jpg","37","restless",0.7,0.6,0.5,0.163970372332445,"true"
"image-keyboard-response",210,251549,"0.0-3.66-1.66","6rufc2lcx3w072l",514,"117.csv","","null","resources/maskTrios/L4BB.jpg","null","",NA,NA,NA,NA,""
"image-keyboard-response",211,252752,"0.0-3.66-2.66","6rufc2lcx3w072l",514,"117.csv","","null","resources/images/coin2.png","null","",NA,NA,NA,NA,""
"image-keyboard-response",212,253321,"0.0-3.67-0.67","6rufc2lcx3w072l",514,"117.csv","","566","resources/trios/L4T1A3.jpg","37","restless",0.7,0.5,0.5,0.465073056528765,"true"
"image-keyboard-response",213,253725,"0.0-3.67-1.67","6rufc2lcx3w072l",514,"117.csv","","null","resources/maskTrios/L4BB.jpg","null","",NA,NA,NA,NA,""
"image-keyboard-response",214,254928,"0.0-3.67-2.67","6rufc2lcx3w072l",514,"117.csv","","null","resources/images/coin2.png","null","",NA,NA,NA,NA,""
"image-keyboard-response",215,256293,"0.0-3.68-0.68","6rufc2lcx3w072l",514,"117.csv","","1363","resources/trios/L1T1A3.jpg","37","restless",0.7,0.5,0.5,0.761043642813515,"false"
"image-keyboard-response",216,256698,"0.0-3.68-1.68","6rufc2lcx3w072l",514,"117.csv","","null","resources/maskTrios/L1BB.jpg","null","",NA,NA,NA,NA,""
"image-keyboard-response",217,257901,"0.0-3.68-2.68","6rufc2lcx3w072l",514,"117.csv","","null","resources/images/fishbone.png","null","",NA,NA,NA,NA,""
"image-keyboard-response",218,259003,"0.0-3.69-0.69","6rufc2lcx3w072l",514,"117.csv","","1099","resources/trios/L1T4A3.jpg","39","restless",0.7,0.5,0.5,0.194795494358684,"true"
"image-keyboard-response",219,259406,"0.0-3.69-1.69","6rufc2lcx3w072l",514,"117.csv","","null","resources/maskTrios/BBA3.jpg","null","",NA,NA,NA,NA,""
"image-keyboard-response",220,260609,"0.0-3.69-2.69","6rufc2lcx3w072l",514,"117.csv","","null","resources/images/coin2.png","null","",NA,NA,NA,NA,""
"image-keyboard-response",221,260918,"0.0-3.70-0.70","6rufc2lcx3w072l",514,"117.csv","","306","resources/trios/L1T1A3.jpg","39","restless",0.7,0.4,0.5,0.768479099175868,"false"
"image-keyboard-response",222,261321,"0.0-3.70-1.70","6rufc2lcx3w072l",514,"117.csv","","null","resources/maskTrios/BBA3.jpg","null","",NA,NA,NA,NA,""
"image-keyboard-response",223,262523,"0.0-3.70-2.70","6rufc2lcx3w072l",514,"117.csv","","null","resources/images/fishbone.png","null","",NA,NA,NA,NA,""
"image-keyboard-response",224,263003,"0.0-3.71-0.71","6rufc2lcx3w072l",514,"117.csv","","478","resources/trios/L1T1A3.jpg","38","restless",0.7,0.4,0.5,0.64733495971338,"false"
"image-keyboard-response",225,263407,"0.0-3.71-1.71","6rufc2lcx3w072l",514,"117.csv","","null","resources/maskTrios/BT1B.jpg","null","",NA,NA,NA,NA,""
"image-keyboard-response",226,264609,"0.0-3.71-2.71","6rufc2lcx3w072l",514,"117.csv","","null","resources/images/fishbone.png","null","",NA,NA,NA,NA,""
"image-keyboard-response",227,264938,"0.0-3.72-0.72","6rufc2lcx3w072l",514,"117.csv","","327","resources/trios/L4T1A2.jpg","37","restless",0.7,0.3,0.5,0.626389395500906,"true"
"image-keyboard-response",228,265341,"0.0-3.72-1.72","6rufc2lcx3w072l",514,"117.csv","","null","resources/maskTrios/L4BB.jpg","null","",NA,NA,NA,NA,""
"image-keyboard-response",229,266544,"0.0-3.72-2.72","6rufc2lcx3w072l",514,"117.csv","","null","resources/images/coin2.png","null","",NA,NA,NA,NA,""
"image-keyboard-response",230,267600,"0.0-3.73-0.73","6rufc2lcx3w072l",514,"117.csv","","1053","resources/trios/L4T1A3.jpg","37","restless",0.6,0.3,0.5,0.97632850467803,"false"
"image-keyboard-response",231,268004,"0.0-3.73-1.73","6rufc2lcx3w072l",514,"117.csv","","null","resources/maskTrios/L4BB.jpg","null","",NA,NA,NA,NA,""
"image-keyboard-response",232,269206,"0.0-3.73-2.73","6rufc2lcx3w072l",514,"117.csv","","null","resources/images/fishbone.png","null","",NA,NA,NA,NA,""
"image-keyboard-response",233,308124,"0.0-3.74-0.74","6rufc2lcx3w072l",514,"117.csv","","38915","resources/trios/L1T1A2.jpg","39","restless",0.6,0.3,0.5,0.986446555686613,"false"
"image-keyboard-response",234,308529,"0.0-3.74-1.74","6rufc2lcx3w072l",514,"117.csv","","null","resources/maskTrios/BBA2.jpg","null","",NA,NA,NA,NA,""
"image-keyboard-response",235,309732,"0.0-3.74-2.74","6rufc2lcx3w072l",514,"117.csv","","null","resources/images/fishbone.png","null","",NA,NA,NA,NA,""
"image-keyboard-response",236,310206,"0.0-3.75-0.75","6rufc2lcx3w072l",514,"117.csv","","471","resources/trios/L1T4A3.jpg","39","restless",0.6,0.3,0.5,0.850831889382633,"false"
"image-keyboard-response",237,310610,"0.0-3.75-1.75","6rufc2lcx3w072l",514,"117.csv","","null","resources/maskTrios/BBA3.jpg","null","",NA,NA,NA,NA,""
"image-keyboard-response",238,311812,"0.0-3.75-2.75","6rufc2lcx3w072l",514,"117.csv","","null","resources/images/fishbone.png","null","",NA,NA,NA,NA,""
"image-keyboard-response",239,312094,"0.0-3.76-0.76","6rufc2lcx3w072l",514,"117.csv","","280","resources/trios/L4T1A2.jpg","38","restless",0.6,0.3,0.5,0.209604444653093,"true"
"image-keyboard-response",240,312498,"0.0-3.76-1.76","6rufc2lcx3w072l",514,"117.csv","","null","resources/maskTrios/BT1B.jpg","null","",NA,NA,NA,NA,""
"image-keyboard-response",241,313701,"0.0-3.76-2.76","6rufc2lcx3w072l",514,"117.csv","","null","resources/images/coin2.png","null","",NA,NA,NA,NA,""
"image-keyboard-response",242,314019,"0.0-3.77-0.77","6rufc2lcx3w072l",514,"117.csv","","315.9999999999418","resources/trios/L4T4A2.jpg","38","restless",0.6,0.3,0.5,0.563735753502148,"false"
"image-keyboard-response",243,314422,"0.0-3.77-1.77","6rufc2lcx3w072l",514,"117.csv","","null","resources/maskTrios/BT4B.jpg","null","",NA,NA,NA,NA,""
"image-keyboard-response",244,315625,"0.0-3.77-2.77","6rufc2lcx3w072l",514,"117.csv","","null","resources/images/fishbone.png","null","",NA,NA,NA,NA,""
"image-keyboard-response",245,315932,"0.0-3.78-0.78","6rufc2lcx3w072l",514,"117.csv","","305","resources/trios/L4T4A3.jpg","37","restless",0.6,0.3,0.5,0.307209456312029,"true"
"image-keyboard-response",246,316335,"0.0-3.78-1.78","6rufc2lcx3w072l",514,"117.csv","","null","resources/maskTrios/L4BB.jpg","null","",NA,NA,NA,NA,""
"image-keyboard-response",247,317538,"0.0-3.78-2.78","6rufc2lcx3w072l",514,"117.csv","","null","resources/images/coin2.png","null","",NA,NA,NA,NA,""
"image-keyboard-response",248,317822,"0.0-3.79-0.79","6rufc2lcx3w072l",514,"117.csv","","279.9999999999418","resources/trios/L4T1A2.jpg","37","restless",0.6,0.3,0.6,0.933765678049599,"false"
"image-keyboard-response",249,318226,"0.0-3.79-1.79","6rufc2lcx3w072l",514,"117.csv","","null","resources/maskTrios/L4BB.jpg","null","",NA,NA,NA,NA,""
"image-keyboard-response",250,319428,"0.0-3.79-2.79","6rufc2lcx3w072l",514,"117.csv","","null","resources/images/fishbone.png","null","",NA,NA,NA,NA,""
"image-keyboard-response",251,319722,"0.0-3.80-0.80","6rufc2lcx3w072l",514,"117.csv","","291","resources/trios/L1T4A2.jpg","37","restless",0.7,0.3,0.6,0.238645354948013,"true"
"image-keyboard-response",252,320125,"0.0-3.80-1.80","6rufc2lcx3w072l",514,"117.csv","","null","resources/maskTrios/L1BB.jpg","null","",NA,NA,NA,NA,""
"image-keyboard-response",253,321328,"0.0-3.80-2.80","6rufc2lcx3w072l",514,"117.csv","","null","resources/images/coin2.png","null","",NA,NA,NA,NA,""
"image-keyboard-response",254,321561,"0.0-3.81-0.81","6rufc2lcx3w072l",514,"117.csv","","230","resources/trios/L4T1A2.jpg","37","restless",0.8,0.3,0.5,0.457694656855014,"true"
"image-keyboard-response",255,321964,"0.0-3.81-1.81","6rufc2lcx3w072l",514,"117.csv","","null","resources/maskTrios/L4BB.jpg","null","",NA,NA,NA,NA,""
"image-keyboard-response",256,323167,"0.0-3.81-2.81","6rufc2lcx3w072l",514,"117.csv","","null","resources/images/coin2.png","null","",NA,NA,NA,NA,""
"image-keyboard-response",257,323483,"0.0-3.82-0.82","6rufc2lcx3w072l",514,"117.csv","","310","resources/trios/L4T1A3.jpg","37","restless",0.8,0.3,0.5,0.579151812578745,"true"
"image-keyboard-response",258,323886,"0.0-3.82-1.82","6rufc2lcx3w072l",514,"117.csv","","null","resources/maskTrios/L4BB.jpg","null","",NA,NA,NA,NA,""
"image-keyboard-response",259,325089,"0.0-3.82-2.82","6rufc2lcx3w072l",514,"117.csv","","null","resources/images/coin2.png","null","",NA,NA,NA,NA,""
"image-keyboard-response",260,325341,"0.0-3.83-0.83","6rufc2lcx3w072l",514,"117.csv","","249","resources/trios/L1T1A2.jpg","37","restless",0.8,0.3,0.5,0.210884496415751,"true"
"image-keyboard-response",261,325744,"0.0-3.83-1.83","6rufc2lcx3w072l",514,"117.csv","","null","resources/maskTrios/L1BB.jpg","null","",NA,NA,NA,NA,""
"image-keyboard-response",262,326947,"0.0-3.83-2.83","6rufc2lcx3w072l",514,"117.csv","","null","resources/images/coin2.png","null","",NA,NA,NA,NA,""
"image-keyboard-response",263,327321,"0.0-3.84-0.84","6rufc2lcx3w072l",514,"117.csv","","370.0000000000582","resources/trios/L1T4A2.jpg","37","restless",0.8,0.3,0.5,0.195709186939152,"true"
"image-keyboard-response",264,327724,"0.0-3.84-1.84","6rufc2lcx3w072l",514,"117.csv","","null","resources/maskTrios/L1BB.jpg","null","",NA,NA,NA,NA,""
"image-keyboard-response",265,328927,"0.0-3.84-2.84","6rufc2lcx3w072l",514,"117.csv","","null","resources/images/coin2.png","null","",NA,NA,NA,NA,""
"image-keyboard-response",266,329606,"0.0-3.85-0.85","6rufc2lcx3w072l",514,"117.csv","","676","resources/trios/L1T4A3.jpg","37","restless",0.8,0.3,0.5,0.88964275491518,"false"
"image-keyboard-response",267,330009,"0.0-3.85-1.85","6rufc2lcx3w072l",514,"117.csv","","null","resources/maskTrios/L1BB.jpg","null","",NA,NA,NA,NA,""
"image-keyboard-response",268,331211,"0.0-3.85-2.85","6rufc2lcx3w072l",514,"117.csv","","null","resources/images/fishbone.png","null","",NA,NA,NA,NA,""
"image-keyboard-response",269,331498,"0.0-3.86-0.86","6rufc2lcx3w072l",514,"117.csv","","284","resources/trios/L4T1A2.jpg","37","restless",0.8,0.3,0.6,0.665721367908736,"true"
"image-keyboard-response",270,331901,"0.0-3.86-1.86","6rufc2lcx3w072l",514,"117.csv","","null","resources/maskTrios/L4BB.jpg","null","",NA,NA,NA,NA,""
"image-keyboard-response",271,333107,"0.0-3.86-2.86","6rufc2lcx3w072l",514,"117.csv","","null","resources/images/coin2.png","null","",NA,NA,NA,NA,""
"image-keyboard-response",272,333433,"0.0-3.87-0.87","6rufc2lcx3w072l",514,"117.csv","","323","resources/trios/L4T4A2.jpg","37","restless",0.8,0.3,0.6,0.932601820721918,"false"
"image-keyboard-response",273,333836,"0.0-3.87-1.87","6rufc2lcx3w072l",514,"117.csv","","null","resources/maskTrios/L4BB.jpg","null","",NA,NA,NA,NA,""
"image-keyboard-response",274,335039,"0.0-3.87-2.87","6rufc2lcx3w072l",514,"117.csv","","null","resources/images/fishbone.png","null","",NA,NA,NA,NA,""
"image-keyboard-response",275,335696,"0.0-3.88-0.88","6rufc2lcx3w072l",514,"117.csv","","654.9999999999418","resources/trios/L4T4A2.jpg","38","restless",0.8,0.3,0.7,0.404855683867189,"false"
"image-keyboard-response",276,336099,"0.0-3.88-1.88","6rufc2lcx3w072l",514,"117.csv","","null","resources/maskTrios/BT4B.jpg","null","",NA,NA,NA,NA,""
"image-keyboard-response",277,337302,"0.0-3.88-2.88","6rufc2lcx3w072l",514,"117.csv","","null","resources/images/fishbone.png","null","",NA,NA,NA,NA,""
"image-keyboard-response",278,337696,"0.0-3.89-0.89","6rufc2lcx3w072l",514,"117.csv","","392","resources/trios/L1T1A2.jpg","39","restless",0.8,0.4,0.6,0.985375516178695,"false"
"image-keyboard-response",279,338099,"0.0-3.89-1.89","6rufc2lcx3w072l",514,"117.csv","","null","resources/maskTrios/BBA2.jpg","null","",NA,NA,NA,NA,""
"image-keyboard-response",280,339302,"0.0-3.89-2.89","6rufc2lcx3w072l",514,"117.csv","","null","resources/images/fishbone.png","null","",NA,NA,NA,NA,""
"image-keyboard-response",281,339589,"0.0-3.90-0.90","6rufc2lcx3w072l",514,"117.csv","","284","resources/trios/L1T1A2.jpg","38","restless",0.8,0.4,0.5,0.504136369431488,"false"
"image-keyboard-response",282,339992,"0.0-3.90-1.90","6rufc2lcx3w072l",514,"117.csv","","null","resources/maskTrios/BT1B.jpg","null","",NA,NA,NA,NA,""
"image-keyboard-response",283,341195,"0.0-3.90-2.90","6rufc2lcx3w072l",514,"117.csv","","null","resources/images/fishbone.png","null","",NA,NA,NA,NA,""
"image-keyboard-response",284,341485,"0.0-3.91-0.91","6rufc2lcx3w072l",514,"117.csv","","288","resources/trios/L1T1A3.jpg","37","restless",0.8,0.4,0.5,0.935474931937826,"false"
"image-keyboard-response",285,341888,"0.0-3.91-1.91","6rufc2lcx3w072l",514,"117.csv","","null","resources/maskTrios/L1BB.jpg","null","",NA,NA,NA,NA,""
"image-keyboard-response",286,343091,"0.0-3.91-2.91","6rufc2lcx3w072l",514,"117.csv","","null","resources/images/fishbone.png","null","",NA,NA,NA,NA,""
"image-keyboard-response",287,343381,"0.0-3.92-0.92","6rufc2lcx3w072l",514,"117.csv","","288","resources/trios/L4T4A3.jpg","37","restless",0.9,0.4,0.4,0.0789649817441148,"true"
"image-keyboard-response",288,343784,"0.0-3.92-1.92","6rufc2lcx3w072l",514,"117.csv","","null","resources/maskTrios/L4BB.jpg","null","",NA,NA,NA,NA,""
"image-keyboard-response",289,344987,"0.0-3.92-2.92","6rufc2lcx3w072l",514,"117.csv","","null","resources/images/coin2.png","null","",NA,NA,NA,NA,""
"image-keyboard-response",290,345386,"0.0-3.93-0.93","6rufc2lcx3w072l",514,"117.csv","","396","resources/trios/L4T4A3.jpg","37","restless",0.9,0.3,0.4,0.219236284383883,"true"
"image-keyboard-response",291,345789,"0.0-3.93-1.93","6rufc2lcx3w072l",514,"117.csv","","null","resources/maskTrios/L4BB.jpg","null","",NA,NA,NA,NA,""
"image-keyboard-response",292,346992,"0.0-3.93-2.93","6rufc2lcx3w072l",514,"117.csv","","null","resources/images/coin2.png","null","",NA,NA,NA,NA,""
"image-keyboard-response",293,347311,"0.0-3.94-0.94","6rufc2lcx3w072l",514,"117.csv","","316","resources/trios/L1T4A3.jpg","37","restless",0.9,0.3,0.3,0.389272516870013,"true"
"image-keyboard-response",294,347714,"0.0-3.94-1.94","6rufc2lcx3w072l",514,"117.csv","","null","resources/maskTrios/L1BB.jpg","null","",NA,NA,NA,NA,""
"image-keyboard-response",295,348917,"0.0-3.94-2.94","6rufc2lcx3w072l",514,"117.csv","","null","resources/images/coin2.png","null","",NA,NA,NA,NA,""
"image-keyboard-response",296,349360,"0.0-3.95-0.95","6rufc2lcx3w072l",514,"117.csv","","440","resources/trios/L1T1A3.jpg","37","restless",0.9,0.3,0.3,0.429635232057361,"true"
"image-keyboard-response",297,349763,"0.0-3.95-1.95","6rufc2lcx3w072l",514,"117.csv","","null","resources/maskTrios/L1BB.jpg","null","",NA,NA,NA,NA,""
"image-keyboard-response",298,350965,"0.0-3.95-2.95","6rufc2lcx3w072l",514,"117.csv","","null","resources/images/coin2.png","null","",NA,NA,NA,NA,""
"image-keyboard-response",299,351319,"0.0-3.96-0.96","6rufc2lcx3w072l",514,"117.csv","","351","resources/trios/L4T1A2.jpg","37","restless",0.8,0.3,0.3,0.124729716169097,"true"
"image-keyboard-response",300,351724,"0.0-3.96-1.96","6rufc2lcx3w072l",514,"117.csv","","null","resources/maskTrios/L4BB.jpg","null","",NA,NA,NA,NA,""
"image-keyboard-response",301,352927,"0.0-3.96-2.96","6rufc2lcx3w072l",514,"117.csv","","null","resources/images/coin2.png","null","",NA,NA,NA,NA,""
"image-keyboard-response",302,353276,"0.0-3.97-0.97","6rufc2lcx3w072l",514,"117.csv","","345","resources/trios/L1T1A2.jpg","37","restless",0.8,0.3,0.3,0.668112845177229,"true"
"image-keyboard-response",303,353680,"0.0-3.97-1.97","6rufc2lcx3w072l",514,"117.csv","","null","resources/maskTrios/L1BB.jpg","null","",NA,NA,NA,NA,""
"image-keyboard-response",304,354886,"0.0-3.97-2.97","6rufc2lcx3w072l",514,"117.csv","","null","resources/images/coin2.png","null","",NA,NA,NA,NA,""
"image-keyboard-response",305,355349,"0.0-3.98-0.98","6rufc2lcx3w072l",514,"117.csv","","460","resources/trios/L4T4A3.jpg","37","restless",0.8,0.3,0.3,0.140492301410497,"true"
"image-keyboard-response",306,355752,"0.0-3.98-1.98","6rufc2lcx3w072l",514,"117.csv","","null","resources/maskTrios/L4BB.jpg","null","",NA,NA,NA,NA,""
"image-keyboard-response",307,356955,"0.0-3.98-2.98","6rufc2lcx3w072l",514,"117.csv","","null","resources/images/coin2.png","null","",NA,NA,NA,NA,""
"image-keyboard-response",308,357323,"0.0-3.99-0.99","6rufc2lcx3w072l",514,"117.csv","","365","resources/trios/L1T1A3.jpg","37","restless",0.7,0.3,0.3,0.23422157735319,"true"
"image-keyboard-response",309,357726,"0.0-3.99-1.99","6rufc2lcx3w072l",514,"117.csv","","null","resources/maskTrios/L1BB.jpg","null","",NA,NA,NA,NA,""
"image-keyboard-response",310,358929,"0.0-3.99-2.99","6rufc2lcx3w072l",514,"117.csv","","null","resources/images/coin2.png","null","",NA,NA,NA,NA,""
"image-keyboard-response",311,359378,"0.0-3.100-0.100","6rufc2lcx3w072l",514,"117.csv","","446","resources/trios/L1T1A3.jpg","37","restless",0.7,0.4,0.3,0.10201121671806,"true"
"image-keyboard-response",312,359781,"0.0-3.100-1.100","6rufc2lcx3w072l",514,"117.csv","","null","resources/maskTrios/L1BB.jpg","null","",NA,NA,NA,NA,""
"image-keyboard-response",313,360984,"0.0-3.100-2.100","6rufc2lcx3w072l",514,"117.csv","","null","resources/images/coin2.png","null","",NA,NA,NA,NA,""
"image-keyboard-response",314,361294,"0.0-3.101-0.101","6rufc2lcx3w072l",514,"117.csv","","307","resources/trios/L1T1A3.jpg","37","restless",0.7,0.4,0.3,0.0616143236266036,"true"
"image-keyboard-response",315,361697,"0.0-3.101-1.101","6rufc2lcx3w072l",514,"117.csv","","null","resources/maskTrios/L1BB.jpg","null","",NA,NA,NA,NA,""
"image-keyboard-response",316,362900,"0.0-3.101-2.101","6rufc2lcx3w072l",514,"117.csv","","null","resources/images/coin2.png","null","",NA,NA,NA,NA,""
"image-keyboard-response",317,363194,"0.0-3.102-0.102","6rufc2lcx3w072l",514,"117.csv","","292.0000000000582","resources/trios/L4T1A3.jpg","37","restless",0.6,0.4,0.3,0.117530924499363,"true"
"image-keyboard-response",318,363597,"0.0-3.102-1.102","6rufc2lcx3w072l",514,"117.csv","","null","resources/maskTrios/L4BB.jpg","null","",NA,NA,NA,NA,""
"image-keyboard-response",319,364803,"0.0-3.102-2.102","6rufc2lcx3w072l",514,"117.csv","","null","resources/images/coin2.png","null","",NA,NA,NA,NA,""
"image-keyboard-response",320,365102,"0.0-3.103-0.103","6rufc2lcx3w072l",514,"117.csv","","296","resources/trios/L4T1A2.jpg","37","restless",0.6,0.4,0.3,0.750006779231923,"false"
"image-keyboard-response",321,365505,"0.0-3.103-1.103","6rufc2lcx3w072l",514,"117.csv","","null","resources/maskTrios/L4BB.jpg","null","",NA,NA,NA,NA,""
"image-keyboard-response",322,366708,"0.0-3.103-2.103","6rufc2lcx3w072l",514,"117.csv","","null","resources/images/fishbone.png","null","",NA,NA,NA,NA,""
"image-keyboard-response",323,367002,"0.0-3.104-0.104","6rufc2lcx3w072l",514,"117.csv","","291","resources/trios/L4T4A2.jpg","37","restless",0.6,0.4,0.3,0.15646142879505,"true"
"image-keyboard-response",324,367405,"0.0-3.104-1.104","6rufc2lcx3w072l",514,"117.csv","","null","resources/maskTrios/L4BB.jpg","null","",NA,NA,NA,NA,""
"image-keyboard-response",325,368608,"0.0-3.104-2.104","6rufc2lcx3w072l",514,"117.csv","","null","resources/images/coin2.png","null","",NA,NA,NA,NA,""
"image-keyboard-response",326,368862,"0.0-3.105-0.105","6rufc2lcx3w072l",514,"117.csv","","251.0000000000582","resources/trios/L1T1A3.jpg","37","restless",0.6,0.4,0.3,0.614727807414929,"false"
"image-keyboard-response",327,369265,"0.0-3.105-1.105","6rufc2lcx3w072l",514,"117.csv","","null","resources/maskTrios/L1BB.jpg","null","",NA,NA,NA,NA,""
"image-keyboard-response",328,370468,"0.0-3.105-2.105","6rufc2lcx3w072l",514,"117.csv","","null","resources/images/fishbone.png","null","",NA,NA,NA,NA,""
"image-keyboard-response",329,370772,"0.0-3.106-0.106","6rufc2lcx3w072l",514,"117.csv","","302","resources/trios/L1T1A2.jpg","37","restless",0.6,0.5,0.3,0.615988464158115,"false"
"image-keyboard-response",330,371175,"0.0-3.106-1.106","6rufc2lcx3w072l",514,"117.csv","","null","resources/maskTrios/L1BB.jpg","null","",NA,NA,NA,NA,""
"image-keyboard-response",331,372378,"0.0-3.106-2.106","6rufc2lcx3w072l",514,"117.csv","","null","resources/images/fishbone.png","null","",NA,NA,NA,NA,""
"image-keyboard-response",332,372689,"0.0-3.107-0.107","6rufc2lcx3w072l",514,"117.csv","","308.0000000000582","resources/trios/L4T1A2.jpg","37","restless",0.6,0.5,0.3,0.589695270882559,"true"
"image-keyboard-response",333,373092,"0.0-3.107-1.107","6rufc2lcx3w072l",514,"117.csv","","null","resources/maskTrios/L4BB.jpg","null","",NA,NA,NA,NA,""
"image-keyboard-response",334,374295,"0.0-3.107-2.107","6rufc2lcx3w072l",514,"117.csv","","null","resources/images/coin2.png","null","",NA,NA,NA,NA,""
"image-keyboard-response",335,374578,"0.0-3.108-0.108","6rufc2lcx3w072l",514,"117.csv","","280","resources/trios/L1T1A2.jpg","37","restless",0.6,0.5,0.3,0.276509881081324,"true"
"image-keyboard-response",336,374981,"0.0-3.108-1.108","6rufc2lcx3w072l",514,"117.csv","","null","resources/maskTrios/L1BB.jpg","null","",NA,NA,NA,NA,""
"image-keyboard-response",337,376184,"0.0-3.108-2.108","6rufc2lcx3w072l",514,"117.csv","","null","resources/images/coin2.png","null","",NA,NA,NA,NA,""
"image-keyboard-response",338,376293,"0.0-3.109-0.109","6rufc2lcx3w072l",514,"117.csv","","106","resources/trios/L4T4A2.jpg","37","restless",0.6,0.5,0.3,0.441201582558212,"true"
"image-keyboard-response",339,376698,"0.0-3.109-1.109","6rufc2lcx3w072l",514,"117.csv","","null","resources/maskTrios/L4BB.jpg","null","",NA,NA,NA,NA,""
"image-keyboard-response",340,377901,"0.0-3.109-2.109","6rufc2lcx3w072l",514,"117.csv","","null","resources/images/coin2.png","null","",NA,NA,NA,NA,""
"image-keyboard-response",341,378208,"0.0-3.110-0.110","6rufc2lcx3w072l",514,"117.csv","","305","resources/trios/L4T4A3.jpg","37","restless",0.6,0.5,0.3,0.469780892901803,"true"
"image-keyboard-response",342,378612,"0.0-3.110-1.110","6rufc2lcx3w072l",514,"117.csv","","null","resources/maskTrios/L4BB.jpg","null","",NA,NA,NA,NA,""
"image-keyboard-response",343,379818,"0.0-3.110-2.110","6rufc2lcx3w072l",514,"117.csv","","null","resources/images/coin2.png","null","",NA,NA,NA,NA,""
"image-keyboard-response",344,380099,"0.0-3.111-0.111","6rufc2lcx3w072l",514,"117.csv","","279.0000000000582","resources/trios/L4T4A2.jpg","37","restless",0.6,0.5,0.3,0.201716429398094,"true"
"image-keyboard-response",345,380503,"0.0-3.111-1.111","6rufc2lcx3w072l",514,"117.csv","","null","resources/maskTrios/L4BB.jpg","null","",NA,NA,NA,NA,""
"image-keyboard-response",346,381706,"0.0-3.111-2.111","6rufc2lcx3w072l",514,"117.csv","","null","resources/images/coin2.png","null","",NA,NA,NA,NA,""
"image-keyboard-response",347,382009,"0.0-3.112-0.112","6rufc2lcx3w072l",514,"117.csv","","301","resources/trios/L1T1A3.jpg","37","restless",0.6,0.5,0.3,0.181543872837998,"true"
"image-keyboard-response",348,382412,"0.0-3.112-1.112","6rufc2lcx3w072l",514,"117.csv","","null","resources/maskTrios/L1BB.jpg","null","",NA,NA,NA,NA,""
"image-keyboard-response",349,383616,"0.0-3.112-2.112","6rufc2lcx3w072l",514,"117.csv","","null","resources/images/coin2.png","null","",NA,NA,NA,NA,""
"image-keyboard-response",350,383967,"0.0-3.113-0.113","6rufc2lcx3w072l",514,"117.csv","","347.0000000000582","resources/trios/L1T1A3.jpg","37","restless",0.6,0.5,0.3,0.00729969423488908,"true"
"image-keyboard-response",351,384370,"0.0-3.113-1.113","6rufc2lcx3w072l",514,"117.csv","","null","resources/maskTrios/L1BB.jpg","null","",NA,NA,NA,NA,""
"image-keyboard-response",352,385574,"0.0-3.113-2.113","6rufc2lcx3w072l",514,"117.csv","","null","resources/images/coin2.png","null","",NA,NA,NA,NA,""
"image-keyboard-response",353,385860,"0.0-3.114-0.114","6rufc2lcx3w072l",514,"117.csv","","284","resources/trios/L4T4A3.jpg","37","restless",0.6,0.5,0.3,0.0939470860930147,"true"
"image-keyboard-response",354,386263,"0.0-3.114-1.114","6rufc2lcx3w072l",514,"117.csv","","null","resources/maskTrios/L4BB.jpg","null","",NA,NA,NA,NA,""
"image-keyboard-response",355,387466,"0.0-3.114-2.114","6rufc2lcx3w072l",514,"117.csv","","null","resources/images/coin2.png","null","",NA,NA,NA,NA,""
"image-keyboard-response",356,387763,"0.0-3.115-0.115","6rufc2lcx3w072l",514,"117.csv","","294","resources/trios/L1T1A3.jpg","37","restless",0.6,0.6,0.3,0.354002158804546,"true"
"image-keyboard-response",357,388168,"0.0-3.115-1.115","6rufc2lcx3w072l",514,"117.csv","","null","resources/maskTrios/L1BB.jpg","null","",NA,NA,NA,NA,""
"image-keyboard-response",358,389372,"0.0-3.115-2.115","6rufc2lcx3w072l",514,"117.csv","","null","resources/images/coin2.png","null","",NA,NA,NA,NA,""
"image-keyboard-response",359,389660,"0.0-3.116-0.116","6rufc2lcx3w072l",514,"117.csv","","286","resources/trios/L1T4A2.jpg","37","restless",0.6,0.6,0.3,0.667244928967997,"false"
"image-keyboard-response",360,390064,"0.0-3.116-1.116","6rufc2lcx3w072l",514,"117.csv","","null","resources/maskTrios/L1BB.jpg","null","",NA,NA,NA,NA,""
"image-keyboard-response",361,391266,"0.0-3.116-2.116","6rufc2lcx3w072l",514,"117.csv","","null","resources/images/fishbone.png","null","",NA,NA,NA,NA,""
"image-keyboard-response",362,391483,"0.0-3.117-0.117","6rufc2lcx3w072l",514,"117.csv","","214","resources/trios/L1T4A2.jpg","37","restless",0.7,0.6,0.3,0.296820738039107,"true"
"image-keyboard-response",363,391887,"0.0-3.117-1.117","6rufc2lcx3w072l",514,"117.csv","","null","resources/maskTrios/L1BB.jpg","null","",NA,NA,NA,NA,""
"image-keyboard-response",364,393090,"0.0-3.117-2.117","6rufc2lcx3w072l",514,"117.csv","","null","resources/images/coin2.png","null","",NA,NA,NA,NA,""
"image-keyboard-response",365,393586,"0.0-3.118-0.118","6rufc2lcx3w072l",514,"117.csv","","493.9999999999418","resources/trios/L1T1A2.jpg","37","restless",0.7,0.6,0.2,0.68490172836423,"true"
"image-keyboard-response",366,393989,"0.0-3.118-1.118","6rufc2lcx3w072l",514,"117.csv","","null","resources/maskTrios/L1BB.jpg","null","",NA,NA,NA,NA,""
"image-keyboard-response",367,395193,"0.0-3.118-2.118","6rufc2lcx3w072l",514,"117.csv","","null","resources/images/coin2.png","null","",NA,NA,NA,NA,""
"image-keyboard-response",368,395587,"0.0-3.119-0.119","6rufc2lcx3w072l",514,"117.csv","","392.0000000000582","resources/trios/L4T4A3.jpg","37","restless",0.7,0.6,0.2,0.795477088512852,"false"
"image-keyboard-response",369,395990,"0.0-3.119-1.119","6rufc2lcx3w072l",514,"117.csv","","null","resources/maskTrios/L4BB.jpg","null","",NA,NA,NA,NA,""
"image-keyboard-response",370,397192,"0.0-3.119-2.119","6rufc2lcx3w072l",514,"117.csv","","null","resources/images/fishbone.png","null","",NA,NA,NA,NA,""
"image-keyboard-response",371,397441,"0.0-3.120-0.120","6rufc2lcx3w072l",514,"117.csv","","246","resources/trios/L1T1A3.jpg","37","restless",0.6,0.6,0.2,0.0504876663250007,"true"
"image-keyboard-response",372,397844,"0.0-3.120-1.120","6rufc2lcx3w072l",514,"117.csv","","null","resources/maskTrios/L1BB.jpg","null","",NA,NA,NA,NA,""
"image-keyboard-response",373,399048,"0.0-3.120-2.120","6rufc2lcx3w072l",514,"117.csv","","null","resources/images/coin2.png","null","",NA,NA,NA,NA,""
"image-keyboard-response",374,399982,"0.0-3.121-0.121","6rufc2lcx3w072l",514,"117.csv","","932","resources/trios/L1T1A2.jpg","37","restless",0.6,0.6,0.2,0.645629315108344,"false"
"image-keyboard-response",375,400388,"0.0-3.121-1.121","6rufc2lcx3w072l",514,"117.csv","","null","resources/maskTrios/L1BB.jpg","null","",NA,NA,NA,NA,""
"image-keyboard-response",376,401591,"0.0-3.121-2.121","6rufc2lcx3w072l",514,"117.csv","","null","resources/images/fishbone.png","null","",NA,NA,NA,NA,""
"image-keyboard-response",377,401891,"0.0-3.122-0.122","6rufc2lcx3w072l",514,"117.csv","","297","resources/trios/L1T4A3.jpg","37","restless",0.6,0.6,0.2,0.16802032192759,"true"
"image-keyboard-response",378,402295,"0.0-3.122-1.122","6rufc2lcx3w072l",514,"117.csv","","null","resources/maskTrios/L1BB.jpg","null","",NA,NA,NA,NA,""
"image-keyboard-response",379,403501,"0.0-3.122-2.122","6rufc2lcx3w072l",514,"117.csv","","null","resources/images/coin2.png","null","",NA,NA,NA,NA,""
"image-keyboard-response",380,403562,"0.0-3.123-0.123","6rufc2lcx3w072l",514,"117.csv","","59.00000000005821","resources/trios/L1T4A2.jpg","37","restless",0.6,0.6,0.2,0.207317909631466,"true"
"image-keyboard-response",381,403964,"0.0-3.123-1.123","6rufc2lcx3w072l",514,"117.csv","","null","resources/maskTrios/L1BB.jpg","null","",NA,NA,NA,NA,""
"image-keyboard-response",382,405167,"0.0-3.123-2.123","6rufc2lcx3w072l",514,"117.csv","","null","resources/images/coin2.png","null","",NA,NA,NA,NA,""
"image-keyboard-response",383,405300,"0.0-3.124-0.124","6rufc2lcx3w072l",514,"117.csv","","131.0000000000582","resources/trios/L4T1A2.jpg","37","restless",0.6,0.6,0.3,0.566434892529253,"true"
"image-keyboard-response",384,405704,"0.0-3.124-1.124","6rufc2lcx3w072l",514,"117.csv","","null","resources/maskTrios/L4BB.jpg","null","",NA,NA,NA,NA,""
"image-keyboard-response",385,406907,"0.0-3.124-2.124","6rufc2lcx3w072l",514,"117.csv","","null","resources/images/coin2.png","null","",NA,NA,NA,NA,""
"image-keyboard-response",386,407017,"0.0-3.125-0.125","6rufc2lcx3w072l",514,"117.csv","","108","resources/trios/L1T1A3.jpg","37","restless",0.6,0.6,0.3,0.137619553044539,"true"
"image-keyboard-response",387,407421,"0.0-3.125-1.125","6rufc2lcx3w072l",514,"117.csv","","null","resources/maskTrios/L1BB.jpg","null","",NA,NA,NA,NA,""
"image-keyboard-response",388,408624,"0.0-3.125-2.125","6rufc2lcx3w072l",514,"117.csv","","null","resources/images/coin2.png","null","",NA,NA,NA,NA,""
"image-keyboard-response",389,408721,"0.0-3.126-0.126","6rufc2lcx3w072l",514,"117.csv","","93","resources/trios/L1T1A3.jpg","37","restless",0.6,0.6,0.3,0.560373511102451,"true"
"image-keyboard-response",390,409123,"0.0-3.126-1.126","6rufc2lcx3w072l",514,"117.csv","","null","resources/maskTrios/L1BB.jpg","null","",NA,NA,NA,NA,""
"image-keyboard-response",391,410326,"0.0-3.126-2.126","6rufc2lcx3w072l",514,"117.csv","","null","resources/images/coin2.png","null","",NA,NA,NA,NA,""
"image-keyboard-response",392,410552,"0.0-3.127-0.127","6rufc2lcx3w072l",514,"117.csv","","224","resources/trios/L4T4A2.jpg","37","restless",0.5,0.6,0.3,0.372362395735786,"true"
"image-keyboard-response",393,410955,"0.0-3.127-1.127","6rufc2lcx3w072l",514,"117.csv","","null","resources/maskTrios/L4BB.jpg","null","",NA,NA,NA,NA,""
"image-keyboard-response",394,412158,"0.0-3.127-2.127","6rufc2lcx3w072l",514,"117.csv","","null","resources/images/coin2.png","null","",NA,NA,NA,NA,""
"image-keyboard-response",395,412389,"0.0-3.128-0.128","6rufc2lcx3w072l",514,"117.csv","","225.0000000000582","resources/trios/L4T4A2.jpg","37","restless",0.5,0.6,0.3,0.663872209835935,"false"
"image-keyboard-response",396,412793,"0.0-3.128-1.128","6rufc2lcx3w072l",514,"117.csv","","null","resources/maskTrios/L4BB.jpg","null","",NA,NA,NA,NA,""
"image-keyboard-response",397,413996,"0.0-3.128-2.128","6rufc2lcx3w072l",514,"117.csv","","null","resources/images/fishbone.png","null","",NA,NA,NA,NA,""
"image-keyboard-response",398,414143,"0.0-3.129-0.129","6rufc2lcx3w072l",514,"117.csv","","145","resources/trios/L4T4A3.jpg","37","restless",0.5,0.6,0.3,0.569195845274768,"false"
"image-keyboard-response",399,414546,"0.0-3.129-1.129","6rufc2lcx3w072l",514,"117.csv","","null","resources/maskTrios/L4BB.jpg","null","",NA,NA,NA,NA,""
"image-keyboard-response",400,415749,"0.0-3.129-2.129","6rufc2lcx3w072l",514,"117.csv","","null","resources/images/fishbone.png","null","",NA,NA,NA,NA,""
"image-keyboard-response",401,415813,"0.0-3.130-0.130","6rufc2lcx3w072l",514,"117.csv","","62","resources/trios/L4T4A2.jpg","37","restless",0.5,0.6,0.3,0.0399731030995981,"true"
"image-keyboard-response",402,416217,"0.0-3.130-1.130","6rufc2lcx3w072l",514,"117.csv","","null","resources/maskTrios/L4BB.jpg","null","",NA,NA,NA,NA,""
"image-keyboard-response",403,417420,"0.0-3.130-2.130","6rufc2lcx3w072l",514,"117.csv","","null","resources/images/coin2.png","null","",NA,NA,NA,NA,""
"image-keyboard-response",404,417485,"0.0-3.131-0.131","6rufc2lcx3w072l",514,"117.csv","","64","resources/trios/L4T1A2.jpg","37","restless",0.5,0.6,0.3,0.461927828338896,"true"
"image-keyboard-response",405,417887,"0.0-3.131-1.131","6rufc2lcx3w072l",514,"117.csv","","null","resources/maskTrios/L4BB.jpg","null","",NA,NA,NA,NA,""
"image-keyboard-response",406,419090,"0.0-3.131-2.131","6rufc2lcx3w072l",514,"117.csv","","null","resources/images/coin2.png","null","",NA,NA,NA,NA,""
"image-keyboard-response",407,419100,"0.0-3.132-0.132","6rufc2lcx3w072l",514,"117.csv","","8","resources/trios/L4T1A2.jpg","37","restless",0.5,0.6,0.3,0.514065965127447,"false"
"image-keyboard-response",408,419502,"0.0-3.132-1.132","6rufc2lcx3w072l",514,"117.csv","","null","resources/maskTrios/L4BB.jpg","null","",NA,NA,NA,NA,""
"image-keyboard-response",409,420705,"0.0-3.132-2.132","6rufc2lcx3w072l",514,"117.csv","","null","resources/images/fishbone.png","null","",NA,NA,NA,NA,""
"image-keyboard-response",410,420898,"0.0-3.133-0.133","6rufc2lcx3w072l",514,"117.csv","","191","resources/trios/L1T1A2.jpg","37","restless",0.5,0.6,0.3,0.882107693914576,"false"
"image-keyboard-response",411,421302,"0.0-3.133-1.133","6rufc2lcx3w072l",514,"117.csv","","null","resources/maskTrios/L1BB.jpg","null","",NA,NA,NA,NA,""
"image-keyboard-response",412,422505,"0.0-3.133-2.133","6rufc2lcx3w072l",514,"117.csv","","null","resources/images/fishbone.png","null","",NA,NA,NA,NA,""
"image-keyboard-response",413,422566,"0.0-3.134-0.134","6rufc2lcx3w072l",514,"117.csv","","59","resources/trios/L1T4A2.jpg","37","restless",0.5,0.6,0.3,0.431442414097409,"true"
"image-keyboard-response",414,422972,"0.0-3.134-1.134","6rufc2lcx3w072l",514,"117.csv","","null","resources/maskTrios/L1BB.jpg","null","",NA,NA,NA,NA,""
"image-keyboard-response",415,424175,"0.0-3.134-2.134","6rufc2lcx3w072l",514,"117.csv","","null","resources/images/coin2.png","null","",NA,NA,NA,NA,""
"image-keyboard-response",416,424259,"0.0-3.135-0.135","6rufc2lcx3w072l",514,"117.csv","","81.00000000005821","resources/trios/L4T4A3.jpg","37","restless",0.5,0.6,0.3,0.476440665712242,"true"
"image-keyboard-response",417,424662,"0.0-3.135-1.135","6rufc2lcx3w072l",514,"117.csv","","null","resources/maskTrios/L4BB.jpg","null","",NA,NA,NA,NA,""
"image-keyboard-response",418,425865,"0.0-3.135-2.135","6rufc2lcx3w072l",514,"117.csv","","null","resources/images/coin2.png","null","",NA,NA,NA,NA,""
"image-keyboard-response",419,426077,"0.0-3.136-0.136","6rufc2lcx3w072l",514,"117.csv","","207","resources/trios/L1T4A2.jpg","37","restless",0.5,0.6,0.3,0.8834178217154,"false"
"image-keyboard-response",420,426480,"0.0-3.136-1.136","6rufc2lcx3w072l",514,"117.csv","","null","resources/maskTrios/L1BB.jpg","null","",NA,NA,NA,NA,""
"image-keyboard-response",421,427683,"0.0-3.136-2.136","6rufc2lcx3w072l",514,"117.csv","","null","resources/images/fishbone.png","null","",NA,NA,NA,NA,""
"image-keyboard-response",422,427776,"0.0-3.137-0.137","6rufc2lcx3w072l",514,"117.csv","","91","resources/trios/L1T4A2.jpg","37","restless",0.5,0.6,0.3,0.0390551571869244,"true"
"image-keyboard-response",423,428178,"0.0-3.137-1.137","6rufc2lcx3w072l",514,"117.csv","","null","resources/maskTrios/L1BB.jpg","null","",NA,NA,NA,NA,""
"image-keyboard-response",424,429381,"0.0-3.137-2.137","6rufc2lcx3w072l",514,"117.csv","","null","resources/images/coin2.png","null","",NA,NA,NA,NA,""
"image-keyboard-response",425,429611,"0.0-3.138-0.138","6rufc2lcx3w072l",514,"117.csv","","225","resources/trios/L4T1A3.jpg","37","restless",0.5,0.6,0.3,0.729157456933804,"false"
"image-keyboard-response",426,430014,"0.0-3.138-1.138","6rufc2lcx3w072l",514,"117.csv","","null","resources/maskTrios/L4BB.jpg","null","",NA,NA,NA,NA,""
"image-keyboard-response",427,431217,"0.0-3.138-2.138","6rufc2lcx3w072l",514,"117.csv","","null","resources/images/fishbone.png","null","",NA,NA,NA,NA,""
"image-keyboard-response",428,431634,"0.0-3.139-0.139","6rufc2lcx3w072l",514,"117.csv","","414.0000000000582","resources/trios/L1T4A3.jpg","37","restless",0.5,0.5,0.3,0.334249728967429,"true"
"image-keyboard-response",429,432037,"0.0-3.139-1.139","6rufc2lcx3w072l",514,"117.csv","","null","resources/maskTrios/L1BB.jpg","null","",NA,NA,NA,NA,""
"image-keyboard-response",430,433241,"0.0-3.139-2.139","6rufc2lcx3w072l",514,"117.csv","","null","resources/images/coin2.png","null","",NA,NA,NA,NA,""
"image-keyboard-response",431,433519,"0.0-3.140-0.140","6rufc2lcx3w072l",514,"117.csv","","276","resources/trios/L4T1A2.jpg","37","restless",0.5,0.5,0.3,0.0458976693891379,"true"
"image-keyboard-response",432,433922,"0.0-3.140-1.140","6rufc2lcx3w072l",514,"117.csv","","null","resources/maskTrios/L4BB.jpg","null","",NA,NA,NA,NA,""
"image-keyboard-response",433,435125,"0.0-3.140-2.140","6rufc2lcx3w072l",514,"117.csv","","null","resources/images/coin2.png","null","",NA,NA,NA,NA,""
"image-keyboard-response",434,435469,"0.0-3.141-0.141","6rufc2lcx3w072l",514,"117.csv","","341","resources/trios/L1T4A2.jpg","37","restless",0.5,0.5,0.3,0.638173857960205,"false"
"image-keyboard-response",435,435872,"0.0-3.141-1.141","6rufc2lcx3w072l",514,"117.csv","","null","resources/maskTrios/L1BB.jpg","null","",NA,NA,NA,NA,""
"image-keyboard-response",436,437075,"0.0-3.141-2.141","6rufc2lcx3w072l",514,"117.csv","","null","resources/images/fishbone.png","null","",NA,NA,NA,NA,""
"image-keyboard-response",437,437357,"0.0-3.142-0.142","6rufc2lcx3w072l",514,"117.csv","","280","resources/trios/L4T1A3.jpg","38","restless",0.5,0.5,0.3,0.501325362214565,"false"
"image-keyboard-response",438,437760,"0.0-3.142-1.142","6rufc2lcx3w072l",514,"117.csv","","null","resources/maskTrios/BT1B.jpg","null","",NA,NA,NA,NA,""
"image-keyboard-response",439,438963,"0.0-3.142-2.142","6rufc2lcx3w072l",514,"117.csv","","null","resources/images/fishbone.png","null","",NA,NA,NA,NA,""
"image-keyboard-response",440,439241,"0.0-3.143-0.143","6rufc2lcx3w072l",514,"117.csv","","275.9999999999418","resources/trios/L1T1A3.jpg","38","restless",0.5,0.5,0.3,0.685195789440363,"false"
"image-keyboard-response",441,439644,"0.0-3.143-1.143","6rufc2lcx3w072l",514,"117.csv","","null","resources/maskTrios/BT1B.jpg","null","",NA,NA,NA,NA,""
"image-keyboard-response",442,440849,"0.0-3.143-2.143","6rufc2lcx3w072l",514,"117.csv","","null","resources/images/fishbone.png","null","",NA,NA,NA,NA,""
"image-keyboard-response",443,441118,"0.0-3.144-0.144","6rufc2lcx3w072l",514,"117.csv","","265","resources/trios/L1T1A2.jpg","38","restless",0.5,0.5,0.3,0.649079891904276,"false"
"image-keyboard-response",444,441522,"0.0-3.144-1.144","6rufc2lcx3w072l",514,"117.csv","","null","resources/maskTrios/BT1B.jpg","null","",NA,NA,NA,NA,""
"image-keyboard-response",445,442725,"0.0-3.144-2.144","6rufc2lcx3w072l",514,"117.csv","","null","resources/images/fishbone.png","null","",NA,NA,NA,NA,""
"image-keyboard-response",446,443011,"0.0-3.145-0.145","6rufc2lcx3w072l",514,"117.csv","","283.9999999999418","resources/trios/L1T4A2.jpg","39","restless",0.4,0.5,0.3,0.248795332132627,"true"
"image-keyboard-response",447,443414,"0.0-3.145-1.145","6rufc2lcx3w072l",514,"117.csv","","null","resources/maskTrios/BBA2.jpg","null","",NA,NA,NA,NA,""
"image-keyboard-response",448,444617,"0.0-3.145-2.145","6rufc2lcx3w072l",514,"117.csv","","null","resources/images/coin2.png","null","",NA,NA,NA,NA,""
"image-keyboard-response",449,444859,"0.0-3.146-0.146","6rufc2lcx3w072l",514,"117.csv","","239.0000000000582","resources/trios/L1T4A3.jpg","39","restless",0.4,0.5,0.3,0.345806542127174,"false"
"image-keyboard-response",450,445262,"0.0-3.146-1.146","6rufc2lcx3w072l",514,"117.csv","","null","resources/maskTrios/BBA3.jpg","null","",NA,NA,NA,NA,""
"image-keyboard-response",451,446465,"0.0-3.146-2.146","6rufc2lcx3w072l",514,"117.csv","","null","resources/images/fishbone.png","null","",NA,NA,NA,NA,""
"image-keyboard-response",452,446717,"0.0-3.147-0.147","6rufc2lcx3w072l",514,"117.csv","","249","resources/trios/L1T4A2.jpg","39","restless",0.4,0.5,0.3,0.389994012423166,"false"
"image-keyboard-response",453,447120,"0.0-3.147-1.147","6rufc2lcx3w072l",514,"117.csv","","null","resources/maskTrios/BBA2.jpg","null","",NA,NA,NA,NA,""
"image-keyboard-response",454,448323,"0.0-3.147-2.147","6rufc2lcx3w072l",514,"117.csv","","null","resources/images/fishbone.png","null","",NA,NA,NA,NA,""
"image-keyboard-response",455,448640,"0.0-3.148-0.148","6rufc2lcx3w072l",514,"117.csv","","315","resources/trios/L4T4A2.jpg","37","restless",0.4,0.5,0.3,0.913534919370951,"false"
"image-keyboard-response",456,449043,"0.0-3.148-1.148","6rufc2lcx3w072l",514,"117.csv","","null","resources/maskTrios/L4BB.jpg","null","",NA,NA,NA,NA,""
"image-keyboard-response",457,450245,"0.0-3.148-2.148","6rufc2lcx3w072l",514,"117.csv","","null","resources/images/fishbone.png","null","",NA,NA,NA,NA,""
"image-keyboard-response",458,450956,"0.0-3.149-0.149","6rufc2lcx3w072l",514,"117.csv","","710","resources/trios/L1T4A3.jpg","37","restless",0.3,0.5,0.3,0.106745088303505,"true"
"image-keyboard-response",459,451359,"0.0-3.149-1.149","6rufc2lcx3w072l",514,"117.csv","","null","resources/maskTrios/L1BB.jpg","null","",NA,NA,NA,NA,""
"image-keyboard-response",460,452565,"0.0-3.149-2.149","6rufc2lcx3w072l",514,"117.csv","","null","resources/images/coin2.png","null","",NA,NA,NA,NA,""
"image-keyboard-response",461,453118,"0.0-3.150-0.150","6rufc2lcx3w072l",514,"117.csv","","549","resources/trios/L1T1A2.jpg","37","restless",0.3,0.5,0.3,0.966759060709664,"false"
"image-keyboard-response",462,453521,"0.0-3.150-1.150","6rufc2lcx3w072l",514,"117.csv","","null","resources/maskTrios/L1BB.jpg","null","",NA,NA,NA,NA,""
"image-keyboard-response",463,454724,"0.0-3.150-2.150","6rufc2lcx3w072l",514,"117.csv","","null","resources/images/fishbone.png","null","",NA,NA,NA,NA,""
"image-keyboard-response",464,455023,"0.0-3.151-0.151","6rufc2lcx3w072l",514,"117.csv","","296.9999999999418","resources/trios/L1T1A2.jpg","37","restless",0.3,0.5,0.3,0.175609112199585,"true"
"image-keyboard-response",465,455427,"0.0-3.151-1.151","6rufc2lcx3w072l",514,"117.csv","","null","resources/maskTrios/L1BB.jpg","null","",NA,NA,NA,NA,""
"image-keyboard-response",466,456630,"0.0-3.151-2.151","6rufc2lcx3w072l",514,"117.csv","","null","resources/images/coin2.png","null","",NA,NA,NA,NA,""
"image-keyboard-response",467,459019,"0.0-3.152-0.152","6rufc2lcx3w072l",514,"117.csv","","2384.000000000058","resources/trios/L4T1A3.jpg","37","restless",0.3,0.5,0.3,0.730284468214347,"false"
"image-keyboard-response",468,459423,"0.0-3.152-1.152","6rufc2lcx3w072l",514,"117.csv","","null","resources/maskTrios/L4BB.jpg","null","",NA,NA,NA,NA,""
"image-keyboard-response",469,460627,"0.0-3.152-2.152","6rufc2lcx3w072l",514,"117.csv","","null","resources/images/fishbone.png","null","",NA,NA,NA,NA,""
"image-keyboard-response",470,461334,"0.0-3.153-0.153","6rufc2lcx3w072l",514,"117.csv","","704.0000000000582","resources/trios/L4T1A3.jpg","37","restless",0.2,0.5,0.3,0.210603475453928,"false"
"image-keyboard-response",471,461738,"0.0-3.153-1.153","6rufc2lcx3w072l",514,"117.csv","","null","resources/maskTrios/L4BB.jpg","null","",NA,NA,NA,NA,""
"image-keyboard-response",472,462940,"0.0-3.153-2.153","6rufc2lcx3w072l",514,"117.csv","","null","resources/images/fishbone.png","null","",NA,NA,NA,NA,""
"image-keyboard-response",473,463290,"0.0-3.154-0.154","6rufc2lcx3w072l",514,"117.csv","","347","resources/trios/L1T1A3.jpg","37","restless",0.2,0.5,0.3,0.0939932239779268,"true"
"image-keyboard-response",474,463694,"0.0-3.154-1.154","6rufc2lcx3w072l",514,"117.csv","","null","resources/maskTrios/L1BB.jpg","null","",NA,NA,NA,NA,""
"image-keyboard-response",475,464897,"0.0-3.154-2.154","6rufc2lcx3w072l",514,"117.csv","","null","resources/images/coin2.png","null","",NA,NA,NA,NA,""
"image-keyboard-response",476,465284,"0.0-3.155-0.155","6rufc2lcx3w072l",514,"117.csv","","384.9999999999418","resources/trios/L1T1A2.jpg","37","restless",0.2,0.5,0.3,0.471910997896915,"false"
"image-keyboard-response",477,465688,"0.0-3.155-1.155","6rufc2lcx3w072l",514,"117.csv","","null","resources/maskTrios/L1BB.jpg","null","",NA,NA,NA,NA,""
"image-keyboard-response",478,466890,"0.0-3.155-2.155","6rufc2lcx3w072l",514,"117.csv","","null","resources/images/fishbone.png","null","",NA,NA,NA,NA,""
"image-keyboard-response",479,467414,"0.0-3.156-0.156","6rufc2lcx3w072l",514,"117.csv","","521","resources/trios/L1T4A2.jpg","37","restless",0.2,0.5,0.3,0.779696736752317,"false"
"image-keyboard-response",480,467817,"0.0-3.156-1.156","6rufc2lcx3w072l",514,"117.csv","","null","resources/maskTrios/L1BB.jpg","null","",NA,NA,NA,NA,""
"image-keyboard-response",481,469020,"0.0-3.156-2.156","6rufc2lcx3w072l",514,"117.csv","","null","resources/images/fishbone.png","null","",NA,NA,NA,NA,""
"image-keyboard-response",482,469057,"0.0-3.157-0.157","6rufc2lcx3w072l",514,"117.csv","","34","resources/trios/L4T4A2.jpg","37","restless",0.2,0.5,0.3,0.0836423077227654,"true"
"image-keyboard-response",483,469459,"0.0-3.157-1.157","6rufc2lcx3w072l",514,"117.csv","","null","resources/maskTrios/L4BB.jpg","null","",NA,NA,NA,NA,""
"image-keyboard-response",484,470662,"0.0-3.157-2.157","6rufc2lcx3w072l",514,"117.csv","","null","resources/images/coin2.png","null","",NA,NA,NA,NA,""
"image-keyboard-response",485,471191,"0.0-3.158-0.158","6rufc2lcx3w072l",514,"117.csv","","526","resources/trios/L4T4A3.jpg","37","restless",0.2,0.5,0.3,0.863641021571698,"false"
"image-keyboard-response",486,471594,"0.0-3.158-1.158","6rufc2lcx3w072l",514,"117.csv","","null","resources/maskTrios/L4BB.jpg","null","",NA,NA,NA,NA,""
"image-keyboard-response",487,472797,"0.0-3.158-2.158","6rufc2lcx3w072l",514,"117.csv","","null","resources/images/fishbone.png","null","",NA,NA,NA,NA,""
"image-keyboard-response",488,473157,"0.0-3.159-0.159","6rufc2lcx3w072l",514,"117.csv","","358","resources/trios/L1T1A2.jpg","37","restless",0.2,0.5,0.3,0.596249845552846,"false"
"image-keyboard-response",489,473561,"0.0-3.159-1.159","6rufc2lcx3w072l",514,"117.csv","","null","resources/maskTrios/L1BB.jpg","null","",NA,NA,NA,NA,""
"image-keyboard-response",490,474763,"0.0-3.159-2.159","6rufc2lcx3w072l",514,"117.csv","","null","resources/images/fishbone.png","null","",NA,NA,NA,NA,""
"image-keyboard-response",491,475373,"0.0-3.160-0.160","6rufc2lcx3w072l",514,"117.csv","","608","resources/trios/L1T1A3.jpg","37","restless",0.2,0.5,0.3,0.970421602075779,"false"
"image-keyboard-response",492,475776,"0.0-3.160-1.160","6rufc2lcx3w072l",514,"117.csv","","null","resources/maskTrios/L1BB.jpg","null","",NA,NA,NA,NA,""
"image-keyboard-response",493,476979,"0.0-3.160-2.160","6rufc2lcx3w072l",514,"117.csv","","null","resources/images/fishbone.png","null","",NA,NA,NA,NA,""
"image-keyboard-response",494,477391,"0.0-3.161-0.161","6rufc2lcx3w072l",514,"117.csv","","410","resources/trios/L1T1A2.jpg","37","restless",0.2,0.4,0.3,0.46732860864132,"false"
"image-keyboard-response",495,477794,"0.0-3.161-1.161","6rufc2lcx3w072l",514,"117.csv","","null","resources/maskTrios/L1BB.jpg","null","",NA,NA,NA,NA,""
"image-keyboard-response",496,478997,"0.0-3.161-2.161","6rufc2lcx3w072l",514,"117.csv","","null","resources/images/fishbone.png","null","",NA,NA,NA,NA,""
"image-keyboard-response",497,479702,"0.0-3.162-0.162","6rufc2lcx3w072l",514,"117.csv","","702","resources/trios/L1T4A3.jpg","38","restless",0.2,0.4,0.3,0.182732859165267,"true"
"image-keyboard-response",498,480105,"0.0-3.162-1.162","6rufc2lcx3w072l",514,"117.csv","","null","resources/maskTrios/BT4B.jpg","null","",NA,NA,NA,NA,""
"image-keyboard-response",499,481308,"0.0-3.162-2.162","6rufc2lcx3w072l",514,"117.csv","","null","resources/images/coin2.png","null","",NA,NA,NA,NA,""
"image-keyboard-response",500,481590,"0.0-3.163-0.163","6rufc2lcx3w072l",514,"117.csv","","280","resources/trios/L4T1A3.jpg","38","restless",0.2,0.4,0.4,0.204403108154846,"true"
"image-keyboard-response",501,481994,"0.0-3.163-1.163","6rufc2lcx3w072l",514,"117.csv","","null","resources/maskTrios/BT1B.jpg","null","",NA,NA,NA,NA,""
"image-keyboard-response",502,483197,"0.0-3.163-2.163","6rufc2lcx3w072l",514,"117.csv","","null","resources/images/coin2.png","null","",NA,NA,NA,NA,""
"image-keyboard-response",503,483518,"0.0-3.164-0.164","6rufc2lcx3w072l",514,"117.csv","","318","resources/trios/L1T4A2.jpg","38","restless",0.2,0.3,0.4,0.0551003737195701,"true"
"image-keyboard-response",504,483921,"0.0-3.164-1.164","6rufc2lcx3w072l",514,"117.csv","","null","resources/maskTrios/BT4B.jpg","null","",NA,NA,NA,NA,""
"image-keyboard-response",505,485124,"0.0-3.164-2.164","6rufc2lcx3w072l",514,"117.csv","","null","resources/images/coin2.png","null","",NA,NA,NA,NA,""
"image-keyboard-response",506,485428,"0.0-3.165-0.165","6rufc2lcx3w072l",514,"117.csv","","299","resources/trios/L4T4A3.jpg","38","restless",0.2,0.3,0.4,0.870126276466047,"false"
"image-keyboard-response",507,485832,"0.0-3.165-1.165","6rufc2lcx3w072l",514,"117.csv","","null","resources/maskTrios/BT4B.jpg","null","",NA,NA,NA,NA,""
"image-keyboard-response",508,487035,"0.0-3.165-2.165","6rufc2lcx3w072l",514,"117.csv","","null","resources/images/fishbone.png","null","",NA,NA,NA,NA,""
"image-keyboard-response",509,487511,"0.0-3.166-0.166","6rufc2lcx3w072l",514,"117.csv","","473.0000000000582","resources/trios/L4T1A3.jpg","38","restless",0.2,0.3,0.4,0.775493775104055,"false"
"image-keyboard-response",510,487915,"0.0-3.166-1.166","6rufc2lcx3w072l",514,"117.csv","","null","resources/maskTrios/BT1B.jpg","null","",NA,NA,NA,NA,""
"image-keyboard-response",511,489117,"0.0-3.166-2.166","6rufc2lcx3w072l",514,"117.csv","","null","resources/images/fishbone.png","null","",NA,NA,NA,NA,""
"image-keyboard-response",512,489441,"0.0-3.167-0.167","6rufc2lcx3w072l",514,"117.csv","","321","resources/trios/L4T1A3.jpg","37","restless",0.2,0.2,0.4,0.945471979680321,"false"
"image-keyboard-response",513,489844,"0.0-3.167-1.167","6rufc2lcx3w072l",514,"117.csv","","null","resources/maskTrios/L4BB.jpg","null","",NA,NA,NA,NA,""
"image-keyboard-response",514,491047,"0.0-3.167-2.167","6rufc2lcx3w072l",514,"117.csv","","null","resources/images/fishbone.png","null","",NA,NA,NA,NA,""
"image-keyboard-response",515,491349,"0.0-3.168-0.168","6rufc2lcx3w072l",514,"117.csv","","299","resources/trios/L4T4A2.jpg","37","restless",0.2,0.2,0.4,0.981022633694192,"false"
"image-keyboard-response",516,491752,"0.0-3.168-1.168","6rufc2lcx3w072l",514,"117.csv","","null","resources/maskTrios/L4BB.jpg","null","",NA,NA,NA,NA,""
"image-keyboard-response",517,492955,"0.0-3.168-2.168","6rufc2lcx3w072l",514,"117.csv","","null","resources/images/fishbone.png","null","",NA,NA,NA,NA,""
"image-keyboard-response",518,493247,"0.0-3.169-0.169","6rufc2lcx3w072l",514,"117.csv","","289.9999999999418","resources/trios/L1T1A2.jpg","39","restless",0.2,0.2,0.4,0.22617013315649,"true"
"image-keyboard-response",519,493651,"0.0-3.169-1.169","6rufc2lcx3w072l",514,"117.csv","","null","resources/maskTrios/BBA2.jpg","null","",NA,NA,NA,NA,""
"image-keyboard-response",520,494854,"0.0-3.169-2.169","6rufc2lcx3w072l",514,"117.csv","","null","resources/images/coin2.png","null","",NA,NA,NA,NA,""
"image-keyboard-response",521,495184,"0.0-3.170-0.170","6rufc2lcx3w072l",514,"117.csv","","327","resources/trios/L4T4A3.jpg","39","restless",0.2,0.2,0.4,0.469240953851146,"false"
"image-keyboard-response",522,495589,"0.0-3.170-1.170","6rufc2lcx3w072l",514,"117.csv","","null","resources/maskTrios/BBA3.jpg","null","",NA,NA,NA,NA,""
"image-keyboard-response",523,496792,"0.0-3.170-2.170","6rufc2lcx3w072l",514,"117.csv","","null","resources/images/fishbone.png","null","",NA,NA,NA,NA,""
"image-keyboard-response",524,497076,"0.0-3.171-0.171","6rufc2lcx3w072l",514,"117.csv","","281.0000000000582","resources/trios/L4T4A3.jpg","39","restless",0.2,0.2,0.4,0.607634841499055,"false"
"image-keyboard-response",525,497479,"0.0-3.171-1.171","6rufc2lcx3w072l",514,"117.csv","","null","resources/maskTrios/BBA3.jpg","null","",NA,NA,NA,NA,""
"image-keyboard-response",526,498682,"0.0-3.171-2.171","6rufc2lcx3w072l",514,"117.csv","","null","resources/images/fishbone.png","null","",NA,NA,NA,NA,""
"image-keyboard-response",527,499240,"0.0-3.172-0.172","6rufc2lcx3w072l",514,"117.csv","","556","resources/trios/L4T1A3.jpg","38","restless",0.2,0.2,0.4,0.672704653872886,"false"
"image-keyboard-response",528,499644,"0.0-3.172-1.172","6rufc2lcx3w072l",514,"117.csv","","null","resources/maskTrios/BT1B.jpg","null","",NA,NA,NA,NA,""
"image-keyboard-response",529,500847,"0.0-3.172-2.172","6rufc2lcx3w072l",514,"117.csv","","null","resources/images/fishbone.png","null","",NA,NA,NA,NA,""
"image-keyboard-response",530,501147,"0.0-3.173-0.173","6rufc2lcx3w072l",514,"117.csv","","295.0000000000582","resources/trios/L4T4A2.jpg","37","restless",0.2,0.2,0.4,0.745647817057762,"false"
"image-keyboard-response",531,501551,"0.0-3.173-1.173","6rufc2lcx3w072l",514,"117.csv","","null","resources/maskTrios/L4BB.jpg","null","",NA,NA,NA,NA,""
"image-keyboard-response",532,502754,"0.0-3.173-2.173","6rufc2lcx3w072l",514,"117.csv","","null","resources/images/fishbone.png","null","",NA,NA,NA,NA,""
"image-keyboard-response",533,503179,"0.0-3.174-0.174","6rufc2lcx3w072l",514,"117.csv","","423","resources/trios/L4T1A3.jpg","37","restless",0.2,0.2,0.4,0.834597318787661,"false"
"image-keyboard-response",534,503583,"0.0-3.174-1.174","6rufc2lcx3w072l",514,"117.csv","","null","resources/maskTrios/L4BB.jpg","null","",NA,NA,NA,NA,""
"image-keyboard-response",535,504785,"0.0-3.174-2.174","6rufc2lcx3w072l",514,"117.csv","","null","resources/images/fishbone.png","null","",NA,NA,NA,NA,""
"image-keyboard-response",536,505108,"0.0-3.175-0.175","6rufc2lcx3w072l",514,"117.csv","","320","resources/trios/L1T1A3.jpg","38","restless",0.2,0.2,0.4,0.738126518691992,"false"
"image-keyboard-response",537,505511,"0.0-3.175-1.175","6rufc2lcx3w072l",514,"117.csv","","null","resources/maskTrios/BT1B.jpg","null","",NA,NA,NA,NA,""
"image-keyboard-response",538,506714,"0.0-3.175-2.175","6rufc2lcx3w072l",514,"117.csv","","null","resources/images/fishbone.png","null","",NA,NA,NA,NA,""
"image-keyboard-response",539,507042,"0.0-3.176-0.176","6rufc2lcx3w072l",514,"117.csv","","326","resources/trios/L4T1A2.jpg","38","restless",0.2,0.2,0.4,0.672436550946135,"false"
"image-keyboard-response",540,507445,"0.0-3.176-1.176","6rufc2lcx3w072l",514,"117.csv","","null","resources/maskTrios/BT1B.jpg","null","",NA,NA,NA,NA,""
"image-keyboard-response",541,508648,"0.0-3.176-2.176","6rufc2lcx3w072l",514,"117.csv","","null","resources/images/fishbone.png","null","",NA,NA,NA,NA,""
"image-keyboard-response",542,508926,"0.0-3.177-0.177","6rufc2lcx3w072l",514,"117.csv","","275","resources/trios/L1T4A3.jpg","38","restless",0.2,0.2,0.4,0.848059874113171,"false"
"image-keyboard-response",543,509332,"0.0-3.177-1.177","6rufc2lcx3w072l",514,"117.csv","","null","resources/maskTrios/BT4B.jpg","null","",NA,NA,NA,NA,""
"image-keyboard-response",544,510534,"0.0-3.177-2.177","6rufc2lcx3w072l",514,"117.csv","","null","resources/images/fishbone.png","null","",NA,NA,NA,NA,""
"image-keyboard-response",545,510811,"0.0-3.178-0.178","6rufc2lcx3w072l",514,"117.csv","","274","resources/trios/L4T1A3.jpg","37","restless",0.2,0.2,0.5,0.816883820583049,"false"
"image-keyboard-response",546,511214,"0.0-3.178-1.178","6rufc2lcx3w072l",514,"117.csv","","null","resources/maskTrios/L4BB.jpg","null","",NA,NA,NA,NA,""
"image-keyboard-response",547,512417,"0.0-3.178-2.178","6rufc2lcx3w072l",514,"117.csv","","null","resources/images/fishbone.png","null","",NA,NA,NA,NA,""
"image-keyboard-response",548,512605,"0.0-3.179-0.179","6rufc2lcx3w072l",514,"117.csv","","186.0000000000582","resources/trios/L1T4A2.jpg","37","restless",0.2,0.2,0.5,0.280903654853432,"false"
"image-keyboard-response",549,513008,"0.0-3.179-1.179","6rufc2lcx3w072l",514,"117.csv","","null","resources/maskTrios/L1BB.jpg","null","",NA,NA,NA,NA,""
"image-keyboard-response",550,514211,"0.0-3.179-2.179","6rufc2lcx3w072l",514,"117.csv","","null","resources/images/fishbone.png","null","",NA,NA,NA,NA,""
"image-keyboard-response",551,514512,"0.0-3.180-0.180","6rufc2lcx3w072l",514,"117.csv","","299","resources/trios/L1T1A2.jpg","37","restless",0.2,0.2,0.5,0.645887805685486,"false"
"image-keyboard-response",552,514915,"0.0-3.180-1.180","6rufc2lcx3w072l",514,"117.csv","","null","resources/maskTrios/L1BB.jpg","null","",NA,NA,NA,NA,""
"image-keyboard-response",553,516118,"0.0-3.180-2.180","6rufc2lcx3w072l",514,"117.csv","","null","resources/images/fishbone.png","null","",NA,NA,NA,NA,""
"image-keyboard-response",554,516491,"0.0-3.181-0.181","6rufc2lcx3w072l",514,"117.csv","","368.9999999998836","resources/trios/L4T4A2.jpg","37","restless",0.2,0.2,0.5,0.708926348886812,"false"
"image-keyboard-response",555,516894,"0.0-3.181-1.181","6rufc2lcx3w072l",514,"117.csv","","null","resources/maskTrios/L4BB.jpg","null","",NA,NA,NA,NA,""
"image-keyboard-response",556,518097,"0.0-3.181-2.181","6rufc2lcx3w072l",514,"117.csv","","null","resources/images/fishbone.png","null","",NA,NA,NA,NA,""
"image-keyboard-response",557,518460,"0.0-3.182-0.182","6rufc2lcx3w072l",514,"117.csv","","360.9999999999418","resources/trios/L4T4A3.jpg","37","restless",0.2,0.2,0.5,0.542681958764198,"false"
"image-keyboard-response",558,518863,"0.0-3.182-1.182","6rufc2lcx3w072l",514,"117.csv","","null","resources/maskTrios/L4BB.jpg","null","",NA,NA,NA,NA,""
"image-keyboard-response",559,520066,"0.0-3.182-2.182","6rufc2lcx3w072l",514,"117.csv","","null","resources/images/fishbone.png","null","",NA,NA,NA,NA,""
"image-keyboard-response",560,520437,"0.0-3.183-0.183","6rufc2lcx3w072l",514,"117.csv","","367.9999999999418","resources/trios/L1T1A2.jpg","37","restless",0.2,0.2,0.5,0.694820005423959,"false"
"image-keyboard-response",561,520840,"0.0-3.183-1.183","6rufc2lcx3w072l",514,"117.csv","","null","resources/maskTrios/L1BB.jpg","null","",NA,NA,NA,NA,""
"image-keyboard-response",562,522043,"0.0-3.183-2.183","6rufc2lcx3w072l",514,"117.csv","","null","resources/images/fishbone.png","null","",NA,NA,NA,NA,""
"image-keyboard-response",563,522418,"0.0-3.184-0.184","6rufc2lcx3w072l",514,"117.csv","","372","resources/trios/L1T4A2.jpg","37","restless",0.2,0.2,0.5,0.217774419951568,"false"
"image-keyboard-response",564,522821,"0.0-3.184-1.184","6rufc2lcx3w072l",514,"117.csv","","null","resources/maskTrios/L1BB.jpg","null","",NA,NA,NA,NA,""
"image-keyboard-response",565,524024,"0.0-3.184-2.184","6rufc2lcx3w072l",514,"117.csv","","null","resources/images/fishbone.png","null","",NA,NA,NA,NA,""
"image-keyboard-response",566,524335,"0.0-3.185-0.185","6rufc2lcx3w072l",514,"117.csv","","307","resources/trios/L1T1A2.jpg","37","restless",0.2,0.2,0.5,0.267137841364686,"false"
"image-keyboard-response",567,524739,"0.0-3.185-1.185","6rufc2lcx3w072l",514,"117.csv","","null","resources/maskTrios/L1BB.jpg","null","",NA,NA,NA,NA,""
"image-keyboard-response",568,525942,"0.0-3.185-2.185","6rufc2lcx3w072l",514,"117.csv","","null","resources/images/fishbone.png","null","",NA,NA,NA,NA,""
"image-keyboard-response",569,526251,"0.0-3.186-0.186","6rufc2lcx3w072l",514,"117.csv","","305","resources/trios/L4T4A2.jpg","37","restless",0.2,0.3,0.5,0.851265986035491,"false"
"image-keyboard-response",570,526654,"0.0-3.186-1.186","6rufc2lcx3w072l",514,"117.csv","","null","resources/maskTrios/L4BB.jpg","null","",NA,NA,NA,NA,""
"image-keyboard-response",571,527857,"0.0-3.186-2.186","6rufc2lcx3w072l",514,"117.csv","","null","resources/images/fishbone.png","null","",NA,NA,NA,NA,""
"image-keyboard-response",572,528127,"0.0-3.187-0.187","6rufc2lcx3w072l",514,"117.csv","","268","resources/trios/L4T1A2.jpg","39","restless",0.2,0.3,0.5,0.175421379969715,"true"
"image-keyboard-response",573,528530,"0.0-3.187-1.187","6rufc2lcx3w072l",514,"117.csv","","null","resources/maskTrios/BBA2.jpg","null","",NA,NA,NA,NA,""
"image-keyboard-response",574,529734,"0.0-3.187-2.187","6rufc2lcx3w072l",514,"117.csv","","null","resources/images/coin2.png","null","",NA,NA,NA,NA,""
"image-keyboard-response",575,530091,"0.0-3.188-0.188","6rufc2lcx3w072l",514,"117.csv","","353.9999999998836","resources/trios/L1T4A2.jpg","39","restless",0.2,0.3,0.5,0.782219824714654,"false"
"image-keyboard-response",576,530494,"0.0-3.188-1.188","6rufc2lcx3w072l",514,"117.csv","","null","resources/maskTrios/BBA2.jpg","null","",NA,NA,NA,NA,""
"image-keyboard-response",577,531697,"0.0-3.188-2.188","6rufc2lcx3w072l",514,"117.csv","","null","resources/images/fishbone.png","null","",NA,NA,NA,NA,""
"image-keyboard-response",578,532031,"0.0-3.189-0.189","6rufc2lcx3w072l",514,"117.csv","","331","resources/trios/L1T4A2.jpg","39","restless",0.2,0.3,0.5,0.673679840018907,"false"
"image-keyboard-response",579,532434,"0.0-3.189-1.189","6rufc2lcx3w072l",514,"117.csv","","null","resources/maskTrios/BBA2.jpg","null","",NA,NA,NA,NA,""
"image-keyboard-response",580,533637,"0.0-3.189-2.189","6rufc2lcx3w072l",514,"117.csv","","null","resources/images/fishbone.png","null","",NA,NA,NA,NA,""
"image-keyboard-response",581,533939,"0.0-3.190-0.190","6rufc2lcx3w072l",514,"117.csv","","298.9999999998836","resources/trios/L1T4A2.jpg","38","restless",0.2,0.3,0.6,0.375528936392633,"false"
"image-keyboard-response",582,534342,"0.0-3.190-1.190","6rufc2lcx3w072l",514,"117.csv","","null","resources/maskTrios/BT4B.jpg","null","",NA,NA,NA,NA,""
"image-keyboard-response",583,535545,"0.0-3.190-2.190","6rufc2lcx3w072l",514,"117.csv","","null","resources/images/fishbone.png","null","",NA,NA,NA,NA,""
"image-keyboard-response",584,535897,"0.0-3.191-0.191","6rufc2lcx3w072l",514,"117.csv","","349","resources/trios/L1T4A2.jpg","37","restless",0.2,0.4,0.6,0.691175283294318,"false"
"image-keyboard-response",585,536300,"0.0-3.191-1.191","6rufc2lcx3w072l",514,"117.csv","","null","resources/maskTrios/L1BB.jpg","null","",NA,NA,NA,NA,""
"image-keyboard-response",586,537503,"0.0-3.191-2.191","6rufc2lcx3w072l",514,"117.csv","","null","resources/images/fishbone.png","null","",NA,NA,NA,NA,""
"image-keyboard-response",587,537873,"0.0-3.192-0.192","6rufc2lcx3w072l",514,"117.csv","","368","resources/trios/L1T1A2.jpg","37","restless",0.3,0.4,0.6,0.675631103883013,"false"
"image-keyboard-response",588,538276,"0.0-3.192-1.192","6rufc2lcx3w072l",514,"117.csv","","null","resources/maskTrios/L1BB.jpg","null","",NA,NA,NA,NA,""
"image-keyboard-response",589,539479,"0.0-3.192-2.192","6rufc2lcx3w072l",514,"117.csv","","null","resources/images/fishbone.png","null","",NA,NA,NA,NA,""
"image-keyboard-response",590,539757,"0.0-3.193-0.193","6rufc2lcx3w072l",514,"117.csv","","276","resources/trios/L1T4A3.jpg","38","restless",0.3,0.5,0.6,0.876140402447979,"false"
"image-keyboard-response",591,540160,"0.0-3.193-1.193","6rufc2lcx3w072l",514,"117.csv","","null","resources/maskTrios/BT4B.jpg","null","",NA,NA,NA,NA,""
"image-keyboard-response",592,541368,"0.0-3.193-2.193","6rufc2lcx3w072l",514,"117.csv","","null","resources/images/fishbone.png","null","",NA,NA,NA,NA,""
"image-keyboard-response",593,541444,"0.0-3.194-0.194","6rufc2lcx3w072l",514,"117.csv","","74","resources/trios/L1T1A2.jpg","39","restless",0.3,0.5,0.6,0.0922911346224523,"true"
"image-keyboard-response",594,541848,"0.0-3.194-1.194","6rufc2lcx3w072l",514,"117.csv","","null","resources/maskTrios/BBA2.jpg","null","",NA,NA,NA,NA,""
"image-keyboard-response",595,543051,"0.0-3.194-2.194","6rufc2lcx3w072l",514,"117.csv","","null","resources/images/coin2.png","null","",NA,NA,NA,NA,""
"image-keyboard-response",596,543452,"0.0-3.195-0.195","6rufc2lcx3w072l",514,"117.csv","","399","resources/trios/L1T1A2.jpg","39","restless",0.3,0.5,0.6,0.114088929485177,"true"
"image-keyboard-response",597,543856,"0.0-3.195-1.195","6rufc2lcx3w072l",514,"117.csv","","null","resources/maskTrios/BBA2.jpg","null","",NA,NA,NA,NA,""
"image-keyboard-response",598,545059,"0.0-3.195-2.195","6rufc2lcx3w072l",514,"117.csv","","null","resources/images/coin2.png","null","",NA,NA,NA,NA,""
"image-keyboard-response",599,545436,"0.0-3.196-0.196","6rufc2lcx3w072l",514,"117.csv","","374","resources/trios/L4T4A3.jpg","39","restless",0.3,0.5,0.6,0.642077086270372,"false"
"image-keyboard-response",600,545839,"0.0-3.196-1.196","6rufc2lcx3w072l",514,"117.csv","","null","resources/maskTrios/BBA3.jpg","null","",NA,NA,NA,NA,""
"image-keyboard-response",601,547042,"0.0-3.196-2.196","6rufc2lcx3w072l",514,"117.csv","","null","resources/images/fishbone.png","null","",NA,NA,NA,NA,""
"image-keyboard-response",602,547395,"0.0-3.197-0.197","6rufc2lcx3w072l",514,"117.csv","","351","resources/trios/L4T4A3.jpg","38","restless",0.3,0.5,0.6,0.401367684842308,"true"
"image-keyboard-response",603,547798,"0.0-3.197-1.197","6rufc2lcx3w072l",514,"117.csv","","null","resources/maskTrios/BT4B.jpg","null","",NA,NA,NA,NA,""
"image-keyboard-response",604,549001,"0.0-3.197-2.197","6rufc2lcx3w072l",514,"117.csv","","null","resources/images/coin2.png","null","",NA,NA,NA,NA,""
"image-keyboard-response",605,549277,"0.0-3.198-0.198","6rufc2lcx3w072l",514,"117.csv","","274","resources/trios/L1T4A3.jpg","38","restless",0.3,0.5,0.6,0.298805784971235,"true"
"image-keyboard-response",606,549680,"0.0-3.198-1.198","6rufc2lcx3w072l",514,"117.csv","","null","resources/maskTrios/BT4B.jpg","null","",NA,NA,NA,NA,""
"image-keyboard-response",607,550883,"0.0-3.198-2.198","6rufc2lcx3w072l",514,"117.csv","","null","resources/images/coin2.png","null","",NA,NA,NA,NA,""
"image-keyboard-response",608,551166,"0.0-3.199-0.199","6rufc2lcx3w072l",514,"117.csv","","280","resources/trios/L1T1A3.jpg","38","restless",0.3,0.5,0.6,0.229640357813548,"true"
"image-keyboard-response",609,551571,"0.0-3.199-1.199","6rufc2lcx3w072l",514,"117.csv","","null","resources/maskTrios/BT1B.jpg","null","",NA,NA,NA,NA,""
"image-keyboard-response",610,552774,"0.0-3.199-2.199","6rufc2lcx3w072l",514,"117.csv","","null","resources/images/coin2.png","null","",NA,NA,NA,NA,""
"image-keyboard-response",611,553085,"0.0-3.200-0.200","6rufc2lcx3w072l",514,"117.csv","","307","resources/trios/L1T4A2.jpg","38","restless",0.3,0.5,0.6,0.875187149520044,"false"
"image-keyboard-response",612,553488,"0.0-3.200-1.200","6rufc2lcx3w072l",514,"117.csv","","null","resources/maskTrios/BT4B.jpg","null","",NA,NA,NA,NA,""
"image-keyboard-response",613,554691,"0.0-3.200-2.200","6rufc2lcx3w072l",514,"117.csv","","null","resources/images/fishbone.png","null","",NA,NA,NA,NA,""
"image-keyboard-response",614,555019,"0.0-3.201-0.201","6rufc2lcx3w072l",514,"117.csv","","326","resources/trios/L4T4A2.jpg","37","restless",0.3,0.5,0.6,0.444582829807155,"false"
"image-keyboard-response",615,555422,"0.0-3.201-1.201","6rufc2lcx3w072l",514,"117.csv","","null","resources/maskTrios/L4BB.jpg","null","",NA,NA,NA,NA,""
"image-keyboard-response",616,556625,"0.0-3.201-2.201","6rufc2lcx3w072l",514,"117.csv","","null","resources/images/fishbone.png","null","",NA,NA,NA,NA,""
