"trial_type","trial_index","time_elapsed","internal_node_id","subject","participantCode","walkNumber","success","rt","stimulus","key_press","test_part","leftProb","midProb","rightProb","generatedNum","correct"
"pavlovia",0,1314,"0.0-0.0","dc1sjly6ofsy06r",782,"186.csv","","","","","",NA,NA,NA,NA,""
"fullscreen",1,4742,"0.0-1.0","dc1sjly6ofsy06r",782,"186.csv","true","","","","",NA,NA,NA,NA,""
"html-keyboard-response",2,10598,"0.0-2.0-0.0","dc1sjly6ofsy06r",782,"186.csv","","5852","<p><font size='6'>Arrrgh!</p></font><p>Can you be the best pirate? Try to find lots of gold! But beware, some islands have more gold than others, and over time, the island with the most gold may change. Can YOU figure it out? </p><font size='6'>GOOD LUCK, CAPTAIN!!!</font><p>Press any key to begin</p>","32","",NA,NA,NA,NA,""
"image-keyboard-response",3,13602,"0.0-2.0-1.0","dc1sjly6ofsy06r",782,"186.csv","","null","resources/image_sets/111.png","null","",NA,NA,NA,NA,""
"image-keyboard-response",4,16044,"0.0-2.0-2.0","dc1sjly6ofsy06r",782,"186.csv","","2439","resources/image_sets/left_highlight.png","37","",NA,NA,NA,NA,""
"image-keyboard-response",5,17817,"0.0-2.0-3.0","dc1sjly6ofsy06r",782,"186.csv","","1771","resources/image_sets/mid_highlight.png","38","",NA,NA,NA,NA,""
"image-keyboard-response",6,18581,"0.0-2.0-4.0","dc1sjly6ofsy06r",782,"186.csv","","762","resources/image_sets/right_highlight.png","39","",NA,NA,NA,NA,""
"image-keyboard-response",7,20552,"0.0-2.0-5.0","dc1sjly6ofsy06r",782,"186.csv","","1969.0000000000036","resources/image_sets/111.png","13","",NA,NA,NA,NA,""
"image-keyboard-response",8,23551,"0.0-2.0-6.0","dc1sjly6ofsy06r",782,"186.csv","","2997","resources/images/coin2.png","13","",NA,NA,NA,NA,""
"image-keyboard-response",9,25379,"0.0-2.0-7.0","dc1sjly6ofsy06r",782,"186.csv","","1826","resources/images/fishbone.png","13","",NA,NA,NA,NA,""
"html-keyboard-response",10,29696,"0.0-2.0-8.0","dc1sjly6ofsy06r",782,"186.csv","","4315","<p>Your first journey will be a long one, but you will get a well deserved break at the end</p><p>After the break you will have four more journeys, but each will be much shorter than the first, and you will have breaks in between each</p><p>Press Enter to begin</p>","13","",NA,NA,NA,NA,""
"image-keyboard-response",11,31053,"0.0-3.0-0.0","dc1sjly6ofsy06r",782,"186.csv","","1355","resources/trios/L4T4A3.jpg","37","restless",0.7,0.9,0.3,0.0633997279653339,"true"
"image-keyboard-response",12,31457,"0.0-3.0-1.0","dc1sjly6ofsy06r",782,"186.csv","","null","resources/maskTrios/L4BB.jpg","null","",NA,NA,NA,NA,""
"image-keyboard-response",13,32660,"0.0-3.0-2.0","dc1sjly6ofsy06r",782,"186.csv","","null","resources/images/coin2.png","null","",NA,NA,NA,NA,""
"image-keyboard-response",14,35376,"0.0-3.1-0.1","dc1sjly6ofsy06r",782,"186.csv","","2712","resources/trios/L4T4A3.jpg","38","restless",0.8,0.9,0.3,0.0631942201962434,"true"
"image-keyboard-response",15,35779,"0.0-3.1-1.1","dc1sjly6ofsy06r",782,"186.csv","","null","resources/maskTrios/BT4B.jpg","null","",NA,NA,NA,NA,""
"image-keyboard-response",16,36981,"0.0-3.1-2.1","dc1sjly6ofsy06r",782,"186.csv","","null","resources/images/coin2.png","null","",NA,NA,NA,NA,""
"image-keyboard-response",17,37680,"0.0-3.2-0.2","dc1sjly6ofsy06r",782,"186.csv","","696.9999999999927","resources/trios/L4T4A1.jpg","37","restless",0.8,0.9,0.3,0.0227553308105799,"true"
"image-keyboard-response",18,38082,"0.0-3.2-1.2","dc1sjly6ofsy06r",782,"186.csv","","null","resources/maskTrios/L4BB.jpg","null","",NA,NA,NA,NA,""
"image-keyboard-response",19,39285,"0.0-3.2-2.2","dc1sjly6ofsy06r",782,"186.csv","","null","resources/images/coin2.png","null","",NA,NA,NA,NA,""
"image-keyboard-response",20,41388,"0.0-3.3-0.3","dc1sjly6ofsy06r",782,"186.csv","","2101","resources/trios/L2T1A1.jpg","37","restless",0.8,0.9,0.3,0.553038292437157,"true"
"image-keyboard-response",21,41792,"0.0-3.3-1.3","dc1sjly6ofsy06r",782,"186.csv","","null","resources/maskTrios/L2BB.jpg","null","",NA,NA,NA,NA,""
"image-keyboard-response",22,42994,"0.0-3.3-2.3","dc1sjly6ofsy06r",782,"186.csv","","null","resources/images/coin2.png","null","",NA,NA,NA,NA,""
"image-keyboard-response",23,44430,"0.0-3.4-0.4","dc1sjly6ofsy06r",782,"186.csv","","1433.9999999999927","resources/trios/L4T1A3.jpg","37","restless",0.8,0.9,0.3,0.795669195693536,"true"
"image-keyboard-response",24,44831,"0.0-3.4-1.4","dc1sjly6ofsy06r",782,"186.csv","","null","resources/maskTrios/L4BB.jpg","null","",NA,NA,NA,NA,""
"image-keyboard-response",25,46034,"0.0-3.4-2.4","dc1sjly6ofsy06r",782,"186.csv","","null","resources/images/coin2.png","null","",NA,NA,NA,NA,""
"image-keyboard-response",26,48543,"0.0-3.5-0.5","dc1sjly6ofsy06r",782,"186.csv","","2508","resources/trios/L2T1A1.jpg","38","restless",0.8,0.8,0.3,0.248353408581036,"true"
"image-keyboard-response",27,48945,"0.0-3.5-1.5","dc1sjly6ofsy06r",782,"186.csv","","null","resources/maskTrios/BT1B.jpg","null","",NA,NA,NA,NA,""
"image-keyboard-response",28,50148,"0.0-3.5-2.5","dc1sjly6ofsy06r",782,"186.csv","","null","resources/images/coin2.png","null","",NA,NA,NA,NA,""
"image-keyboard-response",29,52120,"0.0-3.6-0.6","dc1sjly6ofsy06r",782,"186.csv","","1971","resources/trios/L2T4A1.jpg","37","restless",0.8,0.7,0.3,0.00875526175715713,"true"
"image-keyboard-response",30,52523,"0.0-3.6-1.6","dc1sjly6ofsy06r",782,"186.csv","","null","resources/maskTrios/L2BB.jpg","null","",NA,NA,NA,NA,""
"image-keyboard-response",31,53724,"0.0-3.6-2.6","dc1sjly6ofsy06r",782,"186.csv","","null","resources/images/coin2.png","null","",NA,NA,NA,NA,""
"image-keyboard-response",32,55817,"0.0-3.7-0.7","dc1sjly6ofsy06r",782,"186.csv","","2091","resources/trios/L4T1A1.jpg","37","restless",0.8,0.7,0.3,0.260489989902892,"true"
"image-keyboard-response",33,56219,"0.0-3.7-1.7","dc1sjly6ofsy06r",782,"186.csv","","null","resources/maskTrios/L4BB.jpg","null","",NA,NA,NA,NA,""
"image-keyboard-response",34,57422,"0.0-3.7-2.7","dc1sjly6ofsy06r",782,"186.csv","","null","resources/images/coin2.png","null","",NA,NA,NA,NA,""
"image-keyboard-response",35,58450,"0.0-3.8-0.8","dc1sjly6ofsy06r",782,"186.csv","","1027","resources/trios/L2T1A1.jpg","38","restless",0.9,0.7,0.3,0.513263858154816,"true"
"image-keyboard-response",36,58853,"0.0-3.8-1.8","dc1sjly6ofsy06r",782,"186.csv","","null","resources/maskTrios/BT1B.jpg","null","",NA,NA,NA,NA,""
"image-keyboard-response",37,60056,"0.0-3.8-2.8","dc1sjly6ofsy06r",782,"186.csv","","null","resources/images/coin2.png","null","",NA,NA,NA,NA,""
"image-keyboard-response",38,62218,"0.0-3.9-0.9","dc1sjly6ofsy06r",782,"186.csv","","2161","resources/trios/L2T4A3.jpg","37","restless",0.9,0.6,0.4,0.905861445858143,"false"
"image-keyboard-response",39,62620,"0.0-3.9-1.9","dc1sjly6ofsy06r",782,"186.csv","","null","resources/maskTrios/L2BB.jpg","null","",NA,NA,NA,NA,""
"image-keyboard-response",40,63822,"0.0-3.9-2.9","dc1sjly6ofsy06r",782,"186.csv","","null","resources/images/fishbone.png","null","",NA,NA,NA,NA,""
"image-keyboard-response",41,64632,"0.0-3.10-0.10","dc1sjly6ofsy06r",782,"186.csv","","809","resources/trios/L4T1A1.jpg","38","restless",0.9,0.6,0.4,0.166596235949164,"true"
"image-keyboard-response",42,65035,"0.0-3.10-1.10","dc1sjly6ofsy06r",782,"186.csv","","null","resources/maskTrios/BT1B.jpg","null","",NA,NA,NA,NA,""
"image-keyboard-response",43,66236,"0.0-3.10-2.10","dc1sjly6ofsy06r",782,"186.csv","","null","resources/images/coin2.png","null","",NA,NA,NA,NA,""
"image-keyboard-response",44,66816,"0.0-3.11-0.11","dc1sjly6ofsy06r",782,"186.csv","","578","resources/trios/L2T4A3.jpg","37","restless",0.9,0.5,0.4,0.893114640237939,"true"
"image-keyboard-response",45,67218,"0.0-3.11-1.11","dc1sjly6ofsy06r",782,"186.csv","","null","resources/maskTrios/L2BB.jpg","null","",NA,NA,NA,NA,""
"image-keyboard-response",46,68419,"0.0-3.11-2.11","dc1sjly6ofsy06r",782,"186.csv","","null","resources/images/coin2.png","null","",NA,NA,NA,NA,""
"image-keyboard-response",47,70268,"0.0-3.12-0.12","dc1sjly6ofsy06r",782,"186.csv","","1847.0000000000146","resources/trios/L2T4A3.jpg","37","restless",0.9,0.5,0.4,0.587492823893988,"true"
"image-keyboard-response",48,70670,"0.0-3.12-1.12","dc1sjly6ofsy06r",782,"186.csv","","null","resources/maskTrios/L2BB.jpg","null","",NA,NA,NA,NA,""
"image-keyboard-response",49,71872,"0.0-3.12-2.12","dc1sjly6ofsy06r",782,"186.csv","","null","resources/images/coin2.png","null","",NA,NA,NA,NA,""
"image-keyboard-response",50,72478,"0.0-3.13-0.13","dc1sjly6ofsy06r",782,"186.csv","","604","resources/trios/L2T4A1.jpg","37","restless",0.9,0.5,0.4,0.145292810070228,"true"
"image-keyboard-response",51,72880,"0.0-3.13-1.13","dc1sjly6ofsy06r",782,"186.csv","","null","resources/maskTrios/L2BB.jpg","null","",NA,NA,NA,NA,""
"image-keyboard-response",52,74082,"0.0-3.13-2.13","dc1sjly6ofsy06r",782,"186.csv","","null","resources/images/coin2.png","null","",NA,NA,NA,NA,""
"image-keyboard-response",53,75029,"0.0-3.14-0.14","dc1sjly6ofsy06r",782,"186.csv","","945","resources/trios/L2T4A3.jpg","37","restless",0.9,0.5,0.4,0.0340683743184796,"true"
"image-keyboard-response",54,75431,"0.0-3.14-1.14","dc1sjly6ofsy06r",782,"186.csv","","null","resources/maskTrios/L2BB.jpg","null","",NA,NA,NA,NA,""
"image-keyboard-response",55,76634,"0.0-3.14-2.14","dc1sjly6ofsy06r",782,"186.csv","","null","resources/images/coin2.png","null","",NA,NA,NA,NA,""
"image-keyboard-response",56,77554,"0.0-3.15-0.15","dc1sjly6ofsy06r",782,"186.csv","","919","resources/trios/L2T1A3.jpg","37","restless",0.9,0.5,0.4,0.95437230277353,"false"
"image-keyboard-response",57,77957,"0.0-3.15-1.15","dc1sjly6ofsy06r",782,"186.csv","","null","resources/maskTrios/L2BB.jpg","null","",NA,NA,NA,NA,""
"image-keyboard-response",58,79159,"0.0-3.15-2.15","dc1sjly6ofsy06r",782,"186.csv","","null","resources/images/fishbone.png","null","",NA,NA,NA,NA,""
"image-keyboard-response",59,79629,"0.0-3.16-0.16","dc1sjly6ofsy06r",782,"186.csv","","469","resources/trios/L2T1A3.jpg","38","restless",0.8,0.5,0.4,0.948863743129428,"false"
"image-keyboard-response",60,80032,"0.0-3.16-1.16","dc1sjly6ofsy06r",782,"186.csv","","null","resources/maskTrios/BT1B.jpg","null","",NA,NA,NA,NA,""
"image-keyboard-response",61,81234,"0.0-3.16-2.16","dc1sjly6ofsy06r",782,"186.csv","","null","resources/images/fishbone.png","null","",NA,NA,NA,NA,""
"image-keyboard-response",62,82144,"0.0-3.17-0.17","dc1sjly6ofsy06r",782,"186.csv","","909","resources/trios/L4T4A3.jpg","37","restless",0.8,0.5,0.4,0.0220465674141453,"true"
"image-keyboard-response",63,82546,"0.0-3.17-1.17","dc1sjly6ofsy06r",782,"186.csv","","null","resources/maskTrios/L4BB.jpg","null","",NA,NA,NA,NA,""
"image-keyboard-response",64,83749,"0.0-3.17-2.17","dc1sjly6ofsy06r",782,"186.csv","","null","resources/images/coin2.png","null","",NA,NA,NA,NA,""
"image-keyboard-response",65,84355,"0.0-3.18-0.18","dc1sjly6ofsy06r",782,"186.csv","","606","resources/trios/L2T4A3.jpg","37","restless",0.8,0.5,0.4,0.521412588609362,"true"
"image-keyboard-response",66,84758,"0.0-3.18-1.18","dc1sjly6ofsy06r",782,"186.csv","","null","resources/maskTrios/L2BB.jpg","null","",NA,NA,NA,NA,""
"image-keyboard-response",67,85960,"0.0-3.18-2.18","dc1sjly6ofsy06r",782,"186.csv","","null","resources/images/coin2.png","null","",NA,NA,NA,NA,""
"image-keyboard-response",68,86568,"0.0-3.19-0.19","dc1sjly6ofsy06r",782,"186.csv","","607","resources/trios/L4T1A1.jpg","37","restless",0.8,0.5,0.4,0.366276448199983,"true"
"image-keyboard-response",69,86970,"0.0-3.19-1.19","dc1sjly6ofsy06r",782,"186.csv","","null","resources/maskTrios/L4BB.jpg","null","",NA,NA,NA,NA,""
"image-keyboard-response",70,88173,"0.0-3.19-2.19","dc1sjly6ofsy06r",782,"186.csv","","null","resources/images/coin2.png","null","",NA,NA,NA,NA,""
"image-keyboard-response",71,88598,"0.0-3.20-0.20","dc1sjly6ofsy06r",782,"186.csv","","424","resources/trios/L4T1A3.jpg","37","restless",0.8,0.5,0.4,0.371195080230796,"true"
"image-keyboard-response",72,89001,"0.0-3.20-1.20","dc1sjly6ofsy06r",782,"186.csv","","null","resources/maskTrios/L4BB.jpg","null","",NA,NA,NA,NA,""
"image-keyboard-response",73,90203,"0.0-3.20-2.20","dc1sjly6ofsy06r",782,"186.csv","","null","resources/images/coin2.png","null","",NA,NA,NA,NA,""
"image-keyboard-response",74,90859,"0.0-3.21-0.21","dc1sjly6ofsy06r",782,"186.csv","","654","resources/trios/L2T1A3.jpg","37","restless",0.8,0.4,0.4,0.359986414563589,"true"
"image-keyboard-response",75,91261,"0.0-3.21-1.21","dc1sjly6ofsy06r",782,"186.csv","","null","resources/maskTrios/L2BB.jpg","null","",NA,NA,NA,NA,""
"image-keyboard-response",76,92463,"0.0-3.21-2.21","dc1sjly6ofsy06r",782,"186.csv","","null","resources/images/coin2.png","null","",NA,NA,NA,NA,""
"image-keyboard-response",77,92869,"0.0-3.22-0.22","dc1sjly6ofsy06r",782,"186.csv","","404","resources/trios/L4T4A3.jpg","37","restless",0.8,0.4,0.4,0.0652694046485177,"true"
"image-keyboard-response",78,93271,"0.0-3.22-1.22","dc1sjly6ofsy06r",782,"186.csv","","null","resources/maskTrios/L4BB.jpg","null","",NA,NA,NA,NA,""
"image-keyboard-response",79,94473,"0.0-3.22-2.22","dc1sjly6ofsy06r",782,"186.csv","","null","resources/images/coin2.png","null","",NA,NA,NA,NA,""
"image-keyboard-response",80,94818,"0.0-3.23-0.23","dc1sjly6ofsy06r",782,"186.csv","","343","resources/trios/L4T1A3.jpg","37","restless",0.8,0.4,0.4,0.0643047800759097,"true"
"image-keyboard-response",81,95220,"0.0-3.23-1.23","dc1sjly6ofsy06r",782,"186.csv","","null","resources/maskTrios/L4BB.jpg","null","",NA,NA,NA,NA,""
"image-keyboard-response",82,96423,"0.0-3.23-2.23","dc1sjly6ofsy06r",782,"186.csv","","null","resources/images/coin2.png","null","",NA,NA,NA,NA,""
"image-keyboard-response",83,97747,"0.0-3.24-0.24","dc1sjly6ofsy06r",782,"186.csv","","1321","resources/trios/L2T1A1.jpg","38","restless",0.8,0.4,0.4,0.230404715268813,"true"
"image-keyboard-response",84,98150,"0.0-3.24-1.24","dc1sjly6ofsy06r",782,"186.csv","","null","resources/maskTrios/BT1B.jpg","null","",NA,NA,NA,NA,""
"image-keyboard-response",85,99352,"0.0-3.24-2.24","dc1sjly6ofsy06r",782,"186.csv","","null","resources/images/coin2.png","null","",NA,NA,NA,NA,""
"image-keyboard-response",86,99948,"0.0-3.25-0.25","dc1sjly6ofsy06r",782,"186.csv","","594","resources/trios/L2T1A3.jpg","38","restless",0.7,0.4,0.4,0.803423440166953,"false"
"image-keyboard-response",87,100350,"0.0-3.25-1.25","dc1sjly6ofsy06r",782,"186.csv","","null","resources/maskTrios/BT1B.jpg","null","",NA,NA,NA,NA,""
"image-keyboard-response",88,101552,"0.0-3.25-2.25","dc1sjly6ofsy06r",782,"186.csv","","null","resources/images/fishbone.png","null","",NA,NA,NA,NA,""
"image-keyboard-response",89,103324,"0.0-3.26-0.26","dc1sjly6ofsy06r",782,"186.csv","","1770","resources/trios/L2T4A3.jpg","38","restless",0.7,0.4,0.4,0.0122635128777767,"true"
"image-keyboard-response",90,103726,"0.0-3.26-1.26","dc1sjly6ofsy06r",782,"186.csv","","null","resources/maskTrios/BT4B.jpg","null","",NA,NA,NA,NA,""
"image-keyboard-response",91,104929,"0.0-3.26-2.26","dc1sjly6ofsy06r",782,"186.csv","","null","resources/images/coin2.png","null","",NA,NA,NA,NA,""
"image-keyboard-response",92,105740,"0.0-3.27-0.27","dc1sjly6ofsy06r",782,"186.csv","","809.9999999999854","resources/trios/L4T1A3.jpg","37","restless",0.7,0.4,0.4,0.039916523305861,"true"
"image-keyboard-response",93,106141,"0.0-3.27-1.27","dc1sjly6ofsy06r",782,"186.csv","","null","resources/maskTrios/L4BB.jpg","null","",NA,NA,NA,NA,""
"image-keyboard-response",94,107343,"0.0-3.27-2.27","dc1sjly6ofsy06r",782,"186.csv","","null","resources/images/coin2.png","null","",NA,NA,NA,NA,""
"image-keyboard-response",95,108178,"0.0-3.28-0.28","dc1sjly6ofsy06r",782,"186.csv","","834","resources/trios/L4T4A3.jpg","39","restless",0.7,0.4,0.4,0.367757385330013,"true"
"image-keyboard-response",96,108581,"0.0-3.28-1.28","dc1sjly6ofsy06r",782,"186.csv","","null","resources/maskTrios/BBA3.jpg","null","",NA,NA,NA,NA,""
"image-keyboard-response",97,109784,"0.0-3.28-2.28","dc1sjly6ofsy06r",782,"186.csv","","null","resources/images/coin2.png","null","",NA,NA,NA,NA,""
"image-keyboard-response",98,110666,"0.0-3.29-0.29","dc1sjly6ofsy06r",782,"186.csv","","880.0000000000146","resources/trios/L4T1A3.jpg","39","restless",0.7,0.4,0.4,0.449565157509037,"false"
"image-keyboard-response",99,111068,"0.0-3.29-1.29","dc1sjly6ofsy06r",782,"186.csv","","null","resources/maskTrios/BBA3.jpg","null","",NA,NA,NA,NA,""
"image-keyboard-response",100,112270,"0.0-3.29-2.29","dc1sjly6ofsy06r",782,"186.csv","","null","resources/images/fishbone.png","null","",NA,NA,NA,NA,""
"image-keyboard-response",101,112669,"0.0-3.30-0.30","dc1sjly6ofsy06r",782,"186.csv","","396.99999999998545","resources/trios/L2T4A1.jpg","37","restless",0.7,0.4,0.4,0.388944643115541,"true"
"image-keyboard-response",102,113071,"0.0-3.30-1.30","dc1sjly6ofsy06r",782,"186.csv","","null","resources/maskTrios/L2BB.jpg","null","",NA,NA,NA,NA,""
"image-keyboard-response",103,114274,"0.0-3.30-2.30","dc1sjly6ofsy06r",782,"186.csv","","null","resources/images/coin2.png","null","",NA,NA,NA,NA,""
"image-keyboard-response",104,114549,"0.0-3.31-0.31","dc1sjly6ofsy06r",782,"186.csv","","272.99999999998545","resources/trios/L2T1A3.jpg","38","restless",0.7,0.4,0.4,0.0924494869257372,"true"
"image-keyboard-response",105,114950,"0.0-3.31-1.31","dc1sjly6ofsy06r",782,"186.csv","","null","resources/maskTrios/BT1B.jpg","null","",NA,NA,NA,NA,""
"image-keyboard-response",106,116153,"0.0-3.31-2.31","dc1sjly6ofsy06r",782,"186.csv","","null","resources/images/coin2.png","null","",NA,NA,NA,NA,""
"image-keyboard-response",107,116440,"0.0-3.32-0.32","dc1sjly6ofsy06r",782,"186.csv","","286","resources/trios/L2T1A1.jpg","39","restless",0.7,0.5,0.4,0.407421908578274,"false"
"image-keyboard-response",108,116843,"0.0-3.32-1.32","dc1sjly6ofsy06r",782,"186.csv","","null","resources/maskTrios/BBA1.jpg","null","",NA,NA,NA,NA,""
"image-keyboard-response",109,118045,"0.0-3.32-2.32","dc1sjly6ofsy06r",782,"186.csv","","null","resources/images/fishbone.png","null","",NA,NA,NA,NA,""
"image-keyboard-response",110,118358,"0.0-3.33-0.33","dc1sjly6ofsy06r",782,"186.csv","","310.99999999998545","resources/trios/L4T1A1.jpg","37","restless",0.7,0.5,0.4,0.800174049192143,"false"
"image-keyboard-response",111,118759,"0.0-3.33-1.33","dc1sjly6ofsy06r",782,"186.csv","","null","resources/maskTrios/L4BB.jpg","null","",NA,NA,NA,NA,""
"image-keyboard-response",112,119960,"0.0-3.33-2.33","dc1sjly6ofsy06r",782,"186.csv","","null","resources/images/fishbone.png","null","",NA,NA,NA,NA,""
"image-keyboard-response",113,120276,"0.0-3.34-0.34","dc1sjly6ofsy06r",782,"186.csv","","315","resources/trios/L4T1A1.jpg","38","restless",0.7,0.5,0.4,0.0678248502748856,"true"
"image-keyboard-response",114,120679,"0.0-3.34-1.34","dc1sjly6ofsy06r",782,"186.csv","","null","resources/maskTrios/BT1B.jpg","null","",NA,NA,NA,NA,""
"image-keyboard-response",115,121880,"0.0-3.34-2.34","dc1sjly6ofsy06r",782,"186.csv","","null","resources/images/coin2.png","null","",NA,NA,NA,NA,""
"image-keyboard-response",116,122167,"0.0-3.35-0.35","dc1sjly6ofsy06r",782,"186.csv","","286","resources/trios/L4T4A3.jpg","38","restless",0.7,0.6,0.4,0.0400646446323281,"true"
"image-keyboard-response",117,122570,"0.0-3.35-1.35","dc1sjly6ofsy06r",782,"186.csv","","null","resources/maskTrios/BT4B.jpg","null","",NA,NA,NA,NA,""
"image-keyboard-response",118,123772,"0.0-3.35-2.35","dc1sjly6ofsy06r",782,"186.csv","","null","resources/images/coin2.png","null","",NA,NA,NA,NA,""
"image-keyboard-response",119,124253,"0.0-3.36-0.36","dc1sjly6ofsy06r",782,"186.csv","","479.99999999998545","resources/trios/L2T1A3.jpg","37","restless",0.7,0.7,0.5,0.600324494169865,"true"
"image-keyboard-response",120,124656,"0.0-3.36-1.36","dc1sjly6ofsy06r",782,"186.csv","","null","resources/maskTrios/L2BB.jpg","null","",NA,NA,NA,NA,""
"image-keyboard-response",121,125858,"0.0-3.36-2.36","dc1sjly6ofsy06r",782,"186.csv","","null","resources/images/coin2.png","null","",NA,NA,NA,NA,""
"image-keyboard-response",122,126374,"0.0-3.37-0.37","dc1sjly6ofsy06r",782,"186.csv","","515.0000000000146","resources/trios/L4T4A1.jpg","38","restless",0.8,0.7,0.5,0.463908928488537,"true"
"image-keyboard-response",123,126776,"0.0-3.37-1.37","dc1sjly6ofsy06r",782,"186.csv","","null","resources/maskTrios/BT4B.jpg","null","",NA,NA,NA,NA,""
"image-keyboard-response",124,127978,"0.0-3.37-2.37","dc1sjly6ofsy06r",782,"186.csv","","null","resources/images/coin2.png","null","",NA,NA,NA,NA,""
"image-keyboard-response",125,128328,"0.0-3.38-0.38","dc1sjly6ofsy06r",782,"186.csv","","348","resources/trios/L2T1A3.jpg","37","restless",0.8,0.7,0.5,0.231155394209018,"true"
"image-keyboard-response",126,128730,"0.0-3.38-1.38","dc1sjly6ofsy06r",782,"186.csv","","null","resources/maskTrios/L2BB.jpg","null","",NA,NA,NA,NA,""
"image-keyboard-response",127,129932,"0.0-3.38-2.38","dc1sjly6ofsy06r",782,"186.csv","","null","resources/images/coin2.png","null","",NA,NA,NA,NA,""
"image-keyboard-response",128,130326,"0.0-3.39-0.39","dc1sjly6ofsy06r",782,"186.csv","","394","resources/trios/L2T4A1.jpg","38","restless",0.8,0.7,0.5,0.475362282832998,"true"
"image-keyboard-response",129,130728,"0.0-3.39-1.39","dc1sjly6ofsy06r",782,"186.csv","","null","resources/maskTrios/BT4B.jpg","null","",NA,NA,NA,NA,""
"image-keyboard-response",130,131931,"0.0-3.39-2.39","dc1sjly6ofsy06r",782,"186.csv","","null","resources/images/coin2.png","null","",NA,NA,NA,NA,""
"image-keyboard-response",131,132253,"0.0-3.40-0.40","dc1sjly6ofsy06r",782,"186.csv","","321","resources/trios/L2T4A1.jpg","37","restless",0.9,0.7,0.6,0.439732251843117,"true"
"image-keyboard-response",132,132654,"0.0-3.40-1.40","dc1sjly6ofsy06r",782,"186.csv","","null","resources/maskTrios/L2BB.jpg","null","",NA,NA,NA,NA,""
"image-keyboard-response",133,133856,"0.0-3.40-2.40","dc1sjly6ofsy06r",782,"186.csv","","null","resources/images/coin2.png","null","",NA,NA,NA,NA,""
"image-keyboard-response",134,134260,"0.0-3.41-0.41","dc1sjly6ofsy06r",782,"186.csv","","402.9999999999709","resources/trios/L4T4A3.jpg","38","restless",0.9,0.7,0.6,0.538783018726538,"true"
"image-keyboard-response",135,134664,"0.0-3.41-1.41","dc1sjly6ofsy06r",782,"186.csv","","null","resources/maskTrios/BT4B.jpg","null","",NA,NA,NA,NA,""
"image-keyboard-response",136,135866,"0.0-3.41-2.41","dc1sjly6ofsy06r",782,"186.csv","","null","resources/images/coin2.png","null","",NA,NA,NA,NA,""
"image-keyboard-response",137,137306,"0.0-3.42-0.42","dc1sjly6ofsy06r",782,"186.csv","","1438","resources/trios/L4T1A1.jpg","37","restless",0.9,0.7,0.6,0.239450937395454,"true"
"image-keyboard-response",138,137709,"0.0-3.42-1.42","dc1sjly6ofsy06r",782,"186.csv","","null","resources/maskTrios/L4BB.jpg","null","",NA,NA,NA,NA,""
"image-keyboard-response",139,138912,"0.0-3.42-2.42","dc1sjly6ofsy06r",782,"186.csv","","null","resources/images/coin2.png","null","",NA,NA,NA,NA,""
"image-keyboard-response",140,139237,"0.0-3.43-0.43","dc1sjly6ofsy06r",782,"186.csv","","324","resources/trios/L2T4A3.jpg","38","restless",0.9,0.7,0.6,0.412463985788245,"true"
"image-keyboard-response",141,139640,"0.0-3.43-1.43","dc1sjly6ofsy06r",782,"186.csv","","null","resources/maskTrios/BT4B.jpg","null","",NA,NA,NA,NA,""
"image-keyboard-response",142,140841,"0.0-3.43-2.43","dc1sjly6ofsy06r",782,"186.csv","","null","resources/images/coin2.png","null","",NA,NA,NA,NA,""
"image-keyboard-response",143,141124,"0.0-3.44-0.44","dc1sjly6ofsy06r",782,"186.csv","","282","resources/trios/L2T4A3.jpg","37","restless",0.9,0.7,0.6,0.146558331195061,"true"
"image-keyboard-response",144,141525,"0.0-3.44-1.44","dc1sjly6ofsy06r",782,"186.csv","","null","resources/maskTrios/L2BB.jpg","null","",NA,NA,NA,NA,""
"image-keyboard-response",145,142728,"0.0-3.44-2.44","dc1sjly6ofsy06r",782,"186.csv","","null","resources/images/coin2.png","null","",NA,NA,NA,NA,""
"image-keyboard-response",146,143078,"0.0-3.45-0.45","dc1sjly6ofsy06r",782,"186.csv","","349","resources/trios/L4T1A1.jpg","38","restless",0.9,0.7,0.7,0.759544170088438,"false"
"image-keyboard-response",147,143480,"0.0-3.45-1.45","dc1sjly6ofsy06r",782,"186.csv","","null","resources/maskTrios/BT1B.jpg","null","",NA,NA,NA,NA,""
"image-keyboard-response",148,144682,"0.0-3.45-2.45","dc1sjly6ofsy06r",782,"186.csv","","null","resources/images/fishbone.png","null","",NA,NA,NA,NA,""
"image-keyboard-response",149,145014,"0.0-3.46-0.46","dc1sjly6ofsy06r",782,"186.csv","","330.0000000000291","resources/trios/L4T4A3.jpg","37","restless",0.9,0.7,0.7,0.983383246992807,"false"
"image-keyboard-response",150,145415,"0.0-3.46-1.46","dc1sjly6ofsy06r",782,"186.csv","","null","resources/maskTrios/L4BB.jpg","null","",NA,NA,NA,NA,""
"image-keyboard-response",151,146617,"0.0-3.46-2.46","dc1sjly6ofsy06r",782,"186.csv","","null","resources/images/fishbone.png","null","",NA,NA,NA,NA,""
"image-keyboard-response",152,147055,"0.0-3.47-0.47","dc1sjly6ofsy06r",782,"186.csv","","437","resources/trios/L2T4A3.jpg","37","restless",0.9,0.7,0.7,0.861995109869358,"true"
"image-keyboard-response",153,147457,"0.0-3.47-1.47","dc1sjly6ofsy06r",782,"186.csv","","null","resources/maskTrios/L2BB.jpg","null","",NA,NA,NA,NA,""
"image-keyboard-response",154,148659,"0.0-3.47-2.47","dc1sjly6ofsy06r",782,"186.csv","","null","resources/images/coin2.png","null","",NA,NA,NA,NA,""
"image-keyboard-response",155,149036,"0.0-3.48-0.48","dc1sjly6ofsy06r",782,"186.csv","","374","resources/trios/L2T1A1.jpg","37","restless",0.9,0.7,0.7,0.234795372857996,"true"
"image-keyboard-response",156,149438,"0.0-3.48-1.48","dc1sjly6ofsy06r",782,"186.csv","","null","resources/maskTrios/L2BB.jpg","null","",NA,NA,NA,NA,""
"image-keyboard-response",157,150640,"0.0-3.48-2.48","dc1sjly6ofsy06r",782,"186.csv","","null","resources/images/coin2.png","null","",NA,NA,NA,NA,""
"image-keyboard-response",158,150978,"0.0-3.49-0.49","dc1sjly6ofsy06r",782,"186.csv","","337","resources/trios/L4T4A1.jpg","37","restless",0.9,0.7,0.7,0.0980093458196238,"true"
"image-keyboard-response",159,151380,"0.0-3.49-1.49","dc1sjly6ofsy06r",782,"186.csv","","null","resources/maskTrios/L4BB.jpg","null","",NA,NA,NA,NA,""
"image-keyboard-response",160,152583,"0.0-3.49-2.49","dc1sjly6ofsy06r",782,"186.csv","","null","resources/images/coin2.png","null","",NA,NA,NA,NA,""
"image-keyboard-response",161,153088,"0.0-3.50-0.50","dc1sjly6ofsy06r",782,"186.csv","","503","resources/trios/L4T4A1.jpg","37","restless",0.8,0.7,0.7,0.0872136676881671,"true"
"image-keyboard-response",162,153491,"0.0-3.50-1.50","dc1sjly6ofsy06r",782,"186.csv","","null","resources/maskTrios/L4BB.jpg","null","",NA,NA,NA,NA,""
"image-keyboard-response",163,154693,"0.0-3.50-2.50","dc1sjly6ofsy06r",782,"186.csv","","null","resources/images/coin2.png","null","",NA,NA,NA,NA,""
"image-keyboard-response",164,155075,"0.0-3.51-0.51","dc1sjly6ofsy06r",782,"186.csv","","381","resources/trios/L2T1A1.jpg","37","restless",0.8,0.7,0.7,0.490111354547303,"true"
"image-keyboard-response",165,155477,"0.0-3.51-1.51","dc1sjly6ofsy06r",782,"186.csv","","null","resources/maskTrios/L2BB.jpg","null","",NA,NA,NA,NA,""
"image-keyboard-response",166,156679,"0.0-3.51-2.51","dc1sjly6ofsy06r",782,"186.csv","","null","resources/images/coin2.png","null","",NA,NA,NA,NA,""
"image-keyboard-response",167,157025,"0.0-3.52-0.52","dc1sjly6ofsy06r",782,"186.csv","","346.0000000000291","resources/trios/L2T4A1.jpg","38","restless",0.8,0.7,0.8,0.259899462482101,"true"
"image-keyboard-response",168,157427,"0.0-3.52-1.52","dc1sjly6ofsy06r",782,"186.csv","","null","resources/maskTrios/BT4B.jpg","null","",NA,NA,NA,NA,""
"image-keyboard-response",169,158629,"0.0-3.52-2.52","dc1sjly6ofsy06r",782,"186.csv","","null","resources/images/coin2.png","null","",NA,NA,NA,NA,""
"image-keyboard-response",170,159020,"0.0-3.53-0.53","dc1sjly6ofsy06r",782,"186.csv","","390","resources/trios/L4T1A1.jpg","38","restless",0.8,0.7,0.8,0.682373020291655,"true"
"image-keyboard-response",171,159422,"0.0-3.53-1.53","dc1sjly6ofsy06r",782,"186.csv","","null","resources/maskTrios/BT1B.jpg","null","",NA,NA,NA,NA,""
"image-keyboard-response",172,160625,"0.0-3.53-2.53","dc1sjly6ofsy06r",782,"186.csv","","null","resources/images/coin2.png","null","",NA,NA,NA,NA,""
"image-keyboard-response",173,161057,"0.0-3.54-0.54","dc1sjly6ofsy06r",782,"186.csv","","432","resources/trios/L4T4A3.jpg","38","restless",0.8,0.7,0.8,0.393154324201906,"true"
"image-keyboard-response",174,161460,"0.0-3.54-1.54","dc1sjly6ofsy06r",782,"186.csv","","null","resources/maskTrios/BT4B.jpg","null","",NA,NA,NA,NA,""
"image-keyboard-response",175,162663,"0.0-3.54-2.54","dc1sjly6ofsy06r",782,"186.csv","","null","resources/images/coin2.png","null","",NA,NA,NA,NA,""
"image-keyboard-response",176,163214,"0.0-3.55-0.55","dc1sjly6ofsy06r",782,"186.csv","","549","resources/trios/L2T1A3.jpg","39","restless",0.9,0.7,0.8,0.925923625834933,"false"
"image-keyboard-response",177,163616,"0.0-3.55-1.55","dc1sjly6ofsy06r",782,"186.csv","","null","resources/maskTrios/BBA3.jpg","null","",NA,NA,NA,NA,""
"image-keyboard-response",178,164818,"0.0-3.55-2.55","dc1sjly6ofsy06r",782,"186.csv","","null","resources/images/fishbone.png","null","",NA,NA,NA,NA,""
"image-keyboard-response",179,165431,"0.0-3.56-0.56","dc1sjly6ofsy06r",782,"186.csv","","610","resources/trios/L2T4A1.jpg","39","restless",0.9,0.7,0.8,0.682535139593077,"true"
"image-keyboard-response",180,165834,"0.0-3.56-1.56","dc1sjly6ofsy06r",782,"186.csv","","null","resources/maskTrios/BBA1.jpg","null","",NA,NA,NA,NA,""
"image-keyboard-response",181,167037,"0.0-3.56-2.56","dc1sjly6ofsy06r",782,"186.csv","","null","resources/images/coin2.png","null","",NA,NA,NA,NA,""
"image-keyboard-response",182,167559,"0.0-3.57-0.57","dc1sjly6ofsy06r",782,"186.csv","","520.9999999999709","resources/trios/L2T1A3.jpg","37","restless",0.8,0.6,0.8,0.901879082919431,"false"
"image-keyboard-response",183,167962,"0.0-3.57-1.57","dc1sjly6ofsy06r",782,"186.csv","","null","resources/maskTrios/L2BB.jpg","null","",NA,NA,NA,NA,""
"image-keyboard-response",184,169163,"0.0-3.57-2.57","dc1sjly6ofsy06r",782,"186.csv","","null","resources/images/fishbone.png","null","",NA,NA,NA,NA,""
"image-keyboard-response",185,169932,"0.0-3.58-0.58","dc1sjly6ofsy06r",782,"186.csv","","768","resources/trios/L2T4A3.jpg","38","restless",0.8,0.6,0.8,0.828054872845906,"false"
"image-keyboard-response",186,170334,"0.0-3.58-1.58","dc1sjly6ofsy06r",782,"186.csv","","null","resources/maskTrios/BT4B.jpg","null","",NA,NA,NA,NA,""
"image-keyboard-response",187,171537,"0.0-3.58-2.58","dc1sjly6ofsy06r",782,"186.csv","","null","resources/images/fishbone.png","null","",NA,NA,NA,NA,""
"image-keyboard-response",188,171914,"0.0-3.59-0.59","dc1sjly6ofsy06r",782,"186.csv","","375.9999999999709","resources/trios/L4T1A3.jpg","37","restless",0.8,0.6,0.8,0.764685561020181,"true"
"image-keyboard-response",189,172317,"0.0-3.59-1.59","dc1sjly6ofsy06r",782,"186.csv","","null","resources/maskTrios/L4BB.jpg","null","",NA,NA,NA,NA,""
"image-keyboard-response",190,173520,"0.0-3.59-2.59","dc1sjly6ofsy06r",782,"186.csv","","null","resources/images/coin2.png","null","",NA,NA,NA,NA,""
"image-keyboard-response",191,173822,"0.0-3.60-0.60","dc1sjly6ofsy06r",782,"186.csv","","301","resources/trios/L4T4A3.jpg","39","restless",0.8,0.6,0.8,0.560939381364452,"true"
"image-keyboard-response",192,174224,"0.0-3.60-1.60","dc1sjly6ofsy06r",782,"186.csv","","null","resources/maskTrios/BBA3.jpg","null","",NA,NA,NA,NA,""
"image-keyboard-response",193,175427,"0.0-3.60-2.60","dc1sjly6ofsy06r",782,"186.csv","","null","resources/images/coin2.png","null","",NA,NA,NA,NA,""
"image-keyboard-response",194,175733,"0.0-3.61-0.61","dc1sjly6ofsy06r",782,"186.csv","","305","resources/trios/L2T1A1.jpg","38","restless",0.8,0.6,0.8,0.147901789433151,"true"
"image-keyboard-response",195,176136,"0.0-3.61-1.61","dc1sjly6ofsy06r",782,"186.csv","","null","resources/maskTrios/BT1B.jpg","null","",NA,NA,NA,NA,""
"image-keyboard-response",196,177338,"0.0-3.61-2.61","dc1sjly6ofsy06r",782,"186.csv","","null","resources/images/coin2.png","null","",NA,NA,NA,NA,""
"image-keyboard-response",197,177664,"0.0-3.62-0.62","dc1sjly6ofsy06r",782,"186.csv","","324","resources/trios/L4T4A1.jpg","37","restless",0.7,0.6,0.8,0.230568373688264,"true"
"image-keyboard-response",198,178066,"0.0-3.62-1.62","dc1sjly6ofsy06r",782,"186.csv","","null","resources/maskTrios/L4BB.jpg","null","",NA,NA,NA,NA,""
"image-keyboard-response",199,179269,"0.0-3.62-2.62","dc1sjly6ofsy06r",782,"186.csv","","null","resources/images/coin2.png","null","",NA,NA,NA,NA,""
"image-keyboard-response",200,179503,"0.0-3.63-0.63","dc1sjly6ofsy06r",782,"186.csv","","232","resources/trios/L4T4A1.jpg","38","restless",0.7,0.5,0.8,0.195199412852215,"true"
"image-keyboard-response",201,179905,"0.0-3.63-1.63","dc1sjly6ofsy06r",782,"186.csv","","null","resources/maskTrios/BT4B.jpg","null","",NA,NA,NA,NA,""
"image-keyboard-response",202,181108,"0.0-3.63-2.63","dc1sjly6ofsy06r",782,"186.csv","","null","resources/images/coin2.png","null","",NA,NA,NA,NA,""
"image-keyboard-response",203,181475,"0.0-3.64-0.64","dc1sjly6ofsy06r",782,"186.csv","","365.9999999999709","resources/trios/L2T1A3.jpg","39","restless",0.6,0.5,0.8,0.294685975934673,"true"
"image-keyboard-response",204,181876,"0.0-3.64-1.64","dc1sjly6ofsy06r",782,"186.csv","","null","resources/maskTrios/BBA3.jpg","null","",NA,NA,NA,NA,""
"image-keyboard-response",205,183079,"0.0-3.64-2.64","dc1sjly6ofsy06r",782,"186.csv","","null","resources/images/coin2.png","null","",NA,NA,NA,NA,""
"image-keyboard-response",206,183389,"0.0-3.65-0.65","dc1sjly6ofsy06r",782,"186.csv","","308.0000000000291","resources/trios/L2T1A3.jpg","38","restless",0.6,0.5,0.8,0.0882030946157812,"true"
"image-keyboard-response",207,183792,"0.0-3.65-1.65","dc1sjly6ofsy06r",782,"186.csv","","null","resources/maskTrios/BT1B.jpg","null","",NA,NA,NA,NA,""
"image-keyboard-response",208,184995,"0.0-3.65-2.65","dc1sjly6ofsy06r",782,"186.csv","","null","resources/images/coin2.png","null","",NA,NA,NA,NA,""
"image-keyboard-response",209,185305,"0.0-3.66-0.66","dc1sjly6ofsy06r",782,"186.csv","","308.9999999999709","resources/trios/L4T4A3.jpg","37","restless",0.6,0.5,0.8,0.2620798487817,"true"
"image-keyboard-response",210,185707,"0.0-3.66-1.66","dc1sjly6ofsy06r",782,"186.csv","","null","resources/maskTrios/L4BB.jpg","null","",NA,NA,NA,NA,""
"image-keyboard-response",211,186908,"0.0-3.66-2.66","dc1sjly6ofsy06r",782,"186.csv","","null","resources/images/coin2.png","null","",NA,NA,NA,NA,""
"image-keyboard-response",212,187169,"0.0-3.67-0.67","dc1sjly6ofsy06r",782,"186.csv","","259","resources/trios/L2T4A3.jpg","38","restless",0.5,0.5,0.7,0.184260672895415,"true"
"image-keyboard-response",213,187570,"0.0-3.67-1.67","dc1sjly6ofsy06r",782,"186.csv","","null","resources/maskTrios/BT4B.jpg","null","",NA,NA,NA,NA,""
"image-keyboard-response",214,188773,"0.0-3.67-2.67","dc1sjly6ofsy06r",782,"186.csv","","null","resources/images/coin2.png","null","",NA,NA,NA,NA,""
"image-keyboard-response",215,189107,"0.0-3.68-0.68","dc1sjly6ofsy06r",782,"186.csv","","332","resources/trios/L4T1A1.jpg","39","restless",0.5,0.4,0.6,0.668675284733675,"false"
"image-keyboard-response",216,189509,"0.0-3.68-1.68","dc1sjly6ofsy06r",782,"186.csv","","null","resources/maskTrios/BBA1.jpg","null","",NA,NA,NA,NA,""
"image-keyboard-response",217,190711,"0.0-3.68-2.68","dc1sjly6ofsy06r",782,"186.csv","","null","resources/images/fishbone.png","null","",NA,NA,NA,NA,""
"image-keyboard-response",218,191004,"0.0-3.69-0.69","dc1sjly6ofsy06r",782,"186.csv","","292","resources/trios/L2T4A1.jpg","37","restless",0.5,0.4,0.6,0.263491724215292,"true"
"image-keyboard-response",219,191407,"0.0-3.69-1.69","dc1sjly6ofsy06r",782,"186.csv","","null","resources/maskTrios/L2BB.jpg","null","",NA,NA,NA,NA,""
"image-keyboard-response",220,192609,"0.0-3.69-2.69","dc1sjly6ofsy06r",782,"186.csv","","null","resources/images/coin2.png","null","",NA,NA,NA,NA,""
"image-keyboard-response",221,192872,"0.0-3.70-0.70","dc1sjly6ofsy06r",782,"186.csv","","262","resources/trios/L2T1A3.jpg","38","restless",0.5,0.4,0.6,0.0767194670444388,"true"
"image-keyboard-response",222,193275,"0.0-3.70-1.70","dc1sjly6ofsy06r",782,"186.csv","","null","resources/maskTrios/BT1B.jpg","null","",NA,NA,NA,NA,""
"image-keyboard-response",223,194478,"0.0-3.70-2.70","dc1sjly6ofsy06r",782,"186.csv","","null","resources/images/coin2.png","null","",NA,NA,NA,NA,""
"image-keyboard-response",224,194878,"0.0-3.71-0.71","dc1sjly6ofsy06r",782,"186.csv","","398.0000000000291","resources/trios/L2T1A1.jpg","39","restless",0.5,0.4,0.6,0.793025806633532,"false"
"image-keyboard-response",225,195280,"0.0-3.71-1.71","dc1sjly6ofsy06r",782,"186.csv","","null","resources/maskTrios/BBA1.jpg","null","",NA,NA,NA,NA,""
"image-keyboard-response",226,196481,"0.0-3.71-2.71","dc1sjly6ofsy06r",782,"186.csv","","null","resources/images/fishbone.png","null","",NA,NA,NA,NA,""
"image-keyboard-response",227,196773,"0.0-3.72-0.72","dc1sjly6ofsy06r",782,"186.csv","","289","resources/trios/L4T4A1.jpg","38","restless",0.5,0.4,0.6,0.518560264080919,"false"
"image-keyboard-response",228,197175,"0.0-3.72-1.72","dc1sjly6ofsy06r",782,"186.csv","","null","resources/maskTrios/BT4B.jpg","null","",NA,NA,NA,NA,""
"image-keyboard-response",229,198377,"0.0-3.72-2.72","dc1sjly6ofsy06r",782,"186.csv","","null","resources/images/fishbone.png","null","",NA,NA,NA,NA,""
"image-keyboard-response",230,198690,"0.0-3.73-0.73","dc1sjly6ofsy06r",782,"186.csv","","312","resources/trios/L2T4A1.jpg","37","restless",0.5,0.4,0.7,0.720391261765605,"false"
"image-keyboard-response",231,199092,"0.0-3.73-1.73","dc1sjly6ofsy06r",782,"186.csv","","null","resources/maskTrios/L2BB.jpg","null","",NA,NA,NA,NA,""
"image-keyboard-response",232,200294,"0.0-3.73-2.73","dc1sjly6ofsy06r",782,"186.csv","","null","resources/images/fishbone.png","null","",NA,NA,NA,NA,""
"image-keyboard-response",233,200604,"0.0-3.74-0.74","dc1sjly6ofsy06r",782,"186.csv","","308.0000000000291","resources/trios/L4T1A3.jpg","38","restless",0.5,0.4,0.7,0.704466020557523,"false"
"image-keyboard-response",234,201006,"0.0-3.74-1.74","dc1sjly6ofsy06r",782,"186.csv","","null","resources/maskTrios/BT1B.jpg","null","",NA,NA,NA,NA,""
"image-keyboard-response",235,202208,"0.0-3.74-2.74","dc1sjly6ofsy06r",782,"186.csv","","null","resources/images/fishbone.png","null","",NA,NA,NA,NA,""
"image-keyboard-response",236,202500,"0.0-3.75-0.75","dc1sjly6ofsy06r",782,"186.csv","","290","resources/trios/L4T4A3.jpg","37","restless",0.5,0.4,0.7,0.571382344185081,"false"
"image-keyboard-response",237,202902,"0.0-3.75-1.75","dc1sjly6ofsy06r",782,"186.csv","","null","resources/maskTrios/L4BB.jpg","null","",NA,NA,NA,NA,""
"image-keyboard-response",238,204103,"0.0-3.75-2.75","dc1sjly6ofsy06r",782,"186.csv","","null","resources/images/fishbone.png","null","",NA,NA,NA,NA,""
"image-keyboard-response",239,204577,"0.0-3.76-0.76","dc1sjly6ofsy06r",782,"186.csv","","473.9999999999709","resources/trios/L2T4A1.jpg","37","restless",0.5,0.4,0.7,0.690590919997421,"false"
"image-keyboard-response",240,204980,"0.0-3.76-1.76","dc1sjly6ofsy06r",782,"186.csv","","null","resources/maskTrios/L2BB.jpg","null","",NA,NA,NA,NA,""
"image-keyboard-response",241,206182,"0.0-3.76-2.76","dc1sjly6ofsy06r",782,"186.csv","","null","resources/images/fishbone.png","null","",NA,NA,NA,NA,""
"image-keyboard-response",242,207047,"0.0-3.77-0.77","dc1sjly6ofsy06r",782,"186.csv","","864","resources/trios/L4T4A1.jpg","39","restless",0.5,0.4,0.6,0.980591934788081,"false"
"image-keyboard-response",243,207449,"0.0-3.77-1.77","dc1sjly6ofsy06r",782,"186.csv","","null","resources/maskTrios/BBA1.jpg","null","",NA,NA,NA,NA,""
"image-keyboard-response",244,208652,"0.0-3.77-2.77","dc1sjly6ofsy06r",782,"186.csv","","null","resources/images/fishbone.png","null","",NA,NA,NA,NA,""
"image-keyboard-response",245,209060,"0.0-3.78-0.78","dc1sjly6ofsy06r",782,"186.csv","","407","resources/trios/L2T1A1.jpg","37","restless",0.5,0.4,0.6,0.316667870199656,"true"
"image-keyboard-response",246,209462,"0.0-3.78-1.78","dc1sjly6ofsy06r",782,"186.csv","","null","resources/maskTrios/L2BB.jpg","null","",NA,NA,NA,NA,""
"image-keyboard-response",247,210664,"0.0-3.78-2.78","dc1sjly6ofsy06r",782,"186.csv","","null","resources/images/coin2.png","null","",NA,NA,NA,NA,""
"image-keyboard-response",248,211102,"0.0-3.79-0.79","dc1sjly6ofsy06r",782,"186.csv","","437","resources/trios/L4T1A3.jpg","37","restless",0.5,0.4,0.6,0.676825147741184,"false"
"image-keyboard-response",249,211504,"0.0-3.79-1.79","dc1sjly6ofsy06r",782,"186.csv","","null","resources/maskTrios/L4BB.jpg","null","",NA,NA,NA,NA,""
"image-keyboard-response",250,212707,"0.0-3.79-2.79","dc1sjly6ofsy06r",782,"186.csv","","null","resources/images/fishbone.png","null","",NA,NA,NA,NA,""
"image-keyboard-response",251,212966,"0.0-3.80-0.80","dc1sjly6ofsy06r",782,"186.csv","","258","resources/trios/L4T4A1.jpg","38","restless",0.4,0.4,0.7,0.976718806296776,"false"
"image-keyboard-response",252,213368,"0.0-3.80-1.80","dc1sjly6ofsy06r",782,"186.csv","","null","resources/maskTrios/BT4B.jpg","null","",NA,NA,NA,NA,""
"image-keyboard-response",253,214570,"0.0-3.80-2.80","dc1sjly6ofsy06r",782,"186.csv","","null","resources/images/fishbone.png","null","",NA,NA,NA,NA,""
"image-keyboard-response",254,214801,"0.0-3.81-0.81","dc1sjly6ofsy06r",782,"186.csv","","229","resources/trios/L2T1A1.jpg","37","restless",0.4,0.4,0.7,0.836968302194653,"false"
"image-keyboard-response",255,215203,"0.0-3.81-1.81","dc1sjly6ofsy06r",782,"186.csv","","null","resources/maskTrios/L2BB.jpg","null","",NA,NA,NA,NA,""
"image-keyboard-response",256,216405,"0.0-3.81-2.81","dc1sjly6ofsy06r",782,"186.csv","","null","resources/images/fishbone.png","null","",NA,NA,NA,NA,""
"image-keyboard-response",257,216662,"0.0-3.82-0.82","dc1sjly6ofsy06r",782,"186.csv","","255","resources/trios/L4T1A3.jpg","37","restless",0.4,0.4,0.7,0.628729281632368,"false"
"image-keyboard-response",258,217064,"0.0-3.82-1.82","dc1sjly6ofsy06r",782,"186.csv","","null","resources/maskTrios/L4BB.jpg","null","",NA,NA,NA,NA,""
"image-keyboard-response",259,218266,"0.0-3.82-2.82","dc1sjly6ofsy06r",782,"186.csv","","null","resources/images/fishbone.png","null","",NA,NA,NA,NA,""
"image-keyboard-response",260,218615,"0.0-3.83-0.83","dc1sjly6ofsy06r",782,"186.csv","","348","resources/trios/L4T1A1.jpg","37","restless",0.4,0.4,0.7,0.270855591050321,"true"
"image-keyboard-response",261,219017,"0.0-3.83-1.83","dc1sjly6ofsy06r",782,"186.csv","","null","resources/maskTrios/L4BB.jpg","null","",NA,NA,NA,NA,""
"image-keyboard-response",262,220220,"0.0-3.83-2.83","dc1sjly6ofsy06r",782,"186.csv","","null","resources/images/coin2.png","null","",NA,NA,NA,NA,""
"image-keyboard-response",263,220447,"0.0-3.84-0.84","dc1sjly6ofsy06r",782,"186.csv","","225","resources/trios/L2T4A1.jpg","37","restless",0.4,0.4,0.7,0.53916260822758,"false"
"image-keyboard-response",264,220849,"0.0-3.84-1.84","dc1sjly6ofsy06r",782,"186.csv","","null","resources/maskTrios/L2BB.jpg","null","",NA,NA,NA,NA,""
"image-keyboard-response",265,222051,"0.0-3.84-2.84","dc1sjly6ofsy06r",782,"186.csv","","null","resources/images/fishbone.png","null","",NA,NA,NA,NA,""
"image-keyboard-response",266,222336,"0.0-3.85-0.85","dc1sjly6ofsy06r",782,"186.csv","","283.0000000000291","resources/trios/L2T4A1.jpg","38","restless",0.4,0.4,0.7,0.91867545254501,"false"
"image-keyboard-response",267,222738,"0.0-3.85-1.85","dc1sjly6ofsy06r",782,"186.csv","","null","resources/maskTrios/BT4B.jpg","null","",NA,NA,NA,NA,""
"image-keyboard-response",268,223940,"0.0-3.85-2.85","dc1sjly6ofsy06r",782,"186.csv","","null","resources/images/fishbone.png","null","",NA,NA,NA,NA,""
"image-keyboard-response",269,224132,"0.0-3.86-0.86","dc1sjly6ofsy06r",782,"186.csv","","191","resources/trios/L4T4A3.jpg","38","restless",0.5,0.4,0.7,0.73302228084461,"false"
"image-keyboard-response",270,224535,"0.0-3.86-1.86","dc1sjly6ofsy06r",782,"186.csv","","null","resources/maskTrios/BT4B.jpg","null","",NA,NA,NA,NA,""
"image-keyboard-response",271,225737,"0.0-3.86-2.86","dc1sjly6ofsy06r",782,"186.csv","","null","resources/images/fishbone.png","null","",NA,NA,NA,NA,""
"image-keyboard-response",272,225990,"0.0-3.87-0.87","dc1sjly6ofsy06r",782,"186.csv","","253","resources/trios/L4T4A3.jpg","38","restless",0.4,0.4,0.7,0.726378328615128,"false"
"image-keyboard-response",273,226393,"0.0-3.87-1.87","dc1sjly6ofsy06r",782,"186.csv","","null","resources/maskTrios/BT4B.jpg","null","",NA,NA,NA,NA,""
"image-keyboard-response",274,227595,"0.0-3.87-2.87","dc1sjly6ofsy06r",782,"186.csv","","null","resources/images/fishbone.png","null","",NA,NA,NA,NA,""
"image-keyboard-response",275,227882,"0.0-3.88-0.88","dc1sjly6ofsy06r",782,"186.csv","","285","resources/trios/L2T4A1.jpg","37","restless",0.4,0.4,0.7,0.975946629636644,"false"
"image-keyboard-response",276,228285,"0.0-3.88-1.88","dc1sjly6ofsy06r",782,"186.csv","","null","resources/maskTrios/L2BB.jpg","null","",NA,NA,NA,NA,""
"image-keyboard-response",277,229486,"0.0-3.88-2.88","dc1sjly6ofsy06r",782,"186.csv","","null","resources/images/fishbone.png","null","",NA,NA,NA,NA,""
"image-keyboard-response",278,229966,"0.0-3.89-0.89","dc1sjly6ofsy06r",782,"186.csv","","478","resources/trios/L4T1A3.jpg","37","restless",0.4,0.4,0.8,0.488589770596882,"false"
"image-keyboard-response",279,230368,"0.0-3.89-1.89","dc1sjly6ofsy06r",782,"186.csv","","null","resources/maskTrios/L4BB.jpg","null","",NA,NA,NA,NA,""
"image-keyboard-response",280,231570,"0.0-3.89-2.89","dc1sjly6ofsy06r",782,"186.csv","","null","resources/images/fishbone.png","null","",NA,NA,NA,NA,""
"image-keyboard-response",281,233107,"0.0-3.90-0.90","dc1sjly6ofsy06r",782,"186.csv","","1536","resources/trios/L2T1A3.jpg","37","restless",0.4,0.4,0.8,0.286227137978144,"true"
"image-keyboard-response",282,233509,"0.0-3.90-1.90","dc1sjly6ofsy06r",782,"186.csv","","null","resources/maskTrios/L2BB.jpg","null","",NA,NA,NA,NA,""
"image-keyboard-response",283,234711,"0.0-3.90-2.90","dc1sjly6ofsy06r",782,"186.csv","","null","resources/images/coin2.png","null","",NA,NA,NA,NA,""
"image-keyboard-response",284,235098,"0.0-3.91-0.91","dc1sjly6ofsy06r",782,"186.csv","","385.9999999999709","resources/trios/L4T1A1.jpg","38","restless",0.4,0.4,0.8,0.46707175032051,"false"
"image-keyboard-response",285,235500,"0.0-3.91-1.91","dc1sjly6ofsy06r",782,"186.csv","","null","resources/maskTrios/BT1B.jpg","null","",NA,NA,NA,NA,""
"image-keyboard-response",286,236701,"0.0-3.91-2.91","dc1sjly6ofsy06r",782,"186.csv","","null","resources/images/fishbone.png","null","",NA,NA,NA,NA,""
"image-keyboard-response",287,242632,"0.0-3.92-0.92","dc1sjly6ofsy06r",782,"186.csv","","5929","resources/trios/L2T4A3.jpg","38","restless",0.4,0.4,0.8,0.432105756789401,"false"
"image-keyboard-response",288,243038,"0.0-3.92-1.92","dc1sjly6ofsy06r",782,"186.csv","","null","resources/maskTrios/BT4B.jpg","null","",NA,NA,NA,NA,""
"image-keyboard-response",289,244241,"0.0-3.92-2.92","dc1sjly6ofsy06r",782,"186.csv","","null","resources/images/fishbone.png","null","",NA,NA,NA,NA,""
"image-keyboard-response",290,244583,"0.0-3.93-0.93","dc1sjly6ofsy06r",782,"186.csv","","339.0000000000291","resources/trios/L4T1A3.jpg","37","restless",0.3,0.4,0.8,0.771372131980109,"false"
"image-keyboard-response",291,244986,"0.0-3.93-1.93","dc1sjly6ofsy06r",782,"186.csv","","null","resources/maskTrios/L4BB.jpg","null","",NA,NA,NA,NA,""
"image-keyboard-response",292,246188,"0.0-3.93-2.93","dc1sjly6ofsy06r",782,"186.csv","","null","resources/images/fishbone.png","null","",NA,NA,NA,NA,""
"image-keyboard-response",293,246423,"0.0-3.94-0.94","dc1sjly6ofsy06r",782,"186.csv","","233.9999999999709","resources/trios/L4T1A1.jpg","39","restless",0.2,0.4,0.8,0.208335962484176,"true"
"image-keyboard-response",294,246825,"0.0-3.94-1.94","dc1sjly6ofsy06r",782,"186.csv","","null","resources/maskTrios/BBA1.jpg","null","",NA,NA,NA,NA,""
"image-keyboard-response",295,248026,"0.0-3.94-2.94","dc1sjly6ofsy06r",782,"186.csv","","null","resources/images/coin2.png","null","",NA,NA,NA,NA,""
"image-keyboard-response",296,248286,"0.0-3.95-0.95","dc1sjly6ofsy06r",782,"186.csv","","259","resources/trios/L2T1A3.jpg","39","restless",0.2,0.4,0.8,0.442214194538057,"true"
"image-keyboard-response",297,248689,"0.0-3.95-1.95","dc1sjly6ofsy06r",782,"186.csv","","null","resources/maskTrios/BBA3.jpg","null","",NA,NA,NA,NA,""
"image-keyboard-response",298,249891,"0.0-3.95-2.95","dc1sjly6ofsy06r",782,"186.csv","","null","resources/images/coin2.png","null","",NA,NA,NA,NA,""
"image-keyboard-response",299,250041,"0.0-3.96-0.96","dc1sjly6ofsy06r",782,"186.csv","","149","resources/trios/L4T4A3.jpg","38","restless",0.2,0.4,0.9,0.979978506376655,"false"
"image-keyboard-response",300,250443,"0.0-3.96-1.96","dc1sjly6ofsy06r",782,"186.csv","","null","resources/maskTrios/BT4B.jpg","null","",NA,NA,NA,NA,""
"image-keyboard-response",301,251645,"0.0-3.96-2.96","dc1sjly6ofsy06r",782,"186.csv","","null","resources/images/fishbone.png","null","",NA,NA,NA,NA,""
"image-keyboard-response",302,251846,"0.0-3.97-0.97","dc1sjly6ofsy06r",782,"186.csv","","200","resources/trios/L2T1A3.jpg","39","restless",0.2,0.4,0.9,0.192623041272279,"true"
"image-keyboard-response",303,252249,"0.0-3.97-1.97","dc1sjly6ofsy06r",782,"186.csv","","null","resources/maskTrios/BBA3.jpg","null","",NA,NA,NA,NA,""
"image-keyboard-response",304,253451,"0.0-3.97-2.97","dc1sjly6ofsy06r",782,"186.csv","","null","resources/images/coin2.png","null","",NA,NA,NA,NA,""
"image-keyboard-response",305,253690,"0.0-3.98-0.98","dc1sjly6ofsy06r",782,"186.csv","","238.9999999999709","resources/trios/L2T4A1.jpg","37","restless",0.2,0.4,0.9,0.486282952594052,"false"
"image-keyboard-response",306,254094,"0.0-3.98-1.98","dc1sjly6ofsy06r",782,"186.csv","","null","resources/maskTrios/L2BB.jpg","null","",NA,NA,NA,NA,""
"image-keyboard-response",307,255296,"0.0-3.98-2.98","dc1sjly6ofsy06r",782,"186.csv","","null","resources/images/fishbone.png","null","",NA,NA,NA,NA,""
"image-keyboard-response",308,255443,"0.0-3.99-0.99","dc1sjly6ofsy06r",782,"186.csv","","145.9999999999418","resources/trios/L4T1A1.jpg","38","restless",0.2,0.4,0.9,0.0148070583280605,"true"
"image-keyboard-response",309,255845,"0.0-3.99-1.99","dc1sjly6ofsy06r",782,"186.csv","","null","resources/maskTrios/BT1B.jpg","null","",NA,NA,NA,NA,""
"image-keyboard-response",310,257047,"0.0-3.99-2.99","dc1sjly6ofsy06r",782,"186.csv","","null","resources/images/coin2.png","null","",NA,NA,NA,NA,""
"image-keyboard-response",311,257781,"0.0-3.100-0.100","dc1sjly6ofsy06r",782,"186.csv","","732","resources/trios/L2T1A3.jpg","39","restless",0.2,0.5,0.9,0.495882790112921,"true"
"image-keyboard-response",312,258183,"0.0-3.100-1.100","dc1sjly6ofsy06r",782,"186.csv","","null","resources/maskTrios/BBA3.jpg","null","",NA,NA,NA,NA,""
"image-keyboard-response",313,259385,"0.0-3.100-2.100","dc1sjly6ofsy06r",782,"186.csv","","null","resources/images/coin2.png","null","",NA,NA,NA,NA,""
"image-keyboard-response",314,261267,"0.0-3.101-0.101","dc1sjly6ofsy06r",782,"186.csv","","1880","resources/trios/L2T4A1.jpg","38","restless",0.2,0.5,0.9,0.0151861901651797,"true"
"image-keyboard-response",315,261670,"0.0-3.101-1.101","dc1sjly6ofsy06r",782,"186.csv","","null","resources/maskTrios/BT4B.jpg","null","",NA,NA,NA,NA,""
"image-keyboard-response",316,262872,"0.0-3.101-2.101","dc1sjly6ofsy06r",782,"186.csv","","null","resources/images/coin2.png","null","",NA,NA,NA,NA,""
"image-keyboard-response",317,264241,"0.0-3.102-0.102","dc1sjly6ofsy06r",782,"186.csv","","1367","resources/trios/L4T1A3.jpg","37","restless",0.2,0.5,0.8,0.835739810818454,"false"
"image-keyboard-response",318,264642,"0.0-3.102-1.102","dc1sjly6ofsy06r",782,"186.csv","","null","resources/maskTrios/L4BB.jpg","null","",NA,NA,NA,NA,""
"image-keyboard-response",319,265843,"0.0-3.102-2.102","dc1sjly6ofsy06r",782,"186.csv","","null","resources/images/fishbone.png","null","",NA,NA,NA,NA,""
"image-keyboard-response",320,266163,"0.0-3.103-0.103","dc1sjly6ofsy06r",782,"186.csv","","319","resources/trios/L4T1A3.jpg","39","restless",0.2,0.5,0.9,0.667495570463303,"true"
"image-keyboard-response",321,266566,"0.0-3.103-1.103","dc1sjly6ofsy06r",782,"186.csv","","null","resources/maskTrios/BBA3.jpg","null","",NA,NA,NA,NA,""
"image-keyboard-response",322,267768,"0.0-3.103-2.103","dc1sjly6ofsy06r",782,"186.csv","","null","resources/images/coin2.png","null","",NA,NA,NA,NA,""
"image-keyboard-response",323,268238,"0.0-3.104-0.104","dc1sjly6ofsy06r",782,"186.csv","","470","resources/trios/L2T4A3.jpg","38","restless",0.2,0.5,0.9,0.546196250471785,"false"
"image-keyboard-response",324,268641,"0.0-3.104-1.104","dc1sjly6ofsy06r",782,"186.csv","","null","resources/maskTrios/BT4B.jpg","null","",NA,NA,NA,NA,""
"image-keyboard-response",325,269843,"0.0-3.104-2.104","dc1sjly6ofsy06r",782,"186.csv","","null","resources/images/fishbone.png","null","",NA,NA,NA,NA,""
"image-keyboard-response",326,272861,"0.0-3.105-0.105","dc1sjly6ofsy06r",782,"186.csv","","3017","resources/trios/L2T4A3.jpg","37","restless",0.2,0.5,0.9,0.0777988762728076,"true"
"image-keyboard-response",327,273264,"0.0-3.105-1.105","dc1sjly6ofsy06r",782,"186.csv","","null","resources/maskTrios/L2BB.jpg","null","",NA,NA,NA,NA,""
"image-keyboard-response",328,274466,"0.0-3.105-2.105","dc1sjly6ofsy06r",782,"186.csv","","null","resources/images/coin2.png","null","",NA,NA,NA,NA,""
"image-keyboard-response",329,275643,"0.0-3.106-0.106","dc1sjly6ofsy06r",782,"186.csv","","1175","resources/trios/L4T4A1.jpg","37","restless",0.2,0.5,0.9,0.899365169961795,"false"
"image-keyboard-response",330,276046,"0.0-3.106-1.106","dc1sjly6ofsy06r",782,"186.csv","","null","resources/maskTrios/L4BB.jpg","null","",NA,NA,NA,NA,""
"image-keyboard-response",331,277248,"0.0-3.106-2.106","dc1sjly6ofsy06r",782,"186.csv","","null","resources/images/fishbone.png","null","",NA,NA,NA,NA,""
"image-keyboard-response",332,277288,"0.0-3.107-0.107","dc1sjly6ofsy06r",782,"186.csv","","38.00000000005821","resources/trios/L2T1A1.jpg","39","restless",0.2,0.5,0.8,0.283760856750184,"true"
"image-keyboard-response",333,277689,"0.0-3.107-1.107","dc1sjly6ofsy06r",782,"186.csv","","null","resources/maskTrios/BBA1.jpg","null","",NA,NA,NA,NA,""
"image-keyboard-response",334,278892,"0.0-3.107-2.107","dc1sjly6ofsy06r",782,"186.csv","","null","resources/images/coin2.png","null","",NA,NA,NA,NA,""
"image-keyboard-response",335,279296,"0.0-3.108-0.108","dc1sjly6ofsy06r",782,"186.csv","","402","resources/trios/L4T1A1.jpg","38","restless",0.2,0.5,0.8,0.677887752138713,"false"
"image-keyboard-response",336,279698,"0.0-3.108-1.108","dc1sjly6ofsy06r",782,"186.csv","","null","resources/maskTrios/BT1B.jpg","null","",NA,NA,NA,NA,""
"image-keyboard-response",337,280901,"0.0-3.108-2.108","dc1sjly6ofsy06r",782,"186.csv","","null","resources/images/fishbone.png","null","",NA,NA,NA,NA,""
"image-keyboard-response",338,281172,"0.0-3.109-0.109","dc1sjly6ofsy06r",782,"186.csv","","268","resources/trios/L4T1A3.jpg","37","restless",0.2,0.5,0.8,0.584128799219736,"false"
"image-keyboard-response",339,281574,"0.0-3.109-1.109","dc1sjly6ofsy06r",782,"186.csv","","null","resources/maskTrios/L4BB.jpg","null","",NA,NA,NA,NA,""
"image-keyboard-response",340,282776,"0.0-3.109-2.109","dc1sjly6ofsy06r",782,"186.csv","","null","resources/images/fishbone.png","null","",NA,NA,NA,NA,""
"image-keyboard-response",341,283094,"0.0-3.110-0.110","dc1sjly6ofsy06r",782,"186.csv","","317","resources/trios/L4T1A1.jpg","37","restless",0.2,0.5,0.8,0.38268790307956,"false"
"image-keyboard-response",342,283495,"0.0-3.110-1.110","dc1sjly6ofsy06r",782,"186.csv","","null","resources/maskTrios/L4BB.jpg","null","",NA,NA,NA,NA,""
"image-keyboard-response",343,284698,"0.0-3.110-2.110","dc1sjly6ofsy06r",782,"186.csv","","null","resources/images/fishbone.png","null","",NA,NA,NA,NA,""
"image-keyboard-response",344,285003,"0.0-3.111-0.111","dc1sjly6ofsy06r",782,"186.csv","","304.0000000000582","resources/trios/L4T4A1.jpg","37","restless",0.2,0.5,0.8,0.62650581197662,"false"
"image-keyboard-response",345,285406,"0.0-3.111-1.111","dc1sjly6ofsy06r",782,"186.csv","","null","resources/maskTrios/L4BB.jpg","null","",NA,NA,NA,NA,""
"image-keyboard-response",346,286608,"0.0-3.111-2.111","dc1sjly6ofsy06r",782,"186.csv","","null","resources/images/fishbone.png","null","",NA,NA,NA,NA,""
"image-keyboard-response",347,286926,"0.0-3.112-0.112","dc1sjly6ofsy06r",782,"186.csv","","317","resources/trios/L2T4A3.jpg","37","restless",0.3,0.5,0.8,0.427331953983653,"false"
"image-keyboard-response",348,287329,"0.0-3.112-1.112","dc1sjly6ofsy06r",782,"186.csv","","null","resources/maskTrios/L2BB.jpg","null","",NA,NA,NA,NA,""
"image-keyboard-response",349,288531,"0.0-3.112-2.112","dc1sjly6ofsy06r",782,"186.csv","","null","resources/images/fishbone.png","null","",NA,NA,NA,NA,""
"image-keyboard-response",350,288864,"0.0-3.113-0.113","dc1sjly6ofsy06r",782,"186.csv","","331","resources/trios/L2T4A1.jpg","38","restless",0.3,0.5,0.8,0.962859401893216,"false"
"image-keyboard-response",351,289265,"0.0-3.113-1.113","dc1sjly6ofsy06r",782,"186.csv","","null","resources/maskTrios/BT4B.jpg","null","",NA,NA,NA,NA,""
"image-keyboard-response",352,290467,"0.0-3.113-2.113","dc1sjly6ofsy06r",782,"186.csv","","null","resources/images/fishbone.png","null","",NA,NA,NA,NA,""
"image-keyboard-response",353,290772,"0.0-3.114-0.114","dc1sjly6ofsy06r",782,"186.csv","","304","resources/trios/L2T1A1.jpg","37","restless",0.3,0.5,0.8,0.190819270648081,"true"
"image-keyboard-response",354,291175,"0.0-3.114-1.114","dc1sjly6ofsy06r",782,"186.csv","","null","resources/maskTrios/L2BB.jpg","null","",NA,NA,NA,NA,""
"image-keyboard-response",355,292377,"0.0-3.114-2.114","dc1sjly6ofsy06r",782,"186.csv","","null","resources/images/coin2.png","null","",NA,NA,NA,NA,""
"image-keyboard-response",356,292659,"0.0-3.115-0.115","dc1sjly6ofsy06r",782,"186.csv","","281","resources/trios/L2T4A3.jpg","37","restless",0.3,0.5,0.8,0.343349558685232,"false"
"image-keyboard-response",357,293062,"0.0-3.115-1.115","dc1sjly6ofsy06r",782,"186.csv","","null","resources/maskTrios/L2BB.jpg","null","",NA,NA,NA,NA,""
"image-keyboard-response",358,294263,"0.0-3.115-2.115","dc1sjly6ofsy06r",782,"186.csv","","null","resources/images/fishbone.png","null","",NA,NA,NA,NA,""
"image-keyboard-response",359,294583,"0.0-3.116-0.116","dc1sjly6ofsy06r",782,"186.csv","","319","resources/trios/L2T1A1.jpg","38","restless",0.3,0.5,0.8,0.826945282430195,"false"
"image-keyboard-response",360,294985,"0.0-3.116-1.116","dc1sjly6ofsy06r",782,"186.csv","","null","resources/maskTrios/BT1B.jpg","null","",NA,NA,NA,NA,""
"image-keyboard-response",361,296187,"0.0-3.116-2.116","dc1sjly6ofsy06r",782,"186.csv","","null","resources/images/fishbone.png","null","",NA,NA,NA,NA,""
"image-keyboard-response",362,296458,"0.0-3.117-0.117","dc1sjly6ofsy06r",782,"186.csv","","269.9999999999418","resources/trios/L4T1A1.jpg","37","restless",0.3,0.4,0.8,0.462458960165602,"false"
"image-keyboard-response",363,296860,"0.0-3.117-1.117","dc1sjly6ofsy06r",782,"186.csv","","null","resources/maskTrios/L4BB.jpg","null","",NA,NA,NA,NA,""
"image-keyboard-response",364,298062,"0.0-3.117-2.117","dc1sjly6ofsy06r",782,"186.csv","","null","resources/images/fishbone.png","null","",NA,NA,NA,NA,""
"image-keyboard-response",365,298353,"0.0-3.118-0.118","dc1sjly6ofsy06r",782,"186.csv","","289.0000000000582","resources/trios/L2T1A1.jpg","39","restless",0.3,0.4,0.8,0.614901322479267,"true"
"image-keyboard-response",366,298756,"0.0-3.118-1.118","dc1sjly6ofsy06r",782,"186.csv","","null","resources/maskTrios/BBA1.jpg","null","",NA,NA,NA,NA,""
"image-keyboard-response",367,299958,"0.0-3.118-2.118","dc1sjly6ofsy06r",782,"186.csv","","null","resources/images/coin2.png","null","",NA,NA,NA,NA,""
"image-keyboard-response",368,300184,"0.0-3.119-0.119","dc1sjly6ofsy06r",782,"186.csv","","224","resources/trios/L4T4A1.jpg","39","restless",0.3,0.4,0.8,0.390137455785979,"true"
"image-keyboard-response",369,300587,"0.0-3.119-1.119","dc1sjly6ofsy06r",782,"186.csv","","null","resources/maskTrios/BBA1.jpg","null","",NA,NA,NA,NA,""
"image-keyboard-response",370,301789,"0.0-3.119-2.119","dc1sjly6ofsy06r",782,"186.csv","","null","resources/images/coin2.png","null","",NA,NA,NA,NA,""
"image-keyboard-response",371,302065,"0.0-3.120-0.120","dc1sjly6ofsy06r",782,"186.csv","","274","resources/trios/L2T1A3.jpg","39","restless",0.3,0.4,0.8,0.456753803596031,"true"
"image-keyboard-response",372,302469,"0.0-3.120-1.120","dc1sjly6ofsy06r",782,"186.csv","","null","resources/maskTrios/BBA3.jpg","null","",NA,NA,NA,NA,""
"image-keyboard-response",373,303671,"0.0-3.120-2.120","dc1sjly6ofsy06r",782,"186.csv","","null","resources/images/coin2.png","null","",NA,NA,NA,NA,""
"image-keyboard-response",374,304002,"0.0-3.121-0.121","dc1sjly6ofsy06r",782,"186.csv","","329","resources/trios/L2T1A1.jpg","39","restless",0.3,0.4,0.8,0.495409740701488,"true"
"image-keyboard-response",375,304406,"0.0-3.121-1.121","dc1sjly6ofsy06r",782,"186.csv","","null","resources/maskTrios/BBA1.jpg","null","",NA,NA,NA,NA,""
"image-keyboard-response",376,305608,"0.0-3.121-2.121","dc1sjly6ofsy06r",782,"186.csv","","null","resources/images/coin2.png","null","",NA,NA,NA,NA,""
"image-keyboard-response",377,305887,"0.0-3.122-0.122","dc1sjly6ofsy06r",782,"186.csv","","277","resources/trios/L4T4A1.jpg","39","restless",0.3,0.4,0.9,0.0255023982804404,"true"
"image-keyboard-response",378,306290,"0.0-3.122-1.122","dc1sjly6ofsy06r",782,"186.csv","","null","resources/maskTrios/BBA1.jpg","null","",NA,NA,NA,NA,""
"image-keyboard-response",379,307491,"0.0-3.122-2.122","dc1sjly6ofsy06r",782,"186.csv","","null","resources/images/coin2.png","null","",NA,NA,NA,NA,""
"image-keyboard-response",380,307772,"0.0-3.123-0.123","dc1sjly6ofsy06r",782,"186.csv","","280","resources/trios/L4T1A1.jpg","38","restless",0.3,0.4,0.9,0.794026511621795,"false"
"image-keyboard-response",381,308174,"0.0-3.123-1.123","dc1sjly6ofsy06r",782,"186.csv","","null","resources/maskTrios/BT1B.jpg","null","",NA,NA,NA,NA,""
"image-keyboard-response",382,309376,"0.0-3.123-2.123","dc1sjly6ofsy06r",782,"186.csv","","null","resources/images/fishbone.png","null","",NA,NA,NA,NA,""
"image-keyboard-response",383,309630,"0.0-3.124-0.124","dc1sjly6ofsy06r",782,"186.csv","","252","resources/trios/L4T4A3.jpg","39","restless",0.3,0.4,0.9,0.13480382731167,"true"
"image-keyboard-response",384,310031,"0.0-3.124-1.124","dc1sjly6ofsy06r",782,"186.csv","","null","resources/maskTrios/BBA3.jpg","null","",NA,NA,NA,NA,""
"image-keyboard-response",385,311232,"0.0-3.124-2.124","dc1sjly6ofsy06r",782,"186.csv","","null","resources/images/coin2.png","null","",NA,NA,NA,NA,""
"image-keyboard-response",386,311552,"0.0-3.125-0.125","dc1sjly6ofsy06r",782,"186.csv","","317.0000000000582","resources/trios/L4T1A1.jpg","39","restless",0.3,0.4,0.9,0.730652369366869,"true"
"image-keyboard-response",387,311954,"0.0-3.125-1.125","dc1sjly6ofsy06r",782,"186.csv","","null","resources/maskTrios/BBA1.jpg","null","",NA,NA,NA,NA,""
"image-keyboard-response",388,313156,"0.0-3.125-2.125","dc1sjly6ofsy06r",782,"186.csv","","null","resources/images/coin2.png","null","",NA,NA,NA,NA,""
"image-keyboard-response",389,313470,"0.0-3.126-0.126","dc1sjly6ofsy06r",782,"186.csv","","313","resources/trios/L2T1A3.jpg","39","restless",0.4,0.4,0.9,0.951558687063403,"false"
"image-keyboard-response",390,313874,"0.0-3.126-1.126","dc1sjly6ofsy06r",782,"186.csv","","null","resources/maskTrios/BBA3.jpg","null","",NA,NA,NA,NA,""
"image-keyboard-response",391,315075,"0.0-3.126-2.126","dc1sjly6ofsy06r",782,"186.csv","","null","resources/images/fishbone.png","null","",NA,NA,NA,NA,""
"image-keyboard-response",392,315399,"0.0-3.127-0.127","dc1sjly6ofsy06r",782,"186.csv","","321","resources/trios/L4T4A1.jpg","37","restless",0.4,0.4,0.9,0.534342985026466,"false"
"image-keyboard-response",393,315801,"0.0-3.127-1.127","dc1sjly6ofsy06r",782,"186.csv","","null","resources/maskTrios/L4BB.jpg","null","",NA,NA,NA,NA,""
"image-keyboard-response",394,317003,"0.0-3.127-2.127","dc1sjly6ofsy06r",782,"186.csv","","null","resources/images/fishbone.png","null","",NA,NA,NA,NA,""
"image-keyboard-response",395,317278,"0.0-3.128-0.128","dc1sjly6ofsy06r",782,"186.csv","","270.0000000000582","resources/trios/L4T1A3.jpg","38","restless",0.4,0.4,0.9,0.396914188373656,"true"
"image-keyboard-response",396,317680,"0.0-3.128-1.128","dc1sjly6ofsy06r",782,"186.csv","","null","resources/maskTrios/BT1B.jpg","null","",NA,NA,NA,NA,""
"image-keyboard-response",397,318883,"0.0-3.128-2.128","dc1sjly6ofsy06r",782,"186.csv","","null","resources/images/coin2.png","null","",NA,NA,NA,NA,""
"image-keyboard-response",398,319193,"0.0-3.129-0.129","dc1sjly6ofsy06r",782,"186.csv","","310","resources/trios/L4T4A3.jpg","39","restless",0.4,0.3,0.9,0.0714038922146158,"true"
"image-keyboard-response",399,319595,"0.0-3.129-1.129","dc1sjly6ofsy06r",782,"186.csv","","null","resources/maskTrios/BBA3.jpg","null","",NA,NA,NA,NA,""
"image-keyboard-response",400,320798,"0.0-3.129-2.129","dc1sjly6ofsy06r",782,"186.csv","","null","resources/images/coin2.png","null","",NA,NA,NA,NA,""
"image-keyboard-response",401,320998,"0.0-3.130-0.130","dc1sjly6ofsy06r",782,"186.csv","","199.0000000000582","resources/trios/L4T4A1.jpg","39","restless",0.4,0.3,0.9,0.37283307706347,"true"
"image-keyboard-response",402,321401,"0.0-3.130-1.130","dc1sjly6ofsy06r",782,"186.csv","","null","resources/maskTrios/BBA1.jpg","null","",NA,NA,NA,NA,""
"image-keyboard-response",403,322603,"0.0-3.130-2.130","dc1sjly6ofsy06r",782,"186.csv","","null","resources/images/coin2.png","null","",NA,NA,NA,NA,""
"image-keyboard-response",404,322851,"0.0-3.131-0.131","dc1sjly6ofsy06r",782,"186.csv","","245.9999999999418","resources/trios/L4T1A1.jpg","39","restless",0.4,0.3,0.9,0.973833496365516,"false"
"image-keyboard-response",405,323253,"0.0-3.131-1.131","dc1sjly6ofsy06r",782,"186.csv","","null","resources/maskTrios/BBA1.jpg","null","",NA,NA,NA,NA,""
"image-keyboard-response",406,324454,"0.0-3.131-2.131","dc1sjly6ofsy06r",782,"186.csv","","null","resources/images/fishbone.png","null","",NA,NA,NA,NA,""
"image-keyboard-response",407,324571,"0.0-3.132-0.132","dc1sjly6ofsy06r",782,"186.csv","","114","resources/trios/L4T1A3.jpg","38","restless",0.4,0.3,0.9,0.465789248801046,"false"
"image-keyboard-response",408,324973,"0.0-3.132-1.132","dc1sjly6ofsy06r",782,"186.csv","","null","resources/maskTrios/BT1B.jpg","null","",NA,NA,NA,NA,""
"image-keyboard-response",409,326176,"0.0-3.132-2.132","dc1sjly6ofsy06r",782,"186.csv","","null","resources/images/fishbone.png","null","",NA,NA,NA,NA,""
"image-keyboard-response",410,326471,"0.0-3.133-0.133","dc1sjly6ofsy06r",782,"186.csv","","294.9999999999418","resources/trios/L2T4A3.jpg","37","restless",0.4,0.3,0.9,0.606079139044879,"false"
"image-keyboard-response",411,326873,"0.0-3.133-1.133","dc1sjly6ofsy06r",782,"186.csv","","null","resources/maskTrios/L2BB.jpg","null","",NA,NA,NA,NA,""
"image-keyboard-response",412,328075,"0.0-3.133-2.133","dc1sjly6ofsy06r",782,"186.csv","","null","resources/images/fishbone.png","null","",NA,NA,NA,NA,""
"image-keyboard-response",413,328366,"0.0-3.134-0.134","dc1sjly6ofsy06r",782,"186.csv","","289","resources/trios/L2T1A1.jpg","38","restless",0.4,0.3,0.9,0.834388676399872,"false"
"image-keyboard-response",414,328767,"0.0-3.134-1.134","dc1sjly6ofsy06r",782,"186.csv","","null","resources/maskTrios/BT1B.jpg","null","",NA,NA,NA,NA,""
"image-keyboard-response",415,329971,"0.0-3.134-2.134","dc1sjly6ofsy06r",782,"186.csv","","null","resources/images/fishbone.png","null","",NA,NA,NA,NA,""
"image-keyboard-response",416,330301,"0.0-3.135-0.135","dc1sjly6ofsy06r",782,"186.csv","","328","resources/trios/L4T4A3.jpg","39","restless",0.4,0.3,0.9,0.727283879814632,"true"
"image-keyboard-response",417,330704,"0.0-3.135-1.135","dc1sjly6ofsy06r",782,"186.csv","","null","resources/maskTrios/BBA3.jpg","null","",NA,NA,NA,NA,""
"image-keyboard-response",418,331906,"0.0-3.135-2.135","dc1sjly6ofsy06r",782,"186.csv","","null","resources/images/coin2.png","null","",NA,NA,NA,NA,""
"image-keyboard-response",419,332196,"0.0-3.136-0.136","dc1sjly6ofsy06r",782,"186.csv","","288","resources/trios/L2T1A3.jpg","39","restless",0.3,0.3,0.9,0.158239541711823,"true"
"image-keyboard-response",420,332599,"0.0-3.136-1.136","dc1sjly6ofsy06r",782,"186.csv","","null","resources/maskTrios/BBA3.jpg","null","",NA,NA,NA,NA,""
"image-keyboard-response",421,333800,"0.0-3.136-2.136","dc1sjly6ofsy06r",782,"186.csv","","null","resources/images/coin2.png","null","",NA,NA,NA,NA,""
"image-keyboard-response",422,334398,"0.0-3.137-0.137","dc1sjly6ofsy06r",782,"186.csv","","595.9999999999418","resources/trios/L4T4A1.jpg","39","restless",0.3,0.2,0.9,0.848356891426539,"true"
"image-keyboard-response",423,334799,"0.0-3.137-1.137","dc1sjly6ofsy06r",782,"186.csv","","null","resources/maskTrios/BBA1.jpg","null","",NA,NA,NA,NA,""
"image-keyboard-response",424,336002,"0.0-3.137-2.137","dc1sjly6ofsy06r",782,"186.csv","","null","resources/images/coin2.png","null","",NA,NA,NA,NA,""
"image-keyboard-response",425,336302,"0.0-3.138-0.138","dc1sjly6ofsy06r",782,"186.csv","","298","resources/trios/L4T1A3.jpg","39","restless",0.3,0.2,0.9,0.213665573935811,"true"
"image-keyboard-response",426,336705,"0.0-3.138-1.138","dc1sjly6ofsy06r",782,"186.csv","","null","resources/maskTrios/BBA3.jpg","null","",NA,NA,NA,NA,""
"image-keyboard-response",427,337908,"0.0-3.138-2.138","dc1sjly6ofsy06r",782,"186.csv","","null","resources/images/coin2.png","null","",NA,NA,NA,NA,""
"image-keyboard-response",428,338417,"0.0-3.139-0.139","dc1sjly6ofsy06r",782,"186.csv","","508","resources/trios/L4T1A1.jpg","39","restless",0.3,0.2,0.9,0.0101036529321995,"true"
"image-keyboard-response",429,338820,"0.0-3.139-1.139","dc1sjly6ofsy06r",782,"186.csv","","null","resources/maskTrios/BBA1.jpg","null","",NA,NA,NA,NA,""
"image-keyboard-response",430,340021,"0.0-3.139-2.139","dc1sjly6ofsy06r",782,"186.csv","","null","resources/images/coin2.png","null","",NA,NA,NA,NA,""
"image-keyboard-response",431,340583,"0.0-3.140-0.140","dc1sjly6ofsy06r",782,"186.csv","","561","resources/trios/L4T4A1.jpg","39","restless",0.3,0.2,0.9,0.53855556484971,"true"
"image-keyboard-response",432,340985,"0.0-3.140-1.140","dc1sjly6ofsy06r",782,"186.csv","","null","resources/maskTrios/BBA1.jpg","null","",NA,NA,NA,NA,""
"image-keyboard-response",433,342186,"0.0-3.140-2.140","dc1sjly6ofsy06r",782,"186.csv","","null","resources/images/coin2.png","null","",NA,NA,NA,NA,""
"image-keyboard-response",434,342491,"0.0-3.141-0.141","dc1sjly6ofsy06r",782,"186.csv","","303","resources/trios/L4T1A1.jpg","39","restless",0.3,0.2,0.9,0.606695828767245,"true"
"image-keyboard-response",435,342894,"0.0-3.141-1.141","dc1sjly6ofsy06r",782,"186.csv","","null","resources/maskTrios/BBA1.jpg","null","",NA,NA,NA,NA,""
"image-keyboard-response",436,344096,"0.0-3.141-2.141","dc1sjly6ofsy06r",782,"186.csv","","null","resources/images/coin2.png","null","",NA,NA,NA,NA,""
"image-keyboard-response",437,344375,"0.0-3.142-0.142","dc1sjly6ofsy06r",782,"186.csv","","278","resources/trios/L2T1A1.jpg","39","restless",0.2,0.2,0.9,0.885666804817293,"true"
"image-keyboard-response",438,344777,"0.0-3.142-1.142","dc1sjly6ofsy06r",782,"186.csv","","null","resources/maskTrios/BBA1.jpg","null","",NA,NA,NA,NA,""
"image-keyboard-response",439,345979,"0.0-3.142-2.142","dc1sjly6ofsy06r",782,"186.csv","","null","resources/images/coin2.png","null","",NA,NA,NA,NA,""
"image-keyboard-response",440,346209,"0.0-3.143-0.143","dc1sjly6ofsy06r",782,"186.csv","","228","resources/trios/L2T4A3.jpg","39","restless",0.2,0.2,0.8,0.647703727063978,"true"
"image-keyboard-response",441,346611,"0.0-3.143-1.143","dc1sjly6ofsy06r",782,"186.csv","","null","resources/maskTrios/BBA3.jpg","null","",NA,NA,NA,NA,""
"image-keyboard-response",442,347814,"0.0-3.143-2.143","dc1sjly6ofsy06r",782,"186.csv","","null","resources/images/coin2.png","null","",NA,NA,NA,NA,""
"image-keyboard-response",443,348077,"0.0-3.144-0.144","dc1sjly6ofsy06r",782,"186.csv","","262","resources/trios/L2T1A3.jpg","39","restless",0.2,0.2,0.8,0.266841284069761,"true"
"image-keyboard-response",444,348479,"0.0-3.144-1.144","dc1sjly6ofsy06r",782,"186.csv","","null","resources/maskTrios/BBA3.jpg","null","",NA,NA,NA,NA,""
"image-keyboard-response",445,349682,"0.0-3.144-2.144","dc1sjly6ofsy06r",782,"186.csv","","null","resources/images/coin2.png","null","",NA,NA,NA,NA,""
"image-keyboard-response",446,349886,"0.0-3.145-0.145","dc1sjly6ofsy06r",782,"186.csv","","203.0000000000582","resources/trios/L4T1A3.jpg","39","restless",0.2,0.2,0.8,0.223179255501312,"true"
"image-keyboard-response",447,350289,"0.0-3.145-1.145","dc1sjly6ofsy06r",782,"186.csv","","null","resources/maskTrios/BBA3.jpg","null","",NA,NA,NA,NA,""
"image-keyboard-response",448,351491,"0.0-3.145-2.145","dc1sjly6ofsy06r",782,"186.csv","","null","resources/images/coin2.png","null","",NA,NA,NA,NA,""
"image-keyboard-response",449,351765,"0.0-3.146-0.146","dc1sjly6ofsy06r",782,"186.csv","","271","resources/trios/L2T1A1.jpg","39","restless",0.2,0.3,0.8,0.339160230264154,"true"
"image-keyboard-response",450,352167,"0.0-3.146-1.146","dc1sjly6ofsy06r",782,"186.csv","","null","resources/maskTrios/BBA1.jpg","null","",NA,NA,NA,NA,""
"image-keyboard-response",451,353369,"0.0-3.146-2.146","dc1sjly6ofsy06r",782,"186.csv","","null","resources/images/coin2.png","null","",NA,NA,NA,NA,""
"image-keyboard-response",452,353691,"0.0-3.147-0.147","dc1sjly6ofsy06r",782,"186.csv","","320","resources/trios/L2T4A3.jpg","39","restless",0.2,0.4,0.7,0.442954121617701,"true"
"image-keyboard-response",453,354093,"0.0-3.147-1.147","dc1sjly6ofsy06r",782,"186.csv","","null","resources/maskTrios/BBA3.jpg","null","",NA,NA,NA,NA,""
"image-keyboard-response",454,355295,"0.0-3.147-2.147","dc1sjly6ofsy06r",782,"186.csv","","null","resources/images/coin2.png","null","",NA,NA,NA,NA,""
"image-keyboard-response",455,355667,"0.0-3.148-0.148","dc1sjly6ofsy06r",782,"186.csv","","370","resources/trios/L4T1A1.jpg","38","restless",0.2,0.4,0.7,0.450350678821074,"false"
"image-keyboard-response",456,356069,"0.0-3.148-1.148","dc1sjly6ofsy06r",782,"186.csv","","null","resources/maskTrios/BT1B.jpg","null","",NA,NA,NA,NA,""
"image-keyboard-response",457,357271,"0.0-3.148-2.148","dc1sjly6ofsy06r",782,"186.csv","","null","resources/images/fishbone.png","null","",NA,NA,NA,NA,""
"image-keyboard-response",458,357529,"0.0-3.149-0.149","dc1sjly6ofsy06r",782,"186.csv","","256.0000000000582","resources/trios/L4T1A1.jpg","39","restless",0.2,0.5,0.7,0.344482992381386,"true"
"image-keyboard-response",459,357931,"0.0-3.149-1.149","dc1sjly6ofsy06r",782,"186.csv","","null","resources/maskTrios/BBA1.jpg","null","",NA,NA,NA,NA,""
"image-keyboard-response",460,359133,"0.0-3.149-2.149","dc1sjly6ofsy06r",782,"186.csv","","null","resources/images/coin2.png","null","",NA,NA,NA,NA,""
"image-keyboard-response",461,359410,"0.0-3.150-0.150","dc1sjly6ofsy06r",782,"186.csv","","274","resources/trios/L4T1A3.jpg","39","restless",0.2,0.5,0.7,0.538741228885442,"true"
"image-keyboard-response",462,359813,"0.0-3.150-1.150","dc1sjly6ofsy06r",782,"186.csv","","null","resources/maskTrios/BBA3.jpg","null","",NA,NA,NA,NA,""
"image-keyboard-response",463,361015,"0.0-3.150-2.150","dc1sjly6ofsy06r",782,"186.csv","","null","resources/images/coin2.png","null","",NA,NA,NA,NA,""
"image-keyboard-response",464,361157,"0.0-3.151-0.151","dc1sjly6ofsy06r",782,"186.csv","","139.9999999999418","resources/trios/L2T1A3.jpg","39","restless",0.2,0.6,0.7,0.484217020262241,"true"
"image-keyboard-response",465,361559,"0.0-3.151-1.151","dc1sjly6ofsy06r",782,"186.csv","","null","resources/maskTrios/BBA3.jpg","null","",NA,NA,NA,NA,""
"image-keyboard-response",466,362762,"0.0-3.151-2.151","dc1sjly6ofsy06r",782,"186.csv","","null","resources/images/coin2.png","null","",NA,NA,NA,NA,""
"image-keyboard-response",467,363056,"0.0-3.152-0.152","dc1sjly6ofsy06r",782,"186.csv","","292","resources/trios/L4T4A1.jpg","39","restless",0.2,0.6,0.7,0.956153601374418,"false"
"image-keyboard-response",468,363459,"0.0-3.152-1.152","dc1sjly6ofsy06r",782,"186.csv","","null","resources/maskTrios/BBA1.jpg","null","",NA,NA,NA,NA,""
"image-keyboard-response",469,364661,"0.0-3.152-2.152","dc1sjly6ofsy06r",782,"186.csv","","null","resources/images/fishbone.png","null","",NA,NA,NA,NA,""
"image-keyboard-response",470,364954,"0.0-3.153-0.153","dc1sjly6ofsy06r",782,"186.csv","","291","resources/trios/L4T1A3.jpg","38","restless",0.2,0.6,0.7,0.145889822025091,"true"
"image-keyboard-response",471,365356,"0.0-3.153-1.153","dc1sjly6ofsy06r",782,"186.csv","","null","resources/maskTrios/BT1B.jpg","null","",NA,NA,NA,NA,""
"image-keyboard-response",472,366559,"0.0-3.153-2.153","dc1sjly6ofsy06r",782,"186.csv","","null","resources/images/coin2.png","null","",NA,NA,NA,NA,""
"image-keyboard-response",473,367003,"0.0-3.154-0.154","dc1sjly6ofsy06r",782,"186.csv","","443","resources/trios/L4T4A3.jpg","38","restless",0.1,0.6,0.7,0.352340904420486,"true"
"image-keyboard-response",474,367405,"0.0-3.154-1.154","dc1sjly6ofsy06r",782,"186.csv","","null","resources/maskTrios/BT4B.jpg","null","",NA,NA,NA,NA,""
"image-keyboard-response",475,368607,"0.0-3.154-2.154","dc1sjly6ofsy06r",782,"186.csv","","null","resources/images/coin2.png","null","",NA,NA,NA,NA,""
"image-keyboard-response",476,368903,"0.0-3.155-0.155","dc1sjly6ofsy06r",782,"186.csv","","295","resources/trios/L2T1A1.jpg","38","restless",0.1,0.6,0.7,0.500736749177561,"true"
"image-keyboard-response",477,369305,"0.0-3.155-1.155","dc1sjly6ofsy06r",782,"186.csv","","null","resources/maskTrios/BT1B.jpg","null","",NA,NA,NA,NA,""
"image-keyboard-response",478,370507,"0.0-3.155-2.155","dc1sjly6ofsy06r",782,"186.csv","","null","resources/images/coin2.png","null","",NA,NA,NA,NA,""
"image-keyboard-response",479,370813,"0.0-3.156-0.156","dc1sjly6ofsy06r",782,"186.csv","","303","resources/trios/L2T4A1.jpg","38","restless",0.1,0.5,0.7,0.688385814027249,"false"
"image-keyboard-response",480,371215,"0.0-3.156-1.156","dc1sjly6ofsy06r",782,"186.csv","","null","resources/maskTrios/BT4B.jpg","null","",NA,NA,NA,NA,""
"image-keyboard-response",481,372416,"0.0-3.156-2.156","dc1sjly6ofsy06r",782,"186.csv","","null","resources/images/fishbone.png","null","",NA,NA,NA,NA,""
"image-keyboard-response",482,372784,"0.0-3.157-0.157","dc1sjly6ofsy06r",782,"186.csv","","366","resources/trios/L4T4A3.jpg","38","restless",0.1,0.5,0.7,0.637049362975018,"false"
"image-keyboard-response",483,373185,"0.0-3.157-1.157","dc1sjly6ofsy06r",782,"186.csv","","null","resources/maskTrios/BT4B.jpg","null","",NA,NA,NA,NA,""
"image-keyboard-response",484,374388,"0.0-3.157-2.157","dc1sjly6ofsy06r",782,"186.csv","","null","resources/images/fishbone.png","null","",NA,NA,NA,NA,""
"image-keyboard-response",485,374649,"0.0-3.158-0.158","dc1sjly6ofsy06r",782,"186.csv","","260.0000000000582","resources/trios/L4T4A3.jpg","38","restless",0.1,0.5,0.7,0.0804956882359152,"true"
"image-keyboard-response",486,375051,"0.0-3.158-1.158","dc1sjly6ofsy06r",782,"186.csv","","null","resources/maskTrios/BT4B.jpg","null","",NA,NA,NA,NA,""
"image-keyboard-response",487,376254,"0.0-3.158-2.158","dc1sjly6ofsy06r",782,"186.csv","","null","resources/images/coin2.png","null","",NA,NA,NA,NA,""
"image-keyboard-response",488,376606,"0.0-3.159-0.159","dc1sjly6ofsy06r",782,"186.csv","","350.0000000000582","resources/trios/L4T1A3.jpg","37","restless",0.1,0.5,0.8,0.351898344258855,"false"
"image-keyboard-response",489,377008,"0.0-3.159-1.159","dc1sjly6ofsy06r",782,"186.csv","","null","resources/maskTrios/L4BB.jpg","null","",NA,NA,NA,NA,""
"image-keyboard-response",490,378211,"0.0-3.159-2.159","dc1sjly6ofsy06r",782,"186.csv","","null","resources/images/fishbone.png","null","",NA,NA,NA,NA,""
"image-keyboard-response",491,378557,"0.0-3.160-0.160","dc1sjly6ofsy06r",782,"186.csv","","344","resources/trios/L4T1A1.jpg","38","restless",0.1,0.5,0.7,0.865515394972126,"false"
"image-keyboard-response",492,378960,"0.0-3.160-1.160","dc1sjly6ofsy06r",782,"186.csv","","null","resources/maskTrios/BT1B.jpg","null","",NA,NA,NA,NA,""
"image-keyboard-response",493,380162,"0.0-3.160-2.160","dc1sjly6ofsy06r",782,"186.csv","","null","resources/images/fishbone.png","null","",NA,NA,NA,NA,""
"image-keyboard-response",494,380471,"0.0-3.161-0.161","dc1sjly6ofsy06r",782,"186.csv","","308","resources/trios/L4T1A3.jpg","39","restless",0.1,0.5,0.6,0.680061148291418,"false"
"image-keyboard-response",495,380874,"0.0-3.161-1.161","dc1sjly6ofsy06r",782,"186.csv","","null","resources/maskTrios/BBA3.jpg","null","",NA,NA,NA,NA,""
"image-keyboard-response",496,382077,"0.0-3.161-2.161","dc1sjly6ofsy06r",782,"186.csv","","null","resources/images/fishbone.png","null","",NA,NA,NA,NA,""
"image-keyboard-response",497,382397,"0.0-3.162-0.162","dc1sjly6ofsy06r",782,"186.csv","","319","resources/trios/L2T4A3.jpg","39","restless",0.1,0.5,0.6,0.314536727796269,"true"
"image-keyboard-response",498,382800,"0.0-3.162-1.162","dc1sjly6ofsy06r",782,"186.csv","","null","resources/maskTrios/BBA3.jpg","null","",NA,NA,NA,NA,""
"image-keyboard-response",499,384003,"0.0-3.162-2.162","dc1sjly6ofsy06r",782,"186.csv","","null","resources/images/coin2.png","null","",NA,NA,NA,NA,""
"image-keyboard-response",500,384302,"0.0-3.163-0.163","dc1sjly6ofsy06r",782,"186.csv","","298","resources/trios/L2T1A3.jpg","39","restless",0.1,0.6,0.6,0.831255346630339,"false"
"image-keyboard-response",501,384706,"0.0-3.163-1.163","dc1sjly6ofsy06r",782,"186.csv","","null","resources/maskTrios/BBA3.jpg","null","",NA,NA,NA,NA,""
"image-keyboard-response",502,385907,"0.0-3.163-2.163","dc1sjly6ofsy06r",782,"186.csv","","null","resources/images/fishbone.png","null","",NA,NA,NA,NA,""
"image-keyboard-response",503,386160,"0.0-3.164-0.164","dc1sjly6ofsy06r",782,"186.csv","","252","resources/trios/L4T4A1.jpg","38","restless",0.1,0.6,0.6,0.0365156247113756,"true"
"image-keyboard-response",504,386562,"0.0-3.164-1.164","dc1sjly6ofsy06r",782,"186.csv","","null","resources/maskTrios/BT4B.jpg","null","",NA,NA,NA,NA,""
"image-keyboard-response",505,387765,"0.0-3.164-2.164","dc1sjly6ofsy06r",782,"186.csv","","null","resources/images/coin2.png","null","",NA,NA,NA,NA,""
"image-keyboard-response",506,387821,"0.0-3.165-0.165","dc1sjly6ofsy06r",782,"186.csv","","55","resources/trios/L2T1A1.jpg","37","restless",0.1,0.6,0.6,0.338565685079198,"false"
"image-keyboard-response",507,388224,"0.0-3.165-1.165","dc1sjly6ofsy06r",782,"186.csv","","null","resources/maskTrios/L2BB.jpg","null","",NA,NA,NA,NA,""
"image-keyboard-response",508,389426,"0.0-3.165-2.165","dc1sjly6ofsy06r",782,"186.csv","","null","resources/images/fishbone.png","null","",NA,NA,NA,NA,""
"image-keyboard-response",509,389593,"0.0-3.166-0.166","dc1sjly6ofsy06r",782,"186.csv","","163.9999999999418","resources/trios/L4T4A3.jpg","38","restless",0.1,0.6,0.6,0.709003224745586,"false"
"image-keyboard-response",510,389995,"0.0-3.166-1.166","dc1sjly6ofsy06r",782,"186.csv","","null","resources/maskTrios/BT4B.jpg","null","",NA,NA,NA,NA,""
"image-keyboard-response",511,391198,"0.0-3.166-2.166","dc1sjly6ofsy06r",782,"186.csv","","null","resources/images/fishbone.png","null","",NA,NA,NA,NA,""
"image-keyboard-response",512,391480,"0.0-3.167-0.167","dc1sjly6ofsy06r",782,"186.csv","","280","resources/trios/L2T1A3.jpg","39","restless",0.1,0.5,0.6,0.986694583064515,"false"
"image-keyboard-response",513,391882,"0.0-3.167-1.167","dc1sjly6ofsy06r",782,"186.csv","","null","resources/maskTrios/BBA3.jpg","null","",NA,NA,NA,NA,""
"image-keyboard-response",514,393084,"0.0-3.167-2.167","dc1sjly6ofsy06r",782,"186.csv","","null","resources/images/fishbone.png","null","",NA,NA,NA,NA,""
"image-keyboard-response",515,393408,"0.0-3.168-0.168","dc1sjly6ofsy06r",782,"186.csv","","323","resources/trios/L2T1A1.jpg","37","restless",0.2,0.5,0.6,0.840404284450628,"false"
"image-keyboard-response",516,393810,"0.0-3.168-1.168","dc1sjly6ofsy06r",782,"186.csv","","null","resources/maskTrios/L2BB.jpg","null","",NA,NA,NA,NA,""
"image-keyboard-response",517,395011,"0.0-3.168-2.168","dc1sjly6ofsy06r",782,"186.csv","","null","resources/images/fishbone.png","null","",NA,NA,NA,NA,""
"image-keyboard-response",518,395348,"0.0-3.169-0.169","dc1sjly6ofsy06r",782,"186.csv","","334.9999999999418","resources/trios/L4T1A3.jpg","38","restless",0.2,0.5,0.6,0.300993486117883,"true"
"image-keyboard-response",519,395749,"0.0-3.169-1.169","dc1sjly6ofsy06r",782,"186.csv","","null","resources/maskTrios/BT1B.jpg","null","",NA,NA,NA,NA,""
"image-keyboard-response",520,396951,"0.0-3.169-2.169","dc1sjly6ofsy06r",782,"186.csv","","null","resources/images/coin2.png","null","",NA,NA,NA,NA,""
"image-keyboard-response",521,397247,"0.0-3.170-0.170","dc1sjly6ofsy06r",782,"186.csv","","293.9999999999418","resources/trios/L2T4A1.jpg","39","restless",0.2,0.5,0.6,0.557440581154016,"true"
"image-keyboard-response",522,397650,"0.0-3.170-1.170","dc1sjly6ofsy06r",782,"186.csv","","null","resources/maskTrios/BBA1.jpg","null","",NA,NA,NA,NA,""
"image-keyboard-response",523,398852,"0.0-3.170-2.170","dc1sjly6ofsy06r",782,"186.csv","","null","resources/images/coin2.png","null","",NA,NA,NA,NA,""
"image-keyboard-response",524,399212,"0.0-3.171-0.171","dc1sjly6ofsy06r",782,"186.csv","","359","resources/trios/L4T1A3.jpg","38","restless",0.2,0.5,0.6,0.511317163700297,"false"
"image-keyboard-response",525,399614,"0.0-3.171-1.171","dc1sjly6ofsy06r",782,"186.csv","","null","resources/maskTrios/BT1B.jpg","null","",NA,NA,NA,NA,""
"image-keyboard-response",526,400816,"0.0-3.171-2.171","dc1sjly6ofsy06r",782,"186.csv","","null","resources/images/fishbone.png","null","",NA,NA,NA,NA,""
"image-keyboard-response",527,401123,"0.0-3.172-0.172","dc1sjly6ofsy06r",782,"186.csv","","305","resources/trios/L2T1A1.jpg","37","restless",0.2,0.5,0.6,0.437129667536157,"false"
"image-keyboard-response",528,401524,"0.0-3.172-1.172","dc1sjly6ofsy06r",782,"186.csv","","null","resources/maskTrios/L2BB.jpg","null","",NA,NA,NA,NA,""
"image-keyboard-response",529,402726,"0.0-3.172-2.172","dc1sjly6ofsy06r",782,"186.csv","","null","resources/images/fishbone.png","null","",NA,NA,NA,NA,""
"image-keyboard-response",530,402943,"0.0-3.173-0.173","dc1sjly6ofsy06r",782,"186.csv","","216","resources/trios/L2T4A3.jpg","38","restless",0.2,0.5,0.6,0.244497702940706,"true"
"image-keyboard-response",531,403346,"0.0-3.173-1.173","dc1sjly6ofsy06r",782,"186.csv","","null","resources/maskTrios/BT4B.jpg","null","",NA,NA,NA,NA,""
"image-keyboard-response",532,404547,"0.0-3.173-2.173","dc1sjly6ofsy06r",782,"186.csv","","null","resources/images/coin2.png","null","",NA,NA,NA,NA,""
"image-keyboard-response",533,404798,"0.0-3.174-0.174","dc1sjly6ofsy06r",782,"186.csv","","248.9999999999418","resources/trios/L4T1A1.jpg","39","restless",0.2,0.5,0.6,0.847721541776423,"false"
"image-keyboard-response",534,405199,"0.0-3.174-1.174","dc1sjly6ofsy06r",782,"186.csv","","null","resources/maskTrios/BBA1.jpg","null","",NA,NA,NA,NA,""
"image-keyboard-response",535,406402,"0.0-3.174-2.174","dc1sjly6ofsy06r",782,"186.csv","","null","resources/images/fishbone.png","null","",NA,NA,NA,NA,""
"image-keyboard-response",536,406800,"0.0-3.175-0.175","dc1sjly6ofsy06r",782,"186.csv","","396","resources/trios/L2T4A3.jpg","38","restless",0.2,0.5,0.6,0.880628952230542,"false"
"image-keyboard-response",537,407203,"0.0-3.175-1.175","dc1sjly6ofsy06r",782,"186.csv","","null","resources/maskTrios/BT4B.jpg","null","",NA,NA,NA,NA,""
"image-keyboard-response",538,408405,"0.0-3.175-2.175","dc1sjly6ofsy06r",782,"186.csv","","null","resources/images/fishbone.png","null","",NA,NA,NA,NA,""
"image-keyboard-response",539,408729,"0.0-3.176-0.176","dc1sjly6ofsy06r",782,"186.csv","","322","resources/trios/L4T4A3.jpg","37","restless",0.2,0.5,0.6,0.659579091281639,"false"
"image-keyboard-response",540,409132,"0.0-3.176-1.176","dc1sjly6ofsy06r",782,"186.csv","","null","resources/maskTrios/L4BB.jpg","null","",NA,NA,NA,NA,""
"image-keyboard-response",541,410334,"0.0-3.176-2.176","dc1sjly6ofsy06r",782,"186.csv","","null","resources/images/fishbone.png","null","",NA,NA,NA,NA,""
"image-keyboard-response",542,410622,"0.0-3.177-0.177","dc1sjly6ofsy06r",782,"186.csv","","286","resources/trios/L4T1A3.jpg","38","restless",0.1,0.5,0.6,0.123422868826603,"true"
"image-keyboard-response",543,411025,"0.0-3.177-1.177","dc1sjly6ofsy06r",782,"186.csv","","null","resources/maskTrios/BT1B.jpg","null","",NA,NA,NA,NA,""
"image-keyboard-response",544,412227,"0.0-3.177-2.177","dc1sjly6ofsy06r",782,"186.csv","","null","resources/images/coin2.png","null","",NA,NA,NA,NA,""
"image-keyboard-response",545,412502,"0.0-3.178-0.178","dc1sjly6ofsy06r",782,"186.csv","","273.0000000000582","resources/trios/L4T1A1.jpg","39","restless",0.2,0.5,0.6,0.40939889001733,"true"
"image-keyboard-response",546,412903,"0.0-3.178-1.178","dc1sjly6ofsy06r",782,"186.csv","","null","resources/maskTrios/BBA1.jpg","null","",NA,NA,NA,NA,""
"image-keyboard-response",547,414105,"0.0-3.178-2.178","dc1sjly6ofsy06r",782,"186.csv","","null","resources/images/coin2.png","null","",NA,NA,NA,NA,""
"image-keyboard-response",548,414345,"0.0-3.179-0.179","dc1sjly6ofsy06r",782,"186.csv","","239","resources/trios/L4T4A1.jpg","38","restless",0.2,0.5,0.6,0.069531144698711,"true"
"image-keyboard-response",549,414747,"0.0-3.179-1.179","dc1sjly6ofsy06r",782,"186.csv","","null","resources/maskTrios/BT4B.jpg","null","",NA,NA,NA,NA,""
"image-keyboard-response",550,415949,"0.0-3.179-2.179","dc1sjly6ofsy06r",782,"186.csv","","null","resources/images/coin2.png","null","",NA,NA,NA,NA,""
"image-keyboard-response",551,416242,"0.0-3.180-0.180","dc1sjly6ofsy06r",782,"186.csv","","292","resources/trios/L4T4A1.jpg","37","restless",0.2,0.5,0.6,0.540595167880483,"false"
"image-keyboard-response",552,416644,"0.0-3.180-1.180","dc1sjly6ofsy06r",782,"186.csv","","null","resources/maskTrios/L4BB.jpg","null","",NA,NA,NA,NA,""
"image-keyboard-response",553,417845,"0.0-3.180-2.180","dc1sjly6ofsy06r",782,"186.csv","","null","resources/images/fishbone.png","null","",NA,NA,NA,NA,""
"image-keyboard-response",554,418034,"0.0-3.181-0.181","dc1sjly6ofsy06r",782,"186.csv","","188","resources/trios/L2T4A3.jpg","38","restless",0.2,0.5,0.6,0.133073564087771,"true"
"image-keyboard-response",555,418435,"0.0-3.181-1.181","dc1sjly6ofsy06r",782,"186.csv","","null","resources/maskTrios/BT4B.jpg","null","",NA,NA,NA,NA,""
"image-keyboard-response",556,419637,"0.0-3.181-2.181","dc1sjly6ofsy06r",782,"186.csv","","null","resources/images/coin2.png","null","",NA,NA,NA,NA,""
"image-keyboard-response",557,419790,"0.0-3.182-0.182","dc1sjly6ofsy06r",782,"186.csv","","150.9999999999418","resources/trios/L4T1A3.jpg","39","restless",0.2,0.5,0.6,0.36602838312081,"true"
"image-keyboard-response",558,420192,"0.0-3.182-1.182","dc1sjly6ofsy06r",782,"186.csv","","null","resources/maskTrios/BBA3.jpg","null","",NA,NA,NA,NA,""
"image-keyboard-response",559,421393,"0.0-3.182-2.182","dc1sjly6ofsy06r",782,"186.csv","","null","resources/images/coin2.png","null","",NA,NA,NA,NA,""
"image-keyboard-response",560,421503,"0.0-3.183-0.183","dc1sjly6ofsy06r",782,"186.csv","","109","resources/trios/L2T1A3.jpg","38","restless",0.2,0.5,0.6,0.611525168096806,"false"
"image-keyboard-response",561,421905,"0.0-3.183-1.183","dc1sjly6ofsy06r",782,"186.csv","","null","resources/maskTrios/BT1B.jpg","null","",NA,NA,NA,NA,""
"image-keyboard-response",562,423108,"0.0-3.183-2.183","dc1sjly6ofsy06r",782,"186.csv","","null","resources/images/fishbone.png","null","",NA,NA,NA,NA,""
"image-keyboard-response",563,423132,"0.0-3.184-0.184","dc1sjly6ofsy06r",782,"186.csv","","23","resources/trios/L2T1A3.jpg","37","restless",0.2,0.5,0.6,0.862628873425172,"false"
"image-keyboard-response",564,423534,"0.0-3.184-1.184","dc1sjly6ofsy06r",782,"186.csv","","null","resources/maskTrios/L2BB.jpg","null","",NA,NA,NA,NA,""
"image-keyboard-response",565,424736,"0.0-3.184-2.184","dc1sjly6ofsy06r",782,"186.csv","","null","resources/images/fishbone.png","null","",NA,NA,NA,NA,""
"image-keyboard-response",566,425095,"0.0-3.185-0.185","dc1sjly6ofsy06r",782,"186.csv","","357","resources/trios/L4T4A1.jpg","38","restless",0.2,0.5,0.6,0.902294212453895,"false"
"image-keyboard-response",567,425496,"0.0-3.185-1.185","dc1sjly6ofsy06r",782,"186.csv","","null","resources/maskTrios/BT4B.jpg","null","",NA,NA,NA,NA,""
"image-keyboard-response",568,426699,"0.0-3.185-2.185","dc1sjly6ofsy06r",782,"186.csv","","null","resources/images/fishbone.png","null","",NA,NA,NA,NA,""
"image-keyboard-response",569,426755,"0.0-3.186-0.186","dc1sjly6ofsy06r",782,"186.csv","","55","resources/trios/L4T1A3.jpg","39","restless",0.2,0.5,0.6,0.715393484384422,"false"
"image-keyboard-response",570,427156,"0.0-3.186-1.186","dc1sjly6ofsy06r",782,"186.csv","","null","resources/maskTrios/BBA3.jpg","null","",NA,NA,NA,NA,""
"image-keyboard-response",571,428359,"0.0-3.186-2.186","dc1sjly6ofsy06r",782,"186.csv","","null","resources/images/fishbone.png","null","",NA,NA,NA,NA,""
"image-keyboard-response",572,428638,"0.0-3.187-0.187","dc1sjly6ofsy06r",782,"186.csv","","276","resources/trios/L2T1A1.jpg","37","restless",0.2,0.5,0.6,0.754376590246116,"false"
"image-keyboard-response",573,429041,"0.0-3.187-1.187","dc1sjly6ofsy06r",782,"186.csv","","null","resources/maskTrios/L2BB.jpg","null","",NA,NA,NA,NA,""
"image-keyboard-response",574,430243,"0.0-3.187-2.187","dc1sjly6ofsy06r",782,"186.csv","","null","resources/images/fishbone.png","null","",NA,NA,NA,NA,""
"image-keyboard-response",575,430679,"0.0-3.188-0.188","dc1sjly6ofsy06r",782,"186.csv","","435","resources/trios/L2T4A3.jpg","37","restless",0.2,0.5,0.6,0.233902364883655,"false"
"image-keyboard-response",576,431082,"0.0-3.188-1.188","dc1sjly6ofsy06r",782,"186.csv","","null","resources/maskTrios/L2BB.jpg","null","",NA,NA,NA,NA,""
"image-keyboard-response",577,432283,"0.0-3.188-2.188","dc1sjly6ofsy06r",782,"186.csv","","null","resources/images/fishbone.png","null","",NA,NA,NA,NA,""
"image-keyboard-response",578,432542,"0.0-3.189-0.189","dc1sjly6ofsy06r",782,"186.csv","","257","resources/trios/L2T4A1.jpg","38","restless",0.2,0.5,0.5,0.180177860987068,"true"
"image-keyboard-response",579,432944,"0.0-3.189-1.189","dc1sjly6ofsy06r",782,"186.csv","","null","resources/maskTrios/BT4B.jpg","null","",NA,NA,NA,NA,""
"image-keyboard-response",580,434147,"0.0-3.189-2.189","dc1sjly6ofsy06r",782,"186.csv","","null","resources/images/coin2.png","null","",NA,NA,NA,NA,""
"image-keyboard-response",581,434294,"0.0-3.190-0.190","dc1sjly6ofsy06r",782,"186.csv","","145","resources/trios/L4T4A3.jpg","39","restless",0.2,0.5,0.5,0.774335882675251,"false"
"image-keyboard-response",582,434696,"0.0-3.190-1.190","dc1sjly6ofsy06r",782,"186.csv","","null","resources/maskTrios/BBA3.jpg","null","",NA,NA,NA,NA,""
"image-keyboard-response",583,435898,"0.0-3.190-2.190","dc1sjly6ofsy06r",782,"186.csv","","null","resources/images/fishbone.png","null","",NA,NA,NA,NA,""
"image-keyboard-response",584,436155,"0.0-3.191-0.191","dc1sjly6ofsy06r",782,"186.csv","","255","resources/trios/L2T4A1.jpg","38","restless",0.3,0.5,0.5,0.733822726298861,"false"
"image-keyboard-response",585,436558,"0.0-3.191-1.191","dc1sjly6ofsy06r",782,"186.csv","","null","resources/maskTrios/BT4B.jpg","null","",NA,NA,NA,NA,""
"image-keyboard-response",586,437760,"0.0-3.191-2.191","dc1sjly6ofsy06r",782,"186.csv","","null","resources/images/fishbone.png","null","",NA,NA,NA,NA,""
"image-keyboard-response",587,438084,"0.0-3.192-0.192","dc1sjly6ofsy06r",782,"186.csv","","323","resources/trios/L2T1A1.jpg","39","restless",0.3,0.5,0.5,0.674937105302307,"false"
"image-keyboard-response",588,438487,"0.0-3.192-1.192","dc1sjly6ofsy06r",782,"186.csv","","null","resources/maskTrios/BBA1.jpg","null","",NA,NA,NA,NA,""
"image-keyboard-response",589,439690,"0.0-3.192-2.192","dc1sjly6ofsy06r",782,"186.csv","","null","resources/images/fishbone.png","null","",NA,NA,NA,NA,""
"image-keyboard-response",590,448545,"0.0-3.193-0.193","dc1sjly6ofsy06r",782,"186.csv","","8854","resources/trios/L4T4A3.jpg","38","restless",0.3,0.5,0.5,0.528161904747644,"false"
"image-keyboard-response",591,448948,"0.0-3.193-1.193","dc1sjly6ofsy06r",782,"186.csv","","null","resources/maskTrios/BT4B.jpg","null","",NA,NA,NA,NA,""
"image-keyboard-response",592,450150,"0.0-3.193-2.193","dc1sjly6ofsy06r",782,"186.csv","","null","resources/images/fishbone.png","null","",NA,NA,NA,NA,""
"image-keyboard-response",593,453046,"0.0-3.194-0.194","dc1sjly6ofsy06r",782,"186.csv","","2893","resources/trios/L4T4A3.jpg","37","restless",0.3,0.5,0.5,0.588543462993498,"false"
"image-keyboard-response",594,453448,"0.0-3.194-1.194","dc1sjly6ofsy06r",782,"186.csv","","null","resources/maskTrios/L4BB.jpg","null","",NA,NA,NA,NA,""
"image-keyboard-response",595,454651,"0.0-3.194-2.194","dc1sjly6ofsy06r",782,"186.csv","","null","resources/images/fishbone.png","null","",NA,NA,NA,NA,""
"image-keyboard-response",596,455190,"0.0-3.195-0.195","dc1sjly6ofsy06r",782,"186.csv","","537","resources/trios/L2T1A3.jpg","39","restless",0.3,0.5,0.5,0.872646470440651,"false"
"image-keyboard-response",597,455592,"0.0-3.195-1.195","dc1sjly6ofsy06r",782,"186.csv","","null","resources/maskTrios/BBA3.jpg","null","",NA,NA,NA,NA,""
"image-keyboard-response",598,456794,"0.0-3.195-2.195","dc1sjly6ofsy06r",782,"186.csv","","null","resources/images/fishbone.png","null","",NA,NA,NA,NA,""
"image-keyboard-response",599,457140,"0.0-3.196-0.196","dc1sjly6ofsy06r",782,"186.csv","","345","resources/trios/L2T4A1.jpg","38","restless",0.3,0.5,0.5,0.194298627776584,"true"
"image-keyboard-response",600,457542,"0.0-3.196-1.196","dc1sjly6ofsy06r",782,"186.csv","","null","resources/maskTrios/BT4B.jpg","null","",NA,NA,NA,NA,""
"image-keyboard-response",601,458744,"0.0-3.196-2.196","dc1sjly6ofsy06r",782,"186.csv","","null","resources/images/coin2.png","null","",NA,NA,NA,NA,""
"image-keyboard-response",602,458810,"0.0-3.197-0.197","dc1sjly6ofsy06r",782,"186.csv","","63.99999999994179","resources/trios/L4T1A1.jpg","37","restless",0.3,0.4,0.5,0.20913586721958,"true"
"image-keyboard-response",603,459215,"0.0-3.197-1.197","dc1sjly6ofsy06r",782,"186.csv","","null","resources/maskTrios/L4BB.jpg","null","",NA,NA,NA,NA,""
"image-keyboard-response",604,460418,"0.0-3.197-2.197","dc1sjly6ofsy06r",782,"186.csv","","null","resources/images/coin2.png","null","",NA,NA,NA,NA,""
"image-keyboard-response",605,460876,"0.0-3.198-0.198","dc1sjly6ofsy06r",782,"186.csv","","456.9999999999418","resources/trios/L2T4A3.jpg","39","restless",0.3,0.4,0.5,0.719894131001798,"false"
"image-keyboard-response",606,461278,"0.0-3.198-1.198","dc1sjly6ofsy06r",782,"186.csv","","null","resources/maskTrios/BBA3.jpg","null","",NA,NA,NA,NA,""
"image-keyboard-response",607,462479,"0.0-3.198-2.198","dc1sjly6ofsy06r",782,"186.csv","","null","resources/images/fishbone.png","null","",NA,NA,NA,NA,""
"image-keyboard-response",608,462821,"0.0-3.199-0.199","dc1sjly6ofsy06r",782,"186.csv","","340","resources/trios/L2T4A3.jpg","37","restless",0.3,0.4,0.5,0.320835157381334,"false"
"image-keyboard-response",609,463222,"0.0-3.199-1.199","dc1sjly6ofsy06r",782,"186.csv","","null","resources/maskTrios/L2BB.jpg","null","",NA,NA,NA,NA,""
"image-keyboard-response",610,464424,"0.0-3.199-2.199","dc1sjly6ofsy06r",782,"186.csv","","null","resources/images/fishbone.png","null","",NA,NA,NA,NA,""
"image-keyboard-response",611,464691,"0.0-3.200-0.200","dc1sjly6ofsy06r",782,"186.csv","","266","resources/trios/L4T1A1.jpg","38","restless",0.3,0.4,0.5,0.573638526999265,"false"
"image-keyboard-response",612,465093,"0.0-3.200-1.200","dc1sjly6ofsy06r",782,"186.csv","","null","resources/maskTrios/BT1B.jpg","null","",NA,NA,NA,NA,""
"image-keyboard-response",613,466295,"0.0-3.200-2.200","dc1sjly6ofsy06r",782,"186.csv","","null","resources/images/fishbone.png","null","",NA,NA,NA,NA,""
"image-keyboard-response",614,467886,"0.0-3.201-0.201","dc1sjly6ofsy06r",782,"186.csv","","1589","resources/trios/L2T4A3.jpg","38","restless",0.3,0.4,0.5,0.655523945131861,"false"
"image-keyboard-response",615,468287,"0.0-3.201-1.201","dc1sjly6ofsy06r",782,"186.csv","","null","resources/maskTrios/BT4B.jpg","null","",NA,NA,NA,NA,""
"image-keyboard-response",616,469489,"0.0-3.201-2.201","dc1sjly6ofsy06r",782,"186.csv","","null","resources/images/fishbone.png","null","",NA,NA,NA,NA,""
