"trial_type","trial_index","time_elapsed","internal_node_id","subject","participantCode","walkNumber","success","rt","stimulus","key_press","test_part","leftProb","midProb","rightProb","generatedNum","correct"
"pavlovia",0,1230,"0.0-0.0","56a1l1ad0eb0m45",463,"181.csv","","","","","",NA,NA,NA,NA,""
"fullscreen",1,4895,"0.0-1.0","56a1l1ad0eb0m45",463,"181.csv","true","","","","",NA,NA,NA,NA,""
"html-keyboard-response",2,14988,"0.0-2.0-0.0","56a1l1ad0eb0m45",463,"181.csv","","10092","<p><font size='6'>Arrrgh!</p></font><p>Can you be the best pirate? Try to find lots of gold! But beware, some islands have more gold than others, and over time, the island with the most gold may change. Can YOU figure it out? </p><font size='6'>GOOD LUCK, CAPTAIN!!!</font><p>Press any key to begin</p>","13","",NA,NA,NA,NA,""
"image-keyboard-response",3,17992,"0.0-2.0-1.0","56a1l1ad0eb0m45",463,"181.csv","","null","resources/image_sets/111.png","null","",NA,NA,NA,NA,""
"image-keyboard-response",4,20758,"0.0-2.0-2.0","56a1l1ad0eb0m45",463,"181.csv","","2763.7999999970198","resources/image_sets/left_highlight.png","37","",NA,NA,NA,NA,""
"image-keyboard-response",5,22020,"0.0-2.0-3.0","56a1l1ad0eb0m45",463,"181.csv","","1260.5","resources/image_sets/mid_highlight.png","38","",NA,NA,NA,NA,""
"image-keyboard-response",6,23798,"0.0-2.0-4.0","56a1l1ad0eb0m45",463,"181.csv","","1776.6000000089407","resources/image_sets/right_highlight.png","39","",NA,NA,NA,NA,""
"image-keyboard-response",7,25824,"0.0-2.0-5.0","56a1l1ad0eb0m45",463,"181.csv","","2024.5999999940395","resources/image_sets/111.png","13","",NA,NA,NA,NA,""
"image-keyboard-response",8,27667,"0.0-2.0-6.0","56a1l1ad0eb0m45",463,"181.csv","","1841.9000000059605","resources/images/coin2.png","13","",NA,NA,NA,NA,""
"image-keyboard-response",9,29751,"0.0-2.0-7.0","56a1l1ad0eb0m45",463,"181.csv","","2083.3999999910593","resources/images/fishbone.png","13","",NA,NA,NA,NA,""
"html-keyboard-response",10,38567,"0.0-2.0-8.0","56a1l1ad0eb0m45",463,"181.csv","","8816.20000000298","<p>Your first journey will be a long one, but you will get a well deserved break at the end</p><p>After the break you will have four more journeys, but each will be much shorter than the first, and you will have breaks in between each</p><p>Press Enter to begin</p>","13","",NA,NA,NA,NA,""
"image-keyboard-response",11,40184,"0.0-3.0-0.0","56a1l1ad0eb0m45",463,"181.csv","","1615.300000011921","resources/trios/L2T2A1.jpg","38","restless",0.3,0.7,0.9,0.870445562887703,"false"
"image-keyboard-response",12,40593,"0.0-3.0-1.0","56a1l1ad0eb0m45",463,"181.csv","","null","resources/maskTrios/BT2B.jpg","null","",NA,NA,NA,NA,""
"image-keyboard-response",13,41805,"0.0-3.0-2.0","56a1l1ad0eb0m45",463,"181.csv","","null","resources/images/fishbone.png","null","",NA,NA,NA,NA,""
"image-keyboard-response",14,42899,"0.0-3.1-0.1","56a1l1ad0eb0m45",463,"181.csv","","1092.2000000029802","resources/trios/L1T2A2.jpg","38","restless",0.3,0.7,0.9,0.695001290487246,"true"
"image-keyboard-response",15,43311,"0.0-3.1-1.1","56a1l1ad0eb0m45",463,"181.csv","","null","resources/maskTrios/BT2B.jpg","null","",NA,NA,NA,NA,""
"image-keyboard-response",16,44523,"0.0-3.1-2.1","56a1l1ad0eb0m45",463,"181.csv","","null","resources/images/coin2.png","null","",NA,NA,NA,NA,""
"image-keyboard-response",17,46539,"0.0-3.2-0.2","56a1l1ad0eb0m45",463,"181.csv","","2013.6000000089407","resources/trios/L1T2A2.jpg","37","restless",0.3,0.7,0.9,0.8517842815631,"false"
"image-keyboard-response",18,46950,"0.0-3.2-1.2","56a1l1ad0eb0m45",463,"181.csv","","null","resources/maskTrios/L1BB.jpg","null","",NA,NA,NA,NA,""
"image-keyboard-response",19,48160,"0.0-3.2-2.2","56a1l1ad0eb0m45",463,"181.csv","","null","resources/images/fishbone.png","null","",NA,NA,NA,NA,""
"image-keyboard-response",20,48706,"0.0-3.3-0.3","56a1l1ad0eb0m45",463,"181.csv","","545","resources/trios/L2T2A2.jpg","39","restless",0.2,0.7,0.9,0.717355838684177,"true"
"image-keyboard-response",21,49112,"0.0-3.3-1.3","56a1l1ad0eb0m45",463,"181.csv","","null","resources/maskTrios/BBA2.jpg","null","",NA,NA,NA,NA,""
"image-keyboard-response",22,50322,"0.0-3.3-2.3","56a1l1ad0eb0m45",463,"181.csv","","null","resources/images/coin2.png","null","",NA,NA,NA,NA,""
"image-keyboard-response",23,51806,"0.0-3.4-0.4","56a1l1ad0eb0m45",463,"181.csv","","1482","resources/trios/L1T4A1.jpg","38","restless",0.2,0.7,0.9,0.959875370852902,"false"
"image-keyboard-response",24,52209,"0.0-3.4-1.4","56a1l1ad0eb0m45",463,"181.csv","","null","resources/maskTrios/BT4B.jpg","null","",NA,NA,NA,NA,""
"image-keyboard-response",25,53426,"0.0-3.4-2.4","56a1l1ad0eb0m45",463,"181.csv","","null","resources/images/fishbone.png","null","",NA,NA,NA,NA,""
"image-keyboard-response",26,54691,"0.0-3.5-0.5","56a1l1ad0eb0m45",463,"181.csv","","1263.699999988079","resources/trios/L1T4A2.jpg","38","restless",0.2,0.7,0.9,0.643662580996437,"true"
"image-keyboard-response",27,55105,"0.0-3.5-1.5","56a1l1ad0eb0m45",463,"181.csv","","null","resources/maskTrios/BT4B.jpg","null","",NA,NA,NA,NA,""
"image-keyboard-response",28,56316,"0.0-3.5-2.5","56a1l1ad0eb0m45",463,"181.csv","","null","resources/images/coin2.png","null","",NA,NA,NA,NA,""
"image-keyboard-response",29,56725,"0.0-3.6-0.6","56a1l1ad0eb0m45",463,"181.csv","","407.1000000089407","resources/trios/L2T2A2.jpg","37","restless",0.2,0.7,0.9,0.973566155002977,"false"
"image-keyboard-response",30,57141,"0.0-3.6-1.6","56a1l1ad0eb0m45",463,"181.csv","","null","resources/maskTrios/L2BB.jpg","null","",NA,NA,NA,NA,""
"image-keyboard-response",31,58354,"0.0-3.6-2.6","56a1l1ad0eb0m45",463,"181.csv","","null","resources/images/fishbone.png","null","",NA,NA,NA,NA,""
"image-keyboard-response",32,58779,"0.0-3.7-0.7","56a1l1ad0eb0m45",463,"181.csv","","423.1000000089407","resources/trios/L2T2A1.jpg","37","restless",0.2,0.7,0.9,0.376752991939189,"false"
"image-keyboard-response",33,59191,"0.0-3.7-1.7","56a1l1ad0eb0m45",463,"181.csv","","null","resources/maskTrios/L2BB.jpg","null","",NA,NA,NA,NA,""
"image-keyboard-response",34,60404,"0.0-3.7-2.7","56a1l1ad0eb0m45",463,"181.csv","","null","resources/images/fishbone.png","null","",NA,NA,NA,NA,""
"image-keyboard-response",35,60801,"0.0-3.8-0.8","56a1l1ad0eb0m45",463,"181.csv","","395.79999999701977","resources/trios/L2T2A2.jpg","37","restless",0.2,0.7,0.9,0.0965309136792893,"true"
"image-keyboard-response",36,61215,"0.0-3.8-1.8","56a1l1ad0eb0m45",463,"181.csv","","null","resources/maskTrios/L2BB.jpg","null","",NA,NA,NA,NA,""
"image-keyboard-response",37,62432,"0.0-3.8-2.8","56a1l1ad0eb0m45",463,"181.csv","","null","resources/images/coin2.png","null","",NA,NA,NA,NA,""
"image-keyboard-response",38,62744,"0.0-3.9-0.9","56a1l1ad0eb0m45",463,"181.csv","","311.09999999403954","resources/trios/L1T4A1.jpg","39","restless",0.3,0.6,0.9,0.455167189088695,"true"
"image-keyboard-response",39,63148,"0.0-3.9-1.9","56a1l1ad0eb0m45",463,"181.csv","","null","resources/maskTrios/BBA1.jpg","null","",NA,NA,NA,NA,""
"image-keyboard-response",40,64361,"0.0-3.9-2.9","56a1l1ad0eb0m45",463,"181.csv","","null","resources/images/coin2.png","null","",NA,NA,NA,NA,""
"image-keyboard-response",41,64773,"0.0-3.10-0.10","56a1l1ad0eb0m45",463,"181.csv","","410.8999999910593","resources/trios/L2T4A2.jpg","38","restless",0.4,0.6,0.9,0.905577928965286,"false"
"image-keyboard-response",42,65184,"0.0-3.10-1.10","56a1l1ad0eb0m45",463,"181.csv","","null","resources/maskTrios/BT4B.jpg","null","",NA,NA,NA,NA,""
"image-keyboard-response",43,66400,"0.0-3.10-2.10","56a1l1ad0eb0m45",463,"181.csv","","null","resources/images/fishbone.png","null","",NA,NA,NA,NA,""
"image-keyboard-response",44,67454,"0.0-3.11-0.11","56a1l1ad0eb0m45",463,"181.csv","","1052.7000000029802","resources/trios/L1T2A1.jpg","37","restless",0.4,0.6,0.9,0.639185247735884,"false"
"image-keyboard-response",45,67861,"0.0-3.11-1.11","56a1l1ad0eb0m45",463,"181.csv","","null","resources/maskTrios/L1BB.jpg","null","",NA,NA,NA,NA,""
"image-keyboard-response",46,69075,"0.0-3.11-2.11","56a1l1ad0eb0m45",463,"181.csv","","null","resources/images/fishbone.png","null","",NA,NA,NA,NA,""
"image-keyboard-response",47,70126,"0.0-3.12-0.12","56a1l1ad0eb0m45",463,"181.csv","","1049.5","resources/trios/L2T4A2.jpg","37","restless",0.4,0.6,0.9,0.645861956317662,"false"
"image-keyboard-response",48,70538,"0.0-3.12-1.12","56a1l1ad0eb0m45",463,"181.csv","","null","resources/maskTrios/L2BB.jpg","null","",NA,NA,NA,NA,""
"image-keyboard-response",49,71750,"0.0-3.12-2.12","56a1l1ad0eb0m45",463,"181.csv","","null","resources/images/fishbone.png","null","",NA,NA,NA,NA,""
"image-keyboard-response",50,72410,"0.0-3.13-0.13","56a1l1ad0eb0m45",463,"181.csv","","659.3000000119209","resources/trios/L2T2A1.jpg","38","restless",0.4,0.6,0.9,0.897796025109149,"false"
"image-keyboard-response",51,72820,"0.0-3.13-1.13","56a1l1ad0eb0m45",463,"181.csv","","null","resources/maskTrios/BT2B.jpg","null","",NA,NA,NA,NA,""
"image-keyboard-response",52,74033,"0.0-3.13-2.13","56a1l1ad0eb0m45",463,"181.csv","","null","resources/images/fishbone.png","null","",NA,NA,NA,NA,""
"image-keyboard-response",53,74541,"0.0-3.14-0.14","56a1l1ad0eb0m45",463,"181.csv","","505.8999999910593","resources/trios/L1T4A2.jpg","39","restless",0.4,0.6,0.9,0.888816513967772,"true"
"image-keyboard-response",54,74947,"0.0-3.14-1.14","56a1l1ad0eb0m45",463,"181.csv","","null","resources/maskTrios/BBA2.jpg","null","",NA,NA,NA,NA,""
"image-keyboard-response",55,76158,"0.0-3.14-2.14","56a1l1ad0eb0m45",463,"181.csv","","null","resources/images/coin2.png","null","",NA,NA,NA,NA,""
"image-keyboard-response",56,76874,"0.0-3.15-0.15","56a1l1ad0eb0m45",463,"181.csv","","714.1000000089407","resources/trios/L2T2A2.jpg","39","restless",0.4,0.6,0.9,0.145336785050875,"true"
"image-keyboard-response",57,77279,"0.0-3.15-1.15","56a1l1ad0eb0m45",463,"181.csv","","null","resources/maskTrios/BBA2.jpg","null","",NA,NA,NA,NA,""
"image-keyboard-response",58,78493,"0.0-3.15-2.15","56a1l1ad0eb0m45",463,"181.csv","","null","resources/images/coin2.png","null","",NA,NA,NA,NA,""
"image-keyboard-response",59,78916,"0.0-3.16-0.16","56a1l1ad0eb0m45",463,"181.csv","","421.6000000089407","resources/trios/L1T2A2.jpg","39","restless",0.4,0.6,0.9,0.360320740267609,"true"
"image-keyboard-response",60,79330,"0.0-3.16-1.16","56a1l1ad0eb0m45",463,"181.csv","","null","resources/maskTrios/BBA2.jpg","null","",NA,NA,NA,NA,""
"image-keyboard-response",61,80545,"0.0-3.16-2.16","56a1l1ad0eb0m45",463,"181.csv","","null","resources/images/coin2.png","null","",NA,NA,NA,NA,""
"image-keyboard-response",62,80946,"0.0-3.17-0.17","56a1l1ad0eb0m45",463,"181.csv","","400.70000000298023","resources/trios/L2T4A1.jpg","39","restless",0.4,0.6,0.9,0.391563394674218,"true"
"image-keyboard-response",63,81350,"0.0-3.17-1.17","56a1l1ad0eb0m45",463,"181.csv","","null","resources/maskTrios/BBA1.jpg","null","",NA,NA,NA,NA,""
"image-keyboard-response",64,82566,"0.0-3.17-2.17","56a1l1ad0eb0m45",463,"181.csv","","null","resources/images/coin2.png","null","",NA,NA,NA,NA,""
"image-keyboard-response",65,82953,"0.0-3.18-0.18","56a1l1ad0eb0m45",463,"181.csv","","385.5","resources/trios/L2T4A1.jpg","39","restless",0.4,0.6,0.9,0.102659176461673,"true"
"image-keyboard-response",66,83359,"0.0-3.18-1.18","56a1l1ad0eb0m45",463,"181.csv","","null","resources/maskTrios/BBA1.jpg","null","",NA,NA,NA,NA,""
"image-keyboard-response",67,84569,"0.0-3.18-2.18","56a1l1ad0eb0m45",463,"181.csv","","null","resources/images/coin2.png","null","",NA,NA,NA,NA,""
"image-keyboard-response",68,85008,"0.0-3.19-0.19","56a1l1ad0eb0m45",463,"181.csv","","437.29999999701977","resources/trios/L2T2A2.jpg","39","restless",0.4,0.6,0.9,0.992744969623987,"false"
"image-keyboard-response",69,85411,"0.0-3.19-1.19","56a1l1ad0eb0m45",463,"181.csv","","null","resources/maskTrios/BBA2.jpg","null","",NA,NA,NA,NA,""
"image-keyboard-response",70,86624,"0.0-3.19-2.19","56a1l1ad0eb0m45",463,"181.csv","","null","resources/images/fishbone.png","null","",NA,NA,NA,NA,""
"image-keyboard-response",71,87058,"0.0-3.20-0.20","56a1l1ad0eb0m45",463,"181.csv","","432.5","resources/trios/L1T4A2.jpg","39","restless",0.5,0.6,0.9,0.898225479211817,"true"
"image-keyboard-response",72,87462,"0.0-3.20-1.20","56a1l1ad0eb0m45",463,"181.csv","","null","resources/maskTrios/BBA2.jpg","null","",NA,NA,NA,NA,""
"image-keyboard-response",73,88672,"0.0-3.20-2.20","56a1l1ad0eb0m45",463,"181.csv","","null","resources/images/coin2.png","null","",NA,NA,NA,NA,""
"image-keyboard-response",74,88988,"0.0-3.21-0.21","56a1l1ad0eb0m45",463,"181.csv","","314.6000000089407","resources/trios/L1T4A1.jpg","39","restless",0.5,0.6,0.9,0.0363130069794169,"true"
"image-keyboard-response",75,89401,"0.0-3.21-1.21","56a1l1ad0eb0m45",463,"181.csv","","null","resources/maskTrios/BBA1.jpg","null","",NA,NA,NA,NA,""
"image-keyboard-response",76,90617,"0.0-3.21-2.21","56a1l1ad0eb0m45",463,"181.csv","","null","resources/images/coin2.png","null","",NA,NA,NA,NA,""
"image-keyboard-response",77,90923,"0.0-3.22-0.22","56a1l1ad0eb0m45",463,"181.csv","","304.5","resources/trios/L1T2A1.jpg","39","restless",0.5,0.6,0.8,0.481475981785425,"true"
"image-keyboard-response",78,91330,"0.0-3.22-1.22","56a1l1ad0eb0m45",463,"181.csv","","null","resources/maskTrios/BBA1.jpg","null","",NA,NA,NA,NA,""
"image-keyboard-response",79,92542,"0.0-3.22-2.22","56a1l1ad0eb0m45",463,"181.csv","","null","resources/images/coin2.png","null","",NA,NA,NA,NA,""
"image-keyboard-response",80,92913,"0.0-3.23-0.23","56a1l1ad0eb0m45",463,"181.csv","","369.59999999403954","resources/trios/L1T2A2.jpg","39","restless",0.5,0.6,0.8,0.563420771249563,"true"
"image-keyboard-response",81,93318,"0.0-3.23-1.23","56a1l1ad0eb0m45",463,"181.csv","","null","resources/maskTrios/BBA2.jpg","null","",NA,NA,NA,NA,""
"image-keyboard-response",82,94526,"0.0-3.23-2.23","56a1l1ad0eb0m45",463,"181.csv","","null","resources/images/coin2.png","null","",NA,NA,NA,NA,""
"image-keyboard-response",83,94769,"0.0-3.24-0.24","56a1l1ad0eb0m45",463,"181.csv","","240.8999999910593","resources/trios/L1T4A1.jpg","39","restless",0.5,0.6,0.7,0.162599547979898,"true"
"image-keyboard-response",84,95180,"0.0-3.24-1.24","56a1l1ad0eb0m45",463,"181.csv","","null","resources/maskTrios/BBA1.jpg","null","",NA,NA,NA,NA,""
"image-keyboard-response",85,96391,"0.0-3.24-2.24","56a1l1ad0eb0m45",463,"181.csv","","null","resources/images/coin2.png","null","",NA,NA,NA,NA,""
"image-keyboard-response",86,96842,"0.0-3.25-0.25","56a1l1ad0eb0m45",463,"181.csv","","449","resources/trios/L2T4A2.jpg","39","restless",0.4,0.6,0.7,0.0396751030537086,"true"
"image-keyboard-response",87,97256,"0.0-3.25-1.25","56a1l1ad0eb0m45",463,"181.csv","","null","resources/maskTrios/BBA2.jpg","null","",NA,NA,NA,NA,""
"image-keyboard-response",88,98464,"0.0-3.25-2.25","56a1l1ad0eb0m45",463,"181.csv","","null","resources/images/coin2.png","null","",NA,NA,NA,NA,""
"image-keyboard-response",89,98765,"0.0-3.26-0.26","56a1l1ad0eb0m45",463,"181.csv","","299.79999999701977","resources/trios/L1T2A2.jpg","39","restless",0.4,0.6,0.7,0.271989150817169,"true"
"image-keyboard-response",90,99179,"0.0-3.26-1.26","56a1l1ad0eb0m45",463,"181.csv","","null","resources/maskTrios/BBA2.jpg","null","",NA,NA,NA,NA,""
"image-keyboard-response",91,100392,"0.0-3.26-2.26","56a1l1ad0eb0m45",463,"181.csv","","null","resources/images/coin2.png","null","",NA,NA,NA,NA,""
"image-keyboard-response",92,100651,"0.0-3.27-0.27","56a1l1ad0eb0m45",463,"181.csv","","257.80000001192093","resources/trios/L2T4A1.jpg","39","restless",0.4,0.6,0.7,0.192522836449981,"true"
"image-keyboard-response",93,101060,"0.0-3.27-1.27","56a1l1ad0eb0m45",463,"181.csv","","null","resources/maskTrios/BBA1.jpg","null","",NA,NA,NA,NA,""
"image-keyboard-response",94,102275,"0.0-3.27-2.27","56a1l1ad0eb0m45",463,"181.csv","","null","resources/images/coin2.png","null","",NA,NA,NA,NA,""
"image-keyboard-response",95,102594,"0.0-3.28-0.28","56a1l1ad0eb0m45",463,"181.csv","","318.3999999910593","resources/trios/L2T2A1.jpg","39","restless",0.4,0.6,0.7,0.69980897652531,"true"
"image-keyboard-response",96,103005,"0.0-3.28-1.28","56a1l1ad0eb0m45",463,"181.csv","","null","resources/maskTrios/BBA1.jpg","null","",NA,NA,NA,NA,""
"image-keyboard-response",97,104213,"0.0-3.28-2.28","56a1l1ad0eb0m45",463,"181.csv","","null","resources/images/coin2.png","null","",NA,NA,NA,NA,""
"image-keyboard-response",98,104573,"0.0-3.29-0.29","56a1l1ad0eb0m45",463,"181.csv","","358.80000001192093","resources/trios/L2T4A2.jpg","39","restless",0.4,0.6,0.7,0.219683683346059,"true"
"image-keyboard-response",99,104990,"0.0-3.29-1.29","56a1l1ad0eb0m45",463,"181.csv","","null","resources/maskTrios/BBA2.jpg","null","",NA,NA,NA,NA,""
"image-keyboard-response",100,106197,"0.0-3.29-2.29","56a1l1ad0eb0m45",463,"181.csv","","null","resources/images/coin2.png","null","",NA,NA,NA,NA,""
"image-keyboard-response",101,106541,"0.0-3.30-0.30","56a1l1ad0eb0m45",463,"181.csv","","342.20000000298023","resources/trios/L2T2A2.jpg","39","restless",0.4,0.6,0.7,0.867954061311731,"false"
"image-keyboard-response",102,106944,"0.0-3.30-1.30","56a1l1ad0eb0m45",463,"181.csv","","null","resources/maskTrios/BBA2.jpg","null","",NA,NA,NA,NA,""
"image-keyboard-response",103,108158,"0.0-3.30-2.30","56a1l1ad0eb0m45",463,"181.csv","","null","resources/images/fishbone.png","null","",NA,NA,NA,NA,""
"image-keyboard-response",104,108504,"0.0-3.31-0.31","56a1l1ad0eb0m45",463,"181.csv","","344.79999999701977","resources/trios/L1T2A2.jpg","39","restless",0.4,0.6,0.7,0.491340235762757,"true"
"image-keyboard-response",105,108921,"0.0-3.31-1.31","56a1l1ad0eb0m45",463,"181.csv","","null","resources/maskTrios/BBA2.jpg","null","",NA,NA,NA,NA,""
"image-keyboard-response",106,110131,"0.0-3.31-2.31","56a1l1ad0eb0m45",463,"181.csv","","null","resources/images/coin2.png","null","",NA,NA,NA,NA,""
"image-keyboard-response",107,110477,"0.0-3.32-0.32","56a1l1ad0eb0m45",463,"181.csv","","344.5","resources/trios/L1T4A1.jpg","39","restless",0.4,0.7,0.7,0.107672695768003,"true"
"image-keyboard-response",108,110891,"0.0-3.32-1.32","56a1l1ad0eb0m45",463,"181.csv","","null","resources/maskTrios/BBA1.jpg","null","",NA,NA,NA,NA,""
"image-keyboard-response",109,112101,"0.0-3.32-2.32","56a1l1ad0eb0m45",463,"181.csv","","null","resources/images/coin2.png","null","",NA,NA,NA,NA,""
"image-keyboard-response",110,112286,"0.0-3.33-0.33","56a1l1ad0eb0m45",463,"181.csv","","184","resources/trios/L2T2A2.jpg","39","restless",0.4,0.7,0.7,0.943016228307646,"false"
"image-keyboard-response",111,112691,"0.0-3.33-1.33","56a1l1ad0eb0m45",463,"181.csv","","null","resources/maskTrios/BBA2.jpg","null","",NA,NA,NA,NA,""
"image-keyboard-response",112,113905,"0.0-3.33-2.33","56a1l1ad0eb0m45",463,"181.csv","","null","resources/images/fishbone.png","null","",NA,NA,NA,NA,""
"image-keyboard-response",113,114185,"0.0-3.34-0.34","56a1l1ad0eb0m45",463,"181.csv","","278.1000000089407","resources/trios/L1T4A2.jpg","39","restless",0.4,0.7,0.7,0.821657590920759,"false"
"image-keyboard-response",114,114587,"0.0-3.34-1.34","56a1l1ad0eb0m45",463,"181.csv","","null","resources/maskTrios/BBA2.jpg","null","",NA,NA,NA,NA,""
"image-keyboard-response",115,115800,"0.0-3.34-2.34","56a1l1ad0eb0m45",463,"181.csv","","null","resources/images/fishbone.png","null","",NA,NA,NA,NA,""
"image-keyboard-response",116,116079,"0.0-3.35-0.35","56a1l1ad0eb0m45",463,"181.csv","","277.3999999910593","resources/trios/L1T2A1.jpg","39","restless",0.4,0.7,0.7,0.088704812741542,"true"
"image-keyboard-response",117,116482,"0.0-3.35-1.35","56a1l1ad0eb0m45",463,"181.csv","","null","resources/maskTrios/BBA1.jpg","null","",NA,NA,NA,NA,""
"image-keyboard-response",118,117695,"0.0-3.35-2.35","56a1l1ad0eb0m45",463,"181.csv","","null","resources/images/coin2.png","null","",NA,NA,NA,NA,""
"image-keyboard-response",119,117929,"0.0-3.36-0.36","56a1l1ad0eb0m45",463,"181.csv","","232.59999999403954","resources/trios/L2T4A1.jpg","39","restless",0.3,0.7,0.6,0.740049164475975,"false"
"image-keyboard-response",120,118346,"0.0-3.36-1.36","56a1l1ad0eb0m45",463,"181.csv","","null","resources/maskTrios/BBA1.jpg","null","",NA,NA,NA,NA,""
"image-keyboard-response",121,119562,"0.0-3.36-2.36","56a1l1ad0eb0m45",463,"181.csv","","null","resources/images/fishbone.png","null","",NA,NA,NA,NA,""
"image-keyboard-response",122,119831,"0.0-3.37-0.37","56a1l1ad0eb0m45",463,"181.csv","","266.5","resources/trios/L2T2A2.jpg","39","restless",0.3,0.7,0.6,0.505397880897183,"true"
"image-keyboard-response",123,120245,"0.0-3.37-1.37","56a1l1ad0eb0m45",463,"181.csv","","null","resources/maskTrios/BBA2.jpg","null","",NA,NA,NA,NA,""
"image-keyboard-response",124,121459,"0.0-3.37-2.37","56a1l1ad0eb0m45",463,"181.csv","","null","resources/images/coin2.png","null","",NA,NA,NA,NA,""
"image-keyboard-response",125,121707,"0.0-3.38-0.38","56a1l1ad0eb0m45",463,"181.csv","","247","resources/trios/L1T4A1.jpg","39","restless",0.3,0.7,0.6,0.32080110283636,"true"
"image-keyboard-response",126,122112,"0.0-3.38-1.38","56a1l1ad0eb0m45",463,"181.csv","","null","resources/maskTrios/BBA1.jpg","null","",NA,NA,NA,NA,""
"image-keyboard-response",127,123321,"0.0-3.38-2.38","56a1l1ad0eb0m45",463,"181.csv","","null","resources/images/coin2.png","null","",NA,NA,NA,NA,""
"image-keyboard-response",128,123582,"0.0-3.39-0.39","56a1l1ad0eb0m45",463,"181.csv","","259.8999999910593","resources/trios/L2T4A2.jpg","39","restless",0.3,0.7,0.6,0.435982105857172,"true"
"image-keyboard-response",129,123990,"0.0-3.39-1.39","56a1l1ad0eb0m45",463,"181.csv","","null","resources/maskTrios/BBA2.jpg","null","",NA,NA,NA,NA,""
"image-keyboard-response",130,125202,"0.0-3.39-2.39","56a1l1ad0eb0m45",463,"181.csv","","null","resources/images/coin2.png","null","",NA,NA,NA,NA,""
"image-keyboard-response",131,125491,"0.0-3.40-0.40","56a1l1ad0eb0m45",463,"181.csv","","287.20000000298023","resources/trios/L1T4A1.jpg","39","restless",0.3,0.7,0.5,0.223180084542943,"true"
"image-keyboard-response",132,125901,"0.0-3.40-1.40","56a1l1ad0eb0m45",463,"181.csv","","null","resources/maskTrios/BBA1.jpg","null","",NA,NA,NA,NA,""
"image-keyboard-response",133,127114,"0.0-3.40-2.40","56a1l1ad0eb0m45",463,"181.csv","","null","resources/images/coin2.png","null","",NA,NA,NA,NA,""
"image-keyboard-response",134,127366,"0.0-3.41-0.41","56a1l1ad0eb0m45",463,"181.csv","","250.6000000089407","resources/trios/L2T4A1.jpg","39","restless",0.3,0.7,0.5,0.312812518552221,"true"
"image-keyboard-response",135,127782,"0.0-3.41-1.41","56a1l1ad0eb0m45",463,"181.csv","","null","resources/maskTrios/BBA1.jpg","null","",NA,NA,NA,NA,""
"image-keyboard-response",136,128994,"0.0-3.41-2.41","56a1l1ad0eb0m45",463,"181.csv","","null","resources/images/coin2.png","null","",NA,NA,NA,NA,""
"image-keyboard-response",137,129473,"0.0-3.42-0.42","56a1l1ad0eb0m45",463,"181.csv","","477.09999999403954","resources/trios/L1T4A1.jpg","39","restless",0.3,0.7,0.5,0.149860978246903,"true"
"image-keyboard-response",138,129878,"0.0-3.42-1.42","56a1l1ad0eb0m45",463,"181.csv","","null","resources/maskTrios/BBA1.jpg","null","",NA,NA,NA,NA,""
"image-keyboard-response",139,131080,"0.0-3.42-2.42","56a1l1ad0eb0m45",463,"181.csv","","null","resources/images/coin2.png","null","",NA,NA,NA,NA,""
"image-keyboard-response",140,131637,"0.0-3.43-0.43","56a1l1ad0eb0m45",463,"181.csv","","555.5999999940395","resources/trios/L2T4A2.jpg","39","restless",0.4,0.7,0.5,0.889977227184444,"false"
"image-keyboard-response",141,132052,"0.0-3.43-1.43","56a1l1ad0eb0m45",463,"181.csv","","null","resources/maskTrios/BBA2.jpg","null","",NA,NA,NA,NA,""
"image-keyboard-response",142,133264,"0.0-3.43-2.43","56a1l1ad0eb0m45",463,"181.csv","","null","resources/images/fishbone.png","null","",NA,NA,NA,NA,""
"image-keyboard-response",143,133589,"0.0-3.44-0.44","56a1l1ad0eb0m45",463,"181.csv","","323.29999999701977","resources/trios/L2T4A1.jpg","39","restless",0.4,0.7,0.5,0.492446241985137,"true"
"image-keyboard-response",144,133996,"0.0-3.44-1.44","56a1l1ad0eb0m45",463,"181.csv","","null","resources/maskTrios/BBA1.jpg","null","",NA,NA,NA,NA,""
"image-keyboard-response",145,135204,"0.0-3.44-2.44","56a1l1ad0eb0m45",463,"181.csv","","null","resources/images/coin2.png","null","",NA,NA,NA,NA,""
"image-keyboard-response",146,135544,"0.0-3.45-0.45","56a1l1ad0eb0m45",463,"181.csv","","339.29999999701977","resources/trios/L2T4A2.jpg","39","restless",0.4,0.7,0.5,0.397823431027045,"true"
"image-keyboard-response",147,135951,"0.0-3.45-1.45","56a1l1ad0eb0m45",463,"181.csv","","null","resources/maskTrios/BBA2.jpg","null","",NA,NA,NA,NA,""
"image-keyboard-response",148,137160,"0.0-3.45-2.45","56a1l1ad0eb0m45",463,"181.csv","","null","resources/images/coin2.png","null","",NA,NA,NA,NA,""
"image-keyboard-response",149,137523,"0.0-3.46-0.46","56a1l1ad0eb0m45",463,"181.csv","","361.1000000089407","resources/trios/L2T2A1.jpg","39","restless",0.4,0.7,0.5,0.954213159448639,"false"
"image-keyboard-response",150,137938,"0.0-3.46-1.46","56a1l1ad0eb0m45",463,"181.csv","","null","resources/maskTrios/BBA1.jpg","null","",NA,NA,NA,NA,""
"image-keyboard-response",151,139151,"0.0-3.46-2.46","56a1l1ad0eb0m45",463,"181.csv","","null","resources/images/fishbone.png","null","",NA,NA,NA,NA,""
"image-keyboard-response",152,139451,"0.0-3.47-0.47","56a1l1ad0eb0m45",463,"181.csv","","298.29999999701977","resources/trios/L1T2A1.jpg","39","restless",0.4,0.7,0.5,0.416020124772367,"true"
"image-keyboard-response",153,139867,"0.0-3.47-1.47","56a1l1ad0eb0m45",463,"181.csv","","null","resources/maskTrios/BBA1.jpg","null","",NA,NA,NA,NA,""
"image-keyboard-response",154,141078,"0.0-3.47-2.47","56a1l1ad0eb0m45",463,"181.csv","","null","resources/images/coin2.png","null","",NA,NA,NA,NA,""
"image-keyboard-response",155,141831,"0.0-3.48-0.48","56a1l1ad0eb0m45",463,"181.csv","","751.2999999970198","resources/trios/L2T2A1.jpg","39","restless",0.4,0.7,0.5,0.397093621404951,"true"
"image-keyboard-response",156,142247,"0.0-3.48-1.48","56a1l1ad0eb0m45",463,"181.csv","","null","resources/maskTrios/BBA1.jpg","null","",NA,NA,NA,NA,""
"image-keyboard-response",157,143460,"0.0-3.48-2.48","56a1l1ad0eb0m45",463,"181.csv","","null","resources/images/coin2.png","null","",NA,NA,NA,NA,""
"image-keyboard-response",158,143953,"0.0-3.49-0.49","56a1l1ad0eb0m45",463,"181.csv","","491.70000000298023","resources/trios/L2T2A1.jpg","39","restless",0.4,0.7,0.5,0.269452760810339,"true"
"image-keyboard-response",159,144359,"0.0-3.49-1.49","56a1l1ad0eb0m45",463,"181.csv","","null","resources/maskTrios/BBA1.jpg","null","",NA,NA,NA,NA,""
"image-keyboard-response",160,145572,"0.0-3.49-2.49","56a1l1ad0eb0m45",463,"181.csv","","null","resources/images/coin2.png","null","",NA,NA,NA,NA,""
"image-keyboard-response",161,145932,"0.0-3.50-0.50","56a1l1ad0eb0m45",463,"181.csv","","357.90000000596046","resources/trios/L1T4A1.jpg","39","restless",0.4,0.8,0.4,0.481053989092306,"false"
"image-keyboard-response",162,146335,"0.0-3.50-1.50","56a1l1ad0eb0m45",463,"181.csv","","null","resources/maskTrios/BBA1.jpg","null","",NA,NA,NA,NA,""
"image-keyboard-response",163,147544,"0.0-3.50-2.50","56a1l1ad0eb0m45",463,"181.csv","","null","resources/images/fishbone.png","null","",NA,NA,NA,NA,""
"image-keyboard-response",164,147836,"0.0-3.51-0.51","56a1l1ad0eb0m45",463,"181.csv","","290.1000000089407","resources/trios/L1T2A1.jpg","39","restless",0.4,0.8,0.4,0.703686467247066,"false"
"image-keyboard-response",165,148244,"0.0-3.51-1.51","56a1l1ad0eb0m45",463,"181.csv","","null","resources/maskTrios/BBA1.jpg","null","",NA,NA,NA,NA,""
"image-keyboard-response",166,149456,"0.0-3.51-2.51","56a1l1ad0eb0m45",463,"181.csv","","null","resources/images/fishbone.png","null","",NA,NA,NA,NA,""
"image-keyboard-response",167,149754,"0.0-3.52-0.52","56a1l1ad0eb0m45",463,"181.csv","","297","resources/trios/L1T2A2.jpg","39","restless",0.5,0.8,0.4,0.658205553228327,"false"
"image-keyboard-response",168,150158,"0.0-3.52-1.52","56a1l1ad0eb0m45",463,"181.csv","","null","resources/maskTrios/BBA2.jpg","null","",NA,NA,NA,NA,""
"image-keyboard-response",169,151371,"0.0-3.52-2.52","56a1l1ad0eb0m45",463,"181.csv","","null","resources/images/fishbone.png","null","",NA,NA,NA,NA,""
"image-keyboard-response",170,151623,"0.0-3.53-0.53","56a1l1ad0eb0m45",463,"181.csv","","251.29999999701977","resources/trios/L2T2A1.jpg","39","restless",0.5,0.8,0.4,0.569109389178868,"false"
"image-keyboard-response",171,152038,"0.0-3.53-1.53","56a1l1ad0eb0m45",463,"181.csv","","null","resources/maskTrios/BBA1.jpg","null","",NA,NA,NA,NA,""
"image-keyboard-response",172,153253,"0.0-3.53-2.53","56a1l1ad0eb0m45",463,"181.csv","","null","resources/images/fishbone.png","null","",NA,NA,NA,NA,""
"image-keyboard-response",173,153555,"0.0-3.54-0.54","56a1l1ad0eb0m45",463,"181.csv","","300.59999999403954","resources/trios/L2T4A2.jpg","39","restless",0.5,0.7,0.4,0.281833299089373,"true"
"image-keyboard-response",174,153967,"0.0-3.54-1.54","56a1l1ad0eb0m45",463,"181.csv","","null","resources/maskTrios/BBA2.jpg","null","",NA,NA,NA,NA,""
"image-keyboard-response",175,155182,"0.0-3.54-2.54","56a1l1ad0eb0m45",463,"181.csv","","null","resources/images/coin2.png","null","",NA,NA,NA,NA,""
"image-keyboard-response",176,155462,"0.0-3.55-0.55","56a1l1ad0eb0m45",463,"181.csv","","278.40000000596046","resources/trios/L2T2A2.jpg","39","restless",0.5,0.7,0.4,0.602495946502324,"false"
"image-keyboard-response",177,155877,"0.0-3.55-1.55","56a1l1ad0eb0m45",463,"181.csv","","null","resources/maskTrios/BBA2.jpg","null","",NA,NA,NA,NA,""
"image-keyboard-response",178,157089,"0.0-3.55-2.55","56a1l1ad0eb0m45",463,"181.csv","","null","resources/images/fishbone.png","null","",NA,NA,NA,NA,""
"image-keyboard-response",179,157537,"0.0-3.56-0.56","56a1l1ad0eb0m45",463,"181.csv","","445.59999999403954","resources/trios/L1T2A2.jpg","39","restless",0.5,0.8,0.4,0.0885617175537516,"true"
"image-keyboard-response",180,157943,"0.0-3.56-1.56","56a1l1ad0eb0m45",463,"181.csv","","null","resources/maskTrios/BBA2.jpg","null","",NA,NA,NA,NA,""
"image-keyboard-response",181,159153,"0.0-3.56-2.56","56a1l1ad0eb0m45",463,"181.csv","","null","resources/images/coin2.png","null","",NA,NA,NA,NA,""
"image-keyboard-response",182,160954,"0.0-3.57-0.57","56a1l1ad0eb0m45",463,"181.csv","","1800.0999999940395","resources/trios/L1T4A2.jpg","39","restless",0.5,0.8,0.4,0.215885579217324,"true"
"image-keyboard-response",183,161364,"0.0-3.57-1.57","56a1l1ad0eb0m45",463,"181.csv","","null","resources/maskTrios/BBA2.jpg","null","",NA,NA,NA,NA,""
"image-keyboard-response",184,162576,"0.0-3.57-2.57","56a1l1ad0eb0m45",463,"181.csv","","null","resources/images/coin2.png","null","",NA,NA,NA,NA,""
"image-keyboard-response",185,163901,"0.0-3.58-0.58","56a1l1ad0eb0m45",463,"181.csv","","1324","resources/trios/L1T2A2.jpg","39","restless",0.6,0.8,0.4,0.607889371138033,"false"
"image-keyboard-response",186,164305,"0.0-3.58-1.58","56a1l1ad0eb0m45",463,"181.csv","","null","resources/maskTrios/BBA2.jpg","null","",NA,NA,NA,NA,""
"image-keyboard-response",187,165515,"0.0-3.58-2.58","56a1l1ad0eb0m45",463,"181.csv","","null","resources/images/fishbone.png","null","",NA,NA,NA,NA,""
"image-keyboard-response",188,165739,"0.0-3.59-0.59","56a1l1ad0eb0m45",463,"181.csv","","223","resources/trios/L2T4A1.jpg","39","restless",0.6,0.8,0.4,0.565592164987244,"false"
"image-keyboard-response",189,166153,"0.0-3.59-1.59","56a1l1ad0eb0m45",463,"181.csv","","null","resources/maskTrios/BBA1.jpg","null","",NA,NA,NA,NA,""
"image-keyboard-response",190,167366,"0.0-3.59-2.59","56a1l1ad0eb0m45",463,"181.csv","","null","resources/images/fishbone.png","null","",NA,NA,NA,NA,""
"image-keyboard-response",191,167642,"0.0-3.60-0.60","56a1l1ad0eb0m45",463,"181.csv","","274.5","resources/trios/L2T2A1.jpg","39","restless",0.6,0.8,0.4,0.100463653127455,"true"
"image-keyboard-response",192,168049,"0.0-3.60-1.60","56a1l1ad0eb0m45",463,"181.csv","","null","resources/maskTrios/BBA1.jpg","null","",NA,NA,NA,NA,""
"image-keyboard-response",193,169263,"0.0-3.60-2.60","56a1l1ad0eb0m45",463,"181.csv","","null","resources/images/coin2.png","null","",NA,NA,NA,NA,""
"image-keyboard-response",194,169542,"0.0-3.61-0.61","56a1l1ad0eb0m45",463,"181.csv","","275.70000000298023","resources/trios/L1T4A2.jpg","39","restless",0.6,0.8,0.4,0.560162408721338,"false"
"image-keyboard-response",195,169945,"0.0-3.61-1.61","56a1l1ad0eb0m45",463,"181.csv","","null","resources/maskTrios/BBA2.jpg","null","",NA,NA,NA,NA,""
"image-keyboard-response",196,171160,"0.0-3.61-2.61","56a1l1ad0eb0m45",463,"181.csv","","null","resources/images/fishbone.png","null","",NA,NA,NA,NA,""
"image-keyboard-response",197,171444,"0.0-3.62-0.62","56a1l1ad0eb0m45",463,"181.csv","","282.40000000596046","resources/trios/L1T4A1.jpg","39","restless",0.6,0.9,0.4,0.341916278327474,"true"
"image-keyboard-response",198,171861,"0.0-3.62-1.62","56a1l1ad0eb0m45",463,"181.csv","","null","resources/maskTrios/BBA1.jpg","null","",NA,NA,NA,NA,""
"image-keyboard-response",199,173075,"0.0-3.62-2.62","56a1l1ad0eb0m45",463,"181.csv","","null","resources/images/coin2.png","null","",NA,NA,NA,NA,""
"image-keyboard-response",200,173325,"0.0-3.63-0.63","56a1l1ad0eb0m45",463,"181.csv","","248.5","resources/trios/L2T2A2.jpg","39","restless",0.6,0.9,0.4,0.853872903133955,"false"
"image-keyboard-response",201,173728,"0.0-3.63-1.63","56a1l1ad0eb0m45",463,"181.csv","","null","resources/maskTrios/BBA2.jpg","null","",NA,NA,NA,NA,""
"image-keyboard-response",202,174938,"0.0-3.63-2.63","56a1l1ad0eb0m45",463,"181.csv","","null","resources/images/fishbone.png","null","",NA,NA,NA,NA,""
"image-keyboard-response",203,175323,"0.0-3.64-0.64","56a1l1ad0eb0m45",463,"181.csv","","384.40000000596046","resources/trios/L1T4A1.jpg","39","restless",0.6,0.9,0.3,0.926643047022209,"false"
"image-keyboard-response",204,175732,"0.0-3.64-1.64","56a1l1ad0eb0m45",463,"181.csv","","null","resources/maskTrios/BBA1.jpg","null","",NA,NA,NA,NA,""
"image-keyboard-response",205,176941,"0.0-3.64-2.64","56a1l1ad0eb0m45",463,"181.csv","","null","resources/images/fishbone.png","null","",NA,NA,NA,NA,""
"image-keyboard-response",206,177276,"0.0-3.65-0.65","56a1l1ad0eb0m45",463,"181.csv","","333.20000000298023","resources/trios/L2T2A2.jpg","39","restless",0.6,0.9,0.3,0.542398924377269,"false"
"image-keyboard-response",207,177688,"0.0-3.65-1.65","56a1l1ad0eb0m45",463,"181.csv","","null","resources/maskTrios/BBA2.jpg","null","",NA,NA,NA,NA,""
"image-keyboard-response",208,178896,"0.0-3.65-2.65","56a1l1ad0eb0m45",463,"181.csv","","null","resources/images/fishbone.png","null","",NA,NA,NA,NA,""
"image-keyboard-response",209,179130,"0.0-3.66-0.66","56a1l1ad0eb0m45",463,"181.csv","","232.19999998807907","resources/trios/L1T2A1.jpg","39","restless",0.6,0.9,0.4,0.295788632561442,"true"
"image-keyboard-response",210,179532,"0.0-3.66-1.66","56a1l1ad0eb0m45",463,"181.csv","","null","resources/maskTrios/BBA1.jpg","null","",NA,NA,NA,NA,""
"image-keyboard-response",211,180745,"0.0-3.66-2.66","56a1l1ad0eb0m45",463,"181.csv","","null","resources/images/coin2.png","null","",NA,NA,NA,NA,""
"image-keyboard-response",212,181060,"0.0-3.67-0.67","56a1l1ad0eb0m45",463,"181.csv","","313.70000000298023","resources/trios/L1T4A1.jpg","39","restless",0.6,0.9,0.4,0.662391605450314,"false"
"image-keyboard-response",213,181474,"0.0-3.67-1.67","56a1l1ad0eb0m45",463,"181.csv","","null","resources/maskTrios/BBA1.jpg","null","",NA,NA,NA,NA,""
"image-keyboard-response",214,182689,"0.0-3.67-2.67","56a1l1ad0eb0m45",463,"181.csv","","null","resources/images/fishbone.png","null","",NA,NA,NA,NA,""
"image-keyboard-response",215,182955,"0.0-3.68-0.68","56a1l1ad0eb0m45",463,"181.csv","","265","resources/trios/L2T2A1.jpg","39","restless",0.6,0.9,0.4,0.200385827995933,"true"
"image-keyboard-response",216,183358,"0.0-3.68-1.68","56a1l1ad0eb0m45",463,"181.csv","","null","resources/maskTrios/BBA1.jpg","null","",NA,NA,NA,NA,""
"image-keyboard-response",217,184569,"0.0-3.68-2.68","56a1l1ad0eb0m45",463,"181.csv","","null","resources/images/coin2.png","null","",NA,NA,NA,NA,""
"image-keyboard-response",218,184875,"0.0-3.69-0.69","56a1l1ad0eb0m45",463,"181.csv","","304.5","resources/trios/L1T2A2.jpg","39","restless",0.6,0.9,0.5,0.98744962970379,"false"
"image-keyboard-response",219,185282,"0.0-3.69-1.69","56a1l1ad0eb0m45",463,"181.csv","","null","resources/maskTrios/BBA2.jpg","null","",NA,NA,NA,NA,""
"image-keyboard-response",220,186495,"0.0-3.69-2.69","56a1l1ad0eb0m45",463,"181.csv","","null","resources/images/fishbone.png","null","",NA,NA,NA,NA,""
"image-keyboard-response",221,186569,"0.0-3.70-0.70","56a1l1ad0eb0m45",463,"181.csv","","71.69999998807907","resources/trios/L2T4A1.jpg","39","restless",0.6,0.9,0.5,0.830277188538194,"false"
"image-keyboard-response",222,186976,"0.0-3.70-1.70","56a1l1ad0eb0m45",463,"181.csv","","null","resources/maskTrios/BBA1.jpg","null","",NA,NA,NA,NA,""
"image-keyboard-response",223,188189,"0.0-3.70-2.70","56a1l1ad0eb0m45",463,"181.csv","","null","resources/images/fishbone.png","null","",NA,NA,NA,NA,""
"image-keyboard-response",224,188424,"0.0-3.71-0.71","56a1l1ad0eb0m45",463,"181.csv","","233.30000001192093","resources/trios/L1T2A1.jpg","39","restless",0.6,0.8,0.5,0.315510232430049,"true"
"image-keyboard-response",225,188828,"0.0-3.71-1.71","56a1l1ad0eb0m45",463,"181.csv","","null","resources/maskTrios/BBA1.jpg","null","",NA,NA,NA,NA,""
"image-keyboard-response",226,190041,"0.0-3.71-2.71","56a1l1ad0eb0m45",463,"181.csv","","null","resources/images/coin2.png","null","",NA,NA,NA,NA,""
"image-keyboard-response",227,190290,"0.0-3.72-0.72","56a1l1ad0eb0m45",463,"181.csv","","248","resources/trios/L2T4A1.jpg","39","restless",0.6,0.8,0.5,0.723425392242354,"false"
"image-keyboard-response",228,190694,"0.0-3.72-1.72","56a1l1ad0eb0m45",463,"181.csv","","null","resources/maskTrios/BBA1.jpg","null","",NA,NA,NA,NA,""
"image-keyboard-response",229,191903,"0.0-3.72-2.72","56a1l1ad0eb0m45",463,"181.csv","","null","resources/images/fishbone.png","null","",NA,NA,NA,NA,""
"image-keyboard-response",230,192204,"0.0-3.73-0.73","56a1l1ad0eb0m45",463,"181.csv","","299.3999999910593","resources/trios/L2T4A1.jpg","39","restless",0.6,0.8,0.5,0.6976188339892,"false"
"image-keyboard-response",231,192620,"0.0-3.73-1.73","56a1l1ad0eb0m45",463,"181.csv","","null","resources/maskTrios/BBA1.jpg","null","",NA,NA,NA,NA,""
"image-keyboard-response",232,193830,"0.0-3.73-2.73","56a1l1ad0eb0m45",463,"181.csv","","null","resources/images/fishbone.png","null","",NA,NA,NA,NA,""
"image-keyboard-response",233,194122,"0.0-3.74-0.74","56a1l1ad0eb0m45",463,"181.csv","","290.29999999701977","resources/trios/L2T4A1.jpg","39","restless",0.6,0.8,0.5,0.521181199289089,"false"
"image-keyboard-response",234,194527,"0.0-3.74-1.74","56a1l1ad0eb0m45",463,"181.csv","","null","resources/maskTrios/BBA1.jpg","null","",NA,NA,NA,NA,""
"image-keyboard-response",235,195738,"0.0-3.74-2.74","56a1l1ad0eb0m45",463,"181.csv","","null","resources/images/fishbone.png","null","",NA,NA,NA,NA,""
"image-keyboard-response",236,196073,"0.0-3.75-0.75","56a1l1ad0eb0m45",463,"181.csv","","333.6000000089407","resources/trios/L2T4A2.jpg","37","restless",0.6,0.8,0.5,0.0545474717118528,"true"
"image-keyboard-response",237,196485,"0.0-3.75-1.75","56a1l1ad0eb0m45",463,"181.csv","","null","resources/maskTrios/L2BB.jpg","null","",NA,NA,NA,NA,""
"image-keyboard-response",238,197695,"0.0-3.75-2.75","56a1l1ad0eb0m45",463,"181.csv","","null","resources/images/coin2.png","null","",NA,NA,NA,NA,""
"image-keyboard-response",239,198163,"0.0-3.76-0.76","56a1l1ad0eb0m45",463,"181.csv","","465.69999998807907","resources/trios/L2T4A1.jpg","37","restless",0.6,0.8,0.5,0.895700824360167,"false"
"image-keyboard-response",240,198578,"0.0-3.76-1.76","56a1l1ad0eb0m45",463,"181.csv","","null","resources/maskTrios/L2BB.jpg","null","",NA,NA,NA,NA,""
"image-keyboard-response",241,199789,"0.0-3.76-2.76","56a1l1ad0eb0m45",463,"181.csv","","null","resources/images/fishbone.png","null","",NA,NA,NA,NA,""
"image-keyboard-response",242,200022,"0.0-3.77-0.77","56a1l1ad0eb0m45",463,"181.csv","","231.20000000298023","resources/trios/L2T2A1.jpg","39","restless",0.6,0.8,0.5,0.0912577264254242,"true"
"image-keyboard-response",243,200426,"0.0-3.77-1.77","56a1l1ad0eb0m45",463,"181.csv","","null","resources/maskTrios/BBA1.jpg","null","",NA,NA,NA,NA,""
"image-keyboard-response",244,201640,"0.0-3.77-2.77","56a1l1ad0eb0m45",463,"181.csv","","null","resources/images/coin2.png","null","",NA,NA,NA,NA,""
"image-keyboard-response",245,201852,"0.0-3.78-0.78","56a1l1ad0eb0m45",463,"181.csv","","210","resources/trios/L2T4A1.jpg","39","restless",0.6,0.8,0.5,0.805762549775896,"false"
"image-keyboard-response",246,202260,"0.0-3.78-1.78","56a1l1ad0eb0m45",463,"181.csv","","null","resources/maskTrios/BBA1.jpg","null","",NA,NA,NA,NA,""
"image-keyboard-response",247,203472,"0.0-3.78-2.78","56a1l1ad0eb0m45",463,"181.csv","","null","resources/images/fishbone.png","null","",NA,NA,NA,NA,""
"image-keyboard-response",248,203582,"0.0-3.79-0.79","56a1l1ad0eb0m45",463,"181.csv","","108.70000000298023","resources/trios/L1T2A1.jpg","39","restless",0.6,0.8,0.5,0.565083074293484,"false"
"image-keyboard-response",249,203985,"0.0-3.79-1.79","56a1l1ad0eb0m45",463,"181.csv","","null","resources/maskTrios/BBA1.jpg","null","",NA,NA,NA,NA,""
"image-keyboard-response",250,205200,"0.0-3.79-2.79","56a1l1ad0eb0m45",463,"181.csv","","null","resources/images/fishbone.png","null","",NA,NA,NA,NA,""
"image-keyboard-response",251,205226,"0.0-3.80-0.80","56a1l1ad0eb0m45",463,"181.csv","","25.100000008940697","resources/trios/L1T4A1.jpg","39","restless",0.6,0.8,0.5,0.206603629755982,"true"
"image-keyboard-response",252,205638,"0.0-3.80-1.80","56a1l1ad0eb0m45",463,"181.csv","","null","resources/maskTrios/BBA1.jpg","null","",NA,NA,NA,NA,""
"image-keyboard-response",253,206851,"0.0-3.80-2.80","56a1l1ad0eb0m45",463,"181.csv","","null","resources/images/coin2.png","null","",NA,NA,NA,NA,""
"image-keyboard-response",254,207116,"0.0-3.81-0.81","56a1l1ad0eb0m45",463,"181.csv","","263.09999999403954","resources/trios/L1T4A1.jpg","39","restless",0.6,0.8,0.5,0.957639294131754,"false"
"image-keyboard-response",255,207521,"0.0-3.81-1.81","56a1l1ad0eb0m45",463,"181.csv","","null","resources/maskTrios/BBA1.jpg","null","",NA,NA,NA,NA,""
"image-keyboard-response",256,208732,"0.0-3.81-2.81","56a1l1ad0eb0m45",463,"181.csv","","null","resources/images/fishbone.png","null","",NA,NA,NA,NA,""
"image-keyboard-response",257,208993,"0.0-3.82-0.82","56a1l1ad0eb0m45",463,"181.csv","","260.40000000596046","resources/trios/L1T2A1.jpg","37","restless",0.5,0.8,0.5,0.434485990754659,"true"
"image-keyboard-response",258,209401,"0.0-3.82-1.82","56a1l1ad0eb0m45",463,"181.csv","","null","resources/maskTrios/L1BB.jpg","null","",NA,NA,NA,NA,""
"image-keyboard-response",259,210614,"0.0-3.82-2.82","56a1l1ad0eb0m45",463,"181.csv","","null","resources/images/coin2.png","null","",NA,NA,NA,NA,""
"image-keyboard-response",260,211087,"0.0-3.83-0.83","56a1l1ad0eb0m45",463,"181.csv","","471.5","resources/trios/L2T2A1.jpg","39","restless",0.5,0.8,0.5,0.806320676499569,"false"
"image-keyboard-response",261,211502,"0.0-3.83-1.83","56a1l1ad0eb0m45",463,"181.csv","","null","resources/maskTrios/BBA1.jpg","null","",NA,NA,NA,NA,""
"image-keyboard-response",262,212710,"0.0-3.83-2.83","56a1l1ad0eb0m45",463,"181.csv","","null","resources/images/fishbone.png","null","",NA,NA,NA,NA,""
"image-keyboard-response",263,212749,"0.0-3.84-0.84","56a1l1ad0eb0m45",463,"181.csv","","37.70000000298023","resources/trios/L1T4A1.jpg","39","restless",0.5,0.7,0.5,0.56399799824912,"false"
"image-keyboard-response",264,213162,"0.0-3.84-1.84","56a1l1ad0eb0m45",463,"181.csv","","null","resources/maskTrios/BBA1.jpg","null","",NA,NA,NA,NA,""
"image-keyboard-response",265,214368,"0.0-3.84-2.84","56a1l1ad0eb0m45",463,"181.csv","","null","resources/images/fishbone.png","null","",NA,NA,NA,NA,""
"image-keyboard-response",266,214657,"0.0-3.85-0.85","56a1l1ad0eb0m45",463,"181.csv","","287.70000000298023","resources/trios/L1T2A1.jpg","39","restless",0.5,0.7,0.5,0.711860788227722,"false"
"image-keyboard-response",267,215069,"0.0-3.85-1.85","56a1l1ad0eb0m45",463,"181.csv","","null","resources/maskTrios/BBA1.jpg","null","",NA,NA,NA,NA,""
"image-keyboard-response",268,216277,"0.0-3.85-2.85","56a1l1ad0eb0m45",463,"181.csv","","null","resources/images/fishbone.png","null","",NA,NA,NA,NA,""
"image-keyboard-response",269,216753,"0.0-3.86-0.86","56a1l1ad0eb0m45",463,"181.csv","","475","resources/trios/L1T4A2.jpg","38","restless",0.5,0.7,0.5,0.138668870985582,"true"
"image-keyboard-response",270,217162,"0.0-3.86-1.86","56a1l1ad0eb0m45",463,"181.csv","","null","resources/maskTrios/BT4B.jpg","null","",NA,NA,NA,NA,""
"image-keyboard-response",271,218373,"0.0-3.86-2.86","56a1l1ad0eb0m45",463,"181.csv","","null","resources/images/coin2.png","null","",NA,NA,NA,NA,""
"image-keyboard-response",272,218744,"0.0-3.87-0.87","56a1l1ad0eb0m45",463,"181.csv","","369.6000000089407","resources/trios/L2T2A1.jpg","38","restless",0.5,0.7,0.5,0.0901447075259372,"true"
"image-keyboard-response",273,219152,"0.0-3.87-1.87","56a1l1ad0eb0m45",463,"181.csv","","null","resources/maskTrios/BT2B.jpg","null","",NA,NA,NA,NA,""
"image-keyboard-response",274,220366,"0.0-3.87-2.87","56a1l1ad0eb0m45",463,"181.csv","","null","resources/images/coin2.png","null","",NA,NA,NA,NA,""
"image-keyboard-response",275,220650,"0.0-3.88-0.88","56a1l1ad0eb0m45",463,"181.csv","","282","resources/trios/L2T2A1.jpg","38","restless",0.5,0.7,0.5,0.0749990522808643,"true"
"image-keyboard-response",276,221066,"0.0-3.88-1.88","56a1l1ad0eb0m45",463,"181.csv","","null","resources/maskTrios/BT2B.jpg","null","",NA,NA,NA,NA,""
"image-keyboard-response",277,222276,"0.0-3.88-2.88","56a1l1ad0eb0m45",463,"181.csv","","null","resources/images/coin2.png","null","",NA,NA,NA,NA,""
"image-keyboard-response",278,222561,"0.0-3.89-0.89","56a1l1ad0eb0m45",463,"181.csv","","283.79999999701977","resources/trios/L2T4A2.jpg","38","restless",0.5,0.7,0.5,0.0448932440177296,"true"
"image-keyboard-response",279,222974,"0.0-3.89-1.89","56a1l1ad0eb0m45",463,"181.csv","","null","resources/maskTrios/BT4B.jpg","null","",NA,NA,NA,NA,""
"image-keyboard-response",280,224186,"0.0-3.89-2.89","56a1l1ad0eb0m45",463,"181.csv","","null","resources/images/coin2.png","null","",NA,NA,NA,NA,""
"image-keyboard-response",281,224447,"0.0-3.90-0.90","56a1l1ad0eb0m45",463,"181.csv","","259.19999998807907","resources/trios/L2T4A2.jpg","38","restless",0.5,0.7,0.5,0.494692404772995,"true"
"image-keyboard-response",282,224852,"0.0-3.90-1.90","56a1l1ad0eb0m45",463,"181.csv","","null","resources/maskTrios/BT4B.jpg","null","",NA,NA,NA,NA,""
"image-keyboard-response",283,226067,"0.0-3.90-2.90","56a1l1ad0eb0m45",463,"181.csv","","null","resources/images/coin2.png","null","",NA,NA,NA,NA,""
"image-keyboard-response",284,226189,"0.0-3.91-0.91","56a1l1ad0eb0m45",463,"181.csv","","121","resources/trios/L2T4A1.jpg","38","restless",0.5,0.7,0.5,0.633890053318585,"true"
"image-keyboard-response",285,226596,"0.0-3.91-1.91","56a1l1ad0eb0m45",463,"181.csv","","null","resources/maskTrios/BT4B.jpg","null","",NA,NA,NA,NA,""
"image-keyboard-response",286,227809,"0.0-3.91-2.91","56a1l1ad0eb0m45",463,"181.csv","","null","resources/images/coin2.png","null","",NA,NA,NA,NA,""
"image-keyboard-response",287,228044,"0.0-3.92-0.92","56a1l1ad0eb0m45",463,"181.csv","","233.1000000089407","resources/trios/L2T2A1.jpg","38","restless",0.5,0.7,0.4,0.0330515030836447,"true"
"image-keyboard-response",288,228461,"0.0-3.92-1.92","56a1l1ad0eb0m45",463,"181.csv","","null","resources/maskTrios/BT2B.jpg","null","",NA,NA,NA,NA,""
"image-keyboard-response",289,229675,"0.0-3.92-2.92","56a1l1ad0eb0m45",463,"181.csv","","null","resources/images/coin2.png","null","",NA,NA,NA,NA,""
"image-keyboard-response",290,229684,"0.0-3.93-0.93","56a1l1ad0eb0m45",463,"181.csv","","7.5","resources/trios/L2T2A1.jpg","38","restless",0.5,0.7,0.4,0.803235351129382,"false"
"image-keyboard-response",291,230096,"0.0-3.93-1.93","56a1l1ad0eb0m45",463,"181.csv","","null","resources/maskTrios/BT2B.jpg","null","",NA,NA,NA,NA,""
"image-keyboard-response",292,231312,"0.0-3.93-2.93","56a1l1ad0eb0m45",463,"181.csv","","null","resources/images/fishbone.png","null","",NA,NA,NA,NA,""
"image-keyboard-response",293,231457,"0.0-3.94-0.94","56a1l1ad0eb0m45",463,"181.csv","","143.5","resources/trios/L1T4A1.jpg","39","restless",0.5,0.7,0.4,0.965403480456046,"false"
"image-keyboard-response",294,231872,"0.0-3.94-1.94","56a1l1ad0eb0m45",463,"181.csv","","null","resources/maskTrios/BBA1.jpg","null","",NA,NA,NA,NA,""
"image-keyboard-response",295,233087,"0.0-3.94-2.94","56a1l1ad0eb0m45",463,"181.csv","","null","resources/images/fishbone.png","null","",NA,NA,NA,NA,""
"image-keyboard-response",296,233488,"0.0-3.95-0.95","56a1l1ad0eb0m45",463,"181.csv","","399.20000000298023","resources/trios/L2T4A2.jpg","38","restless",0.5,0.7,0.4,0.945751527563409,"false"
"image-keyboard-response",297,233897,"0.0-3.95-1.95","56a1l1ad0eb0m45",463,"181.csv","","null","resources/maskTrios/BT4B.jpg","null","",NA,NA,NA,NA,""
"image-keyboard-response",298,235101,"0.0-3.95-2.95","56a1l1ad0eb0m45",463,"181.csv","","null","resources/images/fishbone.png","null","",NA,NA,NA,NA,""
"image-keyboard-response",299,235538,"0.0-3.96-0.96","56a1l1ad0eb0m45",463,"181.csv","","435.79999999701977","resources/trios/L2T4A2.jpg","38","restless",0.5,0.7,0.4,0.767258990607228,"false"
"image-keyboard-response",300,235947,"0.0-3.96-1.96","56a1l1ad0eb0m45",463,"181.csv","","null","resources/maskTrios/BT4B.jpg","null","",NA,NA,NA,NA,""
"image-keyboard-response",301,237159,"0.0-3.96-2.96","56a1l1ad0eb0m45",463,"181.csv","","null","resources/images/fishbone.png","null","",NA,NA,NA,NA,""
"image-keyboard-response",302,237229,"0.0-3.97-0.97","56a1l1ad0eb0m45",463,"181.csv","","68.79999999701977","resources/trios/L2T4A2.jpg","38","restless",0.5,0.7,0.4,0.552128733511072,"true"
"image-keyboard-response",303,237642,"0.0-3.97-1.97","56a1l1ad0eb0m45",463,"181.csv","","null","resources/maskTrios/BT4B.jpg","null","",NA,NA,NA,NA,""
"image-keyboard-response",304,238854,"0.0-3.97-2.97","56a1l1ad0eb0m45",463,"181.csv","","null","resources/images/coin2.png","null","",NA,NA,NA,NA,""
"image-keyboard-response",305,238876,"0.0-3.98-0.98","56a1l1ad0eb0m45",463,"181.csv","","21","resources/trios/L2T2A1.jpg","38","restless",0.5,0.7,0.4,0.451230321474142,"true"
"image-keyboard-response",306,239291,"0.0-3.98-1.98","56a1l1ad0eb0m45",463,"181.csv","","null","resources/maskTrios/BT2B.jpg","null","",NA,NA,NA,NA,""
"image-keyboard-response",307,240504,"0.0-3.98-2.98","56a1l1ad0eb0m45",463,"181.csv","","null","resources/images/coin2.png","null","",NA,NA,NA,NA,""
"image-keyboard-response",308,240563,"0.0-3.99-0.99","56a1l1ad0eb0m45",463,"181.csv","","57.099999994039536","resources/trios/L1T2A1.jpg","38","restless",0.5,0.7,0.4,0.0357975131737929,"true"
"image-keyboard-response",309,240969,"0.0-3.99-1.99","56a1l1ad0eb0m45",463,"181.csv","","null","resources/maskTrios/BT2B.jpg","null","",NA,NA,NA,NA,""
"image-keyboard-response",310,242181,"0.0-3.99-2.99","56a1l1ad0eb0m45",463,"181.csv","","null","resources/images/coin2.png","null","",NA,NA,NA,NA,""
"image-keyboard-response",311,242269,"0.0-3.100-0.100","56a1l1ad0eb0m45",463,"181.csv","","86.6000000089407","resources/trios/L2T4A2.jpg","38","restless",0.5,0.7,0.4,0.125166998480209,"true"
"image-keyboard-response",312,242678,"0.0-3.100-1.100","56a1l1ad0eb0m45",463,"181.csv","","null","resources/maskTrios/BT4B.jpg","null","",NA,NA,NA,NA,""
"image-keyboard-response",313,243890,"0.0-3.100-2.100","56a1l1ad0eb0m45",463,"181.csv","","null","resources/images/coin2.png","null","",NA,NA,NA,NA,""
"image-keyboard-response",314,243951,"0.0-3.101-0.101","56a1l1ad0eb0m45",463,"181.csv","","58.5","resources/trios/L1T4A2.jpg","38","restless",0.5,0.7,0.4,0.0958056911942695,"true"
"image-keyboard-response",315,244358,"0.0-3.101-1.101","56a1l1ad0eb0m45",463,"181.csv","","null","resources/maskTrios/BT4B.jpg","null","",NA,NA,NA,NA,""
"image-keyboard-response",316,245570,"0.0-3.101-2.101","56a1l1ad0eb0m45",463,"181.csv","","null","resources/images/coin2.png","null","",NA,NA,NA,NA,""
"image-keyboard-response",317,245859,"0.0-3.102-0.102","56a1l1ad0eb0m45",463,"181.csv","","287.70000000298023","resources/trios/L1T4A1.jpg","38","restless",0.5,0.7,0.4,0.166746886604509,"true"
"image-keyboard-response",318,246271,"0.0-3.102-1.102","56a1l1ad0eb0m45",463,"181.csv","","null","resources/maskTrios/BT4B.jpg","null","",NA,NA,NA,NA,""
"image-keyboard-response",319,247481,"0.0-3.102-2.102","56a1l1ad0eb0m45",463,"181.csv","","null","resources/images/coin2.png","null","",NA,NA,NA,NA,""
"image-keyboard-response",320,247597,"0.0-3.103-0.103","56a1l1ad0eb0m45",463,"181.csv","","114.70000000298023","resources/trios/L1T4A2.jpg","38","restless",0.5,0.7,0.3,0.381513478809019,"true"
"image-keyboard-response",321,248008,"0.0-3.103-1.103","56a1l1ad0eb0m45",463,"181.csv","","null","resources/maskTrios/BT4B.jpg","null","",NA,NA,NA,NA,""
"image-keyboard-response",322,249219,"0.0-3.103-2.103","56a1l1ad0eb0m45",463,"181.csv","","null","resources/images/coin2.png","null","",NA,NA,NA,NA,""
"image-keyboard-response",323,249560,"0.0-3.104-0.104","56a1l1ad0eb0m45",463,"181.csv","","340","resources/trios/L2T2A1.jpg","38","restless",0.5,0.8,0.3,0.981249718525236,"false"
"image-keyboard-response",324,249965,"0.0-3.104-1.104","56a1l1ad0eb0m45",463,"181.csv","","null","resources/maskTrios/BT2B.jpg","null","",NA,NA,NA,NA,""
"image-keyboard-response",325,251178,"0.0-3.104-2.104","56a1l1ad0eb0m45",463,"181.csv","","null","resources/images/fishbone.png","null","",NA,NA,NA,NA,""
"image-keyboard-response",326,251370,"0.0-3.105-0.105","56a1l1ad0eb0m45",463,"181.csv","","190.90000000596046","resources/trios/L1T4A1.jpg","38","restless",0.5,0.8,0.4,0.74742736012238,"true"
"image-keyboard-response",327,251785,"0.0-3.105-1.105","56a1l1ad0eb0m45",463,"181.csv","","null","resources/maskTrios/BT4B.jpg","null","",NA,NA,NA,NA,""
"image-keyboard-response",328,252998,"0.0-3.105-2.105","56a1l1ad0eb0m45",463,"181.csv","","null","resources/images/coin2.png","null","",NA,NA,NA,NA,""
"image-keyboard-response",329,253242,"0.0-3.106-0.106","56a1l1ad0eb0m45",463,"181.csv","","242.79999999701977","resources/trios/L1T2A1.jpg","38","restless",0.5,0.7,0.5,0.715923567459977,"false"
"image-keyboard-response",330,253649,"0.0-3.106-1.106","56a1l1ad0eb0m45",463,"181.csv","","null","resources/maskTrios/BT2B.jpg","null","",NA,NA,NA,NA,""
"image-keyboard-response",331,254862,"0.0-3.106-2.106","56a1l1ad0eb0m45",463,"181.csv","","null","resources/images/fishbone.png","null","",NA,NA,NA,NA,""
"image-keyboard-response",332,255749,"0.0-3.107-0.107","56a1l1ad0eb0m45",463,"181.csv","","884.7999999970198","resources/trios/L2T2A1.jpg","38","restless",0.5,0.8,0.5,0.504540028988037,"true"
"image-keyboard-response",333,256153,"0.0-3.107-1.107","56a1l1ad0eb0m45",463,"181.csv","","null","resources/maskTrios/BT2B.jpg","null","",NA,NA,NA,NA,""
"image-keyboard-response",334,257362,"0.0-3.107-2.107","56a1l1ad0eb0m45",463,"181.csv","","null","resources/images/coin2.png","null","",NA,NA,NA,NA,""
"image-keyboard-response",335,257427,"0.0-3.108-0.108","56a1l1ad0eb0m45",463,"181.csv","","63.29999999701977","resources/trios/L1T2A1.jpg","38","restless",0.5,0.8,0.5,0.741785050617968,"true"
"image-keyboard-response",336,257844,"0.0-3.108-1.108","56a1l1ad0eb0m45",463,"181.csv","","null","resources/maskTrios/BT2B.jpg","null","",NA,NA,NA,NA,""
"image-keyboard-response",337,259050,"0.0-3.108-2.108","56a1l1ad0eb0m45",463,"181.csv","","null","resources/images/coin2.png","null","",NA,NA,NA,NA,""
"image-keyboard-response",338,259410,"0.0-3.109-0.109","56a1l1ad0eb0m45",463,"181.csv","","358.80000001192093","resources/trios/L1T4A2.jpg","38","restless",0.5,0.7,0.6,0.616564449556343,"true"
"image-keyboard-response",339,259828,"0.0-3.109-1.109","56a1l1ad0eb0m45",463,"181.csv","","null","resources/maskTrios/BT4B.jpg","null","",NA,NA,NA,NA,""
"image-keyboard-response",340,261041,"0.0-3.109-2.109","56a1l1ad0eb0m45",463,"181.csv","","null","resources/images/coin2.png","null","",NA,NA,NA,NA,""
"image-keyboard-response",341,261130,"0.0-3.110-0.110","56a1l1ad0eb0m45",463,"181.csv","","87.29999999701977","resources/trios/L2T4A2.jpg","38","restless",0.5,0.7,0.6,0.628925798496039,"true"
"image-keyboard-response",342,261538,"0.0-3.110-1.110","56a1l1ad0eb0m45",463,"181.csv","","null","resources/maskTrios/BT4B.jpg","null","",NA,NA,NA,NA,""
"image-keyboard-response",343,262749,"0.0-3.110-2.110","56a1l1ad0eb0m45",463,"181.csv","","null","resources/images/coin2.png","null","",NA,NA,NA,NA,""
"image-keyboard-response",344,262950,"0.0-3.111-0.111","56a1l1ad0eb0m45",463,"181.csv","","199.09999999403954","resources/trios/L2T2A2.jpg","38","restless",0.5,0.7,0.6,0.541492429671231,"true"
"image-keyboard-response",345,263359,"0.0-3.111-1.111","56a1l1ad0eb0m45",463,"181.csv","","null","resources/maskTrios/BT2B.jpg","null","",NA,NA,NA,NA,""
"image-keyboard-response",346,264575,"0.0-3.111-2.111","56a1l1ad0eb0m45",463,"181.csv","","null","resources/images/coin2.png","null","",NA,NA,NA,NA,""
"image-keyboard-response",347,264767,"0.0-3.112-0.112","56a1l1ad0eb0m45",463,"181.csv","","190.70000000298023","resources/trios/L2T2A2.jpg","38","restless",0.5,0.7,0.6,0.569495866182348,"true"
"image-keyboard-response",348,265184,"0.0-3.112-1.112","56a1l1ad0eb0m45",463,"181.csv","","null","resources/maskTrios/BT2B.jpg","null","",NA,NA,NA,NA,""
"image-keyboard-response",349,266398,"0.0-3.112-2.112","56a1l1ad0eb0m45",463,"181.csv","","null","resources/images/coin2.png","null","",NA,NA,NA,NA,""
"image-keyboard-response",350,266622,"0.0-3.113-0.113","56a1l1ad0eb0m45",463,"181.csv","","222.29999999701977","resources/trios/L1T2A2.jpg","38","restless",0.5,0.7,0.5,0.219422534487224,"true"
"image-keyboard-response",351,267034,"0.0-3.113-1.113","56a1l1ad0eb0m45",463,"181.csv","","null","resources/maskTrios/BT2B.jpg","null","",NA,NA,NA,NA,""
"image-keyboard-response",352,268248,"0.0-3.113-2.113","56a1l1ad0eb0m45",463,"181.csv","","null","resources/images/coin2.png","null","",NA,NA,NA,NA,""
"image-keyboard-response",353,268368,"0.0-3.114-0.114","56a1l1ad0eb0m45",463,"181.csv","","118.8999999910593","resources/trios/L2T4A1.jpg","38","restless",0.5,0.7,0.5,0.187750577576186,"true"
"image-keyboard-response",354,268777,"0.0-3.114-1.114","56a1l1ad0eb0m45",463,"181.csv","","null","resources/maskTrios/BT4B.jpg","null","",NA,NA,NA,NA,""
"image-keyboard-response",355,269990,"0.0-3.114-2.114","56a1l1ad0eb0m45",463,"181.csv","","null","resources/images/coin2.png","null","",NA,NA,NA,NA,""
"image-keyboard-response",356,270099,"0.0-3.115-0.115","56a1l1ad0eb0m45",463,"181.csv","","106.90000000596046","resources/trios/L1T2A2.jpg","38","restless",0.4,0.7,0.5,0.90811334292683,"false"
"image-keyboard-response",357,270504,"0.0-3.115-1.115","56a1l1ad0eb0m45",463,"181.csv","","null","resources/maskTrios/BT2B.jpg","null","",NA,NA,NA,NA,""
"image-keyboard-response",358,271716,"0.0-3.115-2.115","56a1l1ad0eb0m45",463,"181.csv","","null","resources/images/fishbone.png","null","",NA,NA,NA,NA,""
"image-keyboard-response",359,273364,"0.0-3.116-0.116","56a1l1ad0eb0m45",463,"181.csv","","1645.8999999910593","resources/trios/L1T2A1.jpg","38","restless",0.4,0.7,0.5,0.0401114873906832,"true"
"image-keyboard-response",360,273767,"0.0-3.116-1.116","56a1l1ad0eb0m45",463,"181.csv","","null","resources/maskTrios/BT2B.jpg","null","",NA,NA,NA,NA,""
"image-keyboard-response",361,274976,"0.0-3.116-2.116","56a1l1ad0eb0m45",463,"181.csv","","null","resources/images/coin2.png","null","",NA,NA,NA,NA,""
"image-keyboard-response",362,275475,"0.0-3.117-0.117","56a1l1ad0eb0m45",463,"181.csv","","497.40000000596046","resources/trios/L1T2A2.jpg","38","restless",0.4,0.7,0.5,0.788026790456864,"false"
"image-keyboard-response",363,275882,"0.0-3.117-1.117","56a1l1ad0eb0m45",463,"181.csv","","null","resources/maskTrios/BT2B.jpg","null","",NA,NA,NA,NA,""
"image-keyboard-response",364,277097,"0.0-3.117-2.117","56a1l1ad0eb0m45",463,"181.csv","","null","resources/images/fishbone.png","null","",NA,NA,NA,NA,""
"image-keyboard-response",365,283535,"0.0-3.118-0.118","56a1l1ad0eb0m45",463,"181.csv","","6436.5999999940395","resources/trios/L1T2A2.jpg","38","restless",0.4,0.7,0.5,0.708183930589023,"false"
"image-keyboard-response",366,283941,"0.0-3.118-1.118","56a1l1ad0eb0m45",463,"181.csv","","null","resources/maskTrios/BT2B.jpg","null","",NA,NA,NA,NA,""
"image-keyboard-response",367,285152,"0.0-3.118-2.118","56a1l1ad0eb0m45",463,"181.csv","","null","resources/images/fishbone.png","null","",NA,NA,NA,NA,""
"image-keyboard-response",368,285154,"0.0-3.119-0.119","56a1l1ad0eb0m45",463,"181.csv","","0.10000000894069672","resources/trios/L2T4A1.jpg","39","restless",0.4,0.7,0.5,0.425351754111106,"true"
"image-keyboard-response",369,285558,"0.0-3.119-1.119","56a1l1ad0eb0m45",463,"181.csv","","null","resources/maskTrios/BBA1.jpg","null","",NA,NA,NA,NA,""
"image-keyboard-response",370,286771,"0.0-3.119-2.119","56a1l1ad0eb0m45",463,"181.csv","","null","resources/images/coin2.png","null","",NA,NA,NA,NA,""
"image-keyboard-response",371,287032,"0.0-3.120-0.120","56a1l1ad0eb0m45",463,"181.csv","","260","resources/trios/L2T4A2.jpg","39","restless",0.4,0.7,0.5,0.528339411689279,"false"
"image-keyboard-response",372,287440,"0.0-3.120-1.120","56a1l1ad0eb0m45",463,"181.csv","","null","resources/maskTrios/BBA2.jpg","null","",NA,NA,NA,NA,""
"image-keyboard-response",373,288654,"0.0-3.120-2.120","56a1l1ad0eb0m45",463,"181.csv","","null","resources/images/fishbone.png","null","",NA,NA,NA,NA,""
"image-keyboard-response",374,288846,"0.0-3.121-0.121","56a1l1ad0eb0m45",463,"181.csv","","190.29999999701977","resources/trios/L1T4A1.jpg","39","restless",0.4,0.6,0.5,0.69981721869719,"false"
"image-keyboard-response",375,289258,"0.0-3.121-1.121","56a1l1ad0eb0m45",463,"181.csv","","null","resources/maskTrios/BBA1.jpg","null","",NA,NA,NA,NA,""
"image-keyboard-response",376,290473,"0.0-3.121-2.121","56a1l1ad0eb0m45",463,"181.csv","","null","resources/images/fishbone.png","null","",NA,NA,NA,NA,""
"image-keyboard-response",377,290555,"0.0-3.122-0.122","56a1l1ad0eb0m45",463,"181.csv","","80.70000000298023","resources/trios/L1T4A1.jpg","39","restless",0.4,0.6,0.5,0.891740099065566,"false"
"image-keyboard-response",378,290973,"0.0-3.122-1.122","56a1l1ad0eb0m45",463,"181.csv","","null","resources/maskTrios/BBA1.jpg","null","",NA,NA,NA,NA,""
"image-keyboard-response",379,292183,"0.0-3.122-2.122","56a1l1ad0eb0m45",463,"181.csv","","null","resources/images/fishbone.png","null","",NA,NA,NA,NA,""
"image-keyboard-response",380,292463,"0.0-3.123-0.123","56a1l1ad0eb0m45",463,"181.csv","","278.3999999910593","resources/trios/L1T2A1.jpg","38","restless",0.4,0.6,0.5,0.570653593270667,"true"
"image-keyboard-response",381,292869,"0.0-3.123-1.123","56a1l1ad0eb0m45",463,"181.csv","","null","resources/maskTrios/BT2B.jpg","null","",NA,NA,NA,NA,""
"image-keyboard-response",382,294081,"0.0-3.123-2.123","56a1l1ad0eb0m45",463,"181.csv","","null","resources/images/coin2.png","null","",NA,NA,NA,NA,""
"image-keyboard-response",383,294474,"0.0-3.124-0.124","56a1l1ad0eb0m45",463,"181.csv","","391.8999999910593","resources/trios/L2T2A2.jpg","38","restless",0.4,0.6,0.5,0.269149347226113,"true"
"image-keyboard-response",384,294889,"0.0-3.124-1.124","56a1l1ad0eb0m45",463,"181.csv","","null","resources/maskTrios/BT2B.jpg","null","",NA,NA,NA,NA,""
"image-keyboard-response",385,296103,"0.0-3.124-2.124","56a1l1ad0eb0m45",463,"181.csv","","null","resources/images/coin2.png","null","",NA,NA,NA,NA,""
"image-keyboard-response",386,296341,"0.0-3.125-0.125","56a1l1ad0eb0m45",463,"181.csv","","236.3999999910593","resources/trios/L1T2A2.jpg","38","restless",0.4,0.6,0.5,0.642814515151566,"false"
"image-keyboard-response",387,296758,"0.0-3.125-1.125","56a1l1ad0eb0m45",463,"181.csv","","null","resources/maskTrios/BT2B.jpg","null","",NA,NA,NA,NA,""
"image-keyboard-response",388,297971,"0.0-3.125-2.125","56a1l1ad0eb0m45",463,"181.csv","","null","resources/images/fishbone.png","null","",NA,NA,NA,NA,""
"image-keyboard-response",389,304090,"0.0-3.126-0.126","56a1l1ad0eb0m45",463,"181.csv","","6117.4000000059605","resources/trios/L1T2A2.jpg","38","restless",0.4,0.6,0.5,0.602625277128635,"false"
"image-keyboard-response",390,304505,"0.0-3.126-1.126","56a1l1ad0eb0m45",463,"181.csv","","null","resources/maskTrios/BT2B.jpg","null","",NA,NA,NA,NA,""
"image-keyboard-response",391,305719,"0.0-3.126-2.126","56a1l1ad0eb0m45",463,"181.csv","","null","resources/images/fishbone.png","null","",NA,NA,NA,NA,""
"image-keyboard-response",392,316432,"0.0-3.127-0.127","56a1l1ad0eb0m45",463,"181.csv","","10711.39999999106","resources/trios/L2T2A1.jpg","38","restless",0.5,0.6,0.5,0.0152219805055347,"true"
"image-keyboard-response",393,316837,"0.0-3.127-1.127","56a1l1ad0eb0m45",463,"181.csv","","null","resources/maskTrios/BT2B.jpg","null","",NA,NA,NA,NA,""
"image-keyboard-response",394,318053,"0.0-3.127-2.127","56a1l1ad0eb0m45",463,"181.csv","","null","resources/images/coin2.png","null","",NA,NA,NA,NA,""
"image-keyboard-response",395,326964,"0.0-3.128-0.128","56a1l1ad0eb0m45",463,"181.csv","","8909.09999999404","resources/trios/L2T2A2.jpg","38","restless",0.5,0.6,0.5,0.0513661601631774,"true"
"image-keyboard-response",396,327377,"0.0-3.128-1.128","56a1l1ad0eb0m45",463,"181.csv","","null","resources/maskTrios/BT2B.jpg","null","",NA,NA,NA,NA,""
"image-keyboard-response",397,328590,"0.0-3.128-2.128","56a1l1ad0eb0m45",463,"181.csv","","null","resources/images/coin2.png","null","",NA,NA,NA,NA,""
"image-keyboard-response",398,328835,"0.0-3.129-0.129","56a1l1ad0eb0m45",463,"181.csv","","244.09999999403954","resources/trios/L2T4A2.jpg","38","restless",0.5,0.6,0.5,0.782993560356801,"false"
"image-keyboard-response",399,329244,"0.0-3.129-1.129","56a1l1ad0eb0m45",463,"181.csv","","null","resources/maskTrios/BT4B.jpg","null","",NA,NA,NA,NA,""
"image-keyboard-response",400,330459,"0.0-3.129-2.129","56a1l1ad0eb0m45",463,"181.csv","","null","resources/images/fishbone.png","null","",NA,NA,NA,NA,""
"image-keyboard-response",401,330529,"0.0-3.130-0.130","56a1l1ad0eb0m45",463,"181.csv","","68","resources/trios/L2T2A1.jpg","38","restless",0.6,0.6,0.5,0.546869511741351,"true"
"image-keyboard-response",402,330940,"0.0-3.130-1.130","56a1l1ad0eb0m45",463,"181.csv","","null","resources/maskTrios/BT2B.jpg","null","",NA,NA,NA,NA,""
"image-keyboard-response",403,332141,"0.0-3.130-2.130","56a1l1ad0eb0m45",463,"181.csv","","null","resources/images/coin2.png","null","",NA,NA,NA,NA,""
"image-keyboard-response",404,332385,"0.0-3.131-0.131","56a1l1ad0eb0m45",463,"181.csv","","242.20000000298023","resources/trios/L1T4A2.jpg","38","restless",0.6,0.6,0.5,0.367834988742462,"true"
"image-keyboard-response",405,332795,"0.0-3.131-1.131","56a1l1ad0eb0m45",463,"181.csv","","null","resources/maskTrios/BT4B.jpg","null","",NA,NA,NA,NA,""
"image-keyboard-response",406,334003,"0.0-3.131-2.131","56a1l1ad0eb0m45",463,"181.csv","","null","resources/images/coin2.png","null","",NA,NA,NA,NA,""
"image-keyboard-response",407,334311,"0.0-3.132-0.132","56a1l1ad0eb0m45",463,"181.csv","","307.20000000298023","resources/trios/L2T4A1.jpg","38","restless",0.6,0.6,0.5,0.0234180298695994,"true"
"image-keyboard-response",408,334725,"0.0-3.132-1.132","56a1l1ad0eb0m45",463,"181.csv","","null","resources/maskTrios/BT4B.jpg","null","",NA,NA,NA,NA,""
"image-keyboard-response",409,335940,"0.0-3.132-2.132","56a1l1ad0eb0m45",463,"181.csv","","null","resources/images/coin2.png","null","",NA,NA,NA,NA,""
"image-keyboard-response",410,336240,"0.0-3.133-0.133","56a1l1ad0eb0m45",463,"181.csv","","297.69999998807907","resources/trios/L1T2A2.jpg","38","restless",0.6,0.6,0.5,0.454632337275622,"true"
"image-keyboard-response",411,336655,"0.0-3.133-1.133","56a1l1ad0eb0m45",463,"181.csv","","null","resources/maskTrios/BT2B.jpg","null","",NA,NA,NA,NA,""
"image-keyboard-response",412,337870,"0.0-3.133-2.133","56a1l1ad0eb0m45",463,"181.csv","","null","resources/images/coin2.png","null","",NA,NA,NA,NA,""
"image-keyboard-response",413,338172,"0.0-3.134-0.134","56a1l1ad0eb0m45",463,"181.csv","","300.79999999701977","resources/trios/L2T4A2.jpg","38","restless",0.6,0.6,0.5,0.548426882449596,"true"
"image-keyboard-response",414,338584,"0.0-3.134-1.134","56a1l1ad0eb0m45",463,"181.csv","","null","resources/maskTrios/BT4B.jpg","null","",NA,NA,NA,NA,""
"image-keyboard-response",415,339786,"0.0-3.134-2.134","56a1l1ad0eb0m45",463,"181.csv","","null","resources/images/coin2.png","null","",NA,NA,NA,NA,""
"image-keyboard-response",416,340041,"0.0-3.135-0.135","56a1l1ad0eb0m45",463,"181.csv","","254","resources/trios/L2T4A1.jpg","38","restless",0.6,0.6,0.4,0.932171651443312,"false"
"image-keyboard-response",417,340457,"0.0-3.135-1.135","56a1l1ad0eb0m45",463,"181.csv","","null","resources/maskTrios/BT4B.jpg","null","",NA,NA,NA,NA,""
"image-keyboard-response",418,341672,"0.0-3.135-2.135","56a1l1ad0eb0m45",463,"181.csv","","null","resources/images/fishbone.png","null","",NA,NA,NA,NA,""
"image-keyboard-response",419,341900,"0.0-3.136-0.136","56a1l1ad0eb0m45",463,"181.csv","","227.09999999403954","resources/trios/L1T4A2.jpg","38","restless",0.6,0.6,0.4,0.75370782364941,"false"
"image-keyboard-response",420,342310,"0.0-3.136-1.136","56a1l1ad0eb0m45",463,"181.csv","","null","resources/maskTrios/BT4B.jpg","null","",NA,NA,NA,NA,""
"image-keyboard-response",421,343525,"0.0-3.136-2.136","56a1l1ad0eb0m45",463,"181.csv","","null","resources/images/fishbone.png","null","",NA,NA,NA,NA,""
"image-keyboard-response",422,343763,"0.0-3.137-0.137","56a1l1ad0eb0m45",463,"181.csv","","237.20000000298023","resources/trios/L1T2A1.jpg","38","restless",0.6,0.6,0.4,0.302506892764105,"true"
"image-keyboard-response",423,344177,"0.0-3.137-1.137","56a1l1ad0eb0m45",463,"181.csv","","null","resources/maskTrios/BT2B.jpg","null","",NA,NA,NA,NA,""
"image-keyboard-response",424,345392,"0.0-3.137-2.137","56a1l1ad0eb0m45",463,"181.csv","","null","resources/images/coin2.png","null","",NA,NA,NA,NA,""
"image-keyboard-response",425,345637,"0.0-3.138-0.138","56a1l1ad0eb0m45",463,"181.csv","","243","resources/trios/L1T4A2.jpg","38","restless",0.6,0.6,0.4,0.106978536236484,"true"
"image-keyboard-response",426,346047,"0.0-3.138-1.138","56a1l1ad0eb0m45",463,"181.csv","","null","resources/maskTrios/BT4B.jpg","null","",NA,NA,NA,NA,""
"image-keyboard-response",427,347264,"0.0-3.138-2.138","56a1l1ad0eb0m45",463,"181.csv","","null","resources/images/coin2.png","null","",NA,NA,NA,NA,""
"image-keyboard-response",428,347485,"0.0-3.139-0.139","56a1l1ad0eb0m45",463,"181.csv","","220.29999999701977","resources/trios/L1T2A1.jpg","38","restless",0.6,0.6,0.3,0.630796016708052,"false"
"image-keyboard-response",429,347903,"0.0-3.139-1.139","56a1l1ad0eb0m45",463,"181.csv","","null","resources/maskTrios/BT2B.jpg","null","",NA,NA,NA,NA,""
"image-keyboard-response",430,349116,"0.0-3.139-2.139","56a1l1ad0eb0m45",463,"181.csv","","null","resources/images/fishbone.png","null","",NA,NA,NA,NA,""
"image-keyboard-response",431,349310,"0.0-3.140-0.140","56a1l1ad0eb0m45",463,"181.csv","","192.5","resources/trios/L2T4A2.jpg","38","restless",0.6,0.6,0.3,0.0572466123188482,"true"
"image-keyboard-response",432,349721,"0.0-3.140-1.140","56a1l1ad0eb0m45",463,"181.csv","","null","resources/maskTrios/BT4B.jpg","null","",NA,NA,NA,NA,""
"image-keyboard-response",433,350934,"0.0-3.140-2.140","56a1l1ad0eb0m45",463,"181.csv","","null","resources/images/coin2.png","null","",NA,NA,NA,NA,""
"image-keyboard-response",434,351124,"0.0-3.141-0.141","56a1l1ad0eb0m45",463,"181.csv","","189.20000000298023","resources/trios/L2T4A1.jpg","38","restless",0.6,0.6,0.3,0.896150722735239,"false"
"image-keyboard-response",435,351527,"0.0-3.141-1.141","56a1l1ad0eb0m45",463,"181.csv","","null","resources/maskTrios/BT4B.jpg","null","",NA,NA,NA,NA,""
"image-keyboard-response",436,352742,"0.0-3.141-2.141","56a1l1ad0eb0m45",463,"181.csv","","null","resources/images/fishbone.png","null","",NA,NA,NA,NA,""
"image-keyboard-response",437,353203,"0.0-3.142-0.142","56a1l1ad0eb0m45",463,"181.csv","","459.5","resources/trios/L1T4A1.jpg","38","restless",0.6,0.6,0.3,0.232624009330866,"true"
"image-keyboard-response",438,353616,"0.0-3.142-1.142","56a1l1ad0eb0m45",463,"181.csv","","null","resources/maskTrios/BT4B.jpg","null","",NA,NA,NA,NA,""
"image-keyboard-response",439,354829,"0.0-3.142-2.142","56a1l1ad0eb0m45",463,"181.csv","","null","resources/images/coin2.png","null","",NA,NA,NA,NA,""
"image-keyboard-response",440,355142,"0.0-3.143-0.143","56a1l1ad0eb0m45",463,"181.csv","","311.29999999701977","resources/trios/L1T2A1.jpg","38","restless",0.6,0.6,0.3,0.825266937486596,"false"
"image-keyboard-response",441,355559,"0.0-3.143-1.143","56a1l1ad0eb0m45",463,"181.csv","","null","resources/maskTrios/BT2B.jpg","null","",NA,NA,NA,NA,""
"image-keyboard-response",442,356770,"0.0-3.143-2.143","56a1l1ad0eb0m45",463,"181.csv","","null","resources/images/fishbone.png","null","",NA,NA,NA,NA,""
"image-keyboard-response",443,356917,"0.0-3.144-0.144","56a1l1ad0eb0m45",463,"181.csv","","145.29999999701977","resources/trios/L1T4A1.jpg","38","restless",0.6,0.6,0.3,0.262845148823014,"true"
"image-keyboard-response",444,357331,"0.0-3.144-1.144","56a1l1ad0eb0m45",463,"181.csv","","null","resources/maskTrios/BT4B.jpg","null","",NA,NA,NA,NA,""
"image-keyboard-response",445,358545,"0.0-3.144-2.144","56a1l1ad0eb0m45",463,"181.csv","","null","resources/images/coin2.png","null","",NA,NA,NA,NA,""
"image-keyboard-response",446,358826,"0.0-3.145-0.145","56a1l1ad0eb0m45",463,"181.csv","","279.3999999910593","resources/trios/L1T4A2.jpg","39","restless",0.6,0.6,0.3,0.601708115328849,"false"
"image-keyboard-response",447,359230,"0.0-3.145-1.145","56a1l1ad0eb0m45",463,"181.csv","","null","resources/maskTrios/BBA2.jpg","null","",NA,NA,NA,NA,""
"image-keyboard-response",448,360438,"0.0-3.145-2.145","56a1l1ad0eb0m45",463,"181.csv","","null","resources/images/fishbone.png","null","",NA,NA,NA,NA,""
"image-keyboard-response",449,360898,"0.0-3.146-0.146","56a1l1ad0eb0m45",463,"181.csv","","458.40000000596046","resources/trios/L1T4A2.jpg","38","restless",0.6,0.6,0.3,0.129611013956477,"true"
"image-keyboard-response",450,361300,"0.0-3.146-1.146","56a1l1ad0eb0m45",463,"181.csv","","null","resources/maskTrios/BT4B.jpg","null","",NA,NA,NA,NA,""
"image-keyboard-response",451,362513,"0.0-3.146-2.146","56a1l1ad0eb0m45",463,"181.csv","","null","resources/images/coin2.png","null","",NA,NA,NA,NA,""
"image-keyboard-response",452,362754,"0.0-3.147-0.147","56a1l1ad0eb0m45",463,"181.csv","","239.20000000298023","resources/trios/L2T4A2.jpg","37","restless",0.6,0.6,0.4,0.922010197076235,"false"
"image-keyboard-response",453,363165,"0.0-3.147-1.147","56a1l1ad0eb0m45",463,"181.csv","","null","resources/maskTrios/L2BB.jpg","null","",NA,NA,NA,NA,""
"image-keyboard-response",454,364383,"0.0-3.147-2.147","56a1l1ad0eb0m45",463,"181.csv","","null","resources/images/fishbone.png","null","",NA,NA,NA,NA,""
"image-keyboard-response",455,364581,"0.0-3.148-0.148","56a1l1ad0eb0m45",463,"181.csv","","197.19999998807907","resources/trios/L2T2A2.jpg","38","restless",0.6,0.6,0.5,0.0393106297666574,"true"
"image-keyboard-response",456,364991,"0.0-3.148-1.148","56a1l1ad0eb0m45",463,"181.csv","","null","resources/maskTrios/BT2B.jpg","null","",NA,NA,NA,NA,""
"image-keyboard-response",457,366199,"0.0-3.148-2.148","56a1l1ad0eb0m45",463,"181.csv","","null","resources/images/coin2.png","null","",NA,NA,NA,NA,""
"image-keyboard-response",458,366428,"0.0-3.149-0.149","56a1l1ad0eb0m45",463,"181.csv","","227.3999999910593","resources/trios/L2T4A2.jpg","38","restless",0.6,0.6,0.5,0.542186056253593,"true"
"image-keyboard-response",459,366837,"0.0-3.149-1.149","56a1l1ad0eb0m45",463,"181.csv","","null","resources/maskTrios/BT4B.jpg","null","",NA,NA,NA,NA,""
"image-keyboard-response",460,368038,"0.0-3.149-2.149","56a1l1ad0eb0m45",463,"181.csv","","null","resources/images/coin2.png","null","",NA,NA,NA,NA,""
"image-keyboard-response",461,368301,"0.0-3.150-0.150","56a1l1ad0eb0m45",463,"181.csv","","261.5","resources/trios/L2T4A1.jpg","38","restless",0.6,0.6,0.5,0.122653898967723,"true"
"image-keyboard-response",462,368707,"0.0-3.150-1.150","56a1l1ad0eb0m45",463,"181.csv","","null","resources/maskTrios/BT4B.jpg","null","",NA,NA,NA,NA,""
"image-keyboard-response",463,369922,"0.0-3.150-2.150","56a1l1ad0eb0m45",463,"181.csv","","null","resources/images/coin2.png","null","",NA,NA,NA,NA,""
"image-keyboard-response",464,370144,"0.0-3.151-0.151","56a1l1ad0eb0m45",463,"181.csv","","219.6000000089407","resources/trios/L2T2A2.jpg","38","restless",0.6,0.6,0.5,0.557864788922142,"true"
"image-keyboard-response",465,370557,"0.0-3.151-1.151","56a1l1ad0eb0m45",463,"181.csv","","null","resources/maskTrios/BT2B.jpg","null","",NA,NA,NA,NA,""
"image-keyboard-response",466,371772,"0.0-3.151-2.151","56a1l1ad0eb0m45",463,"181.csv","","null","resources/images/coin2.png","null","",NA,NA,NA,NA,""
"image-keyboard-response",467,372014,"0.0-3.152-0.152","56a1l1ad0eb0m45",463,"181.csv","","240.1000000089407","resources/trios/L1T4A1.jpg","38","restless",0.6,0.6,0.5,0.372968513286821,"true"
"image-keyboard-response",468,372424,"0.0-3.152-1.152","56a1l1ad0eb0m45",463,"181.csv","","null","resources/maskTrios/BT4B.jpg","null","",NA,NA,NA,NA,""
"image-keyboard-response",469,373639,"0.0-3.152-2.152","56a1l1ad0eb0m45",463,"181.csv","","null","resources/images/coin2.png","null","",NA,NA,NA,NA,""
"image-keyboard-response",470,373906,"0.0-3.153-0.153","56a1l1ad0eb0m45",463,"181.csv","","266.1000000089407","resources/trios/L1T2A2.jpg","38","restless",0.6,0.6,0.5,0.670272217334812,"false"
"image-keyboard-response",471,374323,"0.0-3.153-1.153","56a1l1ad0eb0m45",463,"181.csv","","null","resources/maskTrios/BT2B.jpg","null","",NA,NA,NA,NA,""
"image-keyboard-response",472,375539,"0.0-3.153-2.153","56a1l1ad0eb0m45",463,"181.csv","","null","resources/images/fishbone.png","null","",NA,NA,NA,NA,""
"image-keyboard-response",473,375732,"0.0-3.154-0.154","56a1l1ad0eb0m45",463,"181.csv","","191.20000000298023","resources/trios/L2T2A1.jpg","38","restless",0.6,0.6,0.5,0.314612668426614,"true"
"image-keyboard-response",474,376148,"0.0-3.154-1.154","56a1l1ad0eb0m45",463,"181.csv","","null","resources/maskTrios/BT2B.jpg","null","",NA,NA,NA,NA,""
"image-keyboard-response",475,377362,"0.0-3.154-2.154","56a1l1ad0eb0m45",463,"181.csv","","null","resources/images/coin2.png","null","",NA,NA,NA,NA,""
"image-keyboard-response",476,377820,"0.0-3.155-0.155","56a1l1ad0eb0m45",463,"181.csv","","456.59999999403954","resources/trios/L1T2A2.jpg","38","restless",0.6,0.6,0.5,0.333736434095148,"true"
"image-keyboard-response",477,378236,"0.0-3.155-1.155","56a1l1ad0eb0m45",463,"181.csv","","null","resources/maskTrios/BT2B.jpg","null","",NA,NA,NA,NA,""
"image-keyboard-response",478,379446,"0.0-3.155-2.155","56a1l1ad0eb0m45",463,"181.csv","","null","resources/images/coin2.png","null","",NA,NA,NA,NA,""
"image-keyboard-response",479,379707,"0.0-3.156-0.156","56a1l1ad0eb0m45",463,"181.csv","","259.20000000298023","resources/trios/L2T4A2.jpg","38","restless",0.6,0.6,0.5,0.141130643556741,"true"
"image-keyboard-response",480,380117,"0.0-3.156-1.156","56a1l1ad0eb0m45",463,"181.csv","","null","resources/maskTrios/BT4B.jpg","null","",NA,NA,NA,NA,""
"image-keyboard-response",481,381331,"0.0-3.156-2.156","56a1l1ad0eb0m45",463,"181.csv","","null","resources/images/coin2.png","null","",NA,NA,NA,NA,""
"image-keyboard-response",482,381661,"0.0-3.157-0.157","56a1l1ad0eb0m45",463,"181.csv","","328.80000001192093","resources/trios/L1T2A1.jpg","38","restless",0.6,0.6,0.5,0.971755855444995,"false"
"image-keyboard-response",483,382076,"0.0-3.157-1.157","56a1l1ad0eb0m45",463,"181.csv","","null","resources/maskTrios/BT2B.jpg","null","",NA,NA,NA,NA,""
"image-keyboard-response",484,383291,"0.0-3.157-2.157","56a1l1ad0eb0m45",463,"181.csv","","null","resources/images/fishbone.png","null","",NA,NA,NA,NA,""
"image-keyboard-response",485,384199,"0.0-3.158-0.158","56a1l1ad0eb0m45",463,"181.csv","","907","resources/trios/L1T2A1.jpg","38","restless",0.6,0.6,0.5,0.283946824021639,"true"
"image-keyboard-response",486,384612,"0.0-3.158-1.158","56a1l1ad0eb0m45",463,"181.csv","","null","resources/maskTrios/BT2B.jpg","null","",NA,NA,NA,NA,""
"image-keyboard-response",487,385825,"0.0-3.158-2.158","56a1l1ad0eb0m45",463,"181.csv","","null","resources/images/coin2.png","null","",NA,NA,NA,NA,""
"image-keyboard-response",488,386099,"0.0-3.159-0.159","56a1l1ad0eb0m45",463,"181.csv","","272.40000000596046","resources/trios/L1T4A2.jpg","37","restless",0.7,0.6,0.6,0.836224898675938,"false"
"image-keyboard-response",489,386512,"0.0-3.159-1.159","56a1l1ad0eb0m45",463,"181.csv","","null","resources/maskTrios/L1BB.jpg","null","",NA,NA,NA,NA,""
"image-keyboard-response",490,387728,"0.0-3.159-2.159","56a1l1ad0eb0m45",463,"181.csv","","null","resources/images/fishbone.png","null","",NA,NA,NA,NA,""
"image-keyboard-response",491,388143,"0.0-3.160-0.160","56a1l1ad0eb0m45",463,"181.csv","","413.3999999910593","resources/trios/L2T4A1.jpg","38","restless",0.7,0.6,0.6,0.668610525062529,"false"
"image-keyboard-response",492,388550,"0.0-3.160-1.160","56a1l1ad0eb0m45",463,"181.csv","","null","resources/maskTrios/BT4B.jpg","null","",NA,NA,NA,NA,""
"image-keyboard-response",493,389767,"0.0-3.160-2.160","56a1l1ad0eb0m45",463,"181.csv","","null","resources/images/fishbone.png","null","",NA,NA,NA,NA,""
"image-keyboard-response",494,390076,"0.0-3.161-0.161","56a1l1ad0eb0m45",463,"181.csv","","308.19999998807907","resources/trios/L2T2A1.jpg","38","restless",0.7,0.6,0.6,0.327030218526239,"true"
"image-keyboard-response",495,390484,"0.0-3.161-1.161","56a1l1ad0eb0m45",463,"181.csv","","null","resources/maskTrios/BT2B.jpg","null","",NA,NA,NA,NA,""
"image-keyboard-response",496,391687,"0.0-3.161-2.161","56a1l1ad0eb0m45",463,"181.csv","","null","resources/images/coin2.png","null","",NA,NA,NA,NA,""
"image-keyboard-response",497,391934,"0.0-3.162-0.162","56a1l1ad0eb0m45",463,"181.csv","","246.29999999701977","resources/trios/L2T2A1.jpg","38","restless",0.7,0.6,0.6,0.654887361882126,"false"
"image-keyboard-response",498,392340,"0.0-3.162-1.162","56a1l1ad0eb0m45",463,"181.csv","","null","resources/maskTrios/BT2B.jpg","null","",NA,NA,NA,NA,""
"image-keyboard-response",499,393554,"0.0-3.162-2.162","56a1l1ad0eb0m45",463,"181.csv","","null","resources/images/fishbone.png","null","",NA,NA,NA,NA,""
"image-keyboard-response",500,393733,"0.0-3.163-0.163","56a1l1ad0eb0m45",463,"181.csv","","178","resources/trios/L2T4A1.jpg","38","restless",0.7,0.6,0.6,0.940578306615754,"false"
"image-keyboard-response",501,394145,"0.0-3.163-1.163","56a1l1ad0eb0m45",463,"181.csv","","null","resources/maskTrios/BT4B.jpg","null","",NA,NA,NA,NA,""
"image-keyboard-response",502,395361,"0.0-3.163-2.163","56a1l1ad0eb0m45",463,"181.csv","","null","resources/images/fishbone.png","null","",NA,NA,NA,NA,""
"image-keyboard-response",503,395600,"0.0-3.164-0.164","56a1l1ad0eb0m45",463,"181.csv","","237.3999999910593","resources/trios/L1T4A1.jpg","38","restless",0.7,0.6,0.6,0.645993608832544,"false"
"image-keyboard-response",504,396012,"0.0-3.164-1.164","56a1l1ad0eb0m45",463,"181.csv","","null","resources/maskTrios/BT4B.jpg","null","",NA,NA,NA,NA,""
"image-keyboard-response",505,397226,"0.0-3.164-2.164","56a1l1ad0eb0m45",463,"181.csv","","null","resources/images/fishbone.png","null","",NA,NA,NA,NA,""
"image-keyboard-response",506,397925,"0.0-3.165-0.165","56a1l1ad0eb0m45",463,"181.csv","","697.5","resources/trios/L1T4A1.jpg","38","restless",0.7,0.6,0.6,0.807591915288273,"false"
"image-keyboard-response",507,398329,"0.0-3.165-1.165","56a1l1ad0eb0m45",463,"181.csv","","null","resources/maskTrios/BT4B.jpg","null","",NA,NA,NA,NA,""
"image-keyboard-response",508,399543,"0.0-3.165-2.165","56a1l1ad0eb0m45",463,"181.csv","","null","resources/images/fishbone.png","null","",NA,NA,NA,NA,""
"image-keyboard-response",509,399727,"0.0-3.166-0.166","56a1l1ad0eb0m45",463,"181.csv","","181.29999999701977","resources/trios/L1T2A2.jpg","37","restless",0.7,0.6,0.6,0.524478711525096,"true"
"image-keyboard-response",510,400134,"0.0-3.166-1.166","56a1l1ad0eb0m45",463,"181.csv","","null","resources/maskTrios/L1BB.jpg","null","",NA,NA,NA,NA,""
"image-keyboard-response",511,401348,"0.0-3.166-2.166","56a1l1ad0eb0m45",463,"181.csv","","null","resources/images/coin2.png","null","",NA,NA,NA,NA,""
"image-keyboard-response",512,401537,"0.0-3.167-0.167","56a1l1ad0eb0m45",463,"181.csv","","187.3999999910593","resources/trios/L1T2A2.jpg","37","restless",0.6,0.6,0.6,0.67414834638635,"false"
"image-keyboard-response",513,401954,"0.0-3.167-1.167","56a1l1ad0eb0m45",463,"181.csv","","null","resources/maskTrios/L1BB.jpg","null","",NA,NA,NA,NA,""
"image-keyboard-response",514,403165,"0.0-3.167-2.167","56a1l1ad0eb0m45",463,"181.csv","","null","resources/images/fishbone.png","null","",NA,NA,NA,NA,""
"image-keyboard-response",515,403425,"0.0-3.168-0.168","56a1l1ad0eb0m45",463,"181.csv","","258.5","resources/trios/L1T4A1.jpg","37","restless",0.6,0.6,0.6,0.150448909918123,"true"
"image-keyboard-response",516,403832,"0.0-3.168-1.168","56a1l1ad0eb0m45",463,"181.csv","","null","resources/maskTrios/L1BB.jpg","null","",NA,NA,NA,NA,""
"image-keyboard-response",517,405047,"0.0-3.168-2.168","56a1l1ad0eb0m45",463,"181.csv","","null","resources/images/coin2.png","null","",NA,NA,NA,NA,""
"image-keyboard-response",518,405270,"0.0-3.169-0.169","56a1l1ad0eb0m45",463,"181.csv","","221.5","resources/trios/L2T4A1.jpg","37","restless",0.6,0.6,0.6,0.228774069855199,"true"
"image-keyboard-response",519,405686,"0.0-3.169-1.169","56a1l1ad0eb0m45",463,"181.csv","","null","resources/maskTrios/L2BB.jpg","null","",NA,NA,NA,NA,""
"image-keyboard-response",520,406901,"0.0-3.169-2.169","56a1l1ad0eb0m45",463,"181.csv","","null","resources/images/coin2.png","null","",NA,NA,NA,NA,""
"image-keyboard-response",521,407128,"0.0-3.170-0.170","56a1l1ad0eb0m45",463,"181.csv","","226.3999999910593","resources/trios/L1T2A1.jpg","37","restless",0.6,0.6,0.6,0.801062558761187,"false"
"image-keyboard-response",522,407537,"0.0-3.170-1.170","56a1l1ad0eb0m45",463,"181.csv","","null","resources/maskTrios/L1BB.jpg","null","",NA,NA,NA,NA,""
"image-keyboard-response",523,408751,"0.0-3.170-2.170","56a1l1ad0eb0m45",463,"181.csv","","null","resources/images/fishbone.png","null","",NA,NA,NA,NA,""
"image-keyboard-response",524,408952,"0.0-3.171-0.171","56a1l1ad0eb0m45",463,"181.csv","","199.5","resources/trios/L1T4A2.jpg","37","restless",0.6,0.6,0.6,0.643385195072711,"false"
"image-keyboard-response",525,409360,"0.0-3.171-1.171","56a1l1ad0eb0m45",463,"181.csv","","null","resources/maskTrios/L1BB.jpg","null","",NA,NA,NA,NA,""
"image-keyboard-response",526,410574,"0.0-3.171-2.171","56a1l1ad0eb0m45",463,"181.csv","","null","resources/images/fishbone.png","null","",NA,NA,NA,NA,""
"image-keyboard-response",527,410802,"0.0-3.172-0.172","56a1l1ad0eb0m45",463,"181.csv","","226.20000000298023","resources/trios/L1T4A1.jpg","37","restless",0.6,0.6,0.6,0.168872232426948,"true"
"image-keyboard-response",528,411214,"0.0-3.172-1.172","56a1l1ad0eb0m45",463,"181.csv","","null","resources/maskTrios/L1BB.jpg","null","",NA,NA,NA,NA,""
"image-keyboard-response",529,412429,"0.0-3.172-2.172","56a1l1ad0eb0m45",463,"181.csv","","null","resources/images/coin2.png","null","",NA,NA,NA,NA,""
"image-keyboard-response",530,412701,"0.0-3.173-0.173","56a1l1ad0eb0m45",463,"181.csv","","270.09999999403954","resources/trios/L2T4A1.jpg","37","restless",0.6,0.6,0.6,0.590292735248594,"true"
"image-keyboard-response",531,413112,"0.0-3.173-1.173","56a1l1ad0eb0m45",463,"181.csv","","null","resources/maskTrios/L2BB.jpg","null","",NA,NA,NA,NA,""
"image-keyboard-response",532,414329,"0.0-3.173-2.173","56a1l1ad0eb0m45",463,"181.csv","","null","resources/images/coin2.png","null","",NA,NA,NA,NA,""
"image-keyboard-response",533,414571,"0.0-3.174-0.174","56a1l1ad0eb0m45",463,"181.csv","","240.5","resources/trios/L1T2A1.jpg","37","restless",0.6,0.6,0.6,0.579516665011359,"true"
"image-keyboard-response",534,414983,"0.0-3.174-1.174","56a1l1ad0eb0m45",463,"181.csv","","null","resources/maskTrios/L1BB.jpg","null","",NA,NA,NA,NA,""
"image-keyboard-response",535,416195,"0.0-3.174-2.174","56a1l1ad0eb0m45",463,"181.csv","","null","resources/images/coin2.png","null","",NA,NA,NA,NA,""
"image-keyboard-response",536,416321,"0.0-3.175-0.175","56a1l1ad0eb0m45",463,"181.csv","","124.20000000298023","resources/trios/L2T4A2.jpg","37","restless",0.6,0.5,0.6,0.380632309624986,"true"
"image-keyboard-response",537,416723,"0.0-3.175-1.175","56a1l1ad0eb0m45",463,"181.csv","","null","resources/maskTrios/L2BB.jpg","null","",NA,NA,NA,NA,""
"image-keyboard-response",538,417938,"0.0-3.175-2.175","56a1l1ad0eb0m45",463,"181.csv","","null","resources/images/coin2.png","null","",NA,NA,NA,NA,""
"image-keyboard-response",539,418336,"0.0-3.176-0.176","56a1l1ad0eb0m45",463,"181.csv","","396.59999999403954","resources/trios/L2T4A2.jpg","37","restless",0.6,0.5,0.6,0.780681418691641,"false"
"image-keyboard-response",540,418748,"0.0-3.176-1.176","56a1l1ad0eb0m45",463,"181.csv","","null","resources/maskTrios/L2BB.jpg","null","",NA,NA,NA,NA,""
"image-keyboard-response",541,419965,"0.0-3.176-2.176","56a1l1ad0eb0m45",463,"181.csv","","null","resources/images/fishbone.png","null","",NA,NA,NA,NA,""
"image-keyboard-response",542,420193,"0.0-3.177-0.177","56a1l1ad0eb0m45",463,"181.csv","","226.40000000596046","resources/trios/L2T4A1.jpg","37","restless",0.6,0.5,0.6,0.0217128064318632,"true"
"image-keyboard-response",543,420601,"0.0-3.177-1.177","56a1l1ad0eb0m45",463,"181.csv","","null","resources/maskTrios/L2BB.jpg","null","",NA,NA,NA,NA,""
"image-keyboard-response",544,421813,"0.0-3.177-2.177","56a1l1ad0eb0m45",463,"181.csv","","null","resources/images/coin2.png","null","",NA,NA,NA,NA,""
"image-keyboard-response",545,422136,"0.0-3.178-0.178","56a1l1ad0eb0m45",463,"181.csv","","320.80000001192093","resources/trios/L1T4A2.jpg","37","restless",0.6,0.5,0.6,0.421603351289888,"true"
"image-keyboard-response",546,422546,"0.0-3.178-1.178","56a1l1ad0eb0m45",463,"181.csv","","null","resources/maskTrios/L1BB.jpg","null","",NA,NA,NA,NA,""
"image-keyboard-response",547,423759,"0.0-3.178-2.178","56a1l1ad0eb0m45",463,"181.csv","","null","resources/images/coin2.png","null","",NA,NA,NA,NA,""
"image-keyboard-response",548,424127,"0.0-3.179-0.179","56a1l1ad0eb0m45",463,"181.csv","","366","resources/trios/L2T2A2.jpg","37","restless",0.6,0.5,0.6,0.699809106457127,"false"
"image-keyboard-response",549,424540,"0.0-3.179-1.179","56a1l1ad0eb0m45",463,"181.csv","","null","resources/maskTrios/L2BB.jpg","null","",NA,NA,NA,NA,""
"image-keyboard-response",550,425756,"0.0-3.179-2.179","56a1l1ad0eb0m45",463,"181.csv","","null","resources/images/fishbone.png","null","",NA,NA,NA,NA,""
"image-keyboard-response",551,426389,"0.0-3.180-0.180","56a1l1ad0eb0m45",463,"181.csv","","631.5","resources/trios/L2T2A2.jpg","37","restless",0.6,0.5,0.6,0.144143991085723,"true"
"image-keyboard-response",552,426798,"0.0-3.180-1.180","56a1l1ad0eb0m45",463,"181.csv","","null","resources/maskTrios/L2BB.jpg","null","",NA,NA,NA,NA,""
"image-keyboard-response",553,428014,"0.0-3.180-2.180","56a1l1ad0eb0m45",463,"181.csv","","null","resources/images/coin2.png","null","",NA,NA,NA,NA,""
"image-keyboard-response",554,428292,"0.0-3.181-0.181","56a1l1ad0eb0m45",463,"181.csv","","276.3999999910593","resources/trios/L1T4A2.jpg","37","restless",0.6,0.5,0.6,0.766602603316542,"false"
"image-keyboard-response",555,428700,"0.0-3.181-1.181","56a1l1ad0eb0m45",463,"181.csv","","null","resources/maskTrios/L1BB.jpg","null","",NA,NA,NA,NA,""
"image-keyboard-response",556,429915,"0.0-3.181-2.181","56a1l1ad0eb0m45",463,"181.csv","","null","resources/images/fishbone.png","null","",NA,NA,NA,NA,""
"image-keyboard-response",557,430086,"0.0-3.182-0.182","56a1l1ad0eb0m45",463,"181.csv","","169.90000000596046","resources/trios/L1T2A1.jpg","37","restless",0.5,0.4,0.6,0.487042495881159,"true"
"image-keyboard-response",558,430491,"0.0-3.182-1.182","56a1l1ad0eb0m45",463,"181.csv","","null","resources/maskTrios/L1BB.jpg","null","",NA,NA,NA,NA,""
"image-keyboard-response",559,431705,"0.0-3.182-2.182","56a1l1ad0eb0m45",463,"181.csv","","null","resources/images/coin2.png","null","",NA,NA,NA,NA,""
"image-keyboard-response",560,432032,"0.0-3.183-0.183","56a1l1ad0eb0m45",463,"181.csv","","325.1000000089407","resources/trios/L1T4A1.jpg","37","restless",0.6,0.4,0.6,0.410799200945508,"true"
"image-keyboard-response",561,432437,"0.0-3.183-1.183","56a1l1ad0eb0m45",463,"181.csv","","null","resources/maskTrios/L1BB.jpg","null","",NA,NA,NA,NA,""
"image-keyboard-response",562,433652,"0.0-3.183-2.183","56a1l1ad0eb0m45",463,"181.csv","","null","resources/images/coin2.png","null","",NA,NA,NA,NA,""
"image-keyboard-response",563,433870,"0.0-3.184-0.184","56a1l1ad0eb0m45",463,"181.csv","","216.5","resources/trios/L1T4A2.jpg","37","restless",0.6,0.4,0.6,0.28154843064945,"true"
"image-keyboard-response",564,434276,"0.0-3.184-1.184","56a1l1ad0eb0m45",463,"181.csv","","null","resources/maskTrios/L1BB.jpg","null","",NA,NA,NA,NA,""
"image-keyboard-response",565,435487,"0.0-3.184-2.184","56a1l1ad0eb0m45",463,"181.csv","","null","resources/images/coin2.png","null","",NA,NA,NA,NA,""
"image-keyboard-response",566,435779,"0.0-3.185-0.185","56a1l1ad0eb0m45",463,"181.csv","","290.5","resources/trios/L1T4A1.jpg","37","restless",0.6,0.4,0.5,0.203729987148962,"true"
"image-keyboard-response",567,436186,"0.0-3.185-1.185","56a1l1ad0eb0m45",463,"181.csv","","null","resources/maskTrios/L1BB.jpg","null","",NA,NA,NA,NA,""
"image-keyboard-response",568,437401,"0.0-3.185-2.185","56a1l1ad0eb0m45",463,"181.csv","","null","resources/images/coin2.png","null","",NA,NA,NA,NA,""
"image-keyboard-response",569,437731,"0.0-3.186-0.186","56a1l1ad0eb0m45",463,"181.csv","","328.20000000298023","resources/trios/L2T2A1.jpg","37","restless",0.7,0.3,0.5,0.526988279675237,"true"
"image-keyboard-response",570,438133,"0.0-3.186-1.186","56a1l1ad0eb0m45",463,"181.csv","","null","resources/maskTrios/L2BB.jpg","null","",NA,NA,NA,NA,""
"image-keyboard-response",571,439337,"0.0-3.186-2.186","56a1l1ad0eb0m45",463,"181.csv","","null","resources/images/coin2.png","null","",NA,NA,NA,NA,""
"image-keyboard-response",572,439624,"0.0-3.187-0.187","56a1l1ad0eb0m45",463,"181.csv","","285.59999999403954","resources/trios/L1T2A2.jpg","37","restless",0.7,0.3,0.5,0.362615082120144,"true"
"image-keyboard-response",573,440038,"0.0-3.187-1.187","56a1l1ad0eb0m45",463,"181.csv","","null","resources/maskTrios/L1BB.jpg","null","",NA,NA,NA,NA,""
"image-keyboard-response",574,441254,"0.0-3.187-2.187","56a1l1ad0eb0m45",463,"181.csv","","null","resources/images/coin2.png","null","",NA,NA,NA,NA,""
"image-keyboard-response",575,441259,"0.0-3.188-0.188","56a1l1ad0eb0m45",463,"181.csv","","4.200000002980232","resources/trios/L1T4A1.jpg","37","restless",0.7,0.3,0.5,0.737539355378743,"false"
"image-keyboard-response",576,441676,"0.0-3.188-1.188","56a1l1ad0eb0m45",463,"181.csv","","null","resources/maskTrios/L1BB.jpg","null","",NA,NA,NA,NA,""
"image-keyboard-response",577,442892,"0.0-3.188-2.188","56a1l1ad0eb0m45",463,"181.csv","","null","resources/images/fishbone.png","null","",NA,NA,NA,NA,""
"image-keyboard-response",578,442973,"0.0-3.189-0.189","56a1l1ad0eb0m45",463,"181.csv","","80.5","resources/trios/L2T2A2.jpg","37","restless",0.7,0.3,0.5,0.860662327714379,"false"
"image-keyboard-response",579,443388,"0.0-3.189-1.189","56a1l1ad0eb0m45",463,"181.csv","","null","resources/maskTrios/L2BB.jpg","null","",NA,NA,NA,NA,""
"image-keyboard-response",580,444604,"0.0-3.189-2.189","56a1l1ad0eb0m45",463,"181.csv","","null","resources/images/fishbone.png","null","",NA,NA,NA,NA,""
"image-keyboard-response",581,444741,"0.0-3.190-0.190","56a1l1ad0eb0m45",463,"181.csv","","134.79999999701977","resources/trios/L2T2A2.jpg","37","restless",0.7,0.3,0.5,0.575865482940745,"true"
"image-keyboard-response",582,445148,"0.0-3.190-1.190","56a1l1ad0eb0m45",463,"181.csv","","null","resources/maskTrios/L2BB.jpg","null","",NA,NA,NA,NA,""
"image-keyboard-response",583,446362,"0.0-3.190-2.190","56a1l1ad0eb0m45",463,"181.csv","","null","resources/images/coin2.png","null","",NA,NA,NA,NA,""
"image-keyboard-response",584,446518,"0.0-3.191-0.191","56a1l1ad0eb0m45",463,"181.csv","","154.29999999701977","resources/trios/L2T4A1.jpg","37","restless",0.7,0.3,0.5,0.223272955848633,"true"
"image-keyboard-response",585,446922,"0.0-3.191-1.191","56a1l1ad0eb0m45",463,"181.csv","","null","resources/maskTrios/L2BB.jpg","null","",NA,NA,NA,NA,""
"image-keyboard-response",586,448138,"0.0-3.191-2.191","56a1l1ad0eb0m45",463,"181.csv","","null","resources/images/coin2.png","null","",NA,NA,NA,NA,""
"image-keyboard-response",587,448190,"0.0-3.192-0.192","56a1l1ad0eb0m45",463,"181.csv","","50.599999994039536","resources/trios/L2T2A1.jpg","37","restless",0.7,0.3,0.4,0.269176096252985,"true"
"image-keyboard-response",588,448605,"0.0-3.192-1.192","56a1l1ad0eb0m45",463,"181.csv","","null","resources/maskTrios/L2BB.jpg","null","",NA,NA,NA,NA,""
"image-keyboard-response",589,449817,"0.0-3.192-2.192","56a1l1ad0eb0m45",463,"181.csv","","null","resources/images/coin2.png","null","",NA,NA,NA,NA,""
"image-keyboard-response",590,449857,"0.0-3.193-0.193","56a1l1ad0eb0m45",463,"181.csv","","37.70000000298023","resources/trios/L1T4A1.jpg","37","restless",0.7,0.3,0.4,0.911980724930775,"false"
"image-keyboard-response",591,450270,"0.0-3.193-1.193","56a1l1ad0eb0m45",463,"181.csv","","null","resources/maskTrios/L1BB.jpg","null","",NA,NA,NA,NA,""
"image-keyboard-response",592,451484,"0.0-3.193-2.193","56a1l1ad0eb0m45",463,"181.csv","","null","resources/images/fishbone.png","null","",NA,NA,NA,NA,""
"image-keyboard-response",593,451500,"0.0-3.194-0.194","56a1l1ad0eb0m45",463,"181.csv","","14.899999991059303","resources/trios/L2T4A1.jpg","37","restless",0.7,0.3,0.4,0.265589994997055,"true"
"image-keyboard-response",594,451902,"0.0-3.194-1.194","56a1l1ad0eb0m45",463,"181.csv","","null","resources/maskTrios/L2BB.jpg","null","",NA,NA,NA,NA,""
"image-keyboard-response",595,453118,"0.0-3.194-2.194","56a1l1ad0eb0m45",463,"181.csv","","null","resources/images/coin2.png","null","",NA,NA,NA,NA,""
"image-keyboard-response",596,453262,"0.0-3.195-0.195","56a1l1ad0eb0m45",463,"181.csv","","142.40000000596046","resources/trios/L1T2A1.jpg","37","restless",0.7,0.3,0.4,0.0533092612011272,"true"
"image-keyboard-response",597,453679,"0.0-3.195-1.195","56a1l1ad0eb0m45",463,"181.csv","","null","resources/maskTrios/L1BB.jpg","null","",NA,NA,NA,NA,""
"image-keyboard-response",598,454892,"0.0-3.195-2.195","56a1l1ad0eb0m45",463,"181.csv","","null","resources/images/coin2.png","null","",NA,NA,NA,NA,""
"image-keyboard-response",599,455080,"0.0-3.196-0.196","56a1l1ad0eb0m45",463,"181.csv","","186.3999999910593","resources/trios/L2T4A2.jpg","37","restless",0.7,0.3,0.4,0.981231831210884,"false"
"image-keyboard-response",600,455483,"0.0-3.196-1.196","56a1l1ad0eb0m45",463,"181.csv","","null","resources/maskTrios/L2BB.jpg","null","",NA,NA,NA,NA,""
"image-keyboard-response",601,456686,"0.0-3.196-2.196","56a1l1ad0eb0m45",463,"181.csv","","null","resources/images/fishbone.png","null","",NA,NA,NA,NA,""
"image-keyboard-response",602,456883,"0.0-3.197-0.197","56a1l1ad0eb0m45",463,"181.csv","","196","resources/trios/L1T2A1.jpg","37","restless",0.7,0.3,0.4,0.193125713831016,"true"
"image-keyboard-response",603,457288,"0.0-3.197-1.197","56a1l1ad0eb0m45",463,"181.csv","","null","resources/maskTrios/L1BB.jpg","null","",NA,NA,NA,NA,""
"image-keyboard-response",604,458499,"0.0-3.197-2.197","56a1l1ad0eb0m45",463,"181.csv","","null","resources/images/coin2.png","null","",NA,NA,NA,NA,""
"image-keyboard-response",605,458625,"0.0-3.198-0.198","56a1l1ad0eb0m45",463,"181.csv","","124.09999999403954","resources/trios/L2T4A1.jpg","37","restless",0.7,0.3,0.4,0.307388615231588,"true"
"image-keyboard-response",606,459029,"0.0-3.198-1.198","56a1l1ad0eb0m45",463,"181.csv","","null","resources/maskTrios/L2BB.jpg","null","",NA,NA,NA,NA,""
"image-keyboard-response",607,460246,"0.0-3.198-2.198","56a1l1ad0eb0m45",463,"181.csv","","null","resources/images/coin2.png","null","",NA,NA,NA,NA,""
