"trial_type","trial_index","time_elapsed","internal_node_id","subject","participantCode","walkNumber","success","rt","stimulus","key_press","test_part","leftProb","midProb","rightProb","generatedNum","correct"
"pavlovia",0,1173,"0.0-0.0","kmqtupbvom6cpy0",374,"69.csv","","","","","",NA,NA,NA,NA,""
"fullscreen",1,4443,"0.0-1.0","kmqtupbvom6cpy0",374,"69.csv","true","","","","",NA,NA,NA,NA,""
"html-keyboard-response",2,12248,"0.0-2.0-0.0","kmqtupbvom6cpy0",374,"69.csv","","7803","<p><font size='6'>Arrrgh!</p></font><p>Can you be the best pirate? Try to find lots of gold! But beware, some islands have more gold than others, and over time, the island with the most gold may change. Can YOU figure it out? </p><font size='6'>GOOD LUCK, CAPTAIN!!!</font><p>Press any key to begin</p>","32","",NA,NA,NA,NA,""
"image-keyboard-response",3,15251,"0.0-2.0-1.0","kmqtupbvom6cpy0",374,"69.csv","","null","resources/image_sets/111.png","null","",NA,NA,NA,NA,""
"image-keyboard-response",4,19984,"0.0-2.0-2.0","kmqtupbvom6cpy0",374,"69.csv","","4733","resources/image_sets/left_highlight.png","37","",NA,NA,NA,NA,""
"image-keyboard-response",5,22890,"0.0-2.0-3.0","kmqtupbvom6cpy0",374,"69.csv","","2904.9999999999964","resources/image_sets/mid_highlight.png","38","",NA,NA,NA,NA,""
"image-keyboard-response",6,25460,"0.0-2.0-4.0","kmqtupbvom6cpy0",374,"69.csv","","2569","resources/image_sets/right_highlight.png","39","",NA,NA,NA,NA,""
"image-keyboard-response",7,121735,"0.0-2.0-5.0","kmqtupbvom6cpy0",374,"69.csv","","96275","resources/image_sets/111.png","13","",NA,NA,NA,NA,""
"image-keyboard-response",8,124170,"0.0-2.0-6.0","kmqtupbvom6cpy0",374,"69.csv","","2431.9999999999854","resources/images/coin2.png","13","",NA,NA,NA,NA,""
"image-keyboard-response",9,126246,"0.0-2.0-7.0","kmqtupbvom6cpy0",374,"69.csv","","2074.9999999999854","resources/images/fishbone.png","13","",NA,NA,NA,NA,""
"html-keyboard-response",10,132816,"0.0-2.0-8.0","kmqtupbvom6cpy0",374,"69.csv","","6569","<p>Your first journey will be a long one, but you will get a well deserved break at the end</p><p>After the break you will have four more journeys, but each will be much shorter than the first, and you will have breaks in between each</p><p>Press Enter to begin</p>","13","",NA,NA,NA,NA,""
"image-keyboard-response",11,138094,"0.0-3.0-0.0","kmqtupbvom6cpy0",374,"69.csv","","5276.999999999971","resources/trios/L1T2A2.jpg","38","restless",0.7,0.9,0.3,0.715961806197619,"true"
"image-keyboard-response",12,138497,"0.0-3.0-1.0","kmqtupbvom6cpy0",374,"69.csv","","null","resources/maskTrios/BT2B.jpg","null","",NA,NA,NA,NA,""
"image-keyboard-response",13,139699,"0.0-3.0-2.0","kmqtupbvom6cpy0",374,"69.csv","","null","resources/images/coin2.png","null","",NA,NA,NA,NA,""
"image-keyboard-response",14,144410,"0.0-3.1-0.1","kmqtupbvom6cpy0",374,"69.csv","","4710","resources/trios/L2T2A1.jpg","38","restless",0.8,0.9,0.3,0.0834119434658872,"true"
"image-keyboard-response",15,144811,"0.0-3.1-1.1","kmqtupbvom6cpy0",374,"69.csv","","null","resources/maskTrios/BT2B.jpg","null","",NA,NA,NA,NA,""
"image-keyboard-response",16,146013,"0.0-3.1-2.1","kmqtupbvom6cpy0",374,"69.csv","","null","resources/images/coin2.png","null","",NA,NA,NA,NA,""
"image-keyboard-response",17,148995,"0.0-3.2-0.2","kmqtupbvom6cpy0",374,"69.csv","","2982","resources/trios/L1T1A1.jpg","37","restless",0.8,0.9,0.2,0.472737832207147,"true"
"image-keyboard-response",18,149397,"0.0-3.2-1.2","kmqtupbvom6cpy0",374,"69.csv","","null","resources/maskTrios/L1BB.jpg","null","",NA,NA,NA,NA,""
"image-keyboard-response",19,150599,"0.0-3.2-2.2","kmqtupbvom6cpy0",374,"69.csv","","null","resources/images/coin2.png","null","",NA,NA,NA,NA,""
"image-keyboard-response",20,152077,"0.0-3.3-0.3","kmqtupbvom6cpy0",374,"69.csv","","1478","resources/trios/L2T2A2.jpg","38","restless",0.8,0.9,0.1,0.940512079536971,"false"
"image-keyboard-response",21,152479,"0.0-3.3-1.3","kmqtupbvom6cpy0",374,"69.csv","","null","resources/maskTrios/BT2B.jpg","null","",NA,NA,NA,NA,""
"image-keyboard-response",22,153681,"0.0-3.3-2.3","kmqtupbvom6cpy0",374,"69.csv","","null","resources/images/fishbone.png","null","",NA,NA,NA,NA,""
"image-keyboard-response",23,155947,"0.0-3.4-0.4","kmqtupbvom6cpy0",374,"69.csv","","2265","resources/trios/L1T2A2.jpg","37","restless",0.8,0.8,0.2,0.527558924258588,"true"
"image-keyboard-response",24,156349,"0.0-3.4-1.4","kmqtupbvom6cpy0",374,"69.csv","","null","resources/maskTrios/L1BB.jpg","null","",NA,NA,NA,NA,""
"image-keyboard-response",25,157550,"0.0-3.4-2.4","kmqtupbvom6cpy0",374,"69.csv","","null","resources/images/coin2.png","null","",NA,NA,NA,NA,""
"image-keyboard-response",26,159886,"0.0-3.5-0.5","kmqtupbvom6cpy0",374,"69.csv","","2335","resources/trios/L1T1A2.jpg","37","restless",0.8,0.7,0.2,0.892980111131293,"false"
"image-keyboard-response",27,160287,"0.0-3.5-1.5","kmqtupbvom6cpy0",374,"69.csv","","null","resources/maskTrios/L1BB.jpg","null","",NA,NA,NA,NA,""
"image-keyboard-response",28,161489,"0.0-3.5-2.5","kmqtupbvom6cpy0",374,"69.csv","","null","resources/images/fishbone.png","null","",NA,NA,NA,NA,""
"image-keyboard-response",29,163446,"0.0-3.6-0.6","kmqtupbvom6cpy0",374,"69.csv","","1956","resources/trios/L2T1A2.jpg","37","restless",0.8,0.7,0.2,0.862483869624576,"false"
"image-keyboard-response",30,163848,"0.0-3.6-1.6","kmqtupbvom6cpy0",374,"69.csv","","null","resources/maskTrios/L2BB.jpg","null","",NA,NA,NA,NA,""
"image-keyboard-response",31,165049,"0.0-3.6-2.6","kmqtupbvom6cpy0",374,"69.csv","","null","resources/images/fishbone.png","null","",NA,NA,NA,NA,""
"image-keyboard-response",32,166207,"0.0-3.7-0.7","kmqtupbvom6cpy0",374,"69.csv","","1157.999999999971","resources/trios/L2T2A2.jpg","38","restless",0.8,0.7,0.2,0.704270767005744,"false"
"image-keyboard-response",33,166609,"0.0-3.7-1.7","kmqtupbvom6cpy0",374,"69.csv","","null","resources/maskTrios/BT2B.jpg","null","",NA,NA,NA,NA,""
"image-keyboard-response",34,167811,"0.0-3.7-2.7","kmqtupbvom6cpy0",374,"69.csv","","null","resources/images/fishbone.png","null","",NA,NA,NA,NA,""
"image-keyboard-response",35,169435,"0.0-3.8-0.8","kmqtupbvom6cpy0",374,"69.csv","","1623","resources/trios/L1T1A1.jpg","37","restless",0.8,0.7,0.2,0.224736678549189,"true"
"image-keyboard-response",36,169836,"0.0-3.8-1.8","kmqtupbvom6cpy0",374,"69.csv","","null","resources/maskTrios/L1BB.jpg","null","",NA,NA,NA,NA,""
"image-keyboard-response",37,171038,"0.0-3.8-2.8","kmqtupbvom6cpy0",374,"69.csv","","null","resources/images/coin2.png","null","",NA,NA,NA,NA,""
"image-keyboard-response",38,172364,"0.0-3.9-0.9","kmqtupbvom6cpy0",374,"69.csv","","1325","resources/trios/L1T2A2.jpg","38","restless",0.8,0.6,0.2,0.0224425356587514,"true"
"image-keyboard-response",39,172765,"0.0-3.9-1.9","kmqtupbvom6cpy0",374,"69.csv","","null","resources/maskTrios/BT2B.jpg","null","",NA,NA,NA,NA,""
"image-keyboard-response",40,173967,"0.0-3.9-2.9","kmqtupbvom6cpy0",374,"69.csv","","null","resources/images/coin2.png","null","",NA,NA,NA,NA,""
"image-keyboard-response",41,175153,"0.0-3.10-0.10","kmqtupbvom6cpy0",374,"69.csv","","1185","resources/trios/L1T1A2.jpg","37","restless",0.8,0.6,0.2,0.133103722134771,"true"
"image-keyboard-response",42,175554,"0.0-3.10-1.10","kmqtupbvom6cpy0",374,"69.csv","","null","resources/maskTrios/L1BB.jpg","null","",NA,NA,NA,NA,""
"image-keyboard-response",43,176756,"0.0-3.10-2.10","kmqtupbvom6cpy0",374,"69.csv","","null","resources/images/coin2.png","null","",NA,NA,NA,NA,""
"image-keyboard-response",44,178254,"0.0-3.11-0.11","kmqtupbvom6cpy0",374,"69.csv","","1498","resources/trios/L2T1A2.jpg","37","restless",0.8,0.6,0.2,0.30704738269742,"true"
"image-keyboard-response",45,178656,"0.0-3.11-1.11","kmqtupbvom6cpy0",374,"69.csv","","null","resources/maskTrios/L2BB.jpg","null","",NA,NA,NA,NA,""
"image-keyboard-response",46,179858,"0.0-3.11-2.11","kmqtupbvom6cpy0",374,"69.csv","","null","resources/images/coin2.png","null","",NA,NA,NA,NA,""
"image-keyboard-response",47,181298,"0.0-3.12-0.12","kmqtupbvom6cpy0",374,"69.csv","","1440","resources/trios/L1T1A2.jpg","37","restless",0.8,0.6,0.2,0.11101146057453,"true"
"image-keyboard-response",48,181700,"0.0-3.12-1.12","kmqtupbvom6cpy0",374,"69.csv","","null","resources/maskTrios/L1BB.jpg","null","",NA,NA,NA,NA,""
"image-keyboard-response",49,182902,"0.0-3.12-2.12","kmqtupbvom6cpy0",374,"69.csv","","null","resources/images/coin2.png","null","",NA,NA,NA,NA,""
"image-keyboard-response",50,184083,"0.0-3.13-0.13","kmqtupbvom6cpy0",374,"69.csv","","1180","resources/trios/L2T2A2.jpg","38","restless",0.8,0.6,0.1,0.539499590993189,"true"
"image-keyboard-response",51,184485,"0.0-3.13-1.13","kmqtupbvom6cpy0",374,"69.csv","","null","resources/maskTrios/BT2B.jpg","null","",NA,NA,NA,NA,""
"image-keyboard-response",52,185687,"0.0-3.13-2.13","kmqtupbvom6cpy0",374,"69.csv","","null","resources/images/coin2.png","null","",NA,NA,NA,NA,""
"image-keyboard-response",53,186511,"0.0-3.14-0.14","kmqtupbvom6cpy0",374,"69.csv","","824","resources/trios/L1T2A2.jpg","38","restless",0.8,0.6,0.1,0.724516237145395,"false"
"image-keyboard-response",54,186913,"0.0-3.14-1.14","kmqtupbvom6cpy0",374,"69.csv","","null","resources/maskTrios/BT2B.jpg","null","",NA,NA,NA,NA,""
"image-keyboard-response",55,188115,"0.0-3.14-2.14","kmqtupbvom6cpy0",374,"69.csv","","null","resources/images/fishbone.png","null","",NA,NA,NA,NA,""
"image-keyboard-response",56,189039,"0.0-3.15-0.15","kmqtupbvom6cpy0",374,"69.csv","","924","resources/trios/L2T2A2.jpg","38","restless",0.8,0.6,0.2,0.660081815911574,"false"
"image-keyboard-response",57,189441,"0.0-3.15-1.15","kmqtupbvom6cpy0",374,"69.csv","","null","resources/maskTrios/BT2B.jpg","null","",NA,NA,NA,NA,""
"image-keyboard-response",58,190643,"0.0-3.15-2.15","kmqtupbvom6cpy0",374,"69.csv","","null","resources/images/fishbone.png","null","",NA,NA,NA,NA,""
"image-keyboard-response",59,191442,"0.0-3.16-0.16","kmqtupbvom6cpy0",374,"69.csv","","799","resources/trios/L1T2A1.jpg","38","restless",0.8,0.6,0.2,0.722450114513538,"false"
"image-keyboard-response",60,191843,"0.0-3.16-1.16","kmqtupbvom6cpy0",374,"69.csv","","null","resources/maskTrios/BT2B.jpg","null","",NA,NA,NA,NA,""
"image-keyboard-response",61,193045,"0.0-3.16-2.16","kmqtupbvom6cpy0",374,"69.csv","","null","resources/images/fishbone.png","null","",NA,NA,NA,NA,""
"image-keyboard-response",62,194438,"0.0-3.17-0.17","kmqtupbvom6cpy0",374,"69.csv","","1392","resources/trios/L1T2A2.jpg","38","restless",0.7,0.6,0.2,0.394220631095669,"true"
"image-keyboard-response",63,194839,"0.0-3.17-1.17","kmqtupbvom6cpy0",374,"69.csv","","null","resources/maskTrios/BT2B.jpg","null","",NA,NA,NA,NA,""
"image-keyboard-response",64,196040,"0.0-3.17-2.17","kmqtupbvom6cpy0",374,"69.csv","","null","resources/images/coin2.png","null","",NA,NA,NA,NA,""
"image-keyboard-response",65,196957,"0.0-3.18-0.18","kmqtupbvom6cpy0",374,"69.csv","","916","resources/trios/L1T2A1.jpg","38","restless",0.7,0.5,0.2,0.900981522627917,"false"
"image-keyboard-response",66,197358,"0.0-3.18-1.18","kmqtupbvom6cpy0",374,"69.csv","","null","resources/maskTrios/BT2B.jpg","null","",NA,NA,NA,NA,""
"image-keyboard-response",67,198560,"0.0-3.18-2.18","kmqtupbvom6cpy0",374,"69.csv","","null","resources/images/fishbone.png","null","",NA,NA,NA,NA,""
"image-keyboard-response",68,199507,"0.0-3.19-0.19","kmqtupbvom6cpy0",374,"69.csv","","947","resources/trios/L1T2A1.jpg","38","restless",0.7,0.5,0.2,0.565209878128118,"false"
"image-keyboard-response",69,199909,"0.0-3.19-1.19","kmqtupbvom6cpy0",374,"69.csv","","null","resources/maskTrios/BT2B.jpg","null","",NA,NA,NA,NA,""
"image-keyboard-response",70,201111,"0.0-3.19-2.19","kmqtupbvom6cpy0",374,"69.csv","","null","resources/images/fishbone.png","null","",NA,NA,NA,NA,""
"image-keyboard-response",71,202291,"0.0-3.20-0.20","kmqtupbvom6cpy0",374,"69.csv","","1179","resources/trios/L2T2A1.jpg","38","restless",0.7,0.5,0.2,0.97248231605652,"false"
"image-keyboard-response",72,202693,"0.0-3.20-1.20","kmqtupbvom6cpy0",374,"69.csv","","null","resources/maskTrios/BT2B.jpg","null","",NA,NA,NA,NA,""
"image-keyboard-response",73,203894,"0.0-3.20-2.20","kmqtupbvom6cpy0",374,"69.csv","","null","resources/images/fishbone.png","null","",NA,NA,NA,NA,""
"image-keyboard-response",74,204600,"0.0-3.21-0.21","kmqtupbvom6cpy0",374,"69.csv","","705","resources/trios/L1T2A1.jpg","38","restless",0.7,0.5,0.2,0.227424958604372,"true"
"image-keyboard-response",75,205002,"0.0-3.21-1.21","kmqtupbvom6cpy0",374,"69.csv","","null","resources/maskTrios/BT2B.jpg","null","",NA,NA,NA,NA,""
"image-keyboard-response",76,206204,"0.0-3.21-2.21","kmqtupbvom6cpy0",374,"69.csv","","null","resources/images/coin2.png","null","",NA,NA,NA,NA,""
"image-keyboard-response",77,207282,"0.0-3.22-0.22","kmqtupbvom6cpy0",374,"69.csv","","1077","resources/trios/L2T2A1.jpg","37","restless",0.7,0.5,0.2,0.849844862233495,"false"
"image-keyboard-response",78,207684,"0.0-3.22-1.22","kmqtupbvom6cpy0",374,"69.csv","","null","resources/maskTrios/L2BB.jpg","null","",NA,NA,NA,NA,""
"image-keyboard-response",79,208886,"0.0-3.22-2.22","kmqtupbvom6cpy0",374,"69.csv","","null","resources/images/fishbone.png","null","",NA,NA,NA,NA,""
"image-keyboard-response",80,209369,"0.0-3.23-0.23","kmqtupbvom6cpy0",374,"69.csv","","482","resources/trios/L1T2A1.jpg","38","restless",0.7,0.5,0.1,0.770635681030595,"false"
"image-keyboard-response",81,209771,"0.0-3.23-1.23","kmqtupbvom6cpy0",374,"69.csv","","null","resources/maskTrios/BT2B.jpg","null","",NA,NA,NA,NA,""
"image-keyboard-response",82,210973,"0.0-3.23-2.23","kmqtupbvom6cpy0",374,"69.csv","","null","resources/images/fishbone.png","null","",NA,NA,NA,NA,""
"image-keyboard-response",83,211885,"0.0-3.24-0.24","kmqtupbvom6cpy0",374,"69.csv","","912","resources/trios/L1T1A2.jpg","37","restless",0.8,0.5,0.1,0.1860083590312,"true"
"image-keyboard-response",84,212286,"0.0-3.24-1.24","kmqtupbvom6cpy0",374,"69.csv","","null","resources/maskTrios/L1BB.jpg","null","",NA,NA,NA,NA,""
"image-keyboard-response",85,213487,"0.0-3.24-2.24","kmqtupbvom6cpy0",374,"69.csv","","null","resources/images/coin2.png","null","",NA,NA,NA,NA,""
"image-keyboard-response",86,214276,"0.0-3.25-0.25","kmqtupbvom6cpy0",374,"69.csv","","788","resources/trios/L1T2A2.jpg","38","restless",0.8,0.5,0.1,0.740443268556284,"false"
"image-keyboard-response",87,214676,"0.0-3.25-1.25","kmqtupbvom6cpy0",374,"69.csv","","null","resources/maskTrios/BT2B.jpg","null","",NA,NA,NA,NA,""
"image-keyboard-response",88,215878,"0.0-3.25-2.25","kmqtupbvom6cpy0",374,"69.csv","","null","resources/images/fishbone.png","null","",NA,NA,NA,NA,""
"image-keyboard-response",89,217211,"0.0-3.26-0.26","kmqtupbvom6cpy0",374,"69.csv","","1332","resources/trios/L2T1A1.jpg","37","restless",0.9,0.5,0.1,0.525254245797432,"true"
"image-keyboard-response",90,217612,"0.0-3.26-1.26","kmqtupbvom6cpy0",374,"69.csv","","null","resources/maskTrios/L2BB.jpg","null","",NA,NA,NA,NA,""
"image-keyboard-response",91,218813,"0.0-3.26-2.26","kmqtupbvom6cpy0",374,"69.csv","","null","resources/images/coin2.png","null","",NA,NA,NA,NA,""
"image-keyboard-response",92,219555,"0.0-3.27-0.27","kmqtupbvom6cpy0",374,"69.csv","","741.0000000000291","resources/trios/L2T1A1.jpg","37","restless",0.9,0.5,0.1,0.445167687725687,"true"
"image-keyboard-response",93,219956,"0.0-3.27-1.27","kmqtupbvom6cpy0",374,"69.csv","","null","resources/maskTrios/L2BB.jpg","null","",NA,NA,NA,NA,""
"image-keyboard-response",94,221158,"0.0-3.27-2.27","kmqtupbvom6cpy0",374,"69.csv","","null","resources/images/coin2.png","null","",NA,NA,NA,NA,""
"image-keyboard-response",95,221861,"0.0-3.28-0.28","kmqtupbvom6cpy0",374,"69.csv","","702","resources/trios/L1T2A2.jpg","38","restless",0.9,0.5,0.1,0.128860761031076,"true"
"image-keyboard-response",96,222262,"0.0-3.28-1.28","kmqtupbvom6cpy0",374,"69.csv","","null","resources/maskTrios/BT2B.jpg","null","",NA,NA,NA,NA,""
"image-keyboard-response",97,223463,"0.0-3.28-2.28","kmqtupbvom6cpy0",374,"69.csv","","null","resources/images/coin2.png","null","",NA,NA,NA,NA,""
"image-keyboard-response",98,224314,"0.0-3.29-0.29","kmqtupbvom6cpy0",374,"69.csv","","850","resources/trios/L2T2A2.jpg","38","restless",0.9,0.5,0.1,0.79509590836149,"false"
"image-keyboard-response",99,224716,"0.0-3.29-1.29","kmqtupbvom6cpy0",374,"69.csv","","null","resources/maskTrios/BT2B.jpg","null","",NA,NA,NA,NA,""
"image-keyboard-response",100,225918,"0.0-3.29-2.29","kmqtupbvom6cpy0",374,"69.csv","","null","resources/images/fishbone.png","null","",NA,NA,NA,NA,""
"image-keyboard-response",101,226636,"0.0-3.30-0.30","kmqtupbvom6cpy0",374,"69.csv","","717","resources/trios/L2T1A1.jpg","37","restless",0.9,0.4,0.1,0.558863731149131,"true"
"image-keyboard-response",102,227038,"0.0-3.30-1.30","kmqtupbvom6cpy0",374,"69.csv","","null","resources/maskTrios/L2BB.jpg","null","",NA,NA,NA,NA,""
"image-keyboard-response",103,228240,"0.0-3.30-2.30","kmqtupbvom6cpy0",374,"69.csv","","null","resources/images/coin2.png","null","",NA,NA,NA,NA,""
"image-keyboard-response",104,229608,"0.0-3.31-0.31","kmqtupbvom6cpy0",374,"69.csv","","1367","resources/trios/L1T2A1.jpg","38","restless",0.9,0.5,0.2,0.853115953745835,"false"
"image-keyboard-response",105,230010,"0.0-3.31-1.31","kmqtupbvom6cpy0",374,"69.csv","","null","resources/maskTrios/BT2B.jpg","null","",NA,NA,NA,NA,""
"image-keyboard-response",106,231212,"0.0-3.31-2.31","kmqtupbvom6cpy0",374,"69.csv","","null","resources/images/fishbone.png","null","",NA,NA,NA,NA,""
"image-keyboard-response",107,232104,"0.0-3.32-0.32","kmqtupbvom6cpy0",374,"69.csv","","891","resources/trios/L1T2A2.jpg","38","restless",0.9,0.4,0.2,0.481494521101216,"false"
"image-keyboard-response",108,232506,"0.0-3.32-1.32","kmqtupbvom6cpy0",374,"69.csv","","null","resources/maskTrios/BT2B.jpg","null","",NA,NA,NA,NA,""
"image-keyboard-response",109,233708,"0.0-3.32-2.32","kmqtupbvom6cpy0",374,"69.csv","","null","resources/images/fishbone.png","null","",NA,NA,NA,NA,""
"image-keyboard-response",110,234472,"0.0-3.33-0.33","kmqtupbvom6cpy0",374,"69.csv","","763.0000000000291","resources/trios/L2T2A2.jpg","38","restless",0.9,0.4,0.2,0.0541867378274691,"true"
"image-keyboard-response",111,234874,"0.0-3.33-1.33","kmqtupbvom6cpy0",374,"69.csv","","null","resources/maskTrios/BT2B.jpg","null","",NA,NA,NA,NA,""
"image-keyboard-response",112,236076,"0.0-3.33-2.33","kmqtupbvom6cpy0",374,"69.csv","","null","resources/images/coin2.png","null","",NA,NA,NA,NA,""
"image-keyboard-response",113,236844,"0.0-3.34-0.34","kmqtupbvom6cpy0",374,"69.csv","","768","resources/trios/L2T1A1.jpg","37","restless",0.9,0.4,0.2,0.279495750299946,"true"
"image-keyboard-response",114,237246,"0.0-3.34-1.34","kmqtupbvom6cpy0",374,"69.csv","","null","resources/maskTrios/L2BB.jpg","null","",NA,NA,NA,NA,""
"image-keyboard-response",115,238448,"0.0-3.34-2.34","kmqtupbvom6cpy0",374,"69.csv","","null","resources/images/coin2.png","null","",NA,NA,NA,NA,""
"image-keyboard-response",116,239135,"0.0-3.35-0.35","kmqtupbvom6cpy0",374,"69.csv","","686.9999999999709","resources/trios/L2T1A1.jpg","37","restless",0.9,0.4,0.3,0.824552241342862,"true"
"image-keyboard-response",117,239537,"0.0-3.35-1.35","kmqtupbvom6cpy0",374,"69.csv","","null","resources/maskTrios/L2BB.jpg","null","",NA,NA,NA,NA,""
"image-keyboard-response",118,240738,"0.0-3.35-2.35","kmqtupbvom6cpy0",374,"69.csv","","null","resources/images/coin2.png","null","",NA,NA,NA,NA,""
"image-keyboard-response",119,242993,"0.0-3.36-0.36","kmqtupbvom6cpy0",374,"69.csv","","2254","resources/trios/L2T2A2.jpg","38","restless",0.9,0.4,0.3,0.692123932928142,"false"
"image-keyboard-response",120,243395,"0.0-3.36-1.36","kmqtupbvom6cpy0",374,"69.csv","","null","resources/maskTrios/BT2B.jpg","null","",NA,NA,NA,NA,""
"image-keyboard-response",121,244596,"0.0-3.36-2.36","kmqtupbvom6cpy0",374,"69.csv","","null","resources/images/fishbone.png","null","",NA,NA,NA,NA,""
"image-keyboard-response",122,245418,"0.0-3.37-0.37","kmqtupbvom6cpy0",374,"69.csv","","821","resources/trios/L2T1A2.jpg","37","restless",0.9,0.4,0.3,0.362276586673672,"true"
"image-keyboard-response",123,245820,"0.0-3.37-1.37","kmqtupbvom6cpy0",374,"69.csv","","null","resources/maskTrios/L2BB.jpg","null","",NA,NA,NA,NA,""
"image-keyboard-response",124,247022,"0.0-3.37-2.37","kmqtupbvom6cpy0",374,"69.csv","","null","resources/images/coin2.png","null","",NA,NA,NA,NA,""
"image-keyboard-response",125,247599,"0.0-3.38-0.38","kmqtupbvom6cpy0",374,"69.csv","","576","resources/trios/L2T1A1.jpg","37","restless",0.9,0.4,0.3,0.251107153262975,"true"
"image-keyboard-response",126,248001,"0.0-3.38-1.38","kmqtupbvom6cpy0",374,"69.csv","","null","resources/maskTrios/L2BB.jpg","null","",NA,NA,NA,NA,""
"image-keyboard-response",127,249206,"0.0-3.38-2.38","kmqtupbvom6cpy0",374,"69.csv","","null","resources/images/coin2.png","null","",NA,NA,NA,NA,""
"image-keyboard-response",128,249923,"0.0-3.39-0.39","kmqtupbvom6cpy0",374,"69.csv","","715","resources/trios/L1T1A1.jpg","37","restless",0.9,0.4,0.3,0.683142357729721,"true"
"image-keyboard-response",129,250325,"0.0-3.39-1.39","kmqtupbvom6cpy0",374,"69.csv","","null","resources/maskTrios/L1BB.jpg","null","",NA,NA,NA,NA,""
"image-keyboard-response",130,251526,"0.0-3.39-2.39","kmqtupbvom6cpy0",374,"69.csv","","null","resources/images/coin2.png","null","",NA,NA,NA,NA,""
"image-keyboard-response",131,252323,"0.0-3.40-0.40","kmqtupbvom6cpy0",374,"69.csv","","796.0000000000291","resources/trios/L2T2A2.jpg","38","restless",0.9,0.4,0.3,0.277054257026961,"true"
"image-keyboard-response",132,252725,"0.0-3.40-1.40","kmqtupbvom6cpy0",374,"69.csv","","null","resources/maskTrios/BT2B.jpg","null","",NA,NA,NA,NA,""
"image-keyboard-response",133,253927,"0.0-3.40-2.40","kmqtupbvom6cpy0",374,"69.csv","","null","resources/images/coin2.png","null","",NA,NA,NA,NA,""
"image-keyboard-response",134,254562,"0.0-3.41-0.41","kmqtupbvom6cpy0",374,"69.csv","","634.0000000000291","resources/trios/L2T1A2.jpg","37","restless",0.9,0.4,0.3,0.765828392353784,"true"
"image-keyboard-response",135,254964,"0.0-3.41-1.41","kmqtupbvom6cpy0",374,"69.csv","","null","resources/maskTrios/L2BB.jpg","null","",NA,NA,NA,NA,""
"image-keyboard-response",136,256166,"0.0-3.41-2.41","kmqtupbvom6cpy0",374,"69.csv","","null","resources/images/coin2.png","null","",NA,NA,NA,NA,""
"image-keyboard-response",137,257153,"0.0-3.42-0.42","kmqtupbvom6cpy0",374,"69.csv","","987.0000000000291","resources/trios/L2T2A1.jpg","38","restless",0.9,0.4,0.3,0.505534313690891,"false"
"image-keyboard-response",138,257555,"0.0-3.42-1.42","kmqtupbvom6cpy0",374,"69.csv","","null","resources/maskTrios/BT2B.jpg","null","",NA,NA,NA,NA,""
"image-keyboard-response",139,258757,"0.0-3.42-2.42","kmqtupbvom6cpy0",374,"69.csv","","null","resources/images/fishbone.png","null","",NA,NA,NA,NA,""
"image-keyboard-response",140,259448,"0.0-3.43-0.43","kmqtupbvom6cpy0",374,"69.csv","","688","resources/trios/L1T2A2.jpg","37","restless",0.9,0.4,0.3,0.671449261115381,"true"
"image-keyboard-response",141,259849,"0.0-3.43-1.43","kmqtupbvom6cpy0",374,"69.csv","","null","resources/maskTrios/L1BB.jpg","null","",NA,NA,NA,NA,""
"image-keyboard-response",142,261051,"0.0-3.43-2.43","kmqtupbvom6cpy0",374,"69.csv","","null","resources/images/coin2.png","null","",NA,NA,NA,NA,""
"image-keyboard-response",143,261789,"0.0-3.44-0.44","kmqtupbvom6cpy0",374,"69.csv","","738","resources/trios/L2T1A2.jpg","37","restless",0.9,0.4,0.3,0.506789583851479,"true"
"image-keyboard-response",144,262190,"0.0-3.44-1.44","kmqtupbvom6cpy0",374,"69.csv","","null","resources/maskTrios/L2BB.jpg","null","",NA,NA,NA,NA,""
"image-keyboard-response",145,263392,"0.0-3.44-2.44","kmqtupbvom6cpy0",374,"69.csv","","null","resources/images/coin2.png","null","",NA,NA,NA,NA,""
"image-keyboard-response",146,264470,"0.0-3.45-0.45","kmqtupbvom6cpy0",374,"69.csv","","1078","resources/trios/L1T1A2.jpg","37","restless",0.9,0.4,0.3,0.962070676964989,"false"
"image-keyboard-response",147,264872,"0.0-3.45-1.45","kmqtupbvom6cpy0",374,"69.csv","","null","resources/maskTrios/L1BB.jpg","null","",NA,NA,NA,NA,""
"image-keyboard-response",148,266074,"0.0-3.45-2.45","kmqtupbvom6cpy0",374,"69.csv","","null","resources/images/fishbone.png","null","",NA,NA,NA,NA,""
"image-keyboard-response",149,267135,"0.0-3.46-0.46","kmqtupbvom6cpy0",374,"69.csv","","1061","resources/trios/L1T1A2.jpg","37","restless",0.9,0.4,0.3,0.175003833923581,"true"
"image-keyboard-response",150,267537,"0.0-3.46-1.46","kmqtupbvom6cpy0",374,"69.csv","","null","resources/maskTrios/L1BB.jpg","null","",NA,NA,NA,NA,""
"image-keyboard-response",151,268739,"0.0-3.46-2.46","kmqtupbvom6cpy0",374,"69.csv","","null","resources/images/coin2.png","null","",NA,NA,NA,NA,""
"image-keyboard-response",152,269488,"0.0-3.47-0.47","kmqtupbvom6cpy0",374,"69.csv","","749","resources/trios/L1T2A2.jpg","38","restless",0.9,0.4,0.3,0.227819591676671,"true"
"image-keyboard-response",153,269889,"0.0-3.47-1.47","kmqtupbvom6cpy0",374,"69.csv","","null","resources/maskTrios/BT2B.jpg","null","",NA,NA,NA,NA,""
"image-keyboard-response",154,271090,"0.0-3.47-2.47","kmqtupbvom6cpy0",374,"69.csv","","null","resources/images/coin2.png","null","",NA,NA,NA,NA,""
"image-keyboard-response",155,271813,"0.0-3.48-0.48","kmqtupbvom6cpy0",374,"69.csv","","722","resources/trios/L1T2A2.jpg","37","restless",0.8,0.4,0.3,0.776294747652344,"true"
"image-keyboard-response",156,272216,"0.0-3.48-1.48","kmqtupbvom6cpy0",374,"69.csv","","null","resources/maskTrios/L1BB.jpg","null","",NA,NA,NA,NA,""
"image-keyboard-response",157,273418,"0.0-3.48-2.48","kmqtupbvom6cpy0",374,"69.csv","","null","resources/images/coin2.png","null","",NA,NA,NA,NA,""
"image-keyboard-response",158,274439,"0.0-3.49-0.49","kmqtupbvom6cpy0",374,"69.csv","","1020.0000000000582","resources/trios/L2T1A2.jpg","37","restless",0.8,0.4,0.3,0.416607197257051,"true"
"image-keyboard-response",159,274843,"0.0-3.49-1.49","kmqtupbvom6cpy0",374,"69.csv","","null","resources/maskTrios/L2BB.jpg","null","",NA,NA,NA,NA,""
"image-keyboard-response",160,276045,"0.0-3.49-2.49","kmqtupbvom6cpy0",374,"69.csv","","null","resources/images/coin2.png","null","",NA,NA,NA,NA,""
"image-keyboard-response",161,276995,"0.0-3.50-0.50","kmqtupbvom6cpy0",374,"69.csv","","949","resources/trios/L1T1A1.jpg","37","restless",0.9,0.5,0.3,0.543468124118387,"true"
"image-keyboard-response",162,277397,"0.0-3.50-1.50","kmqtupbvom6cpy0",374,"69.csv","","null","resources/maskTrios/L1BB.jpg","null","",NA,NA,NA,NA,""
"image-keyboard-response",163,278599,"0.0-3.50-2.50","kmqtupbvom6cpy0",374,"69.csv","","null","resources/images/coin2.png","null","",NA,NA,NA,NA,""
"image-keyboard-response",164,279285,"0.0-3.51-0.51","kmqtupbvom6cpy0",374,"69.csv","","686.0000000000582","resources/trios/L2T1A1.jpg","37","restless",0.8,0.5,0.3,0.377275897227024,"true"
"image-keyboard-response",165,279686,"0.0-3.51-1.51","kmqtupbvom6cpy0",374,"69.csv","","null","resources/maskTrios/L2BB.jpg","null","",NA,NA,NA,NA,""
"image-keyboard-response",166,280887,"0.0-3.51-2.51","kmqtupbvom6cpy0",374,"69.csv","","null","resources/images/coin2.png","null","",NA,NA,NA,NA,""
"image-keyboard-response",167,281475,"0.0-3.52-0.52","kmqtupbvom6cpy0",374,"69.csv","","586","resources/trios/L1T1A2.jpg","37","restless",0.8,0.5,0.3,0.42487378325158,"true"
"image-keyboard-response",168,281876,"0.0-3.52-1.52","kmqtupbvom6cpy0",374,"69.csv","","null","resources/maskTrios/L1BB.jpg","null","",NA,NA,NA,NA,""
"image-keyboard-response",169,283078,"0.0-3.52-2.52","kmqtupbvom6cpy0",374,"69.csv","","null","resources/images/coin2.png","null","",NA,NA,NA,NA,""
"image-keyboard-response",170,283878,"0.0-3.53-0.53","kmqtupbvom6cpy0",374,"69.csv","","798","resources/trios/L1T1A2.jpg","37","restless",0.8,0.5,0.3,0.0180135510208712,"true"
"image-keyboard-response",171,284279,"0.0-3.53-1.53","kmqtupbvom6cpy0",374,"69.csv","","null","resources/maskTrios/L1BB.jpg","null","",NA,NA,NA,NA,""
"image-keyboard-response",172,285481,"0.0-3.53-2.53","kmqtupbvom6cpy0",374,"69.csv","","null","resources/images/coin2.png","null","",NA,NA,NA,NA,""
"image-keyboard-response",173,286328,"0.0-3.54-0.54","kmqtupbvom6cpy0",374,"69.csv","","845","resources/trios/L2T1A1.jpg","37","restless",0.8,0.5,0.3,0.615713669562476,"true"
"image-keyboard-response",174,286730,"0.0-3.54-1.54","kmqtupbvom6cpy0",374,"69.csv","","null","resources/maskTrios/L2BB.jpg","null","",NA,NA,NA,NA,""
"image-keyboard-response",175,287932,"0.0-3.54-2.54","kmqtupbvom6cpy0",374,"69.csv","","null","resources/images/coin2.png","null","",NA,NA,NA,NA,""
"image-keyboard-response",176,288706,"0.0-3.55-0.55","kmqtupbvom6cpy0",374,"69.csv","","773","resources/trios/L1T2A2.jpg","38","restless",0.7,0.5,0.3,0.915273398131436,"false"
"image-keyboard-response",177,289108,"0.0-3.55-1.55","kmqtupbvom6cpy0",374,"69.csv","","null","resources/maskTrios/BT2B.jpg","null","",NA,NA,NA,NA,""
"image-keyboard-response",178,290310,"0.0-3.55-2.55","kmqtupbvom6cpy0",374,"69.csv","","null","resources/images/fishbone.png","null","",NA,NA,NA,NA,""
"image-keyboard-response",179,290826,"0.0-3.56-0.56","kmqtupbvom6cpy0",374,"69.csv","","515.0000000000582","resources/trios/L2T1A1.jpg","37","restless",0.7,0.5,0.3,0.781650691224869,"false"
"image-keyboard-response",180,291228,"0.0-3.56-1.56","kmqtupbvom6cpy0",374,"69.csv","","null","resources/maskTrios/L2BB.jpg","null","",NA,NA,NA,NA,""
"image-keyboard-response",181,292429,"0.0-3.56-2.56","kmqtupbvom6cpy0",374,"69.csv","","null","resources/images/fishbone.png","null","",NA,NA,NA,NA,""
"image-keyboard-response",182,293051,"0.0-3.57-0.57","kmqtupbvom6cpy0",374,"69.csv","","620","resources/trios/L2T2A1.jpg","38","restless",0.7,0.5,0.4,0.6289537245459,"false"
"image-keyboard-response",183,293451,"0.0-3.57-1.57","kmqtupbvom6cpy0",374,"69.csv","","null","resources/maskTrios/BT2B.jpg","null","",NA,NA,NA,NA,""
"image-keyboard-response",184,294653,"0.0-3.57-2.57","kmqtupbvom6cpy0",374,"69.csv","","null","resources/images/fishbone.png","null","",NA,NA,NA,NA,""
"image-keyboard-response",185,295646,"0.0-3.58-0.58","kmqtupbvom6cpy0",374,"69.csv","","992","resources/trios/L2T1A1.jpg","37","restless",0.6,0.5,0.4,0.251972510538956,"true"
"image-keyboard-response",186,296046,"0.0-3.58-1.58","kmqtupbvom6cpy0",374,"69.csv","","null","resources/maskTrios/L2BB.jpg","null","",NA,NA,NA,NA,""
"image-keyboard-response",187,297248,"0.0-3.58-2.58","kmqtupbvom6cpy0",374,"69.csv","","null","resources/images/coin2.png","null","",NA,NA,NA,NA,""
"image-keyboard-response",188,298033,"0.0-3.59-0.59","kmqtupbvom6cpy0",374,"69.csv","","785","resources/trios/L1T2A1.jpg","38","restless",0.6,0.5,0.4,0.646702162029191,"false"
"image-keyboard-response",189,298435,"0.0-3.59-1.59","kmqtupbvom6cpy0",374,"69.csv","","null","resources/maskTrios/BT2B.jpg","null","",NA,NA,NA,NA,""
"image-keyboard-response",190,299637,"0.0-3.59-2.59","kmqtupbvom6cpy0",374,"69.csv","","null","resources/images/fishbone.png","null","",NA,NA,NA,NA,""
"image-keyboard-response",191,300424,"0.0-3.60-0.60","kmqtupbvom6cpy0",374,"69.csv","","787","resources/trios/L1T1A2.jpg","37","restless",0.6,0.5,0.4,0.829638046511393,"false"
"image-keyboard-response",192,300826,"0.0-3.60-1.60","kmqtupbvom6cpy0",374,"69.csv","","null","resources/maskTrios/L1BB.jpg","null","",NA,NA,NA,NA,""
"image-keyboard-response",193,302028,"0.0-3.60-2.60","kmqtupbvom6cpy0",374,"69.csv","","null","resources/images/fishbone.png","null","",NA,NA,NA,NA,""
"image-keyboard-response",194,302704,"0.0-3.61-0.61","kmqtupbvom6cpy0",374,"69.csv","","674","resources/trios/L2T1A1.jpg","37","restless",0.6,0.5,0.4,0.0507435723621613,"true"
"image-keyboard-response",195,303107,"0.0-3.61-1.61","kmqtupbvom6cpy0",374,"69.csv","","null","resources/maskTrios/L2BB.jpg","null","",NA,NA,NA,NA,""
"image-keyboard-response",196,304309,"0.0-3.61-2.61","kmqtupbvom6cpy0",374,"69.csv","","null","resources/images/coin2.png","null","",NA,NA,NA,NA,""
"image-keyboard-response",197,305376,"0.0-3.62-0.62","kmqtupbvom6cpy0",374,"69.csv","","1066.9999999999418","resources/trios/L2T2A2.jpg","39","restless",0.6,0.5,0.4,0.440100189327254,"false"
"image-keyboard-response",198,305778,"0.0-3.62-1.62","kmqtupbvom6cpy0",374,"69.csv","","null","resources/maskTrios/BBA2.jpg","null","",NA,NA,NA,NA,""
"image-keyboard-response",199,306980,"0.0-3.62-2.62","kmqtupbvom6cpy0",374,"69.csv","","null","resources/images/fishbone.png","null","",NA,NA,NA,NA,""
"image-keyboard-response",200,308095,"0.0-3.63-0.63","kmqtupbvom6cpy0",374,"69.csv","","1115","resources/trios/L1T1A1.jpg","38","restless",0.6,0.5,0.4,0.961691508664622,"false"
"image-keyboard-response",201,308497,"0.0-3.63-1.63","kmqtupbvom6cpy0",374,"69.csv","","null","resources/maskTrios/BT1B.jpg","null","",NA,NA,NA,NA,""
"image-keyboard-response",202,309699,"0.0-3.63-2.63","kmqtupbvom6cpy0",374,"69.csv","","null","resources/images/fishbone.png","null","",NA,NA,NA,NA,""
"image-keyboard-response",203,310326,"0.0-3.64-0.64","kmqtupbvom6cpy0",374,"69.csv","","627.0000000000582","resources/trios/L1T1A2.jpg","37","restless",0.6,0.5,0.4,0.241747261311615,"true"
"image-keyboard-response",204,310727,"0.0-3.64-1.64","kmqtupbvom6cpy0",374,"69.csv","","null","resources/maskTrios/L1BB.jpg","null","",NA,NA,NA,NA,""
"image-keyboard-response",205,311929,"0.0-3.64-2.64","kmqtupbvom6cpy0",374,"69.csv","","null","resources/images/coin2.png","null","",NA,NA,NA,NA,""
"image-keyboard-response",206,312617,"0.0-3.65-0.65","kmqtupbvom6cpy0",374,"69.csv","","688","resources/trios/L2T1A2.jpg","37","restless",0.6,0.5,0.4,0.577952748100909,"true"
"image-keyboard-response",207,313019,"0.0-3.65-1.65","kmqtupbvom6cpy0",374,"69.csv","","null","resources/maskTrios/L2BB.jpg","null","",NA,NA,NA,NA,""
"image-keyboard-response",208,314221,"0.0-3.65-2.65","kmqtupbvom6cpy0",374,"69.csv","","null","resources/images/coin2.png","null","",NA,NA,NA,NA,""
"image-keyboard-response",209,314750,"0.0-3.66-0.66","kmqtupbvom6cpy0",374,"69.csv","","529","resources/trios/L1T1A2.jpg","37","restless",0.7,0.5,0.5,0.683049569657497,"true"
"image-keyboard-response",210,315152,"0.0-3.66-1.66","kmqtupbvom6cpy0",374,"69.csv","","null","resources/maskTrios/L1BB.jpg","null","",NA,NA,NA,NA,""
"image-keyboard-response",211,316353,"0.0-3.66-2.66","kmqtupbvom6cpy0",374,"69.csv","","null","resources/images/coin2.png","null","",NA,NA,NA,NA,""
"image-keyboard-response",212,316925,"0.0-3.67-0.67","kmqtupbvom6cpy0",374,"69.csv","","568","resources/trios/L1T1A2.jpg","37","restless",0.7,0.5,0.5,0.919773601781616,"false"
"image-keyboard-response",213,317327,"0.0-3.67-1.67","kmqtupbvom6cpy0",374,"69.csv","","null","resources/maskTrios/L1BB.jpg","null","",NA,NA,NA,NA,""
"image-keyboard-response",214,318528,"0.0-3.67-2.67","kmqtupbvom6cpy0",374,"69.csv","","null","resources/images/fishbone.png","null","",NA,NA,NA,NA,""
"image-keyboard-response",215,319222,"0.0-3.68-0.68","kmqtupbvom6cpy0",374,"69.csv","","692","resources/trios/L2T1A1.jpg","37","restless",0.7,0.6,0.5,0.232454842873411,"true"
"image-keyboard-response",216,319623,"0.0-3.68-1.68","kmqtupbvom6cpy0",374,"69.csv","","null","resources/maskTrios/L2BB.jpg","null","",NA,NA,NA,NA,""
"image-keyboard-response",217,320824,"0.0-3.68-2.68","kmqtupbvom6cpy0",374,"69.csv","","null","resources/images/coin2.png","null","",NA,NA,NA,NA,""
"image-keyboard-response",218,321317,"0.0-3.69-0.69","kmqtupbvom6cpy0",374,"69.csv","","491","resources/trios/L2T1A2.jpg","37","restless",0.7,0.6,0.5,0.600070146335877,"true"
"image-keyboard-response",219,321718,"0.0-3.69-1.69","kmqtupbvom6cpy0",374,"69.csv","","null","resources/maskTrios/L2BB.jpg","null","",NA,NA,NA,NA,""
"image-keyboard-response",220,322920,"0.0-3.69-2.69","kmqtupbvom6cpy0",374,"69.csv","","null","resources/images/coin2.png","null","",NA,NA,NA,NA,""
"image-keyboard-response",221,323870,"0.0-3.70-0.70","kmqtupbvom6cpy0",374,"69.csv","","948","resources/trios/L2T2A2.jpg","38","restless",0.7,0.6,0.5,0.386999227918892,"true"
"image-keyboard-response",222,324272,"0.0-3.70-1.70","kmqtupbvom6cpy0",374,"69.csv","","null","resources/maskTrios/BT2B.jpg","null","",NA,NA,NA,NA,""
"image-keyboard-response",223,325473,"0.0-3.70-2.70","kmqtupbvom6cpy0",374,"69.csv","","null","resources/images/coin2.png","null","",NA,NA,NA,NA,""
"image-keyboard-response",224,325954,"0.0-3.71-0.71","kmqtupbvom6cpy0",374,"69.csv","","480","resources/trios/L1T2A2.jpg","37","restless",0.7,0.6,0.5,0.629869015653747,"true"
"image-keyboard-response",225,326356,"0.0-3.71-1.71","kmqtupbvom6cpy0",374,"69.csv","","null","resources/maskTrios/L1BB.jpg","null","",NA,NA,NA,NA,""
"image-keyboard-response",226,327558,"0.0-3.71-2.71","kmqtupbvom6cpy0",374,"69.csv","","null","resources/images/coin2.png","null","",NA,NA,NA,NA,""
"image-keyboard-response",227,327989,"0.0-3.72-0.72","kmqtupbvom6cpy0",374,"69.csv","","428.9999999999418","resources/trios/L2T1A2.jpg","37","restless",0.7,0.6,0.5,0.345375874141084,"true"
"image-keyboard-response",228,328391,"0.0-3.72-1.72","kmqtupbvom6cpy0",374,"69.csv","","null","resources/maskTrios/L2BB.jpg","null","",NA,NA,NA,NA,""
"image-keyboard-response",229,329592,"0.0-3.72-2.72","kmqtupbvom6cpy0",374,"69.csv","","null","resources/images/coin2.png","null","",NA,NA,NA,NA,""
"image-keyboard-response",230,330024,"0.0-3.73-0.73","kmqtupbvom6cpy0",374,"69.csv","","431","resources/trios/L2T1A2.jpg","37","restless",0.7,0.6,0.5,0.198212026961877,"true"
"image-keyboard-response",231,330426,"0.0-3.73-1.73","kmqtupbvom6cpy0",374,"69.csv","","null","resources/maskTrios/L2BB.jpg","null","",NA,NA,NA,NA,""
"image-keyboard-response",232,331627,"0.0-3.73-2.73","kmqtupbvom6cpy0",374,"69.csv","","null","resources/images/coin2.png","null","",NA,NA,NA,NA,""
"image-keyboard-response",233,332531,"0.0-3.74-0.74","kmqtupbvom6cpy0",374,"69.csv","","903","resources/trios/L1T2A2.jpg","38","restless",0.7,0.6,0.5,0.886536759198795,"false"
"image-keyboard-response",234,332933,"0.0-3.74-1.74","kmqtupbvom6cpy0",374,"69.csv","","null","resources/maskTrios/BT2B.jpg","null","",NA,NA,NA,NA,""
"image-keyboard-response",235,334135,"0.0-3.74-2.74","kmqtupbvom6cpy0",374,"69.csv","","null","resources/images/fishbone.png","null","",NA,NA,NA,NA,""
"image-keyboard-response",236,335167,"0.0-3.75-0.75","kmqtupbvom6cpy0",374,"69.csv","","1032","resources/trios/L2T2A1.jpg","38","restless",0.7,0.6,0.5,0.258559398329101,"true"
"image-keyboard-response",237,335568,"0.0-3.75-1.75","kmqtupbvom6cpy0",374,"69.csv","","null","resources/maskTrios/BT2B.jpg","null","",NA,NA,NA,NA,""
"image-keyboard-response",238,336770,"0.0-3.75-2.75","kmqtupbvom6cpy0",374,"69.csv","","null","resources/images/coin2.png","null","",NA,NA,NA,NA,""
"image-keyboard-response",239,337215,"0.0-3.76-0.76","kmqtupbvom6cpy0",374,"69.csv","","444","resources/trios/L1T1A2.jpg","37","restless",0.7,0.6,0.5,0.400745242204166,"true"
"image-keyboard-response",240,337617,"0.0-3.76-1.76","kmqtupbvom6cpy0",374,"69.csv","","null","resources/maskTrios/L1BB.jpg","null","",NA,NA,NA,NA,""
"image-keyboard-response",241,338819,"0.0-3.76-2.76","kmqtupbvom6cpy0",374,"69.csv","","null","resources/images/coin2.png","null","",NA,NA,NA,NA,""
"image-keyboard-response",242,339285,"0.0-3.77-0.77","kmqtupbvom6cpy0",374,"69.csv","","464","resources/trios/L2T1A1.jpg","37","restless",0.7,0.5,0.5,0.293939237313644,"true"
"image-keyboard-response",243,339687,"0.0-3.77-1.77","kmqtupbvom6cpy0",374,"69.csv","","null","resources/maskTrios/L2BB.jpg","null","",NA,NA,NA,NA,""
"image-keyboard-response",244,340888,"0.0-3.77-2.77","kmqtupbvom6cpy0",374,"69.csv","","null","resources/images/coin2.png","null","",NA,NA,NA,NA,""
"image-keyboard-response",245,341566,"0.0-3.78-0.78","kmqtupbvom6cpy0",374,"69.csv","","676","resources/trios/L2T2A1.jpg","38","restless",0.7,0.5,0.5,0.258979573304282,"true"
"image-keyboard-response",246,341968,"0.0-3.78-1.78","kmqtupbvom6cpy0",374,"69.csv","","null","resources/maskTrios/BT2B.jpg","null","",NA,NA,NA,NA,""
"image-keyboard-response",247,343170,"0.0-3.78-2.78","kmqtupbvom6cpy0",374,"69.csv","","null","resources/images/coin2.png","null","",NA,NA,NA,NA,""
"image-keyboard-response",248,343950,"0.0-3.79-0.79","kmqtupbvom6cpy0",374,"69.csv","","779","resources/trios/L1T2A2.jpg","37","restless",0.7,0.5,0.5,0.578169236985926,"true"
"image-keyboard-response",249,344352,"0.0-3.79-1.79","kmqtupbvom6cpy0",374,"69.csv","","null","resources/maskTrios/L1BB.jpg","null","",NA,NA,NA,NA,""
"image-keyboard-response",250,345554,"0.0-3.79-2.79","kmqtupbvom6cpy0",374,"69.csv","","null","resources/images/coin2.png","null","",NA,NA,NA,NA,""
"image-keyboard-response",251,346647,"0.0-3.80-0.80","kmqtupbvom6cpy0",374,"69.csv","","1093","resources/trios/L2T2A2.jpg","38","restless",0.7,0.5,0.5,0.157845172796556,"true"
"image-keyboard-response",252,347048,"0.0-3.80-1.80","kmqtupbvom6cpy0",374,"69.csv","","null","resources/maskTrios/BT2B.jpg","null","",NA,NA,NA,NA,""
"image-keyboard-response",253,348250,"0.0-3.80-2.80","kmqtupbvom6cpy0",374,"69.csv","","null","resources/images/coin2.png","null","",NA,NA,NA,NA,""
"image-keyboard-response",254,348852,"0.0-3.81-0.81","kmqtupbvom6cpy0",374,"69.csv","","601","resources/trios/L1T2A1.jpg","37","restless",0.7,0.5,0.5,0.860924774713095,"false"
"image-keyboard-response",255,349254,"0.0-3.81-1.81","kmqtupbvom6cpy0",374,"69.csv","","null","resources/maskTrios/L1BB.jpg","null","",NA,NA,NA,NA,""
"image-keyboard-response",256,350455,"0.0-3.81-2.81","kmqtupbvom6cpy0",374,"69.csv","","null","resources/images/fishbone.png","null","",NA,NA,NA,NA,""
"image-keyboard-response",257,350801,"0.0-3.82-0.82","kmqtupbvom6cpy0",374,"69.csv","","345","resources/trios/L2T2A1.jpg","38","restless",0.7,0.6,0.6,0.278774012870547,"true"
"image-keyboard-response",258,351202,"0.0-3.82-1.82","kmqtupbvom6cpy0",374,"69.csv","","null","resources/maskTrios/BT2B.jpg","null","",NA,NA,NA,NA,""
"image-keyboard-response",259,352404,"0.0-3.82-2.82","kmqtupbvom6cpy0",374,"69.csv","","null","resources/images/coin2.png","null","",NA,NA,NA,NA,""
"image-keyboard-response",260,353042,"0.0-3.83-0.83","kmqtupbvom6cpy0",374,"69.csv","","636","resources/trios/L2T1A2.jpg","37","restless",0.7,0.7,0.6,0.32972430777979,"true"
"image-keyboard-response",261,353443,"0.0-3.83-1.83","kmqtupbvom6cpy0",374,"69.csv","","null","resources/maskTrios/L2BB.jpg","null","",NA,NA,NA,NA,""
"image-keyboard-response",262,354644,"0.0-3.83-2.83","kmqtupbvom6cpy0",374,"69.csv","","null","resources/images/coin2.png","null","",NA,NA,NA,NA,""
"image-keyboard-response",263,355363,"0.0-3.84-0.84","kmqtupbvom6cpy0",374,"69.csv","","716.0000000000582","resources/trios/L2T1A2.jpg","37","restless",0.7,0.7,0.6,0.627487154069456,"true"
"image-keyboard-response",264,355765,"0.0-3.84-1.84","kmqtupbvom6cpy0",374,"69.csv","","null","resources/maskTrios/L2BB.jpg","null","",NA,NA,NA,NA,""
"image-keyboard-response",265,356967,"0.0-3.84-2.84","kmqtupbvom6cpy0",374,"69.csv","","null","resources/images/coin2.png","null","",NA,NA,NA,NA,""
"image-keyboard-response",266,357977,"0.0-3.85-0.85","kmqtupbvom6cpy0",374,"69.csv","","1009","resources/trios/L1T1A2.jpg","37","restless",0.7,0.7,0.6,0.50087487654996,"true"
"image-keyboard-response",267,358379,"0.0-3.85-1.85","kmqtupbvom6cpy0",374,"69.csv","","null","resources/maskTrios/L1BB.jpg","null","",NA,NA,NA,NA,""
"image-keyboard-response",268,359581,"0.0-3.85-2.85","kmqtupbvom6cpy0",374,"69.csv","","null","resources/images/coin2.png","null","",NA,NA,NA,NA,""
"image-keyboard-response",269,360209,"0.0-3.86-0.86","kmqtupbvom6cpy0",374,"69.csv","","627.0000000000582","resources/trios/L1T2A1.jpg","38","restless",0.7,0.7,0.6,0.762897803196167,"false"
"image-keyboard-response",270,360610,"0.0-3.86-1.86","kmqtupbvom6cpy0",374,"69.csv","","null","resources/maskTrios/BT2B.jpg","null","",NA,NA,NA,NA,""
"image-keyboard-response",271,361811,"0.0-3.86-2.86","kmqtupbvom6cpy0",374,"69.csv","","null","resources/images/fishbone.png","null","",NA,NA,NA,NA,""
"image-keyboard-response",272,362304,"0.0-3.87-0.87","kmqtupbvom6cpy0",374,"69.csv","","492","resources/trios/L1T1A2.jpg","37","restless",0.7,0.7,0.6,0.414682644470178,"true"
"image-keyboard-response",273,362705,"0.0-3.87-1.87","kmqtupbvom6cpy0",374,"69.csv","","null","resources/maskTrios/L1BB.jpg","null","",NA,NA,NA,NA,""
"image-keyboard-response",274,363907,"0.0-3.87-2.87","kmqtupbvom6cpy0",374,"69.csv","","null","resources/images/coin2.png","null","",NA,NA,NA,NA,""
"image-keyboard-response",275,364417,"0.0-3.88-0.88","kmqtupbvom6cpy0",374,"69.csv","","508","resources/trios/L1T1A1.jpg","37","restless",0.7,0.7,0.6,0.0480057330242759,"true"
"image-keyboard-response",276,364818,"0.0-3.88-1.88","kmqtupbvom6cpy0",374,"69.csv","","null","resources/maskTrios/L1BB.jpg","null","",NA,NA,NA,NA,""
"image-keyboard-response",277,366020,"0.0-3.88-2.88","kmqtupbvom6cpy0",374,"69.csv","","null","resources/images/coin2.png","null","",NA,NA,NA,NA,""
"image-keyboard-response",278,366831,"0.0-3.89-0.89","kmqtupbvom6cpy0",374,"69.csv","","809","resources/trios/L2T1A2.jpg","37","restless",0.7,0.7,0.6,0.574755690266956,"true"
"image-keyboard-response",279,367233,"0.0-3.89-1.89","kmqtupbvom6cpy0",374,"69.csv","","null","resources/maskTrios/L2BB.jpg","null","",NA,NA,NA,NA,""
"image-keyboard-response",280,368434,"0.0-3.89-2.89","kmqtupbvom6cpy0",374,"69.csv","","null","resources/images/coin2.png","null","",NA,NA,NA,NA,""
"image-keyboard-response",281,368865,"0.0-3.90-0.90","kmqtupbvom6cpy0",374,"69.csv","","429","resources/trios/L2T2A1.jpg","37","restless",0.7,0.7,0.6,0.338565211653648,"true"
"image-keyboard-response",282,369267,"0.0-3.90-1.90","kmqtupbvom6cpy0",374,"69.csv","","null","resources/maskTrios/L2BB.jpg","null","",NA,NA,NA,NA,""
"image-keyboard-response",283,370468,"0.0-3.90-2.90","kmqtupbvom6cpy0",374,"69.csv","","null","resources/images/coin2.png","null","",NA,NA,NA,NA,""
"image-keyboard-response",284,371521,"0.0-3.91-0.91","kmqtupbvom6cpy0",374,"69.csv","","1052","resources/trios/L2T1A2.jpg","37","restless",0.7,0.7,0.6,0.0949512629673753,"true"
"image-keyboard-response",285,371923,"0.0-3.91-1.91","kmqtupbvom6cpy0",374,"69.csv","","null","resources/maskTrios/L2BB.jpg","null","",NA,NA,NA,NA,""
"image-keyboard-response",286,373125,"0.0-3.91-2.91","kmqtupbvom6cpy0",374,"69.csv","","null","resources/images/coin2.png","null","",NA,NA,NA,NA,""
"image-keyboard-response",287,374446,"0.0-3.92-0.92","kmqtupbvom6cpy0",374,"69.csv","","1321.0000000000582","resources/trios/L2T2A2.jpg","37","restless",0.7,0.7,0.6,0.279137191422688,"true"
"image-keyboard-response",288,374848,"0.0-3.92-1.92","kmqtupbvom6cpy0",374,"69.csv","","null","resources/maskTrios/L2BB.jpg","null","",NA,NA,NA,NA,""
"image-keyboard-response",289,376050,"0.0-3.92-2.92","kmqtupbvom6cpy0",374,"69.csv","","null","resources/images/coin2.png","null","",NA,NA,NA,NA,""
"image-keyboard-response",290,376676,"0.0-3.93-0.93","kmqtupbvom6cpy0",374,"69.csv","","625","resources/trios/L2T1A2.jpg","37","restless",0.7,0.7,0.6,0.0444078375497484,"true"
"image-keyboard-response",291,377078,"0.0-3.93-1.93","kmqtupbvom6cpy0",374,"69.csv","","null","resources/maskTrios/L2BB.jpg","null","",NA,NA,NA,NA,""
"image-keyboard-response",292,378280,"0.0-3.93-2.93","kmqtupbvom6cpy0",374,"69.csv","","null","resources/images/coin2.png","null","",NA,NA,NA,NA,""
"image-keyboard-response",293,378883,"0.0-3.94-0.94","kmqtupbvom6cpy0",374,"69.csv","","603","resources/trios/L1T1A1.jpg","37","restless",0.7,0.7,0.6,0.923814034542182,"false"
"image-keyboard-response",294,379284,"0.0-3.94-1.94","kmqtupbvom6cpy0",374,"69.csv","","null","resources/maskTrios/L1BB.jpg","null","",NA,NA,NA,NA,""
"image-keyboard-response",295,380486,"0.0-3.94-2.94","kmqtupbvom6cpy0",374,"69.csv","","null","resources/images/fishbone.png","null","",NA,NA,NA,NA,""
"image-keyboard-response",296,381251,"0.0-3.95-0.95","kmqtupbvom6cpy0",374,"69.csv","","765","resources/trios/L1T2A1.jpg","38","restless",0.7,0.7,0.6,0.508897822319143,"true"
"image-keyboard-response",297,381652,"0.0-3.95-1.95","kmqtupbvom6cpy0",374,"69.csv","","null","resources/maskTrios/BT2B.jpg","null","",NA,NA,NA,NA,""
"image-keyboard-response",298,382854,"0.0-3.95-2.95","kmqtupbvom6cpy0",374,"69.csv","","null","resources/images/coin2.png","null","",NA,NA,NA,NA,""
"image-keyboard-response",299,383324,"0.0-3.96-0.96","kmqtupbvom6cpy0",374,"69.csv","","470","resources/trios/L1T2A2.jpg","37","restless",0.7,0.6,0.6,0.157944232482386,"true"
"image-keyboard-response",300,383725,"0.0-3.96-1.96","kmqtupbvom6cpy0",374,"69.csv","","null","resources/maskTrios/L1BB.jpg","null","",NA,NA,NA,NA,""
"image-keyboard-response",301,384927,"0.0-3.96-2.96","kmqtupbvom6cpy0",374,"69.csv","","null","resources/images/coin2.png","null","",NA,NA,NA,NA,""
"image-keyboard-response",302,385614,"0.0-3.97-0.97","kmqtupbvom6cpy0",374,"69.csv","","686.9999999999418","resources/trios/L1T2A2.jpg","38","restless",0.7,0.6,0.6,0.152279726916477,"true"
"image-keyboard-response",303,386015,"0.0-3.97-1.97","kmqtupbvom6cpy0",374,"69.csv","","null","resources/maskTrios/BT2B.jpg","null","",NA,NA,NA,NA,""
"image-keyboard-response",304,387217,"0.0-3.97-2.97","kmqtupbvom6cpy0",374,"69.csv","","null","resources/images/coin2.png","null","",NA,NA,NA,NA,""
"image-keyboard-response",305,387775,"0.0-3.98-0.98","kmqtupbvom6cpy0",374,"69.csv","","556","resources/trios/L2T2A1.jpg","37","restless",0.7,0.6,0.6,0.83617715055792,"false"
"image-keyboard-response",306,388176,"0.0-3.98-1.98","kmqtupbvom6cpy0",374,"69.csv","","null","resources/maskTrios/L2BB.jpg","null","",NA,NA,NA,NA,""
"image-keyboard-response",307,389376,"0.0-3.98-2.98","kmqtupbvom6cpy0",374,"69.csv","","null","resources/images/fishbone.png","null","",NA,NA,NA,NA,""
"image-keyboard-response",308,389931,"0.0-3.99-0.99","kmqtupbvom6cpy0",374,"69.csv","","552","resources/trios/L2T1A2.jpg","37","restless",0.7,0.6,0.6,0.29704796363944,"true"
"image-keyboard-response",309,390332,"0.0-3.99-1.99","kmqtupbvom6cpy0",374,"69.csv","","null","resources/maskTrios/L2BB.jpg","null","",NA,NA,NA,NA,""
"image-keyboard-response",310,391534,"0.0-3.99-2.99","kmqtupbvom6cpy0",374,"69.csv","","null","resources/images/coin2.png","null","",NA,NA,NA,NA,""
"image-keyboard-response",311,392475,"0.0-3.100-0.100","kmqtupbvom6cpy0",374,"69.csv","","940","resources/trios/L2T1A2.jpg","37","restless",0.7,0.6,0.6,0.880411010439901,"false"
"image-keyboard-response",312,392876,"0.0-3.100-1.100","kmqtupbvom6cpy0",374,"69.csv","","null","resources/maskTrios/L2BB.jpg","null","",NA,NA,NA,NA,""
"image-keyboard-response",313,394078,"0.0-3.100-2.100","kmqtupbvom6cpy0",374,"69.csv","","null","resources/images/fishbone.png","null","",NA,NA,NA,NA,""
"image-keyboard-response",314,395213,"0.0-3.101-0.101","kmqtupbvom6cpy0",374,"69.csv","","1134","resources/trios/L1T1A2.jpg","37","restless",0.7,0.6,0.5,0.0720327419589131,"true"
"image-keyboard-response",315,395614,"0.0-3.101-1.101","kmqtupbvom6cpy0",374,"69.csv","","null","resources/maskTrios/L1BB.jpg","null","",NA,NA,NA,NA,""
"image-keyboard-response",316,396815,"0.0-3.101-2.101","kmqtupbvom6cpy0",374,"69.csv","","null","resources/images/coin2.png","null","",NA,NA,NA,NA,""
"image-keyboard-response",317,397630,"0.0-3.102-0.102","kmqtupbvom6cpy0",374,"69.csv","","814","resources/trios/L2T1A2.jpg","37","restless",0.7,0.6,0.5,0.297015314347064,"true"
"image-keyboard-response",318,398031,"0.0-3.102-1.102","kmqtupbvom6cpy0",374,"69.csv","","null","resources/maskTrios/L2BB.jpg","null","",NA,NA,NA,NA,""
"image-keyboard-response",319,399233,"0.0-3.102-2.102","kmqtupbvom6cpy0",374,"69.csv","","null","resources/images/coin2.png","null","",NA,NA,NA,NA,""
"image-keyboard-response",320,399803,"0.0-3.103-0.103","kmqtupbvom6cpy0",374,"69.csv","","568.0000000000582","resources/trios/L2T1A2.jpg","37","restless",0.8,0.6,0.5,0.604277322653441,"true"
"image-keyboard-response",321,400204,"0.0-3.103-1.103","kmqtupbvom6cpy0",374,"69.csv","","null","resources/maskTrios/L2BB.jpg","null","",NA,NA,NA,NA,""
"image-keyboard-response",322,401406,"0.0-3.103-2.103","kmqtupbvom6cpy0",374,"69.csv","","null","resources/images/coin2.png","null","",NA,NA,NA,NA,""
"image-keyboard-response",323,402198,"0.0-3.104-0.104","kmqtupbvom6cpy0",374,"69.csv","","791","resources/trios/L1T2A1.jpg","38","restless",0.8,0.6,0.5,0.00513707479296655,"true"
"image-keyboard-response",324,402601,"0.0-3.104-1.104","kmqtupbvom6cpy0",374,"69.csv","","null","resources/maskTrios/BT2B.jpg","null","",NA,NA,NA,NA,""
"image-keyboard-response",325,403803,"0.0-3.104-2.104","kmqtupbvom6cpy0",374,"69.csv","","null","resources/images/coin2.png","null","",NA,NA,NA,NA,""
"image-keyboard-response",326,404315,"0.0-3.105-0.105","kmqtupbvom6cpy0",374,"69.csv","","510.0000000000582","resources/trios/L1T1A2.jpg","37","restless",0.8,0.6,0.5,0.502163838248096,"true"
"image-keyboard-response",327,404716,"0.0-3.105-1.105","kmqtupbvom6cpy0",374,"69.csv","","null","resources/maskTrios/L1BB.jpg","null","",NA,NA,NA,NA,""
"image-keyboard-response",328,405917,"0.0-3.105-2.105","kmqtupbvom6cpy0",374,"69.csv","","null","resources/images/coin2.png","null","",NA,NA,NA,NA,""
"image-keyboard-response",329,406586,"0.0-3.106-0.106","kmqtupbvom6cpy0",374,"69.csv","","667","resources/trios/L2T1A2.jpg","37","restless",0.8,0.6,0.5,0.198906728391378,"true"
"image-keyboard-response",330,406988,"0.0-3.106-1.106","kmqtupbvom6cpy0",374,"69.csv","","null","resources/maskTrios/L2BB.jpg","null","",NA,NA,NA,NA,""
"image-keyboard-response",331,408190,"0.0-3.106-2.106","kmqtupbvom6cpy0",374,"69.csv","","null","resources/images/coin2.png","null","",NA,NA,NA,NA,""
"image-keyboard-response",332,410371,"0.0-3.107-0.107","kmqtupbvom6cpy0",374,"69.csv","","2181","resources/trios/L1T2A1.jpg","37","restless",0.8,0.6,0.5,0.882771808472015,"false"
"image-keyboard-response",333,410773,"0.0-3.107-1.107","kmqtupbvom6cpy0",374,"69.csv","","null","resources/maskTrios/L1BB.jpg","null","",NA,NA,NA,NA,""
"image-keyboard-response",334,411975,"0.0-3.107-2.107","kmqtupbvom6cpy0",374,"69.csv","","null","resources/images/fishbone.png","null","",NA,NA,NA,NA,""
"image-keyboard-response",335,413900,"0.0-3.108-0.108","kmqtupbvom6cpy0",374,"69.csv","","1923.9999999999418","resources/trios/L2T1A2.jpg","38","restless",0.8,0.6,0.4,0.444689994779859,"true"
"image-keyboard-response",336,414303,"0.0-3.108-1.108","kmqtupbvom6cpy0",374,"69.csv","","null","resources/maskTrios/BT1B.jpg","null","",NA,NA,NA,NA,""
"image-keyboard-response",337,415504,"0.0-3.108-2.108","kmqtupbvom6cpy0",374,"69.csv","","null","resources/images/coin2.png","null","",NA,NA,NA,NA,""
"image-keyboard-response",338,416631,"0.0-3.109-0.109","kmqtupbvom6cpy0",374,"69.csv","","1126","resources/trios/L1T1A2.jpg","38","restless",0.8,0.6,0.4,0.961651510929701,"false"
"image-keyboard-response",339,417033,"0.0-3.109-1.109","kmqtupbvom6cpy0",374,"69.csv","","null","resources/maskTrios/BT1B.jpg","null","",NA,NA,NA,NA,""
"image-keyboard-response",340,418234,"0.0-3.109-2.109","kmqtupbvom6cpy0",374,"69.csv","","null","resources/images/fishbone.png","null","",NA,NA,NA,NA,""
"image-keyboard-response",341,418657,"0.0-3.110-0.110","kmqtupbvom6cpy0",374,"69.csv","","423","resources/trios/L1T2A1.jpg","37","restless",0.8,0.6,0.4,0.492749322362412,"true"
"image-keyboard-response",342,419059,"0.0-3.110-1.110","kmqtupbvom6cpy0",374,"69.csv","","null","resources/maskTrios/L1BB.jpg","null","",NA,NA,NA,NA,""
"image-keyboard-response",343,420260,"0.0-3.110-2.110","kmqtupbvom6cpy0",374,"69.csv","","null","resources/images/coin2.png","null","",NA,NA,NA,NA,""
"image-keyboard-response",344,421299,"0.0-3.111-0.111","kmqtupbvom6cpy0",374,"69.csv","","1038","resources/trios/L2T2A2.jpg","38","restless",0.8,0.6,0.4,0.222712845385119,"true"
"image-keyboard-response",345,421701,"0.0-3.111-1.111","kmqtupbvom6cpy0",374,"69.csv","","null","resources/maskTrios/BT2B.jpg","null","",NA,NA,NA,NA,""
"image-keyboard-response",346,422902,"0.0-3.111-2.111","kmqtupbvom6cpy0",374,"69.csv","","null","resources/images/coin2.png","null","",NA,NA,NA,NA,""
"image-keyboard-response",347,423548,"0.0-3.112-0.112","kmqtupbvom6cpy0",374,"69.csv","","645","resources/trios/L2T1A1.jpg","37","restless",0.8,0.6,0.4,0.00805133006457559,"true"
"image-keyboard-response",348,423950,"0.0-3.112-1.112","kmqtupbvom6cpy0",374,"69.csv","","null","resources/maskTrios/L2BB.jpg","null","",NA,NA,NA,NA,""
"image-keyboard-response",349,425152,"0.0-3.112-2.112","kmqtupbvom6cpy0",374,"69.csv","","null","resources/images/coin2.png","null","",NA,NA,NA,NA,""
"image-keyboard-response",350,425702,"0.0-3.113-0.113","kmqtupbvom6cpy0",374,"69.csv","","550","resources/trios/L2T1A1.jpg","37","restless",0.7,0.6,0.4,0.503890026072394,"true"
"image-keyboard-response",351,426104,"0.0-3.113-1.113","kmqtupbvom6cpy0",374,"69.csv","","null","resources/maskTrios/L2BB.jpg","null","",NA,NA,NA,NA,""
"image-keyboard-response",352,427306,"0.0-3.113-2.113","kmqtupbvom6cpy0",374,"69.csv","","null","resources/images/coin2.png","null","",NA,NA,NA,NA,""
"image-keyboard-response",353,427927,"0.0-3.114-0.114","kmqtupbvom6cpy0",374,"69.csv","","618","resources/trios/L1T2A1.jpg","38","restless",0.6,0.6,0.4,0.499019283715304,"true"
"image-keyboard-response",354,428328,"0.0-3.114-1.114","kmqtupbvom6cpy0",374,"69.csv","","null","resources/maskTrios/BT2B.jpg","null","",NA,NA,NA,NA,""
"image-keyboard-response",355,429529,"0.0-3.114-2.114","kmqtupbvom6cpy0",374,"69.csv","","null","resources/images/coin2.png","null","",NA,NA,NA,NA,""
"image-keyboard-response",356,430075,"0.0-3.115-0.115","kmqtupbvom6cpy0",374,"69.csv","","545","resources/trios/L2T1A1.jpg","37","restless",0.6,0.6,0.4,0.39458280970141,"true"
"image-keyboard-response",357,430477,"0.0-3.115-1.115","kmqtupbvom6cpy0",374,"69.csv","","null","resources/maskTrios/L2BB.jpg","null","",NA,NA,NA,NA,""
"image-keyboard-response",358,431679,"0.0-3.115-2.115","kmqtupbvom6cpy0",374,"69.csv","","null","resources/images/coin2.png","null","",NA,NA,NA,NA,""
"image-keyboard-response",359,432407,"0.0-3.116-0.116","kmqtupbvom6cpy0",374,"69.csv","","727","resources/trios/L1T1A2.jpg","37","restless",0.5,0.6,0.4,0.500789893941658,"false"
"image-keyboard-response",360,432808,"0.0-3.116-1.116","kmqtupbvom6cpy0",374,"69.csv","","null","resources/maskTrios/L1BB.jpg","null","",NA,NA,NA,NA,""
"image-keyboard-response",361,434010,"0.0-3.116-2.116","kmqtupbvom6cpy0",374,"69.csv","","null","resources/images/fishbone.png","null","",NA,NA,NA,NA,""
"image-keyboard-response",362,434589,"0.0-3.117-0.117","kmqtupbvom6cpy0",374,"69.csv","","579","resources/trios/L2T1A1.jpg","37","restless",0.5,0.5,0.4,0.789817200894338,"false"
"image-keyboard-response",363,434991,"0.0-3.117-1.117","kmqtupbvom6cpy0",374,"69.csv","","null","resources/maskTrios/L2BB.jpg","null","",NA,NA,NA,NA,""
"image-keyboard-response",364,436192,"0.0-3.117-2.117","kmqtupbvom6cpy0",374,"69.csv","","null","resources/images/fishbone.png","null","",NA,NA,NA,NA,""
"image-keyboard-response",365,437323,"0.0-3.118-0.118","kmqtupbvom6cpy0",374,"69.csv","","1129","resources/trios/L1T1A1.jpg","37","restless",0.5,0.5,0.4,0.0971989476412242,"true"
"image-keyboard-response",366,437725,"0.0-3.118-1.118","kmqtupbvom6cpy0",374,"69.csv","","null","resources/maskTrios/L1BB.jpg","null","",NA,NA,NA,NA,""
"image-keyboard-response",367,438927,"0.0-3.118-2.118","kmqtupbvom6cpy0",374,"69.csv","","null","resources/images/coin2.png","null","",NA,NA,NA,NA,""
"image-keyboard-response",368,440314,"0.0-3.119-0.119","kmqtupbvom6cpy0",374,"69.csv","","1385.9999999999418","resources/trios/L1T2A2.jpg","38","restless",0.4,0.5,0.4,0.443323651359118,"true"
"image-keyboard-response",369,440716,"0.0-3.119-1.119","kmqtupbvom6cpy0",374,"69.csv","","null","resources/maskTrios/BT2B.jpg","null","",NA,NA,NA,NA,""
"image-keyboard-response",370,441917,"0.0-3.119-2.119","kmqtupbvom6cpy0",374,"69.csv","","null","resources/images/coin2.png","null","",NA,NA,NA,NA,""
"image-keyboard-response",371,443725,"0.0-3.120-0.120","kmqtupbvom6cpy0",374,"69.csv","","1807","resources/trios/L2T1A1.jpg","37","restless",0.4,0.5,0.4,0.178206381368443,"true"
"image-keyboard-response",372,444126,"0.0-3.120-1.120","kmqtupbvom6cpy0",374,"69.csv","","null","resources/maskTrios/L2BB.jpg","null","",NA,NA,NA,NA,""
"image-keyboard-response",373,445328,"0.0-3.120-2.120","kmqtupbvom6cpy0",374,"69.csv","","null","resources/images/coin2.png","null","",NA,NA,NA,NA,""
"image-keyboard-response",374,446478,"0.0-3.121-0.121","kmqtupbvom6cpy0",374,"69.csv","","1149","resources/trios/L1T2A2.jpg","37","restless",0.4,0.5,0.4,0.370453513516682,"true"
"image-keyboard-response",375,446880,"0.0-3.121-1.121","kmqtupbvom6cpy0",374,"69.csv","","null","resources/maskTrios/L1BB.jpg","null","",NA,NA,NA,NA,""
"image-keyboard-response",376,448082,"0.0-3.121-2.121","kmqtupbvom6cpy0",374,"69.csv","","null","resources/images/coin2.png","null","",NA,NA,NA,NA,""
"image-keyboard-response",377,448908,"0.0-3.122-0.122","kmqtupbvom6cpy0",374,"69.csv","","825","resources/trios/L2T2A2.jpg","37","restless",0.4,0.5,0.4,0.464089655522223,"false"
"image-keyboard-response",378,449310,"0.0-3.122-1.122","kmqtupbvom6cpy0",374,"69.csv","","null","resources/maskTrios/L2BB.jpg","null","",NA,NA,NA,NA,""
"image-keyboard-response",379,450512,"0.0-3.122-2.122","kmqtupbvom6cpy0",374,"69.csv","","null","resources/images/fishbone.png","null","",NA,NA,NA,NA,""
"image-keyboard-response",380,451956,"0.0-3.123-0.123","kmqtupbvom6cpy0",374,"69.csv","","1443.9999999999418","resources/trios/L2T1A1.jpg","37","restless",0.4,0.5,0.4,0.806900064254812,"false"
"image-keyboard-response",381,452360,"0.0-3.123-1.123","kmqtupbvom6cpy0",374,"69.csv","","null","resources/maskTrios/L2BB.jpg","null","",NA,NA,NA,NA,""
"image-keyboard-response",382,453562,"0.0-3.123-2.123","kmqtupbvom6cpy0",374,"69.csv","","null","resources/images/fishbone.png","null","",NA,NA,NA,NA,""
"image-keyboard-response",383,455561,"0.0-3.124-0.124","kmqtupbvom6cpy0",374,"69.csv","","1998","resources/trios/L1T1A2.jpg","37","restless",0.4,0.4,0.4,0.497753788334554,"false"
"image-keyboard-response",384,455963,"0.0-3.124-1.124","kmqtupbvom6cpy0",374,"69.csv","","null","resources/maskTrios/L1BB.jpg","null","",NA,NA,NA,NA,""
"image-keyboard-response",385,457164,"0.0-3.124-2.124","kmqtupbvom6cpy0",374,"69.csv","","null","resources/images/fishbone.png","null","",NA,NA,NA,NA,""
"image-keyboard-response",386,458142,"0.0-3.125-0.125","kmqtupbvom6cpy0",374,"69.csv","","977","resources/trios/L1T1A2.jpg","38","restless",0.4,0.4,0.4,0.53832769978134,"false"
"image-keyboard-response",387,458543,"0.0-3.125-1.125","kmqtupbvom6cpy0",374,"69.csv","","null","resources/maskTrios/BT1B.jpg","null","",NA,NA,NA,NA,""
"image-keyboard-response",388,459744,"0.0-3.125-2.125","kmqtupbvom6cpy0",374,"69.csv","","null","resources/images/fishbone.png","null","",NA,NA,NA,NA,""
"image-keyboard-response",389,462503,"0.0-3.126-0.126","kmqtupbvom6cpy0",374,"69.csv","","2757.999999999942","resources/trios/L1T2A1.jpg","38","restless",0.4,0.4,0.4,0.202160948093942,"true"
"image-keyboard-response",390,462905,"0.0-3.126-1.126","kmqtupbvom6cpy0",374,"69.csv","","null","resources/maskTrios/BT2B.jpg","null","",NA,NA,NA,NA,""
"image-keyboard-response",391,464107,"0.0-3.126-2.126","kmqtupbvom6cpy0",374,"69.csv","","null","resources/images/coin2.png","null","",NA,NA,NA,NA,""
"image-keyboard-response",392,466673,"0.0-3.127-0.127","kmqtupbvom6cpy0",374,"69.csv","","2565","resources/trios/L1T1A2.jpg","37","restless",0.4,0.4,0.4,0.0814407095989387,"true"
"image-keyboard-response",393,467073,"0.0-3.127-1.127","kmqtupbvom6cpy0",374,"69.csv","","null","resources/maskTrios/L1BB.jpg","null","",NA,NA,NA,NA,""
"image-keyboard-response",394,468275,"0.0-3.127-2.127","kmqtupbvom6cpy0",374,"69.csv","","null","resources/images/coin2.png","null","",NA,NA,NA,NA,""
"image-keyboard-response",395,469228,"0.0-3.128-0.128","kmqtupbvom6cpy0",374,"69.csv","","951","resources/trios/L1T1A1.jpg","37","restless",0.4,0.4,0.4,0.661558426847424,"false"
"image-keyboard-response",396,469630,"0.0-3.128-1.128","kmqtupbvom6cpy0",374,"69.csv","","null","resources/maskTrios/L1BB.jpg","null","",NA,NA,NA,NA,""
"image-keyboard-response",397,470832,"0.0-3.128-2.128","kmqtupbvom6cpy0",374,"69.csv","","null","resources/images/fishbone.png","null","",NA,NA,NA,NA,""
"image-keyboard-response",398,472254,"0.0-3.129-0.129","kmqtupbvom6cpy0",374,"69.csv","","1421","resources/trios/L2T2A1.jpg","38","restless",0.3,0.4,0.4,0.854875873695314,"false"
"image-keyboard-response",399,472655,"0.0-3.129-1.129","kmqtupbvom6cpy0",374,"69.csv","","null","resources/maskTrios/BT2B.jpg","null","",NA,NA,NA,NA,""
"image-keyboard-response",400,473856,"0.0-3.129-2.129","kmqtupbvom6cpy0",374,"69.csv","","null","resources/images/fishbone.png","null","",NA,NA,NA,NA,""
"image-keyboard-response",401,474849,"0.0-3.130-0.130","kmqtupbvom6cpy0",374,"69.csv","","992","resources/trios/L2T2A2.jpg","38","restless",0.3,0.4,0.5,0.104768005213054,"true"
"image-keyboard-response",402,475251,"0.0-3.130-1.130","kmqtupbvom6cpy0",374,"69.csv","","null","resources/maskTrios/BT2B.jpg","null","",NA,NA,NA,NA,""
"image-keyboard-response",403,476453,"0.0-3.130-2.130","kmqtupbvom6cpy0",374,"69.csv","","null","resources/images/coin2.png","null","",NA,NA,NA,NA,""
"image-keyboard-response",404,477347,"0.0-3.131-0.131","kmqtupbvom6cpy0",374,"69.csv","","893","resources/trios/L1T2A2.jpg","37","restless",0.3,0.3,0.5,0.0562696734377841,"true"
"image-keyboard-response",405,477749,"0.0-3.131-1.131","kmqtupbvom6cpy0",374,"69.csv","","null","resources/maskTrios/L1BB.jpg","null","",NA,NA,NA,NA,""
"image-keyboard-response",406,478950,"0.0-3.131-2.131","kmqtupbvom6cpy0",374,"69.csv","","null","resources/images/coin2.png","null","",NA,NA,NA,NA,""
"image-keyboard-response",407,479535,"0.0-3.132-0.132","kmqtupbvom6cpy0",374,"69.csv","","582.9999999999418","resources/trios/L1T1A1.jpg","37","restless",0.3,0.3,0.5,0.401409621212761,"false"
"image-keyboard-response",408,479937,"0.0-3.132-1.132","kmqtupbvom6cpy0",374,"69.csv","","null","resources/maskTrios/L1BB.jpg","null","",NA,NA,NA,NA,""
"image-keyboard-response",409,481139,"0.0-3.132-2.132","kmqtupbvom6cpy0",374,"69.csv","","null","resources/images/fishbone.png","null","",NA,NA,NA,NA,""
"image-keyboard-response",410,481618,"0.0-3.133-0.133","kmqtupbvom6cpy0",374,"69.csv","","478","resources/trios/L2T1A1.jpg","37","restless",0.3,0.3,0.5,0.532481155833921,"false"
"image-keyboard-response",411,482020,"0.0-3.133-1.133","kmqtupbvom6cpy0",374,"69.csv","","null","resources/maskTrios/L2BB.jpg","null","",NA,NA,NA,NA,""
"image-keyboard-response",412,483222,"0.0-3.133-2.133","kmqtupbvom6cpy0",374,"69.csv","","null","resources/images/fishbone.png","null","",NA,NA,NA,NA,""
"image-keyboard-response",413,484752,"0.0-3.134-0.134","kmqtupbvom6cpy0",374,"69.csv","","1528","resources/trios/L1T1A1.jpg","37","restless",0.3,0.3,0.5,0.875657613847465,"false"
"image-keyboard-response",414,485153,"0.0-3.134-1.134","kmqtupbvom6cpy0",374,"69.csv","","null","resources/maskTrios/L1BB.jpg","null","",NA,NA,NA,NA,""
"image-keyboard-response",415,486355,"0.0-3.134-2.134","kmqtupbvom6cpy0",374,"69.csv","","null","resources/images/fishbone.png","null","",NA,NA,NA,NA,""
"image-keyboard-response",416,486882,"0.0-3.135-0.135","kmqtupbvom6cpy0",374,"69.csv","","527.0000000000582","resources/trios/L1T1A1.jpg","37","restless",0.3,0.3,0.6,0.745740017675019,"false"
"image-keyboard-response",417,487283,"0.0-3.135-1.135","kmqtupbvom6cpy0",374,"69.csv","","null","resources/maskTrios/L1BB.jpg","null","",NA,NA,NA,NA,""
"image-keyboard-response",418,488485,"0.0-3.135-2.135","kmqtupbvom6cpy0",374,"69.csv","","null","resources/images/fishbone.png","null","",NA,NA,NA,NA,""
"image-keyboard-response",419,489115,"0.0-3.136-0.136","kmqtupbvom6cpy0",374,"69.csv","","629","resources/trios/L1T1A1.jpg","37","restless",0.3,0.2,0.6,0.0588649573370768,"true"
"image-keyboard-response",420,489517,"0.0-3.136-1.136","kmqtupbvom6cpy0",374,"69.csv","","null","resources/maskTrios/L1BB.jpg","null","",NA,NA,NA,NA,""
"image-keyboard-response",421,490719,"0.0-3.136-2.136","kmqtupbvom6cpy0",374,"69.csv","","null","resources/images/coin2.png","null","",NA,NA,NA,NA,""
"image-keyboard-response",422,491302,"0.0-3.137-0.137","kmqtupbvom6cpy0",374,"69.csv","","583","resources/trios/L2T2A1.jpg","38","restless",0.2,0.2,0.6,0.102432443592387,"true"
"image-keyboard-response",423,491704,"0.0-3.137-1.137","kmqtupbvom6cpy0",374,"69.csv","","null","resources/maskTrios/BT2B.jpg","null","",NA,NA,NA,NA,""
"image-keyboard-response",424,492905,"0.0-3.137-2.137","kmqtupbvom6cpy0",374,"69.csv","","null","resources/images/coin2.png","null","",NA,NA,NA,NA,""
"image-keyboard-response",425,493288,"0.0-3.138-0.138","kmqtupbvom6cpy0",374,"69.csv","","381.9999999999418","resources/trios/L1T2A1.jpg","37","restless",0.2,0.2,0.6,0.301993483605925,"false"
"image-keyboard-response",426,493689,"0.0-3.138-1.138","kmqtupbvom6cpy0",374,"69.csv","","null","resources/maskTrios/L1BB.jpg","null","",NA,NA,NA,NA,""
"image-keyboard-response",427,494891,"0.0-3.138-2.138","kmqtupbvom6cpy0",374,"69.csv","","null","resources/images/fishbone.png","null","",NA,NA,NA,NA,""
"image-keyboard-response",428,495468,"0.0-3.139-0.139","kmqtupbvom6cpy0",374,"69.csv","","576","resources/trios/L2T1A2.jpg","39","restless",0.2,0.2,0.6,0.274118952125332,"true"
"image-keyboard-response",429,495869,"0.0-3.139-1.139","kmqtupbvom6cpy0",374,"69.csv","","null","resources/maskTrios/BBA2.jpg","null","",NA,NA,NA,NA,""
"image-keyboard-response",430,497072,"0.0-3.139-2.139","kmqtupbvom6cpy0",374,"69.csv","","null","resources/images/coin2.png","null","",NA,NA,NA,NA,""
"image-keyboard-response",431,497777,"0.0-3.140-0.140","kmqtupbvom6cpy0",374,"69.csv","","704","resources/trios/L1T1A2.jpg","38","restless",0.2,0.3,0.6,0.558417036519916,"false"
"image-keyboard-response",432,498178,"0.0-3.140-1.140","kmqtupbvom6cpy0",374,"69.csv","","null","resources/maskTrios/BT1B.jpg","null","",NA,NA,NA,NA,""
"image-keyboard-response",433,499380,"0.0-3.140-2.140","kmqtupbvom6cpy0",374,"69.csv","","null","resources/images/fishbone.png","null","",NA,NA,NA,NA,""
"image-keyboard-response",434,500101,"0.0-3.141-0.141","kmqtupbvom6cpy0",374,"69.csv","","722","resources/trios/L2T1A2.jpg","37","restless",0.2,0.3,0.6,0.337755050369748,"false"
"image-keyboard-response",435,500503,"0.0-3.141-1.141","kmqtupbvom6cpy0",374,"69.csv","","null","resources/maskTrios/L2BB.jpg","null","",NA,NA,NA,NA,""
"image-keyboard-response",436,501705,"0.0-3.141-2.141","kmqtupbvom6cpy0",374,"69.csv","","null","resources/images/fishbone.png","null","",NA,NA,NA,NA,""
"image-keyboard-response",437,502440,"0.0-3.142-0.142","kmqtupbvom6cpy0",374,"69.csv","","732.0000000000582","resources/trios/L2T2A1.jpg","38","restless",0.2,0.3,0.6,0.594131699815075,"false"
"image-keyboard-response",438,502841,"0.0-3.142-1.142","kmqtupbvom6cpy0",374,"69.csv","","null","resources/maskTrios/BT2B.jpg","null","",NA,NA,NA,NA,""
"image-keyboard-response",439,504042,"0.0-3.142-2.142","kmqtupbvom6cpy0",374,"69.csv","","null","resources/images/fishbone.png","null","",NA,NA,NA,NA,""
"image-keyboard-response",440,504422,"0.0-3.143-0.143","kmqtupbvom6cpy0",374,"69.csv","","380","resources/trios/L2T1A1.jpg","37","restless",0.2,0.3,0.6,0.289673866400631,"false"
"image-keyboard-response",441,504823,"0.0-3.143-1.143","kmqtupbvom6cpy0",374,"69.csv","","null","resources/maskTrios/L2BB.jpg","null","",NA,NA,NA,NA,""
"image-keyboard-response",442,506025,"0.0-3.143-2.143","kmqtupbvom6cpy0",374,"69.csv","","null","resources/images/fishbone.png","null","",NA,NA,NA,NA,""
"image-keyboard-response",443,506478,"0.0-3.144-0.144","kmqtupbvom6cpy0",374,"69.csv","","452","resources/trios/L2T2A1.jpg","39","restless",0.2,0.3,0.6,0.576442305620615,"true"
"image-keyboard-response",444,506880,"0.0-3.144-1.144","kmqtupbvom6cpy0",374,"69.csv","","null","resources/maskTrios/BBA1.jpg","null","",NA,NA,NA,NA,""
"image-keyboard-response",445,508082,"0.0-3.144-2.144","kmqtupbvom6cpy0",374,"69.csv","","null","resources/images/coin2.png","null","",NA,NA,NA,NA,""
"image-keyboard-response",446,508540,"0.0-3.145-0.145","kmqtupbvom6cpy0",374,"69.csv","","457","resources/trios/L1T1A1.jpg","39","restless",0.2,0.3,0.6,0.609290063494427,"false"
"image-keyboard-response",447,508942,"0.0-3.145-1.145","kmqtupbvom6cpy0",374,"69.csv","","null","resources/maskTrios/BBA1.jpg","null","",NA,NA,NA,NA,""
"image-keyboard-response",448,510143,"0.0-3.145-2.145","kmqtupbvom6cpy0",374,"69.csv","","null","resources/images/fishbone.png","null","",NA,NA,NA,NA,""
"image-keyboard-response",449,510644,"0.0-3.146-0.146","kmqtupbvom6cpy0",374,"69.csv","","500","resources/trios/L1T1A2.jpg","37","restless",0.2,0.3,0.7,0.151068759555829,"true"
"image-keyboard-response",450,511046,"0.0-3.146-1.146","kmqtupbvom6cpy0",374,"69.csv","","null","resources/maskTrios/L1BB.jpg","null","",NA,NA,NA,NA,""
"image-keyboard-response",451,512248,"0.0-3.146-2.146","kmqtupbvom6cpy0",374,"69.csv","","null","resources/images/coin2.png","null","",NA,NA,NA,NA,""
"image-keyboard-response",452,512790,"0.0-3.147-0.147","kmqtupbvom6cpy0",374,"69.csv","","541.0000000000582","resources/trios/L1T1A1.jpg","37","restless",0.2,0.3,0.7,0.648915681951538,"false"
"image-keyboard-response",453,513191,"0.0-3.147-1.147","kmqtupbvom6cpy0",374,"69.csv","","null","resources/maskTrios/L1BB.jpg","null","",NA,NA,NA,NA,""
"image-keyboard-response",454,514393,"0.0-3.147-2.147","kmqtupbvom6cpy0",374,"69.csv","","null","resources/images/fishbone.png","null","",NA,NA,NA,NA,""
"image-keyboard-response",455,515309,"0.0-3.148-0.148","kmqtupbvom6cpy0",374,"69.csv","","914.0000000001164","resources/trios/L2T1A2.jpg","37","restless",0.2,0.4,0.7,0.332759796231754,"false"
"image-keyboard-response",456,515710,"0.0-3.148-1.148","kmqtupbvom6cpy0",374,"69.csv","","null","resources/maskTrios/L2BB.jpg","null","",NA,NA,NA,NA,""
"image-keyboard-response",457,516912,"0.0-3.148-2.148","kmqtupbvom6cpy0",374,"69.csv","","null","resources/images/fishbone.png","null","",NA,NA,NA,NA,""
"image-keyboard-response",458,517268,"0.0-3.149-0.149","kmqtupbvom6cpy0",374,"69.csv","","355","resources/trios/L1T1A1.jpg","37","restless",0.2,0.4,0.7,0.00418676915502181,"true"
"image-keyboard-response",459,517670,"0.0-3.149-1.149","kmqtupbvom6cpy0",374,"69.csv","","null","resources/maskTrios/L1BB.jpg","null","",NA,NA,NA,NA,""
"image-keyboard-response",460,518871,"0.0-3.149-2.149","kmqtupbvom6cpy0",374,"69.csv","","null","resources/images/coin2.png","null","",NA,NA,NA,NA,""
"image-keyboard-response",461,519412,"0.0-3.150-0.150","kmqtupbvom6cpy0",374,"69.csv","","539.9999999999418","resources/trios/L1T1A2.jpg","37","restless",0.2,0.5,0.7,0.395905406598052,"false"
"image-keyboard-response",462,519814,"0.0-3.150-1.150","kmqtupbvom6cpy0",374,"69.csv","","null","resources/maskTrios/L1BB.jpg","null","",NA,NA,NA,NA,""
"image-keyboard-response",463,521015,"0.0-3.150-2.150","kmqtupbvom6cpy0",374,"69.csv","","null","resources/images/fishbone.png","null","",NA,NA,NA,NA,""
"image-keyboard-response",464,521644,"0.0-3.151-0.151","kmqtupbvom6cpy0",374,"69.csv","","627.9999999999418","resources/trios/L1T1A2.jpg","39","restless",0.2,0.5,0.7,0.0441447191359942,"true"
"image-keyboard-response",465,522046,"0.0-3.151-1.151","kmqtupbvom6cpy0",374,"69.csv","","null","resources/maskTrios/BBA2.jpg","null","",NA,NA,NA,NA,""
"image-keyboard-response",466,523248,"0.0-3.151-2.151","kmqtupbvom6cpy0",374,"69.csv","","null","resources/images/coin2.png","null","",NA,NA,NA,NA,""
"image-keyboard-response",467,523748,"0.0-3.152-0.152","kmqtupbvom6cpy0",374,"69.csv","","498","resources/trios/L2T1A2.jpg","39","restless",0.2,0.5,0.7,0.0961774983179045,"true"
"image-keyboard-response",468,524148,"0.0-3.152-1.152","kmqtupbvom6cpy0",374,"69.csv","","null","resources/maskTrios/BBA2.jpg","null","",NA,NA,NA,NA,""
"image-keyboard-response",469,525350,"0.0-3.152-2.152","kmqtupbvom6cpy0",374,"69.csv","","null","resources/images/coin2.png","null","",NA,NA,NA,NA,""
"image-keyboard-response",470,525790,"0.0-3.153-0.153","kmqtupbvom6cpy0",374,"69.csv","","440","resources/trios/L1T2A2.jpg","39","restless",0.2,0.5,0.7,0.120340151754863,"true"
"image-keyboard-response",471,526191,"0.0-3.153-1.153","kmqtupbvom6cpy0",374,"69.csv","","null","resources/maskTrios/BBA2.jpg","null","",NA,NA,NA,NA,""
"image-keyboard-response",472,527393,"0.0-3.153-2.153","kmqtupbvom6cpy0",374,"69.csv","","null","resources/images/coin2.png","null","",NA,NA,NA,NA,""
"image-keyboard-response",473,527848,"0.0-3.154-0.154","kmqtupbvom6cpy0",374,"69.csv","","453","resources/trios/L1T1A1.jpg","39","restless",0.2,0.5,0.7,0.201096913806887,"true"
"image-keyboard-response",474,528249,"0.0-3.154-1.154","kmqtupbvom6cpy0",374,"69.csv","","null","resources/maskTrios/BBA1.jpg","null","",NA,NA,NA,NA,""
"image-keyboard-response",475,529451,"0.0-3.154-2.154","kmqtupbvom6cpy0",374,"69.csv","","null","resources/images/coin2.png","null","",NA,NA,NA,NA,""
"image-keyboard-response",476,530195,"0.0-3.155-0.155","kmqtupbvom6cpy0",374,"69.csv","","743","resources/trios/L2T2A2.jpg","38","restless",0.2,0.4,0.7,0.713070014354452,"false"
"image-keyboard-response",477,530597,"0.0-3.155-1.155","kmqtupbvom6cpy0",374,"69.csv","","null","resources/maskTrios/BT2B.jpg","null","",NA,NA,NA,NA,""
"image-keyboard-response",478,531799,"0.0-3.155-2.155","kmqtupbvom6cpy0",374,"69.csv","","null","resources/images/fishbone.png","null","",NA,NA,NA,NA,""
"image-keyboard-response",479,532720,"0.0-3.156-0.156","kmqtupbvom6cpy0",374,"69.csv","","920","resources/trios/L1T2A1.jpg","39","restless",0.2,0.4,0.7,0.869784476007441,"false"
"image-keyboard-response",480,533121,"0.0-3.156-1.156","kmqtupbvom6cpy0",374,"69.csv","","null","resources/maskTrios/BBA1.jpg","null","",NA,NA,NA,NA,""
"image-keyboard-response",481,534322,"0.0-3.156-2.156","kmqtupbvom6cpy0",374,"69.csv","","null","resources/images/fishbone.png","null","",NA,NA,NA,NA,""
"image-keyboard-response",482,534638,"0.0-3.157-0.157","kmqtupbvom6cpy0",374,"69.csv","","316","resources/trios/L1T2A1.jpg","37","restless",0.2,0.4,0.7,0.479952173742755,"false"
"image-keyboard-response",483,535040,"0.0-3.157-1.157","kmqtupbvom6cpy0",374,"69.csv","","null","resources/maskTrios/L1BB.jpg","null","",NA,NA,NA,NA,""
"image-keyboard-response",484,536241,"0.0-3.157-2.157","kmqtupbvom6cpy0",374,"69.csv","","null","resources/images/fishbone.png","null","",NA,NA,NA,NA,""
"image-keyboard-response",485,536534,"0.0-3.158-0.158","kmqtupbvom6cpy0",374,"69.csv","","292","resources/trios/L1T2A2.jpg","38","restless",0.2,0.3,0.7,0.264577519797259,"true"
"image-keyboard-response",486,536936,"0.0-3.158-1.158","kmqtupbvom6cpy0",374,"69.csv","","null","resources/maskTrios/BT2B.jpg","null","",NA,NA,NA,NA,""
"image-keyboard-response",487,538138,"0.0-3.158-2.158","kmqtupbvom6cpy0",374,"69.csv","","null","resources/images/coin2.png","null","",NA,NA,NA,NA,""
"image-keyboard-response",488,538992,"0.0-3.159-0.159","kmqtupbvom6cpy0",374,"69.csv","","853","resources/trios/L1T1A2.jpg","37","restless",0.2,0.3,0.6,0.599324667709909,"false"
"image-keyboard-response",489,539393,"0.0-3.159-1.159","kmqtupbvom6cpy0",374,"69.csv","","null","resources/maskTrios/L1BB.jpg","null","",NA,NA,NA,NA,""
"image-keyboard-response",490,540597,"0.0-3.159-2.159","kmqtupbvom6cpy0",374,"69.csv","","null","resources/images/fishbone.png","null","",NA,NA,NA,NA,""
"image-keyboard-response",491,540937,"0.0-3.160-0.160","kmqtupbvom6cpy0",374,"69.csv","","340","resources/trios/L2T2A1.jpg","38","restless",0.2,0.3,0.6,0.770829639548583,"false"
"image-keyboard-response",492,541339,"0.0-3.160-1.160","kmqtupbvom6cpy0",374,"69.csv","","null","resources/maskTrios/BT2B.jpg","null","",NA,NA,NA,NA,""
"image-keyboard-response",493,542541,"0.0-3.160-2.160","kmqtupbvom6cpy0",374,"69.csv","","null","resources/images/fishbone.png","null","",NA,NA,NA,NA,""
"image-keyboard-response",494,542899,"0.0-3.161-0.161","kmqtupbvom6cpy0",374,"69.csv","","355","resources/trios/L1T2A2.jpg","38","restless",0.2,0.4,0.6,0.93367830660234,"false"
"image-keyboard-response",495,543300,"0.0-3.161-1.161","kmqtupbvom6cpy0",374,"69.csv","","null","resources/maskTrios/BT2B.jpg","null","",NA,NA,NA,NA,""
"image-keyboard-response",496,544502,"0.0-3.161-2.161","kmqtupbvom6cpy0",374,"69.csv","","null","resources/images/fishbone.png","null","",NA,NA,NA,NA,""
"image-keyboard-response",497,544955,"0.0-3.162-0.162","kmqtupbvom6cpy0",374,"69.csv","","452","resources/trios/L1T2A1.jpg","39","restless",0.2,0.4,0.6,0.149995842309695,"true"
"image-keyboard-response",498,545357,"0.0-3.162-1.162","kmqtupbvom6cpy0",374,"69.csv","","null","resources/maskTrios/BBA1.jpg","null","",NA,NA,NA,NA,""
"image-keyboard-response",499,546558,"0.0-3.162-2.162","kmqtupbvom6cpy0",374,"69.csv","","null","resources/images/coin2.png","null","",NA,NA,NA,NA,""
"image-keyboard-response",500,546898,"0.0-3.163-0.163","kmqtupbvom6cpy0",374,"69.csv","","339","resources/trios/L1T2A1.jpg","39","restless",0.2,0.4,0.6,0.891066587676799,"false"
"image-keyboard-response",501,547300,"0.0-3.163-1.163","kmqtupbvom6cpy0",374,"69.csv","","null","resources/maskTrios/BBA1.jpg","null","",NA,NA,NA,NA,""
"image-keyboard-response",502,548502,"0.0-3.163-2.163","kmqtupbvom6cpy0",374,"69.csv","","null","resources/images/fishbone.png","null","",NA,NA,NA,NA,""
"image-keyboard-response",503,548802,"0.0-3.164-0.164","kmqtupbvom6cpy0",374,"69.csv","","299","resources/trios/L1T2A1.jpg","39","restless",0.2,0.4,0.7,0.24764032460248,"true"
"image-keyboard-response",504,549204,"0.0-3.164-1.164","kmqtupbvom6cpy0",374,"69.csv","","null","resources/maskTrios/BBA1.jpg","null","",NA,NA,NA,NA,""
"image-keyboard-response",505,550406,"0.0-3.164-2.164","kmqtupbvom6cpy0",374,"69.csv","","null","resources/images/coin2.png","null","",NA,NA,NA,NA,""
"image-keyboard-response",506,550739,"0.0-3.165-0.165","kmqtupbvom6cpy0",374,"69.csv","","332","resources/trios/L1T1A1.jpg","39","restless",0.3,0.4,0.7,0.993966022347306,"false"
"image-keyboard-response",507,551140,"0.0-3.165-1.165","kmqtupbvom6cpy0",374,"69.csv","","null","resources/maskTrios/BBA1.jpg","null","",NA,NA,NA,NA,""
"image-keyboard-response",508,552342,"0.0-3.165-2.165","kmqtupbvom6cpy0",374,"69.csv","","null","resources/images/fishbone.png","null","",NA,NA,NA,NA,""
"image-keyboard-response",509,552705,"0.0-3.166-0.166","kmqtupbvom6cpy0",374,"69.csv","","362","resources/trios/L1T2A1.jpg","37","restless",0.3,0.4,0.6,0.107246920613346,"true"
"image-keyboard-response",510,553106,"0.0-3.166-1.166","kmqtupbvom6cpy0",374,"69.csv","","null","resources/maskTrios/L1BB.jpg","null","",NA,NA,NA,NA,""
"image-keyboard-response",511,554308,"0.0-3.166-2.166","kmqtupbvom6cpy0",374,"69.csv","","null","resources/images/coin2.png","null","",NA,NA,NA,NA,""
"image-keyboard-response",512,554619,"0.0-3.167-0.167","kmqtupbvom6cpy0",374,"69.csv","","310","resources/trios/L1T2A2.jpg","38","restless",0.3,0.4,0.6,0.0679981808350074,"true"
"image-keyboard-response",513,555021,"0.0-3.167-1.167","kmqtupbvom6cpy0",374,"69.csv","","null","resources/maskTrios/BT2B.jpg","null","",NA,NA,NA,NA,""
"image-keyboard-response",514,556225,"0.0-3.167-2.167","kmqtupbvom6cpy0",374,"69.csv","","null","resources/images/coin2.png","null","",NA,NA,NA,NA,""
"image-keyboard-response",515,556419,"0.0-3.168-0.168","kmqtupbvom6cpy0",374,"69.csv","","193","resources/trios/L2T1A2.jpg","39","restless",0.3,0.4,0.6,0.728302472772166,"false"
"image-keyboard-response",516,556821,"0.0-3.168-1.168","kmqtupbvom6cpy0",374,"69.csv","","null","resources/maskTrios/BBA2.jpg","null","",NA,NA,NA,NA,""
"image-keyboard-response",517,558023,"0.0-3.168-2.168","kmqtupbvom6cpy0",374,"69.csv","","null","resources/images/fishbone.png","null","",NA,NA,NA,NA,""
"image-keyboard-response",518,558327,"0.0-3.169-0.169","kmqtupbvom6cpy0",374,"69.csv","","303","resources/trios/L1T1A2.jpg","37","restless",0.3,0.4,0.6,0.0453636954577882,"true"
"image-keyboard-response",519,558728,"0.0-3.169-1.169","kmqtupbvom6cpy0",374,"69.csv","","null","resources/maskTrios/L1BB.jpg","null","",NA,NA,NA,NA,""
"image-keyboard-response",520,559930,"0.0-3.169-2.169","kmqtupbvom6cpy0",374,"69.csv","","null","resources/images/coin2.png","null","",NA,NA,NA,NA,""
"image-keyboard-response",521,560358,"0.0-3.170-0.170","kmqtupbvom6cpy0",374,"69.csv","","427","resources/trios/L2T2A2.jpg","38","restless",0.3,0.4,0.6,0.320139019624068,"true"
"image-keyboard-response",522,560760,"0.0-3.170-1.170","kmqtupbvom6cpy0",374,"69.csv","","null","resources/maskTrios/BT2B.jpg","null","",NA,NA,NA,NA,""
"image-keyboard-response",523,561962,"0.0-3.170-2.170","kmqtupbvom6cpy0",374,"69.csv","","null","resources/images/coin2.png","null","",NA,NA,NA,NA,""
"image-keyboard-response",524,562714,"0.0-3.171-0.171","kmqtupbvom6cpy0",374,"69.csv","","751","resources/trios/L1T2A2.jpg","38","restless",0.3,0.4,0.6,0.517538655774748,"false"
"image-keyboard-response",525,563116,"0.0-3.171-1.171","kmqtupbvom6cpy0",374,"69.csv","","null","resources/maskTrios/BT2B.jpg","null","",NA,NA,NA,NA,""
"image-keyboard-response",526,564318,"0.0-3.171-2.171","kmqtupbvom6cpy0",374,"69.csv","","null","resources/images/fishbone.png","null","",NA,NA,NA,NA,""
"image-keyboard-response",527,564629,"0.0-3.172-0.172","kmqtupbvom6cpy0",374,"69.csv","","311","resources/trios/L1T1A2.jpg","37","restless",0.3,0.5,0.6,0.669538106205826,"false"
"image-keyboard-response",528,565030,"0.0-3.172-1.172","kmqtupbvom6cpy0",374,"69.csv","","null","resources/maskTrios/L1BB.jpg","null","",NA,NA,NA,NA,""
"image-keyboard-response",529,566231,"0.0-3.172-2.172","kmqtupbvom6cpy0",374,"69.csv","","null","resources/images/fishbone.png","null","",NA,NA,NA,NA,""
"image-keyboard-response",530,566569,"0.0-3.173-0.173","kmqtupbvom6cpy0",374,"69.csv","","336.9999999998836","resources/trios/L2T2A1.jpg","39","restless",0.3,0.5,0.6,0.175139857797616,"true"
"image-keyboard-response",531,566971,"0.0-3.173-1.173","kmqtupbvom6cpy0",374,"69.csv","","null","resources/maskTrios/BBA1.jpg","null","",NA,NA,NA,NA,""
"image-keyboard-response",532,568172,"0.0-3.173-2.173","kmqtupbvom6cpy0",374,"69.csv","","null","resources/images/coin2.png","null","",NA,NA,NA,NA,""
"image-keyboard-response",533,568513,"0.0-3.174-0.174","kmqtupbvom6cpy0",374,"69.csv","","338","resources/trios/L2T1A2.jpg","38","restless",0.3,0.5,0.6,0.960140444893103,"false"
"image-keyboard-response",534,568915,"0.0-3.174-1.174","kmqtupbvom6cpy0",374,"69.csv","","null","resources/maskTrios/BT1B.jpg","null","",NA,NA,NA,NA,""
"image-keyboard-response",535,570116,"0.0-3.174-2.174","kmqtupbvom6cpy0",374,"69.csv","","null","resources/images/fishbone.png","null","",NA,NA,NA,NA,""
"image-keyboard-response",536,570539,"0.0-3.175-0.175","kmqtupbvom6cpy0",374,"69.csv","","422","resources/trios/L1T2A2.jpg","38","restless",0.4,0.5,0.7,0.353907938824604,"true"
"image-keyboard-response",537,570941,"0.0-3.175-1.175","kmqtupbvom6cpy0",374,"69.csv","","null","resources/maskTrios/BT2B.jpg","null","",NA,NA,NA,NA,""
"image-keyboard-response",538,572142,"0.0-3.175-2.175","kmqtupbvom6cpy0",374,"69.csv","","null","resources/images/coin2.png","null","",NA,NA,NA,NA,""
"image-keyboard-response",539,572493,"0.0-3.176-0.176","kmqtupbvom6cpy0",374,"69.csv","","350","resources/trios/L2T1A2.jpg","38","restless",0.4,0.5,0.7,0.965827947735204,"false"
"image-keyboard-response",540,572895,"0.0-3.176-1.176","kmqtupbvom6cpy0",374,"69.csv","","null","resources/maskTrios/BT1B.jpg","null","",NA,NA,NA,NA,""
"image-keyboard-response",541,574096,"0.0-3.176-2.176","kmqtupbvom6cpy0",374,"69.csv","","null","resources/images/fishbone.png","null","",NA,NA,NA,NA,""
"image-keyboard-response",542,574402,"0.0-3.177-0.177","kmqtupbvom6cpy0",374,"69.csv","","304","resources/trios/L1T2A1.jpg","39","restless",0.4,0.5,0.8,0.640686094769041,"true"
"image-keyboard-response",543,574803,"0.0-3.177-1.177","kmqtupbvom6cpy0",374,"69.csv","","null","resources/maskTrios/BBA1.jpg","null","",NA,NA,NA,NA,""
"image-keyboard-response",544,576004,"0.0-3.177-2.177","kmqtupbvom6cpy0",374,"69.csv","","null","resources/images/coin2.png","null","",NA,NA,NA,NA,""
"image-keyboard-response",545,576586,"0.0-3.178-0.178","kmqtupbvom6cpy0",374,"69.csv","","580","resources/trios/L2T2A2.jpg","39","restless",0.4,0.6,0.8,0.322295735104091,"true"
"image-keyboard-response",546,576987,"0.0-3.178-1.178","kmqtupbvom6cpy0",374,"69.csv","","null","resources/maskTrios/BBA2.jpg","null","",NA,NA,NA,NA,""
"image-keyboard-response",547,578189,"0.0-3.178-2.178","kmqtupbvom6cpy0",374,"69.csv","","null","resources/images/coin2.png","null","",NA,NA,NA,NA,""
"image-keyboard-response",548,578501,"0.0-3.179-0.179","kmqtupbvom6cpy0",374,"69.csv","","311.0000000001164","resources/trios/L1T1A1.jpg","39","restless",0.4,0.6,0.8,0.551555125389001,"true"
"image-keyboard-response",549,578904,"0.0-3.179-1.179","kmqtupbvom6cpy0",374,"69.csv","","null","resources/maskTrios/BBA1.jpg","null","",NA,NA,NA,NA,""
"image-keyboard-response",550,580105,"0.0-3.179-2.179","kmqtupbvom6cpy0",374,"69.csv","","null","resources/images/coin2.png","null","",NA,NA,NA,NA,""
"image-keyboard-response",551,580447,"0.0-3.180-0.180","kmqtupbvom6cpy0",374,"69.csv","","341","resources/trios/L2T1A1.jpg","39","restless",0.4,0.6,0.8,0.115009418716464,"true"
"image-keyboard-response",552,580848,"0.0-3.180-1.180","kmqtupbvom6cpy0",374,"69.csv","","null","resources/maskTrios/BBA1.jpg","null","",NA,NA,NA,NA,""
"image-keyboard-response",553,582050,"0.0-3.180-2.180","kmqtupbvom6cpy0",374,"69.csv","","null","resources/images/coin2.png","null","",NA,NA,NA,NA,""
"image-keyboard-response",554,582382,"0.0-3.181-0.181","kmqtupbvom6cpy0",374,"69.csv","","330.0000000001164","resources/trios/L1T2A2.jpg","39","restless",0.4,0.6,0.8,0.901239388834525,"false"
"image-keyboard-response",555,582784,"0.0-3.181-1.181","kmqtupbvom6cpy0",374,"69.csv","","null","resources/maskTrios/BBA2.jpg","null","",NA,NA,NA,NA,""
"image-keyboard-response",556,583985,"0.0-3.181-2.181","kmqtupbvom6cpy0",374,"69.csv","","null","resources/images/fishbone.png","null","",NA,NA,NA,NA,""
"image-keyboard-response",557,584273,"0.0-3.182-0.182","kmqtupbvom6cpy0",374,"69.csv","","286","resources/trios/L2T2A1.jpg","39","restless",0.4,0.6,0.8,0.772337411663094,"true"
"image-keyboard-response",558,584674,"0.0-3.182-1.182","kmqtupbvom6cpy0",374,"69.csv","","null","resources/maskTrios/BBA1.jpg","null","",NA,NA,NA,NA,""
"image-keyboard-response",559,585876,"0.0-3.182-2.182","kmqtupbvom6cpy0",374,"69.csv","","null","resources/images/coin2.png","null","",NA,NA,NA,NA,""
"image-keyboard-response",560,586122,"0.0-3.183-0.183","kmqtupbvom6cpy0",374,"69.csv","","244.99999999988358","resources/trios/L1T2A1.jpg","39","restless",0.4,0.6,0.8,0.846404349870803,"false"
"image-keyboard-response",561,586523,"0.0-3.183-1.183","kmqtupbvom6cpy0",374,"69.csv","","null","resources/maskTrios/BBA1.jpg","null","",NA,NA,NA,NA,""
"image-keyboard-response",562,587725,"0.0-3.183-2.183","kmqtupbvom6cpy0",374,"69.csv","","null","resources/images/fishbone.png","null","",NA,NA,NA,NA,""
"image-keyboard-response",563,588338,"0.0-3.184-0.184","kmqtupbvom6cpy0",374,"69.csv","","613","resources/trios/L2T2A1.jpg","38","restless",0.4,0.6,0.8,0.370699803992251,"true"
"image-keyboard-response",564,588739,"0.0-3.184-1.184","kmqtupbvom6cpy0",374,"69.csv","","null","resources/maskTrios/BT2B.jpg","null","",NA,NA,NA,NA,""
"image-keyboard-response",565,589942,"0.0-3.184-2.184","kmqtupbvom6cpy0",374,"69.csv","","null","resources/images/coin2.png","null","",NA,NA,NA,NA,""
"image-keyboard-response",566,590254,"0.0-3.185-0.185","kmqtupbvom6cpy0",374,"69.csv","","311","resources/trios/L1T2A1.jpg","37","restless",0.4,0.6,0.8,0.242140932843775,"true"
"image-keyboard-response",567,590656,"0.0-3.185-1.185","kmqtupbvom6cpy0",374,"69.csv","","null","resources/maskTrios/L1BB.jpg","null","",NA,NA,NA,NA,""
"image-keyboard-response",568,591858,"0.0-3.185-2.185","kmqtupbvom6cpy0",374,"69.csv","","null","resources/images/coin2.png","null","",NA,NA,NA,NA,""
"image-keyboard-response",569,592158,"0.0-3.186-0.186","kmqtupbvom6cpy0",374,"69.csv","","300","resources/trios/L2T2A1.jpg","38","restless",0.4,0.6,0.7,0.890735278088558,"false"
"image-keyboard-response",570,592560,"0.0-3.186-1.186","kmqtupbvom6cpy0",374,"69.csv","","null","resources/maskTrios/BT2B.jpg","null","",NA,NA,NA,NA,""
"image-keyboard-response",571,593762,"0.0-3.186-2.186","kmqtupbvom6cpy0",374,"69.csv","","null","resources/images/fishbone.png","null","",NA,NA,NA,NA,""
"image-keyboard-response",572,594050,"0.0-3.187-0.187","kmqtupbvom6cpy0",374,"69.csv","","287","resources/trios/L1T2A2.jpg","38","restless",0.4,0.6,0.7,0.291028327616517,"true"
"image-keyboard-response",573,594452,"0.0-3.187-1.187","kmqtupbvom6cpy0",374,"69.csv","","null","resources/maskTrios/BT2B.jpg","null","",NA,NA,NA,NA,""
"image-keyboard-response",574,595654,"0.0-3.187-2.187","kmqtupbvom6cpy0",374,"69.csv","","null","resources/images/coin2.png","null","",NA,NA,NA,NA,""
"image-keyboard-response",575,596034,"0.0-3.188-0.188","kmqtupbvom6cpy0",374,"69.csv","","378.9999999998836","resources/trios/L1T2A1.jpg","38","restless",0.5,0.6,0.8,0.211298900282887,"true"
"image-keyboard-response",576,596435,"0.0-3.188-1.188","kmqtupbvom6cpy0",374,"69.csv","","null","resources/maskTrios/BT2B.jpg","null","",NA,NA,NA,NA,""
"image-keyboard-response",577,597637,"0.0-3.188-2.188","kmqtupbvom6cpy0",374,"69.csv","","null","resources/images/coin2.png","null","",NA,NA,NA,NA,""
"image-keyboard-response",578,597939,"0.0-3.189-0.189","kmqtupbvom6cpy0",374,"69.csv","","302","resources/trios/L2T2A2.jpg","39","restless",0.5,0.6,0.8,0.958050373044884,"false"
"image-keyboard-response",579,598341,"0.0-3.189-1.189","kmqtupbvom6cpy0",374,"69.csv","","null","resources/maskTrios/BBA2.jpg","null","",NA,NA,NA,NA,""
"image-keyboard-response",580,599543,"0.0-3.189-2.189","kmqtupbvom6cpy0",374,"69.csv","","null","resources/images/fishbone.png","null","",NA,NA,NA,NA,""
"image-keyboard-response",581,599874,"0.0-3.190-0.190","kmqtupbvom6cpy0",374,"69.csv","","331","resources/trios/L2T2A1.jpg","39","restless",0.4,0.6,0.8,0.759418867361688,"true"
"image-keyboard-response",582,600276,"0.0-3.190-1.190","kmqtupbvom6cpy0",374,"69.csv","","null","resources/maskTrios/BBA1.jpg","null","",NA,NA,NA,NA,""
"image-keyboard-response",583,601478,"0.0-3.190-2.190","kmqtupbvom6cpy0",374,"69.csv","","null","resources/images/coin2.png","null","",NA,NA,NA,NA,""
"image-keyboard-response",584,601700,"0.0-3.191-0.191","kmqtupbvom6cpy0",374,"69.csv","","222","resources/trios/L1T1A1.jpg","39","restless",0.4,0.6,0.8,0.961856132882413,"false"
"image-keyboard-response",585,602101,"0.0-3.191-1.191","kmqtupbvom6cpy0",374,"69.csv","","null","resources/maskTrios/BBA1.jpg","null","",NA,NA,NA,NA,""
"image-keyboard-response",586,603302,"0.0-3.191-2.191","kmqtupbvom6cpy0",374,"69.csv","","null","resources/images/fishbone.png","null","",NA,NA,NA,NA,""
"image-keyboard-response",587,603618,"0.0-3.192-0.192","kmqtupbvom6cpy0",374,"69.csv","","315","resources/trios/L2T2A1.jpg","37","restless",0.4,0.6,0.8,0.759597834627263,"false"
"image-keyboard-response",588,604019,"0.0-3.192-1.192","kmqtupbvom6cpy0",374,"69.csv","","null","resources/maskTrios/L2BB.jpg","null","",NA,NA,NA,NA,""
"image-keyboard-response",589,605221,"0.0-3.192-2.192","kmqtupbvom6cpy0",374,"69.csv","","null","resources/images/fishbone.png","null","",NA,NA,NA,NA,""
"image-keyboard-response",590,605476,"0.0-3.193-0.193","kmqtupbvom6cpy0",374,"69.csv","","253.99999999988358","resources/trios/L1T1A2.jpg","38","restless",0.4,0.6,0.8,0.450054222515321,"true"
"image-keyboard-response",591,605878,"0.0-3.193-1.193","kmqtupbvom6cpy0",374,"69.csv","","null","resources/maskTrios/BT1B.jpg","null","",NA,NA,NA,NA,""
"image-keyboard-response",592,607081,"0.0-3.193-2.193","kmqtupbvom6cpy0",374,"69.csv","","null","resources/images/coin2.png","null","",NA,NA,NA,NA,""
"image-keyboard-response",593,607348,"0.0-3.194-0.194","kmqtupbvom6cpy0",374,"69.csv","","267","resources/trios/L2T1A1.jpg","38","restless",0.4,0.6,0.8,0.0914919491198318,"true"
"image-keyboard-response",594,607749,"0.0-3.194-1.194","kmqtupbvom6cpy0",374,"69.csv","","null","resources/maskTrios/BT1B.jpg","null","",NA,NA,NA,NA,""
"image-keyboard-response",595,608951,"0.0-3.194-2.194","kmqtupbvom6cpy0",374,"69.csv","","null","resources/images/coin2.png","null","",NA,NA,NA,NA,""
"image-keyboard-response",596,609137,"0.0-3.195-0.195","kmqtupbvom6cpy0",374,"69.csv","","186","resources/trios/L1T2A2.jpg","38","restless",0.4,0.6,0.8,0.828268064795052,"false"
"image-keyboard-response",597,609539,"0.0-3.195-1.195","kmqtupbvom6cpy0",374,"69.csv","","null","resources/maskTrios/BT2B.jpg","null","",NA,NA,NA,NA,""
"image-keyboard-response",598,610741,"0.0-3.195-2.195","kmqtupbvom6cpy0",374,"69.csv","","null","resources/images/fishbone.png","null","",NA,NA,NA,NA,""
"image-keyboard-response",599,610922,"0.0-3.196-0.196","kmqtupbvom6cpy0",374,"69.csv","","180","resources/trios/L1T1A2.jpg","39","restless",0.4,0.5,0.8,0.6814136043072,"true"
"image-keyboard-response",600,611324,"0.0-3.196-1.196","kmqtupbvom6cpy0",374,"69.csv","","null","resources/maskTrios/BBA2.jpg","null","",NA,NA,NA,NA,""
"image-keyboard-response",601,612526,"0.0-3.196-2.196","kmqtupbvom6cpy0",374,"69.csv","","null","resources/images/coin2.png","null","",NA,NA,NA,NA,""
"image-keyboard-response",602,612610,"0.0-3.197-0.197","kmqtupbvom6cpy0",374,"69.csv","","82","resources/trios/L2T1A1.jpg","39","restless",0.4,0.5,0.8,0.206239487046998,"true"
"image-keyboard-response",603,613011,"0.0-3.197-1.197","kmqtupbvom6cpy0",374,"69.csv","","null","resources/maskTrios/BBA1.jpg","null","",NA,NA,NA,NA,""
"image-keyboard-response",604,614213,"0.0-3.197-2.197","kmqtupbvom6cpy0",374,"69.csv","","null","resources/images/coin2.png","null","",NA,NA,NA,NA,""
"image-keyboard-response",605,614466,"0.0-3.198-0.198","kmqtupbvom6cpy0",374,"69.csv","","253","resources/trios/L1T2A1.jpg","39","restless",0.4,0.5,0.8,0.860367754701182,"false"
"image-keyboard-response",606,614868,"0.0-3.198-1.198","kmqtupbvom6cpy0",374,"69.csv","","null","resources/maskTrios/BBA1.jpg","null","",NA,NA,NA,NA,""
"image-keyboard-response",607,616069,"0.0-3.198-2.198","kmqtupbvom6cpy0",374,"69.csv","","null","resources/images/fishbone.png","null","",NA,NA,NA,NA,""
"image-keyboard-response",608,616386,"0.0-3.199-0.199","kmqtupbvom6cpy0",374,"69.csv","","315","resources/trios/L2T1A1.jpg","37","restless",0.4,0.4,0.8,0.484450149714509,"false"
"image-keyboard-response",609,616787,"0.0-3.199-1.199","kmqtupbvom6cpy0",374,"69.csv","","null","resources/maskTrios/L2BB.jpg","null","",NA,NA,NA,NA,""
"image-keyboard-response",610,617989,"0.0-3.199-2.199","kmqtupbvom6cpy0",374,"69.csv","","null","resources/images/fishbone.png","null","",NA,NA,NA,NA,""
"image-keyboard-response",611,618360,"0.0-3.200-0.200","kmqtupbvom6cpy0",374,"69.csv","","370","resources/trios/L1T2A2.jpg","37","restless",0.4,0.4,0.8,0.944716064374485,"false"
"image-keyboard-response",612,618761,"0.0-3.200-1.200","kmqtupbvom6cpy0",374,"69.csv","","null","resources/maskTrios/L1BB.jpg","null","",NA,NA,NA,NA,""
"image-keyboard-response",613,619963,"0.0-3.200-2.200","kmqtupbvom6cpy0",374,"69.csv","","null","resources/images/fishbone.png","null","",NA,NA,NA,NA,""
"image-keyboard-response",614,620242,"0.0-3.201-0.201","kmqtupbvom6cpy0",374,"69.csv","","279","resources/trios/L1T2A2.jpg","37","restless",0.4,0.4,0.8,0.335119019599791,"true"
"image-keyboard-response",615,620644,"0.0-3.201-1.201","kmqtupbvom6cpy0",374,"69.csv","","null","resources/maskTrios/L1BB.jpg","null","",NA,NA,NA,NA,""
"image-keyboard-response",616,621846,"0.0-3.201-2.201","kmqtupbvom6cpy0",374,"69.csv","","null","resources/images/coin2.png","null","",NA,NA,NA,NA,""
"image-keyboard-response",617,622125,"0.0-3.202-0.202","kmqtupbvom6cpy0",374,"69.csv","","276.9999999998836","resources/trios/L2T2A1.jpg","37","restless",0.4,0.4,0.8,0.1727096182289,"true"
"image-keyboard-response",618,622526,"0.0-3.202-1.202","kmqtupbvom6cpy0",374,"69.csv","","null","resources/maskTrios/L2BB.jpg","null","",NA,NA,NA,NA,""
"image-keyboard-response",619,623727,"0.0-3.202-2.202","kmqtupbvom6cpy0",374,"69.csv","","null","resources/images/coin2.png","null","",NA,NA,NA,NA,""
"image-keyboard-response",620,623948,"0.0-3.203-0.203","kmqtupbvom6cpy0",374,"69.csv","","218","resources/trios/L2T1A1.jpg","37","restless",0.3,0.5,0.8,0.119186920909467,"true"
"image-keyboard-response",621,624348,"0.0-3.203-1.203","kmqtupbvom6cpy0",374,"69.csv","","null","resources/maskTrios/L2BB.jpg","null","",NA,NA,NA,NA,""
