"trial_type","trial_index","time_elapsed","internal_node_id","subject","participantCode","walkNumber","success","rt","stimulus","key_press","test_part","leftProb","midProb","rightProb","generatedNum","correct"
"pavlovia",0,994,"0.0-0.0","amblbmvsjnlvt03",485,"12.csv","","","","","",NA,NA,NA,NA,""
"fullscreen",1,4596,"0.0-1.0","amblbmvsjnlvt03",485,"12.csv","true","","","","",NA,NA,NA,NA,""
"html-keyboard-response",2,13308,"0.0-2.0-0.0","amblbmvsjnlvt03",485,"12.csv","","8710.60000000149","<p><font size='6'>Arrrgh!</p></font><p>Can you be the best pirate? Try to find lots of gold! But beware, some islands have more gold than others, and over time, the island with the most gold may change. Can YOU figure it out? </p><font size='6'>GOOD LUCK, CAPTAIN!!!</font><p>Press any key to begin</p>","78","",NA,NA,NA,NA,""
"image-keyboard-response",3,16316,"0.0-2.0-1.0","amblbmvsjnlvt03",485,"12.csv","","null","resources/image_sets/111.png","null","",NA,NA,NA,NA,""
"image-keyboard-response",4,17467,"0.0-2.0-2.0","amblbmvsjnlvt03",485,"12.csv","","1150.1000000014901","resources/image_sets/left_highlight.png","37","",NA,NA,NA,NA,""
"image-keyboard-response",5,17964,"0.0-2.0-3.0","amblbmvsjnlvt03",485,"12.csv","","496.1000000014901","resources/image_sets/mid_highlight.png","38","",NA,NA,NA,NA,""
"image-keyboard-response",6,18517,"0.0-2.0-4.0","amblbmvsjnlvt03",485,"12.csv","","552.1000000014901","resources/image_sets/right_highlight.png","39","",NA,NA,NA,NA,""
"image-keyboard-response",7,20346,"0.0-2.0-5.0","amblbmvsjnlvt03",485,"12.csv","","1827.3999999985099","resources/image_sets/111.png","13","",NA,NA,NA,NA,""
"image-keyboard-response",8,21483,"0.0-2.0-6.0","amblbmvsjnlvt03",485,"12.csv","","1136.6000000014901","resources/images/coin2.png","13","",NA,NA,NA,NA,""
"image-keyboard-response",9,22464,"0.0-2.0-7.0","amblbmvsjnlvt03",485,"12.csv","","979.6000000014901","resources/images/fishbone.png","13","",NA,NA,NA,NA,""
"html-keyboard-response",10,24040,"0.0-2.0-8.0","amblbmvsjnlvt03",485,"12.csv","","1575.7999999970198","<p>Your first journey will be a long one, but you will get a well deserved break at the end</p><p>After the break you will have four more journeys, but each will be much shorter than the first, and you will have breaks in between each</p><p>Press Enter to begin</p>","13","",NA,NA,NA,NA,""
"image-keyboard-response",11,25032,"0.0-3.0-0.0","amblbmvsjnlvt03",485,"12.csv","","989.7000000029802","resources/trios/L1T4A3.jpg","37","restless",0.7,0.9,0.3,0.911443909764909,"false"
"image-keyboard-response",12,25441,"0.0-3.0-1.0","amblbmvsjnlvt03",485,"12.csv","","null","resources/maskTrios/L1BB.jpg","null","",NA,NA,NA,NA,""
"image-keyboard-response",13,26653,"0.0-3.0-2.0","amblbmvsjnlvt03",485,"12.csv","","null","resources/images/fishbone.png","null","",NA,NA,NA,NA,""
"image-keyboard-response",14,27096,"0.0-3.1-0.1","amblbmvsjnlvt03",485,"12.csv","","440.6000000014901","resources/trios/L2T2A1.jpg","38","restless",0.7,0.9,0.3,0.779126110443024,"true"
"image-keyboard-response",15,27509,"0.0-3.1-1.1","amblbmvsjnlvt03",485,"12.csv","","null","resources/maskTrios/BT2B.jpg","null","",NA,NA,NA,NA,""
"image-keyboard-response",16,28717,"0.0-3.1-2.1","amblbmvsjnlvt03",485,"12.csv","","null","resources/images/coin2.png","null","",NA,NA,NA,NA,""
"image-keyboard-response",17,29000,"0.0-3.2-0.2","amblbmvsjnlvt03",485,"12.csv","","281.1000000014901","resources/trios/L2T2A1.jpg","38","restless",0.7,0.9,0.3,0.0869135181687763,"true"
"image-keyboard-response",18,29413,"0.0-3.2-1.2","amblbmvsjnlvt03",485,"12.csv","","null","resources/maskTrios/BT2B.jpg","null","",NA,NA,NA,NA,""
"image-keyboard-response",19,30621,"0.0-3.2-2.2","amblbmvsjnlvt03",485,"12.csv","","null","resources/images/coin2.png","null","",NA,NA,NA,NA,""
"image-keyboard-response",20,30936,"0.0-3.3-0.3","amblbmvsjnlvt03",485,"12.csv","","313.3999999985099","resources/trios/L1T2A3.jpg","38","restless",0.7,0.9,0.3,0.982897631602841,"false"
"image-keyboard-response",21,31346,"0.0-3.3-1.3","amblbmvsjnlvt03",485,"12.csv","","null","resources/maskTrios/BT2B.jpg","null","",NA,NA,NA,NA,""
"image-keyboard-response",22,32557,"0.0-3.3-2.3","amblbmvsjnlvt03",485,"12.csv","","null","resources/images/fishbone.png","null","",NA,NA,NA,NA,""
"image-keyboard-response",23,33409,"0.0-3.4-0.4","amblbmvsjnlvt03",485,"12.csv","","850.6000000014901","resources/trios/L1T2A3.jpg","37","restless",0.8,0.8,0.2,0.308627452670373,"true"
"image-keyboard-response",24,33821,"0.0-3.4-1.4","amblbmvsjnlvt03",485,"12.csv","","null","resources/maskTrios/L1BB.jpg","null","",NA,NA,NA,NA,""
"image-keyboard-response",25,35029,"0.0-3.4-2.4","amblbmvsjnlvt03",485,"12.csv","","null","resources/images/coin2.png","null","",NA,NA,NA,NA,""
"image-keyboard-response",26,35550,"0.0-3.5-0.5","amblbmvsjnlvt03",485,"12.csv","","519.5","resources/trios/L1T2A1.jpg","37","restless",0.8,0.7,0.2,0.0491095183608001,"true"
"image-keyboard-response",27,35953,"0.0-3.5-1.5","amblbmvsjnlvt03",485,"12.csv","","null","resources/maskTrios/L1BB.jpg","null","",NA,NA,NA,NA,""
"image-keyboard-response",28,37165,"0.0-3.5-2.5","amblbmvsjnlvt03",485,"12.csv","","null","resources/images/coin2.png","null","",NA,NA,NA,NA,""
"image-keyboard-response",29,37219,"0.0-3.6-0.6","amblbmvsjnlvt03",485,"12.csv","","52.20000000298023","resources/trios/L2T2A1.jpg","37","restless",0.8,0.7,0.2,0.761681728514902,"true"
"image-keyboard-response",30,37626,"0.0-3.6-1.6","amblbmvsjnlvt03",485,"12.csv","","null","resources/maskTrios/L2BB.jpg","null","",NA,NA,NA,NA,""
"image-keyboard-response",31,38838,"0.0-3.6-2.6","amblbmvsjnlvt03",485,"12.csv","","null","resources/images/coin2.png","null","",NA,NA,NA,NA,""
"image-keyboard-response",32,38987,"0.0-3.7-0.7","amblbmvsjnlvt03",485,"12.csv","","147.89999999850988","resources/trios/L2T4A1.jpg","37","restless",0.8,0.7,0.2,0.692296811389336,"true"
"image-keyboard-response",33,39393,"0.0-3.7-1.7","amblbmvsjnlvt03",485,"12.csv","","null","resources/maskTrios/L2BB.jpg","null","",NA,NA,NA,NA,""
"image-keyboard-response",34,40605,"0.0-3.7-2.7","amblbmvsjnlvt03",485,"12.csv","","null","resources/images/coin2.png","null","",NA,NA,NA,NA,""
"image-keyboard-response",35,40795,"0.0-3.8-0.8","amblbmvsjnlvt03",485,"12.csv","","188.60000000149012","resources/trios/L2T2A3.jpg","37","restless",0.7,0.7,0.2,0.975262380229274,"false"
"image-keyboard-response",36,41201,"0.0-3.8-1.8","amblbmvsjnlvt03",485,"12.csv","","null","resources/maskTrios/L2BB.jpg","null","",NA,NA,NA,NA,""
"image-keyboard-response",37,42409,"0.0-3.8-2.8","amblbmvsjnlvt03",485,"12.csv","","null","resources/images/fishbone.png","null","",NA,NA,NA,NA,""
"image-keyboard-response",38,42447,"0.0-3.9-0.9","amblbmvsjnlvt03",485,"12.csv","","36.30000000447035","resources/trios/L1T2A1.jpg","39","restless",0.7,0.7,0.2,0.131589168014111,"true"
"image-keyboard-response",39,42861,"0.0-3.9-1.9","amblbmvsjnlvt03",485,"12.csv","","null","resources/maskTrios/BBA1.jpg","null","",NA,NA,NA,NA,""
"image-keyboard-response",40,44069,"0.0-3.9-2.9","amblbmvsjnlvt03",485,"12.csv","","null","resources/images/coin2.png","null","",NA,NA,NA,NA,""
"image-keyboard-response",41,44346,"0.0-3.10-0.10","amblbmvsjnlvt03",485,"12.csv","","275.3999999985099","resources/trios/L1T2A3.jpg","39","restless",0.7,0.7,0.3,0.84107232003746,"false"
"image-keyboard-response",42,44753,"0.0-3.10-1.10","amblbmvsjnlvt03",485,"12.csv","","null","resources/maskTrios/BBA3.jpg","null","",NA,NA,NA,NA,""
"image-keyboard-response",43,45965,"0.0-3.10-2.10","amblbmvsjnlvt03",485,"12.csv","","null","resources/images/fishbone.png","null","",NA,NA,NA,NA,""
"image-keyboard-response",44,46074,"0.0-3.11-0.11","amblbmvsjnlvt03",485,"12.csv","","107.70000000298023","resources/trios/L2T4A1.jpg","38","restless",0.7,0.7,0.4,0.351412345975865,"true"
"image-keyboard-response",45,46485,"0.0-3.11-1.11","amblbmvsjnlvt03",485,"12.csv","","null","resources/maskTrios/BT4B.jpg","null","",NA,NA,NA,NA,""
"image-keyboard-response",46,47693,"0.0-3.11-2.11","amblbmvsjnlvt03",485,"12.csv","","null","resources/images/coin2.png","null","",NA,NA,NA,NA,""
"image-keyboard-response",47,47953,"0.0-3.12-0.12","amblbmvsjnlvt03",485,"12.csv","","258.20000000298023","resources/trios/L2T4A3.jpg","38","restless",0.7,0.7,0.5,0.968506625141792,"false"
"image-keyboard-response",48,48365,"0.0-3.12-1.12","amblbmvsjnlvt03",485,"12.csv","","null","resources/maskTrios/BT4B.jpg","null","",NA,NA,NA,NA,""
"image-keyboard-response",49,49573,"0.0-3.12-2.12","amblbmvsjnlvt03",485,"12.csv","","null","resources/images/fishbone.png","null","",NA,NA,NA,NA,""
"image-keyboard-response",50,49738,"0.0-3.13-0.13","amblbmvsjnlvt03",485,"12.csv","","163.10000000149012","resources/trios/L2T4A1.jpg","37","restless",0.7,0.7,0.5,0.512730668532274,"true"
"image-keyboard-response",51,50146,"0.0-3.13-1.13","amblbmvsjnlvt03",485,"12.csv","","null","resources/maskTrios/L2BB.jpg","null","",NA,NA,NA,NA,""
"image-keyboard-response",52,51357,"0.0-3.13-2.13","amblbmvsjnlvt03",485,"12.csv","","null","resources/images/coin2.png","null","",NA,NA,NA,NA,""
"image-keyboard-response",53,51410,"0.0-3.14-0.14","amblbmvsjnlvt03",485,"12.csv","","51.399999998509884","resources/trios/L2T4A3.jpg","37","restless",0.8,0.7,0.5,0.951306896355639,"false"
"image-keyboard-response",54,51821,"0.0-3.14-1.14","amblbmvsjnlvt03",485,"12.csv","","null","resources/maskTrios/L2BB.jpg","null","",NA,NA,NA,NA,""
"image-keyboard-response",55,53025,"0.0-3.14-2.14","amblbmvsjnlvt03",485,"12.csv","","null","resources/images/fishbone.png","null","",NA,NA,NA,NA,""
"image-keyboard-response",56,53156,"0.0-3.15-0.15","amblbmvsjnlvt03",485,"12.csv","","129.79999999701977","resources/trios/L1T2A3.jpg","38","restless",0.8,0.7,0.5,0.957406884606322,"false"
"image-keyboard-response",57,53565,"0.0-3.15-1.15","amblbmvsjnlvt03",485,"12.csv","","null","resources/maskTrios/BT2B.jpg","null","",NA,NA,NA,NA,""
"image-keyboard-response",58,54773,"0.0-3.15-2.15","amblbmvsjnlvt03",485,"12.csv","","null","resources/images/fishbone.png","null","",NA,NA,NA,NA,""
"image-keyboard-response",59,55161,"0.0-3.16-0.16","amblbmvsjnlvt03",485,"12.csv","","386.29999999701977","resources/trios/L1T4A1.jpg","39","restless",0.8,0.7,0.5,0.792819421227801,"false"
"image-keyboard-response",60,55573,"0.0-3.16-1.16","amblbmvsjnlvt03",485,"12.csv","","null","resources/maskTrios/BBA1.jpg","null","",NA,NA,NA,NA,""
"image-keyboard-response",61,56777,"0.0-3.16-2.16","amblbmvsjnlvt03",485,"12.csv","","null","resources/images/fishbone.png","null","",NA,NA,NA,NA,""
"image-keyboard-response",62,56935,"0.0-3.17-0.17","amblbmvsjnlvt03",485,"12.csv","","156.60000000149012","resources/trios/L2T4A3.jpg","37","restless",0.8,0.7,0.5,0.84350333313969,"false"
"image-keyboard-response",63,57345,"0.0-3.17-1.17","amblbmvsjnlvt03",485,"12.csv","","null","resources/maskTrios/L2BB.jpg","null","",NA,NA,NA,NA,""
"image-keyboard-response",64,58552,"0.0-3.17-2.17","amblbmvsjnlvt03",485,"12.csv","","null","resources/images/fishbone.png","null","",NA,NA,NA,NA,""
"image-keyboard-response",65,58671,"0.0-3.18-0.18","amblbmvsjnlvt03",485,"12.csv","","117","resources/trios/L1T4A3.jpg","38","restless",0.8,0.7,0.5,0.78724269106242,"false"
"image-keyboard-response",66,59077,"0.0-3.18-1.18","amblbmvsjnlvt03",485,"12.csv","","null","resources/maskTrios/BT4B.jpg","null","",NA,NA,NA,NA,""
"image-keyboard-response",67,60281,"0.0-3.18-2.18","amblbmvsjnlvt03",485,"12.csv","","null","resources/images/fishbone.png","null","",NA,NA,NA,NA,""
"image-keyboard-response",68,60373,"0.0-3.19-0.19","amblbmvsjnlvt03",485,"12.csv","","90.69999999552965","resources/trios/L2T4A3.jpg","37","restless",0.8,0.7,0.5,0.9184610734997,"false"
"image-keyboard-response",69,60781,"0.0-3.19-1.19","amblbmvsjnlvt03",485,"12.csv","","null","resources/maskTrios/L2BB.jpg","null","",NA,NA,NA,NA,""
"image-keyboard-response",70,61989,"0.0-3.19-2.19","amblbmvsjnlvt03",485,"12.csv","","null","resources/images/fishbone.png","null","",NA,NA,NA,NA,""
"image-keyboard-response",71,62141,"0.0-3.20-0.20","amblbmvsjnlvt03",485,"12.csv","","150.5","resources/trios/L2T2A1.jpg","39","restless",0.8,0.8,0.5,0.763575826923833,"false"
"image-keyboard-response",72,62545,"0.0-3.20-1.20","amblbmvsjnlvt03",485,"12.csv","","null","resources/maskTrios/BBA1.jpg","null","",NA,NA,NA,NA,""
"image-keyboard-response",73,63753,"0.0-3.20-2.20","amblbmvsjnlvt03",485,"12.csv","","null","resources/images/fishbone.png","null","",NA,NA,NA,NA,""
"image-keyboard-response",74,63868,"0.0-3.21-0.21","amblbmvsjnlvt03",485,"12.csv","","113.29999999701977","resources/trios/L1T2A1.jpg","37","restless",0.8,0.8,0.5,0.781584640676199,"true"
"image-keyboard-response",75,64273,"0.0-3.21-1.21","amblbmvsjnlvt03",485,"12.csv","","null","resources/maskTrios/L1BB.jpg","null","",NA,NA,NA,NA,""
"image-keyboard-response",76,65485,"0.0-3.21-2.21","amblbmvsjnlvt03",485,"12.csv","","null","resources/images/coin2.png","null","",NA,NA,NA,NA,""
"image-keyboard-response",77,65726,"0.0-3.22-0.22","amblbmvsjnlvt03",485,"12.csv","","240","resources/trios/L2T2A1.jpg","37","restless",0.8,0.8,0.5,0.644227962742212,"true"
"image-keyboard-response",78,66133,"0.0-3.22-1.22","amblbmvsjnlvt03",485,"12.csv","","null","resources/maskTrios/L2BB.jpg","null","",NA,NA,NA,NA,""
"image-keyboard-response",79,67336,"0.0-3.22-2.22","amblbmvsjnlvt03",485,"12.csv","","null","resources/images/coin2.png","null","",NA,NA,NA,NA,""
"image-keyboard-response",80,67678,"0.0-3.23-0.23","amblbmvsjnlvt03",485,"12.csv","","340.79999999701977","resources/trios/L2T2A1.jpg","37","restless",0.8,0.8,0.5,0.227618484960648,"true"
"image-keyboard-response",81,68084,"0.0-3.23-1.23","amblbmvsjnlvt03",485,"12.csv","","null","resources/maskTrios/L2BB.jpg","null","",NA,NA,NA,NA,""
"image-keyboard-response",82,69289,"0.0-3.23-2.23","amblbmvsjnlvt03",485,"12.csv","","null","resources/images/coin2.png","null","",NA,NA,NA,NA,""
"image-keyboard-response",83,69364,"0.0-3.24-0.24","amblbmvsjnlvt03",485,"12.csv","","73.79999999701977","resources/trios/L2T4A3.jpg","37","restless",0.8,0.8,0.5,0.719663063095584,"true"
"image-keyboard-response",84,69773,"0.0-3.24-1.24","amblbmvsjnlvt03",485,"12.csv","","null","resources/maskTrios/L2BB.jpg","null","",NA,NA,NA,NA,""
"image-keyboard-response",85,70981,"0.0-3.24-2.24","amblbmvsjnlvt03",485,"12.csv","","null","resources/images/coin2.png","null","",NA,NA,NA,NA,""
"image-keyboard-response",86,71171,"0.0-3.25-0.25","amblbmvsjnlvt03",485,"12.csv","","189.10000000149012","resources/trios/L1T4A1.jpg","37","restless",0.8,0.8,0.5,0.175853839913437,"true"
"image-keyboard-response",87,71581,"0.0-3.25-1.25","amblbmvsjnlvt03",485,"12.csv","","null","resources/maskTrios/L1BB.jpg","null","",NA,NA,NA,NA,""
"image-keyboard-response",88,72789,"0.0-3.25-2.25","amblbmvsjnlvt03",485,"12.csv","","null","resources/images/coin2.png","null","",NA,NA,NA,NA,""
"image-keyboard-response",89,72845,"0.0-3.26-0.26","amblbmvsjnlvt03",485,"12.csv","","54.79999999701977","resources/trios/L2T2A1.jpg","37","restless",0.8,0.8,0.6,0.622537852777314,"true"
"image-keyboard-response",90,73251,"0.0-3.26-1.26","amblbmvsjnlvt03",485,"12.csv","","null","resources/maskTrios/L2BB.jpg","null","",NA,NA,NA,NA,""
"image-keyboard-response",91,74461,"0.0-3.26-2.26","amblbmvsjnlvt03",485,"12.csv","","null","resources/images/coin2.png","null","",NA,NA,NA,NA,""
"image-keyboard-response",92,74689,"0.0-3.27-0.27","amblbmvsjnlvt03",485,"12.csv","","227.29999999701977","resources/trios/L2T2A1.jpg","37","restless",0.8,0.8,0.6,0.289907739019844,"true"
"image-keyboard-response",93,75097,"0.0-3.27-1.27","amblbmvsjnlvt03",485,"12.csv","","null","resources/maskTrios/L2BB.jpg","null","",NA,NA,NA,NA,""
"image-keyboard-response",94,76309,"0.0-3.27-2.27","amblbmvsjnlvt03",485,"12.csv","","null","resources/images/coin2.png","null","",NA,NA,NA,NA,""
"image-keyboard-response",95,76627,"0.0-3.28-0.28","amblbmvsjnlvt03",485,"12.csv","","316.70000000298023","resources/trios/L2T4A1.jpg","37","restless",0.8,0.8,0.6,0.556633374413586,"true"
"image-keyboard-response",96,77037,"0.0-3.28-1.28","amblbmvsjnlvt03",485,"12.csv","","null","resources/maskTrios/L2BB.jpg","null","",NA,NA,NA,NA,""
"image-keyboard-response",97,78241,"0.0-3.28-2.28","amblbmvsjnlvt03",485,"12.csv","","null","resources/images/coin2.png","null","",NA,NA,NA,NA,""
"image-keyboard-response",98,78312,"0.0-3.29-0.29","amblbmvsjnlvt03",485,"12.csv","","69.5","resources/trios/L1T2A1.jpg","37","restless",0.8,0.8,0.6,0.600268379520705,"true"
"image-keyboard-response",99,78725,"0.0-3.29-1.29","amblbmvsjnlvt03",485,"12.csv","","null","resources/maskTrios/L1BB.jpg","null","",NA,NA,NA,NA,""
"image-keyboard-response",100,79932,"0.0-3.29-2.29","amblbmvsjnlvt03",485,"12.csv","","null","resources/images/coin2.png","null","",NA,NA,NA,NA,""
"image-keyboard-response",101,79935,"0.0-3.30-0.30","amblbmvsjnlvt03",485,"12.csv","","1.3000000044703484","resources/trios/L1T2A1.jpg","37","restless",0.8,0.8,0.6,0.0873223208953335,"true"
"image-keyboard-response",102,80344,"0.0-3.30-1.30","amblbmvsjnlvt03",485,"12.csv","","null","resources/maskTrios/L1BB.jpg","null","",NA,NA,NA,NA,""
"image-keyboard-response",103,81553,"0.0-3.30-2.30","amblbmvsjnlvt03",485,"12.csv","","null","resources/images/coin2.png","null","",NA,NA,NA,NA,""
"image-keyboard-response",104,81680,"0.0-3.31-0.31","amblbmvsjnlvt03",485,"12.csv","","125.60000000149012","resources/trios/L1T4A3.jpg","37","restless",0.8,0.8,0.6,0.420130159096368,"true"
"image-keyboard-response",105,82089,"0.0-3.31-1.31","amblbmvsjnlvt03",485,"12.csv","","null","resources/maskTrios/L1BB.jpg","null","",NA,NA,NA,NA,""
"image-keyboard-response",106,83297,"0.0-3.31-2.31","amblbmvsjnlvt03",485,"12.csv","","null","resources/images/coin2.png","null","",NA,NA,NA,NA,""
"image-keyboard-response",107,83473,"0.0-3.32-0.32","amblbmvsjnlvt03",485,"12.csv","","174.09999999403954","resources/trios/L1T4A3.jpg","37","restless",0.8,0.8,0.7,0.931529020001271,"false"
"image-keyboard-response",108,83881,"0.0-3.32-1.32","amblbmvsjnlvt03",485,"12.csv","","null","resources/maskTrios/L1BB.jpg","null","",NA,NA,NA,NA,""
"image-keyboard-response",109,85089,"0.0-3.32-2.32","amblbmvsjnlvt03",485,"12.csv","","null","resources/images/fishbone.png","null","",NA,NA,NA,NA,""
"image-keyboard-response",110,85436,"0.0-3.33-0.33","amblbmvsjnlvt03",485,"12.csv","","345.5","resources/trios/L2T2A3.jpg","38","restless",0.8,0.8,0.7,0.293011098148019,"true"
"image-keyboard-response",111,85842,"0.0-3.33-1.33","amblbmvsjnlvt03",485,"12.csv","","null","resources/maskTrios/BT2B.jpg","null","",NA,NA,NA,NA,""
"image-keyboard-response",112,87053,"0.0-3.33-2.33","amblbmvsjnlvt03",485,"12.csv","","null","resources/images/coin2.png","null","",NA,NA,NA,NA,""
"image-keyboard-response",113,87114,"0.0-3.34-0.34","amblbmvsjnlvt03",485,"12.csv","","59.399999998509884","resources/trios/L1T4A1.jpg","38","restless",0.8,0.8,0.6,0.298749147204801,"true"
"image-keyboard-response",114,87525,"0.0-3.34-1.34","amblbmvsjnlvt03",485,"12.csv","","null","resources/maskTrios/BT4B.jpg","null","",NA,NA,NA,NA,""
"image-keyboard-response",115,88730,"0.0-3.34-2.34","amblbmvsjnlvt03",485,"12.csv","","null","resources/images/coin2.png","null","",NA,NA,NA,NA,""
"image-keyboard-response",116,89023,"0.0-3.35-0.35","amblbmvsjnlvt03",485,"12.csv","","291.90000000596046","resources/trios/L1T4A3.jpg","38","restless",0.8,0.8,0.6,0.376182017799188,"true"
"image-keyboard-response",117,89437,"0.0-3.35-1.35","amblbmvsjnlvt03",485,"12.csv","","null","resources/maskTrios/BT4B.jpg","null","",NA,NA,NA,NA,""
"image-keyboard-response",118,90642,"0.0-3.35-2.35","amblbmvsjnlvt03",485,"12.csv","","null","resources/images/coin2.png","null","",NA,NA,NA,NA,""
"image-keyboard-response",119,90949,"0.0-3.36-0.36","amblbmvsjnlvt03",485,"12.csv","","305.79999999701977","resources/trios/L1T4A1.jpg","38","restless",0.8,0.8,0.5,0.531898443790201,"true"
"image-keyboard-response",120,91357,"0.0-3.36-1.36","amblbmvsjnlvt03",485,"12.csv","","null","resources/maskTrios/BT4B.jpg","null","",NA,NA,NA,NA,""
"image-keyboard-response",121,92565,"0.0-3.36-2.36","amblbmvsjnlvt03",485,"12.csv","","null","resources/images/coin2.png","null","",NA,NA,NA,NA,""
"image-keyboard-response",122,92837,"0.0-3.37-0.37","amblbmvsjnlvt03",485,"12.csv","","271.3999999985099","resources/trios/L1T4A3.jpg","38","restless",0.8,0.7,0.5,0.432488047822794,"true"
"image-keyboard-response",123,93242,"0.0-3.37-1.37","amblbmvsjnlvt03",485,"12.csv","","null","resources/maskTrios/BT4B.jpg","null","",NA,NA,NA,NA,""
"image-keyboard-response",124,94453,"0.0-3.37-2.37","amblbmvsjnlvt03",485,"12.csv","","null","resources/images/coin2.png","null","",NA,NA,NA,NA,""
"image-keyboard-response",125,94470,"0.0-3.38-0.38","amblbmvsjnlvt03",485,"12.csv","","16","resources/trios/L2T4A1.jpg","38","restless",0.8,0.7,0.5,0.715843696138995,"false"
"image-keyboard-response",126,94875,"0.0-3.38-1.38","amblbmvsjnlvt03",485,"12.csv","","null","resources/maskTrios/BT4B.jpg","null","",NA,NA,NA,NA,""
"image-keyboard-response",127,96085,"0.0-3.38-2.38","amblbmvsjnlvt03",485,"12.csv","","null","resources/images/fishbone.png","null","",NA,NA,NA,NA,""
"image-keyboard-response",128,96719,"0.0-3.39-0.39","amblbmvsjnlvt03",485,"12.csv","","633.1000000014901","resources/trios/L2T4A3.jpg","39","restless",0.8,0.7,0.5,0.167244835676942,"true"
"image-keyboard-response",129,97133,"0.0-3.39-1.39","amblbmvsjnlvt03",485,"12.csv","","null","resources/maskTrios/BBA3.jpg","null","",NA,NA,NA,NA,""
"image-keyboard-response",130,98341,"0.0-3.39-2.39","amblbmvsjnlvt03",485,"12.csv","","null","resources/images/coin2.png","null","",NA,NA,NA,NA,""
"image-keyboard-response",131,98673,"0.0-3.40-0.40","amblbmvsjnlvt03",485,"12.csv","","331","resources/trios/L1T4A3.jpg","39","restless",0.8,0.7,0.5,0.121437129763433,"true"
"image-keyboard-response",132,99085,"0.0-3.40-1.40","amblbmvsjnlvt03",485,"12.csv","","null","resources/maskTrios/BBA3.jpg","null","",NA,NA,NA,NA,""
"image-keyboard-response",133,100291,"0.0-3.40-2.40","amblbmvsjnlvt03",485,"12.csv","","null","resources/images/coin2.png","null","",NA,NA,NA,NA,""
"image-keyboard-response",134,100462,"0.0-3.41-0.41","amblbmvsjnlvt03",485,"12.csv","","169.59999999403954","resources/trios/L1T4A3.jpg","39","restless",0.8,0.7,0.4,0.259963157559264,"true"
"image-keyboard-response",135,100869,"0.0-3.41-1.41","amblbmvsjnlvt03",485,"12.csv","","null","resources/maskTrios/BBA3.jpg","null","",NA,NA,NA,NA,""
"image-keyboard-response",136,102077,"0.0-3.41-2.41","amblbmvsjnlvt03",485,"12.csv","","null","resources/images/coin2.png","null","",NA,NA,NA,NA,""
"image-keyboard-response",137,102355,"0.0-3.42-0.42","amblbmvsjnlvt03",485,"12.csv","","276.8999999985099","resources/trios/L2T4A1.jpg","39","restless",0.8,0.7,0.4,0.378089996976945,"true"
"image-keyboard-response",138,102765,"0.0-3.42-1.42","amblbmvsjnlvt03",485,"12.csv","","null","resources/maskTrios/BBA1.jpg","null","",NA,NA,NA,NA,""
"image-keyboard-response",139,103970,"0.0-3.42-2.42","amblbmvsjnlvt03",485,"12.csv","","null","resources/images/coin2.png","null","",NA,NA,NA,NA,""
"image-keyboard-response",140,104442,"0.0-3.43-0.43","amblbmvsjnlvt03",485,"12.csv","","470.69999999552965","resources/trios/L1T2A3.jpg","39","restless",0.8,0.7,0.4,0.716190905573752,"false"
"image-keyboard-response",141,104853,"0.0-3.43-1.43","amblbmvsjnlvt03",485,"12.csv","","null","resources/maskTrios/BBA3.jpg","null","",NA,NA,NA,NA,""
"image-keyboard-response",142,106061,"0.0-3.43-2.43","amblbmvsjnlvt03",485,"12.csv","","null","resources/images/fishbone.png","null","",NA,NA,NA,NA,""
"image-keyboard-response",143,119836,"0.0-3.44-0.44","amblbmvsjnlvt03",485,"12.csv","","13774.29999999702","resources/trios/L1T4A3.jpg","39","restless",0.8,0.7,0.4,0.454453775702287,"false"
"image-keyboard-response",144,120242,"0.0-3.44-1.44","amblbmvsjnlvt03",485,"12.csv","","null","resources/maskTrios/BBA3.jpg","null","",NA,NA,NA,NA,""
"image-keyboard-response",145,121453,"0.0-3.44-2.44","amblbmvsjnlvt03",485,"12.csv","","null","resources/images/fishbone.png","null","",NA,NA,NA,NA,""
"image-keyboard-response",146,121881,"0.0-3.45-0.45","amblbmvsjnlvt03",485,"12.csv","","426.8999999985099","resources/trios/L1T4A3.jpg","37","restless",0.8,0.6,0.4,0.11033334902381,"true"
"image-keyboard-response",147,122288,"0.0-3.45-1.45","amblbmvsjnlvt03",485,"12.csv","","null","resources/maskTrios/L1BB.jpg","null","",NA,NA,NA,NA,""
"image-keyboard-response",148,123500,"0.0-3.45-2.45","amblbmvsjnlvt03",485,"12.csv","","null","resources/images/coin2.png","null","",NA,NA,NA,NA,""
"image-keyboard-response",149,127061,"0.0-3.46-0.46","amblbmvsjnlvt03",485,"12.csv","","3558.7999999970198","resources/trios/L1T2A3.jpg","37","restless",0.8,0.6,0.4,0.237999931042898,"true"
"image-keyboard-response",150,127469,"0.0-3.46-1.46","amblbmvsjnlvt03",485,"12.csv","","null","resources/maskTrios/L1BB.jpg","null","",NA,NA,NA,NA,""
"image-keyboard-response",151,128673,"0.0-3.46-2.46","amblbmvsjnlvt03",485,"12.csv","","null","resources/images/coin2.png","null","",NA,NA,NA,NA,""
"image-keyboard-response",152,129420,"0.0-3.47-0.47","amblbmvsjnlvt03",485,"12.csv","","745.8999999985099","resources/trios/L1T2A1.jpg","37","restless",0.8,0.5,0.4,0.337827250328617,"true"
"image-keyboard-response",153,129829,"0.0-3.47-1.47","amblbmvsjnlvt03",485,"12.csv","","null","resources/maskTrios/L1BB.jpg","null","",NA,NA,NA,NA,""
"image-keyboard-response",154,131037,"0.0-3.47-2.47","amblbmvsjnlvt03",485,"12.csv","","null","resources/images/coin2.png","null","",NA,NA,NA,NA,""
"image-keyboard-response",155,131890,"0.0-3.48-0.48","amblbmvsjnlvt03",485,"12.csv","","852.2999999970198","resources/trios/L1T2A3.jpg","37","restless",0.8,0.5,0.4,0.755762283620577,"true"
"image-keyboard-response",156,132297,"0.0-3.48-1.48","amblbmvsjnlvt03",485,"12.csv","","null","resources/maskTrios/L1BB.jpg","null","",NA,NA,NA,NA,""
"image-keyboard-response",157,133509,"0.0-3.48-2.48","amblbmvsjnlvt03",485,"12.csv","","null","resources/images/coin2.png","null","",NA,NA,NA,NA,""
"image-keyboard-response",158,136768,"0.0-3.49-0.49","amblbmvsjnlvt03",485,"12.csv","","3257.89999999851","resources/trios/L2T2A1.jpg","37","restless",0.8,0.6,0.4,0.880574645062566,"false"
"image-keyboard-response",159,137181,"0.0-3.49-1.49","amblbmvsjnlvt03",485,"12.csv","","null","resources/maskTrios/L2BB.jpg","null","",NA,NA,NA,NA,""
"image-keyboard-response",160,138388,"0.0-3.49-2.49","amblbmvsjnlvt03",485,"12.csv","","null","resources/images/fishbone.png","null","",NA,NA,NA,NA,""
"image-keyboard-response",161,138441,"0.0-3.50-0.50","amblbmvsjnlvt03",485,"12.csv","","51.100000001490116","resources/trios/L1T4A1.jpg","38","restless",0.8,0.6,0.4,0.370340327257182,"true"
"image-keyboard-response",162,138852,"0.0-3.50-1.50","amblbmvsjnlvt03",485,"12.csv","","null","resources/maskTrios/BT4B.jpg","null","",NA,NA,NA,NA,""
"image-keyboard-response",163,140060,"0.0-3.50-2.50","amblbmvsjnlvt03",485,"12.csv","","null","resources/images/coin2.png","null","",NA,NA,NA,NA,""
"image-keyboard-response",164,140265,"0.0-3.51-0.51","amblbmvsjnlvt03",485,"12.csv","","203.29999999701977","resources/trios/L1T2A3.jpg","38","restless",0.8,0.5,0.4,0.411519197961945,"true"
"image-keyboard-response",165,140677,"0.0-3.51-1.51","amblbmvsjnlvt03",485,"12.csv","","null","resources/maskTrios/BT2B.jpg","null","",NA,NA,NA,NA,""
"image-keyboard-response",166,141880,"0.0-3.51-2.51","amblbmvsjnlvt03",485,"12.csv","","null","resources/images/coin2.png","null","",NA,NA,NA,NA,""
"image-keyboard-response",167,149105,"0.0-3.52-0.52","amblbmvsjnlvt03",485,"12.csv","","7223.29999999702","resources/trios/L2T4A3.jpg","38","restless",0.8,0.5,0.4,0.9185599995952,"false"
"image-keyboard-response",168,149516,"0.0-3.52-1.52","amblbmvsjnlvt03",485,"12.csv","","null","resources/maskTrios/BT4B.jpg","null","",NA,NA,NA,NA,""
"image-keyboard-response",169,150720,"0.0-3.52-2.52","amblbmvsjnlvt03",485,"12.csv","","null","resources/images/fishbone.png","null","",NA,NA,NA,NA,""
"image-keyboard-response",170,152104,"0.0-3.53-0.53","amblbmvsjnlvt03",485,"12.csv","","1382.1999999955297","resources/trios/L2T2A1.jpg","37","restless",0.8,0.5,0.4,0.983918276670871,"false"
"image-keyboard-response",171,152516,"0.0-3.53-1.53","amblbmvsjnlvt03",485,"12.csv","","null","resources/maskTrios/L2BB.jpg","null","",NA,NA,NA,NA,""
"image-keyboard-response",172,153724,"0.0-3.53-2.53","amblbmvsjnlvt03",485,"12.csv","","null","resources/images/fishbone.png","null","",NA,NA,NA,NA,""
"image-keyboard-response",173,154575,"0.0-3.54-0.54","amblbmvsjnlvt03",485,"12.csv","","849.1000000014901","resources/trios/L1T4A1.jpg","39","restless",0.8,0.5,0.4,0.260971052889499,"true"
"image-keyboard-response",174,154984,"0.0-3.54-1.54","amblbmvsjnlvt03",485,"12.csv","","null","resources/maskTrios/BBA1.jpg","null","",NA,NA,NA,NA,""
"image-keyboard-response",175,156191,"0.0-3.54-2.54","amblbmvsjnlvt03",485,"12.csv","","null","resources/images/coin2.png","null","",NA,NA,NA,NA,""
"image-keyboard-response",176,159108,"0.0-3.55-0.55","amblbmvsjnlvt03",485,"12.csv","","2915","resources/trios/L2T2A1.jpg","39","restless",0.8,0.5,0.4,0.950186261919449,"false"
"image-keyboard-response",177,159516,"0.0-3.55-1.55","amblbmvsjnlvt03",485,"12.csv","","null","resources/maskTrios/BBA1.jpg","null","",NA,NA,NA,NA,""
"image-keyboard-response",178,160724,"0.0-3.55-2.55","amblbmvsjnlvt03",485,"12.csv","","null","resources/images/fishbone.png","null","",NA,NA,NA,NA,""
"image-keyboard-response",179,160844,"0.0-3.56-0.56","amblbmvsjnlvt03",485,"12.csv","","118.70000000298023","resources/trios/L1T4A1.jpg","38","restless",0.8,0.6,0.4,0.424276102097397,"true"
"image-keyboard-response",180,161250,"0.0-3.56-1.56","amblbmvsjnlvt03",485,"12.csv","","null","resources/maskTrios/BT4B.jpg","null","",NA,NA,NA,NA,""
"image-keyboard-response",181,162460,"0.0-3.56-2.56","amblbmvsjnlvt03",485,"12.csv","","null","resources/images/coin2.png","null","",NA,NA,NA,NA,""
"image-keyboard-response",182,162767,"0.0-3.57-0.57","amblbmvsjnlvt03",485,"12.csv","","305.20000000298023","resources/trios/L1T4A3.jpg","38","restless",0.8,0.6,0.4,0.136190547020081,"true"
"image-keyboard-response",183,163178,"0.0-3.57-1.57","amblbmvsjnlvt03",485,"12.csv","","null","resources/maskTrios/BT4B.jpg","null","",NA,NA,NA,NA,""
"image-keyboard-response",184,164388,"0.0-3.57-2.57","amblbmvsjnlvt03",485,"12.csv","","null","resources/images/coin2.png","null","",NA,NA,NA,NA,""
"image-keyboard-response",185,164920,"0.0-3.58-0.58","amblbmvsjnlvt03",485,"12.csv","","530","resources/trios/L1T2A1.jpg","38","restless",0.8,0.7,0.4,0.844359374309232,"false"
"image-keyboard-response",186,165332,"0.0-3.58-1.58","amblbmvsjnlvt03",485,"12.csv","","null","resources/maskTrios/BT2B.jpg","null","",NA,NA,NA,NA,""
"image-keyboard-response",187,166540,"0.0-3.58-2.58","amblbmvsjnlvt03",485,"12.csv","","null","resources/images/fishbone.png","null","",NA,NA,NA,NA,""
"image-keyboard-response",188,167064,"0.0-3.59-0.59","amblbmvsjnlvt03",485,"12.csv","","522.8000000044703","resources/trios/L2T4A3.jpg","37","restless",0.8,0.6,0.4,0.923625111292065,"false"
"image-keyboard-response",189,167476,"0.0-3.59-1.59","amblbmvsjnlvt03",485,"12.csv","","null","resources/maskTrios/L2BB.jpg","null","",NA,NA,NA,NA,""
"image-keyboard-response",190,168684,"0.0-3.59-2.59","amblbmvsjnlvt03",485,"12.csv","","null","resources/images/fishbone.png","null","",NA,NA,NA,NA,""
"image-keyboard-response",191,169036,"0.0-3.60-0.60","amblbmvsjnlvt03",485,"12.csv","","350.5","resources/trios/L1T4A3.jpg","39","restless",0.8,0.5,0.4,0.514906068865805,"false"
"image-keyboard-response",192,169440,"0.0-3.60-1.60","amblbmvsjnlvt03",485,"12.csv","","null","resources/maskTrios/BBA3.jpg","null","",NA,NA,NA,NA,""
"image-keyboard-response",193,170652,"0.0-3.60-2.60","amblbmvsjnlvt03",485,"12.csv","","null","resources/images/fishbone.png","null","",NA,NA,NA,NA,""
"image-keyboard-response",194,172027,"0.0-3.61-0.61","amblbmvsjnlvt03",485,"12.csv","","1373","resources/trios/L2T4A3.jpg","37","restless",0.7,0.5,0.4,0.694929119188618,"true"
"image-keyboard-response",195,172436,"0.0-3.61-1.61","amblbmvsjnlvt03",485,"12.csv","","null","resources/maskTrios/L2BB.jpg","null","",NA,NA,NA,NA,""
"image-keyboard-response",196,173644,"0.0-3.61-2.61","amblbmvsjnlvt03",485,"12.csv","","null","resources/images/coin2.png","null","",NA,NA,NA,NA,""
"image-keyboard-response",197,173740,"0.0-3.62-0.62","amblbmvsjnlvt03",485,"12.csv","","94.29999999701977","resources/trios/L2T4A3.jpg","37","restless",0.7,0.5,0.4,0.794457517248275,"false"
"image-keyboard-response",198,174144,"0.0-3.62-1.62","amblbmvsjnlvt03",485,"12.csv","","null","resources/maskTrios/L2BB.jpg","null","",NA,NA,NA,NA,""
"image-keyboard-response",199,175356,"0.0-3.62-2.62","amblbmvsjnlvt03",485,"12.csv","","null","resources/images/fishbone.png","null","",NA,NA,NA,NA,""
"image-keyboard-response",200,175673,"0.0-3.63-0.63","amblbmvsjnlvt03",485,"12.csv","","315.3999999985099","resources/trios/L2T2A1.jpg","38","restless",0.7,0.5,0.4,0.436888221881431,"true"
"image-keyboard-response",201,176084,"0.0-3.63-1.63","amblbmvsjnlvt03",485,"12.csv","","null","resources/maskTrios/BT2B.jpg","null","",NA,NA,NA,NA,""
"image-keyboard-response",202,177292,"0.0-3.63-2.63","amblbmvsjnlvt03",485,"12.csv","","null","resources/images/coin2.png","null","",NA,NA,NA,NA,""
"image-keyboard-response",203,177633,"0.0-3.64-0.64","amblbmvsjnlvt03",485,"12.csv","","339.5","resources/trios/L2T4A3.jpg","38","restless",0.7,0.5,0.4,0.155154296419708,"true"
"image-keyboard-response",204,178041,"0.0-3.64-1.64","amblbmvsjnlvt03",485,"12.csv","","null","resources/maskTrios/BT4B.jpg","null","",NA,NA,NA,NA,""
"image-keyboard-response",205,179250,"0.0-3.64-2.64","amblbmvsjnlvt03",485,"12.csv","","null","resources/images/coin2.png","null","",NA,NA,NA,NA,""
"image-keyboard-response",206,179420,"0.0-3.65-0.65","amblbmvsjnlvt03",485,"12.csv","","169.19999999552965","resources/trios/L2T2A1.jpg","38","restless",0.7,0.5,0.4,0.998355437575043,"false"
"image-keyboard-response",207,179828,"0.0-3.65-1.65","amblbmvsjnlvt03",485,"12.csv","","null","resources/maskTrios/BT2B.jpg","null","",NA,NA,NA,NA,""
"image-keyboard-response",208,181036,"0.0-3.65-2.65","amblbmvsjnlvt03",485,"12.csv","","null","resources/images/fishbone.png","null","",NA,NA,NA,NA,""
"image-keyboard-response",209,181385,"0.0-3.66-0.66","amblbmvsjnlvt03",485,"12.csv","","347.1000000014901","resources/trios/L2T2A1.jpg","37","restless",0.7,0.5,0.4,0.829696007530916,"false"
"image-keyboard-response",210,181792,"0.0-3.66-1.66","amblbmvsjnlvt03",485,"12.csv","","null","resources/maskTrios/L2BB.jpg","null","",NA,NA,NA,NA,""
"image-keyboard-response",211,183000,"0.0-3.66-2.66","amblbmvsjnlvt03",485,"12.csv","","null","resources/images/fishbone.png","null","",NA,NA,NA,NA,""
"image-keyboard-response",212,183439,"0.0-3.67-0.67","amblbmvsjnlvt03",485,"12.csv","","437.40000000596046","resources/trios/L2T4A3.jpg","39","restless",0.7,0.5,0.4,0.157861377692708,"true"
"image-keyboard-response",213,183852,"0.0-3.67-1.67","amblbmvsjnlvt03",485,"12.csv","","null","resources/maskTrios/BBA3.jpg","null","",NA,NA,NA,NA,""
"image-keyboard-response",214,185060,"0.0-3.67-2.67","amblbmvsjnlvt03",485,"12.csv","","null","resources/images/coin2.png","null","",NA,NA,NA,NA,""
"image-keyboard-response",215,185467,"0.0-3.68-0.68","amblbmvsjnlvt03",485,"12.csv","","405","resources/trios/L2T4A3.jpg","39","restless",0.7,0.5,0.4,0.986928345382252,"false"
"image-keyboard-response",216,185872,"0.0-3.68-1.68","amblbmvsjnlvt03",485,"12.csv","","null","resources/maskTrios/BBA3.jpg","null","",NA,NA,NA,NA,""
"image-keyboard-response",217,187084,"0.0-3.68-2.68","amblbmvsjnlvt03",485,"12.csv","","null","resources/images/fishbone.png","null","",NA,NA,NA,NA,""
"image-keyboard-response",218,188059,"0.0-3.69-0.69","amblbmvsjnlvt03",485,"12.csv","","973","resources/trios/L2T4A1.jpg","38","restless",0.7,0.5,0.4,0.668545332740765,"false"
"image-keyboard-response",219,188460,"0.0-3.69-1.69","amblbmvsjnlvt03",485,"12.csv","","null","resources/maskTrios/BT4B.jpg","null","",NA,NA,NA,NA,""
"image-keyboard-response",220,189668,"0.0-3.69-2.69","amblbmvsjnlvt03",485,"12.csv","","null","resources/images/fishbone.png","null","",NA,NA,NA,NA,""
"image-keyboard-response",221,189974,"0.0-3.70-0.70","amblbmvsjnlvt03",485,"12.csv","","304.6000000014901","resources/trios/L1T2A3.jpg","37","restless",0.7,0.5,0.4,0.806692764749832,"false"
"image-keyboard-response",222,190384,"0.0-3.70-1.70","amblbmvsjnlvt03",485,"12.csv","","null","resources/maskTrios/L1BB.jpg","null","",NA,NA,NA,NA,""
"image-keyboard-response",223,191593,"0.0-3.70-2.70","amblbmvsjnlvt03",485,"12.csv","","null","resources/images/fishbone.png","null","",NA,NA,NA,NA,""
"image-keyboard-response",224,192356,"0.0-3.71-0.71","amblbmvsjnlvt03",485,"12.csv","","761.8000000044703","resources/trios/L2T4A1.jpg","39","restless",0.7,0.5,0.4,0.938447930880756,"false"
"image-keyboard-response",225,192764,"0.0-3.71-1.71","amblbmvsjnlvt03",485,"12.csv","","null","resources/maskTrios/BBA1.jpg","null","",NA,NA,NA,NA,""
"image-keyboard-response",226,193972,"0.0-3.71-2.71","amblbmvsjnlvt03",485,"12.csv","","null","resources/images/fishbone.png","null","",NA,NA,NA,NA,""
"image-keyboard-response",227,194403,"0.0-3.72-0.72","amblbmvsjnlvt03",485,"12.csv","","429.8999999985099","resources/trios/L1T2A1.jpg","38","restless",0.7,0.5,0.4,0.048469528161162,"true"
"image-keyboard-response",228,194808,"0.0-3.72-1.72","amblbmvsjnlvt03",485,"12.csv","","null","resources/maskTrios/BT2B.jpg","null","",NA,NA,NA,NA,""
"image-keyboard-response",229,196020,"0.0-3.72-2.72","amblbmvsjnlvt03",485,"12.csv","","null","resources/images/coin2.png","null","",NA,NA,NA,NA,""
"image-keyboard-response",230,196373,"0.0-3.73-0.73","amblbmvsjnlvt03",485,"12.csv","","351.5","resources/trios/L1T2A1.jpg","38","restless",0.7,0.4,0.4,0.261558226278445,"true"
"image-keyboard-response",231,196776,"0.0-3.73-1.73","amblbmvsjnlvt03",485,"12.csv","","null","resources/maskTrios/BT2B.jpg","null","",NA,NA,NA,NA,""
"image-keyboard-response",232,197988,"0.0-3.73-2.73","amblbmvsjnlvt03",485,"12.csv","","null","resources/images/coin2.png","null","",NA,NA,NA,NA,""
"image-keyboard-response",233,198683,"0.0-3.74-0.74","amblbmvsjnlvt03",485,"12.csv","","693.5","resources/trios/L2T2A3.jpg","38","restless",0.6,0.4,0.4,0.185741648866624,"true"
"image-keyboard-response",234,199092,"0.0-3.74-1.74","amblbmvsjnlvt03",485,"12.csv","","null","resources/maskTrios/BT2B.jpg","null","",NA,NA,NA,NA,""
"image-keyboard-response",235,200296,"0.0-3.74-2.74","amblbmvsjnlvt03",485,"12.csv","","null","resources/images/coin2.png","null","",NA,NA,NA,NA,""
"image-keyboard-response",236,200829,"0.0-3.75-0.75","amblbmvsjnlvt03",485,"12.csv","","531","resources/trios/L1T4A3.jpg","38","restless",0.6,0.4,0.4,0.248467000140554,"true"
"image-keyboard-response",237,201231,"0.0-3.75-1.75","amblbmvsjnlvt03",485,"12.csv","","null","resources/maskTrios/BT4B.jpg","null","",NA,NA,NA,NA,""
"image-keyboard-response",238,202441,"0.0-3.75-2.75","amblbmvsjnlvt03",485,"12.csv","","null","resources/images/coin2.png","null","",NA,NA,NA,NA,""
"image-keyboard-response",239,202545,"0.0-3.76-0.76","amblbmvsjnlvt03",485,"12.csv","","102.10000000149012","resources/trios/L1T2A1.jpg","38","restless",0.6,0.4,0.4,0.42861407743194,"false"
"image-keyboard-response",240,202956,"0.0-3.76-1.76","amblbmvsjnlvt03",485,"12.csv","","null","resources/maskTrios/BT2B.jpg","null","",NA,NA,NA,NA,""
"image-keyboard-response",241,204164,"0.0-3.76-2.76","amblbmvsjnlvt03",485,"12.csv","","null","resources/images/fishbone.png","null","",NA,NA,NA,NA,""
"image-keyboard-response",242,204298,"0.0-3.77-0.77","amblbmvsjnlvt03",485,"12.csv","","133.10000000149012","resources/trios/L1T2A1.jpg","37","restless",0.7,0.4,0.4,0.466251758583229,"true"
"image-keyboard-response",243,204700,"0.0-3.77-1.77","amblbmvsjnlvt03",485,"12.csv","","null","resources/maskTrios/L1BB.jpg","null","",NA,NA,NA,NA,""
"image-keyboard-response",244,205908,"0.0-3.77-2.77","amblbmvsjnlvt03",485,"12.csv","","null","resources/images/coin2.png","null","",NA,NA,NA,NA,""
"image-keyboard-response",245,206735,"0.0-3.78-0.78","amblbmvsjnlvt03",485,"12.csv","","825.1000000014901","resources/trios/L2T2A1.jpg","37","restless",0.7,0.4,0.4,0.938040045898789,"false"
"image-keyboard-response",246,207144,"0.0-3.78-1.78","amblbmvsjnlvt03",485,"12.csv","","null","resources/maskTrios/L2BB.jpg","null","",NA,NA,NA,NA,""
"image-keyboard-response",247,208356,"0.0-3.78-2.78","amblbmvsjnlvt03",485,"12.csv","","null","resources/images/fishbone.png","null","",NA,NA,NA,NA,""
"image-keyboard-response",248,208754,"0.0-3.79-0.79","amblbmvsjnlvt03",485,"12.csv","","396.8999999985099","resources/trios/L1T2A3.jpg","39","restless",0.7,0.4,0.4,0.665593543777411,"false"
"image-keyboard-response",249,209160,"0.0-3.79-1.79","amblbmvsjnlvt03",485,"12.csv","","null","resources/maskTrios/BBA3.jpg","null","",NA,NA,NA,NA,""
"image-keyboard-response",250,210367,"0.0-3.79-2.79","amblbmvsjnlvt03",485,"12.csv","","null","resources/images/fishbone.png","null","",NA,NA,NA,NA,""
"image-keyboard-response",251,210506,"0.0-3.80-0.80","amblbmvsjnlvt03",485,"12.csv","","137.19999999552965","resources/trios/L2T2A3.jpg","39","restless",0.7,0.4,0.4,0.0700751764489633,"true"
"image-keyboard-response",252,210916,"0.0-3.80-1.80","amblbmvsjnlvt03",485,"12.csv","","null","resources/maskTrios/BBA3.jpg","null","",NA,NA,NA,NA,""
"image-keyboard-response",253,212124,"0.0-3.80-2.80","amblbmvsjnlvt03",485,"12.csv","","null","resources/images/coin2.png","null","",NA,NA,NA,NA,""
"image-keyboard-response",254,212379,"0.0-3.81-0.81","amblbmvsjnlvt03",485,"12.csv","","253.59999999403954","resources/trios/L2T4A1.jpg","39","restless",0.7,0.4,0.4,0.0358581394944495,"true"
"image-keyboard-response",255,212788,"0.0-3.81-1.81","amblbmvsjnlvt03",485,"12.csv","","null","resources/maskTrios/BBA1.jpg","null","",NA,NA,NA,NA,""
"image-keyboard-response",256,213992,"0.0-3.81-2.81","amblbmvsjnlvt03",485,"12.csv","","null","resources/images/coin2.png","null","",NA,NA,NA,NA,""
"image-keyboard-response",257,214767,"0.0-3.82-0.82","amblbmvsjnlvt03",485,"12.csv","","773.5","resources/trios/L1T4A1.jpg","39","restless",0.7,0.4,0.4,0.828192433463994,"false"
"image-keyboard-response",258,215180,"0.0-3.82-1.82","amblbmvsjnlvt03",485,"12.csv","","null","resources/maskTrios/BBA1.jpg","null","",NA,NA,NA,NA,""
"image-keyboard-response",259,216388,"0.0-3.82-2.82","amblbmvsjnlvt03",485,"12.csv","","null","resources/images/fishbone.png","null","",NA,NA,NA,NA,""
"image-keyboard-response",260,217213,"0.0-3.83-0.83","amblbmvsjnlvt03",485,"12.csv","","824.1000000014901","resources/trios/L2T2A1.jpg","38","restless",0.7,0.4,0.4,0.189469968661044,"true"
"image-keyboard-response",261,217620,"0.0-3.83-1.83","amblbmvsjnlvt03",485,"12.csv","","null","resources/maskTrios/BT2B.jpg","null","",NA,NA,NA,NA,""
"image-keyboard-response",262,218826,"0.0-3.83-2.83","amblbmvsjnlvt03",485,"12.csv","","null","resources/images/coin2.png","null","",NA,NA,NA,NA,""
"image-keyboard-response",263,219617,"0.0-3.84-0.84","amblbmvsjnlvt03",485,"12.csv","","789.7999999970198","resources/trios/L2T4A3.jpg","38","restless",0.7,0.4,0.4,0.552974837927354,"false"
"image-keyboard-response",264,220025,"0.0-3.84-1.84","amblbmvsjnlvt03",485,"12.csv","","null","resources/maskTrios/BT4B.jpg","null","",NA,NA,NA,NA,""
"image-keyboard-response",265,221233,"0.0-3.84-2.84","amblbmvsjnlvt03",485,"12.csv","","null","resources/images/fishbone.png","null","",NA,NA,NA,NA,""
"image-keyboard-response",266,222293,"0.0-3.85-0.85","amblbmvsjnlvt03",485,"12.csv","","1057.8999999985099","resources/trios/L1T4A1.jpg","37","restless",0.7,0.4,0.4,0.717292469545128,"false"
"image-keyboard-response",267,222697,"0.0-3.85-1.85","amblbmvsjnlvt03",485,"12.csv","","null","resources/maskTrios/L1BB.jpg","null","",NA,NA,NA,NA,""
"image-keyboard-response",268,223908,"0.0-3.85-2.85","amblbmvsjnlvt03",485,"12.csv","","null","resources/images/fishbone.png","null","",NA,NA,NA,NA,""
"image-keyboard-response",269,224398,"0.0-3.86-0.86","amblbmvsjnlvt03",485,"12.csv","","488.3999999985099","resources/trios/L1T4A3.jpg","39","restless",0.7,0.4,0.5,0.107249134061883,"true"
"image-keyboard-response",270,224809,"0.0-3.86-1.86","amblbmvsjnlvt03",485,"12.csv","","null","resources/maskTrios/BBA3.jpg","null","",NA,NA,NA,NA,""
"image-keyboard-response",271,226020,"0.0-3.86-2.86","amblbmvsjnlvt03",485,"12.csv","","null","resources/images/coin2.png","null","",NA,NA,NA,NA,""
"image-keyboard-response",272,226810,"0.0-3.87-0.87","amblbmvsjnlvt03",485,"12.csv","","788.3999999985099","resources/trios/L1T4A1.jpg","39","restless",0.7,0.4,0.5,0.753308375748558,"false"
"image-keyboard-response",273,227217,"0.0-3.87-1.87","amblbmvsjnlvt03",485,"12.csv","","null","resources/maskTrios/BBA1.jpg","null","",NA,NA,NA,NA,""
"image-keyboard-response",274,228419,"0.0-3.87-2.87","amblbmvsjnlvt03",485,"12.csv","","null","resources/images/fishbone.png","null","",NA,NA,NA,NA,""
"image-keyboard-response",275,229033,"0.0-3.88-0.88","amblbmvsjnlvt03",485,"12.csv","","612.5999999940395","resources/trios/L1T4A1.jpg","37","restless",0.7,0.5,0.5,0.868995845227749,"false"
"image-keyboard-response",276,229440,"0.0-3.88-1.88","amblbmvsjnlvt03",485,"12.csv","","null","resources/maskTrios/L1BB.jpg","null","",NA,NA,NA,NA,""
"image-keyboard-response",277,230652,"0.0-3.88-2.88","amblbmvsjnlvt03",485,"12.csv","","null","resources/images/fishbone.png","null","",NA,NA,NA,NA,""
"image-keyboard-response",278,234220,"0.0-3.89-0.89","amblbmvsjnlvt03",485,"12.csv","","3566.6999999955297","resources/trios/L2T4A1.jpg","37","restless",0.7,0.5,0.5,0.362843917680132,"true"
"image-keyboard-response",279,234627,"0.0-3.89-1.89","amblbmvsjnlvt03",485,"12.csv","","null","resources/maskTrios/L2BB.jpg","null","",NA,NA,NA,NA,""
"image-keyboard-response",280,235836,"0.0-3.89-2.89","amblbmvsjnlvt03",485,"12.csv","","null","resources/images/coin2.png","null","",NA,NA,NA,NA,""
"image-keyboard-response",281,240291,"0.0-3.90-0.90","amblbmvsjnlvt03",485,"12.csv","","4453.79999999702","resources/trios/L1T2A1.jpg","37","restless",0.7,0.5,0.5,0.681904645008773,"true"
"image-keyboard-response",282,240696,"0.0-3.90-1.90","amblbmvsjnlvt03",485,"12.csv","","null","resources/maskTrios/L1BB.jpg","null","",NA,NA,NA,NA,""
"image-keyboard-response",283,241908,"0.0-3.90-2.90","amblbmvsjnlvt03",485,"12.csv","","null","resources/images/coin2.png","null","",NA,NA,NA,NA,""
"image-keyboard-response",284,242743,"0.0-3.91-0.91","amblbmvsjnlvt03",485,"12.csv","","834.1000000014901","resources/trios/L2T2A1.jpg","37","restless",0.7,0.5,0.5,0.154181859480454,"true"
"image-keyboard-response",285,243156,"0.0-3.91-1.91","amblbmvsjnlvt03",485,"12.csv","","null","resources/maskTrios/L2BB.jpg","null","",NA,NA,NA,NA,""
"image-keyboard-response",286,244363,"0.0-3.91-2.91","amblbmvsjnlvt03",485,"12.csv","","null","resources/images/coin2.png","null","",NA,NA,NA,NA,""
"image-keyboard-response",287,244993,"0.0-3.92-0.92","amblbmvsjnlvt03",485,"12.csv","","629.2000000029802","resources/trios/L2T2A1.jpg","37","restless",0.7,0.5,0.5,0.775109682759343,"false"
"image-keyboard-response",288,245404,"0.0-3.92-1.92","amblbmvsjnlvt03",485,"12.csv","","null","resources/maskTrios/L2BB.jpg","null","",NA,NA,NA,NA,""
"image-keyboard-response",289,246611,"0.0-3.92-2.92","amblbmvsjnlvt03",485,"12.csv","","null","resources/images/fishbone.png","null","",NA,NA,NA,NA,""
"image-keyboard-response",290,247372,"0.0-3.93-0.93","amblbmvsjnlvt03",485,"12.csv","","759.2999999970198","resources/trios/L2T2A1.jpg","37","restless",0.7,0.5,0.5,0.0563716260061984,"true"
"image-keyboard-response",291,247780,"0.0-3.93-1.93","amblbmvsjnlvt03",485,"12.csv","","null","resources/maskTrios/L2BB.jpg","null","",NA,NA,NA,NA,""
"image-keyboard-response",292,248988,"0.0-3.93-2.93","amblbmvsjnlvt03",485,"12.csv","","null","resources/images/coin2.png","null","",NA,NA,NA,NA,""
"image-keyboard-response",293,249847,"0.0-3.94-0.94","amblbmvsjnlvt03",485,"12.csv","","857.7999999970198","resources/trios/L2T4A1.jpg","37","restless",0.7,0.5,0.5,0.00560044890921407,"true"
"image-keyboard-response",294,250260,"0.0-3.94-1.94","amblbmvsjnlvt03",485,"12.csv","","null","resources/maskTrios/L2BB.jpg","null","",NA,NA,NA,NA,""
"image-keyboard-response",295,251468,"0.0-3.94-2.94","amblbmvsjnlvt03",485,"12.csv","","null","resources/images/coin2.png","null","",NA,NA,NA,NA,""
"image-keyboard-response",296,253046,"0.0-3.95-0.95","amblbmvsjnlvt03",485,"12.csv","","1576.6000000014901","resources/trios/L2T2A1.jpg","37","restless",0.7,0.5,0.5,0.326182364877754,"true"
"image-keyboard-response",297,253460,"0.0-3.95-1.95","amblbmvsjnlvt03",485,"12.csv","","null","resources/maskTrios/L2BB.jpg","null","",NA,NA,NA,NA,""
"image-keyboard-response",298,254668,"0.0-3.95-2.95","amblbmvsjnlvt03",485,"12.csv","","null","resources/images/coin2.png","null","",NA,NA,NA,NA,""
"image-keyboard-response",299,255229,"0.0-3.96-0.96","amblbmvsjnlvt03",485,"12.csv","","559.8999999985099","resources/trios/L1T2A3.jpg","37","restless",0.7,0.5,0.5,0.785821861276183,"false"
"image-keyboard-response",300,255636,"0.0-3.96-1.96","amblbmvsjnlvt03",485,"12.csv","","null","resources/maskTrios/L1BB.jpg","null","",NA,NA,NA,NA,""
"image-keyboard-response",301,256844,"0.0-3.96-2.96","amblbmvsjnlvt03",485,"12.csv","","null","resources/images/fishbone.png","null","",NA,NA,NA,NA,""
"image-keyboard-response",302,256957,"0.0-3.97-0.97","amblbmvsjnlvt03",485,"12.csv","","111.5","resources/trios/L2T2A3.jpg","39","restless",0.7,0.5,0.5,0.638991585263439,"false"
"image-keyboard-response",303,257364,"0.0-3.97-1.97","amblbmvsjnlvt03",485,"12.csv","","null","resources/maskTrios/BBA3.jpg","null","",NA,NA,NA,NA,""
"image-keyboard-response",304,258572,"0.0-3.97-2.97","amblbmvsjnlvt03",485,"12.csv","","null","resources/images/fishbone.png","null","",NA,NA,NA,NA,""
"image-keyboard-response",305,259294,"0.0-3.98-0.98","amblbmvsjnlvt03",485,"12.csv","","721.5","resources/trios/L1T2A3.jpg","38","restless",0.7,0.5,0.5,0.825243161311346,"false"
"image-keyboard-response",306,259708,"0.0-3.98-1.98","amblbmvsjnlvt03",485,"12.csv","","null","resources/maskTrios/BT2B.jpg","null","",NA,NA,NA,NA,""
"image-keyboard-response",307,260916,"0.0-3.98-2.98","amblbmvsjnlvt03",485,"12.csv","","null","resources/images/fishbone.png","null","",NA,NA,NA,NA,""
"image-keyboard-response",308,261465,"0.0-3.99-0.99","amblbmvsjnlvt03",485,"12.csv","","548.2999999970198","resources/trios/L2T4A1.jpg","37","restless",0.7,0.5,0.5,0.212057485321484,"true"
"image-keyboard-response",309,261874,"0.0-3.99-1.99","amblbmvsjnlvt03",485,"12.csv","","null","resources/maskTrios/L2BB.jpg","null","",NA,NA,NA,NA,""
"image-keyboard-response",310,263084,"0.0-3.99-2.99","amblbmvsjnlvt03",485,"12.csv","","null","resources/images/coin2.png","null","",NA,NA,NA,NA,""
"image-keyboard-response",311,263412,"0.0-3.100-0.100","amblbmvsjnlvt03",485,"12.csv","","326.6000000014901","resources/trios/L2T2A1.jpg","37","restless",0.7,0.5,0.5,0.0011802383963766,"true"
"image-keyboard-response",312,263819,"0.0-3.100-1.100","amblbmvsjnlvt03",485,"12.csv","","null","resources/maskTrios/L2BB.jpg","null","",NA,NA,NA,NA,""
"image-keyboard-response",313,265028,"0.0-3.100-2.100","amblbmvsjnlvt03",485,"12.csv","","null","resources/images/coin2.png","null","",NA,NA,NA,NA,""
"image-keyboard-response",314,265283,"0.0-3.101-0.101","amblbmvsjnlvt03",485,"12.csv","","254.30000000447035","resources/trios/L1T4A1.jpg","37","restless",0.7,0.5,0.5,0.56515621428161,"true"
"image-keyboard-response",315,265692,"0.0-3.101-1.101","amblbmvsjnlvt03",485,"12.csv","","null","resources/maskTrios/L1BB.jpg","null","",NA,NA,NA,NA,""
"image-keyboard-response",316,266896,"0.0-3.101-2.101","amblbmvsjnlvt03",485,"12.csv","","null","resources/images/coin2.png","null","",NA,NA,NA,NA,""
"image-keyboard-response",317,266943,"0.0-3.102-0.102","amblbmvsjnlvt03",485,"12.csv","","45.69999999552965","resources/trios/L2T4A1.jpg","37","restless",0.7,0.5,0.5,0.679769615025699,"true"
"image-keyboard-response",318,267356,"0.0-3.102-1.102","amblbmvsjnlvt03",485,"12.csv","","null","resources/maskTrios/L2BB.jpg","null","",NA,NA,NA,NA,""
"image-keyboard-response",319,268564,"0.0-3.102-2.102","amblbmvsjnlvt03",485,"12.csv","","null","resources/images/coin2.png","null","",NA,NA,NA,NA,""
"image-keyboard-response",320,269038,"0.0-3.103-0.103","amblbmvsjnlvt03",485,"12.csv","","472.8999999985099","resources/trios/L2T4A3.jpg","37","restless",0.7,0.5,0.5,0.743517731492511,"false"
"image-keyboard-response",321,269452,"0.0-3.103-1.103","amblbmvsjnlvt03",485,"12.csv","","null","resources/maskTrios/L2BB.jpg","null","",NA,NA,NA,NA,""
"image-keyboard-response",322,270656,"0.0-3.103-2.103","amblbmvsjnlvt03",485,"12.csv","","null","resources/images/fishbone.png","null","",NA,NA,NA,NA,""
"image-keyboard-response",323,271254,"0.0-3.104-0.104","amblbmvsjnlvt03",485,"12.csv","","597","resources/trios/L2T2A3.jpg","37","restless",0.7,0.5,0.6,0.79576885530962,"false"
"image-keyboard-response",324,271668,"0.0-3.104-1.104","amblbmvsjnlvt03",485,"12.csv","","null","resources/maskTrios/L2BB.jpg","null","",NA,NA,NA,NA,""
"image-keyboard-response",325,272874,"0.0-3.104-2.104","amblbmvsjnlvt03",485,"12.csv","","null","resources/images/fishbone.png","null","",NA,NA,NA,NA,""
"image-keyboard-response",326,273195,"0.0-3.105-0.105","amblbmvsjnlvt03",485,"12.csv","","319.29999999701977","resources/trios/L2T4A3.jpg","38","restless",0.7,0.5,0.6,0.908046115898159,"false"
"image-keyboard-response",327,273602,"0.0-3.105-1.105","amblbmvsjnlvt03",485,"12.csv","","null","resources/maskTrios/BT4B.jpg","null","",NA,NA,NA,NA,""
"image-keyboard-response",328,274812,"0.0-3.105-2.105","amblbmvsjnlvt03",485,"12.csv","","null","resources/images/fishbone.png","null","",NA,NA,NA,NA,""
"image-keyboard-response",329,275147,"0.0-3.106-0.106","amblbmvsjnlvt03",485,"12.csv","","334.19999999552965","resources/trios/L1T4A1.jpg","39","restless",0.7,0.5,0.6,0.944431954245093,"false"
"image-keyboard-response",330,275556,"0.0-3.106-1.106","amblbmvsjnlvt03",485,"12.csv","","null","resources/maskTrios/BBA1.jpg","null","",NA,NA,NA,NA,""
"image-keyboard-response",331,276763,"0.0-3.106-2.106","amblbmvsjnlvt03",485,"12.csv","","null","resources/images/fishbone.png","null","",NA,NA,NA,NA,""
"image-keyboard-response",332,277028,"0.0-3.107-0.107","amblbmvsjnlvt03",485,"12.csv","","263.29999999701977","resources/trios/L1T2A3.jpg","37","restless",0.7,0.5,0.6,0.9134926849809,"false"
"image-keyboard-response",333,277435,"0.0-3.107-1.107","amblbmvsjnlvt03",485,"12.csv","","null","resources/maskTrios/L1BB.jpg","null","",NA,NA,NA,NA,""
"image-keyboard-response",334,278640,"0.0-3.107-2.107","amblbmvsjnlvt03",485,"12.csv","","null","resources/images/fishbone.png","null","",NA,NA,NA,NA,""
"image-keyboard-response",335,279004,"0.0-3.108-0.108","amblbmvsjnlvt03",485,"12.csv","","362.30000000447035","resources/trios/L2T2A3.jpg","38","restless",0.7,0.5,0.5,0.545802707038795,"false"
"image-keyboard-response",336,279411,"0.0-3.108-1.108","amblbmvsjnlvt03",485,"12.csv","","null","resources/maskTrios/BT2B.jpg","null","",NA,NA,NA,NA,""
"image-keyboard-response",337,280620,"0.0-3.108-2.108","amblbmvsjnlvt03",485,"12.csv","","null","resources/images/fishbone.png","null","",NA,NA,NA,NA,""
"image-keyboard-response",338,280712,"0.0-3.109-0.109","amblbmvsjnlvt03",485,"12.csv","","90.89999999850988","resources/trios/L2T4A1.jpg","37","restless",0.7,0.5,0.5,0.801145514782389,"false"
"image-keyboard-response",339,281119,"0.0-3.109-1.109","amblbmvsjnlvt03",485,"12.csv","","null","resources/maskTrios/L2BB.jpg","null","",NA,NA,NA,NA,""
"image-keyboard-response",340,282330,"0.0-3.109-2.109","amblbmvsjnlvt03",485,"12.csv","","null","resources/images/fishbone.png","null","",NA,NA,NA,NA,""
"image-keyboard-response",341,283950,"0.0-3.110-0.110","amblbmvsjnlvt03",485,"12.csv","","1618.7999999970198","resources/trios/L1T2A1.jpg","39","restless",0.7,0.5,0.5,0.0518301665465206,"true"
"image-keyboard-response",342,284362,"0.0-3.110-1.110","amblbmvsjnlvt03",485,"12.csv","","null","resources/maskTrios/BBA1.jpg","null","",NA,NA,NA,NA,""
"image-keyboard-response",343,285571,"0.0-3.110-2.110","amblbmvsjnlvt03",485,"12.csv","","null","resources/images/coin2.png","null","",NA,NA,NA,NA,""
"image-keyboard-response",344,286006,"0.0-3.111-0.111","amblbmvsjnlvt03",485,"12.csv","","432.69999999552965","resources/trios/L1T2A3.jpg","39","restless",0.7,0.5,0.5,0.245180265978622,"true"
"image-keyboard-response",345,286415,"0.0-3.111-1.111","amblbmvsjnlvt03",485,"12.csv","","null","resources/maskTrios/BBA3.jpg","null","",NA,NA,NA,NA,""
"image-keyboard-response",346,287624,"0.0-3.111-2.111","amblbmvsjnlvt03",485,"12.csv","","null","resources/images/coin2.png","null","",NA,NA,NA,NA,""
"image-keyboard-response",347,289098,"0.0-3.112-0.112","amblbmvsjnlvt03",485,"12.csv","","1472.7999999970198","resources/trios/L2T2A3.jpg","39","restless",0.7,0.5,0.4,0.69529080502513,"false"
"image-keyboard-response",348,289507,"0.0-3.112-1.112","amblbmvsjnlvt03",485,"12.csv","","null","resources/maskTrios/BBA3.jpg","null","",NA,NA,NA,NA,""
"image-keyboard-response",349,290715,"0.0-3.112-2.112","amblbmvsjnlvt03",485,"12.csv","","null","resources/images/fishbone.png","null","",NA,NA,NA,NA,""
"image-keyboard-response",350,291333,"0.0-3.113-0.113","amblbmvsjnlvt03",485,"12.csv","","616.1000000014901","resources/trios/L1T4A1.jpg","37","restless",0.7,0.4,0.4,0.923318291048254,"false"
"image-keyboard-response",351,291739,"0.0-3.113-1.113","amblbmvsjnlvt03",485,"12.csv","","null","resources/maskTrios/L1BB.jpg","null","",NA,NA,NA,NA,""
"image-keyboard-response",352,292944,"0.0-3.113-2.113","amblbmvsjnlvt03",485,"12.csv","","null","resources/images/fishbone.png","null","",NA,NA,NA,NA,""
"image-keyboard-response",353,293369,"0.0-3.114-0.114","amblbmvsjnlvt03",485,"12.csv","","423.69999999552965","resources/trios/L1T4A3.jpg","38","restless",0.8,0.3,0.4,0.680221565654522,"false"
"image-keyboard-response",354,293779,"0.0-3.114-1.114","amblbmvsjnlvt03",485,"12.csv","","null","resources/maskTrios/BT4B.jpg","null","",NA,NA,NA,NA,""
"image-keyboard-response",355,294987,"0.0-3.114-2.114","amblbmvsjnlvt03",485,"12.csv","","null","resources/images/fishbone.png","null","",NA,NA,NA,NA,""
"image-keyboard-response",356,295307,"0.0-3.115-0.115","amblbmvsjnlvt03",485,"12.csv","","318.3999999985099","resources/trios/L2T4A3.jpg","39","restless",0.8,0.3,0.4,0.918831173597729,"false"
"image-keyboard-response",357,295715,"0.0-3.115-1.115","amblbmvsjnlvt03",485,"12.csv","","null","resources/maskTrios/BBA3.jpg","null","",NA,NA,NA,NA,""
"image-keyboard-response",358,296923,"0.0-3.115-2.115","amblbmvsjnlvt03",485,"12.csv","","null","resources/images/fishbone.png","null","",NA,NA,NA,NA,""
"image-keyboard-response",359,297444,"0.0-3.116-0.116","amblbmvsjnlvt03",485,"12.csv","","518.7999999970198","resources/trios/L2T4A3.jpg","37","restless",0.8,0.3,0.4,0.78826826139987,"true"
"image-keyboard-response",360,297851,"0.0-3.116-1.116","amblbmvsjnlvt03",485,"12.csv","","null","resources/maskTrios/L2BB.jpg","null","",NA,NA,NA,NA,""
"image-keyboard-response",361,299059,"0.0-3.116-2.116","amblbmvsjnlvt03",485,"12.csv","","null","resources/images/coin2.png","null","",NA,NA,NA,NA,""
"image-keyboard-response",362,299768,"0.0-3.117-0.117","amblbmvsjnlvt03",485,"12.csv","","706.5999999940395","resources/trios/L2T2A1.jpg","37","restless",0.8,0.3,0.4,0.0562063963057542,"true"
"image-keyboard-response",363,300179,"0.0-3.117-1.117","amblbmvsjnlvt03",485,"12.csv","","null","resources/maskTrios/L2BB.jpg","null","",NA,NA,NA,NA,""
"image-keyboard-response",364,301387,"0.0-3.117-2.117","amblbmvsjnlvt03",485,"12.csv","","null","resources/images/coin2.png","null","",NA,NA,NA,NA,""
"image-keyboard-response",365,302082,"0.0-3.118-0.118","amblbmvsjnlvt03",485,"12.csv","","693.7000000029802","resources/trios/L1T2A3.jpg","37","restless",0.8,0.3,0.4,0.345283419774716,"true"
"image-keyboard-response",366,302488,"0.0-3.118-1.118","amblbmvsjnlvt03",485,"12.csv","","null","resources/maskTrios/L1BB.jpg","null","",NA,NA,NA,NA,""
"image-keyboard-response",367,303699,"0.0-3.118-2.118","amblbmvsjnlvt03",485,"12.csv","","null","resources/images/coin2.png","null","",NA,NA,NA,NA,""
"image-keyboard-response",368,305589,"0.0-3.119-0.119","amblbmvsjnlvt03",485,"12.csv","","1888.7000000029802","resources/trios/L1T2A3.jpg","37","restless",0.8,0.3,0.4,0.442667738102489,"true"
"image-keyboard-response",369,305999,"0.0-3.119-1.119","amblbmvsjnlvt03",485,"12.csv","","null","resources/maskTrios/L1BB.jpg","null","",NA,NA,NA,NA,""
"image-keyboard-response",370,307211,"0.0-3.119-2.119","amblbmvsjnlvt03",485,"12.csv","","null","resources/images/coin2.png","null","",NA,NA,NA,NA,""
"image-keyboard-response",371,308641,"0.0-3.120-0.120","amblbmvsjnlvt03",485,"12.csv","","1428","resources/trios/L2T2A1.jpg","37","restless",0.8,0.3,0.4,0.440282899071248,"true"
"image-keyboard-response",372,309051,"0.0-3.120-1.120","amblbmvsjnlvt03",485,"12.csv","","null","resources/maskTrios/L2BB.jpg","null","",NA,NA,NA,NA,""
"image-keyboard-response",373,310259,"0.0-3.120-2.120","amblbmvsjnlvt03",485,"12.csv","","null","resources/images/coin2.png","null","",NA,NA,NA,NA,""
"image-keyboard-response",374,311344,"0.0-3.121-0.121","amblbmvsjnlvt03",485,"12.csv","","1083.5","resources/trios/L1T2A3.jpg","37","restless",0.7,0.3,0.4,0.77833350417801,"false"
"image-keyboard-response",375,311755,"0.0-3.121-1.121","amblbmvsjnlvt03",485,"12.csv","","null","resources/maskTrios/L1BB.jpg","null","",NA,NA,NA,NA,""
"image-keyboard-response",376,312963,"0.0-3.121-2.121","amblbmvsjnlvt03",485,"12.csv","","null","resources/images/fishbone.png","null","",NA,NA,NA,NA,""
"image-keyboard-response",377,313480,"0.0-3.122-0.122","amblbmvsjnlvt03",485,"12.csv","","515.3999999985099","resources/trios/L2T4A3.jpg","39","restless",0.7,0.3,0.4,0.549357715155246,"false"
"image-keyboard-response",378,313891,"0.0-3.122-1.122","amblbmvsjnlvt03",485,"12.csv","","null","resources/maskTrios/BBA3.jpg","null","",NA,NA,NA,NA,""
"image-keyboard-response",379,315096,"0.0-3.122-2.122","amblbmvsjnlvt03",485,"12.csv","","null","resources/images/fishbone.png","null","",NA,NA,NA,NA,""
"image-keyboard-response",380,315361,"0.0-3.123-0.123","amblbmvsjnlvt03",485,"12.csv","","263.8999999985099","resources/trios/L2T2A3.jpg","38","restless",0.7,0.3,0.4,0.973861090266613,"false"
"image-keyboard-response",381,315771,"0.0-3.123-1.123","amblbmvsjnlvt03",485,"12.csv","","null","resources/maskTrios/BT2B.jpg","null","",NA,NA,NA,NA,""
"image-keyboard-response",382,316979,"0.0-3.123-2.123","amblbmvsjnlvt03",485,"12.csv","","null","resources/images/fishbone.png","null","",NA,NA,NA,NA,""
"image-keyboard-response",383,318012,"0.0-3.124-0.124","amblbmvsjnlvt03",485,"12.csv","","1030.8999999985099","resources/trios/L1T4A3.jpg","37","restless",0.7,0.3,0.4,0.561420582136064,"true"
"image-keyboard-response",384,318415,"0.0-3.124-1.124","amblbmvsjnlvt03",485,"12.csv","","null","resources/maskTrios/L1BB.jpg","null","",NA,NA,NA,NA,""
"image-keyboard-response",385,319624,"0.0-3.124-2.124","amblbmvsjnlvt03",485,"12.csv","","null","resources/images/coin2.png","null","",NA,NA,NA,NA,""
"image-keyboard-response",386,320063,"0.0-3.125-0.125","amblbmvsjnlvt03",485,"12.csv","","437.8999999985099","resources/trios/L1T2A3.jpg","37","restless",0.7,0.3,0.4,0.0992695738407514,"true"
"image-keyboard-response",387,320471,"0.0-3.125-1.125","amblbmvsjnlvt03",485,"12.csv","","null","resources/maskTrios/L1BB.jpg","null","",NA,NA,NA,NA,""
"image-keyboard-response",388,321681,"0.0-3.125-2.125","amblbmvsjnlvt03",485,"12.csv","","null","resources/images/coin2.png","null","",NA,NA,NA,NA,""
"image-keyboard-response",389,322328,"0.0-3.126-0.126","amblbmvsjnlvt03",485,"12.csv","","645.3000000044703","resources/trios/L1T2A3.jpg","37","restless",0.7,0.3,0.4,0.877462374315534,"false"
"image-keyboard-response",390,322736,"0.0-3.126-1.126","amblbmvsjnlvt03",485,"12.csv","","null","resources/maskTrios/L1BB.jpg","null","",NA,NA,NA,NA,""
"image-keyboard-response",391,323942,"0.0-3.126-2.126","amblbmvsjnlvt03",485,"12.csv","","null","resources/images/fishbone.png","null","",NA,NA,NA,NA,""
"image-keyboard-response",392,325597,"0.0-3.127-0.127","amblbmvsjnlvt03",485,"12.csv","","1653.2999999970198","resources/trios/L1T4A1.jpg","38","restless",0.7,0.3,0.4,0.146931133213212,"true"
"image-keyboard-response",393,326011,"0.0-3.127-1.127","amblbmvsjnlvt03",485,"12.csv","","null","resources/maskTrios/BT4B.jpg","null","",NA,NA,NA,NA,""
"image-keyboard-response",394,327219,"0.0-3.127-2.127","amblbmvsjnlvt03",485,"12.csv","","null","resources/images/coin2.png","null","",NA,NA,NA,NA,""
"image-keyboard-response",395,327847,"0.0-3.128-0.128","amblbmvsjnlvt03",485,"12.csv","","626.8999999985099","resources/trios/L2T4A3.jpg","38","restless",0.8,0.3,0.4,0.165891737240787,"true"
"image-keyboard-response",396,328255,"0.0-3.128-1.128","amblbmvsjnlvt03",485,"12.csv","","null","resources/maskTrios/BT4B.jpg","null","",NA,NA,NA,NA,""
"image-keyboard-response",397,329467,"0.0-3.128-2.128","amblbmvsjnlvt03",485,"12.csv","","null","resources/images/coin2.png","null","",NA,NA,NA,NA,""
"image-keyboard-response",398,332714,"0.0-3.129-0.129","amblbmvsjnlvt03",485,"12.csv","","3245.39999999851","resources/trios/L1T4A1.jpg","38","restless",0.7,0.3,0.5,0.440938017581131,"false"
"image-keyboard-response",399,333123,"0.0-3.129-1.129","amblbmvsjnlvt03",485,"12.csv","","null","resources/maskTrios/BT4B.jpg","null","",NA,NA,NA,NA,""
"image-keyboard-response",400,334331,"0.0-3.129-2.129","amblbmvsjnlvt03",485,"12.csv","","null","resources/images/fishbone.png","null","",NA,NA,NA,NA,""
"image-keyboard-response",401,334785,"0.0-3.130-0.130","amblbmvsjnlvt03",485,"12.csv","","452.20000000298023","resources/trios/L1T4A1.jpg","39","restless",0.7,0.3,0.5,0.4871937594161,"true"
"image-keyboard-response",402,335195,"0.0-3.130-1.130","amblbmvsjnlvt03",485,"12.csv","","null","resources/maskTrios/BBA1.jpg","null","",NA,NA,NA,NA,""
"image-keyboard-response",403,336399,"0.0-3.130-2.130","amblbmvsjnlvt03",485,"12.csv","","null","resources/images/coin2.png","null","",NA,NA,NA,NA,""
"image-keyboard-response",404,337108,"0.0-3.131-0.131","amblbmvsjnlvt03",485,"12.csv","","707.6999999955297","resources/trios/L2T2A1.jpg","39","restless",0.7,0.3,0.5,0.757439975668648,"false"
"image-keyboard-response",405,337510,"0.0-3.131-1.131","amblbmvsjnlvt03",485,"12.csv","","null","resources/maskTrios/BBA1.jpg","null","",NA,NA,NA,NA,""
"image-keyboard-response",406,338723,"0.0-3.131-2.131","amblbmvsjnlvt03",485,"12.csv","","null","resources/images/fishbone.png","null","",NA,NA,NA,NA,""
"image-keyboard-response",407,339762,"0.0-3.132-0.132","amblbmvsjnlvt03",485,"12.csv","","1037.6000000014901","resources/trios/L1T2A1.jpg","37","restless",0.7,0.3,0.5,0.00257276463800227,"true"
"image-keyboard-response",408,340171,"0.0-3.132-1.132","amblbmvsjnlvt03",485,"12.csv","","null","resources/maskTrios/L1BB.jpg","null","",NA,NA,NA,NA,""
"image-keyboard-response",409,341379,"0.0-3.132-2.132","amblbmvsjnlvt03",485,"12.csv","","null","resources/images/coin2.png","null","",NA,NA,NA,NA,""
"image-keyboard-response",410,342486,"0.0-3.133-0.133","amblbmvsjnlvt03",485,"12.csv","","1105.7999999970198","resources/trios/L2T4A3.jpg","37","restless",0.7,0.3,0.5,0.485057082429515,"true"
"image-keyboard-response",411,342896,"0.0-3.133-1.133","amblbmvsjnlvt03",485,"12.csv","","null","resources/maskTrios/L2BB.jpg","null","",NA,NA,NA,NA,""
"image-keyboard-response",412,344103,"0.0-3.133-2.133","amblbmvsjnlvt03",485,"12.csv","","null","resources/images/coin2.png","null","",NA,NA,NA,NA,""
"image-keyboard-response",413,346149,"0.0-3.134-0.134","amblbmvsjnlvt03",485,"12.csv","","2044.7999999970198","resources/trios/L2T2A3.jpg","37","restless",0.6,0.3,0.5,0.937525168055137,"false"
"image-keyboard-response",414,346563,"0.0-3.134-1.134","amblbmvsjnlvt03",485,"12.csv","","null","resources/maskTrios/L2BB.jpg","null","",NA,NA,NA,NA,""
"image-keyboard-response",415,347771,"0.0-3.134-2.134","amblbmvsjnlvt03",485,"12.csv","","null","resources/images/fishbone.png","null","",NA,NA,NA,NA,""
"image-keyboard-response",416,351579,"0.0-3.135-0.135","amblbmvsjnlvt03",485,"12.csv","","3806.60000000149","resources/trios/L1T4A3.jpg","39","restless",0.5,0.3,0.5,0.725006822886519,"false"
"image-keyboard-response",417,351985,"0.0-3.135-1.135","amblbmvsjnlvt03",485,"12.csv","","null","resources/maskTrios/BBA3.jpg","null","",NA,NA,NA,NA,""
"image-keyboard-response",418,353191,"0.0-3.135-2.135","amblbmvsjnlvt03",485,"12.csv","","null","resources/images/fishbone.png","null","",NA,NA,NA,NA,""
"image-keyboard-response",419,354939,"0.0-3.136-0.136","amblbmvsjnlvt03",485,"12.csv","","1746.0999999940395","resources/trios/L2T2A3.jpg","38","restless",0.5,0.4,0.5,0.931955318575501,"false"
"image-keyboard-response",420,355343,"0.0-3.136-1.136","amblbmvsjnlvt03",485,"12.csv","","null","resources/maskTrios/BT2B.jpg","null","",NA,NA,NA,NA,""
"image-keyboard-response",421,356555,"0.0-3.136-2.136","amblbmvsjnlvt03",485,"12.csv","","null","resources/images/fishbone.png","null","",NA,NA,NA,NA,""
"image-keyboard-response",422,357428,"0.0-3.137-0.137","amblbmvsjnlvt03",485,"12.csv","","871.3999999985099","resources/trios/L2T4A1.jpg","37","restless",0.5,0.4,0.5,0.783460117678462,"false"
"image-keyboard-response",423,357835,"0.0-3.137-1.137","amblbmvsjnlvt03",485,"12.csv","","null","resources/maskTrios/L2BB.jpg","null","",NA,NA,NA,NA,""
"image-keyboard-response",424,359039,"0.0-3.137-2.137","amblbmvsjnlvt03",485,"12.csv","","null","resources/images/fishbone.png","null","",NA,NA,NA,NA,""
"image-keyboard-response",425,360242,"0.0-3.138-0.138","amblbmvsjnlvt03",485,"12.csv","","1201.3999999985099","resources/trios/L2T2A3.jpg","37","restless",0.5,0.4,0.5,0.0932327937880446,"true"
"image-keyboard-response",426,360651,"0.0-3.138-1.138","amblbmvsjnlvt03",485,"12.csv","","null","resources/maskTrios/L2BB.jpg","null","",NA,NA,NA,NA,""
"image-keyboard-response",427,361858,"0.0-3.138-2.138","amblbmvsjnlvt03",485,"12.csv","","null","resources/images/coin2.png","null","",NA,NA,NA,NA,""
"image-keyboard-response",428,364189,"0.0-3.139-0.139","amblbmvsjnlvt03",485,"12.csv","","2329.3000000044703","resources/trios/L1T4A1.jpg","37","restless",0.5,0.3,0.5,0.862108431957697,"false"
"image-keyboard-response",429,364602,"0.0-3.139-1.139","amblbmvsjnlvt03",485,"12.csv","","null","resources/maskTrios/L1BB.jpg","null","",NA,NA,NA,NA,""
"image-keyboard-response",430,365811,"0.0-3.139-2.139","amblbmvsjnlvt03",485,"12.csv","","null","resources/images/fishbone.png","null","",NA,NA,NA,NA,""
"image-keyboard-response",431,365943,"0.0-3.140-0.140","amblbmvsjnlvt03",485,"12.csv","","130.09999999403954","resources/trios/L1T2A1.jpg","38","restless",0.5,0.2,0.6,0.687291899032704,"false"
"image-keyboard-response",432,366354,"0.0-3.140-1.140","amblbmvsjnlvt03",485,"12.csv","","null","resources/maskTrios/BT2B.jpg","null","",NA,NA,NA,NA,""
"image-keyboard-response",433,367563,"0.0-3.140-2.140","amblbmvsjnlvt03",485,"12.csv","","null","resources/images/fishbone.png","null","",NA,NA,NA,NA,""
"image-keyboard-response",434,368143,"0.0-3.141-0.141","amblbmvsjnlvt03",485,"12.csv","","579.1000000014901","resources/trios/L1T4A3.jpg","39","restless",0.5,0.2,0.6,0.444992841394465,"true"
"image-keyboard-response",435,368555,"0.0-3.141-1.141","amblbmvsjnlvt03",485,"12.csv","","null","resources/maskTrios/BBA3.jpg","null","",NA,NA,NA,NA,""
"image-keyboard-response",436,369763,"0.0-3.141-2.141","amblbmvsjnlvt03",485,"12.csv","","null","resources/images/coin2.png","null","",NA,NA,NA,NA,""
"image-keyboard-response",437,370587,"0.0-3.142-0.142","amblbmvsjnlvt03",485,"12.csv","","823.1000000014901","resources/trios/L2T4A1.jpg","39","restless",0.5,0.2,0.6,0.648590110452943,"false"
"image-keyboard-response",438,370991,"0.0-3.142-1.142","amblbmvsjnlvt03",485,"12.csv","","null","resources/maskTrios/BBA1.jpg","null","",NA,NA,NA,NA,""
"image-keyboard-response",439,372203,"0.0-3.142-2.142","amblbmvsjnlvt03",485,"12.csv","","null","resources/images/fishbone.png","null","",NA,NA,NA,NA,""
"image-keyboard-response",440,372728,"0.0-3.143-0.143","amblbmvsjnlvt03",485,"12.csv","","523.3999999985099","resources/trios/L2T4A1.jpg","38","restless",0.5,0.2,0.5,0.799231831610363,"false"
"image-keyboard-response",441,373139,"0.0-3.143-1.143","amblbmvsjnlvt03",485,"12.csv","","null","resources/maskTrios/BT4B.jpg","null","",NA,NA,NA,NA,""
"image-keyboard-response",442,374344,"0.0-3.143-2.143","amblbmvsjnlvt03",485,"12.csv","","null","resources/images/fishbone.png","null","",NA,NA,NA,NA,""
"image-keyboard-response",443,374629,"0.0-3.144-0.144","amblbmvsjnlvt03",485,"12.csv","","283.90000000596046","resources/trios/L1T4A3.jpg","37","restless",0.5,0.2,0.4,0.246685229902465,"true"
"image-keyboard-response",444,375043,"0.0-3.144-1.144","amblbmvsjnlvt03",485,"12.csv","","null","resources/maskTrios/L1BB.jpg","null","",NA,NA,NA,NA,""
"image-keyboard-response",445,376249,"0.0-3.144-2.144","amblbmvsjnlvt03",485,"12.csv","","null","resources/images/coin2.png","null","",NA,NA,NA,NA,""
"image-keyboard-response",446,377990,"0.0-3.145-0.145","amblbmvsjnlvt03",485,"12.csv","","1739.6999999955297","resources/trios/L1T4A1.jpg","37","restless",0.5,0.2,0.5,0.800172632079391,"false"
"image-keyboard-response",447,378401,"0.0-3.145-1.145","amblbmvsjnlvt03",485,"12.csv","","null","resources/maskTrios/L1BB.jpg","null","",NA,NA,NA,NA,""
"image-keyboard-response",448,379610,"0.0-3.145-2.145","amblbmvsjnlvt03",485,"12.csv","","null","resources/images/fishbone.png","null","",NA,NA,NA,NA,""
"image-keyboard-response",449,380373,"0.0-3.146-0.146","amblbmvsjnlvt03",485,"12.csv","","761","resources/trios/L1T4A1.jpg","37","restless",0.5,0.2,0.5,0.152744711035955,"true"
"image-keyboard-response",450,380776,"0.0-3.146-1.146","amblbmvsjnlvt03",485,"12.csv","","null","resources/maskTrios/L1BB.jpg","null","",NA,NA,NA,NA,""
"image-keyboard-response",451,381985,"0.0-3.146-2.146","amblbmvsjnlvt03",485,"12.csv","","null","resources/images/coin2.png","null","",NA,NA,NA,NA,""
"image-keyboard-response",452,382800,"0.0-3.147-0.147","amblbmvsjnlvt03",485,"12.csv","","814.0999999940395","resources/trios/L1T2A3.jpg","37","restless",0.5,0.2,0.5,0.427429590653019,"true"
"image-keyboard-response",453,383211,"0.0-3.147-1.147","amblbmvsjnlvt03",485,"12.csv","","null","resources/maskTrios/L1BB.jpg","null","",NA,NA,NA,NA,""
"image-keyboard-response",454,384415,"0.0-3.147-2.147","amblbmvsjnlvt03",485,"12.csv","","null","resources/images/coin2.png","null","",NA,NA,NA,NA,""
"image-keyboard-response",455,385150,"0.0-3.148-0.148","amblbmvsjnlvt03",485,"12.csv","","734.1000000014901","resources/trios/L1T4A1.jpg","37","restless",0.5,0.2,0.5,0.613055168000901,"false"
"image-keyboard-response",456,385563,"0.0-3.148-1.148","amblbmvsjnlvt03",485,"12.csv","","null","resources/maskTrios/L1BB.jpg","null","",NA,NA,NA,NA,""
"image-keyboard-response",457,386771,"0.0-3.148-2.148","amblbmvsjnlvt03",485,"12.csv","","null","resources/images/fishbone.png","null","",NA,NA,NA,NA,""
"image-keyboard-response",458,387129,"0.0-3.149-0.149","amblbmvsjnlvt03",485,"12.csv","","356.8999999985099","resources/trios/L1T4A1.jpg","37","restless",0.5,0.2,0.5,0.772343772687879,"false"
"image-keyboard-response",459,387539,"0.0-3.149-1.149","amblbmvsjnlvt03",485,"12.csv","","null","resources/maskTrios/L1BB.jpg","null","",NA,NA,NA,NA,""
"image-keyboard-response",460,388747,"0.0-3.149-2.149","amblbmvsjnlvt03",485,"12.csv","","null","resources/images/fishbone.png","null","",NA,NA,NA,NA,""
"image-keyboard-response",461,388881,"0.0-3.150-0.150","amblbmvsjnlvt03",485,"12.csv","","132.69999999552965","resources/trios/L1T4A3.jpg","38","restless",0.5,0.2,0.5,0.0102580280592703,"true"
"image-keyboard-response",462,389291,"0.0-3.150-1.150","amblbmvsjnlvt03",485,"12.csv","","null","resources/maskTrios/BT4B.jpg","null","",NA,NA,NA,NA,""
"image-keyboard-response",463,390498,"0.0-3.150-2.150","amblbmvsjnlvt03",485,"12.csv","","null","resources/images/coin2.png","null","",NA,NA,NA,NA,""
"image-keyboard-response",464,390930,"0.0-3.151-0.151","amblbmvsjnlvt03",485,"12.csv","","430.19999999552965","resources/trios/L2T2A1.jpg","38","restless",0.5,0.2,0.5,0.694354539382372,"false"
"image-keyboard-response",465,391334,"0.0-3.151-1.151","amblbmvsjnlvt03",485,"12.csv","","null","resources/maskTrios/BT2B.jpg","null","",NA,NA,NA,NA,""
"image-keyboard-response",466,392543,"0.0-3.151-2.151","amblbmvsjnlvt03",485,"12.csv","","null","resources/images/fishbone.png","null","",NA,NA,NA,NA,""
"image-keyboard-response",467,392846,"0.0-3.152-0.152","amblbmvsjnlvt03",485,"12.csv","","301","resources/trios/L2T4A3.jpg","37","restless",0.5,0.2,0.5,0.782559596012226,"false"
"image-keyboard-response",468,393259,"0.0-3.152-1.152","amblbmvsjnlvt03",485,"12.csv","","null","resources/maskTrios/L2BB.jpg","null","",NA,NA,NA,NA,""
"image-keyboard-response",469,394467,"0.0-3.152-2.152","amblbmvsjnlvt03",485,"12.csv","","null","resources/images/fishbone.png","null","",NA,NA,NA,NA,""
"image-keyboard-response",470,394597,"0.0-3.153-0.153","amblbmvsjnlvt03",485,"12.csv","","128.5","resources/trios/L1T2A3.jpg","39","restless",0.5,0.2,0.5,0.450806826106515,"true"
"image-keyboard-response",471,395006,"0.0-3.153-1.153","amblbmvsjnlvt03",485,"12.csv","","null","resources/maskTrios/BBA3.jpg","null","",NA,NA,NA,NA,""
"image-keyboard-response",472,396219,"0.0-3.153-2.153","amblbmvsjnlvt03",485,"12.csv","","null","resources/images/coin2.png","null","",NA,NA,NA,NA,""
"image-keyboard-response",473,396782,"0.0-3.154-0.154","amblbmvsjnlvt03",485,"12.csv","","562.3999999985099","resources/trios/L2T4A3.jpg","39","restless",0.5,0.2,0.5,0.840057306990349,"false"
"image-keyboard-response",474,397191,"0.0-3.154-1.154","amblbmvsjnlvt03",485,"12.csv","","null","resources/maskTrios/BBA3.jpg","null","",NA,NA,NA,NA,""
"image-keyboard-response",475,398403,"0.0-3.154-2.154","amblbmvsjnlvt03",485,"12.csv","","null","resources/images/fishbone.png","null","",NA,NA,NA,NA,""
"image-keyboard-response",476,399583,"0.0-3.155-0.155","amblbmvsjnlvt03",485,"12.csv","","1178.5","resources/trios/L1T2A1.jpg","39","restless",0.4,0.3,0.5,0.746175677262976,"false"
"image-keyboard-response",477,399991,"0.0-3.155-1.155","amblbmvsjnlvt03",485,"12.csv","","null","resources/maskTrios/BBA1.jpg","null","",NA,NA,NA,NA,""
"image-keyboard-response",478,401203,"0.0-3.155-2.155","amblbmvsjnlvt03",485,"12.csv","","null","resources/images/fishbone.png","null","",NA,NA,NA,NA,""
"image-keyboard-response",479,401693,"0.0-3.156-0.156","amblbmvsjnlvt03",485,"12.csv","","488.6000000014901","resources/trios/L2T2A3.jpg","37","restless",0.4,0.3,0.5,0.43710879673426,"false"
"image-keyboard-response",480,402105,"0.0-3.156-1.156","amblbmvsjnlvt03",485,"12.csv","","null","resources/maskTrios/L2BB.jpg","null","",NA,NA,NA,NA,""
"image-keyboard-response",481,403315,"0.0-3.156-2.156","amblbmvsjnlvt03",485,"12.csv","","null","resources/images/fishbone.png","null","",NA,NA,NA,NA,""
"image-keyboard-response",482,403824,"0.0-3.157-0.157","amblbmvsjnlvt03",485,"12.csv","","507.6000000014901","resources/trios/L1T2A3.jpg","38","restless",0.4,0.3,0.5,0.995334572715824,"false"
"image-keyboard-response",483,404235,"0.0-3.157-1.157","amblbmvsjnlvt03",485,"12.csv","","null","resources/maskTrios/BT2B.jpg","null","",NA,NA,NA,NA,""
"image-keyboard-response",484,405440,"0.0-3.157-2.157","amblbmvsjnlvt03",485,"12.csv","","null","resources/images/fishbone.png","null","",NA,NA,NA,NA,""
"image-keyboard-response",485,405689,"0.0-3.158-0.158","amblbmvsjnlvt03",485,"12.csv","","248","resources/trios/L1T4A3.jpg","37","restless",0.4,0.3,0.5,0.715227856129168,"false"
"image-keyboard-response",486,406095,"0.0-3.158-1.158","amblbmvsjnlvt03",485,"12.csv","","null","resources/maskTrios/L1BB.jpg","null","",NA,NA,NA,NA,""
"image-keyboard-response",487,407307,"0.0-3.158-2.158","amblbmvsjnlvt03",485,"12.csv","","null","resources/images/fishbone.png","null","",NA,NA,NA,NA,""
"image-keyboard-response",488,407502,"0.0-3.159-0.159","amblbmvsjnlvt03",485,"12.csv","","193.5","resources/trios/L1T2A1.jpg","39","restless",0.3,0.3,0.5,0.0273063917072365,"true"
"image-keyboard-response",489,407915,"0.0-3.159-1.159","amblbmvsjnlvt03",485,"12.csv","","null","resources/maskTrios/BBA1.jpg","null","",NA,NA,NA,NA,""
"image-keyboard-response",490,409119,"0.0-3.159-2.159","amblbmvsjnlvt03",485,"12.csv","","null","resources/images/coin2.png","null","",NA,NA,NA,NA,""
"image-keyboard-response",491,410137,"0.0-3.160-0.160","amblbmvsjnlvt03",485,"12.csv","","1016.8999999985099","resources/trios/L2T4A1.jpg","39","restless",0.3,0.3,0.5,0.108520266186076,"true"
"image-keyboard-response",492,410543,"0.0-3.160-1.160","amblbmvsjnlvt03",485,"12.csv","","null","resources/maskTrios/BBA1.jpg","null","",NA,NA,NA,NA,""
"image-keyboard-response",493,411755,"0.0-3.160-2.160","amblbmvsjnlvt03",485,"12.csv","","null","resources/images/coin2.png","null","",NA,NA,NA,NA,""
"image-keyboard-response",494,413905,"0.0-3.161-0.161","amblbmvsjnlvt03",485,"12.csv","","2148.89999999851","resources/trios/L2T2A3.jpg","39","restless",0.3,0.3,0.5,0.0233687767482427,"true"
"image-keyboard-response",495,414315,"0.0-3.161-1.161","amblbmvsjnlvt03",485,"12.csv","","null","resources/maskTrios/BBA3.jpg","null","",NA,NA,NA,NA,""
"image-keyboard-response",496,415523,"0.0-3.161-2.161","amblbmvsjnlvt03",485,"12.csv","","null","resources/images/coin2.png","null","",NA,NA,NA,NA,""
"image-keyboard-response",497,418127,"0.0-3.162-0.162","amblbmvsjnlvt03",485,"12.csv","","2602.7000000029802","resources/trios/L2T2A3.jpg","39","restless",0.3,0.4,0.5,0.10154111160998,"true"
"image-keyboard-response",498,418539,"0.0-3.162-1.162","amblbmvsjnlvt03",485,"12.csv","","null","resources/maskTrios/BBA3.jpg","null","",NA,NA,NA,NA,""
"image-keyboard-response",499,419743,"0.0-3.162-2.162","amblbmvsjnlvt03",485,"12.csv","","null","resources/images/coin2.png","null","",NA,NA,NA,NA,""
"image-keyboard-response",500,419889,"0.0-3.163-0.163","amblbmvsjnlvt03",485,"12.csv","","144.59999999403954","resources/trios/L2T2A3.jpg","39","restless",0.4,0.4,0.5,0.13052697494104,"true"
"image-keyboard-response",501,420295,"0.0-3.163-1.163","amblbmvsjnlvt03",485,"12.csv","","null","resources/maskTrios/BBA3.jpg","null","",NA,NA,NA,NA,""
"image-keyboard-response",502,421503,"0.0-3.163-2.163","amblbmvsjnlvt03",485,"12.csv","","null","resources/images/coin2.png","null","",NA,NA,NA,NA,""
"image-keyboard-response",503,423964,"0.0-3.164-0.164","amblbmvsjnlvt03",485,"12.csv","","2459.5999999940395","resources/trios/L2T4A3.jpg","39","restless",0.4,0.4,0.6,0.981884007945181,"false"
"image-keyboard-response",504,424370,"0.0-3.164-1.164","amblbmvsjnlvt03",485,"12.csv","","null","resources/maskTrios/BBA3.jpg","null","",NA,NA,NA,NA,""
"image-keyboard-response",505,425579,"0.0-3.164-2.164","amblbmvsjnlvt03",485,"12.csv","","null","resources/images/fishbone.png","null","",NA,NA,NA,NA,""
"image-keyboard-response",506,425971,"0.0-3.165-0.165","amblbmvsjnlvt03",485,"12.csv","","391.19999999552965","resources/trios/L2T2A3.jpg","37","restless",0.4,0.4,0.6,0.201200278776201,"true"
"image-keyboard-response",507,426378,"0.0-3.165-1.165","amblbmvsjnlvt03",485,"12.csv","","null","resources/maskTrios/L2BB.jpg","null","",NA,NA,NA,NA,""
"image-keyboard-response",508,427586,"0.0-3.165-2.165","amblbmvsjnlvt03",485,"12.csv","","null","resources/images/coin2.png","null","",NA,NA,NA,NA,""
"image-keyboard-response",509,428123,"0.0-3.166-0.166","amblbmvsjnlvt03",485,"12.csv","","535.3999999985099","resources/trios/L2T2A1.jpg","37","restless",0.4,0.4,0.6,0.425283660079543,"false"
"image-keyboard-response",510,428530,"0.0-3.166-1.166","amblbmvsjnlvt03",485,"12.csv","","null","resources/maskTrios/L2BB.jpg","null","",NA,NA,NA,NA,""
"image-keyboard-response",511,429738,"0.0-3.166-2.166","amblbmvsjnlvt03",485,"12.csv","","null","resources/images/fishbone.png","null","",NA,NA,NA,NA,""
"image-keyboard-response",512,430037,"0.0-3.167-0.167","amblbmvsjnlvt03",485,"12.csv","","296.79999999701977","resources/trios/L2T2A1.jpg","37","restless",0.4,0.5,0.6,0.342452117891471,"true"
"image-keyboard-response",513,430446,"0.0-3.167-1.167","amblbmvsjnlvt03",485,"12.csv","","null","resources/maskTrios/L2BB.jpg","null","",NA,NA,NA,NA,""
"image-keyboard-response",514,431657,"0.0-3.167-2.167","amblbmvsjnlvt03",485,"12.csv","","null","resources/images/coin2.png","null","",NA,NA,NA,NA,""
"image-keyboard-response",515,432379,"0.0-3.168-0.168","amblbmvsjnlvt03",485,"12.csv","","720.6000000014901","resources/trios/L2T2A3.jpg","37","restless",0.4,0.5,0.6,0.538601190753321,"false"
"image-keyboard-response",516,432786,"0.0-3.168-1.168","amblbmvsjnlvt03",485,"12.csv","","null","resources/maskTrios/L2BB.jpg","null","",NA,NA,NA,NA,""
"image-keyboard-response",517,433991,"0.0-3.168-2.168","amblbmvsjnlvt03",485,"12.csv","","null","resources/images/fishbone.png","null","",NA,NA,NA,NA,""
"image-keyboard-response",518,434726,"0.0-3.169-0.169","amblbmvsjnlvt03",485,"12.csv","","733.8999999985099","resources/trios/L1T4A3.jpg","38","restless",0.4,0.5,0.6,0.365529245072804,"true"
"image-keyboard-response",519,435138,"0.0-3.169-1.169","amblbmvsjnlvt03",485,"12.csv","","null","resources/maskTrios/BT4B.jpg","null","",NA,NA,NA,NA,""
"image-keyboard-response",520,436344,"0.0-3.169-2.169","amblbmvsjnlvt03",485,"12.csv","","null","resources/images/coin2.png","null","",NA,NA,NA,NA,""
"image-keyboard-response",521,439513,"0.0-3.170-0.170","amblbmvsjnlvt03",485,"12.csv","","3167.6999999955297","resources/trios/L1T4A1.jpg","38","restless",0.4,0.5,0.6,0.181852103907766,"true"
"image-keyboard-response",522,439922,"0.0-3.170-1.170","amblbmvsjnlvt03",485,"12.csv","","null","resources/maskTrios/BT4B.jpg","null","",NA,NA,NA,NA,""
"image-keyboard-response",523,441129,"0.0-3.170-2.170","amblbmvsjnlvt03",485,"12.csv","","null","resources/images/coin2.png","null","",NA,NA,NA,NA,""
"image-keyboard-response",524,446152,"0.0-3.171-0.171","amblbmvsjnlvt03",485,"12.csv","","5022.30000000447","resources/trios/L1T2A3.jpg","38","restless",0.4,0.5,0.6,0.656253882643918,"false"
"image-keyboard-response",525,446558,"0.0-3.171-1.171","amblbmvsjnlvt03",485,"12.csv","","null","resources/maskTrios/BT2B.jpg","null","",NA,NA,NA,NA,""
"image-keyboard-response",526,447770,"0.0-3.171-2.171","amblbmvsjnlvt03",485,"12.csv","","null","resources/images/fishbone.png","null","",NA,NA,NA,NA,""
"image-keyboard-response",527,448434,"0.0-3.172-0.172","amblbmvsjnlvt03",485,"12.csv","","662.8999999985099","resources/trios/L2T2A1.jpg","39","restless",0.4,0.5,0.6,0.883580081634004,"false"
"image-keyboard-response",528,448839,"0.0-3.172-1.172","amblbmvsjnlvt03",485,"12.csv","","null","resources/maskTrios/BBA1.jpg","null","",NA,NA,NA,NA,""
"image-keyboard-response",529,450050,"0.0-3.172-2.172","amblbmvsjnlvt03",485,"12.csv","","null","resources/images/fishbone.png","null","",NA,NA,NA,NA,""
"image-keyboard-response",530,450055,"0.0-3.173-0.173","amblbmvsjnlvt03",485,"12.csv","","3.7000000029802322","resources/trios/L2T4A3.jpg","37","restless",0.4,0.5,0.6,0.317569188155602,"true"
"image-keyboard-response",531,450462,"0.0-3.173-1.173","amblbmvsjnlvt03",485,"12.csv","","null","resources/maskTrios/L2BB.jpg","null","",NA,NA,NA,NA,""
"image-keyboard-response",532,451674,"0.0-3.173-2.173","amblbmvsjnlvt03",485,"12.csv","","null","resources/images/coin2.png","null","",NA,NA,NA,NA,""
"image-keyboard-response",533,452296,"0.0-3.174-0.174","amblbmvsjnlvt03",485,"12.csv","","620.7999999970198","resources/trios/L1T2A3.jpg","37","restless",0.4,0.5,0.6,0.348681217347513,"true"
"image-keyboard-response",534,452705,"0.0-3.174-1.174","amblbmvsjnlvt03",485,"12.csv","","null","resources/maskTrios/L1BB.jpg","null","",NA,NA,NA,NA,""
"image-keyboard-response",535,453911,"0.0-3.174-2.174","amblbmvsjnlvt03",485,"12.csv","","null","resources/images/coin2.png","null","",NA,NA,NA,NA,""
"image-keyboard-response",536,455076,"0.0-3.175-0.175","amblbmvsjnlvt03",485,"12.csv","","1164.1999999955297","resources/trios/L1T4A1.jpg","37","restless",0.4,0.5,0.6,0.538725933950766,"false"
"image-keyboard-response",537,455490,"0.0-3.175-1.175","amblbmvsjnlvt03",485,"12.csv","","null","resources/maskTrios/L1BB.jpg","null","",NA,NA,NA,NA,""
"image-keyboard-response",538,456695,"0.0-3.175-2.175","amblbmvsjnlvt03",485,"12.csv","","null","resources/images/fishbone.png","null","",NA,NA,NA,NA,""
"image-keyboard-response",539,458814,"0.0-3.176-0.176","amblbmvsjnlvt03",485,"12.csv","","2118.2000000029802","resources/trios/L2T2A1.jpg","37","restless",0.4,0.5,0.6,0.696021619349188,"false"
"image-keyboard-response",540,459226,"0.0-3.176-1.176","amblbmvsjnlvt03",485,"12.csv","","null","resources/maskTrios/L2BB.jpg","null","",NA,NA,NA,NA,""
"image-keyboard-response",541,460434,"0.0-3.176-2.176","amblbmvsjnlvt03",485,"12.csv","","null","resources/images/fishbone.png","null","",NA,NA,NA,NA,""
"image-keyboard-response",542,460640,"0.0-3.177-0.177","amblbmvsjnlvt03",485,"12.csv","","204.19999999552965","resources/trios/L2T2A1.jpg","38","restless",0.4,0.5,0.6,0.408219633764225,"true"
"image-keyboard-response",543,461050,"0.0-3.177-1.177","amblbmvsjnlvt03",485,"12.csv","","null","resources/maskTrios/BT2B.jpg","null","",NA,NA,NA,NA,""
"image-keyboard-response",544,462258,"0.0-3.177-2.177","amblbmvsjnlvt03",485,"12.csv","","null","resources/images/coin2.png","null","",NA,NA,NA,NA,""
"image-keyboard-response",545,464884,"0.0-3.178-0.178","amblbmvsjnlvt03",485,"12.csv","","2624","resources/trios/L1T2A3.jpg","38","restless",0.4,0.5,0.6,0.76968726100973,"false"
"image-keyboard-response",546,465295,"0.0-3.178-1.178","amblbmvsjnlvt03",485,"12.csv","","null","resources/maskTrios/BT2B.jpg","null","",NA,NA,NA,NA,""
"image-keyboard-response",547,466505,"0.0-3.178-2.178","amblbmvsjnlvt03",485,"12.csv","","null","resources/images/fishbone.png","null","",NA,NA,NA,NA,""
"image-keyboard-response",548,466779,"0.0-3.179-0.179","amblbmvsjnlvt03",485,"12.csv","","272.8999999985099","resources/trios/L1T4A1.jpg","39","restless",0.4,0.5,0.6,0.449183562698062,"true"
"image-keyboard-response",549,467186,"0.0-3.179-1.179","amblbmvsjnlvt03",485,"12.csv","","null","resources/maskTrios/BBA1.jpg","null","",NA,NA,NA,NA,""
"image-keyboard-response",550,468390,"0.0-3.179-2.179","amblbmvsjnlvt03",485,"12.csv","","null","resources/images/coin2.png","null","",NA,NA,NA,NA,""
"image-keyboard-response",551,468858,"0.0-3.180-0.180","amblbmvsjnlvt03",485,"12.csv","","466","resources/trios/L2T4A1.jpg","39","restless",0.4,0.5,0.6,0.622799381923171,"false"
"image-keyboard-response",552,469266,"0.0-3.180-1.180","amblbmvsjnlvt03",485,"12.csv","","null","resources/maskTrios/BBA1.jpg","null","",NA,NA,NA,NA,""
"image-keyboard-response",553,470474,"0.0-3.180-2.180","amblbmvsjnlvt03",485,"12.csv","","null","resources/images/fishbone.png","null","",NA,NA,NA,NA,""
"image-keyboard-response",554,470490,"0.0-3.181-0.181","amblbmvsjnlvt03",485,"12.csv","","14.799999997019768","resources/trios/L1T2A1.jpg","37","restless",0.4,0.5,0.6,0.387479400713737,"true"
"image-keyboard-response",555,470894,"0.0-3.181-1.181","amblbmvsjnlvt03",485,"12.csv","","null","resources/maskTrios/L1BB.jpg","null","",NA,NA,NA,NA,""
"image-keyboard-response",556,472106,"0.0-3.181-2.181","amblbmvsjnlvt03",485,"12.csv","","null","resources/images/coin2.png","null","",NA,NA,NA,NA,""
"image-keyboard-response",557,472503,"0.0-3.182-0.182","amblbmvsjnlvt03",485,"12.csv","","395.3999999985099","resources/trios/L2T4A3.jpg","37","restless",0.4,0.5,0.6,0.78701131968166,"false"
"image-keyboard-response",558,472910,"0.0-3.182-1.182","amblbmvsjnlvt03",485,"12.csv","","null","resources/maskTrios/L2BB.jpg","null","",NA,NA,NA,NA,""
"image-keyboard-response",559,474120,"0.0-3.182-2.182","amblbmvsjnlvt03",485,"12.csv","","null","resources/images/fishbone.png","null","",NA,NA,NA,NA,""
"image-keyboard-response",560,474521,"0.0-3.183-0.183","amblbmvsjnlvt03",485,"12.csv","","398.80000000447035","resources/trios/L1T4A3.jpg","37","restless",0.4,0.4,0.7,0.542402275621725,"false"
"image-keyboard-response",561,474930,"0.0-3.183-1.183","amblbmvsjnlvt03",485,"12.csv","","null","resources/maskTrios/L1BB.jpg","null","",NA,NA,NA,NA,""
"image-keyboard-response",562,476138,"0.0-3.183-2.183","amblbmvsjnlvt03",485,"12.csv","","null","resources/images/fishbone.png","null","",NA,NA,NA,NA,""
"image-keyboard-response",563,476501,"0.0-3.184-0.184","amblbmvsjnlvt03",485,"12.csv","","361.1000000014901","resources/trios/L1T4A3.jpg","38","restless",0.4,0.4,0.7,0.345439984701609,"true"
"image-keyboard-response",564,476914,"0.0-3.184-1.184","amblbmvsjnlvt03",485,"12.csv","","null","resources/maskTrios/BT4B.jpg","null","",NA,NA,NA,NA,""
"image-keyboard-response",565,478122,"0.0-3.184-2.184","amblbmvsjnlvt03",485,"12.csv","","null","resources/images/coin2.png","null","",NA,NA,NA,NA,""
"image-keyboard-response",566,478383,"0.0-3.185-0.185","amblbmvsjnlvt03",485,"12.csv","","259.8999999985099","resources/trios/L2T2A3.jpg","38","restless",0.4,0.4,0.7,0.568071045852043,"false"
"image-keyboard-response",567,478790,"0.0-3.185-1.185","amblbmvsjnlvt03",485,"12.csv","","null","resources/maskTrios/BT2B.jpg","null","",NA,NA,NA,NA,""
"image-keyboard-response",568,479998,"0.0-3.185-2.185","amblbmvsjnlvt03",485,"12.csv","","null","resources/images/fishbone.png","null","",NA,NA,NA,NA,""
"image-keyboard-response",569,480498,"0.0-3.186-0.186","amblbmvsjnlvt03",485,"12.csv","","499.29999999701977","resources/trios/L1T2A1.jpg","37","restless",0.4,0.4,0.7,0.216087415556372,"true"
"image-keyboard-response",570,480906,"0.0-3.186-1.186","amblbmvsjnlvt03",485,"12.csv","","null","resources/maskTrios/L1BB.jpg","null","",NA,NA,NA,NA,""
"image-keyboard-response",571,482114,"0.0-3.186-2.186","amblbmvsjnlvt03",485,"12.csv","","null","resources/images/coin2.png","null","",NA,NA,NA,NA,""
"image-keyboard-response",572,482340,"0.0-3.187-0.187","amblbmvsjnlvt03",485,"12.csv","","224.60000000149012","resources/trios/L2T4A1.jpg","37","restless",0.4,0.4,0.7,0.732015424454408,"false"
"image-keyboard-response",573,482750,"0.0-3.187-1.187","amblbmvsjnlvt03",485,"12.csv","","null","resources/maskTrios/L2BB.jpg","null","",NA,NA,NA,NA,""
"image-keyboard-response",574,483962,"0.0-3.187-2.187","amblbmvsjnlvt03",485,"12.csv","","null","resources/images/fishbone.png","null","",NA,NA,NA,NA,""
"image-keyboard-response",575,484429,"0.0-3.188-0.188","amblbmvsjnlvt03",485,"12.csv","","465.8999999985099","resources/trios/L1T2A3.jpg","38","restless",0.4,0.4,0.7,0.56003000535832,"false"
"image-keyboard-response",576,484838,"0.0-3.188-1.188","amblbmvsjnlvt03",485,"12.csv","","null","resources/maskTrios/BT2B.jpg","null","",NA,NA,NA,NA,""
"image-keyboard-response",577,486050,"0.0-3.188-2.188","amblbmvsjnlvt03",485,"12.csv","","null","resources/images/fishbone.png","null","",NA,NA,NA,NA,""
"image-keyboard-response",578,486495,"0.0-3.189-0.189","amblbmvsjnlvt03",485,"12.csv","","443.5","resources/trios/L1T4A3.jpg","39","restless",0.4,0.4,0.7,0.968152073796388,"false"
"image-keyboard-response",579,486906,"0.0-3.189-1.189","amblbmvsjnlvt03",485,"12.csv","","null","resources/maskTrios/BBA3.jpg","null","",NA,NA,NA,NA,""
"image-keyboard-response",580,488109,"0.0-3.189-2.189","amblbmvsjnlvt03",485,"12.csv","","null","resources/images/fishbone.png","null","",NA,NA,NA,NA,""
"image-keyboard-response",581,488617,"0.0-3.190-0.190","amblbmvsjnlvt03",485,"12.csv","","506.20000000298023","resources/trios/L1T4A1.jpg","37","restless",0.4,0.4,0.8,0.555145628529354,"false"
"image-keyboard-response",582,489026,"0.0-3.190-1.190","amblbmvsjnlvt03",485,"12.csv","","null","resources/maskTrios/L1BB.jpg","null","",NA,NA,NA,NA,""
"image-keyboard-response",583,490234,"0.0-3.190-2.190","amblbmvsjnlvt03",485,"12.csv","","null","resources/images/fishbone.png","null","",NA,NA,NA,NA,""
"image-keyboard-response",584,491149,"0.0-3.191-0.191","amblbmvsjnlvt03",485,"12.csv","","913.3999999985099","resources/trios/L1T2A3.jpg","38","restless",0.4,0.4,0.8,0.489307631472003,"false"
"image-keyboard-response",585,491562,"0.0-3.191-1.191","amblbmvsjnlvt03",485,"12.csv","","null","resources/maskTrios/BT2B.jpg","null","",NA,NA,NA,NA,""
"image-keyboard-response",586,492770,"0.0-3.191-2.191","amblbmvsjnlvt03",485,"12.csv","","null","resources/images/fishbone.png","null","",NA,NA,NA,NA,""
"image-keyboard-response",587,493159,"0.0-3.192-0.192","amblbmvsjnlvt03",485,"12.csv","","387.19999999552965","resources/trios/L2T2A1.jpg","37","restless",0.4,0.4,0.8,0.718635614998173,"false"
"image-keyboard-response",588,493566,"0.0-3.192-1.192","amblbmvsjnlvt03",485,"12.csv","","null","resources/maskTrios/L2BB.jpg","null","",NA,NA,NA,NA,""
"image-keyboard-response",589,494778,"0.0-3.192-2.192","amblbmvsjnlvt03",485,"12.csv","","null","resources/images/fishbone.png","null","",NA,NA,NA,NA,""
"image-keyboard-response",590,495100,"0.0-3.193-0.193","amblbmvsjnlvt03",485,"12.csv","","320.19999999552965","resources/trios/L2T4A1.jpg","39","restless",0.4,0.5,0.8,0.347068080673484,"true"
"image-keyboard-response",591,495510,"0.0-3.193-1.193","amblbmvsjnlvt03",485,"12.csv","","null","resources/maskTrios/BBA1.jpg","null","",NA,NA,NA,NA,""
"image-keyboard-response",592,496722,"0.0-3.193-2.193","amblbmvsjnlvt03",485,"12.csv","","null","resources/images/coin2.png","null","",NA,NA,NA,NA,""
"image-keyboard-response",593,497898,"0.0-3.194-0.194","amblbmvsjnlvt03",485,"12.csv","","1174.1999999955297","resources/trios/L1T4A3.jpg","39","restless",0.4,0.5,0.7,0.207631736614521,"true"
"image-keyboard-response",594,498306,"0.0-3.194-1.194","amblbmvsjnlvt03",485,"12.csv","","null","resources/maskTrios/BBA3.jpg","null","",NA,NA,NA,NA,""
"image-keyboard-response",595,499514,"0.0-3.194-2.194","amblbmvsjnlvt03",485,"12.csv","","null","resources/images/coin2.png","null","",NA,NA,NA,NA,""
"image-keyboard-response",596,500423,"0.0-3.195-0.195","amblbmvsjnlvt03",485,"12.csv","","908.2000000029802","resources/trios/L1T2A3.jpg","39","restless",0.4,0.5,0.7,0.935354571813183,"false"
"image-keyboard-response",597,500834,"0.0-3.195-1.195","amblbmvsjnlvt03",485,"12.csv","","null","resources/maskTrios/BBA3.jpg","null","",NA,NA,NA,NA,""
"image-keyboard-response",598,502038,"0.0-3.195-2.195","amblbmvsjnlvt03",485,"12.csv","","null","resources/images/fishbone.png","null","",NA,NA,NA,NA,""
"image-keyboard-response",599,502520,"0.0-3.196-0.196","amblbmvsjnlvt03",485,"12.csv","","479.70000000298023","resources/trios/L2T4A1.jpg","37","restless",0.4,0.5,0.7,0.409619138237528,"false"
"image-keyboard-response",600,502926,"0.0-3.196-1.196","amblbmvsjnlvt03",485,"12.csv","","null","resources/maskTrios/L2BB.jpg","null","",NA,NA,NA,NA,""
"image-keyboard-response",601,504137,"0.0-3.196-2.196","amblbmvsjnlvt03",485,"12.csv","","null","resources/images/fishbone.png","null","",NA,NA,NA,NA,""
"image-keyboard-response",602,504603,"0.0-3.197-0.197","amblbmvsjnlvt03",485,"12.csv","","464.8999999985099","resources/trios/L1T2A3.jpg","38","restless",0.4,0.5,0.8,0.790080865694182,"false"
"image-keyboard-response",603,505006,"0.0-3.197-1.197","amblbmvsjnlvt03",485,"12.csv","","null","resources/maskTrios/BT2B.jpg","null","",NA,NA,NA,NA,""
"image-keyboard-response",604,506218,"0.0-3.197-2.197","amblbmvsjnlvt03",485,"12.csv","","null","resources/images/fishbone.png","null","",NA,NA,NA,NA,""
"image-keyboard-response",605,506319,"0.0-3.198-0.198","amblbmvsjnlvt03",485,"12.csv","","99.29999999701977","resources/trios/L2T4A3.jpg","37","restless",0.5,0.5,0.8,0.270198142006412,"true"
"image-keyboard-response",606,506730,"0.0-3.198-1.198","amblbmvsjnlvt03",485,"12.csv","","null","resources/maskTrios/L2BB.jpg","null","",NA,NA,NA,NA,""
"image-keyboard-response",607,507938,"0.0-3.198-2.198","amblbmvsjnlvt03",485,"12.csv","","null","resources/images/coin2.png","null","",NA,NA,NA,NA,""
"image-keyboard-response",608,508857,"0.0-3.199-0.199","amblbmvsjnlvt03",485,"12.csv","","917.5","resources/trios/L2T2A3.jpg","37","restless",0.6,0.5,0.8,0.528147143098902,"true"
"image-keyboard-response",609,509262,"0.0-3.199-1.199","amblbmvsjnlvt03",485,"12.csv","","null","resources/maskTrios/L2BB.jpg","null","",NA,NA,NA,NA,""
