"trial_type","trial_index","time_elapsed","internal_node_id","subject","participantCode","walkNumber","success","rt","stimulus","key_press","test_part","leftProb","midProb","rightProb","generatedNum","correct"
"pavlovia",0,1415,"0.0-0.0","xxqrngd1b9ebjwx",420,"53.csv","","","","","",NA,NA,NA,NA,""
"fullscreen",1,4834,"0.0-1.0","xxqrngd1b9ebjwx",420,"53.csv","true","","","","",NA,NA,NA,NA,""
"html-keyboard-response",2,10378,"0.0-2.0-0.0","xxqrngd1b9ebjwx",420,"53.csv","","5542.699999988079","<p><font size='6'>Arrrgh!</p></font><p>Can you be the best pirate? Try to find lots of gold! But beware, some islands have more gold than others, and over time, the island with the most gold may change. Can YOU figure it out? </p><font size='6'>GOOD LUCK, CAPTAIN!!!</font><p>Press any key to begin</p>","32","",NA,NA,NA,NA,""
"image-keyboard-response",3,13382,"0.0-2.0-1.0","xxqrngd1b9ebjwx",420,"53.csv","","null","resources/image_sets/111.png","null","",NA,NA,NA,NA,""
"image-keyboard-response",4,18127,"0.0-2.0-2.0","xxqrngd1b9ebjwx",420,"53.csv","","4743.800000011921","resources/image_sets/left_highlight.png","37","",NA,NA,NA,NA,""
"image-keyboard-response",5,20277,"0.0-2.0-3.0","xxqrngd1b9ebjwx",420,"53.csv","","2149.400000035763","resources/image_sets/mid_highlight.png","38","",NA,NA,NA,NA,""
"image-keyboard-response",6,21699,"0.0-2.0-4.0","xxqrngd1b9ebjwx",420,"53.csv","","1421.300000011921","resources/image_sets/right_highlight.png","39","",NA,NA,NA,NA,""
"image-keyboard-response",7,25217,"0.0-2.0-5.0","xxqrngd1b9ebjwx",420,"53.csv","","3517.699999988079","resources/image_sets/111.png","13","",NA,NA,NA,NA,""
"image-keyboard-response",8,27669,"0.0-2.0-6.0","xxqrngd1b9ebjwx",420,"53.csv","","2451.699999988079","resources/images/coin2.png","13","",NA,NA,NA,NA,""
"image-keyboard-response",9,29088,"0.0-2.0-7.0","xxqrngd1b9ebjwx",420,"53.csv","","1418.300000011921","resources/images/fishbone.png","13","",NA,NA,NA,NA,""
"html-keyboard-response",10,33355,"0.0-2.0-8.0","xxqrngd1b9ebjwx",420,"53.csv","","4266.199999988079","<p>Your first journey will be a long one, but you will get a well deserved break at the end</p><p>After the break you will have four more journeys, but each will be much shorter than the first, and you will have breaks in between each</p><p>Press Enter to begin</p>","13","",NA,NA,NA,NA,""
"image-keyboard-response",11,36053,"0.0-3.0-0.0","xxqrngd1b9ebjwx",420,"53.csv","","2696.5","resources/trios/L4T2A3.jpg","38","restless",0.3,0.9,0.7,0.560034735756725,"true"
"image-keyboard-response",12,36456,"0.0-3.0-1.0","xxqrngd1b9ebjwx",420,"53.csv","","null","resources/maskTrios/BT2B.jpg","null","",NA,NA,NA,NA,""
"image-keyboard-response",13,37660,"0.0-3.0-2.0","xxqrngd1b9ebjwx",420,"53.csv","","null","resources/images/coin2.png","null","",NA,NA,NA,NA,""
"image-keyboard-response",14,38778,"0.0-3.1-0.1","xxqrngd1b9ebjwx",420,"53.csv","","1116.9000000357628","resources/trios/L4T2A3.jpg","38","restless",0.3,0.9,0.7,0.0808886972034106,"true"
"image-keyboard-response",15,39179,"0.0-3.1-1.1","xxqrngd1b9ebjwx",420,"53.csv","","null","resources/maskTrios/BT2B.jpg","null","",NA,NA,NA,NA,""
"image-keyboard-response",16,40385,"0.0-3.1-2.1","xxqrngd1b9ebjwx",420,"53.csv","","null","resources/images/coin2.png","null","",NA,NA,NA,NA,""
"image-keyboard-response",17,41866,"0.0-3.2-0.2","xxqrngd1b9ebjwx",420,"53.csv","","1480.300000011921","resources/trios/L2T4A3.jpg","37","restless",0.3,0.8,0.7,0.166110514238487,"true"
"image-keyboard-response",18,42269,"0.0-3.2-1.2","xxqrngd1b9ebjwx",420,"53.csv","","null","resources/maskTrios/L2BB.jpg","null","",NA,NA,NA,NA,""
"image-keyboard-response",19,43471,"0.0-3.2-2.2","xxqrngd1b9ebjwx",420,"53.csv","","null","resources/images/coin2.png","null","",NA,NA,NA,NA,""
"image-keyboard-response",20,44118,"0.0-3.3-0.3","xxqrngd1b9ebjwx",420,"53.csv","","646.7999999523163","resources/trios/L2T2A2.jpg","37","restless",0.3,0.8,0.7,0.214320861372256,"true"
"image-keyboard-response",21,44522,"0.0-3.3-1.3","xxqrngd1b9ebjwx",420,"53.csv","","null","resources/maskTrios/L2BB.jpg","null","",NA,NA,NA,NA,""
"image-keyboard-response",22,45728,"0.0-3.3-2.3","xxqrngd1b9ebjwx",420,"53.csv","","null","resources/images/coin2.png","null","",NA,NA,NA,NA,""
"image-keyboard-response",23,46285,"0.0-3.4-0.4","xxqrngd1b9ebjwx",420,"53.csv","","556.3999999761581","resources/trios/L2T4A2.jpg","37","restless",0.3,0.8,0.7,0.70325439801719,"false"
"image-keyboard-response",24,46688,"0.0-3.4-1.4","xxqrngd1b9ebjwx",420,"53.csv","","null","resources/maskTrios/L2BB.jpg","null","",NA,NA,NA,NA,""
"image-keyboard-response",25,47893,"0.0-3.4-2.4","xxqrngd1b9ebjwx",420,"53.csv","","null","resources/images/fishbone.png","null","",NA,NA,NA,NA,""
"image-keyboard-response",26,48363,"0.0-3.5-0.5","xxqrngd1b9ebjwx",420,"53.csv","","469.89999997615814","resources/trios/L2T2A2.jpg","37","restless",0.3,0.8,0.7,0.31049874983492,"false"
"image-keyboard-response",27,48766,"0.0-3.5-1.5","xxqrngd1b9ebjwx",420,"53.csv","","null","resources/maskTrios/L2BB.jpg","null","",NA,NA,NA,NA,""
"image-keyboard-response",28,49971,"0.0-3.5-2.5","xxqrngd1b9ebjwx",420,"53.csv","","null","resources/images/fishbone.png","null","",NA,NA,NA,NA,""
"image-keyboard-response",29,50472,"0.0-3.6-0.6","xxqrngd1b9ebjwx",420,"53.csv","","499.7999999523163","resources/trios/L2T4A2.jpg","37","restless",0.3,0.8,0.7,0.211508695565471,"true"
"image-keyboard-response",30,50878,"0.0-3.6-1.6","xxqrngd1b9ebjwx",420,"53.csv","","null","resources/maskTrios/L2BB.jpg","null","",NA,NA,NA,NA,""
"image-keyboard-response",31,52084,"0.0-3.6-2.6","xxqrngd1b9ebjwx",420,"53.csv","","null","resources/images/coin2.png","null","",NA,NA,NA,NA,""
"image-keyboard-response",32,53011,"0.0-3.7-0.7","xxqrngd1b9ebjwx",420,"53.csv","","927.1999999880791","resources/trios/L2T2A3.jpg","37","restless",0.3,0.8,0.7,0.429744109140078,"false"
"image-keyboard-response",33,53417,"0.0-3.7-1.7","xxqrngd1b9ebjwx",420,"53.csv","","null","resources/maskTrios/L2BB.jpg","null","",NA,NA,NA,NA,""
"image-keyboard-response",34,54622,"0.0-3.7-2.7","xxqrngd1b9ebjwx",420,"53.csv","","null","resources/images/fishbone.png","null","",NA,NA,NA,NA,""
"image-keyboard-response",35,54943,"0.0-3.8-0.8","xxqrngd1b9ebjwx",420,"53.csv","","319.9000000357628","resources/trios/L2T4A2.jpg","37","restless",0.3,0.8,0.7,0.965796279182005,"false"
"image-keyboard-response",36,55345,"0.0-3.8-1.8","xxqrngd1b9ebjwx",420,"53.csv","","null","resources/maskTrios/L2BB.jpg","null","",NA,NA,NA,NA,""
"image-keyboard-response",37,56546,"0.0-3.8-2.8","xxqrngd1b9ebjwx",420,"53.csv","","null","resources/images/fishbone.png","null","",NA,NA,NA,NA,""
"image-keyboard-response",38,56981,"0.0-3.9-0.9","xxqrngd1b9ebjwx",420,"53.csv","","433.80000001192093","resources/trios/L4T4A2.jpg","37","restless",0.3,0.8,0.7,0.57567465592651,"false"
"image-keyboard-response",39,57382,"0.0-3.9-1.9","xxqrngd1b9ebjwx",420,"53.csv","","null","resources/maskTrios/L4BB.jpg","null","",NA,NA,NA,NA,""
"image-keyboard-response",40,58587,"0.0-3.9-2.9","xxqrngd1b9ebjwx",420,"53.csv","","null","resources/images/fishbone.png","null","",NA,NA,NA,NA,""
"image-keyboard-response",41,59197,"0.0-3.10-0.10","xxqrngd1b9ebjwx",420,"53.csv","","609.3000000119209","resources/trios/L2T4A2.jpg","37","restless",0.3,0.8,0.7,0.183418195226442,"true"
"image-keyboard-response",42,59599,"0.0-3.10-1.10","xxqrngd1b9ebjwx",420,"53.csv","","null","resources/maskTrios/L2BB.jpg","null","",NA,NA,NA,NA,""
"image-keyboard-response",43,60804,"0.0-3.10-2.10","xxqrngd1b9ebjwx",420,"53.csv","","null","resources/images/coin2.png","null","",NA,NA,NA,NA,""
"image-keyboard-response",44,62031,"0.0-3.11-0.11","xxqrngd1b9ebjwx",420,"53.csv","","1226.1000000238419","resources/trios/L4T2A2.jpg","38","restless",0.3,0.8,0.7,0.453480884496894,"true"
"image-keyboard-response",45,62435,"0.0-3.11-1.11","xxqrngd1b9ebjwx",420,"53.csv","","null","resources/maskTrios/BT2B.jpg","null","",NA,NA,NA,NA,""
"image-keyboard-response",46,63638,"0.0-3.11-2.11","xxqrngd1b9ebjwx",420,"53.csv","","null","resources/images/coin2.png","null","",NA,NA,NA,NA,""
"image-keyboard-response",47,64458,"0.0-3.12-0.12","xxqrngd1b9ebjwx",420,"53.csv","","819.6999999880791","resources/trios/L4T4A3.jpg","38","restless",0.3,0.8,0.7,0.574321118504737,"true"
"image-keyboard-response",48,64862,"0.0-3.12-1.12","xxqrngd1b9ebjwx",420,"53.csv","","null","resources/maskTrios/BT4B.jpg","null","",NA,NA,NA,NA,""
"image-keyboard-response",49,66068,"0.0-3.12-2.12","xxqrngd1b9ebjwx",420,"53.csv","","null","resources/images/coin2.png","null","",NA,NA,NA,NA,""
"image-keyboard-response",50,66442,"0.0-3.13-0.13","xxqrngd1b9ebjwx",420,"53.csv","","373.80000001192093","resources/trios/L2T2A3.jpg","37","restless",0.3,0.8,0.8,0.332154782810261,"false"
"image-keyboard-response",51,66845,"0.0-3.13-1.13","xxqrngd1b9ebjwx",420,"53.csv","","null","resources/maskTrios/L2BB.jpg","null","",NA,NA,NA,NA,""
"image-keyboard-response",52,68045,"0.0-3.13-2.13","xxqrngd1b9ebjwx",420,"53.csv","","null","resources/images/fishbone.png","null","",NA,NA,NA,NA,""
"image-keyboard-response",53,68634,"0.0-3.14-0.14","xxqrngd1b9ebjwx",420,"53.csv","","588.6000000238419","resources/trios/L2T4A3.jpg","37","restless",0.3,0.7,0.8,0.212054448666567,"true"
"image-keyboard-response",54,69039,"0.0-3.14-1.14","xxqrngd1b9ebjwx",420,"53.csv","","null","resources/maskTrios/L2BB.jpg","null","",NA,NA,NA,NA,""
"image-keyboard-response",55,70241,"0.0-3.14-2.14","xxqrngd1b9ebjwx",420,"53.csv","","null","resources/images/coin2.png","null","",NA,NA,NA,NA,""
"image-keyboard-response",56,70966,"0.0-3.15-0.15","xxqrngd1b9ebjwx",420,"53.csv","","724.2999999523163","resources/trios/L4T4A3.jpg","38","restless",0.3,0.7,0.9,0.407205115769895,"true"
"image-keyboard-response",57,71369,"0.0-3.15-1.15","xxqrngd1b9ebjwx",420,"53.csv","","null","resources/maskTrios/BT4B.jpg","null","",NA,NA,NA,NA,""
"image-keyboard-response",58,72575,"0.0-3.15-2.15","xxqrngd1b9ebjwx",420,"53.csv","","null","resources/images/coin2.png","null","",NA,NA,NA,NA,""
"image-keyboard-response",59,73916,"0.0-3.16-0.16","xxqrngd1b9ebjwx",420,"53.csv","","1340.199999988079","resources/trios/L4T2A2.jpg","38","restless",0.3,0.7,0.9,0.179284741562764,"true"
"image-keyboard-response",60,74321,"0.0-3.16-1.16","xxqrngd1b9ebjwx",420,"53.csv","","null","resources/maskTrios/BT2B.jpg","null","",NA,NA,NA,NA,""
"image-keyboard-response",61,75522,"0.0-3.16-2.16","xxqrngd1b9ebjwx",420,"53.csv","","null","resources/images/coin2.png","null","",NA,NA,NA,NA,""
"image-keyboard-response",62,75834,"0.0-3.17-0.17","xxqrngd1b9ebjwx",420,"53.csv","","311.30000001192093","resources/trios/L2T4A2.jpg","39","restless",0.3,0.7,0.9,0.991432216048961,"false"
"image-keyboard-response",63,76240,"0.0-3.17-1.17","xxqrngd1b9ebjwx",420,"53.csv","","null","resources/maskTrios/BBA2.jpg","null","",NA,NA,NA,NA,""
"image-keyboard-response",64,77443,"0.0-3.17-2.17","xxqrngd1b9ebjwx",420,"53.csv","","null","resources/images/fishbone.png","null","",NA,NA,NA,NA,""
"image-keyboard-response",65,77839,"0.0-3.18-0.18","xxqrngd1b9ebjwx",420,"53.csv","","395.5999999642372","resources/trios/L4T4A3.jpg","38","restless",0.3,0.7,0.8,0.813222811492671,"false"
"image-keyboard-response",66,78243,"0.0-3.18-1.18","xxqrngd1b9ebjwx",420,"53.csv","","null","resources/maskTrios/BT4B.jpg","null","",NA,NA,NA,NA,""
"image-keyboard-response",67,79445,"0.0-3.18-2.18","xxqrngd1b9ebjwx",420,"53.csv","","null","resources/images/fishbone.png","null","",NA,NA,NA,NA,""
"image-keyboard-response",68,79760,"0.0-3.19-0.19","xxqrngd1b9ebjwx",420,"53.csv","","314.39999997615814","resources/trios/L4T4A2.jpg","38","restless",0.3,0.7,0.8,0.544597176486741,"true"
"image-keyboard-response",69,80166,"0.0-3.19-1.19","xxqrngd1b9ebjwx",420,"53.csv","","null","resources/maskTrios/BT4B.jpg","null","",NA,NA,NA,NA,""
"image-keyboard-response",70,81367,"0.0-3.19-2.19","xxqrngd1b9ebjwx",420,"53.csv","","null","resources/images/coin2.png","null","",NA,NA,NA,NA,""
"image-keyboard-response",71,81677,"0.0-3.20-0.20","xxqrngd1b9ebjwx",420,"53.csv","","309.60000002384186","resources/trios/L2T2A2.jpg","37","restless",0.3,0.7,0.8,0.816255867097155,"false"
"image-keyboard-response",72,82079,"0.0-3.20-1.20","xxqrngd1b9ebjwx",420,"53.csv","","null","resources/maskTrios/L2BB.jpg","null","",NA,NA,NA,NA,""
"image-keyboard-response",73,83284,"0.0-3.20-2.20","xxqrngd1b9ebjwx",420,"53.csv","","null","resources/images/fishbone.png","null","",NA,NA,NA,NA,""
"image-keyboard-response",74,83894,"0.0-3.21-0.21","xxqrngd1b9ebjwx",420,"53.csv","","608.7999999523163","resources/trios/L2T4A3.jpg","39","restless",0.3,0.7,0.7,0.975784168994109,"false"
"image-keyboard-response",75,84299,"0.0-3.21-1.21","xxqrngd1b9ebjwx",420,"53.csv","","null","resources/maskTrios/BBA3.jpg","null","",NA,NA,NA,NA,""
"image-keyboard-response",76,85504,"0.0-3.21-2.21","xxqrngd1b9ebjwx",420,"53.csv","","null","resources/images/fishbone.png","null","",NA,NA,NA,NA,""
"image-keyboard-response",77,85831,"0.0-3.22-0.22","xxqrngd1b9ebjwx",420,"53.csv","","326.39999997615814","resources/trios/L4T2A2.jpg","38","restless",0.3,0.7,0.7,0.387435761725132,"true"
"image-keyboard-response",78,86236,"0.0-3.22-1.22","xxqrngd1b9ebjwx",420,"53.csv","","null","resources/maskTrios/BT2B.jpg","null","",NA,NA,NA,NA,""
"image-keyboard-response",79,87442,"0.0-3.22-2.22","xxqrngd1b9ebjwx",420,"53.csv","","null","resources/images/coin2.png","null","",NA,NA,NA,NA,""
"image-keyboard-response",80,88376,"0.0-3.23-0.23","xxqrngd1b9ebjwx",420,"53.csv","","933.9000000357628","resources/trios/L2T2A2.jpg","38","restless",0.3,0.7,0.7,0.81622482761422,"false"
"image-keyboard-response",81,88779,"0.0-3.23-1.23","xxqrngd1b9ebjwx",420,"53.csv","","null","resources/maskTrios/BT2B.jpg","null","",NA,NA,NA,NA,""
"image-keyboard-response",82,89983,"0.0-3.23-2.23","xxqrngd1b9ebjwx",420,"53.csv","","null","resources/images/fishbone.png","null","",NA,NA,NA,NA,""
"image-keyboard-response",83,90239,"0.0-3.24-0.24","xxqrngd1b9ebjwx",420,"53.csv","","255.60000002384186","resources/trios/L4T4A2.jpg","37","restless",0.3,0.7,0.7,0.668703689102595,"false"
"image-keyboard-response",84,90645,"0.0-3.24-1.24","xxqrngd1b9ebjwx",420,"53.csv","","null","resources/maskTrios/L4BB.jpg","null","",NA,NA,NA,NA,""
"image-keyboard-response",85,91847,"0.0-3.24-2.24","xxqrngd1b9ebjwx",420,"53.csv","","null","resources/images/fishbone.png","null","",NA,NA,NA,NA,""
"image-keyboard-response",86,91965,"0.0-3.25-0.25","xxqrngd1b9ebjwx",420,"53.csv","","117","resources/trios/L2T4A3.jpg","37","restless",0.4,0.7,0.7,0.467852365039775,"false"
"image-keyboard-response",87,92369,"0.0-3.25-1.25","xxqrngd1b9ebjwx",420,"53.csv","","null","resources/maskTrios/L2BB.jpg","null","",NA,NA,NA,NA,""
"image-keyboard-response",88,93575,"0.0-3.25-2.25","xxqrngd1b9ebjwx",420,"53.csv","","null","resources/images/fishbone.png","null","",NA,NA,NA,NA,""
"image-keyboard-response",89,93798,"0.0-3.26-0.26","xxqrngd1b9ebjwx",420,"53.csv","","222.39999997615814","resources/trios/L4T4A3.jpg","37","restless",0.4,0.7,0.7,0.0566568669807399,"true"
"image-keyboard-response",90,94203,"0.0-3.26-1.26","xxqrngd1b9ebjwx",420,"53.csv","","null","resources/maskTrios/L4BB.jpg","null","",NA,NA,NA,NA,""
"image-keyboard-response",91,95404,"0.0-3.26-2.26","xxqrngd1b9ebjwx",420,"53.csv","","null","resources/images/coin2.png","null","",NA,NA,NA,NA,""
"image-keyboard-response",92,95984,"0.0-3.27-0.27","xxqrngd1b9ebjwx",420,"53.csv","","579","resources/trios/L2T2A2.jpg","38","restless",0.4,0.7,0.7,0.981906213636849,"false"
"image-keyboard-response",93,96390,"0.0-3.27-1.27","xxqrngd1b9ebjwx",420,"53.csv","","null","resources/maskTrios/BT2B.jpg","null","",NA,NA,NA,NA,""
"image-keyboard-response",94,97591,"0.0-3.27-2.27","xxqrngd1b9ebjwx",420,"53.csv","","null","resources/images/fishbone.png","null","",NA,NA,NA,NA,""
"image-keyboard-response",95,97932,"0.0-3.28-0.28","xxqrngd1b9ebjwx",420,"53.csv","","340","resources/trios/L2T2A2.jpg","38","restless",0.4,0.7,0.7,0.0789708288080688,"true"
"image-keyboard-response",96,98338,"0.0-3.28-1.28","xxqrngd1b9ebjwx",420,"53.csv","","null","resources/maskTrios/BT2B.jpg","null","",NA,NA,NA,NA,""
"image-keyboard-response",97,99541,"0.0-3.28-2.28","xxqrngd1b9ebjwx",420,"53.csv","","null","resources/images/coin2.png","null","",NA,NA,NA,NA,""
"image-keyboard-response",98,99905,"0.0-3.29-0.29","xxqrngd1b9ebjwx",420,"53.csv","","363.39999997615814","resources/trios/L2T2A3.jpg","37","restless",0.4,0.7,0.8,0.014880609251098,"true"
"image-keyboard-response",99,100310,"0.0-3.29-1.29","xxqrngd1b9ebjwx",420,"53.csv","","null","resources/maskTrios/L2BB.jpg","null","",NA,NA,NA,NA,""
"image-keyboard-response",100,101512,"0.0-3.29-2.29","xxqrngd1b9ebjwx",420,"53.csv","","null","resources/images/coin2.png","null","",NA,NA,NA,NA,""
"image-keyboard-response",101,101774,"0.0-3.30-0.30","xxqrngd1b9ebjwx",420,"53.csv","","260.89999997615814","resources/trios/L2T4A3.jpg","39","restless",0.4,0.7,0.8,0.199289075978129,"true"
"image-keyboard-response",102,102177,"0.0-3.30-1.30","xxqrngd1b9ebjwx",420,"53.csv","","null","resources/maskTrios/BBA3.jpg","null","",NA,NA,NA,NA,""
"image-keyboard-response",103,103383,"0.0-3.30-2.30","xxqrngd1b9ebjwx",420,"53.csv","","null","resources/images/coin2.png","null","",NA,NA,NA,NA,""
"image-keyboard-response",104,103804,"0.0-3.31-0.31","xxqrngd1b9ebjwx",420,"53.csv","","420.19999998807907","resources/trios/L4T4A2.jpg","39","restless",0.4,0.7,0.8,0.0831668680125011,"true"
"image-keyboard-response",105,104206,"0.0-3.31-1.31","xxqrngd1b9ebjwx",420,"53.csv","","null","resources/maskTrios/BBA2.jpg","null","",NA,NA,NA,NA,""
"image-keyboard-response",106,105409,"0.0-3.31-2.31","xxqrngd1b9ebjwx",420,"53.csv","","null","resources/images/coin2.png","null","",NA,NA,NA,NA,""
"image-keyboard-response",107,106310,"0.0-3.32-0.32","xxqrngd1b9ebjwx",420,"53.csv","","900","resources/trios/L4T4A3.jpg","39","restless",0.4,0.7,0.8,0.135883624447059,"true"
"image-keyboard-response",108,106715,"0.0-3.32-1.32","xxqrngd1b9ebjwx",420,"53.csv","","null","resources/maskTrios/BBA3.jpg","null","",NA,NA,NA,NA,""
"image-keyboard-response",109,107921,"0.0-3.32-2.32","xxqrngd1b9ebjwx",420,"53.csv","","null","resources/images/coin2.png","null","",NA,NA,NA,NA,""
"image-keyboard-response",110,108377,"0.0-3.33-0.33","xxqrngd1b9ebjwx",420,"53.csv","","455.39999997615814","resources/trios/L4T4A3.jpg","39","restless",0.4,0.8,0.8,0.415800108224581,"true"
"image-keyboard-response",111,108783,"0.0-3.33-1.33","xxqrngd1b9ebjwx",420,"53.csv","","null","resources/maskTrios/BBA3.jpg","null","",NA,NA,NA,NA,""
"image-keyboard-response",112,109988,"0.0-3.33-2.33","xxqrngd1b9ebjwx",420,"53.csv","","null","resources/images/coin2.png","null","",NA,NA,NA,NA,""
"image-keyboard-response",113,110391,"0.0-3.34-0.34","xxqrngd1b9ebjwx",420,"53.csv","","401.69999998807907","resources/trios/L4T2A3.jpg","39","restless",0.4,0.7,0.8,0.0454000706628355,"true"
"image-keyboard-response",114,110794,"0.0-3.34-1.34","xxqrngd1b9ebjwx",420,"53.csv","","null","resources/maskTrios/BBA3.jpg","null","",NA,NA,NA,NA,""
"image-keyboard-response",115,111996,"0.0-3.34-2.34","xxqrngd1b9ebjwx",420,"53.csv","","null","resources/images/coin2.png","null","",NA,NA,NA,NA,""
"image-keyboard-response",116,112483,"0.0-3.35-0.35","xxqrngd1b9ebjwx",420,"53.csv","","485.5999999642372","resources/trios/L2T4A2.jpg","39","restless",0.4,0.7,0.8,0.739214693852721,"true"
"image-keyboard-response",117,112884,"0.0-3.35-1.35","xxqrngd1b9ebjwx",420,"53.csv","","null","resources/maskTrios/BBA2.jpg","null","",NA,NA,NA,NA,""
"image-keyboard-response",118,114086,"0.0-3.35-2.35","xxqrngd1b9ebjwx",420,"53.csv","","null","resources/images/coin2.png","null","",NA,NA,NA,NA,""
"image-keyboard-response",119,114400,"0.0-3.36-0.36","xxqrngd1b9ebjwx",420,"53.csv","","312.39999997615814","resources/trios/L2T4A3.jpg","39","restless",0.4,0.6,0.8,0.60766791984971,"true"
"image-keyboard-response",120,114803,"0.0-3.36-1.36","xxqrngd1b9ebjwx",420,"53.csv","","null","resources/maskTrios/BBA3.jpg","null","",NA,NA,NA,NA,""
"image-keyboard-response",121,116009,"0.0-3.36-2.36","xxqrngd1b9ebjwx",420,"53.csv","","null","resources/images/coin2.png","null","",NA,NA,NA,NA,""
"image-keyboard-response",122,116314,"0.0-3.37-0.37","xxqrngd1b9ebjwx",420,"53.csv","","304.5","resources/trios/L4T4A2.jpg","38","restless",0.4,0.6,0.8,0.237650129948877,"true"
"image-keyboard-response",123,116719,"0.0-3.37-1.37","xxqrngd1b9ebjwx",420,"53.csv","","null","resources/maskTrios/BT4B.jpg","null","",NA,NA,NA,NA,""
"image-keyboard-response",124,117925,"0.0-3.37-2.37","xxqrngd1b9ebjwx",420,"53.csv","","null","resources/images/coin2.png","null","",NA,NA,NA,NA,""
"image-keyboard-response",125,118204,"0.0-3.38-0.38","xxqrngd1b9ebjwx",420,"53.csv","","278.9000000357628","resources/trios/L4T2A3.jpg","37","restless",0.4,0.6,0.8,0.465535672421497,"false"
"image-keyboard-response",126,118610,"0.0-3.38-1.38","xxqrngd1b9ebjwx",420,"53.csv","","null","resources/maskTrios/L4BB.jpg","null","",NA,NA,NA,NA,""
"image-keyboard-response",127,119812,"0.0-3.38-2.38","xxqrngd1b9ebjwx",420,"53.csv","","null","resources/images/fishbone.png","null","",NA,NA,NA,NA,""
"image-keyboard-response",128,120053,"0.0-3.39-0.39","xxqrngd1b9ebjwx",420,"53.csv","","240.79999995231628","resources/trios/L4T2A3.jpg","38","restless",0.3,0.6,0.8,0.444401863854135,"true"
"image-keyboard-response",129,120456,"0.0-3.39-1.39","xxqrngd1b9ebjwx",420,"53.csv","","null","resources/maskTrios/BT2B.jpg","null","",NA,NA,NA,NA,""
"image-keyboard-response",130,121657,"0.0-3.39-2.39","xxqrngd1b9ebjwx",420,"53.csv","","null","resources/images/coin2.png","null","",NA,NA,NA,NA,""
"image-keyboard-response",131,121810,"0.0-3.40-0.40","xxqrngd1b9ebjwx",420,"53.csv","","153.0999999642372","resources/trios/L4T4A2.jpg","38","restless",0.3,0.5,0.8,0.708974561546747,"false"
"image-keyboard-response",132,122214,"0.0-3.40-1.40","xxqrngd1b9ebjwx",420,"53.csv","","null","resources/maskTrios/BT4B.jpg","null","",NA,NA,NA,NA,""
"image-keyboard-response",133,123419,"0.0-3.40-2.40","xxqrngd1b9ebjwx",420,"53.csv","","null","resources/images/fishbone.png","null","",NA,NA,NA,NA,""
"image-keyboard-response",134,123573,"0.0-3.41-0.41","xxqrngd1b9ebjwx",420,"53.csv","","153.29999995231628","resources/trios/L2T2A2.jpg","38","restless",0.3,0.5,0.7,0.228238126204211,"true"
"image-keyboard-response",135,123979,"0.0-3.41-1.41","xxqrngd1b9ebjwx",420,"53.csv","","null","resources/maskTrios/BT2B.jpg","null","",NA,NA,NA,NA,""
"image-keyboard-response",136,125185,"0.0-3.41-2.41","xxqrngd1b9ebjwx",420,"53.csv","","null","resources/images/coin2.png","null","",NA,NA,NA,NA,""
"image-keyboard-response",137,125445,"0.0-3.42-0.42","xxqrngd1b9ebjwx",420,"53.csv","","259.7999999523163","resources/trios/L4T2A2.jpg","38","restless",0.3,0.5,0.7,0.679593287607137,"false"
"image-keyboard-response",138,125850,"0.0-3.42-1.42","xxqrngd1b9ebjwx",420,"53.csv","","null","resources/maskTrios/BT2B.jpg","null","",NA,NA,NA,NA,""
"image-keyboard-response",139,127053,"0.0-3.42-2.42","xxqrngd1b9ebjwx",420,"53.csv","","null","resources/images/fishbone.png","null","",NA,NA,NA,NA,""
"image-keyboard-response",140,127072,"0.0-3.43-0.43","xxqrngd1b9ebjwx",420,"53.csv","","18.30000001192093","resources/trios/L4T2A3.jpg","38","restless",0.3,0.5,0.7,0.723361505979285,"false"
"image-keyboard-response",141,127476,"0.0-3.43-1.43","xxqrngd1b9ebjwx",420,"53.csv","","null","resources/maskTrios/BT2B.jpg","null","",NA,NA,NA,NA,""
"image-keyboard-response",142,128680,"0.0-3.43-2.43","xxqrngd1b9ebjwx",420,"53.csv","","null","resources/images/fishbone.png","null","",NA,NA,NA,NA,""
"image-keyboard-response",143,128767,"0.0-3.44-0.44","xxqrngd1b9ebjwx",420,"53.csv","","86.30000001192093","resources/trios/L2T2A2.jpg","39","restless",0.3,0.5,0.7,0.0628889919978293,"true"
"image-keyboard-response",144,129172,"0.0-3.44-1.44","xxqrngd1b9ebjwx",420,"53.csv","","null","resources/maskTrios/BBA2.jpg","null","",NA,NA,NA,NA,""
"image-keyboard-response",145,130377,"0.0-3.44-2.44","xxqrngd1b9ebjwx",420,"53.csv","","null","resources/images/coin2.png","null","",NA,NA,NA,NA,""
"image-keyboard-response",146,130887,"0.0-3.45-0.45","xxqrngd1b9ebjwx",420,"53.csv","","509.69999998807907","resources/trios/L2T4A2.jpg","37","restless",0.3,0.5,0.7,0.862562676957343,"false"
"image-keyboard-response",147,131293,"0.0-3.45-1.45","xxqrngd1b9ebjwx",420,"53.csv","","null","resources/maskTrios/L2BB.jpg","null","",NA,NA,NA,NA,""
"image-keyboard-response",148,132495,"0.0-3.45-2.45","xxqrngd1b9ebjwx",420,"53.csv","","null","resources/images/fishbone.png","null","",NA,NA,NA,NA,""
"image-keyboard-response",149,132746,"0.0-3.46-0.46","xxqrngd1b9ebjwx",420,"53.csv","","250.30000001192093","resources/trios/L2T4A3.jpg","39","restless",0.3,0.5,0.7,0.555982899192215,"true"
"image-keyboard-response",150,133152,"0.0-3.46-1.46","xxqrngd1b9ebjwx",420,"53.csv","","null","resources/maskTrios/BBA3.jpg","null","",NA,NA,NA,NA,""
"image-keyboard-response",151,134354,"0.0-3.46-2.46","xxqrngd1b9ebjwx",420,"53.csv","","null","resources/images/coin2.png","null","",NA,NA,NA,NA,""
"image-keyboard-response",152,134614,"0.0-3.47-0.47","xxqrngd1b9ebjwx",420,"53.csv","","259.69999998807907","resources/trios/L2T2A3.jpg","39","restless",0.3,0.5,0.7,0.58585232720875,"true"
"image-keyboard-response",153,135020,"0.0-3.47-1.47","xxqrngd1b9ebjwx",420,"53.csv","","null","resources/maskTrios/BBA3.jpg","null","",NA,NA,NA,NA,""
"image-keyboard-response",154,136223,"0.0-3.47-2.47","xxqrngd1b9ebjwx",420,"53.csv","","null","resources/images/coin2.png","null","",NA,NA,NA,NA,""
"image-keyboard-response",155,136453,"0.0-3.48-0.48","xxqrngd1b9ebjwx",420,"53.csv","","229.5","resources/trios/L4T4A3.jpg","39","restless",0.3,0.5,0.7,0.117466777600321,"true"
"image-keyboard-response",156,136859,"0.0-3.48-1.48","xxqrngd1b9ebjwx",420,"53.csv","","null","resources/maskTrios/BBA3.jpg","null","",NA,NA,NA,NA,""
"image-keyboard-response",157,138062,"0.0-3.48-2.48","xxqrngd1b9ebjwx",420,"53.csv","","null","resources/images/coin2.png","null","",NA,NA,NA,NA,""
"image-keyboard-response",158,138294,"0.0-3.49-0.49","xxqrngd1b9ebjwx",420,"53.csv","","230.9000000357628","resources/trios/L4T2A3.jpg","39","restless",0.3,0.5,0.7,0.938399547948639,"false"
"image-keyboard-response",159,138697,"0.0-3.49-1.49","xxqrngd1b9ebjwx",420,"53.csv","","null","resources/maskTrios/BBA3.jpg","null","",NA,NA,NA,NA,""
"image-keyboard-response",160,139898,"0.0-3.49-2.49","xxqrngd1b9ebjwx",420,"53.csv","","null","resources/images/fishbone.png","null","",NA,NA,NA,NA,""
"image-keyboard-response",161,140305,"0.0-3.50-0.50","xxqrngd1b9ebjwx",420,"53.csv","","406.69999998807907","resources/trios/L4T4A3.jpg","37","restless",0.3,0.4,0.7,0.154592824775903,"true"
"image-keyboard-response",162,140710,"0.0-3.50-1.50","xxqrngd1b9ebjwx",420,"53.csv","","null","resources/maskTrios/L4BB.jpg","null","",NA,NA,NA,NA,""
"image-keyboard-response",163,141912,"0.0-3.50-2.50","xxqrngd1b9ebjwx",420,"53.csv","","null","resources/images/coin2.png","null","",NA,NA,NA,NA,""
"image-keyboard-response",164,142056,"0.0-3.51-0.51","xxqrngd1b9ebjwx",420,"53.csv","","143.69999998807907","resources/trios/L2T2A3.jpg","37","restless",0.3,0.4,0.7,0.664825322251445,"false"
"image-keyboard-response",165,142459,"0.0-3.51-1.51","xxqrngd1b9ebjwx",420,"53.csv","","null","resources/maskTrios/L2BB.jpg","null","",NA,NA,NA,NA,""
"image-keyboard-response",166,143661,"0.0-3.51-2.51","xxqrngd1b9ebjwx",420,"53.csv","","null","resources/images/fishbone.png","null","",NA,NA,NA,NA,""
"image-keyboard-response",167,143666,"0.0-3.52-0.52","xxqrngd1b9ebjwx",420,"53.csv","","3.5","resources/trios/L4T2A3.jpg","38","restless",0.3,0.4,0.7,0.612386621588411,"false"
"image-keyboard-response",168,144070,"0.0-3.52-1.52","xxqrngd1b9ebjwx",420,"53.csv","","null","resources/maskTrios/BT2B.jpg","null","",NA,NA,NA,NA,""
"image-keyboard-response",169,145275,"0.0-3.52-2.52","xxqrngd1b9ebjwx",420,"53.csv","","null","resources/images/fishbone.png","null","",NA,NA,NA,NA,""
"image-keyboard-response",170,145496,"0.0-3.53-0.53","xxqrngd1b9ebjwx",420,"53.csv","","220.5","resources/trios/L4T4A3.jpg","37","restless",0.3,0.4,0.7,0.987676399101455,"false"
"image-keyboard-response",171,145902,"0.0-3.53-1.53","xxqrngd1b9ebjwx",420,"53.csv","","null","resources/maskTrios/L4BB.jpg","null","",NA,NA,NA,NA,""
"image-keyboard-response",172,147107,"0.0-3.53-2.53","xxqrngd1b9ebjwx",420,"53.csv","","null","resources/images/fishbone.png","null","",NA,NA,NA,NA,""
"image-keyboard-response",173,147113,"0.0-3.54-0.54","xxqrngd1b9ebjwx",420,"53.csv","","6.299999952316284","resources/trios/L4T4A3.jpg","39","restless",0.3,0.3,0.7,0.84104721749385,"false"
"image-keyboard-response",174,147519,"0.0-3.54-1.54","xxqrngd1b9ebjwx",420,"53.csv","","null","resources/maskTrios/BBA3.jpg","null","",NA,NA,NA,NA,""
"image-keyboard-response",175,148722,"0.0-3.54-2.54","xxqrngd1b9ebjwx",420,"53.csv","","null","resources/images/fishbone.png","null","",NA,NA,NA,NA,""
"image-keyboard-response",176,148805,"0.0-3.55-0.55","xxqrngd1b9ebjwx",420,"53.csv","","82.09999996423721","resources/trios/L4T4A3.jpg","39","restless",0.3,0.3,0.7,0.0379926658269536,"true"
"image-keyboard-response",177,149210,"0.0-3.55-1.55","xxqrngd1b9ebjwx",420,"53.csv","","null","resources/maskTrios/BBA3.jpg","null","",NA,NA,NA,NA,""
"image-keyboard-response",178,150415,"0.0-3.55-2.55","xxqrngd1b9ebjwx",420,"53.csv","","null","resources/images/coin2.png","null","",NA,NA,NA,NA,""
"image-keyboard-response",179,150675,"0.0-3.56-0.56","xxqrngd1b9ebjwx",420,"53.csv","","259.80000001192093","resources/trios/L4T4A3.jpg","39","restless",0.3,0.3,0.7,0.95078762488286,"false"
"image-keyboard-response",180,151078,"0.0-3.56-1.56","xxqrngd1b9ebjwx",420,"53.csv","","null","resources/maskTrios/BBA3.jpg","null","",NA,NA,NA,NA,""
"image-keyboard-response",181,152284,"0.0-3.56-2.56","xxqrngd1b9ebjwx",420,"53.csv","","null","resources/images/fishbone.png","null","",NA,NA,NA,NA,""
"image-keyboard-response",182,152573,"0.0-3.57-0.57","xxqrngd1b9ebjwx",420,"53.csv","","288.19999998807907","resources/trios/L2T4A2.jpg","39","restless",0.4,0.3,0.7,0.603705587906693,"true"
"image-keyboard-response",183,152975,"0.0-3.57-1.57","xxqrngd1b9ebjwx",420,"53.csv","","null","resources/maskTrios/BBA2.jpg","null","",NA,NA,NA,NA,""
"image-keyboard-response",184,154180,"0.0-3.57-2.57","xxqrngd1b9ebjwx",420,"53.csv","","null","resources/images/coin2.png","null","",NA,NA,NA,NA,""
"image-keyboard-response",185,154441,"0.0-3.58-0.58","xxqrngd1b9ebjwx",420,"53.csv","","260.60000002384186","resources/trios/L4T4A2.jpg","39","restless",0.4,0.3,0.7,0.522625972178428,"true"
"image-keyboard-response",186,154844,"0.0-3.58-1.58","xxqrngd1b9ebjwx",420,"53.csv","","null","resources/maskTrios/BBA2.jpg","null","",NA,NA,NA,NA,""
"image-keyboard-response",187,156049,"0.0-3.58-2.58","xxqrngd1b9ebjwx",420,"53.csv","","null","resources/images/coin2.png","null","",NA,NA,NA,NA,""
"image-keyboard-response",188,156160,"0.0-3.59-0.59","xxqrngd1b9ebjwx",420,"53.csv","","110.5","resources/trios/L4T2A3.jpg","39","restless",0.4,0.3,0.7,0.183294969684482,"true"
"image-keyboard-response",189,156563,"0.0-3.59-1.59","xxqrngd1b9ebjwx",420,"53.csv","","null","resources/maskTrios/BBA3.jpg","null","",NA,NA,NA,NA,""
"image-keyboard-response",190,157769,"0.0-3.59-2.59","xxqrngd1b9ebjwx",420,"53.csv","","null","resources/images/coin2.png","null","",NA,NA,NA,NA,""
"image-keyboard-response",191,157874,"0.0-3.60-0.60","xxqrngd1b9ebjwx",420,"53.csv","","104.5","resources/trios/L4T2A2.jpg","39","restless",0.4,0.3,0.7,0.541080893322916,"true"
"image-keyboard-response",192,158276,"0.0-3.60-1.60","xxqrngd1b9ebjwx",420,"53.csv","","null","resources/maskTrios/BBA2.jpg","null","",NA,NA,NA,NA,""
"image-keyboard-response",193,159481,"0.0-3.60-2.60","xxqrngd1b9ebjwx",420,"53.csv","","null","resources/images/coin2.png","null","",NA,NA,NA,NA,""
"image-keyboard-response",194,159716,"0.0-3.61-0.61","xxqrngd1b9ebjwx",420,"53.csv","","233.70000004768372","resources/trios/L2T4A3.jpg","39","restless",0.4,0.3,0.7,0.0176707886942453,"true"
"image-keyboard-response",195,160122,"0.0-3.61-1.61","xxqrngd1b9ebjwx",420,"53.csv","","null","resources/maskTrios/BBA3.jpg","null","",NA,NA,NA,NA,""
"image-keyboard-response",196,161326,"0.0-3.61-2.61","xxqrngd1b9ebjwx",420,"53.csv","","null","resources/images/coin2.png","null","",NA,NA,NA,NA,""
"image-keyboard-response",197,161612,"0.0-3.62-0.62","xxqrngd1b9ebjwx",420,"53.csv","","285.19999998807907","resources/trios/L2T2A2.jpg","39","restless",0.4,0.4,0.7,0.119428244189724,"true"
"image-keyboard-response",198,162015,"0.0-3.62-1.62","xxqrngd1b9ebjwx",420,"53.csv","","null","resources/maskTrios/BBA2.jpg","null","",NA,NA,NA,NA,""
"image-keyboard-response",199,163220,"0.0-3.62-2.62","xxqrngd1b9ebjwx",420,"53.csv","","null","resources/images/coin2.png","null","",NA,NA,NA,NA,""
"image-keyboard-response",200,163392,"0.0-3.63-0.63","xxqrngd1b9ebjwx",420,"53.csv","","171.0999999642372","resources/trios/L2T2A2.jpg","39","restless",0.4,0.4,0.7,0.00677200023938784,"true"
"image-keyboard-response",201,163793,"0.0-3.63-1.63","xxqrngd1b9ebjwx",420,"53.csv","","null","resources/maskTrios/BBA2.jpg","null","",NA,NA,NA,NA,""
"image-keyboard-response",202,164995,"0.0-3.63-2.63","xxqrngd1b9ebjwx",420,"53.csv","","null","resources/images/coin2.png","null","",NA,NA,NA,NA,""
"image-keyboard-response",203,165250,"0.0-3.64-0.64","xxqrngd1b9ebjwx",420,"53.csv","","254","resources/trios/L4T4A2.jpg","39","restless",0.4,0.4,0.7,0.58440755540232,"true"
"image-keyboard-response",204,165652,"0.0-3.64-1.64","xxqrngd1b9ebjwx",420,"53.csv","","null","resources/maskTrios/BBA2.jpg","null","",NA,NA,NA,NA,""
"image-keyboard-response",205,166855,"0.0-3.64-2.64","xxqrngd1b9ebjwx",420,"53.csv","","null","resources/images/coin2.png","null","",NA,NA,NA,NA,""
"image-keyboard-response",206,167112,"0.0-3.65-0.65","xxqrngd1b9ebjwx",420,"53.csv","","255.89999997615814","resources/trios/L4T4A2.jpg","39","restless",0.4,0.4,0.7,0.45506889917266,"true"
"image-keyboard-response",207,167513,"0.0-3.65-1.65","xxqrngd1b9ebjwx",420,"53.csv","","null","resources/maskTrios/BBA2.jpg","null","",NA,NA,NA,NA,""
"image-keyboard-response",208,168713,"0.0-3.65-2.65","xxqrngd1b9ebjwx",420,"53.csv","","null","resources/images/coin2.png","null","",NA,NA,NA,NA,""
"image-keyboard-response",209,168899,"0.0-3.66-0.66","xxqrngd1b9ebjwx",420,"53.csv","","184.5999999642372","resources/trios/L2T4A2.jpg","39","restless",0.4,0.4,0.7,0.540215852349401,"true"
"image-keyboard-response",210,169300,"0.0-3.66-1.66","xxqrngd1b9ebjwx",420,"53.csv","","null","resources/maskTrios/BBA2.jpg","null","",NA,NA,NA,NA,""
"image-keyboard-response",211,170505,"0.0-3.66-2.66","xxqrngd1b9ebjwx",420,"53.csv","","null","resources/images/coin2.png","null","",NA,NA,NA,NA,""
"image-keyboard-response",212,171121,"0.0-3.67-0.67","xxqrngd1b9ebjwx",420,"53.csv","","615.1999999880791","resources/trios/L4T2A2.jpg","39","restless",0.4,0.4,0.6,0.785663531796667,"false"
"image-keyboard-response",213,171522,"0.0-3.67-1.67","xxqrngd1b9ebjwx",420,"53.csv","","null","resources/maskTrios/BBA2.jpg","null","",NA,NA,NA,NA,""
"image-keyboard-response",214,172725,"0.0-3.67-2.67","xxqrngd1b9ebjwx",420,"53.csv","","null","resources/images/fishbone.png","null","",NA,NA,NA,NA,""
"image-keyboard-response",215,172984,"0.0-3.68-0.68","xxqrngd1b9ebjwx",420,"53.csv","","259","resources/trios/L2T2A3.jpg","39","restless",0.4,0.4,0.6,0.592516160704274,"true"
"image-keyboard-response",216,173390,"0.0-3.68-1.68","xxqrngd1b9ebjwx",420,"53.csv","","null","resources/maskTrios/BBA3.jpg","null","",NA,NA,NA,NA,""
"image-keyboard-response",217,174594,"0.0-3.68-2.68","xxqrngd1b9ebjwx",420,"53.csv","","null","resources/images/coin2.png","null","",NA,NA,NA,NA,""
"image-keyboard-response",218,174887,"0.0-3.69-0.69","xxqrngd1b9ebjwx",420,"53.csv","","292.60000002384186","resources/trios/L4T2A2.jpg","39","restless",0.4,0.4,0.7,0.880844388783809,"false"
"image-keyboard-response",219,175291,"0.0-3.69-1.69","xxqrngd1b9ebjwx",420,"53.csv","","null","resources/maskTrios/BBA2.jpg","null","",NA,NA,NA,NA,""
"image-keyboard-response",220,176493,"0.0-3.69-2.69","xxqrngd1b9ebjwx",420,"53.csv","","null","resources/images/fishbone.png","null","",NA,NA,NA,NA,""
"image-keyboard-response",221,176769,"0.0-3.70-0.70","xxqrngd1b9ebjwx",420,"53.csv","","275.30000001192093","resources/trios/L2T2A2.jpg","39","restless",0.4,0.4,0.7,0.599355916461176,"true"
"image-keyboard-response",222,177174,"0.0-3.70-1.70","xxqrngd1b9ebjwx",420,"53.csv","","null","resources/maskTrios/BBA2.jpg","null","",NA,NA,NA,NA,""
"image-keyboard-response",223,178375,"0.0-3.70-2.70","xxqrngd1b9ebjwx",420,"53.csv","","null","resources/images/coin2.png","null","",NA,NA,NA,NA,""
"image-keyboard-response",224,178689,"0.0-3.71-0.71","xxqrngd1b9ebjwx",420,"53.csv","","313.19999998807907","resources/trios/L2T2A3.jpg","39","restless",0.4,0.4,0.7,0.302589100171422,"true"
"image-keyboard-response",225,179093,"0.0-3.71-1.71","xxqrngd1b9ebjwx",420,"53.csv","","null","resources/maskTrios/BBA3.jpg","null","",NA,NA,NA,NA,""
"image-keyboard-response",226,180298,"0.0-3.71-2.71","xxqrngd1b9ebjwx",420,"53.csv","","null","resources/images/coin2.png","null","",NA,NA,NA,NA,""
"image-keyboard-response",227,180555,"0.0-3.72-0.72","xxqrngd1b9ebjwx",420,"53.csv","","256","resources/trios/L2T4A3.jpg","39","restless",0.4,0.4,0.7,0.535606751097503,"true"
"image-keyboard-response",228,180959,"0.0-3.72-1.72","xxqrngd1b9ebjwx",420,"53.csv","","null","resources/maskTrios/BBA3.jpg","null","",NA,NA,NA,NA,""
"image-keyboard-response",229,182165,"0.0-3.72-2.72","xxqrngd1b9ebjwx",420,"53.csv","","null","resources/images/coin2.png","null","",NA,NA,NA,NA,""
"image-keyboard-response",230,182448,"0.0-3.73-0.73","xxqrngd1b9ebjwx",420,"53.csv","","282.19999998807907","resources/trios/L4T4A2.jpg","39","restless",0.4,0.3,0.6,0.889931207243265,"false"
"image-keyboard-response",231,182852,"0.0-3.73-1.73","xxqrngd1b9ebjwx",420,"53.csv","","null","resources/maskTrios/BBA2.jpg","null","",NA,NA,NA,NA,""
"image-keyboard-response",232,184055,"0.0-3.73-2.73","xxqrngd1b9ebjwx",420,"53.csv","","null","resources/images/fishbone.png","null","",NA,NA,NA,NA,""
"image-keyboard-response",233,184531,"0.0-3.74-0.74","xxqrngd1b9ebjwx",420,"53.csv","","475.19999998807907","resources/trios/L2T2A3.jpg","39","restless",0.4,0.3,0.6,0.933998528789696,"false"
"image-keyboard-response",234,184932,"0.0-3.74-1.74","xxqrngd1b9ebjwx",420,"53.csv","","null","resources/maskTrios/BBA3.jpg","null","",NA,NA,NA,NA,""
"image-keyboard-response",235,186133,"0.0-3.74-2.74","xxqrngd1b9ebjwx",420,"53.csv","","null","resources/images/fishbone.png","null","",NA,NA,NA,NA,""
"image-keyboard-response",236,186287,"0.0-3.75-0.75","xxqrngd1b9ebjwx",420,"53.csv","","153.80000001192093","resources/trios/L4T2A2.jpg","38","restless",0.4,0.3,0.6,0.871036304306294,"false"
"image-keyboard-response",237,186690,"0.0-3.75-1.75","xxqrngd1b9ebjwx",420,"53.csv","","null","resources/maskTrios/BT2B.jpg","null","",NA,NA,NA,NA,""
"image-keyboard-response",238,187895,"0.0-3.75-2.75","xxqrngd1b9ebjwx",420,"53.csv","","null","resources/images/fishbone.png","null","",NA,NA,NA,NA,""
"image-keyboard-response",239,188105,"0.0-3.76-0.76","xxqrngd1b9ebjwx",420,"53.csv","","209.30000001192093","resources/trios/L2T4A3.jpg","37","restless",0.3,0.3,0.6,0.216143396844535,"true"
"image-keyboard-response",240,188509,"0.0-3.76-1.76","xxqrngd1b9ebjwx",420,"53.csv","","null","resources/maskTrios/L2BB.jpg","null","",NA,NA,NA,NA,""
"image-keyboard-response",241,189715,"0.0-3.76-2.76","xxqrngd1b9ebjwx",420,"53.csv","","null","resources/images/coin2.png","null","",NA,NA,NA,NA,""
"image-keyboard-response",242,189982,"0.0-3.77-0.77","xxqrngd1b9ebjwx",420,"53.csv","","266.80000001192093","resources/trios/L2T2A2.jpg","37","restless",0.3,0.3,0.5,0.754445110175143,"false"
"image-keyboard-response",243,190386,"0.0-3.77-1.77","xxqrngd1b9ebjwx",420,"53.csv","","null","resources/maskTrios/L2BB.jpg","null","",NA,NA,NA,NA,""
"image-keyboard-response",244,191589,"0.0-3.77-2.77","xxqrngd1b9ebjwx",420,"53.csv","","null","resources/images/fishbone.png","null","",NA,NA,NA,NA,""
"image-keyboard-response",245,191850,"0.0-3.78-0.78","xxqrngd1b9ebjwx",420,"53.csv","","260.19999998807907","resources/trios/L2T4A2.jpg","37","restless",0.3,0.3,0.4,0.163215288509668,"true"
"image-keyboard-response",246,192255,"0.0-3.78-1.78","xxqrngd1b9ebjwx",420,"53.csv","","null","resources/maskTrios/L2BB.jpg","null","",NA,NA,NA,NA,""
"image-keyboard-response",247,193457,"0.0-3.78-2.78","xxqrngd1b9ebjwx",420,"53.csv","","null","resources/images/coin2.png","null","",NA,NA,NA,NA,""
"image-keyboard-response",248,193772,"0.0-3.79-0.79","xxqrngd1b9ebjwx",420,"53.csv","","314.0999999642372","resources/trios/L4T2A3.jpg","37","restless",0.3,0.3,0.4,0.833586211072532,"false"
"image-keyboard-response",249,194175,"0.0-3.79-1.79","xxqrngd1b9ebjwx",420,"53.csv","","null","resources/maskTrios/L4BB.jpg","null","",NA,NA,NA,NA,""
"image-keyboard-response",250,195379,"0.0-3.79-2.79","xxqrngd1b9ebjwx",420,"53.csv","","null","resources/images/fishbone.png","null","",NA,NA,NA,NA,""
"image-keyboard-response",251,195716,"0.0-3.80-0.80","xxqrngd1b9ebjwx",420,"53.csv","","336.39999997615814","resources/trios/L4T4A3.jpg","37","restless",0.3,0.4,0.4,0.472085712350738,"false"
"image-keyboard-response",252,196122,"0.0-3.80-1.80","xxqrngd1b9ebjwx",420,"53.csv","","null","resources/maskTrios/L4BB.jpg","null","",NA,NA,NA,NA,""
"image-keyboard-response",253,197324,"0.0-3.80-2.80","xxqrngd1b9ebjwx",420,"53.csv","","null","resources/images/fishbone.png","null","",NA,NA,NA,NA,""
"image-keyboard-response",254,197595,"0.0-3.81-0.81","xxqrngd1b9ebjwx",420,"53.csv","","271.30000001192093","resources/trios/L2T4A2.jpg","38","restless",0.3,0.4,0.4,0.960645367943541,"false"
"image-keyboard-response",255,197998,"0.0-3.81-1.81","xxqrngd1b9ebjwx",420,"53.csv","","null","resources/maskTrios/BT4B.jpg","null","",NA,NA,NA,NA,""
"image-keyboard-response",256,199204,"0.0-3.81-2.81","xxqrngd1b9ebjwx",420,"53.csv","","null","resources/images/fishbone.png","null","",NA,NA,NA,NA,""
"image-keyboard-response",257,199425,"0.0-3.82-0.82","xxqrngd1b9ebjwx",420,"53.csv","","220.69999998807907","resources/trios/L4T2A3.jpg","39","restless",0.4,0.4,0.4,0.158835153529881,"true"
"image-keyboard-response",258,199831,"0.0-3.82-1.82","xxqrngd1b9ebjwx",420,"53.csv","","null","resources/maskTrios/BBA3.jpg","null","",NA,NA,NA,NA,""
"image-keyboard-response",259,201037,"0.0-3.82-2.82","xxqrngd1b9ebjwx",420,"53.csv","","null","resources/images/coin2.png","null","",NA,NA,NA,NA,""
"image-keyboard-response",260,201371,"0.0-3.83-0.83","xxqrngd1b9ebjwx",420,"53.csv","","332.80000001192093","resources/trios/L4T2A2.jpg","39","restless",0.5,0.4,0.4,0.0713256648725731,"true"
"image-keyboard-response",261,201771,"0.0-3.83-1.83","xxqrngd1b9ebjwx",420,"53.csv","","null","resources/maskTrios/BBA2.jpg","null","",NA,NA,NA,NA,""
"image-keyboard-response",262,202974,"0.0-3.83-2.83","xxqrngd1b9ebjwx",420,"53.csv","","null","resources/images/coin2.png","null","",NA,NA,NA,NA,""
"image-keyboard-response",263,203219,"0.0-3.84-0.84","xxqrngd1b9ebjwx",420,"53.csv","","244.5","resources/trios/L2T2A2.jpg","39","restless",0.5,0.4,0.4,0.703326328808434,"false"
"image-keyboard-response",264,203624,"0.0-3.84-1.84","xxqrngd1b9ebjwx",420,"53.csv","","null","resources/maskTrios/BBA2.jpg","null","",NA,NA,NA,NA,""
"image-keyboard-response",265,204828,"0.0-3.84-2.84","xxqrngd1b9ebjwx",420,"53.csv","","null","resources/images/fishbone.png","null","",NA,NA,NA,NA,""
"image-keyboard-response",266,204896,"0.0-3.85-0.85","xxqrngd1b9ebjwx",420,"53.csv","","68.09999996423721","resources/trios/L4T2A2.jpg","39","restless",0.5,0.4,0.4,0.0552945801064533,"true"
"image-keyboard-response",267,205302,"0.0-3.85-1.85","xxqrngd1b9ebjwx",420,"53.csv","","null","resources/maskTrios/BBA2.jpg","null","",NA,NA,NA,NA,""
"image-keyboard-response",268,206504,"0.0-3.85-2.85","xxqrngd1b9ebjwx",420,"53.csv","","null","resources/images/coin2.png","null","",NA,NA,NA,NA,""
"image-keyboard-response",269,206766,"0.0-3.86-0.86","xxqrngd1b9ebjwx",420,"53.csv","","261.19999998807907","resources/trios/L4T4A2.jpg","39","restless",0.5,0.5,0.4,0.241510550682554,"true"
"image-keyboard-response",270,207172,"0.0-3.86-1.86","xxqrngd1b9ebjwx",420,"53.csv","","null","resources/maskTrios/BBA2.jpg","null","",NA,NA,NA,NA,""
"image-keyboard-response",271,208373,"0.0-3.86-2.86","xxqrngd1b9ebjwx",420,"53.csv","","null","resources/images/coin2.png","null","",NA,NA,NA,NA,""
"image-keyboard-response",272,208692,"0.0-3.87-0.87","xxqrngd1b9ebjwx",420,"53.csv","","318","resources/trios/L4T2A3.jpg","39","restless",0.5,0.5,0.4,0.838981856067027,"false"
"image-keyboard-response",273,209096,"0.0-3.87-1.87","xxqrngd1b9ebjwx",420,"53.csv","","null","resources/maskTrios/BBA3.jpg","null","",NA,NA,NA,NA,""
"image-keyboard-response",274,210302,"0.0-3.87-2.87","xxqrngd1b9ebjwx",420,"53.csv","","null","resources/images/fishbone.png","null","",NA,NA,NA,NA,""
"image-keyboard-response",275,210592,"0.0-3.88-0.88","xxqrngd1b9ebjwx",420,"53.csv","","289.69999998807907","resources/trios/L2T2A3.jpg","39","restless",0.5,0.6,0.4,0.590369797073506,"false"
"image-keyboard-response",276,210998,"0.0-3.88-1.88","xxqrngd1b9ebjwx",420,"53.csv","","null","resources/maskTrios/BBA3.jpg","null","",NA,NA,NA,NA,""
"image-keyboard-response",277,212202,"0.0-3.88-2.88","xxqrngd1b9ebjwx",420,"53.csv","","null","resources/images/fishbone.png","null","",NA,NA,NA,NA,""
"image-keyboard-response",278,212469,"0.0-3.89-0.89","xxqrngd1b9ebjwx",420,"53.csv","","266","resources/trios/L2T2A3.jpg","37","restless",0.5,0.7,0.4,0.375042616022774,"true"
"image-keyboard-response",279,212873,"0.0-3.89-1.89","xxqrngd1b9ebjwx",420,"53.csv","","null","resources/maskTrios/L2BB.jpg","null","",NA,NA,NA,NA,""
"image-keyboard-response",280,214079,"0.0-3.89-2.89","xxqrngd1b9ebjwx",420,"53.csv","","null","resources/images/coin2.png","null","",NA,NA,NA,NA,""
"image-keyboard-response",281,214363,"0.0-3.90-0.90","xxqrngd1b9ebjwx",420,"53.csv","","283.7000000476837","resources/trios/L2T4A3.jpg","37","restless",0.5,0.7,0.4,0.829896026752061,"false"
"image-keyboard-response",282,214769,"0.0-3.90-1.90","xxqrngd1b9ebjwx",420,"53.csv","","null","resources/maskTrios/L2BB.jpg","null","",NA,NA,NA,NA,""
"image-keyboard-response",283,215971,"0.0-3.90-2.90","xxqrngd1b9ebjwx",420,"53.csv","","null","resources/images/fishbone.png","null","",NA,NA,NA,NA,""
"image-keyboard-response",284,216278,"0.0-3.91-0.91","xxqrngd1b9ebjwx",420,"53.csv","","306.5999999642372","resources/trios/L2T4A2.jpg","37","restless",0.5,0.7,0.4,0.768073783383298,"false"
"image-keyboard-response",285,216681,"0.0-3.91-1.91","xxqrngd1b9ebjwx",420,"53.csv","","null","resources/maskTrios/L2BB.jpg","null","",NA,NA,NA,NA,""
"image-keyboard-response",286,217887,"0.0-3.91-2.91","xxqrngd1b9ebjwx",420,"53.csv","","null","resources/images/fishbone.png","null","",NA,NA,NA,NA,""
"image-keyboard-response",287,218124,"0.0-3.92-0.92","xxqrngd1b9ebjwx",420,"53.csv","","236.0999999642372","resources/trios/L4T4A2.jpg","38","restless",0.6,0.7,0.4,0.311788311007281,"true"
"image-keyboard-response",288,218527,"0.0-3.92-1.92","xxqrngd1b9ebjwx",420,"53.csv","","null","resources/maskTrios/BT4B.jpg","null","",NA,NA,NA,NA,""
"image-keyboard-response",289,219731,"0.0-3.92-2.92","xxqrngd1b9ebjwx",420,"53.csv","","null","resources/images/coin2.png","null","",NA,NA,NA,NA,""
"image-keyboard-response",290,220004,"0.0-3.93-0.93","xxqrngd1b9ebjwx",420,"53.csv","","271.60000002384186","resources/trios/L4T2A2.jpg","38","restless",0.6,0.6,0.4,0.45530212976471,"true"
"image-keyboard-response",291,220407,"0.0-3.93-1.93","xxqrngd1b9ebjwx",420,"53.csv","","null","resources/maskTrios/BT2B.jpg","null","",NA,NA,NA,NA,""
"image-keyboard-response",292,221612,"0.0-3.93-2.93","xxqrngd1b9ebjwx",420,"53.csv","","null","resources/images/coin2.png","null","",NA,NA,NA,NA,""
"image-keyboard-response",293,221981,"0.0-3.94-0.94","xxqrngd1b9ebjwx",420,"53.csv","","367.80000001192093","resources/trios/L4T4A3.jpg","38","restless",0.6,0.6,0.4,0.639622875274243,"false"
"image-keyboard-response",294,222387,"0.0-3.94-1.94","xxqrngd1b9ebjwx",420,"53.csv","","null","resources/maskTrios/BT4B.jpg","null","",NA,NA,NA,NA,""
"image-keyboard-response",295,223589,"0.0-3.94-2.94","xxqrngd1b9ebjwx",420,"53.csv","","null","resources/images/fishbone.png","null","",NA,NA,NA,NA,""
"image-keyboard-response",296,223893,"0.0-3.95-0.95","xxqrngd1b9ebjwx",420,"53.csv","","303.39999997615814","resources/trios/L2T2A2.jpg","38","restless",0.6,0.6,0.4,0.302083415518525,"true"
"image-keyboard-response",297,224299,"0.0-3.95-1.95","xxqrngd1b9ebjwx",420,"53.csv","","null","resources/maskTrios/BT2B.jpg","null","",NA,NA,NA,NA,""
"image-keyboard-response",298,225505,"0.0-3.95-2.95","xxqrngd1b9ebjwx",420,"53.csv","","null","resources/images/coin2.png","null","",NA,NA,NA,NA,""
"image-keyboard-response",299,225895,"0.0-3.96-0.96","xxqrngd1b9ebjwx",420,"53.csv","","389.5999999642372","resources/trios/L2T4A3.jpg","38","restless",0.6,0.6,0.4,0.143309914449311,"true"
"image-keyboard-response",300,226301,"0.0-3.96-1.96","xxqrngd1b9ebjwx",420,"53.csv","","null","resources/maskTrios/BT4B.jpg","null","",NA,NA,NA,NA,""
"image-keyboard-response",301,227506,"0.0-3.96-2.96","xxqrngd1b9ebjwx",420,"53.csv","","null","resources/images/coin2.png","null","",NA,NA,NA,NA,""
"image-keyboard-response",302,227780,"0.0-3.97-0.97","xxqrngd1b9ebjwx",420,"53.csv","","273.60000002384186","resources/trios/L2T2A2.jpg","38","restless",0.6,0.6,0.4,0.744770423240484,"false"
"image-keyboard-response",303,228185,"0.0-3.97-1.97","xxqrngd1b9ebjwx",420,"53.csv","","null","resources/maskTrios/BT2B.jpg","null","",NA,NA,NA,NA,""
"image-keyboard-response",304,229390,"0.0-3.97-2.97","xxqrngd1b9ebjwx",420,"53.csv","","null","resources/images/fishbone.png","null","",NA,NA,NA,NA,""
"image-keyboard-response",305,229690,"0.0-3.98-0.98","xxqrngd1b9ebjwx",420,"53.csv","","299.7999999523163","resources/trios/L2T4A3.jpg","38","restless",0.6,0.6,0.4,0.21601775346703,"true"
"image-keyboard-response",306,230095,"0.0-3.98-1.98","xxqrngd1b9ebjwx",420,"53.csv","","null","resources/maskTrios/BT4B.jpg","null","",NA,NA,NA,NA,""
"image-keyboard-response",307,231300,"0.0-3.98-2.98","xxqrngd1b9ebjwx",420,"53.csv","","null","resources/images/coin2.png","null","",NA,NA,NA,NA,""
"image-keyboard-response",308,231628,"0.0-3.99-0.99","xxqrngd1b9ebjwx",420,"53.csv","","326.80000001192093","resources/trios/L2T2A2.jpg","38","restless",0.6,0.6,0.4,0.334996434823065,"true"
"image-keyboard-response",309,232030,"0.0-3.99-1.99","xxqrngd1b9ebjwx",420,"53.csv","","null","resources/maskTrios/BT2B.jpg","null","",NA,NA,NA,NA,""
"image-keyboard-response",310,233236,"0.0-3.99-2.99","xxqrngd1b9ebjwx",420,"53.csv","","null","resources/images/coin2.png","null","",NA,NA,NA,NA,""
"image-keyboard-response",311,233531,"0.0-3.100-0.100","xxqrngd1b9ebjwx",420,"53.csv","","295.19999998807907","resources/trios/L2T2A3.jpg","38","restless",0.7,0.6,0.4,0.998859787623932,"false"
"image-keyboard-response",312,233937,"0.0-3.100-1.100","xxqrngd1b9ebjwx",420,"53.csv","","null","resources/maskTrios/BT2B.jpg","null","",NA,NA,NA,NA,""
"image-keyboard-response",313,235142,"0.0-3.100-2.100","xxqrngd1b9ebjwx",420,"53.csv","","null","resources/images/fishbone.png","null","",NA,NA,NA,NA,""
"image-keyboard-response",314,235440,"0.0-3.101-0.101","xxqrngd1b9ebjwx",420,"53.csv","","297","resources/trios/L2T4A2.jpg","38","restless",0.7,0.5,0.4,0.880199181738837,"false"
"image-keyboard-response",315,235845,"0.0-3.101-1.101","xxqrngd1b9ebjwx",420,"53.csv","","null","resources/maskTrios/BT4B.jpg","null","",NA,NA,NA,NA,""
"image-keyboard-response",316,237050,"0.0-3.101-2.101","xxqrngd1b9ebjwx",420,"53.csv","","null","resources/images/fishbone.png","null","",NA,NA,NA,NA,""
"image-keyboard-response",317,237295,"0.0-3.102-0.102","xxqrngd1b9ebjwx",420,"53.csv","","244.10000002384186","resources/trios/L4T4A3.jpg","39","restless",0.8,0.5,0.3,0.828290984503461,"false"
"image-keyboard-response",318,237698,"0.0-3.102-1.102","xxqrngd1b9ebjwx",420,"53.csv","","null","resources/maskTrios/BBA3.jpg","null","",NA,NA,NA,NA,""
"image-keyboard-response",319,238899,"0.0-3.102-2.102","xxqrngd1b9ebjwx",420,"53.csv","","null","resources/images/fishbone.png","null","",NA,NA,NA,NA,""
"image-keyboard-response",320,239216,"0.0-3.103-0.103","xxqrngd1b9ebjwx",420,"53.csv","","316","resources/trios/L2T2A2.jpg","39","restless",0.8,0.5,0.2,0.406769528415423,"false"
"image-keyboard-response",321,239619,"0.0-3.103-1.103","xxqrngd1b9ebjwx",420,"53.csv","","null","resources/maskTrios/BBA2.jpg","null","",NA,NA,NA,NA,""
"image-keyboard-response",322,240820,"0.0-3.103-2.103","xxqrngd1b9ebjwx",420,"53.csv","","null","resources/images/fishbone.png","null","",NA,NA,NA,NA,""
"image-keyboard-response",323,240954,"0.0-3.104-0.104","xxqrngd1b9ebjwx",420,"53.csv","","133","resources/trios/L2T4A2.jpg","37","restless",0.8,0.5,0.2,0.328065258856025,"true"
"image-keyboard-response",324,241355,"0.0-3.104-1.104","xxqrngd1b9ebjwx",420,"53.csv","","null","resources/maskTrios/L2BB.jpg","null","",NA,NA,NA,NA,""
"image-keyboard-response",325,242561,"0.0-3.104-2.104","xxqrngd1b9ebjwx",420,"53.csv","","null","resources/images/coin2.png","null","",NA,NA,NA,NA,""
"image-keyboard-response",326,242859,"0.0-3.105-0.105","xxqrngd1b9ebjwx",420,"53.csv","","297.5","resources/trios/L2T2A2.jpg","37","restless",0.8,0.5,0.2,0.129557354324443,"true"
"image-keyboard-response",327,243263,"0.0-3.105-1.105","xxqrngd1b9ebjwx",420,"53.csv","","null","resources/maskTrios/L2BB.jpg","null","",NA,NA,NA,NA,""
"image-keyboard-response",328,244467,"0.0-3.105-2.105","xxqrngd1b9ebjwx",420,"53.csv","","null","resources/images/coin2.png","null","",NA,NA,NA,NA,""
"image-keyboard-response",329,244709,"0.0-3.106-0.106","xxqrngd1b9ebjwx",420,"53.csv","","241.30000001192093","resources/trios/L2T4A2.jpg","37","restless",0.7,0.5,0.2,0.455453959680519,"true"
"image-keyboard-response",330,245111,"0.0-3.106-1.106","xxqrngd1b9ebjwx",420,"53.csv","","null","resources/maskTrios/L2BB.jpg","null","",NA,NA,NA,NA,""
"image-keyboard-response",331,246317,"0.0-3.106-2.106","xxqrngd1b9ebjwx",420,"53.csv","","null","resources/images/coin2.png","null","",NA,NA,NA,NA,""
"image-keyboard-response",332,246591,"0.0-3.107-0.107","xxqrngd1b9ebjwx",420,"53.csv","","273.39999997615814","resources/trios/L2T2A2.jpg","37","restless",0.7,0.5,0.2,0.877893234356574,"false"
"image-keyboard-response",333,246997,"0.0-3.107-1.107","xxqrngd1b9ebjwx",420,"53.csv","","null","resources/maskTrios/L2BB.jpg","null","",NA,NA,NA,NA,""
"image-keyboard-response",334,248198,"0.0-3.107-2.107","xxqrngd1b9ebjwx",420,"53.csv","","null","resources/images/fishbone.png","null","",NA,NA,NA,NA,""
"image-keyboard-response",335,248739,"0.0-3.108-0.108","xxqrngd1b9ebjwx",420,"53.csv","","540.5","resources/trios/L2T4A3.jpg","37","restless",0.7,0.5,0.2,0.835201370241328,"false"
"image-keyboard-response",336,249143,"0.0-3.108-1.108","xxqrngd1b9ebjwx",420,"53.csv","","null","resources/maskTrios/L2BB.jpg","null","",NA,NA,NA,NA,""
"image-keyboard-response",337,250346,"0.0-3.108-2.108","xxqrngd1b9ebjwx",420,"53.csv","","null","resources/images/fishbone.png","null","",NA,NA,NA,NA,""
"image-keyboard-response",338,250389,"0.0-3.109-0.109","xxqrngd1b9ebjwx",420,"53.csv","","43.09999996423721","resources/trios/L2T4A3.jpg","38","restless",0.6,0.5,0.3,0.741028505686761,"false"
"image-keyboard-response",339,250794,"0.0-3.109-1.109","xxqrngd1b9ebjwx",420,"53.csv","","null","resources/maskTrios/BT4B.jpg","null","",NA,NA,NA,NA,""
"image-keyboard-response",340,251995,"0.0-3.109-2.109","xxqrngd1b9ebjwx",420,"53.csv","","null","resources/images/fishbone.png","null","",NA,NA,NA,NA,""
"image-keyboard-response",341,252503,"0.0-3.110-0.110","xxqrngd1b9ebjwx",420,"53.csv","","507.30000001192093","resources/trios/L4T2A2.jpg","39","restless",0.6,0.5,0.3,0.806780014587974,"false"
"image-keyboard-response",342,252909,"0.0-3.110-1.110","xxqrngd1b9ebjwx",420,"53.csv","","null","resources/maskTrios/BBA2.jpg","null","",NA,NA,NA,NA,""
"image-keyboard-response",343,254114,"0.0-3.110-2.110","xxqrngd1b9ebjwx",420,"53.csv","","null","resources/images/fishbone.png","null","",NA,NA,NA,NA,""
"image-keyboard-response",344,254399,"0.0-3.111-0.111","xxqrngd1b9ebjwx",420,"53.csv","","285","resources/trios/L2T2A2.jpg","39","restless",0.6,0.5,0.3,0.937352004812237,"false"
"image-keyboard-response",345,254801,"0.0-3.111-1.111","xxqrngd1b9ebjwx",420,"53.csv","","null","resources/maskTrios/BBA2.jpg","null","",NA,NA,NA,NA,""
"image-keyboard-response",346,256005,"0.0-3.111-2.111","xxqrngd1b9ebjwx",420,"53.csv","","null","resources/images/fishbone.png","null","",NA,NA,NA,NA,""
"image-keyboard-response",347,256311,"0.0-3.112-0.112","xxqrngd1b9ebjwx",420,"53.csv","","305.5999999642372","resources/trios/L4T4A2.jpg","39","restless",0.6,0.5,0.3,0.729086664639264,"false"
"image-keyboard-response",348,256717,"0.0-3.112-1.112","xxqrngd1b9ebjwx",420,"53.csv","","null","resources/maskTrios/BBA2.jpg","null","",NA,NA,NA,NA,""
"image-keyboard-response",349,257921,"0.0-3.112-2.112","xxqrngd1b9ebjwx",420,"53.csv","","null","resources/images/fishbone.png","null","",NA,NA,NA,NA,""
"image-keyboard-response",350,258106,"0.0-3.113-0.113","xxqrngd1b9ebjwx",420,"53.csv","","184.10000002384186","resources/trios/L4T4A3.jpg","38","restless",0.6,0.5,0.3,0.320539430507081,"true"
"image-keyboard-response",351,258512,"0.0-3.113-1.113","xxqrngd1b9ebjwx",420,"53.csv","","null","resources/maskTrios/BT4B.jpg","null","",NA,NA,NA,NA,""
"image-keyboard-response",352,259718,"0.0-3.113-2.113","xxqrngd1b9ebjwx",420,"53.csv","","null","resources/images/coin2.png","null","",NA,NA,NA,NA,""
"image-keyboard-response",353,259975,"0.0-3.114-0.114","xxqrngd1b9ebjwx",420,"53.csv","","256.80000001192093","resources/trios/L4T4A3.jpg","38","restless",0.6,0.5,0.3,0.642182550686143,"false"
"image-keyboard-response",354,260376,"0.0-3.114-1.114","xxqrngd1b9ebjwx",420,"53.csv","","null","resources/maskTrios/BT4B.jpg","null","",NA,NA,NA,NA,""
"image-keyboard-response",355,261580,"0.0-3.114-2.114","xxqrngd1b9ebjwx",420,"53.csv","","null","resources/images/fishbone.png","null","",NA,NA,NA,NA,""
"image-keyboard-response",356,261842,"0.0-3.115-0.115","xxqrngd1b9ebjwx",420,"53.csv","","261.30000001192093","resources/trios/L2T4A3.jpg","37","restless",0.6,0.5,0.3,0.835969766030886,"false"
"image-keyboard-response",357,262245,"0.0-3.115-1.115","xxqrngd1b9ebjwx",420,"53.csv","","null","resources/maskTrios/L2BB.jpg","null","",NA,NA,NA,NA,""
"image-keyboard-response",358,263447,"0.0-3.115-2.115","xxqrngd1b9ebjwx",420,"53.csv","","null","resources/images/fishbone.png","null","",NA,NA,NA,NA,""
"image-keyboard-response",359,263712,"0.0-3.116-0.116","xxqrngd1b9ebjwx",420,"53.csv","","264.69999998807907","resources/trios/L2T2A2.jpg","37","restless",0.6,0.5,0.3,0.36199907179504,"true"
"image-keyboard-response",360,264118,"0.0-3.116-1.116","xxqrngd1b9ebjwx",420,"53.csv","","null","resources/maskTrios/L2BB.jpg","null","",NA,NA,NA,NA,""
"image-keyboard-response",361,265322,"0.0-3.116-2.116","xxqrngd1b9ebjwx",420,"53.csv","","null","resources/images/coin2.png","null","",NA,NA,NA,NA,""
"image-keyboard-response",362,265634,"0.0-3.117-0.117","xxqrngd1b9ebjwx",420,"53.csv","","311.7999999523163","resources/trios/L4T4A2.jpg","37","restless",0.6,0.5,0.3,0.205119503923723,"true"
"image-keyboard-response",363,266038,"0.0-3.117-1.117","xxqrngd1b9ebjwx",420,"53.csv","","null","resources/maskTrios/L4BB.jpg","null","",NA,NA,NA,NA,""
"image-keyboard-response",364,267244,"0.0-3.117-2.117","xxqrngd1b9ebjwx",420,"53.csv","","null","resources/images/coin2.png","null","",NA,NA,NA,NA,""
"image-keyboard-response",365,267396,"0.0-3.118-0.118","xxqrngd1b9ebjwx",420,"53.csv","","151.5","resources/trios/L4T4A3.jpg","37","restless",0.6,0.5,0.3,0.0413082135183849,"true"
"image-keyboard-response",366,267799,"0.0-3.118-1.118","xxqrngd1b9ebjwx",420,"53.csv","","null","resources/maskTrios/L4BB.jpg","null","",NA,NA,NA,NA,""
"image-keyboard-response",367,269002,"0.0-3.118-2.118","xxqrngd1b9ebjwx",420,"53.csv","","null","resources/images/coin2.png","null","",NA,NA,NA,NA,""
"image-keyboard-response",368,269228,"0.0-3.119-0.119","xxqrngd1b9ebjwx",420,"53.csv","","225.79999995231628","resources/trios/L2T2A3.jpg","37","restless",0.6,0.5,0.3,0.100709143919583,"true"
"image-keyboard-response",369,269631,"0.0-3.119-1.119","xxqrngd1b9ebjwx",420,"53.csv","","null","resources/maskTrios/L2BB.jpg","null","",NA,NA,NA,NA,""
"image-keyboard-response",370,270837,"0.0-3.119-2.119","xxqrngd1b9ebjwx",420,"53.csv","","null","resources/images/coin2.png","null","",NA,NA,NA,NA,""
"image-keyboard-response",371,271146,"0.0-3.120-0.120","xxqrngd1b9ebjwx",420,"53.csv","","308.60000002384186","resources/trios/L2T4A3.jpg","37","restless",0.6,0.5,0.3,0.984092620565729,"false"
"image-keyboard-response",372,271552,"0.0-3.120-1.120","xxqrngd1b9ebjwx",420,"53.csv","","null","resources/maskTrios/L2BB.jpg","null","",NA,NA,NA,NA,""
"image-keyboard-response",373,272754,"0.0-3.120-2.120","xxqrngd1b9ebjwx",420,"53.csv","","null","resources/images/fishbone.png","null","",NA,NA,NA,NA,""
"image-keyboard-response",374,272947,"0.0-3.121-0.121","xxqrngd1b9ebjwx",420,"53.csv","","192.20000004768372","resources/trios/L2T2A3.jpg","37","restless",0.6,0.5,0.3,0.827815492855681,"false"
"image-keyboard-response",375,273350,"0.0-3.121-1.121","xxqrngd1b9ebjwx",420,"53.csv","","null","resources/maskTrios/L2BB.jpg","null","",NA,NA,NA,NA,""
"image-keyboard-response",376,274556,"0.0-3.121-2.121","xxqrngd1b9ebjwx",420,"53.csv","","null","resources/images/fishbone.png","null","",NA,NA,NA,NA,""
"image-keyboard-response",377,274951,"0.0-3.122-0.122","xxqrngd1b9ebjwx",420,"53.csv","","394.89999997615814","resources/trios/L2T4A2.jpg","38","restless",0.6,0.5,0.3,0.0598625166189781,"true"
"image-keyboard-response",378,275353,"0.0-3.122-1.122","xxqrngd1b9ebjwx",420,"53.csv","","null","resources/maskTrios/BT4B.jpg","null","",NA,NA,NA,NA,""
"image-keyboard-response",379,276559,"0.0-3.122-2.122","xxqrngd1b9ebjwx",420,"53.csv","","null","resources/images/coin2.png","null","",NA,NA,NA,NA,""
"image-keyboard-response",380,276794,"0.0-3.123-0.123","xxqrngd1b9ebjwx",420,"53.csv","","235.20000004768372","resources/trios/L4T4A3.jpg","38","restless",0.6,0.5,0.3,0.193327837861589,"true"
"image-keyboard-response",381,277196,"0.0-3.123-1.123","xxqrngd1b9ebjwx",420,"53.csv","","null","resources/maskTrios/BT4B.jpg","null","",NA,NA,NA,NA,""
"image-keyboard-response",382,278402,"0.0-3.123-2.123","xxqrngd1b9ebjwx",420,"53.csv","","null","resources/images/coin2.png","null","",NA,NA,NA,NA,""
"image-keyboard-response",383,278707,"0.0-3.124-0.124","xxqrngd1b9ebjwx",420,"53.csv","","304","resources/trios/L4T2A3.jpg","38","restless",0.6,0.5,0.3,0.499250332624397,"true"
"image-keyboard-response",384,279110,"0.0-3.124-1.124","xxqrngd1b9ebjwx",420,"53.csv","","null","resources/maskTrios/BT2B.jpg","null","",NA,NA,NA,NA,""
"image-keyboard-response",385,280316,"0.0-3.124-2.124","xxqrngd1b9ebjwx",420,"53.csv","","null","resources/images/coin2.png","null","",NA,NA,NA,NA,""
"image-keyboard-response",386,280601,"0.0-3.125-0.125","xxqrngd1b9ebjwx",420,"53.csv","","283.7999999523163","resources/trios/L4T4A2.jpg","38","restless",0.6,0.5,0.2,0.793493610224167,"false"
"image-keyboard-response",387,281005,"0.0-3.125-1.125","xxqrngd1b9ebjwx",420,"53.csv","","null","resources/maskTrios/BT4B.jpg","null","",NA,NA,NA,NA,""
"image-keyboard-response",388,282207,"0.0-3.125-2.125","xxqrngd1b9ebjwx",420,"53.csv","","null","resources/images/fishbone.png","null","",NA,NA,NA,NA,""
"image-keyboard-response",389,282462,"0.0-3.126-0.126","xxqrngd1b9ebjwx",420,"53.csv","","253.69999998807907","resources/trios/L2T4A3.jpg","38","restless",0.6,0.5,0.2,0.747108068070362,"false"
"image-keyboard-response",390,282865,"0.0-3.126-1.126","xxqrngd1b9ebjwx",420,"53.csv","","null","resources/maskTrios/BT4B.jpg","null","",NA,NA,NA,NA,""
"image-keyboard-response",391,284071,"0.0-3.126-2.126","xxqrngd1b9ebjwx",420,"53.csv","","null","resources/images/fishbone.png","null","",NA,NA,NA,NA,""
"image-keyboard-response",392,284294,"0.0-3.127-0.127","xxqrngd1b9ebjwx",420,"53.csv","","222.60000002384186","resources/trios/L2T4A3.jpg","38","restless",0.6,0.5,0.2,0.912982775162601,"false"
"image-keyboard-response",393,284700,"0.0-3.127-1.127","xxqrngd1b9ebjwx",420,"53.csv","","null","resources/maskTrios/BT4B.jpg","null","",NA,NA,NA,NA,""
"image-keyboard-response",394,285904,"0.0-3.127-2.127","xxqrngd1b9ebjwx",420,"53.csv","","null","resources/images/fishbone.png","null","",NA,NA,NA,NA,""
"image-keyboard-response",395,286132,"0.0-3.128-0.128","xxqrngd1b9ebjwx",420,"53.csv","","227.89999997615814","resources/trios/L4T4A3.jpg","38","restless",0.6,0.5,0.2,0.196297832427087,"true"
"image-keyboard-response",396,286538,"0.0-3.128-1.128","xxqrngd1b9ebjwx",420,"53.csv","","null","resources/maskTrios/BT4B.jpg","null","",NA,NA,NA,NA,""
"image-keyboard-response",397,287744,"0.0-3.128-2.128","xxqrngd1b9ebjwx",420,"53.csv","","null","resources/images/coin2.png","null","",NA,NA,NA,NA,""
"image-keyboard-response",398,288068,"0.0-3.129-0.129","xxqrngd1b9ebjwx",420,"53.csv","","324","resources/trios/L2T4A2.jpg","38","restless",0.6,0.5,0.2,0.629324967761224,"false"
"image-keyboard-response",399,288471,"0.0-3.129-1.129","xxqrngd1b9ebjwx",420,"53.csv","","null","resources/maskTrios/BT4B.jpg","null","",NA,NA,NA,NA,""
"image-keyboard-response",400,289675,"0.0-3.129-2.129","xxqrngd1b9ebjwx",420,"53.csv","","null","resources/images/fishbone.png","null","",NA,NA,NA,NA,""
"image-keyboard-response",401,289836,"0.0-3.130-0.130","xxqrngd1b9ebjwx",420,"53.csv","","160.4000000357628","resources/trios/L4T2A3.jpg","38","restless",0.5,0.5,0.2,0.247151204567187,"true"
"image-keyboard-response",402,290237,"0.0-3.130-1.130","xxqrngd1b9ebjwx",420,"53.csv","","null","resources/maskTrios/BT2B.jpg","null","",NA,NA,NA,NA,""
"image-keyboard-response",403,291439,"0.0-3.130-2.130","xxqrngd1b9ebjwx",420,"53.csv","","null","resources/images/coin2.png","null","",NA,NA,NA,NA,""
"image-keyboard-response",404,291709,"0.0-3.131-0.131","xxqrngd1b9ebjwx",420,"53.csv","","269.60000002384186","resources/trios/L4T2A2.jpg","38","restless",0.5,0.5,0.2,0.0869282510987748,"true"
"image-keyboard-response",405,292115,"0.0-3.131-1.131","xxqrngd1b9ebjwx",420,"53.csv","","null","resources/maskTrios/BT2B.jpg","null","",NA,NA,NA,NA,""
"image-keyboard-response",406,293318,"0.0-3.131-2.131","xxqrngd1b9ebjwx",420,"53.csv","","null","resources/images/coin2.png","null","",NA,NA,NA,NA,""
"image-keyboard-response",407,293560,"0.0-3.132-0.132","xxqrngd1b9ebjwx",420,"53.csv","","240.80000001192093","resources/trios/L2T4A2.jpg","38","restless",0.5,0.5,0.2,0.17703495589945,"true"
"image-keyboard-response",408,293966,"0.0-3.132-1.132","xxqrngd1b9ebjwx",420,"53.csv","","null","resources/maskTrios/BT4B.jpg","null","",NA,NA,NA,NA,""
"image-keyboard-response",409,295172,"0.0-3.132-2.132","xxqrngd1b9ebjwx",420,"53.csv","","null","resources/images/coin2.png","null","",NA,NA,NA,NA,""
"image-keyboard-response",410,295289,"0.0-3.133-0.133","xxqrngd1b9ebjwx",420,"53.csv","","117.10000002384186","resources/trios/L4T4A3.jpg","38","restless",0.5,0.5,0.2,0.612625829103906,"false"
"image-keyboard-response",411,295695,"0.0-3.133-1.133","xxqrngd1b9ebjwx",420,"53.csv","","null","resources/maskTrios/BT4B.jpg","null","",NA,NA,NA,NA,""
"image-keyboard-response",412,296899,"0.0-3.133-2.133","xxqrngd1b9ebjwx",420,"53.csv","","null","resources/images/fishbone.png","null","",NA,NA,NA,NA,""
"image-keyboard-response",413,297607,"0.0-3.134-0.134","xxqrngd1b9ebjwx",420,"53.csv","","707.6999999880791","resources/trios/L2T2A3.jpg","38","restless",0.5,0.5,0.2,0.530058330179058,"false"
"image-keyboard-response",414,298013,"0.0-3.134-1.134","xxqrngd1b9ebjwx",420,"53.csv","","null","resources/maskTrios/BT2B.jpg","null","",NA,NA,NA,NA,""
"image-keyboard-response",415,299217,"0.0-3.134-2.134","xxqrngd1b9ebjwx",420,"53.csv","","null","resources/images/fishbone.png","null","",NA,NA,NA,NA,""
"image-keyboard-response",416,299499,"0.0-3.135-0.135","xxqrngd1b9ebjwx",420,"53.csv","","280.89999997615814","resources/trios/L4T4A2.jpg","39","restless",0.5,0.5,0.2,0.739723843505466,"false"
"image-keyboard-response",417,299904,"0.0-3.135-1.135","xxqrngd1b9ebjwx",420,"53.csv","","null","resources/maskTrios/BBA2.jpg","null","",NA,NA,NA,NA,""
"image-keyboard-response",418,301106,"0.0-3.135-2.135","xxqrngd1b9ebjwx",420,"53.csv","","null","resources/images/fishbone.png","null","",NA,NA,NA,NA,""
"image-keyboard-response",419,301386,"0.0-3.136-0.136","xxqrngd1b9ebjwx",420,"53.csv","","278.89999997615814","resources/trios/L2T4A3.jpg","37","restless",0.5,0.5,0.2,0.316514989203296,"true"
"image-keyboard-response",420,301788,"0.0-3.136-1.136","xxqrngd1b9ebjwx",420,"53.csv","","null","resources/maskTrios/L2BB.jpg","null","",NA,NA,NA,NA,""
"image-keyboard-response",421,302993,"0.0-3.136-2.136","xxqrngd1b9ebjwx",420,"53.csv","","null","resources/images/coin2.png","null","",NA,NA,NA,NA,""
"image-keyboard-response",422,303197,"0.0-3.137-0.137","xxqrngd1b9ebjwx",420,"53.csv","","203.0999999642372","resources/trios/L4T2A3.jpg","37","restless",0.5,0.5,0.2,0.725449785612742,"false"
"image-keyboard-response",423,303600,"0.0-3.137-1.137","xxqrngd1b9ebjwx",420,"53.csv","","null","resources/maskTrios/L4BB.jpg","null","",NA,NA,NA,NA,""
"image-keyboard-response",424,304804,"0.0-3.137-2.137","xxqrngd1b9ebjwx",420,"53.csv","","null","resources/images/fishbone.png","null","",NA,NA,NA,NA,""
"image-keyboard-response",425,305129,"0.0-3.138-0.138","xxqrngd1b9ebjwx",420,"53.csv","","324.39999997615814","resources/trios/L4T4A2.jpg","37","restless",0.5,0.5,0.3,0.125480883384434,"true"
"image-keyboard-response",426,305535,"0.0-3.138-1.138","xxqrngd1b9ebjwx",420,"53.csv","","null","resources/maskTrios/L4BB.jpg","null","",NA,NA,NA,NA,""
"image-keyboard-response",427,306737,"0.0-3.138-2.138","xxqrngd1b9ebjwx",420,"53.csv","","null","resources/images/coin2.png","null","",NA,NA,NA,NA,""
"image-keyboard-response",428,307033,"0.0-3.139-0.139","xxqrngd1b9ebjwx",420,"53.csv","","294.9000000357628","resources/trios/L4T2A3.jpg","37","restless",0.5,0.5,0.3,0.0474187360227285,"true"
"image-keyboard-response",429,307437,"0.0-3.139-1.139","xxqrngd1b9ebjwx",420,"53.csv","","null","resources/maskTrios/L4BB.jpg","null","",NA,NA,NA,NA,""
"image-keyboard-response",430,308643,"0.0-3.139-2.139","xxqrngd1b9ebjwx",420,"53.csv","","null","resources/images/coin2.png","null","",NA,NA,NA,NA,""
"image-keyboard-response",431,309052,"0.0-3.140-0.140","xxqrngd1b9ebjwx",420,"53.csv","","409","resources/trios/L4T4A3.jpg","37","restless",0.5,0.5,0.3,0.273427735943555,"true"
"image-keyboard-response",432,309457,"0.0-3.140-1.140","xxqrngd1b9ebjwx",420,"53.csv","","null","resources/maskTrios/L4BB.jpg","null","",NA,NA,NA,NA,""
"image-keyboard-response",433,310662,"0.0-3.140-2.140","xxqrngd1b9ebjwx",420,"53.csv","","null","resources/images/coin2.png","null","",NA,NA,NA,NA,""
"image-keyboard-response",434,310934,"0.0-3.141-0.141","xxqrngd1b9ebjwx",420,"53.csv","","270.5","resources/trios/L4T4A3.jpg","37","restless",0.5,0.5,0.3,0.0252654582639915,"true"
"image-keyboard-response",435,311335,"0.0-3.141-1.141","xxqrngd1b9ebjwx",420,"53.csv","","null","resources/maskTrios/L4BB.jpg","null","",NA,NA,NA,NA,""
"image-keyboard-response",436,312538,"0.0-3.141-2.141","xxqrngd1b9ebjwx",420,"53.csv","","null","resources/images/coin2.png","null","",NA,NA,NA,NA,""
"image-keyboard-response",437,312851,"0.0-3.142-0.142","xxqrngd1b9ebjwx",420,"53.csv","","312.30000001192093","resources/trios/L2T4A2.jpg","37","restless",0.5,0.5,0.3,0.71888367621965,"false"
"image-keyboard-response",438,313253,"0.0-3.142-1.142","xxqrngd1b9ebjwx",420,"53.csv","","null","resources/maskTrios/L2BB.jpg","null","",NA,NA,NA,NA,""
"image-keyboard-response",439,314457,"0.0-3.142-2.142","xxqrngd1b9ebjwx",420,"53.csv","","null","resources/images/fishbone.png","null","",NA,NA,NA,NA,""
"image-keyboard-response",440,314729,"0.0-3.143-0.143","xxqrngd1b9ebjwx",420,"53.csv","","271.10000002384186","resources/trios/L2T4A3.jpg","37","restless",0.5,0.5,0.3,0.0995618642355853,"true"
"image-keyboard-response",441,315130,"0.0-3.143-1.143","xxqrngd1b9ebjwx",420,"53.csv","","null","resources/maskTrios/L2BB.jpg","null","",NA,NA,NA,NA,""
"image-keyboard-response",442,316336,"0.0-3.143-2.143","xxqrngd1b9ebjwx",420,"53.csv","","null","resources/images/coin2.png","null","",NA,NA,NA,NA,""
"image-keyboard-response",443,316616,"0.0-3.144-0.144","xxqrngd1b9ebjwx",420,"53.csv","","279.69999998807907","resources/trios/L4T2A3.jpg","37","restless",0.5,0.5,0.3,0.125725288805952,"true"
"image-keyboard-response",444,317020,"0.0-3.144-1.144","xxqrngd1b9ebjwx",420,"53.csv","","null","resources/maskTrios/L4BB.jpg","null","",NA,NA,NA,NA,""
"image-keyboard-response",445,318226,"0.0-3.144-2.144","xxqrngd1b9ebjwx",420,"53.csv","","null","resources/images/coin2.png","null","",NA,NA,NA,NA,""
"image-keyboard-response",446,318511,"0.0-3.145-0.145","xxqrngd1b9ebjwx",420,"53.csv","","285","resources/trios/L2T2A2.jpg","37","restless",0.6,0.5,0.3,0.327158423236391,"true"
"image-keyboard-response",447,318912,"0.0-3.145-1.145","xxqrngd1b9ebjwx",420,"53.csv","","null","resources/maskTrios/L2BB.jpg","null","",NA,NA,NA,NA,""
"image-keyboard-response",448,320118,"0.0-3.145-2.145","xxqrngd1b9ebjwx",420,"53.csv","","null","resources/images/coin2.png","null","",NA,NA,NA,NA,""
"image-keyboard-response",449,320375,"0.0-3.146-0.146","xxqrngd1b9ebjwx",420,"53.csv","","256.5","resources/trios/L2T4A2.jpg","37","restless",0.6,0.5,0.3,0.693484912608977,"false"
"image-keyboard-response",450,320779,"0.0-3.146-1.146","xxqrngd1b9ebjwx",420,"53.csv","","null","resources/maskTrios/L2BB.jpg","null","",NA,NA,NA,NA,""
"image-keyboard-response",451,321984,"0.0-3.146-2.146","xxqrngd1b9ebjwx",420,"53.csv","","null","resources/images/fishbone.png","null","",NA,NA,NA,NA,""
"image-keyboard-response",452,322205,"0.0-3.147-0.147","xxqrngd1b9ebjwx",420,"53.csv","","220.30000001192093","resources/trios/L2T2A3.jpg","37","restless",0.6,0.5,0.3,0.803107966449179,"false"
"image-keyboard-response",453,322611,"0.0-3.147-1.147","xxqrngd1b9ebjwx",420,"53.csv","","null","resources/maskTrios/L2BB.jpg","null","",NA,NA,NA,NA,""
"image-keyboard-response",454,323816,"0.0-3.147-2.147","xxqrngd1b9ebjwx",420,"53.csv","","null","resources/images/fishbone.png","null","",NA,NA,NA,NA,""
"image-keyboard-response",455,324089,"0.0-3.148-0.148","xxqrngd1b9ebjwx",420,"53.csv","","272.5","resources/trios/L4T2A2.jpg","39","restless",0.6,0.5,0.3,0.18988208550212,"true"
"image-keyboard-response",456,324495,"0.0-3.148-1.148","xxqrngd1b9ebjwx",420,"53.csv","","null","resources/maskTrios/BBA2.jpg","null","",NA,NA,NA,NA,""
"image-keyboard-response",457,325699,"0.0-3.148-2.148","xxqrngd1b9ebjwx",420,"53.csv","","null","resources/images/coin2.png","null","",NA,NA,NA,NA,""
"image-keyboard-response",458,325993,"0.0-3.149-0.149","xxqrngd1b9ebjwx",420,"53.csv","","292.80000001192093","resources/trios/L4T2A3.jpg","39","restless",0.6,0.6,0.3,0.764861693943833,"false"
"image-keyboard-response",459,326397,"0.0-3.149-1.149","xxqrngd1b9ebjwx",420,"53.csv","","null","resources/maskTrios/BBA3.jpg","null","",NA,NA,NA,NA,""
"image-keyboard-response",460,327602,"0.0-3.149-2.149","xxqrngd1b9ebjwx",420,"53.csv","","null","resources/images/fishbone.png","null","",NA,NA,NA,NA,""
"image-keyboard-response",461,328025,"0.0-3.150-0.150","xxqrngd1b9ebjwx",420,"53.csv","","421.30000001192093","resources/trios/L2T2A2.jpg","39","restless",0.6,0.6,0.3,0.0633291569002203,"true"
"image-keyboard-response",462,328430,"0.0-3.150-1.150","xxqrngd1b9ebjwx",420,"53.csv","","null","resources/maskTrios/BBA2.jpg","null","",NA,NA,NA,NA,""
"image-keyboard-response",463,329631,"0.0-3.150-2.150","xxqrngd1b9ebjwx",420,"53.csv","","null","resources/images/coin2.png","null","",NA,NA,NA,NA,""
"image-keyboard-response",464,330314,"0.0-3.151-0.151","xxqrngd1b9ebjwx",420,"53.csv","","682.1999999880791","resources/trios/L2T4A3.jpg","39","restless",0.6,0.6,0.3,0.277727071627317,"true"
"image-keyboard-response",465,330716,"0.0-3.151-1.151","xxqrngd1b9ebjwx",420,"53.csv","","null","resources/maskTrios/BBA3.jpg","null","",NA,NA,NA,NA,""
"image-keyboard-response",466,331919,"0.0-3.151-2.151","xxqrngd1b9ebjwx",420,"53.csv","","null","resources/images/coin2.png","null","",NA,NA,NA,NA,""
"image-keyboard-response",467,332401,"0.0-3.152-0.152","xxqrngd1b9ebjwx",420,"53.csv","","481.19999998807907","resources/trios/L2T4A2.jpg","39","restless",0.6,0.6,0.3,0.786829162970357,"false"
"image-keyboard-response",468,332804,"0.0-3.152-1.152","xxqrngd1b9ebjwx",420,"53.csv","","null","resources/maskTrios/BBA2.jpg","null","",NA,NA,NA,NA,""
"image-keyboard-response",469,334006,"0.0-3.152-2.152","xxqrngd1b9ebjwx",420,"53.csv","","null","resources/images/fishbone.png","null","",NA,NA,NA,NA,""
"image-keyboard-response",470,334199,"0.0-3.153-0.153","xxqrngd1b9ebjwx",420,"53.csv","","192.60000002384186","resources/trios/L4T2A2.jpg","39","restless",0.6,0.5,0.3,0.551989849076945,"false"
"image-keyboard-response",471,334602,"0.0-3.153-1.153","xxqrngd1b9ebjwx",420,"53.csv","","null","resources/maskTrios/BBA2.jpg","null","",NA,NA,NA,NA,""
"image-keyboard-response",472,335808,"0.0-3.153-2.153","xxqrngd1b9ebjwx",420,"53.csv","","null","resources/images/fishbone.png","null","",NA,NA,NA,NA,""
"image-keyboard-response",473,336122,"0.0-3.154-0.154","xxqrngd1b9ebjwx",420,"53.csv","","313.10000002384186","resources/trios/L4T2A2.jpg","39","restless",0.6,0.5,0.3,0.157592486992901,"true"
"image-keyboard-response",474,336528,"0.0-3.154-1.154","xxqrngd1b9ebjwx",420,"53.csv","","null","resources/maskTrios/BBA2.jpg","null","",NA,NA,NA,NA,""
"image-keyboard-response",475,337733,"0.0-3.154-2.154","xxqrngd1b9ebjwx",420,"53.csv","","null","resources/images/coin2.png","null","",NA,NA,NA,NA,""
"image-keyboard-response",476,338001,"0.0-3.155-0.155","xxqrngd1b9ebjwx",420,"53.csv","","266.7000000476837","resources/trios/L4T4A3.jpg","39","restless",0.6,0.5,0.3,0.746488912966489,"false"
"image-keyboard-response",477,338401,"0.0-3.155-1.155","xxqrngd1b9ebjwx",420,"53.csv","","null","resources/maskTrios/BBA3.jpg","null","",NA,NA,NA,NA,""
"image-keyboard-response",478,339602,"0.0-3.155-2.155","xxqrngd1b9ebjwx",420,"53.csv","","null","resources/images/fishbone.png","null","",NA,NA,NA,NA,""
"image-keyboard-response",479,339769,"0.0-3.156-0.156","xxqrngd1b9ebjwx",420,"53.csv","","166.30000001192093","resources/trios/L2T4A3.jpg","39","restless",0.7,0.5,0.3,0.130328573911863,"true"
"image-keyboard-response",480,340175,"0.0-3.156-1.156","xxqrngd1b9ebjwx",420,"53.csv","","null","resources/maskTrios/BBA3.jpg","null","",NA,NA,NA,NA,""
"image-keyboard-response",481,341381,"0.0-3.156-2.156","xxqrngd1b9ebjwx",420,"53.csv","","null","resources/images/coin2.png","null","",NA,NA,NA,NA,""
"image-keyboard-response",482,341655,"0.0-3.157-0.157","xxqrngd1b9ebjwx",420,"53.csv","","273.80000001192093","resources/trios/L4T2A3.jpg","39","restless",0.7,0.5,0.3,0.322638208148666,"false"
"image-keyboard-response",483,342060,"0.0-3.157-1.157","xxqrngd1b9ebjwx",420,"53.csv","","null","resources/maskTrios/BBA3.jpg","null","",NA,NA,NA,NA,""
"image-keyboard-response",484,343263,"0.0-3.157-2.157","xxqrngd1b9ebjwx",420,"53.csv","","null","resources/images/fishbone.png","null","",NA,NA,NA,NA,""
"image-keyboard-response",485,343514,"0.0-3.158-0.158","xxqrngd1b9ebjwx",420,"53.csv","","250.30000001192093","resources/trios/L2T4A2.jpg","39","restless",0.8,0.5,0.3,0.269854420821466,"true"
"image-keyboard-response",486,343917,"0.0-3.158-1.158","xxqrngd1b9ebjwx",420,"53.csv","","null","resources/maskTrios/BBA2.jpg","null","",NA,NA,NA,NA,""
"image-keyboard-response",487,345120,"0.0-3.158-2.158","xxqrngd1b9ebjwx",420,"53.csv","","null","resources/images/coin2.png","null","",NA,NA,NA,NA,""
"image-keyboard-response",488,345365,"0.0-3.159-0.159","xxqrngd1b9ebjwx",420,"53.csv","","244.5","resources/trios/L4T4A3.jpg","39","restless",0.8,0.5,0.3,0.0428370270552616,"true"
"image-keyboard-response",489,345767,"0.0-3.159-1.159","xxqrngd1b9ebjwx",420,"53.csv","","null","resources/maskTrios/BBA3.jpg","null","",NA,NA,NA,NA,""
"image-keyboard-response",490,346969,"0.0-3.159-2.159","xxqrngd1b9ebjwx",420,"53.csv","","null","resources/images/coin2.png","null","",NA,NA,NA,NA,""
"image-keyboard-response",491,347292,"0.0-3.160-0.160","xxqrngd1b9ebjwx",420,"53.csv","","322.9000000357628","resources/trios/L2T4A2.jpg","39","restless",0.9,0.5,0.3,0.604448970966063,"false"
"image-keyboard-response",492,347694,"0.0-3.160-1.160","xxqrngd1b9ebjwx",420,"53.csv","","null","resources/maskTrios/BBA2.jpg","null","",NA,NA,NA,NA,""
"image-keyboard-response",493,348900,"0.0-3.160-2.160","xxqrngd1b9ebjwx",420,"53.csv","","null","resources/images/fishbone.png","null","",NA,NA,NA,NA,""
"image-keyboard-response",494,349144,"0.0-3.161-0.161","xxqrngd1b9ebjwx",420,"53.csv","","243.9000000357628","resources/trios/L4T2A3.jpg","39","restless",0.9,0.5,0.3,0.092912620069262,"true"
"image-keyboard-response",495,349549,"0.0-3.161-1.161","xxqrngd1b9ebjwx",420,"53.csv","","null","resources/maskTrios/BBA3.jpg","null","",NA,NA,NA,NA,""
"image-keyboard-response",496,350753,"0.0-3.161-2.161","xxqrngd1b9ebjwx",420,"53.csv","","null","resources/images/coin2.png","null","",NA,NA,NA,NA,""
"image-keyboard-response",497,350986,"0.0-3.162-0.162","xxqrngd1b9ebjwx",420,"53.csv","","232.80000001192093","resources/trios/L2T4A2.jpg","39","restless",0.9,0.5,0.3,0.937995438659143,"false"
"image-keyboard-response",498,351389,"0.0-3.162-1.162","xxqrngd1b9ebjwx",420,"53.csv","","null","resources/maskTrios/BBA2.jpg","null","",NA,NA,NA,NA,""
"image-keyboard-response",499,352590,"0.0-3.162-2.162","xxqrngd1b9ebjwx",420,"53.csv","","null","resources/images/fishbone.png","null","",NA,NA,NA,NA,""
"image-keyboard-response",500,352704,"0.0-3.163-0.163","xxqrngd1b9ebjwx",420,"53.csv","","113.80000001192093","resources/trios/L2T2A2.jpg","39","restless",0.9,0.5,0.4,0.00231126313673458,"true"
"image-keyboard-response",501,353106,"0.0-3.163-1.163","xxqrngd1b9ebjwx",420,"53.csv","","null","resources/maskTrios/BBA2.jpg","null","",NA,NA,NA,NA,""
"image-keyboard-response",502,354309,"0.0-3.163-2.163","xxqrngd1b9ebjwx",420,"53.csv","","null","resources/images/coin2.png","null","",NA,NA,NA,NA,""
"image-keyboard-response",503,354564,"0.0-3.164-0.164","xxqrngd1b9ebjwx",420,"53.csv","","254","resources/trios/L2T4A3.jpg","39","restless",0.9,0.5,0.4,0.872571714500236,"false"
"image-keyboard-response",504,354965,"0.0-3.164-1.164","xxqrngd1b9ebjwx",420,"53.csv","","null","resources/maskTrios/BBA3.jpg","null","",NA,NA,NA,NA,""
"image-keyboard-response",505,356168,"0.0-3.164-2.164","xxqrngd1b9ebjwx",420,"53.csv","","null","resources/images/fishbone.png","null","",NA,NA,NA,NA,""
"image-keyboard-response",506,356462,"0.0-3.165-0.165","xxqrngd1b9ebjwx",420,"53.csv","","293.5999999642372","resources/trios/L4T2A3.jpg","39","restless",0.9,0.5,0.4,0.0474909324984323,"true"
"image-keyboard-response",507,356868,"0.0-3.165-1.165","xxqrngd1b9ebjwx",420,"53.csv","","null","resources/maskTrios/BBA3.jpg","null","",NA,NA,NA,NA,""
"image-keyboard-response",508,358074,"0.0-3.165-2.165","xxqrngd1b9ebjwx",420,"53.csv","","null","resources/images/coin2.png","null","",NA,NA,NA,NA,""
"image-keyboard-response",509,358417,"0.0-3.166-0.166","xxqrngd1b9ebjwx",420,"53.csv","","342.39999997615814","resources/trios/L2T2A2.jpg","39","restless",0.9,0.5,0.4,0.426736451778309,"false"
"image-keyboard-response",510,358818,"0.0-3.166-1.166","xxqrngd1b9ebjwx",420,"53.csv","","null","resources/maskTrios/BBA2.jpg","null","",NA,NA,NA,NA,""
"image-keyboard-response",511,360023,"0.0-3.166-2.166","xxqrngd1b9ebjwx",420,"53.csv","","null","resources/images/fishbone.png","null","",NA,NA,NA,NA,""
"image-keyboard-response",512,360333,"0.0-3.167-0.167","xxqrngd1b9ebjwx",420,"53.csv","","308.7000000476837","resources/trios/L4T2A2.jpg","39","restless",0.8,0.5,0.4,0.199792914445065,"true"
"image-keyboard-response",513,360734,"0.0-3.167-1.167","xxqrngd1b9ebjwx",420,"53.csv","","null","resources/maskTrios/BBA2.jpg","null","",NA,NA,NA,NA,""
"image-keyboard-response",514,361939,"0.0-3.167-2.167","xxqrngd1b9ebjwx",420,"53.csv","","null","resources/images/coin2.png","null","",NA,NA,NA,NA,""
"image-keyboard-response",515,362232,"0.0-3.168-0.168","xxqrngd1b9ebjwx",420,"53.csv","","291.5","resources/trios/L4T2A2.jpg","39","restless",0.8,0.5,0.4,0.32345609318584,"true"
"image-keyboard-response",516,362636,"0.0-3.168-1.168","xxqrngd1b9ebjwx",420,"53.csv","","null","resources/maskTrios/BBA2.jpg","null","",NA,NA,NA,NA,""
"image-keyboard-response",517,363841,"0.0-3.168-2.168","xxqrngd1b9ebjwx",420,"53.csv","","null","resources/images/coin2.png","null","",NA,NA,NA,NA,""
"image-keyboard-response",518,364330,"0.0-3.169-0.169","xxqrngd1b9ebjwx",420,"53.csv","","488.69999998807907","resources/trios/L4T4A3.jpg","39","restless",0.8,0.5,0.5,0.609006477994602,"false"
"image-keyboard-response",519,364733,"0.0-3.169-1.169","xxqrngd1b9ebjwx",420,"53.csv","","null","resources/maskTrios/BBA3.jpg","null","",NA,NA,NA,NA,""
"image-keyboard-response",520,365934,"0.0-3.169-2.169","xxqrngd1b9ebjwx",420,"53.csv","","null","resources/images/fishbone.png","null","",NA,NA,NA,NA,""
"image-keyboard-response",521,366093,"0.0-3.170-0.170","xxqrngd1b9ebjwx",420,"53.csv","","158.5","resources/trios/L4T2A2.jpg","39","restless",0.8,0.5,0.5,0.522217301853604,"false"
"image-keyboard-response",522,366499,"0.0-3.170-1.170","xxqrngd1b9ebjwx",420,"53.csv","","null","resources/maskTrios/BBA2.jpg","null","",NA,NA,NA,NA,""
"image-keyboard-response",523,367703,"0.0-3.170-2.170","xxqrngd1b9ebjwx",420,"53.csv","","null","resources/images/fishbone.png","null","",NA,NA,NA,NA,""
"image-keyboard-response",524,368023,"0.0-3.171-0.171","xxqrngd1b9ebjwx",420,"53.csv","","319.30000001192093","resources/trios/L4T4A3.jpg","38","restless",0.8,0.5,0.5,0.92839874591867,"false"
"image-keyboard-response",525,368425,"0.0-3.171-1.171","xxqrngd1b9ebjwx",420,"53.csv","","null","resources/maskTrios/BT4B.jpg","null","",NA,NA,NA,NA,""
"image-keyboard-response",526,369627,"0.0-3.171-2.171","xxqrngd1b9ebjwx",420,"53.csv","","null","resources/images/fishbone.png","null","",NA,NA,NA,NA,""
"image-keyboard-response",527,369836,"0.0-3.172-0.172","xxqrngd1b9ebjwx",420,"53.csv","","208.39999997615814","resources/trios/L2T2A3.jpg","37","restless",0.8,0.4,0.5,0.302987244316263,"true"
"image-keyboard-response",528,370242,"0.0-3.172-1.172","xxqrngd1b9ebjwx",420,"53.csv","","null","resources/maskTrios/L2BB.jpg","null","",NA,NA,NA,NA,""
"image-keyboard-response",529,371448,"0.0-3.172-2.172","xxqrngd1b9ebjwx",420,"53.csv","","null","resources/images/coin2.png","null","",NA,NA,NA,NA,""
"image-keyboard-response",530,371890,"0.0-3.173-0.173","xxqrngd1b9ebjwx",420,"53.csv","","441.39999997615814","resources/trios/L4T4A2.jpg","37","restless",0.8,0.4,0.5,0.181163799581332,"true"
"image-keyboard-response",531,372294,"0.0-3.173-1.173","xxqrngd1b9ebjwx",420,"53.csv","","null","resources/maskTrios/L4BB.jpg","null","",NA,NA,NA,NA,""
"image-keyboard-response",532,373500,"0.0-3.173-2.173","xxqrngd1b9ebjwx",420,"53.csv","","null","resources/images/coin2.png","null","",NA,NA,NA,NA,""
"image-keyboard-response",533,373781,"0.0-3.174-0.174","xxqrngd1b9ebjwx",420,"53.csv","","280.4000000357628","resources/trios/L2T4A2.jpg","37","restless",0.8,0.4,0.5,0.796403051036508,"true"
"image-keyboard-response",534,374184,"0.0-3.174-1.174","xxqrngd1b9ebjwx",420,"53.csv","","null","resources/maskTrios/L2BB.jpg","null","",NA,NA,NA,NA,""
"image-keyboard-response",535,375386,"0.0-3.174-2.174","xxqrngd1b9ebjwx",420,"53.csv","","null","resources/images/coin2.png","null","",NA,NA,NA,NA,""
"image-keyboard-response",536,375661,"0.0-3.175-0.175","xxqrngd1b9ebjwx",420,"53.csv","","274.5999999642372","resources/trios/L4T4A3.jpg","37","restless",0.8,0.4,0.5,0.223445252052981,"true"
"image-keyboard-response",537,376067,"0.0-3.175-1.175","xxqrngd1b9ebjwx",420,"53.csv","","null","resources/maskTrios/L4BB.jpg","null","",NA,NA,NA,NA,""
"image-keyboard-response",538,377271,"0.0-3.175-2.175","xxqrngd1b9ebjwx",420,"53.csv","","null","resources/images/coin2.png","null","",NA,NA,NA,NA,""
"image-keyboard-response",539,377570,"0.0-3.176-0.176","xxqrngd1b9ebjwx",420,"53.csv","","297.9000000357628","resources/trios/L4T2A2.jpg","37","restless",0.8,0.4,0.5,0.612946927640029,"true"
"image-keyboard-response",540,377971,"0.0-3.176-1.176","xxqrngd1b9ebjwx",420,"53.csv","","null","resources/maskTrios/L4BB.jpg","null","",NA,NA,NA,NA,""
"image-keyboard-response",541,379177,"0.0-3.176-2.176","xxqrngd1b9ebjwx",420,"53.csv","","null","resources/images/coin2.png","null","",NA,NA,NA,NA,""
"image-keyboard-response",542,379386,"0.0-3.177-0.177","xxqrngd1b9ebjwx",420,"53.csv","","208.5999999642372","resources/trios/L4T2A3.jpg","37","restless",0.8,0.4,0.5,0.0389717261065945,"true"
"image-keyboard-response",543,379792,"0.0-3.177-1.177","xxqrngd1b9ebjwx",420,"53.csv","","null","resources/maskTrios/L4BB.jpg","null","",NA,NA,NA,NA,""
"image-keyboard-response",544,380996,"0.0-3.177-2.177","xxqrngd1b9ebjwx",420,"53.csv","","null","resources/images/coin2.png","null","",NA,NA,NA,NA,""
"image-keyboard-response",545,381319,"0.0-3.178-0.178","xxqrngd1b9ebjwx",420,"53.csv","","322.5","resources/trios/L4T2A3.jpg","37","restless",0.7,0.4,0.5,0.103427411938809,"true"
"image-keyboard-response",546,381722,"0.0-3.178-1.178","xxqrngd1b9ebjwx",420,"53.csv","","null","resources/maskTrios/L4BB.jpg","null","",NA,NA,NA,NA,""
"image-keyboard-response",547,382926,"0.0-3.178-2.178","xxqrngd1b9ebjwx",420,"53.csv","","null","resources/images/coin2.png","null","",NA,NA,NA,NA,""
"image-keyboard-response",548,383216,"0.0-3.179-0.179","xxqrngd1b9ebjwx",420,"53.csv","","288.89999997615814","resources/trios/L4T2A3.jpg","37","restless",0.7,0.4,0.5,0.668882326979906,"true"
"image-keyboard-response",549,383622,"0.0-3.179-1.179","xxqrngd1b9ebjwx",420,"53.csv","","null","resources/maskTrios/L4BB.jpg","null","",NA,NA,NA,NA,""
"image-keyboard-response",550,384827,"0.0-3.179-2.179","xxqrngd1b9ebjwx",420,"53.csv","","null","resources/images/coin2.png","null","",NA,NA,NA,NA,""
"image-keyboard-response",551,385041,"0.0-3.180-0.180","xxqrngd1b9ebjwx",420,"53.csv","","212.89999997615814","resources/trios/L2T2A2.jpg","37","restless",0.7,0.4,0.5,0.247884939326732,"true"
"image-keyboard-response",552,385447,"0.0-3.180-1.180","xxqrngd1b9ebjwx",420,"53.csv","","null","resources/maskTrios/L2BB.jpg","null","",NA,NA,NA,NA,""
"image-keyboard-response",553,386652,"0.0-3.180-2.180","xxqrngd1b9ebjwx",420,"53.csv","","null","resources/images/coin2.png","null","",NA,NA,NA,NA,""
"image-keyboard-response",554,386720,"0.0-3.181-0.181","xxqrngd1b9ebjwx",420,"53.csv","","67","resources/trios/L4T2A3.jpg","37","restless",0.7,0.4,0.5,0.318917564285081,"true"
"image-keyboard-response",555,387126,"0.0-3.181-1.181","xxqrngd1b9ebjwx",420,"53.csv","","null","resources/maskTrios/L4BB.jpg","null","",NA,NA,NA,NA,""
"image-keyboard-response",556,388332,"0.0-3.181-2.181","xxqrngd1b9ebjwx",420,"53.csv","","null","resources/images/coin2.png","null","",NA,NA,NA,NA,""
"image-keyboard-response",557,388638,"0.0-3.182-0.182","xxqrngd1b9ebjwx",420,"53.csv","","305.5","resources/trios/L4T4A3.jpg","37","restless",0.7,0.4,0.5,0.166212934646284,"true"
"image-keyboard-response",558,389044,"0.0-3.182-1.182","xxqrngd1b9ebjwx",420,"53.csv","","null","resources/maskTrios/L4BB.jpg","null","",NA,NA,NA,NA,""
"image-keyboard-response",559,390248,"0.0-3.182-2.182","xxqrngd1b9ebjwx",420,"53.csv","","null","resources/images/coin2.png","null","",NA,NA,NA,NA,""
"image-keyboard-response",560,390534,"0.0-3.183-0.183","xxqrngd1b9ebjwx",420,"53.csv","","284.69999998807907","resources/trios/L2T4A3.jpg","37","restless",0.7,0.5,0.5,0.843259602099875,"false"
"image-keyboard-response",561,390939,"0.0-3.183-1.183","xxqrngd1b9ebjwx",420,"53.csv","","null","resources/maskTrios/L2BB.jpg","null","",NA,NA,NA,NA,""
"image-keyboard-response",562,392143,"0.0-3.183-2.183","xxqrngd1b9ebjwx",420,"53.csv","","null","resources/images/fishbone.png","null","",NA,NA,NA,NA,""
"image-keyboard-response",563,392241,"0.0-3.184-0.184","xxqrngd1b9ebjwx",420,"53.csv","","96.79999995231628","resources/trios/L4T4A2.jpg","37","restless",0.7,0.5,0.5,0.810275133534291,"false"
"image-keyboard-response",564,392647,"0.0-3.184-1.184","xxqrngd1b9ebjwx",420,"53.csv","","null","resources/maskTrios/L4BB.jpg","null","",NA,NA,NA,NA,""
"image-keyboard-response",565,393848,"0.0-3.184-2.184","xxqrngd1b9ebjwx",420,"53.csv","","null","resources/images/fishbone.png","null","",NA,NA,NA,NA,""
"image-keyboard-response",566,394131,"0.0-3.185-0.185","xxqrngd1b9ebjwx",420,"53.csv","","281.7000000476837","resources/trios/L2T2A2.jpg","39","restless",0.7,0.5,0.5,0.977816287807874,"false"
"image-keyboard-response",567,394535,"0.0-3.185-1.185","xxqrngd1b9ebjwx",420,"53.csv","","null","resources/maskTrios/BBA2.jpg","null","",NA,NA,NA,NA,""
"image-keyboard-response",568,395741,"0.0-3.185-2.185","xxqrngd1b9ebjwx",420,"53.csv","","null","resources/images/fishbone.png","null","",NA,NA,NA,NA,""
"image-keyboard-response",569,395988,"0.0-3.186-0.186","xxqrngd1b9ebjwx",420,"53.csv","","246.5","resources/trios/L2T2A2.jpg","38","restless",0.7,0.5,0.5,0.230215607967406,"true"
"image-keyboard-response",570,396393,"0.0-3.186-1.186","xxqrngd1b9ebjwx",420,"53.csv","","null","resources/maskTrios/BT2B.jpg","null","",NA,NA,NA,NA,""
"image-keyboard-response",571,397599,"0.0-3.186-2.186","xxqrngd1b9ebjwx",420,"53.csv","","null","resources/images/coin2.png","null","",NA,NA,NA,NA,""
"image-keyboard-response",572,397956,"0.0-3.187-0.187","xxqrngd1b9ebjwx",420,"53.csv","","356.39999997615814","resources/trios/L2T4A2.jpg","37","restless",0.7,0.5,0.5,0.527093210437378,"true"
"image-keyboard-response",573,398358,"0.0-3.187-1.187","xxqrngd1b9ebjwx",420,"53.csv","","null","resources/maskTrios/L2BB.jpg","null","",NA,NA,NA,NA,""
"image-keyboard-response",574,399561,"0.0-3.187-2.187","xxqrngd1b9ebjwx",420,"53.csv","","null","resources/images/coin2.png","null","",NA,NA,NA,NA,""
"image-keyboard-response",575,399843,"0.0-3.188-0.188","xxqrngd1b9ebjwx",420,"53.csv","","281.5","resources/trios/L4T4A3.jpg","39","restless",0.6,0.5,0.5,0.74849169502707,"false"
"image-keyboard-response",576,400244,"0.0-3.188-1.188","xxqrngd1b9ebjwx",420,"53.csv","","null","resources/maskTrios/BBA3.jpg","null","",NA,NA,NA,NA,""
"image-keyboard-response",577,401450,"0.0-3.188-2.188","xxqrngd1b9ebjwx",420,"53.csv","","null","resources/images/fishbone.png","null","",NA,NA,NA,NA,""
"image-keyboard-response",578,401735,"0.0-3.189-0.189","xxqrngd1b9ebjwx",420,"53.csv","","284.5999999642372","resources/trios/L4T2A3.jpg","38","restless",0.6,0.5,0.5,0.524553434628273,"false"
"image-keyboard-response",579,402140,"0.0-3.189-1.189","xxqrngd1b9ebjwx",420,"53.csv","","null","resources/maskTrios/BT2B.jpg","null","",NA,NA,NA,NA,""
"image-keyboard-response",580,403344,"0.0-3.189-2.189","xxqrngd1b9ebjwx",420,"53.csv","","null","resources/images/fishbone.png","null","",NA,NA,NA,NA,""
"image-keyboard-response",581,403423,"0.0-3.190-0.190","xxqrngd1b9ebjwx",420,"53.csv","","78.40000003576279","resources/trios/L4T4A3.jpg","37","restless",0.6,0.5,0.5,0.669624135583563,"false"
"image-keyboard-response",582,403827,"0.0-3.190-1.190","xxqrngd1b9ebjwx",420,"53.csv","","null","resources/maskTrios/L4BB.jpg","null","",NA,NA,NA,NA,""
"image-keyboard-response",583,405030,"0.0-3.190-2.190","xxqrngd1b9ebjwx",420,"53.csv","","null","resources/images/fishbone.png","null","",NA,NA,NA,NA,""
"image-keyboard-response",584,405207,"0.0-3.191-0.191","xxqrngd1b9ebjwx",420,"53.csv","","176.30000001192093","resources/trios/L4T4A3.jpg","39","restless",0.6,0.5,0.5,0.650687370965349,"false"
"image-keyboard-response",585,405609,"0.0-3.191-1.191","xxqrngd1b9ebjwx",420,"53.csv","","null","resources/maskTrios/BBA3.jpg","null","",NA,NA,NA,NA,""
"image-keyboard-response",586,406812,"0.0-3.191-2.191","xxqrngd1b9ebjwx",420,"53.csv","","null","resources/images/fishbone.png","null","",NA,NA,NA,NA,""
"image-keyboard-response",587,407074,"0.0-3.192-0.192","xxqrngd1b9ebjwx",420,"53.csv","","261.5","resources/trios/L2T4A2.jpg","38","restless",0.6,0.5,0.6,0.807521768435794,"false"
"image-keyboard-response",588,407480,"0.0-3.192-1.192","xxqrngd1b9ebjwx",420,"53.csv","","null","resources/maskTrios/BT4B.jpg","null","",NA,NA,NA,NA,""
"image-keyboard-response",589,408683,"0.0-3.192-2.192","xxqrngd1b9ebjwx",420,"53.csv","","null","resources/images/fishbone.png","null","",NA,NA,NA,NA,""
"image-keyboard-response",590,408930,"0.0-3.193-0.193","xxqrngd1b9ebjwx",420,"53.csv","","246.5","resources/trios/L2T4A3.jpg","37","restless",0.5,0.6,0.6,0.505484526162977,"false"
"image-keyboard-response",591,409332,"0.0-3.193-1.193","xxqrngd1b9ebjwx",420,"53.csv","","null","resources/maskTrios/L2BB.jpg","null","",NA,NA,NA,NA,""
"image-keyboard-response",592,410534,"0.0-3.193-2.193","xxqrngd1b9ebjwx",420,"53.csv","","null","resources/images/fishbone.png","null","",NA,NA,NA,NA,""
"image-keyboard-response",593,410749,"0.0-3.194-0.194","xxqrngd1b9ebjwx",420,"53.csv","","214.5","resources/trios/L2T4A3.jpg","38","restless",0.5,0.6,0.6,0.125299270331908,"true"
"image-keyboard-response",594,411150,"0.0-3.194-1.194","xxqrngd1b9ebjwx",420,"53.csv","","null","resources/maskTrios/BT4B.jpg","null","",NA,NA,NA,NA,""
"image-keyboard-response",595,412356,"0.0-3.194-2.194","xxqrngd1b9ebjwx",420,"53.csv","","null","resources/images/coin2.png","null","",NA,NA,NA,NA,""
"image-keyboard-response",596,412562,"0.0-3.195-0.195","xxqrngd1b9ebjwx",420,"53.csv","","205.4000000357628","resources/trios/L4T4A2.jpg","38","restless",0.5,0.6,0.6,0.150542190835301,"true"
"image-keyboard-response",597,412966,"0.0-3.195-1.195","xxqrngd1b9ebjwx",420,"53.csv","","null","resources/maskTrios/BT4B.jpg","null","",NA,NA,NA,NA,""
"image-keyboard-response",598,414171,"0.0-3.195-2.195","xxqrngd1b9ebjwx",420,"53.csv","","null","resources/images/coin2.png","null","",NA,NA,NA,NA,""
"image-keyboard-response",599,414549,"0.0-3.196-0.196","xxqrngd1b9ebjwx",420,"53.csv","","376.69999998807907","resources/trios/L2T4A3.jpg","38","restless",0.5,0.6,0.6,0.721516044661291,"false"
"image-keyboard-response",600,414951,"0.0-3.196-1.196","xxqrngd1b9ebjwx",420,"53.csv","","null","resources/maskTrios/BT4B.jpg","null","",NA,NA,NA,NA,""
"image-keyboard-response",601,416152,"0.0-3.196-2.196","xxqrngd1b9ebjwx",420,"53.csv","","null","resources/images/fishbone.png","null","",NA,NA,NA,NA,""
"image-keyboard-response",602,416461,"0.0-3.197-0.197","xxqrngd1b9ebjwx",420,"53.csv","","307.39999997615814","resources/trios/L2T2A2.jpg","38","restless",0.5,0.6,0.6,0.0262436906537857,"true"
"image-keyboard-response",603,416863,"0.0-3.197-1.197","xxqrngd1b9ebjwx",420,"53.csv","","null","resources/maskTrios/BT2B.jpg","null","",NA,NA,NA,NA,""
"image-keyboard-response",604,418066,"0.0-3.197-2.197","xxqrngd1b9ebjwx",420,"53.csv","","null","resources/images/coin2.png","null","",NA,NA,NA,NA,""
"image-keyboard-response",605,418383,"0.0-3.198-0.198","xxqrngd1b9ebjwx",420,"53.csv","","315.69999998807907","resources/trios/L2T2A2.jpg","38","restless",0.5,0.6,0.6,0.921451251295382,"false"
"image-keyboard-response",606,418788,"0.0-3.198-1.198","xxqrngd1b9ebjwx",420,"53.csv","","null","resources/maskTrios/BT2B.jpg","null","",NA,NA,NA,NA,""
"image-keyboard-response",607,419993,"0.0-3.198-2.198","xxqrngd1b9ebjwx",420,"53.csv","","null","resources/images/fishbone.png","null","",NA,NA,NA,NA,""
"image-keyboard-response",608,420292,"0.0-3.199-0.199","xxqrngd1b9ebjwx",420,"53.csv","","297.5","resources/trios/L4T4A2.jpg","38","restless",0.5,0.6,0.6,0.899153159633845,"false"
"image-keyboard-response",609,420694,"0.0-3.199-1.199","xxqrngd1b9ebjwx",420,"53.csv","","null","resources/maskTrios/BT4B.jpg","null","",NA,NA,NA,NA,""
"image-keyboard-response",610,421895,"0.0-3.199-2.199","xxqrngd1b9ebjwx",420,"53.csv","","null","resources/images/fishbone.png","null","",NA,NA,NA,NA,""
