"trial_type","trial_index","time_elapsed","internal_node_id","subject","participantCode","walkNumber","success","rt","stimulus","key_press","test_part","leftProb","midProb","rightProb","generatedNum","correct"
"pavlovia",0,1018,"0.0-0.0","rypca8e1k5pabqe",379,"60.csv","","","","","",NA,NA,NA,NA,""
"fullscreen",1,6786,"0.0-1.0","rypca8e1k5pabqe",379,"60.csv","true","","","","",NA,NA,NA,NA,""
"html-keyboard-response",2,14092,"0.0-2.0-0.0","rypca8e1k5pabqe",379,"60.csv","","7305.20000000298","<p><font size='6'>Arrrgh!</p></font><p>Can you be the best pirate? Try to find lots of gold! But beware, some islands have more gold than others, and over time, the island with the most gold may change. Can YOU figure it out? </p><font size='6'>GOOD LUCK, CAPTAIN!!!</font><p>Press any key to begin</p>","32","",NA,NA,NA,NA,""
"image-keyboard-response",3,17094,"0.0-2.0-1.0","rypca8e1k5pabqe",379,"60.csv","","null","resources/image_sets/111.png","null","",NA,NA,NA,NA,""
"image-keyboard-response",4,22041,"0.0-2.0-2.0","rypca8e1k5pabqe",379,"60.csv","","4945.20000000298","resources/image_sets/left_highlight.png","37","",NA,NA,NA,NA,""
"image-keyboard-response",5,23152,"0.0-2.0-3.0","rypca8e1k5pabqe",379,"60.csv","","1109.6000000089407","resources/image_sets/mid_highlight.png","38","",NA,NA,NA,NA,""
"image-keyboard-response",6,23757,"0.0-2.0-4.0","rypca8e1k5pabqe",379,"60.csv","","604","resources/image_sets/right_highlight.png","39","",NA,NA,NA,NA,""
"image-keyboard-response",7,28549,"0.0-2.0-5.0","rypca8e1k5pabqe",379,"60.csv","","4791.20000000298","resources/image_sets/111.png","13","",NA,NA,NA,NA,""
"image-keyboard-response",8,31301,"0.0-2.0-6.0","rypca8e1k5pabqe",379,"60.csv","","2750.5","resources/images/coin2.png","13","",NA,NA,NA,NA,""
"image-keyboard-response",9,32804,"0.0-2.0-7.0","rypca8e1k5pabqe",379,"60.csv","","1503.1000000089407","resources/images/fishbone.png","13","",NA,NA,NA,NA,""
"html-keyboard-response",10,37454,"0.0-2.0-8.0","rypca8e1k5pabqe",379,"60.csv","","4649.29999999702","<p>Your first journey will be a long one, but you will get a well deserved break at the end</p><p>After the break you will have four more journeys, but each will be much shorter than the first, and you will have breaks in between each</p><p>Press Enter to begin</p>","13","",NA,NA,NA,NA,""
"image-keyboard-response",11,39103,"0.0-3.0-0.0","rypca8e1k5pabqe",379,"60.csv","","1647.2999999970198","resources/trios/L1T1A3.jpg","37","restless",0.7,0.9,0.3,0.514497818553115,"true"
"image-keyboard-response",12,39507,"0.0-3.0-1.0","rypca8e1k5pabqe",379,"60.csv","","null","resources/maskTrios/L1BB.jpg","null","",NA,NA,NA,NA,""
"image-keyboard-response",13,40726,"0.0-3.0-2.0","rypca8e1k5pabqe",379,"60.csv","","null","resources/images/coin2.png","null","",NA,NA,NA,NA,""
"image-keyboard-response",14,41701,"0.0-3.1-0.1","rypca8e1k5pabqe",379,"60.csv","","973.8000000119209","resources/trios/L2T1A1.jpg","39","restless",0.7,0.9,0.3,0.545621866492249,"false"
"image-keyboard-response",15,42114,"0.0-3.1-1.1","rypca8e1k5pabqe",379,"60.csv","","null","resources/maskTrios/BBA1.jpg","null","",NA,NA,NA,NA,""
"image-keyboard-response",16,43318,"0.0-3.1-2.1","rypca8e1k5pabqe",379,"60.csv","","null","resources/images/fishbone.png","null","",NA,NA,NA,NA,""
"image-keyboard-response",17,44965,"0.0-3.2-0.2","rypca8e1k5pabqe",379,"60.csv","","1646.0999999940395","resources/trios/L1T1A1.jpg","39","restless",0.7,0.9,0.3,0.0771498590287476,"true"
"image-keyboard-response",18,45371,"0.0-3.2-1.2","rypca8e1k5pabqe",379,"60.csv","","null","resources/maskTrios/BBA1.jpg","null","",NA,NA,NA,NA,""
"image-keyboard-response",19,46587,"0.0-3.2-2.2","rypca8e1k5pabqe",379,"60.csv","","null","resources/images/coin2.png","null","",NA,NA,NA,NA,""
"image-keyboard-response",20,47321,"0.0-3.3-0.3","rypca8e1k5pabqe",379,"60.csv","","732.7000000029802","resources/trios/L1T4A1.jpg","38","restless",0.7,0.9,0.3,0.182596574984041,"true"
"image-keyboard-response",21,47730,"0.0-3.3-1.3","rypca8e1k5pabqe",379,"60.csv","","null","resources/maskTrios/BT4B.jpg","null","",NA,NA,NA,NA,""
"image-keyboard-response",22,48938,"0.0-3.3-2.3","rypca8e1k5pabqe",379,"60.csv","","null","resources/images/coin2.png","null","",NA,NA,NA,NA,""
"image-keyboard-response",23,49294,"0.0-3.4-0.4","rypca8e1k5pabqe",379,"60.csv","","355","resources/trios/L1T4A3.jpg","37","restless",0.8,0.9,0.4,0.981375196166576,"false"
"image-keyboard-response",24,49710,"0.0-3.4-1.4","rypca8e1k5pabqe",379,"60.csv","","null","resources/maskTrios/L1BB.jpg","null","",NA,NA,NA,NA,""
"image-keyboard-response",25,50926,"0.0-3.4-2.4","rypca8e1k5pabqe",379,"60.csv","","null","resources/images/fishbone.png","null","",NA,NA,NA,NA,""
"image-keyboard-response",26,52362,"0.0-3.5-0.5","rypca8e1k5pabqe",379,"60.csv","","1434","resources/trios/L2T1A3.jpg","38","restless",0.8,0.9,0.4,0.554648601219943,"true"
"image-keyboard-response",27,52777,"0.0-3.5-1.5","rypca8e1k5pabqe",379,"60.csv","","null","resources/maskTrios/BT1B.jpg","null","",NA,NA,NA,NA,""
"image-keyboard-response",28,53994,"0.0-3.5-2.5","rypca8e1k5pabqe",379,"60.csv","","null","resources/images/coin2.png","null","",NA,NA,NA,NA,""
"image-keyboard-response",29,55202,"0.0-3.6-0.6","rypca8e1k5pabqe",379,"60.csv","","1206.800000011921","resources/trios/L2T4A3.jpg","37","restless",0.9,0.8,0.4,0.36585477070631,"true"
"image-keyboard-response",30,55615,"0.0-3.6-1.6","rypca8e1k5pabqe",379,"60.csv","","null","resources/maskTrios/L2BB.jpg","null","",NA,NA,NA,NA,""
"image-keyboard-response",31,56818,"0.0-3.6-2.6","rypca8e1k5pabqe",379,"60.csv","","null","resources/images/coin2.png","null","",NA,NA,NA,NA,""
"image-keyboard-response",32,58477,"0.0-3.7-0.7","rypca8e1k5pabqe",379,"60.csv","","1655.2999999970198","resources/trios/L2T4A1.jpg","38","restless",0.9,0.8,0.4,0.347059809787015,"true"
"image-keyboard-response",33,58888,"0.0-3.7-1.7","rypca8e1k5pabqe",379,"60.csv","","null","resources/maskTrios/BT4B.jpg","null","",NA,NA,NA,NA,""
"image-keyboard-response",34,60104,"0.0-3.7-2.7","rypca8e1k5pabqe",379,"60.csv","","null","resources/images/coin2.png","null","",NA,NA,NA,NA,""
"image-keyboard-response",35,61107,"0.0-3.8-0.8","rypca8e1k5pabqe",379,"60.csv","","1002","resources/trios/L2T1A3.jpg","39","restless",0.9,0.8,0.4,0.0454661271891699,"true"
"image-keyboard-response",36,61509,"0.0-3.8-1.8","rypca8e1k5pabqe",379,"60.csv","","null","resources/maskTrios/BBA3.jpg","null","",NA,NA,NA,NA,""
"image-keyboard-response",37,62714,"0.0-3.8-2.8","rypca8e1k5pabqe",379,"60.csv","","null","resources/images/coin2.png","null","",NA,NA,NA,NA,""
"image-keyboard-response",38,64691,"0.0-3.9-0.9","rypca8e1k5pabqe",379,"60.csv","","1975.3999999910593","resources/trios/L1T4A1.jpg","39","restless",0.9,0.8,0.4,0.118038196470564,"true"
"image-keyboard-response",39,65093,"0.0-3.9-1.9","rypca8e1k5pabqe",379,"60.csv","","null","resources/maskTrios/BBA1.jpg","null","",NA,NA,NA,NA,""
"image-keyboard-response",40,66298,"0.0-3.9-2.9","rypca8e1k5pabqe",379,"60.csv","","null","resources/images/coin2.png","null","",NA,NA,NA,NA,""
"image-keyboard-response",41,66940,"0.0-3.10-0.10","rypca8e1k5pabqe",379,"60.csv","","640.2000000029802","resources/trios/L1T4A3.jpg","38","restless",0.9,0.8,0.4,0.753635380228161,"true"
"image-keyboard-response",42,67346,"0.0-3.10-1.10","rypca8e1k5pabqe",379,"60.csv","","null","resources/maskTrios/BT4B.jpg","null","",NA,NA,NA,NA,""
"image-keyboard-response",43,68550,"0.0-3.10-2.10","rypca8e1k5pabqe",379,"60.csv","","null","resources/images/coin2.png","null","",NA,NA,NA,NA,""
"image-keyboard-response",44,69464,"0.0-3.11-0.11","rypca8e1k5pabqe",379,"60.csv","","912.4000000059605","resources/trios/L1T4A3.jpg","37","restless",0.9,0.8,0.4,0.795596013990055,"true"
"image-keyboard-response",45,69879,"0.0-3.11-1.11","rypca8e1k5pabqe",379,"60.csv","","null","resources/maskTrios/L1BB.jpg","null","",NA,NA,NA,NA,""
"image-keyboard-response",46,71089,"0.0-3.11-2.11","rypca8e1k5pabqe",379,"60.csv","","null","resources/images/coin2.png","null","",NA,NA,NA,NA,""
"image-keyboard-response",47,72121,"0.0-3.12-0.12","rypca8e1k5pabqe",379,"60.csv","","1029.9000000059605","resources/trios/L1T4A1.jpg","37","restless",0.8,0.8,0.4,0.429757536035718,"true"
"image-keyboard-response",48,72536,"0.0-3.12-1.12","rypca8e1k5pabqe",379,"60.csv","","null","resources/maskTrios/L1BB.jpg","null","",NA,NA,NA,NA,""
"image-keyboard-response",49,73740,"0.0-3.12-2.12","rypca8e1k5pabqe",379,"60.csv","","null","resources/images/coin2.png","null","",NA,NA,NA,NA,""
"image-keyboard-response",50,74345,"0.0-3.13-0.13","rypca8e1k5pabqe",379,"60.csv","","604.1000000089407","resources/trios/L1T1A1.jpg","37","restless",0.8,0.8,0.4,0.427754933691204,"true"
"image-keyboard-response",51,74758,"0.0-3.13-1.13","rypca8e1k5pabqe",379,"60.csv","","null","resources/maskTrios/L1BB.jpg","null","",NA,NA,NA,NA,""
"image-keyboard-response",52,75964,"0.0-3.13-2.13","rypca8e1k5pabqe",379,"60.csv","","null","resources/images/coin2.png","null","",NA,NA,NA,NA,""
"image-keyboard-response",53,76335,"0.0-3.14-0.14","rypca8e1k5pabqe",379,"60.csv","","370.30000001192093","resources/trios/L1T4A1.jpg","37","restless",0.7,0.8,0.5,0.722667681412685,"false"
"image-keyboard-response",54,76751,"0.0-3.14-1.14","rypca8e1k5pabqe",379,"60.csv","","null","resources/maskTrios/L1BB.jpg","null","",NA,NA,NA,NA,""
"image-keyboard-response",55,77954,"0.0-3.14-2.14","rypca8e1k5pabqe",379,"60.csv","","null","resources/images/fishbone.png","null","",NA,NA,NA,NA,""
"image-keyboard-response",56,78439,"0.0-3.15-0.15","rypca8e1k5pabqe",379,"60.csv","","483.29999999701977","resources/trios/L2T1A1.jpg","38","restless",0.7,0.8,0.5,0.875877099715687,"false"
"image-keyboard-response",57,78847,"0.0-3.15-1.15","rypca8e1k5pabqe",379,"60.csv","","null","resources/maskTrios/BT1B.jpg","null","",NA,NA,NA,NA,""
"image-keyboard-response",58,80063,"0.0-3.15-2.15","rypca8e1k5pabqe",379,"60.csv","","null","resources/images/fishbone.png","null","",NA,NA,NA,NA,""
"image-keyboard-response",59,81050,"0.0-3.16-0.16","rypca8e1k5pabqe",379,"60.csv","","985.9000000059605","resources/trios/L1T4A1.jpg","39","restless",0.7,0.8,0.5,0.129003157558797,"true"
"image-keyboard-response",60,81464,"0.0-3.16-1.16","rypca8e1k5pabqe",379,"60.csv","","null","resources/maskTrios/BBA1.jpg","null","",NA,NA,NA,NA,""
"image-keyboard-response",61,82670,"0.0-3.16-2.16","rypca8e1k5pabqe",379,"60.csv","","null","resources/images/coin2.png","null","",NA,NA,NA,NA,""
"image-keyboard-response",62,84724,"0.0-3.17-0.17","rypca8e1k5pabqe",379,"60.csv","","2052.9000000059605","resources/trios/L1T4A3.jpg","38","restless",0.7,0.8,0.5,0.596598709913736,"true"
"image-keyboard-response",63,85133,"0.0-3.17-1.17","rypca8e1k5pabqe",379,"60.csv","","null","resources/maskTrios/BT4B.jpg","null","",NA,NA,NA,NA,""
"image-keyboard-response",64,86337,"0.0-3.17-2.17","rypca8e1k5pabqe",379,"60.csv","","null","resources/images/coin2.png","null","",NA,NA,NA,NA,""
"image-keyboard-response",65,87334,"0.0-3.18-0.18","rypca8e1k5pabqe",379,"60.csv","","996","resources/trios/L1T1A3.jpg","39","restless",0.7,0.8,0.5,0.273658221733347,"true"
"image-keyboard-response",66,87738,"0.0-3.18-1.18","rypca8e1k5pabqe",379,"60.csv","","null","resources/maskTrios/BBA3.jpg","null","",NA,NA,NA,NA,""
"image-keyboard-response",67,88941,"0.0-3.18-2.18","rypca8e1k5pabqe",379,"60.csv","","null","resources/images/coin2.png","null","",NA,NA,NA,NA,""
"image-keyboard-response",68,89809,"0.0-3.19-0.19","rypca8e1k5pabqe",379,"60.csv","","866.5","resources/trios/L1T4A1.jpg","37","restless",0.6,0.8,0.5,0.134091533101764,"true"
"image-keyboard-response",69,90212,"0.0-3.19-1.19","rypca8e1k5pabqe",379,"60.csv","","null","resources/maskTrios/L1BB.jpg","null","",NA,NA,NA,NA,""
"image-keyboard-response",70,91415,"0.0-3.19-2.19","rypca8e1k5pabqe",379,"60.csv","","null","resources/images/coin2.png","null","",NA,NA,NA,NA,""
"image-keyboard-response",71,92106,"0.0-3.20-0.20","rypca8e1k5pabqe",379,"60.csv","","689.1000000089407","resources/trios/L2T4A3.jpg","38","restless",0.6,0.8,0.5,0.239439729274874,"true"
"image-keyboard-response",72,92509,"0.0-3.20-1.20","rypca8e1k5pabqe",379,"60.csv","","null","resources/maskTrios/BT4B.jpg","null","",NA,NA,NA,NA,""
"image-keyboard-response",73,93719,"0.0-3.20-2.20","rypca8e1k5pabqe",379,"60.csv","","null","resources/images/coin2.png","null","",NA,NA,NA,NA,""
"image-keyboard-response",74,94322,"0.0-3.21-0.21","rypca8e1k5pabqe",379,"60.csv","","602","resources/trios/L1T4A3.jpg","39","restless",0.6,0.8,0.5,0.761834143423312,"false"
"image-keyboard-response",75,94738,"0.0-3.21-1.21","rypca8e1k5pabqe",379,"60.csv","","null","resources/maskTrios/BBA3.jpg","null","",NA,NA,NA,NA,""
"image-keyboard-response",76,95941,"0.0-3.21-2.21","rypca8e1k5pabqe",379,"60.csv","","null","resources/images/fishbone.png","null","",NA,NA,NA,NA,""
"image-keyboard-response",77,96379,"0.0-3.22-0.22","rypca8e1k5pabqe",379,"60.csv","","436.09999999403954","resources/trios/L2T4A1.jpg","38","restless",0.6,0.8,0.5,0.14775303238978,"true"
"image-keyboard-response",78,96793,"0.0-3.22-1.22","rypca8e1k5pabqe",379,"60.csv","","null","resources/maskTrios/BT4B.jpg","null","",NA,NA,NA,NA,""
"image-keyboard-response",79,98010,"0.0-3.22-2.22","rypca8e1k5pabqe",379,"60.csv","","null","resources/images/coin2.png","null","",NA,NA,NA,NA,""
"image-keyboard-response",80,98416,"0.0-3.23-0.23","rypca8e1k5pabqe",379,"60.csv","","405.29999999701977","resources/trios/L2T4A1.jpg","37","restless",0.6,0.7,0.5,0.220177619061956,"true"
"image-keyboard-response",81,98830,"0.0-3.23-1.23","rypca8e1k5pabqe",379,"60.csv","","null","resources/maskTrios/L2BB.jpg","null","",NA,NA,NA,NA,""
"image-keyboard-response",82,100035,"0.0-3.23-2.23","rypca8e1k5pabqe",379,"60.csv","","null","resources/images/coin2.png","null","",NA,NA,NA,NA,""
"image-keyboard-response",83,100494,"0.0-3.24-0.24","rypca8e1k5pabqe",379,"60.csv","","457.79999999701977","resources/trios/L2T4A1.jpg","38","restless",0.5,0.7,0.5,0.90862493594032,"false"
"image-keyboard-response",84,100898,"0.0-3.24-1.24","rypca8e1k5pabqe",379,"60.csv","","null","resources/maskTrios/BT4B.jpg","null","",NA,NA,NA,NA,""
"image-keyboard-response",85,102102,"0.0-3.24-2.24","rypca8e1k5pabqe",379,"60.csv","","null","resources/images/fishbone.png","null","",NA,NA,NA,NA,""
"image-keyboard-response",86,102568,"0.0-3.25-0.25","rypca8e1k5pabqe",379,"60.csv","","465.40000000596046","resources/trios/L1T4A3.jpg","39","restless",0.5,0.7,0.5,0.455782725221209,"true"
"image-keyboard-response",87,102971,"0.0-3.25-1.25","rypca8e1k5pabqe",379,"60.csv","","null","resources/maskTrios/BBA3.jpg","null","",NA,NA,NA,NA,""
"image-keyboard-response",88,104176,"0.0-3.25-2.25","rypca8e1k5pabqe",379,"60.csv","","null","resources/images/coin2.png","null","",NA,NA,NA,NA,""
"image-keyboard-response",89,104584,"0.0-3.26-0.26","rypca8e1k5pabqe",379,"60.csv","","407.40000000596046","resources/trios/L2T4A3.jpg","39","restless",0.5,0.7,0.5,0.95499040153879,"false"
"image-keyboard-response",90,104991,"0.0-3.26-1.26","rypca8e1k5pabqe",379,"60.csv","","null","resources/maskTrios/BBA3.jpg","null","",NA,NA,NA,NA,""
"image-keyboard-response",91,106206,"0.0-3.26-2.26","rypca8e1k5pabqe",379,"60.csv","","null","resources/images/fishbone.png","null","",NA,NA,NA,NA,""
"image-keyboard-response",92,106757,"0.0-3.27-0.27","rypca8e1k5pabqe",379,"60.csv","","549.1000000089407","resources/trios/L1T1A3.jpg","38","restless",0.5,0.7,0.5,0.304287433136295,"true"
"image-keyboard-response",93,107164,"0.0-3.27-1.27","rypca8e1k5pabqe",379,"60.csv","","null","resources/maskTrios/BT1B.jpg","null","",NA,NA,NA,NA,""
"image-keyboard-response",94,108378,"0.0-3.27-2.27","rypca8e1k5pabqe",379,"60.csv","","null","resources/images/coin2.png","null","",NA,NA,NA,NA,""
"image-keyboard-response",95,109050,"0.0-3.28-0.28","rypca8e1k5pabqe",379,"60.csv","","670.2999999970198","resources/trios/L1T1A3.jpg","37","restless",0.4,0.7,0.4,0.878316158626425,"false"
"image-keyboard-response",96,109457,"0.0-3.28-1.28","rypca8e1k5pabqe",379,"60.csv","","null","resources/maskTrios/L1BB.jpg","null","",NA,NA,NA,NA,""
"image-keyboard-response",97,110673,"0.0-3.28-2.28","rypca8e1k5pabqe",379,"60.csv","","null","resources/images/fishbone.png","null","",NA,NA,NA,NA,""
"image-keyboard-response",98,111252,"0.0-3.29-0.29","rypca8e1k5pabqe",379,"60.csv","","577.5999999940395","resources/trios/L1T1A1.jpg","38","restless",0.3,0.7,0.5,0.889618329758515,"false"
"image-keyboard-response",99,111660,"0.0-3.29-1.29","rypca8e1k5pabqe",379,"60.csv","","null","resources/maskTrios/BT1B.jpg","null","",NA,NA,NA,NA,""
"image-keyboard-response",100,112874,"0.0-3.29-2.29","rypca8e1k5pabqe",379,"60.csv","","null","resources/images/fishbone.png","null","",NA,NA,NA,NA,""
"image-keyboard-response",101,113260,"0.0-3.30-0.30","rypca8e1k5pabqe",379,"60.csv","","384.59999999403954","resources/trios/L1T4A3.jpg","39","restless",0.3,0.7,0.5,0.384256661867675,"true"
"image-keyboard-response",102,113676,"0.0-3.30-1.30","rypca8e1k5pabqe",379,"60.csv","","null","resources/maskTrios/BBA3.jpg","null","",NA,NA,NA,NA,""
"image-keyboard-response",103,114892,"0.0-3.30-2.30","rypca8e1k5pabqe",379,"60.csv","","null","resources/images/coin2.png","null","",NA,NA,NA,NA,""
"image-keyboard-response",104,115247,"0.0-3.31-0.31","rypca8e1k5pabqe",379,"60.csv","","354.70000000298023","resources/trios/L1T1A1.jpg","37","restless",0.3,0.7,0.5,0.271418604483417,"true"
"image-keyboard-response",105,115664,"0.0-3.31-1.31","rypca8e1k5pabqe",379,"60.csv","","null","resources/maskTrios/L1BB.jpg","null","",NA,NA,NA,NA,""
"image-keyboard-response",106,116869,"0.0-3.31-2.31","rypca8e1k5pabqe",379,"60.csv","","null","resources/images/coin2.png","null","",NA,NA,NA,NA,""
"image-keyboard-response",107,117408,"0.0-3.32-0.32","rypca8e1k5pabqe",379,"60.csv","","537","resources/trios/L1T4A1.jpg","37","restless",0.3,0.7,0.6,0.836100894095679,"false"
"image-keyboard-response",108,117811,"0.0-3.32-1.32","rypca8e1k5pabqe",379,"60.csv","","null","resources/maskTrios/L1BB.jpg","null","",NA,NA,NA,NA,""
"image-keyboard-response",109,119017,"0.0-3.32-2.32","rypca8e1k5pabqe",379,"60.csv","","null","resources/images/fishbone.png","null","",NA,NA,NA,NA,""
"image-keyboard-response",110,119531,"0.0-3.33-0.33","rypca8e1k5pabqe",379,"60.csv","","512.7999999970198","resources/trios/L2T1A3.jpg","39","restless",0.3,0.7,0.6,0.519846028257945,"true"
"image-keyboard-response",111,119945,"0.0-3.33-1.33","rypca8e1k5pabqe",379,"60.csv","","null","resources/maskTrios/BBA3.jpg","null","",NA,NA,NA,NA,""
"image-keyboard-response",112,121149,"0.0-3.33-2.33","rypca8e1k5pabqe",379,"60.csv","","null","resources/images/coin2.png","null","",NA,NA,NA,NA,""
"image-keyboard-response",113,121597,"0.0-3.34-0.34","rypca8e1k5pabqe",379,"60.csv","","447.29999999701977","resources/trios/L1T1A1.jpg","39","restless",0.3,0.7,0.6,0.235452157368798,"true"
"image-keyboard-response",114,122000,"0.0-3.34-1.34","rypca8e1k5pabqe",379,"60.csv","","null","resources/maskTrios/BBA1.jpg","null","",NA,NA,NA,NA,""
"image-keyboard-response",115,123203,"0.0-3.34-2.34","rypca8e1k5pabqe",379,"60.csv","","null","resources/images/coin2.png","null","",NA,NA,NA,NA,""
"image-keyboard-response",116,123543,"0.0-3.35-0.35","rypca8e1k5pabqe",379,"60.csv","","339.29999999701977","resources/trios/L2T1A3.jpg","38","restless",0.3,0.7,0.6,0.161490901132957,"true"
"image-keyboard-response",117,123959,"0.0-3.35-1.35","rypca8e1k5pabqe",379,"60.csv","","null","resources/maskTrios/BT1B.jpg","null","",NA,NA,NA,NA,""
"image-keyboard-response",118,125165,"0.0-3.35-2.35","rypca8e1k5pabqe",379,"60.csv","","null","resources/images/coin2.png","null","",NA,NA,NA,NA,""
"image-keyboard-response",119,125960,"0.0-3.36-0.36","rypca8e1k5pabqe",379,"60.csv","","793.3000000119209","resources/trios/L2T4A1.jpg","39","restless",0.3,0.7,0.6,0.321966743007383,"true"
"image-keyboard-response",120,126367,"0.0-3.36-1.36","rypca8e1k5pabqe",379,"60.csv","","null","resources/maskTrios/BBA1.jpg","null","",NA,NA,NA,NA,""
"image-keyboard-response",121,127572,"0.0-3.36-2.36","rypca8e1k5pabqe",379,"60.csv","","null","resources/images/coin2.png","null","",NA,NA,NA,NA,""
"image-keyboard-response",122,128173,"0.0-3.37-0.37","rypca8e1k5pabqe",379,"60.csv","","600.1000000089407","resources/trios/L2T4A1.jpg","38","restless",0.3,0.6,0.6,0.648561996422043,"false"
"image-keyboard-response",123,128588,"0.0-3.37-1.37","rypca8e1k5pabqe",379,"60.csv","","null","resources/maskTrios/BT4B.jpg","null","",NA,NA,NA,NA,""
"image-keyboard-response",124,129794,"0.0-3.37-2.37","rypca8e1k5pabqe",379,"60.csv","","null","resources/images/fishbone.png","null","",NA,NA,NA,NA,""
"image-keyboard-response",125,130827,"0.0-3.38-0.38","rypca8e1k5pabqe",379,"60.csv","","1031.2000000029802","resources/trios/L1T4A3.jpg","38","restless",0.3,0.6,0.5,0.253629803656728,"true"
"image-keyboard-response",126,131228,"0.0-3.38-1.38","rypca8e1k5pabqe",379,"60.csv","","null","resources/maskTrios/BT4B.jpg","null","",NA,NA,NA,NA,""
"image-keyboard-response",127,132440,"0.0-3.38-2.38","rypca8e1k5pabqe",379,"60.csv","","null","resources/images/coin2.png","null","",NA,NA,NA,NA,""
"image-keyboard-response",128,133290,"0.0-3.39-0.39","rypca8e1k5pabqe",379,"60.csv","","848.3000000119209","resources/trios/L1T1A1.jpg","37","restless",0.3,0.6,0.5,0.147693408380184,"true"
"image-keyboard-response",129,133704,"0.0-3.39-1.39","rypca8e1k5pabqe",379,"60.csv","","null","resources/maskTrios/L1BB.jpg","null","",NA,NA,NA,NA,""
"image-keyboard-response",130,134908,"0.0-3.39-2.39","rypca8e1k5pabqe",379,"60.csv","","null","resources/images/coin2.png","null","",NA,NA,NA,NA,""
"image-keyboard-response",131,136236,"0.0-3.40-0.40","rypca8e1k5pabqe",379,"60.csv","","1326.4000000059605","resources/trios/L2T1A3.jpg","39","restless",0.3,0.6,0.5,0.0911502780407907,"true"
"image-keyboard-response",132,136647,"0.0-3.40-1.40","rypca8e1k5pabqe",379,"60.csv","","null","resources/maskTrios/BBA3.jpg","null","",NA,NA,NA,NA,""
"image-keyboard-response",133,137851,"0.0-3.40-2.40","rypca8e1k5pabqe",379,"60.csv","","null","resources/images/coin2.png","null","",NA,NA,NA,NA,""
"image-keyboard-response",134,139144,"0.0-3.41-0.41","rypca8e1k5pabqe",379,"60.csv","","1291.5999999940395","resources/trios/L1T1A1.jpg","37","restless",0.3,0.6,0.5,0.893848251031945,"false"
"image-keyboard-response",135,139546,"0.0-3.41-1.41","rypca8e1k5pabqe",379,"60.csv","","null","resources/maskTrios/L1BB.jpg","null","",NA,NA,NA,NA,""
"image-keyboard-response",136,140762,"0.0-3.41-2.41","rypca8e1k5pabqe",379,"60.csv","","null","resources/images/fishbone.png","null","",NA,NA,NA,NA,""
"image-keyboard-response",137,141694,"0.0-3.42-0.42","rypca8e1k5pabqe",379,"60.csv","","930","resources/trios/L1T4A1.jpg","39","restless",0.3,0.6,0.5,0.436218349958838,"true"
"image-keyboard-response",138,142104,"0.0-3.42-1.42","rypca8e1k5pabqe",379,"60.csv","","null","resources/maskTrios/BBA1.jpg","null","",NA,NA,NA,NA,""
"image-keyboard-response",139,143308,"0.0-3.42-2.42","rypca8e1k5pabqe",379,"60.csv","","null","resources/images/coin2.png","null","",NA,NA,NA,NA,""
"image-keyboard-response",140,144123,"0.0-3.43-0.43","rypca8e1k5pabqe",379,"60.csv","","814.2000000029802","resources/trios/L2T1A1.jpg","38","restless",0.3,0.7,0.4,0.406878348574479,"true"
"image-keyboard-response",141,144527,"0.0-3.43-1.43","rypca8e1k5pabqe",379,"60.csv","","null","resources/maskTrios/BT1B.jpg","null","",NA,NA,NA,NA,""
"image-keyboard-response",142,145731,"0.0-3.43-2.43","rypca8e1k5pabqe",379,"60.csv","","null","resources/images/coin2.png","null","",NA,NA,NA,NA,""
"image-keyboard-response",143,147783,"0.0-3.44-0.44","rypca8e1k5pabqe",379,"60.csv","","2050.5999999940395","resources/trios/L1T1A3.jpg","39","restless",0.2,0.7,0.4,0.398493330035342,"true"
"image-keyboard-response",144,148189,"0.0-3.44-1.44","rypca8e1k5pabqe",379,"60.csv","","null","resources/maskTrios/BBA3.jpg","null","",NA,NA,NA,NA,""
"image-keyboard-response",145,149391,"0.0-3.44-2.44","rypca8e1k5pabqe",379,"60.csv","","null","resources/images/coin2.png","null","",NA,NA,NA,NA,""
"image-keyboard-response",146,150025,"0.0-3.45-0.45","rypca8e1k5pabqe",379,"60.csv","","632.7000000029802","resources/trios/L1T4A3.jpg","38","restless",0.2,0.7,0.4,0.0329545080073763,"true"
"image-keyboard-response",147,150439,"0.0-3.45-1.45","rypca8e1k5pabqe",379,"60.csv","","null","resources/maskTrios/BT4B.jpg","null","",NA,NA,NA,NA,""
"image-keyboard-response",148,151654,"0.0-3.45-2.45","rypca8e1k5pabqe",379,"60.csv","","null","resources/images/coin2.png","null","",NA,NA,NA,NA,""
"image-keyboard-response",149,151975,"0.0-3.46-0.46","rypca8e1k5pabqe",379,"60.csv","","319.20000000298023","resources/trios/L2T1A1.jpg","37","restless",0.2,0.7,0.4,0.185162519100202,"true"
"image-keyboard-response",150,152378,"0.0-3.46-1.46","rypca8e1k5pabqe",379,"60.csv","","null","resources/maskTrios/L2BB.jpg","null","",NA,NA,NA,NA,""
"image-keyboard-response",151,153583,"0.0-3.46-2.46","rypca8e1k5pabqe",379,"60.csv","","null","resources/images/coin2.png","null","",NA,NA,NA,NA,""
"image-keyboard-response",152,153857,"0.0-3.47-0.47","rypca8e1k5pabqe",379,"60.csv","","272.5","resources/trios/L2T4A1.jpg","39","restless",0.2,0.7,0.4,0.275107595533603,"true"
"image-keyboard-response",153,154261,"0.0-3.47-1.47","rypca8e1k5pabqe",379,"60.csv","","null","resources/maskTrios/BBA1.jpg","null","",NA,NA,NA,NA,""
"image-keyboard-response",154,155470,"0.0-3.47-2.47","rypca8e1k5pabqe",379,"60.csv","","null","resources/images/coin2.png","null","",NA,NA,NA,NA,""
"image-keyboard-response",155,155801,"0.0-3.48-0.48","rypca8e1k5pabqe",379,"60.csv","","329.5","resources/trios/L2T4A3.jpg","38","restless",0.2,0.7,0.4,0.373632615721276,"true"
"image-keyboard-response",156,156212,"0.0-3.48-1.48","rypca8e1k5pabqe",379,"60.csv","","null","resources/maskTrios/BT4B.jpg","null","",NA,NA,NA,NA,""
"image-keyboard-response",157,157419,"0.0-3.48-2.48","rypca8e1k5pabqe",379,"60.csv","","null","resources/images/coin2.png","null","",NA,NA,NA,NA,""
"image-keyboard-response",158,157561,"0.0-3.49-0.49","rypca8e1k5pabqe",379,"60.csv","","141.29999999701977","resources/trios/L1T4A1.jpg","37","restless",0.2,0.7,0.4,0.590614313811472,"false"
"image-keyboard-response",159,157975,"0.0-3.49-1.49","rypca8e1k5pabqe",379,"60.csv","","null","resources/maskTrios/L1BB.jpg","null","",NA,NA,NA,NA,""
"image-keyboard-response",160,159179,"0.0-3.49-2.49","rypca8e1k5pabqe",379,"60.csv","","null","resources/images/fishbone.png","null","",NA,NA,NA,NA,""
"image-keyboard-response",161,159282,"0.0-3.50-0.50","rypca8e1k5pabqe",379,"60.csv","","102.09999999403954","resources/trios/L2T1A1.jpg","38","restless",0.2,0.7,0.4,0.740912172487338,"false"
"image-keyboard-response",162,159690,"0.0-3.50-1.50","rypca8e1k5pabqe",379,"60.csv","","null","resources/maskTrios/BT1B.jpg","null","",NA,NA,NA,NA,""
"image-keyboard-response",163,160894,"0.0-3.50-2.50","rypca8e1k5pabqe",379,"60.csv","","null","resources/images/fishbone.png","null","",NA,NA,NA,NA,""
"image-keyboard-response",164,161128,"0.0-3.51-0.51","rypca8e1k5pabqe",379,"60.csv","","232.29999999701977","resources/trios/L2T1A3.jpg","39","restless",0.2,0.7,0.4,0.825191103802799,"false"
"image-keyboard-response",165,161542,"0.0-3.51-1.51","rypca8e1k5pabqe",379,"60.csv","","null","resources/maskTrios/BBA3.jpg","null","",NA,NA,NA,NA,""
"image-keyboard-response",166,162746,"0.0-3.51-2.51","rypca8e1k5pabqe",379,"60.csv","","null","resources/images/fishbone.png","null","",NA,NA,NA,NA,""
"image-keyboard-response",167,165854,"0.0-3.52-0.52","rypca8e1k5pabqe",379,"60.csv","","3107.2999999970198","resources/trios/L1T1A3.jpg","39","restless",0.2,0.7,0.4,0.94050476507118,"false"
"image-keyboard-response",168,166267,"0.0-3.52-1.52","rypca8e1k5pabqe",379,"60.csv","","null","resources/maskTrios/BBA3.jpg","null","",NA,NA,NA,NA,""
"image-keyboard-response",169,167473,"0.0-3.52-2.52","rypca8e1k5pabqe",379,"60.csv","","null","resources/images/fishbone.png","null","",NA,NA,NA,NA,""
"image-keyboard-response",170,168424,"0.0-3.53-0.53","rypca8e1k5pabqe",379,"60.csv","","949.6000000089407","resources/trios/L2T4A1.jpg","39","restless",0.2,0.7,0.4,0.0363972599153601,"true"
"image-keyboard-response",171,168829,"0.0-3.53-1.53","rypca8e1k5pabqe",379,"60.csv","","null","resources/maskTrios/BBA1.jpg","null","",NA,NA,NA,NA,""
"image-keyboard-response",172,170034,"0.0-3.53-2.53","rypca8e1k5pabqe",379,"60.csv","","null","resources/images/coin2.png","null","",NA,NA,NA,NA,""
"image-keyboard-response",173,170450,"0.0-3.54-0.54","rypca8e1k5pabqe",379,"60.csv","","414.3999999910593","resources/trios/L1T4A1.jpg","38","restless",0.3,0.7,0.4,0.690127798221937,"true"
"image-keyboard-response",174,170851,"0.0-3.54-1.54","rypca8e1k5pabqe",379,"60.csv","","null","resources/maskTrios/BT4B.jpg","null","",NA,NA,NA,NA,""
"image-keyboard-response",175,172057,"0.0-3.54-2.54","rypca8e1k5pabqe",379,"60.csv","","null","resources/images/coin2.png","null","",NA,NA,NA,NA,""
"image-keyboard-response",176,172405,"0.0-3.55-0.55","rypca8e1k5pabqe",379,"60.csv","","346.5","resources/trios/L2T4A3.jpg","37","restless",0.3,0.6,0.4,0.9825404713495,"false"
"image-keyboard-response",177,172814,"0.0-3.55-1.55","rypca8e1k5pabqe",379,"60.csv","","null","resources/maskTrios/L2BB.jpg","null","",NA,NA,NA,NA,""
"image-keyboard-response",178,174016,"0.0-3.55-2.55","rypca8e1k5pabqe",379,"60.csv","","null","resources/images/fishbone.png","null","",NA,NA,NA,NA,""
"image-keyboard-response",179,174727,"0.0-3.56-0.56","rypca8e1k5pabqe",379,"60.csv","","709.7000000029802","resources/trios/L1T4A1.jpg","37","restless",0.4,0.6,0.4,0.295576872333327,"true"
"image-keyboard-response",180,175141,"0.0-3.56-1.56","rypca8e1k5pabqe",379,"60.csv","","null","resources/maskTrios/L1BB.jpg","null","",NA,NA,NA,NA,""
"image-keyboard-response",181,176344,"0.0-3.56-2.56","rypca8e1k5pabqe",379,"60.csv","","null","resources/images/coin2.png","null","",NA,NA,NA,NA,""
"image-keyboard-response",182,176795,"0.0-3.57-0.57","rypca8e1k5pabqe",379,"60.csv","","449.40000000596046","resources/trios/L2T1A3.jpg","38","restless",0.4,0.6,0.4,0.371920687104524,"true"
"image-keyboard-response",183,177210,"0.0-3.57-1.57","rypca8e1k5pabqe",379,"60.csv","","null","resources/maskTrios/BT1B.jpg","null","",NA,NA,NA,NA,""
"image-keyboard-response",184,178425,"0.0-3.57-2.57","rypca8e1k5pabqe",379,"60.csv","","null","resources/images/coin2.png","null","",NA,NA,NA,NA,""
"image-keyboard-response",185,179217,"0.0-3.58-0.58","rypca8e1k5pabqe",379,"60.csv","","790.5","resources/trios/L2T4A1.jpg","37","restless",0.4,0.6,0.4,0.794805192846875,"false"
"image-keyboard-response",186,179630,"0.0-3.58-1.58","rypca8e1k5pabqe",379,"60.csv","","null","resources/maskTrios/L2BB.jpg","null","",NA,NA,NA,NA,""
"image-keyboard-response",187,180832,"0.0-3.58-2.58","rypca8e1k5pabqe",379,"60.csv","","null","resources/images/fishbone.png","null","",NA,NA,NA,NA,""
"image-keyboard-response",188,181141,"0.0-3.59-0.59","rypca8e1k5pabqe",379,"60.csv","","307.59999999403954","resources/trios/L2T1A3.jpg","39","restless",0.4,0.6,0.4,0.117751254656019,"true"
"image-keyboard-response",189,181554,"0.0-3.59-1.59","rypca8e1k5pabqe",379,"60.csv","","null","resources/maskTrios/BBA3.jpg","null","",NA,NA,NA,NA,""
"image-keyboard-response",190,182756,"0.0-3.59-2.59","rypca8e1k5pabqe",379,"60.csv","","null","resources/images/coin2.png","null","",NA,NA,NA,NA,""
"image-keyboard-response",191,183108,"0.0-3.60-0.60","rypca8e1k5pabqe",379,"60.csv","","351.30000001192093","resources/trios/L1T1A1.jpg","38","restless",0.4,0.6,0.4,0.491146927115585,"true"
"image-keyboard-response",192,183524,"0.0-3.60-1.60","rypca8e1k5pabqe",379,"60.csv","","null","resources/maskTrios/BT1B.jpg","null","",NA,NA,NA,NA,""
"image-keyboard-response",193,184730,"0.0-3.60-2.60","rypca8e1k5pabqe",379,"60.csv","","null","resources/images/coin2.png","null","",NA,NA,NA,NA,""
"image-keyboard-response",194,185020,"0.0-3.61-0.61","rypca8e1k5pabqe",379,"60.csv","","289.09999999403954","resources/trios/L2T4A1.jpg","38","restless",0.4,0.6,0.4,0.157933224997404,"true"
"image-keyboard-response",195,185425,"0.0-3.61-1.61","rypca8e1k5pabqe",379,"60.csv","","null","resources/maskTrios/BT4B.jpg","null","",NA,NA,NA,NA,""
"image-keyboard-response",196,186630,"0.0-3.61-2.61","rypca8e1k5pabqe",379,"60.csv","","null","resources/images/coin2.png","null","",NA,NA,NA,NA,""
"image-keyboard-response",197,186957,"0.0-3.62-0.62","rypca8e1k5pabqe",379,"60.csv","","325.29999999701977","resources/trios/L1T4A3.jpg","39","restless",0.4,0.6,0.4,0.870042435264531,"false"
"image-keyboard-response",198,187372,"0.0-3.62-1.62","rypca8e1k5pabqe",379,"60.csv","","null","resources/maskTrios/BBA3.jpg","null","",NA,NA,NA,NA,""
"image-keyboard-response",199,188579,"0.0-3.62-2.62","rypca8e1k5pabqe",379,"60.csv","","null","resources/images/fishbone.png","null","",NA,NA,NA,NA,""
"image-keyboard-response",200,189474,"0.0-3.63-0.63","rypca8e1k5pabqe",379,"60.csv","","893.7000000029802","resources/trios/L2T1A3.jpg","39","restless",0.4,0.6,0.4,0.700163561127227,"false"
"image-keyboard-response",201,189889,"0.0-3.63-1.63","rypca8e1k5pabqe",379,"60.csv","","null","resources/maskTrios/BBA3.jpg","null","",NA,NA,NA,NA,""
"image-keyboard-response",202,191092,"0.0-3.63-2.63","rypca8e1k5pabqe",379,"60.csv","","null","resources/images/fishbone.png","null","",NA,NA,NA,NA,""
"image-keyboard-response",203,191527,"0.0-3.64-0.64","rypca8e1k5pabqe",379,"60.csv","","434","resources/trios/L1T1A3.jpg","39","restless",0.4,0.6,0.4,0.553303888119182,"false"
"image-keyboard-response",204,191940,"0.0-3.64-1.64","rypca8e1k5pabqe",379,"60.csv","","null","resources/maskTrios/BBA3.jpg","null","",NA,NA,NA,NA,""
"image-keyboard-response",205,193144,"0.0-3.64-2.64","rypca8e1k5pabqe",379,"60.csv","","null","resources/images/fishbone.png","null","",NA,NA,NA,NA,""
"image-keyboard-response",206,193501,"0.0-3.65-0.65","rypca8e1k5pabqe",379,"60.csv","","355.5","resources/trios/L2T4A1.jpg","39","restless",0.4,0.6,0.4,0.479485195547323,"false"
"image-keyboard-response",207,193916,"0.0-3.65-1.65","rypca8e1k5pabqe",379,"60.csv","","null","resources/maskTrios/BBA1.jpg","null","",NA,NA,NA,NA,""
"image-keyboard-response",208,195120,"0.0-3.65-2.65","rypca8e1k5pabqe",379,"60.csv","","null","resources/images/fishbone.png","null","",NA,NA,NA,NA,""
"image-keyboard-response",209,195394,"0.0-3.66-0.66","rypca8e1k5pabqe",379,"60.csv","","273.29999999701977","resources/trios/L2T1A1.jpg","39","restless",0.4,0.6,0.4,0.601086868971414,"false"
"image-keyboard-response",210,195797,"0.0-3.66-1.66","rypca8e1k5pabqe",379,"60.csv","","null","resources/maskTrios/BBA1.jpg","null","",NA,NA,NA,NA,""
"image-keyboard-response",211,197001,"0.0-3.66-2.66","rypca8e1k5pabqe",379,"60.csv","","null","resources/images/fishbone.png","null","",NA,NA,NA,NA,""
"image-keyboard-response",212,197272,"0.0-3.67-0.67","rypca8e1k5pabqe",379,"60.csv","","270.3999999910593","resources/trios/L1T4A3.jpg","39","restless",0.4,0.6,0.4,0.368231389293653,"true"
"image-keyboard-response",213,197680,"0.0-3.67-1.67","rypca8e1k5pabqe",379,"60.csv","","null","resources/maskTrios/BBA3.jpg","null","",NA,NA,NA,NA,""
"image-keyboard-response",214,198883,"0.0-3.67-2.67","rypca8e1k5pabqe",379,"60.csv","","null","resources/images/coin2.png","null","",NA,NA,NA,NA,""
"image-keyboard-response",215,199239,"0.0-3.68-0.68","rypca8e1k5pabqe",379,"60.csv","","355.29999999701977","resources/trios/L1T1A1.jpg","38","restless",0.4,0.6,0.4,0.464985281758248,"true"
"image-keyboard-response",216,199653,"0.0-3.68-1.68","rypca8e1k5pabqe",379,"60.csv","","null","resources/maskTrios/BT1B.jpg","null","",NA,NA,NA,NA,""
"image-keyboard-response",217,200856,"0.0-3.68-2.68","rypca8e1k5pabqe",379,"60.csv","","null","resources/images/coin2.png","null","",NA,NA,NA,NA,""
"image-keyboard-response",218,201150,"0.0-3.69-0.69","rypca8e1k5pabqe",379,"60.csv","","293.20000000298023","resources/trios/L2T1A1.jpg","38","restless",0.4,0.6,0.4,0.295342774118352,"true"
"image-keyboard-response",219,201563,"0.0-3.69-1.69","rypca8e1k5pabqe",379,"60.csv","","null","resources/maskTrios/BT1B.jpg","null","",NA,NA,NA,NA,""
"image-keyboard-response",220,202768,"0.0-3.69-2.69","rypca8e1k5pabqe",379,"60.csv","","null","resources/images/coin2.png","null","",NA,NA,NA,NA,""
"image-keyboard-response",221,203076,"0.0-3.70-0.70","rypca8e1k5pabqe",379,"60.csv","","307.20000000298023","resources/trios/L1T1A1.jpg","38","restless",0.3,0.6,0.3,0.190962555592284,"true"
"image-keyboard-response",222,203481,"0.0-3.70-1.70","rypca8e1k5pabqe",379,"60.csv","","null","resources/maskTrios/BT1B.jpg","null","",NA,NA,NA,NA,""
"image-keyboard-response",223,204688,"0.0-3.70-2.70","rypca8e1k5pabqe",379,"60.csv","","null","resources/images/coin2.png","null","",NA,NA,NA,NA,""
"image-keyboard-response",224,205000,"0.0-3.71-0.71","rypca8e1k5pabqe",379,"60.csv","","310.6000000089407","resources/trios/L2T4A1.jpg","38","restless",0.3,0.6,0.3,0.993431141359151,"false"
"image-keyboard-response",225,205414,"0.0-3.71-1.71","rypca8e1k5pabqe",379,"60.csv","","null","resources/maskTrios/BT4B.jpg","null","",NA,NA,NA,NA,""
"image-keyboard-response",226,206617,"0.0-3.71-2.71","rypca8e1k5pabqe",379,"60.csv","","null","resources/images/fishbone.png","null","",NA,NA,NA,NA,""
"image-keyboard-response",227,207156,"0.0-3.72-0.72","rypca8e1k5pabqe",379,"60.csv","","538.3999999910593","resources/trios/L1T4A3.jpg","37","restless",0.3,0.6,0.3,0.4859638926915,"false"
"image-keyboard-response",228,207570,"0.0-3.72-1.72","rypca8e1k5pabqe",379,"60.csv","","null","resources/maskTrios/L1BB.jpg","null","",NA,NA,NA,NA,""
"image-keyboard-response",229,208775,"0.0-3.72-2.72","rypca8e1k5pabqe",379,"60.csv","","null","resources/images/fishbone.png","null","",NA,NA,NA,NA,""
"image-keyboard-response",230,209022,"0.0-3.73-0.73","rypca8e1k5pabqe",379,"60.csv","","245.8999999910593","resources/trios/L1T4A3.jpg","37","restless",0.3,0.5,0.3,0.135353833906923,"true"
"image-keyboard-response",231,209437,"0.0-3.73-1.73","rypca8e1k5pabqe",379,"60.csv","","null","resources/maskTrios/L1BB.jpg","null","",NA,NA,NA,NA,""
"image-keyboard-response",232,210638,"0.0-3.73-2.73","rypca8e1k5pabqe",379,"60.csv","","null","resources/images/coin2.png","null","",NA,NA,NA,NA,""
"image-keyboard-response",233,210703,"0.0-3.74-0.74","rypca8e1k5pabqe",379,"60.csv","","63.6000000089407","resources/trios/L1T1A1.jpg","37","restless",0.3,0.5,0.3,0.647197955405787,"false"
"image-keyboard-response",234,211116,"0.0-3.74-1.74","rypca8e1k5pabqe",379,"60.csv","","null","resources/maskTrios/L1BB.jpg","null","",NA,NA,NA,NA,""
"image-keyboard-response",235,212321,"0.0-3.74-2.74","rypca8e1k5pabqe",379,"60.csv","","null","resources/images/fishbone.png","null","",NA,NA,NA,NA,""
"image-keyboard-response",236,212477,"0.0-3.75-0.75","rypca8e1k5pabqe",379,"60.csv","","155.1000000089407","resources/trios/L2T4A3.jpg","37","restless",0.3,0.5,0.3,0.778426281696387,"false"
"image-keyboard-response",237,212892,"0.0-3.75-1.75","rypca8e1k5pabqe",379,"60.csv","","null","resources/maskTrios/L2BB.jpg","null","",NA,NA,NA,NA,""
"image-keyboard-response",238,214107,"0.0-3.75-2.75","rypca8e1k5pabqe",379,"60.csv","","null","resources/images/fishbone.png","null","",NA,NA,NA,NA,""
"image-keyboard-response",239,214132,"0.0-3.76-0.76","rypca8e1k5pabqe",379,"60.csv","","24","resources/trios/L1T1A3.jpg","38","restless",0.3,0.5,0.3,0.205613213405074,"true"
"image-keyboard-response",240,214537,"0.0-3.76-1.76","rypca8e1k5pabqe",379,"60.csv","","null","resources/maskTrios/BT1B.jpg","null","",NA,NA,NA,NA,""
"image-keyboard-response",241,215754,"0.0-3.76-2.76","rypca8e1k5pabqe",379,"60.csv","","null","resources/images/coin2.png","null","",NA,NA,NA,NA,""
"image-keyboard-response",242,215833,"0.0-3.77-0.77","rypca8e1k5pabqe",379,"60.csv","","78.20000000298023","resources/trios/L1T1A1.jpg","39","restless",0.3,0.5,0.3,0.49119034301031,"false"
"image-keyboard-response",243,216247,"0.0-3.77-1.77","rypca8e1k5pabqe",379,"60.csv","","null","resources/maskTrios/BBA1.jpg","null","",NA,NA,NA,NA,""
"image-keyboard-response",244,217454,"0.0-3.77-2.77","rypca8e1k5pabqe",379,"60.csv","","null","resources/images/fishbone.png","null","",NA,NA,NA,NA,""
"image-keyboard-response",245,217540,"0.0-3.78-0.78","rypca8e1k5pabqe",379,"60.csv","","85.29999999701977","resources/trios/L1T4A3.jpg","38","restless",0.3,0.5,0.3,0.251505997108838,"true"
"image-keyboard-response",246,217949,"0.0-3.78-1.78","rypca8e1k5pabqe",379,"60.csv","","null","resources/maskTrios/BT4B.jpg","null","",NA,NA,NA,NA,""
"image-keyboard-response",247,219152,"0.0-3.78-2.78","rypca8e1k5pabqe",379,"60.csv","","null","resources/images/coin2.png","null","",NA,NA,NA,NA,""
"image-keyboard-response",248,219155,"0.0-3.79-0.79","rypca8e1k5pabqe",379,"60.csv","","2.6000000089406967","resources/trios/L1T4A1.jpg","38","restless",0.3,0.5,0.3,0.0913445223519167,"true"
"image-keyboard-response",249,219570,"0.0-3.79-1.79","rypca8e1k5pabqe",379,"60.csv","","null","resources/maskTrios/BT4B.jpg","null","",NA,NA,NA,NA,""
"image-keyboard-response",250,220774,"0.0-3.79-2.79","rypca8e1k5pabqe",379,"60.csv","","null","resources/images/coin2.png","null","",NA,NA,NA,NA,""
"image-keyboard-response",251,220901,"0.0-3.80-0.80","rypca8e1k5pabqe",379,"60.csv","","125.59999999403954","resources/trios/L1T4A1.jpg","37","restless",0.3,0.5,0.3,0.89426347779868,"false"
"image-keyboard-response",252,221314,"0.0-3.80-1.80","rypca8e1k5pabqe",379,"60.csv","","null","resources/maskTrios/L1BB.jpg","null","",NA,NA,NA,NA,""
"image-keyboard-response",253,222516,"0.0-3.80-2.80","rypca8e1k5pabqe",379,"60.csv","","null","resources/images/fishbone.png","null","",NA,NA,NA,NA,""
"image-keyboard-response",254,222581,"0.0-3.81-0.81","rypca8e1k5pabqe",379,"60.csv","","64.20000000298023","resources/trios/L2T4A1.jpg","38","restless",0.4,0.5,0.3,0.0151131507579561,"true"
"image-keyboard-response",255,222994,"0.0-3.81-1.81","rypca8e1k5pabqe",379,"60.csv","","null","resources/maskTrios/BT4B.jpg","null","",NA,NA,NA,NA,""
"image-keyboard-response",256,224196,"0.0-3.81-2.81","rypca8e1k5pabqe",379,"60.csv","","null","resources/images/coin2.png","null","",NA,NA,NA,NA,""
"image-keyboard-response",257,224300,"0.0-3.82-0.82","rypca8e1k5pabqe",379,"60.csv","","102.30000001192093","resources/trios/L2T4A3.jpg","37","restless",0.4,0.5,0.3,0.774207509086988,"false"
"image-keyboard-response",258,224705,"0.0-3.82-1.82","rypca8e1k5pabqe",379,"60.csv","","null","resources/maskTrios/L2BB.jpg","null","",NA,NA,NA,NA,""
"image-keyboard-response",259,225908,"0.0-3.82-2.82","rypca8e1k5pabqe",379,"60.csv","","null","resources/images/fishbone.png","null","",NA,NA,NA,NA,""
"image-keyboard-response",260,226067,"0.0-3.83-0.83","rypca8e1k5pabqe",379,"60.csv","","157.5","resources/trios/L1T1A1.jpg","38","restless",0.4,0.5,0.3,0.67217303013791,"false"
"image-keyboard-response",261,226469,"0.0-3.83-1.83","rypca8e1k5pabqe",379,"60.csv","","null","resources/maskTrios/BT1B.jpg","null","",NA,NA,NA,NA,""
"image-keyboard-response",262,227684,"0.0-3.83-2.83","rypca8e1k5pabqe",379,"60.csv","","null","resources/images/fishbone.png","null","",NA,NA,NA,NA,""
"image-keyboard-response",263,227809,"0.0-3.84-0.84","rypca8e1k5pabqe",379,"60.csv","","124.20000000298023","resources/trios/L1T4A3.jpg","39","restless",0.4,0.5,0.3,0.706220448929253,"false"
"image-keyboard-response",264,228224,"0.0-3.84-1.84","rypca8e1k5pabqe",379,"60.csv","","null","resources/maskTrios/BBA3.jpg","null","",NA,NA,NA,NA,""
"image-keyboard-response",265,229428,"0.0-3.84-2.84","rypca8e1k5pabqe",379,"60.csv","","null","resources/images/fishbone.png","null","",NA,NA,NA,NA,""
"image-keyboard-response",266,229509,"0.0-3.85-0.85","rypca8e1k5pabqe",379,"60.csv","","80","resources/trios/L2T4A1.jpg","38","restless",0.4,0.5,0.3,0.780768375927944,"false"
"image-keyboard-response",267,229920,"0.0-3.85-1.85","rypca8e1k5pabqe",379,"60.csv","","null","resources/maskTrios/BT4B.jpg","null","",NA,NA,NA,NA,""
"image-keyboard-response",268,231123,"0.0-3.85-2.85","rypca8e1k5pabqe",379,"60.csv","","null","resources/images/fishbone.png","null","",NA,NA,NA,NA,""
"image-keyboard-response",269,231526,"0.0-3.86-0.86","rypca8e1k5pabqe",379,"60.csv","","402.09999999403954","resources/trios/L2T1A3.jpg","37","restless",0.4,0.5,0.3,0.743175232621293,"false"
"image-keyboard-response",270,231939,"0.0-3.86-1.86","rypca8e1k5pabqe",379,"60.csv","","null","resources/maskTrios/L2BB.jpg","null","",NA,NA,NA,NA,""
"image-keyboard-response",271,233143,"0.0-3.86-2.86","rypca8e1k5pabqe",379,"60.csv","","null","resources/images/fishbone.png","null","",NA,NA,NA,NA,""
"image-keyboard-response",272,233454,"0.0-3.87-0.87","rypca8e1k5pabqe",379,"60.csv","","309.70000000298023","resources/trios/L2T1A1.jpg","38","restless",0.4,0.5,0.3,0.926336491268701,"false"
"image-keyboard-response",273,233866,"0.0-3.87-1.87","rypca8e1k5pabqe",379,"60.csv","","null","resources/maskTrios/BT1B.jpg","null","",NA,NA,NA,NA,""
"image-keyboard-response",274,235082,"0.0-3.87-2.87","rypca8e1k5pabqe",379,"60.csv","","null","resources/images/fishbone.png","null","",NA,NA,NA,NA,""
"image-keyboard-response",275,235391,"0.0-3.88-0.88","rypca8e1k5pabqe",379,"60.csv","","307.30000001192093","resources/trios/L2T1A3.jpg","39","restless",0.4,0.5,0.3,0.654961770524438,"false"
"image-keyboard-response",276,235806,"0.0-3.88-1.88","rypca8e1k5pabqe",379,"60.csv","","null","resources/maskTrios/BBA3.jpg","null","",NA,NA,NA,NA,""
"image-keyboard-response",277,237010,"0.0-3.88-2.88","rypca8e1k5pabqe",379,"60.csv","","null","resources/images/fishbone.png","null","",NA,NA,NA,NA,""
"image-keyboard-response",278,237278,"0.0-3.89-0.89","rypca8e1k5pabqe",379,"60.csv","","266.29999999701977","resources/trios/L1T4A1.jpg","38","restless",0.4,0.5,0.3,0.563559779474901,"false"
"image-keyboard-response",279,237685,"0.0-3.89-1.89","rypca8e1k5pabqe",379,"60.csv","","null","resources/maskTrios/BT4B.jpg","null","",NA,NA,NA,NA,""
"image-keyboard-response",280,238891,"0.0-3.89-2.89","rypca8e1k5pabqe",379,"60.csv","","null","resources/images/fishbone.png","null","",NA,NA,NA,NA,""
"image-keyboard-response",281,238966,"0.0-3.90-0.90","rypca8e1k5pabqe",379,"60.csv","","73.90000000596046","resources/trios/L1T4A1.jpg","37","restless",0.4,0.5,0.3,0.731194388003895,"false"
"image-keyboard-response",282,239375,"0.0-3.90-1.90","rypca8e1k5pabqe",379,"60.csv","","null","resources/maskTrios/L1BB.jpg","null","",NA,NA,NA,NA,""
"image-keyboard-response",283,240577,"0.0-3.90-2.90","rypca8e1k5pabqe",379,"60.csv","","null","resources/images/fishbone.png","null","",NA,NA,NA,NA,""
"image-keyboard-response",284,240902,"0.0-3.91-0.91","rypca8e1k5pabqe",379,"60.csv","","323.59999999403954","resources/trios/L2T1A3.jpg","39","restless",0.4,0.5,0.3,0.529937259530336,"false"
"image-keyboard-response",285,241317,"0.0-3.91-1.91","rypca8e1k5pabqe",379,"60.csv","","null","resources/maskTrios/BBA3.jpg","null","",NA,NA,NA,NA,""
"image-keyboard-response",286,242522,"0.0-3.91-2.91","rypca8e1k5pabqe",379,"60.csv","","null","resources/images/fishbone.png","null","",NA,NA,NA,NA,""
"image-keyboard-response",287,242807,"0.0-3.92-0.92","rypca8e1k5pabqe",379,"60.csv","","283.59999999403954","resources/trios/L2T1A3.jpg","39","restless",0.5,0.5,0.3,0.250327468423594,"true"
"image-keyboard-response",288,243216,"0.0-3.92-1.92","rypca8e1k5pabqe",379,"60.csv","","null","resources/maskTrios/BBA3.jpg","null","",NA,NA,NA,NA,""
"image-keyboard-response",289,244419,"0.0-3.92-2.92","rypca8e1k5pabqe",379,"60.csv","","null","resources/images/coin2.png","null","",NA,NA,NA,NA,""
"image-keyboard-response",290,244822,"0.0-3.93-0.93","rypca8e1k5pabqe",379,"60.csv","","402.3999999910593","resources/trios/L2T1A1.jpg","38","restless",0.5,0.5,0.3,0.74031271036624,"false"
"image-keyboard-response",291,245236,"0.0-3.93-1.93","rypca8e1k5pabqe",379,"60.csv","","null","resources/maskTrios/BT1B.jpg","null","",NA,NA,NA,NA,""
"image-keyboard-response",292,246442,"0.0-3.93-2.93","rypca8e1k5pabqe",379,"60.csv","","null","resources/images/fishbone.png","null","",NA,NA,NA,NA,""
"image-keyboard-response",293,246838,"0.0-3.94-0.94","rypca8e1k5pabqe",379,"60.csv","","395.40000000596046","resources/trios/L2T4A3.jpg","37","restless",0.5,0.5,0.3,0.520751803086217,"false"
"image-keyboard-response",294,247247,"0.0-3.94-1.94","rypca8e1k5pabqe",379,"60.csv","","null","resources/maskTrios/L2BB.jpg","null","",NA,NA,NA,NA,""
"image-keyboard-response",295,248452,"0.0-3.94-2.94","rypca8e1k5pabqe",379,"60.csv","","null","resources/images/fishbone.png","null","",NA,NA,NA,NA,""
"image-keyboard-response",296,248807,"0.0-3.95-0.95","rypca8e1k5pabqe",379,"60.csv","","353.5","resources/trios/L2T4A1.jpg","37","restless",0.5,0.5,0.3,0.535402983125994,"false"
"image-keyboard-response",297,249209,"0.0-3.95-1.95","rypca8e1k5pabqe",379,"60.csv","","null","resources/maskTrios/L2BB.jpg","null","",NA,NA,NA,NA,""
"image-keyboard-response",298,250414,"0.0-3.95-2.95","rypca8e1k5pabqe",379,"60.csv","","null","resources/images/fishbone.png","null","",NA,NA,NA,NA,""
"image-keyboard-response",299,250571,"0.0-3.96-0.96","rypca8e1k5pabqe",379,"60.csv","","154.8999999910593","resources/trios/L2T1A1.jpg","37","restless",0.5,0.5,0.3,0.240772884236587,"true"
"image-keyboard-response",300,250986,"0.0-3.96-1.96","rypca8e1k5pabqe",379,"60.csv","","null","resources/maskTrios/L2BB.jpg","null","",NA,NA,NA,NA,""
"image-keyboard-response",301,252201,"0.0-3.96-2.96","rypca8e1k5pabqe",379,"60.csv","","null","resources/images/coin2.png","null","",NA,NA,NA,NA,""
"image-keyboard-response",302,252591,"0.0-3.97-0.97","rypca8e1k5pabqe",379,"60.csv","","387.59999999403954","resources/trios/L2T4A3.jpg","38","restless",0.5,0.5,0.3,0.820349027915657,"false"
"image-keyboard-response",303,253004,"0.0-3.97-1.97","rypca8e1k5pabqe",379,"60.csv","","null","resources/maskTrios/BT4B.jpg","null","",NA,NA,NA,NA,""
"image-keyboard-response",304,254207,"0.0-3.97-2.97","rypca8e1k5pabqe",379,"60.csv","","null","resources/images/fishbone.png","null","",NA,NA,NA,NA,""
"image-keyboard-response",305,254342,"0.0-3.98-0.98","rypca8e1k5pabqe",379,"60.csv","","134.40000000596046","resources/trios/L2T4A3.jpg","37","restless",0.6,0.5,0.3,0.462686204375651,"true"
"image-keyboard-response",306,254748,"0.0-3.98-1.98","rypca8e1k5pabqe",379,"60.csv","","null","resources/maskTrios/L2BB.jpg","null","",NA,NA,NA,NA,""
"image-keyboard-response",307,255953,"0.0-3.98-2.98","rypca8e1k5pabqe",379,"60.csv","","null","resources/images/coin2.png","null","",NA,NA,NA,NA,""
"image-keyboard-response",308,256556,"0.0-3.99-0.99","rypca8e1k5pabqe",379,"60.csv","","600.8999999910593","resources/trios/L2T4A3.jpg","39","restless",0.6,0.5,0.2,0.308192092123488,"false"
"image-keyboard-response",309,256959,"0.0-3.99-1.99","rypca8e1k5pabqe",379,"60.csv","","null","resources/maskTrios/BBA3.jpg","null","",NA,NA,NA,NA,""
"image-keyboard-response",310,258165,"0.0-3.99-2.99","rypca8e1k5pabqe",379,"60.csv","","null","resources/images/fishbone.png","null","",NA,NA,NA,NA,""
"image-keyboard-response",311,258610,"0.0-3.100-0.100","rypca8e1k5pabqe",379,"60.csv","","444","resources/trios/L2T4A3.jpg","38","restless",0.6,0.4,0.2,0.228438730813525,"true"
"image-keyboard-response",312,259018,"0.0-3.100-1.100","rypca8e1k5pabqe",379,"60.csv","","null","resources/maskTrios/BT4B.jpg","null","",NA,NA,NA,NA,""
"image-keyboard-response",313,260221,"0.0-3.100-2.100","rypca8e1k5pabqe",379,"60.csv","","null","resources/images/coin2.png","null","",NA,NA,NA,NA,""
"image-keyboard-response",314,260755,"0.0-3.101-0.101","rypca8e1k5pabqe",379,"60.csv","","532.0999999940395","resources/trios/L2T4A3.jpg","37","restless",0.6,0.4,0.2,0.771434843428012,"false"
"image-keyboard-response",315,261167,"0.0-3.101-1.101","rypca8e1k5pabqe",379,"60.csv","","null","resources/maskTrios/L2BB.jpg","null","",NA,NA,NA,NA,""
"image-keyboard-response",316,262371,"0.0-3.101-2.101","rypca8e1k5pabqe",379,"60.csv","","null","resources/images/fishbone.png","null","",NA,NA,NA,NA,""
"image-keyboard-response",317,262898,"0.0-3.102-0.102","rypca8e1k5pabqe",379,"60.csv","","525.5","resources/trios/L2T4A3.jpg","38","restless",0.6,0.4,0.2,0.0868776265892124,"true"
"image-keyboard-response",318,263300,"0.0-3.102-1.102","rypca8e1k5pabqe",379,"60.csv","","null","resources/maskTrios/BT4B.jpg","null","",NA,NA,NA,NA,""
"image-keyboard-response",319,264516,"0.0-3.102-2.102","rypca8e1k5pabqe",379,"60.csv","","null","resources/images/coin2.png","null","",NA,NA,NA,NA,""
"image-keyboard-response",320,264707,"0.0-3.103-0.103","rypca8e1k5pabqe",379,"60.csv","","189.6000000089407","resources/trios/L1T1A1.jpg","38","restless",0.6,0.5,0.2,0.8105343180621,"false"
"image-keyboard-response",321,265119,"0.0-3.103-1.103","rypca8e1k5pabqe",379,"60.csv","","null","resources/maskTrios/BT1B.jpg","null","",NA,NA,NA,NA,""
"image-keyboard-response",322,266323,"0.0-3.103-2.103","rypca8e1k5pabqe",379,"60.csv","","null","resources/images/fishbone.png","null","",NA,NA,NA,NA,""
"image-keyboard-response",323,267609,"0.0-3.104-0.104","rypca8e1k5pabqe",379,"60.csv","","1284.7999999970198","resources/trios/L1T4A3.jpg","39","restless",0.6,0.5,0.2,0.597589527131505,"false"
"image-keyboard-response",324,268025,"0.0-3.104-1.104","rypca8e1k5pabqe",379,"60.csv","","null","resources/maskTrios/BBA3.jpg","null","",NA,NA,NA,NA,""
"image-keyboard-response",325,269228,"0.0-3.104-2.104","rypca8e1k5pabqe",379,"60.csv","","null","resources/images/fishbone.png","null","",NA,NA,NA,NA,""
"image-keyboard-response",326,269824,"0.0-3.105-0.105","rypca8e1k5pabqe",379,"60.csv","","595.1000000089407","resources/trios/L1T1A3.jpg","39","restless",0.6,0.5,0.1,0.561941784818155,"false"
"image-keyboard-response",327,270231,"0.0-3.105-1.105","rypca8e1k5pabqe",379,"60.csv","","null","resources/maskTrios/BBA3.jpg","null","",NA,NA,NA,NA,""
"image-keyboard-response",328,271436,"0.0-3.105-2.105","rypca8e1k5pabqe",379,"60.csv","","null","resources/images/fishbone.png","null","",NA,NA,NA,NA,""
"image-keyboard-response",329,271757,"0.0-3.106-0.106","rypca8e1k5pabqe",379,"60.csv","","320.59999999403954","resources/trios/L2T4A1.jpg","37","restless",0.6,0.5,0.1,0.328009064055791,"true"
"image-keyboard-response",330,272161,"0.0-3.106-1.106","rypca8e1k5pabqe",379,"60.csv","","null","resources/maskTrios/L2BB.jpg","null","",NA,NA,NA,NA,""
"image-keyboard-response",331,273363,"0.0-3.106-2.106","rypca8e1k5pabqe",379,"60.csv","","null","resources/images/coin2.png","null","",NA,NA,NA,NA,""
"image-keyboard-response",332,273991,"0.0-3.107-0.107","rypca8e1k5pabqe",379,"60.csv","","626","resources/trios/L1T1A3.jpg","37","restless",0.6,0.5,0.2,0.706013646052359,"false"
"image-keyboard-response",333,274399,"0.0-3.107-1.107","rypca8e1k5pabqe",379,"60.csv","","null","resources/maskTrios/L1BB.jpg","null","",NA,NA,NA,NA,""
"image-keyboard-response",334,275614,"0.0-3.107-2.107","rypca8e1k5pabqe",379,"60.csv","","null","resources/images/fishbone.png","null","",NA,NA,NA,NA,""
"image-keyboard-response",335,275616,"0.0-3.108-0.108","rypca8e1k5pabqe",379,"60.csv","","0.19999998807907104","resources/trios/L1T1A1.jpg","38","restless",0.6,0.5,0.3,0.36093539793262,"true"
"image-keyboard-response",336,276030,"0.0-3.108-1.108","rypca8e1k5pabqe",379,"60.csv","","null","resources/maskTrios/BT1B.jpg","null","",NA,NA,NA,NA,""
"image-keyboard-response",337,277232,"0.0-3.108-2.108","rypca8e1k5pabqe",379,"60.csv","","null","resources/images/coin2.png","null","",NA,NA,NA,NA,""
"image-keyboard-response",338,277860,"0.0-3.109-0.109","rypca8e1k5pabqe",379,"60.csv","","626.5","resources/trios/L2T4A1.jpg","39","restless",0.6,0.6,0.3,0.185551736461516,"true"
"image-keyboard-response",339,278268,"0.0-3.109-1.109","rypca8e1k5pabqe",379,"60.csv","","null","resources/maskTrios/BBA1.jpg","null","",NA,NA,NA,NA,""
"image-keyboard-response",340,279478,"0.0-3.109-2.109","rypca8e1k5pabqe",379,"60.csv","","null","resources/images/coin2.png","null","",NA,NA,NA,NA,""
"image-keyboard-response",341,280186,"0.0-3.110-0.110","rypca8e1k5pabqe",379,"60.csv","","706.7999999970198","resources/trios/L1T4A3.jpg","38","restless",0.6,0.5,0.3,0.214376457648565,"true"
"image-keyboard-response",342,280590,"0.0-3.110-1.110","rypca8e1k5pabqe",379,"60.csv","","null","resources/maskTrios/BT4B.jpg","null","",NA,NA,NA,NA,""
"image-keyboard-response",343,281797,"0.0-3.110-2.110","rypca8e1k5pabqe",379,"60.csv","","null","resources/images/coin2.png","null","",NA,NA,NA,NA,""
"image-keyboard-response",344,282371,"0.0-3.111-0.111","rypca8e1k5pabqe",379,"60.csv","","573.0999999940395","resources/trios/L2T4A3.jpg","37","restless",0.6,0.5,0.3,0.751168895775493,"false"
"image-keyboard-response",345,282781,"0.0-3.111-1.111","rypca8e1k5pabqe",379,"60.csv","","null","resources/maskTrios/L2BB.jpg","null","",NA,NA,NA,NA,""
"image-keyboard-response",346,283988,"0.0-3.111-2.111","rypca8e1k5pabqe",379,"60.csv","","null","resources/images/fishbone.png","null","",NA,NA,NA,NA,""
"image-keyboard-response",347,284521,"0.0-3.112-0.112","rypca8e1k5pabqe",379,"60.csv","","532.2000000029802","resources/trios/L2T1A3.jpg","38","restless",0.6,0.5,0.3,0.718236527914021,"false"
"image-keyboard-response",348,284930,"0.0-3.112-1.112","rypca8e1k5pabqe",379,"60.csv","","null","resources/maskTrios/BT1B.jpg","null","",NA,NA,NA,NA,""
"image-keyboard-response",349,286133,"0.0-3.112-2.112","rypca8e1k5pabqe",379,"60.csv","","null","resources/images/fishbone.png","null","",NA,NA,NA,NA,""
"image-keyboard-response",350,286273,"0.0-3.113-0.113","rypca8e1k5pabqe",379,"60.csv","","138.90000000596046","resources/trios/L2T1A3.jpg","38","restless",0.5,0.5,0.3,0.700456596123126,"false"
"image-keyboard-response",351,286675,"0.0-3.113-1.113","rypca8e1k5pabqe",379,"60.csv","","null","resources/maskTrios/BT1B.jpg","null","",NA,NA,NA,NA,""
"image-keyboard-response",352,287882,"0.0-3.113-2.113","rypca8e1k5pabqe",379,"60.csv","","null","resources/images/fishbone.png","null","",NA,NA,NA,NA,""
"image-keyboard-response",353,287916,"0.0-3.114-0.114","rypca8e1k5pabqe",379,"60.csv","","32.400000005960464","resources/trios/L1T4A1.jpg","38","restless",0.5,0.6,0.3,0.611336590800686,"false"
"image-keyboard-response",354,288328,"0.0-3.114-1.114","rypca8e1k5pabqe",379,"60.csv","","null","resources/maskTrios/BT4B.jpg","null","",NA,NA,NA,NA,""
"image-keyboard-response",355,289537,"0.0-3.114-2.114","rypca8e1k5pabqe",379,"60.csv","","null","resources/images/fishbone.png","null","",NA,NA,NA,NA,""
"image-keyboard-response",356,289840,"0.0-3.115-0.115","rypca8e1k5pabqe",379,"60.csv","","302.40000000596046","resources/trios/L2T1A1.jpg","38","restless",0.5,0.6,0.3,0.455081707935022,"true"
"image-keyboard-response",357,290249,"0.0-3.115-1.115","rypca8e1k5pabqe",379,"60.csv","","null","resources/maskTrios/BT1B.jpg","null","",NA,NA,NA,NA,""
"image-keyboard-response",358,291464,"0.0-3.115-2.115","rypca8e1k5pabqe",379,"60.csv","","null","resources/images/coin2.png","null","",NA,NA,NA,NA,""
"image-keyboard-response",359,291957,"0.0-3.116-0.116","rypca8e1k5pabqe",379,"60.csv","","491.5","resources/trios/L2T4A3.jpg","38","restless",0.5,0.6,0.3,0.871258408399258,"false"
"image-keyboard-response",360,292373,"0.0-3.116-1.116","rypca8e1k5pabqe",379,"60.csv","","null","resources/maskTrios/BT4B.jpg","null","",NA,NA,NA,NA,""
"image-keyboard-response",361,293575,"0.0-3.116-2.116","rypca8e1k5pabqe",379,"60.csv","","null","resources/images/fishbone.png","null","",NA,NA,NA,NA,""
"image-keyboard-response",362,293703,"0.0-3.117-0.117","rypca8e1k5pabqe",379,"60.csv","","127","resources/trios/L2T4A1.jpg","39","restless",0.5,0.6,0.3,0.269763370777954,"true"
"image-keyboard-response",363,294116,"0.0-3.117-1.117","rypca8e1k5pabqe",379,"60.csv","","null","resources/maskTrios/BBA1.jpg","null","",NA,NA,NA,NA,""
"image-keyboard-response",364,295322,"0.0-3.117-2.117","rypca8e1k5pabqe",379,"60.csv","","null","resources/images/coin2.png","null","",NA,NA,NA,NA,""
"image-keyboard-response",365,295758,"0.0-3.118-0.118","rypca8e1k5pabqe",379,"60.csv","","434","resources/trios/L2T1A3.jpg","39","restless",0.5,0.6,0.3,0.413101072584084,"false"
"image-keyboard-response",366,296171,"0.0-3.118-1.118","rypca8e1k5pabqe",379,"60.csv","","null","resources/maskTrios/BBA3.jpg","null","",NA,NA,NA,NA,""
"image-keyboard-response",367,297374,"0.0-3.118-2.118","rypca8e1k5pabqe",379,"60.csv","","null","resources/images/fishbone.png","null","",NA,NA,NA,NA,""
"image-keyboard-response",368,297429,"0.0-3.119-0.119","rypca8e1k5pabqe",379,"60.csv","","53.19999998807907","resources/trios/L2T4A3.jpg","39","restless",0.5,0.7,0.3,0.298808540279025,"true"
"image-keyboard-response",369,297838,"0.0-3.119-1.119","rypca8e1k5pabqe",379,"60.csv","","null","resources/maskTrios/BBA3.jpg","null","",NA,NA,NA,NA,""
"image-keyboard-response",370,299041,"0.0-3.119-2.119","rypca8e1k5pabqe",379,"60.csv","","null","resources/images/coin2.png","null","",NA,NA,NA,NA,""
"image-keyboard-response",371,299405,"0.0-3.120-0.120","rypca8e1k5pabqe",379,"60.csv","","362.69999998807907","resources/trios/L2T1A3.jpg","39","restless",0.5,0.7,0.2,0.341055733830208,"false"
"image-keyboard-response",372,299814,"0.0-3.120-1.120","rypca8e1k5pabqe",379,"60.csv","","null","resources/maskTrios/BBA3.jpg","null","",NA,NA,NA,NA,""
"image-keyboard-response",373,301016,"0.0-3.120-2.120","rypca8e1k5pabqe",379,"60.csv","","null","resources/images/fishbone.png","null","",NA,NA,NA,NA,""
"image-keyboard-response",374,301449,"0.0-3.121-0.121","rypca8e1k5pabqe",379,"60.csv","","430.59999999403954","resources/trios/L1T1A1.jpg","37","restless",0.5,0.7,0.2,0.251139566904898,"true"
"image-keyboard-response",375,301865,"0.0-3.121-1.121","rypca8e1k5pabqe",379,"60.csv","","null","resources/maskTrios/L1BB.jpg","null","",NA,NA,NA,NA,""
"image-keyboard-response",376,303069,"0.0-3.121-2.121","rypca8e1k5pabqe",379,"60.csv","","null","resources/images/coin2.png","null","",NA,NA,NA,NA,""
"image-keyboard-response",377,303394,"0.0-3.122-0.122","rypca8e1k5pabqe",379,"60.csv","","323.29999999701977","resources/trios/L1T1A1.jpg","37","restless",0.5,0.7,0.2,0.600368701702458,"false"
"image-keyboard-response",378,303810,"0.0-3.122-1.122","rypca8e1k5pabqe",379,"60.csv","","null","resources/maskTrios/L1BB.jpg","null","",NA,NA,NA,NA,""
"image-keyboard-response",379,305015,"0.0-3.122-2.122","rypca8e1k5pabqe",379,"60.csv","","null","resources/images/fishbone.png","null","",NA,NA,NA,NA,""
"image-keyboard-response",380,305277,"0.0-3.123-0.123","rypca8e1k5pabqe",379,"60.csv","","260.40000000596046","resources/trios/L2T1A3.jpg","38","restless",0.5,0.7,0.2,0.626199947522303,"true"
"image-keyboard-response",381,305680,"0.0-3.123-1.123","rypca8e1k5pabqe",379,"60.csv","","null","resources/maskTrios/BT1B.jpg","null","",NA,NA,NA,NA,""
"image-keyboard-response",382,306884,"0.0-3.123-2.123","rypca8e1k5pabqe",379,"60.csv","","null","resources/images/coin2.png","null","",NA,NA,NA,NA,""
"image-keyboard-response",383,306974,"0.0-3.124-0.124","rypca8e1k5pabqe",379,"60.csv","","88.1000000089407","resources/trios/L2T1A3.jpg","38","restless",0.5,0.7,0.2,0.112508106528833,"true"
"image-keyboard-response",384,307377,"0.0-3.124-1.124","rypca8e1k5pabqe",379,"60.csv","","null","resources/maskTrios/BT1B.jpg","null","",NA,NA,NA,NA,""
"image-keyboard-response",385,308584,"0.0-3.124-2.124","rypca8e1k5pabqe",379,"60.csv","","null","resources/images/coin2.png","null","",NA,NA,NA,NA,""
"image-keyboard-response",386,308690,"0.0-3.125-0.125","rypca8e1k5pabqe",379,"60.csv","","105.20000000298023","resources/trios/L2T4A3.jpg","38","restless",0.5,0.7,0.2,0.21893521961058,"true"
"image-keyboard-response",387,309094,"0.0-3.125-1.125","rypca8e1k5pabqe",379,"60.csv","","null","resources/maskTrios/BT4B.jpg","null","",NA,NA,NA,NA,""
"image-keyboard-response",388,310300,"0.0-3.125-2.125","rypca8e1k5pabqe",379,"60.csv","","null","resources/images/coin2.png","null","",NA,NA,NA,NA,""
"image-keyboard-response",389,310405,"0.0-3.126-0.126","rypca8e1k5pabqe",379,"60.csv","","104.1000000089407","resources/trios/L1T4A1.jpg","38","restless",0.5,0.7,0.2,0.711819138735353,"false"
"image-keyboard-response",390,310809,"0.0-3.126-1.126","rypca8e1k5pabqe",379,"60.csv","","null","resources/maskTrios/BT4B.jpg","null","",NA,NA,NA,NA,""
"image-keyboard-response",391,312016,"0.0-3.126-2.126","rypca8e1k5pabqe",379,"60.csv","","null","resources/images/fishbone.png","null","",NA,NA,NA,NA,""
"image-keyboard-response",392,312050,"0.0-3.127-0.127","rypca8e1k5pabqe",379,"60.csv","","32","resources/trios/L1T4A3.jpg","38","restless",0.5,0.7,0.2,0.566384099443257,"true"
"image-keyboard-response",393,312464,"0.0-3.127-1.127","rypca8e1k5pabqe",379,"60.csv","","null","resources/maskTrios/BT4B.jpg","null","",NA,NA,NA,NA,""
"image-keyboard-response",394,313680,"0.0-3.127-2.127","rypca8e1k5pabqe",379,"60.csv","","null","resources/images/coin2.png","null","",NA,NA,NA,NA,""
"image-keyboard-response",395,314042,"0.0-3.128-0.128","rypca8e1k5pabqe",379,"60.csv","","360.79999999701977","resources/trios/L2T1A1.jpg","39","restless",0.5,0.7,0.2,0.343151592638988,"false"
"image-keyboard-response",396,314450,"0.0-3.128-1.128","rypca8e1k5pabqe",379,"60.csv","","null","resources/maskTrios/BBA1.jpg","null","",NA,NA,NA,NA,""
"image-keyboard-response",397,315652,"0.0-3.128-2.128","rypca8e1k5pabqe",379,"60.csv","","null","resources/images/fishbone.png","null","",NA,NA,NA,NA,""
"image-keyboard-response",398,315705,"0.0-3.129-0.129","rypca8e1k5pabqe",379,"60.csv","","52.400000005960464","resources/trios/L1T4A1.jpg","39","restless",0.5,0.7,0.2,0.69524953642148,"false"
"image-keyboard-response",399,316115,"0.0-3.129-1.129","rypca8e1k5pabqe",379,"60.csv","","null","resources/maskTrios/BBA1.jpg","null","",NA,NA,NA,NA,""
"image-keyboard-response",400,317319,"0.0-3.129-2.129","rypca8e1k5pabqe",379,"60.csv","","null","resources/images/fishbone.png","null","",NA,NA,NA,NA,""
"image-keyboard-response",401,317433,"0.0-3.130-0.130","rypca8e1k5pabqe",379,"60.csv","","112.69999998807907","resources/trios/L1T1A1.jpg","39","restless",0.4,0.6,0.2,0.780205380402831,"false"
"image-keyboard-response",402,317848,"0.0-3.130-1.130","rypca8e1k5pabqe",379,"60.csv","","null","resources/maskTrios/BBA1.jpg","null","",NA,NA,NA,NA,""
"image-keyboard-response",403,319064,"0.0-3.130-2.130","rypca8e1k5pabqe",379,"60.csv","","null","resources/images/fishbone.png","null","",NA,NA,NA,NA,""
"image-keyboard-response",404,319257,"0.0-3.131-0.131","rypca8e1k5pabqe",379,"60.csv","","192.09999999403954","resources/trios/L1T4A3.jpg","39","restless",0.4,0.6,0.2,0.412668664306457,"false"
"image-keyboard-response",405,319664,"0.0-3.131-1.131","rypca8e1k5pabqe",379,"60.csv","","null","resources/maskTrios/BBA3.jpg","null","",NA,NA,NA,NA,""
"image-keyboard-response",406,320866,"0.0-3.131-2.131","rypca8e1k5pabqe",379,"60.csv","","null","resources/images/fishbone.png","null","",NA,NA,NA,NA,""
"image-keyboard-response",407,323388,"0.0-3.132-0.132","rypca8e1k5pabqe",379,"60.csv","","2521.3999999910593","resources/trios/L2T4A3.jpg","37","restless",0.4,0.6,0.2,0.260625562377215,"true"
"image-keyboard-response",408,323802,"0.0-3.132-1.132","rypca8e1k5pabqe",379,"60.csv","","null","resources/maskTrios/L2BB.jpg","null","",NA,NA,NA,NA,""
"image-keyboard-response",409,325008,"0.0-3.132-2.132","rypca8e1k5pabqe",379,"60.csv","","null","resources/images/coin2.png","null","",NA,NA,NA,NA,""
"image-keyboard-response",410,325079,"0.0-3.133-0.133","rypca8e1k5pabqe",379,"60.csv","","69.29999999701977","resources/trios/L1T4A1.jpg","38","restless",0.4,0.6,0.2,0.111860920310751,"true"
"image-keyboard-response",411,325485,"0.0-3.133-1.133","rypca8e1k5pabqe",379,"60.csv","","null","resources/maskTrios/BT4B.jpg","null","",NA,NA,NA,NA,""
"image-keyboard-response",412,326687,"0.0-3.133-2.133","rypca8e1k5pabqe",379,"60.csv","","null","resources/images/coin2.png","null","",NA,NA,NA,NA,""
"image-keyboard-response",413,326857,"0.0-3.134-0.134","rypca8e1k5pabqe",379,"60.csv","","168.90000000596046","resources/trios/L2T4A3.jpg","37","restless",0.5,0.6,0.2,0.389836784018117,"true"
"image-keyboard-response",414,327273,"0.0-3.134-1.134","rypca8e1k5pabqe",379,"60.csv","","null","resources/maskTrios/L2BB.jpg","null","",NA,NA,NA,NA,""
"image-keyboard-response",415,328477,"0.0-3.134-2.134","rypca8e1k5pabqe",379,"60.csv","","null","resources/images/coin2.png","null","",NA,NA,NA,NA,""
"image-keyboard-response",416,328710,"0.0-3.135-0.135","rypca8e1k5pabqe",379,"60.csv","","232.09999999403954","resources/trios/L2T1A1.jpg","38","restless",0.5,0.6,0.2,0.816785134148433,"false"
"image-keyboard-response",417,329125,"0.0-3.135-1.135","rypca8e1k5pabqe",379,"60.csv","","null","resources/maskTrios/BT1B.jpg","null","",NA,NA,NA,NA,""
"image-keyboard-response",418,330327,"0.0-3.135-2.135","rypca8e1k5pabqe",379,"60.csv","","null","resources/images/fishbone.png","null","",NA,NA,NA,NA,""
"image-keyboard-response",419,330543,"0.0-3.136-0.136","rypca8e1k5pabqe",379,"60.csv","","214.40000000596046","resources/trios/L2T4A1.jpg","37","restless",0.5,0.6,0.2,0.593956939016589,"false"
"image-keyboard-response",420,330946,"0.0-3.136-1.136","rypca8e1k5pabqe",379,"60.csv","","null","resources/maskTrios/L2BB.jpg","null","",NA,NA,NA,NA,""
"image-keyboard-response",421,332150,"0.0-3.136-2.136","rypca8e1k5pabqe",379,"60.csv","","null","resources/images/fishbone.png","null","",NA,NA,NA,NA,""
"image-keyboard-response",422,332308,"0.0-3.137-0.137","rypca8e1k5pabqe",379,"60.csv","","157.19999998807907","resources/trios/L1T1A1.jpg","39","restless",0.5,0.5,0.2,0.289925772782276,"false"
"image-keyboard-response",423,332721,"0.0-3.137-1.137","rypca8e1k5pabqe",379,"60.csv","","null","resources/maskTrios/BBA1.jpg","null","",NA,NA,NA,NA,""
"image-keyboard-response",424,333924,"0.0-3.137-2.137","rypca8e1k5pabqe",379,"60.csv","","null","resources/images/fishbone.png","null","",NA,NA,NA,NA,""
"image-keyboard-response",425,334148,"0.0-3.138-0.138","rypca8e1k5pabqe",379,"60.csv","","222.30000001192093","resources/trios/L2T4A1.jpg","39","restless",0.4,0.5,0.2,0.221111872712372,"false"
"image-keyboard-response",426,334558,"0.0-3.138-1.138","rypca8e1k5pabqe",379,"60.csv","","null","resources/maskTrios/BBA1.jpg","null","",NA,NA,NA,NA,""
"image-keyboard-response",427,335773,"0.0-3.138-2.138","rypca8e1k5pabqe",379,"60.csv","","null","resources/images/fishbone.png","null","",NA,NA,NA,NA,""
"image-keyboard-response",428,335955,"0.0-3.139-0.139","rypca8e1k5pabqe",379,"60.csv","","180.6000000089407","resources/trios/L2T1A1.jpg","38","restless",0.4,0.5,0.2,0.12483761469462,"true"
"image-keyboard-response",429,336359,"0.0-3.139-1.139","rypca8e1k5pabqe",379,"60.csv","","null","resources/maskTrios/BT1B.jpg","null","",NA,NA,NA,NA,""
"image-keyboard-response",430,337561,"0.0-3.139-2.139","rypca8e1k5pabqe",379,"60.csv","","null","resources/images/coin2.png","null","",NA,NA,NA,NA,""
"image-keyboard-response",431,337856,"0.0-3.140-0.140","rypca8e1k5pabqe",379,"60.csv","","294","resources/trios/L2T4A3.jpg","38","restless",0.4,0.5,0.2,0.76365737506865,"false"
"image-keyboard-response",432,338269,"0.0-3.140-1.140","rypca8e1k5pabqe",379,"60.csv","","null","resources/maskTrios/BT4B.jpg","null","",NA,NA,NA,NA,""
"image-keyboard-response",433,339470,"0.0-3.140-2.140","rypca8e1k5pabqe",379,"60.csv","","null","resources/images/fishbone.png","null","",NA,NA,NA,NA,""
"image-keyboard-response",434,339577,"0.0-3.141-0.141","rypca8e1k5pabqe",379,"60.csv","","105.20000000298023","resources/trios/L2T1A1.jpg","37","restless",0.4,0.5,0.2,0.914999695175644,"false"
"image-keyboard-response",435,339981,"0.0-3.141-1.141","rypca8e1k5pabqe",379,"60.csv","","null","resources/maskTrios/L2BB.jpg","null","",NA,NA,NA,NA,""
"image-keyboard-response",436,341186,"0.0-3.141-2.141","rypca8e1k5pabqe",379,"60.csv","","null","resources/images/fishbone.png","null","",NA,NA,NA,NA,""
"image-keyboard-response",437,341621,"0.0-3.142-0.142","rypca8e1k5pabqe",379,"60.csv","","433.90000000596046","resources/trios/L2T1A3.jpg","39","restless",0.4,0.5,0.2,0.63440746127127,"false"
"image-keyboard-response",438,342034,"0.0-3.142-1.142","rypca8e1k5pabqe",379,"60.csv","","null","resources/maskTrios/BBA3.jpg","null","",NA,NA,NA,NA,""
"image-keyboard-response",439,343238,"0.0-3.142-2.142","rypca8e1k5pabqe",379,"60.csv","","null","resources/images/fishbone.png","null","",NA,NA,NA,NA,""
"image-keyboard-response",440,343512,"0.0-3.143-0.143","rypca8e1k5pabqe",379,"60.csv","","272.5","resources/trios/L1T1A3.jpg","39","restless",0.4,0.5,0.2,0.449913084559824,"false"
"image-keyboard-response",441,343918,"0.0-3.143-1.143","rypca8e1k5pabqe",379,"60.csv","","null","resources/maskTrios/BBA3.jpg","null","",NA,NA,NA,NA,""
"image-keyboard-response",442,345121,"0.0-3.143-2.143","rypca8e1k5pabqe",379,"60.csv","","null","resources/images/fishbone.png","null","",NA,NA,NA,NA,""
"image-keyboard-response",443,345577,"0.0-3.144-0.144","rypca8e1k5pabqe",379,"60.csv","","454.30000001192093","resources/trios/L1T4A3.jpg","39","restless",0.4,0.5,0.2,0.57285058116412,"false"
"image-keyboard-response",444,345985,"0.0-3.144-1.144","rypca8e1k5pabqe",379,"60.csv","","null","resources/maskTrios/BBA3.jpg","null","",NA,NA,NA,NA,""
"image-keyboard-response",445,347201,"0.0-3.144-2.144","rypca8e1k5pabqe",379,"60.csv","","null","resources/images/fishbone.png","null","",NA,NA,NA,NA,""
"image-keyboard-response",446,347510,"0.0-3.145-0.145","rypca8e1k5pabqe",379,"60.csv","","307.40000000596046","resources/trios/L1T1A3.jpg","38","restless",0.4,0.5,0.2,0.935304670070833,"false"
"image-keyboard-response",447,347925,"0.0-3.145-1.145","rypca8e1k5pabqe",379,"60.csv","","null","resources/maskTrios/BT1B.jpg","null","",NA,NA,NA,NA,""
"image-keyboard-response",448,349140,"0.0-3.145-2.145","rypca8e1k5pabqe",379,"60.csv","","null","resources/images/fishbone.png","null","",NA,NA,NA,NA,""
"image-keyboard-response",449,349620,"0.0-3.146-0.146","rypca8e1k5pabqe",379,"60.csv","","479.29999999701977","resources/trios/L1T1A3.jpg","37","restless",0.4,0.5,0.2,0.435289473285128,"false"
"image-keyboard-response",450,350035,"0.0-3.146-1.146","rypca8e1k5pabqe",379,"60.csv","","null","resources/maskTrios/L1BB.jpg","null","",NA,NA,NA,NA,""
"image-keyboard-response",451,351240,"0.0-3.146-2.146","rypca8e1k5pabqe",379,"60.csv","","null","resources/images/fishbone.png","null","",NA,NA,NA,NA,""
"image-keyboard-response",452,351493,"0.0-3.147-0.147","rypca8e1k5pabqe",379,"60.csv","","252.6000000089407","resources/trios/L1T4A3.jpg","38","restless",0.4,0.5,0.2,0.243951709681724,"true"
"image-keyboard-response",453,351902,"0.0-3.147-1.147","rypca8e1k5pabqe",379,"60.csv","","null","resources/maskTrios/BT4B.jpg","null","",NA,NA,NA,NA,""
"image-keyboard-response",454,353104,"0.0-3.147-2.147","rypca8e1k5pabqe",379,"60.csv","","null","resources/images/coin2.png","null","",NA,NA,NA,NA,""
"image-keyboard-response",455,353355,"0.0-3.148-0.148","rypca8e1k5pabqe",379,"60.csv","","249","resources/trios/L2T4A3.jpg","39","restless",0.4,0.5,0.2,0.139012528432837,"true"
"image-keyboard-response",456,353767,"0.0-3.148-1.148","rypca8e1k5pabqe",379,"60.csv","","null","resources/maskTrios/BBA3.jpg","null","",NA,NA,NA,NA,""
"image-keyboard-response",457,354971,"0.0-3.148-2.148","rypca8e1k5pabqe",379,"60.csv","","null","resources/images/coin2.png","null","",NA,NA,NA,NA,""
"image-keyboard-response",458,355357,"0.0-3.149-0.149","rypca8e1k5pabqe",379,"60.csv","","383.70000000298023","resources/trios/L1T4A1.jpg","37","restless",0.4,0.5,0.2,0.74258610111918,"false"
"image-keyboard-response",459,355772,"0.0-3.149-1.149","rypca8e1k5pabqe",379,"60.csv","","null","resources/maskTrios/L1BB.jpg","null","",NA,NA,NA,NA,""
"image-keyboard-response",460,356977,"0.0-3.149-2.149","rypca8e1k5pabqe",379,"60.csv","","null","resources/images/fishbone.png","null","",NA,NA,NA,NA,""
"image-keyboard-response",461,357270,"0.0-3.150-0.150","rypca8e1k5pabqe",379,"60.csv","","290.70000000298023","resources/trios/L1T4A1.jpg","38","restless",0.4,0.4,0.2,0.138735852821463,"true"
"image-keyboard-response",462,357671,"0.0-3.150-1.150","rypca8e1k5pabqe",379,"60.csv","","null","resources/maskTrios/BT4B.jpg","null","",NA,NA,NA,NA,""
"image-keyboard-response",463,358875,"0.0-3.150-2.150","rypca8e1k5pabqe",379,"60.csv","","null","resources/images/coin2.png","null","",NA,NA,NA,NA,""
"image-keyboard-response",464,359477,"0.0-3.151-0.151","rypca8e1k5pabqe",379,"60.csv","","600.6000000089407","resources/trios/L2T4A1.jpg","39","restless",0.4,0.4,0.2,0.0628579273556984,"true"
"image-keyboard-response",465,359881,"0.0-3.151-1.151","rypca8e1k5pabqe",379,"60.csv","","null","resources/maskTrios/BBA1.jpg","null","",NA,NA,NA,NA,""
"image-keyboard-response",466,361084,"0.0-3.151-2.151","rypca8e1k5pabqe",379,"60.csv","","null","resources/images/coin2.png","null","",NA,NA,NA,NA,""
"image-keyboard-response",467,361734,"0.0-3.152-0.152","rypca8e1k5pabqe",379,"60.csv","","648.5","resources/trios/L1T1A1.jpg","37","restless",0.4,0.4,0.2,0.202193297206721,"true"
"image-keyboard-response",468,362149,"0.0-3.152-1.152","rypca8e1k5pabqe",379,"60.csv","","null","resources/maskTrios/L1BB.jpg","null","",NA,NA,NA,NA,""
"image-keyboard-response",469,363363,"0.0-3.152-2.152","rypca8e1k5pabqe",379,"60.csv","","null","resources/images/coin2.png","null","",NA,NA,NA,NA,""
"image-keyboard-response",470,363874,"0.0-3.153-0.153","rypca8e1k5pabqe",379,"60.csv","","509.79999999701977","resources/trios/L1T4A3.jpg","37","restless",0.4,0.4,0.2,0.158395771295859,"true"
"image-keyboard-response",471,364289,"0.0-3.153-1.153","rypca8e1k5pabqe",379,"60.csv","","null","resources/maskTrios/L1BB.jpg","null","",NA,NA,NA,NA,""
"image-keyboard-response",472,365505,"0.0-3.153-2.153","rypca8e1k5pabqe",379,"60.csv","","null","resources/images/coin2.png","null","",NA,NA,NA,NA,""
"image-keyboard-response",473,365851,"0.0-3.154-0.154","rypca8e1k5pabqe",379,"60.csv","","344.59999999403954","resources/trios/L2T4A3.jpg","39","restless",0.5,0.4,0.2,0.739708672884805,"false"
"image-keyboard-response",474,366262,"0.0-3.154-1.154","rypca8e1k5pabqe",379,"60.csv","","null","resources/maskTrios/BBA3.jpg","null","",NA,NA,NA,NA,""
"image-keyboard-response",475,367467,"0.0-3.154-2.154","rypca8e1k5pabqe",379,"60.csv","","null","resources/images/fishbone.png","null","",NA,NA,NA,NA,""
"image-keyboard-response",476,368103,"0.0-3.155-0.155","rypca8e1k5pabqe",379,"60.csv","","634.2999999970198","resources/trios/L2T1A1.jpg","37","restless",0.5,0.4,0.2,0.242759995745394,"true"
"image-keyboard-response",477,368516,"0.0-3.155-1.155","rypca8e1k5pabqe",379,"60.csv","","null","resources/maskTrios/L2BB.jpg","null","",NA,NA,NA,NA,""
"image-keyboard-response",478,369720,"0.0-3.155-2.155","rypca8e1k5pabqe",379,"60.csv","","null","resources/images/coin2.png","null","",NA,NA,NA,NA,""
"image-keyboard-response",479,370291,"0.0-3.156-0.156","rypca8e1k5pabqe",379,"60.csv","","569.9000000059605","resources/trios/L2T1A3.jpg","38","restless",0.5,0.4,0.2,0.47970444998195,"false"
"image-keyboard-response",480,370705,"0.0-3.156-1.156","rypca8e1k5pabqe",379,"60.csv","","null","resources/maskTrios/BT1B.jpg","null","",NA,NA,NA,NA,""
"image-keyboard-response",481,371919,"0.0-3.156-2.156","rypca8e1k5pabqe",379,"60.csv","","null","resources/images/fishbone.png","null","",NA,NA,NA,NA,""
"image-keyboard-response",482,372307,"0.0-3.157-0.157","rypca8e1k5pabqe",379,"60.csv","","385.8999999910593","resources/trios/L1T4A1.jpg","37","restless",0.5,0.4,0.2,0.88339170419803,"false"
"image-keyboard-response",483,372723,"0.0-3.157-1.157","rypca8e1k5pabqe",379,"60.csv","","null","resources/maskTrios/L1BB.jpg","null","",NA,NA,NA,NA,""
"image-keyboard-response",484,373926,"0.0-3.157-2.157","rypca8e1k5pabqe",379,"60.csv","","null","resources/images/fishbone.png","null","",NA,NA,NA,NA,""
"image-keyboard-response",485,374363,"0.0-3.158-0.158","rypca8e1k5pabqe",379,"60.csv","","435.70000000298023","resources/trios/L1T1A1.jpg","38","restless",0.6,0.4,0.2,0.786811620182492,"false"
"image-keyboard-response",486,374778,"0.0-3.158-1.158","rypca8e1k5pabqe",379,"60.csv","","null","resources/maskTrios/BT1B.jpg","null","",NA,NA,NA,NA,""
"image-keyboard-response",487,375982,"0.0-3.158-2.158","rypca8e1k5pabqe",379,"60.csv","","null","resources/images/fishbone.png","null","",NA,NA,NA,NA,""
"image-keyboard-response",488,376183,"0.0-3.159-0.159","rypca8e1k5pabqe",379,"60.csv","","199.90000000596046","resources/trios/L1T4A3.jpg","39","restless",0.7,0.4,0.2,0.253344834296319,"false"
"image-keyboard-response",489,376600,"0.0-3.159-1.159","rypca8e1k5pabqe",379,"60.csv","","null","resources/maskTrios/BBA3.jpg","null","",NA,NA,NA,NA,""
"image-keyboard-response",490,377809,"0.0-3.159-2.159","rypca8e1k5pabqe",379,"60.csv","","null","resources/images/fishbone.png","null","",NA,NA,NA,NA,""
"image-keyboard-response",491,378375,"0.0-3.160-0.160","rypca8e1k5pabqe",379,"60.csv","","564.5","resources/trios/L2T4A3.jpg","38","restless",0.7,0.4,0.2,0.233003372596946,"true"
"image-keyboard-response",492,378785,"0.0-3.160-1.160","rypca8e1k5pabqe",379,"60.csv","","null","resources/maskTrios/BT4B.jpg","null","",NA,NA,NA,NA,""
"image-keyboard-response",493,379990,"0.0-3.160-2.160","rypca8e1k5pabqe",379,"60.csv","","null","resources/images/coin2.png","null","",NA,NA,NA,NA,""
"image-keyboard-response",494,380400,"0.0-3.161-0.161","rypca8e1k5pabqe",379,"60.csv","","408.59999999403954","resources/trios/L1T1A3.jpg","37","restless",0.7,0.4,0.2,0.370703486375807,"true"
"image-keyboard-response",495,380810,"0.0-3.161-1.161","rypca8e1k5pabqe",379,"60.csv","","null","resources/maskTrios/L1BB.jpg","null","",NA,NA,NA,NA,""
"image-keyboard-response",496,382012,"0.0-3.161-2.161","rypca8e1k5pabqe",379,"60.csv","","null","resources/images/coin2.png","null","",NA,NA,NA,NA,""
"image-keyboard-response",497,382427,"0.0-3.162-0.162","rypca8e1k5pabqe",379,"60.csv","","414","resources/trios/L2T4A3.jpg","37","restless",0.7,0.4,0.3,0.793834816102159,"false"
"image-keyboard-response",498,382832,"0.0-3.162-1.162","rypca8e1k5pabqe",379,"60.csv","","null","resources/maskTrios/L2BB.jpg","null","",NA,NA,NA,NA,""
"image-keyboard-response",499,384037,"0.0-3.162-2.162","rypca8e1k5pabqe",379,"60.csv","","null","resources/images/fishbone.png","null","",NA,NA,NA,NA,""
"image-keyboard-response",500,384444,"0.0-3.163-0.163","rypca8e1k5pabqe",379,"60.csv","","405.30000001192093","resources/trios/L2T4A3.jpg","39","restless",0.7,0.4,0.3,0.435110354602142,"false"
"image-keyboard-response",501,384855,"0.0-3.163-1.163","rypca8e1k5pabqe",379,"60.csv","","null","resources/maskTrios/BBA3.jpg","null","",NA,NA,NA,NA,""
"image-keyboard-response",502,386057,"0.0-3.163-2.163","rypca8e1k5pabqe",379,"60.csv","","null","resources/images/fishbone.png","null","",NA,NA,NA,NA,""
"image-keyboard-response",503,386299,"0.0-3.164-0.164","rypca8e1k5pabqe",379,"60.csv","","241.09999999403954","resources/trios/L1T1A3.jpg","38","restless",0.7,0.4,0.3,0.0378720938706656,"true"
"image-keyboard-response",504,386706,"0.0-3.164-1.164","rypca8e1k5pabqe",379,"60.csv","","null","resources/maskTrios/BT1B.jpg","null","",NA,NA,NA,NA,""
"image-keyboard-response",505,387910,"0.0-3.164-2.164","rypca8e1k5pabqe",379,"60.csv","","null","resources/images/coin2.png","null","",NA,NA,NA,NA,""
"image-keyboard-response",506,388260,"0.0-3.165-0.165","rypca8e1k5pabqe",379,"60.csv","","349.09999999403954","resources/trios/L1T1A3.jpg","38","restless",0.7,0.4,0.3,0.722807049100569,"false"
"image-keyboard-response",507,388664,"0.0-3.165-1.165","rypca8e1k5pabqe",379,"60.csv","","null","resources/maskTrios/BT1B.jpg","null","",NA,NA,NA,NA,""
"image-keyboard-response",508,389867,"0.0-3.165-2.165","rypca8e1k5pabqe",379,"60.csv","","null","resources/images/fishbone.png","null","",NA,NA,NA,NA,""
"image-keyboard-response",509,390000,"0.0-3.166-0.166","rypca8e1k5pabqe",379,"60.csv","","132.1000000089407","resources/trios/L1T4A1.jpg","37","restless",0.7,0.4,0.3,0.476397275336099,"true"
"image-keyboard-response",510,390406,"0.0-3.166-1.166","rypca8e1k5pabqe",379,"60.csv","","null","resources/maskTrios/L1BB.jpg","null","",NA,NA,NA,NA,""
"image-keyboard-response",511,391623,"0.0-3.166-2.166","rypca8e1k5pabqe",379,"60.csv","","null","resources/images/coin2.png","null","",NA,NA,NA,NA,""
"image-keyboard-response",512,392026,"0.0-3.167-0.167","rypca8e1k5pabqe",379,"60.csv","","402","resources/trios/L2T4A1.jpg","37","restless",0.7,0.4,0.3,0.391117292216704,"true"
"image-keyboard-response",513,392441,"0.0-3.167-1.167","rypca8e1k5pabqe",379,"60.csv","","null","resources/maskTrios/L2BB.jpg","null","",NA,NA,NA,NA,""
"image-keyboard-response",514,393645,"0.0-3.167-2.167","rypca8e1k5pabqe",379,"60.csv","","null","resources/images/coin2.png","null","",NA,NA,NA,NA,""
"image-keyboard-response",515,393986,"0.0-3.168-0.168","rypca8e1k5pabqe",379,"60.csv","","338.79999999701977","resources/trios/L1T1A1.jpg","39","restless",0.7,0.4,0.3,0.210100433033592,"true"
"image-keyboard-response",516,394401,"0.0-3.168-1.168","rypca8e1k5pabqe",379,"60.csv","","null","resources/maskTrios/BBA1.jpg","null","",NA,NA,NA,NA,""
"image-keyboard-response",517,395618,"0.0-3.168-2.168","rypca8e1k5pabqe",379,"60.csv","","null","resources/images/coin2.png","null","",NA,NA,NA,NA,""
"image-keyboard-response",518,396008,"0.0-3.169-0.169","rypca8e1k5pabqe",379,"60.csv","","388.19999998807907","resources/trios/L2T1A1.jpg","39","restless",0.7,0.4,0.4,0.870014323153685,"false"
"image-keyboard-response",519,396422,"0.0-3.169-1.169","rypca8e1k5pabqe",379,"60.csv","","null","resources/maskTrios/BBA1.jpg","null","",NA,NA,NA,NA,""
"image-keyboard-response",520,397624,"0.0-3.169-2.169","rypca8e1k5pabqe",379,"60.csv","","null","resources/images/fishbone.png","null","",NA,NA,NA,NA,""
"image-keyboard-response",521,398096,"0.0-3.170-0.170","rypca8e1k5pabqe",379,"60.csv","","470.59999999403954","resources/trios/L2T4A3.jpg","39","restless",0.7,0.4,0.4,0.176112114278026,"true"
"image-keyboard-response",522,398502,"0.0-3.170-1.170","rypca8e1k5pabqe",379,"60.csv","","null","resources/maskTrios/BBA3.jpg","null","",NA,NA,NA,NA,""
"image-keyboard-response",523,399717,"0.0-3.170-2.170","rypca8e1k5pabqe",379,"60.csv","","null","resources/images/coin2.png","null","",NA,NA,NA,NA,""
"image-keyboard-response",524,400094,"0.0-3.171-0.171","rypca8e1k5pabqe",379,"60.csv","","376.5","resources/trios/L2T4A1.jpg","38","restless",0.7,0.4,0.5,0.548419001815416,"false"
"image-keyboard-response",525,400506,"0.0-3.171-1.171","rypca8e1k5pabqe",379,"60.csv","","null","resources/maskTrios/BT4B.jpg","null","",NA,NA,NA,NA,""
"image-keyboard-response",526,401708,"0.0-3.171-2.171","rypca8e1k5pabqe",379,"60.csv","","null","resources/images/fishbone.png","null","",NA,NA,NA,NA,""
"image-keyboard-response",527,402142,"0.0-3.172-0.172","rypca8e1k5pabqe",379,"60.csv","","432.59999999403954","resources/trios/L2T1A3.jpg","38","restless",0.6,0.4,0.5,0.371534711530149,"true"
"image-keyboard-response",528,402554,"0.0-3.172-1.172","rypca8e1k5pabqe",379,"60.csv","","null","resources/maskTrios/BT1B.jpg","null","",NA,NA,NA,NA,""
"image-keyboard-response",529,403771,"0.0-3.172-2.172","rypca8e1k5pabqe",379,"60.csv","","null","resources/images/coin2.png","null","",NA,NA,NA,NA,""
"image-keyboard-response",530,404159,"0.0-3.173-0.173","rypca8e1k5pabqe",379,"60.csv","","387.09999999403954","resources/trios/L1T1A1.jpg","38","restless",0.6,0.4,0.5,0.936392279247857,"false"
"image-keyboard-response",531,404575,"0.0-3.173-1.173","rypca8e1k5pabqe",379,"60.csv","","null","resources/maskTrios/BT1B.jpg","null","",NA,NA,NA,NA,""
"image-keyboard-response",532,405778,"0.0-3.173-2.173","rypca8e1k5pabqe",379,"60.csv","","null","resources/images/fishbone.png","null","",NA,NA,NA,NA,""
"image-keyboard-response",533,405923,"0.0-3.174-0.174","rypca8e1k5pabqe",379,"60.csv","","142.90000000596046","resources/trios/L2T4A3.jpg","37","restless",0.6,0.4,0.5,0.297619362981908,"true"
"image-keyboard-response",534,406336,"0.0-3.174-1.174","rypca8e1k5pabqe",379,"60.csv","","null","resources/maskTrios/L2BB.jpg","null","",NA,NA,NA,NA,""
"image-keyboard-response",535,407538,"0.0-3.174-2.174","rypca8e1k5pabqe",379,"60.csv","","null","resources/images/coin2.png","null","",NA,NA,NA,NA,""
"image-keyboard-response",536,407868,"0.0-3.175-0.175","rypca8e1k5pabqe",379,"60.csv","","327.5","resources/trios/L2T1A1.jpg","37","restless",0.7,0.4,0.5,0.73722363221715,"false"
"image-keyboard-response",537,408279,"0.0-3.175-1.175","rypca8e1k5pabqe",379,"60.csv","","null","resources/maskTrios/L2BB.jpg","null","",NA,NA,NA,NA,""
"image-keyboard-response",538,409483,"0.0-3.175-2.175","rypca8e1k5pabqe",379,"60.csv","","null","resources/images/fishbone.png","null","",NA,NA,NA,NA,""
"image-keyboard-response",539,409982,"0.0-3.176-0.176","rypca8e1k5pabqe",379,"60.csv","","498","resources/trios/L1T4A1.jpg","37","restless",0.7,0.4,0.5,0.323020560931982,"true"
"image-keyboard-response",540,410393,"0.0-3.176-1.176","rypca8e1k5pabqe",379,"60.csv","","null","resources/maskTrios/L1BB.jpg","null","",NA,NA,NA,NA,""
"image-keyboard-response",541,411596,"0.0-3.176-2.176","rypca8e1k5pabqe",379,"60.csv","","null","resources/images/coin2.png","null","",NA,NA,NA,NA,""
"image-keyboard-response",542,411938,"0.0-3.177-0.177","rypca8e1k5pabqe",379,"60.csv","","340.59999999403954","resources/trios/L2T4A3.jpg","37","restless",0.7,0.4,0.5,0.483345703032499,"true"
"image-keyboard-response",543,412352,"0.0-3.177-1.177","rypca8e1k5pabqe",379,"60.csv","","null","resources/maskTrios/L2BB.jpg","null","",NA,NA,NA,NA,""
"image-keyboard-response",544,413553,"0.0-3.177-2.177","rypca8e1k5pabqe",379,"60.csv","","null","resources/images/coin2.png","null","",NA,NA,NA,NA,""
"image-keyboard-response",545,413942,"0.0-3.178-0.178","rypca8e1k5pabqe",379,"60.csv","","386.8999999910593","resources/trios/L1T1A1.jpg","37","restless",0.7,0.4,0.5,0.335854568132877,"true"
"image-keyboard-response",546,414356,"0.0-3.178-1.178","rypca8e1k5pabqe",379,"60.csv","","null","resources/maskTrios/L1BB.jpg","null","",NA,NA,NA,NA,""
"image-keyboard-response",547,415561,"0.0-3.178-2.178","rypca8e1k5pabqe",379,"60.csv","","null","resources/images/coin2.png","null","",NA,NA,NA,NA,""
"image-keyboard-response",548,415908,"0.0-3.179-0.179","rypca8e1k5pabqe",379,"60.csv","","345","resources/trios/L2T4A3.jpg","37","restless",0.7,0.4,0.5,0.0233418672320025,"true"
"image-keyboard-response",549,416318,"0.0-3.179-1.179","rypca8e1k5pabqe",379,"60.csv","","null","resources/maskTrios/L2BB.jpg","null","",NA,NA,NA,NA,""
"image-keyboard-response",550,417521,"0.0-3.179-2.179","rypca8e1k5pabqe",379,"60.csv","","null","resources/images/coin2.png","null","",NA,NA,NA,NA,""
"image-keyboard-response",551,417824,"0.0-3.180-0.180","rypca8e1k5pabqe",379,"60.csv","","301.59999999403954","resources/trios/L2T4A1.jpg","37","restless",0.7,0.4,0.5,0.444179808596845,"true"
"image-keyboard-response",552,418232,"0.0-3.180-1.180","rypca8e1k5pabqe",379,"60.csv","","null","resources/maskTrios/L2BB.jpg","null","",NA,NA,NA,NA,""
"image-keyboard-response",553,419437,"0.0-3.180-2.180","rypca8e1k5pabqe",379,"60.csv","","null","resources/images/coin2.png","null","",NA,NA,NA,NA,""
"image-keyboard-response",554,419616,"0.0-3.181-0.181","rypca8e1k5pabqe",379,"60.csv","","177.79999999701977","resources/trios/L1T4A3.jpg","37","restless",0.7,0.4,0.5,0.561296819468763,"true"
"image-keyboard-response",555,420024,"0.0-3.181-1.181","rypca8e1k5pabqe",379,"60.csv","","null","resources/maskTrios/L1BB.jpg","null","",NA,NA,NA,NA,""
"image-keyboard-response",556,421231,"0.0-3.181-2.181","rypca8e1k5pabqe",379,"60.csv","","null","resources/images/coin2.png","null","",NA,NA,NA,NA,""
"image-keyboard-response",557,421326,"0.0-3.182-0.182","rypca8e1k5pabqe",379,"60.csv","","93.70000000298023","resources/trios/L1T1A3.jpg","37","restless",0.7,0.4,0.5,0.121627305798678,"true"
"image-keyboard-response",558,421742,"0.0-3.182-1.182","rypca8e1k5pabqe",379,"60.csv","","null","resources/maskTrios/L1BB.jpg","null","",NA,NA,NA,NA,""
"image-keyboard-response",559,422945,"0.0-3.182-2.182","rypca8e1k5pabqe",379,"60.csv","","null","resources/images/coin2.png","null","",NA,NA,NA,NA,""
"image-keyboard-response",560,423072,"0.0-3.183-0.183","rypca8e1k5pabqe",379,"60.csv","","125.8999999910593","resources/trios/L1T1A1.jpg","37","restless",0.7,0.4,0.5,0.580498446226216,"true"
"image-keyboard-response",561,423487,"0.0-3.183-1.183","rypca8e1k5pabqe",379,"60.csv","","null","resources/maskTrios/L1BB.jpg","null","",NA,NA,NA,NA,""
"image-keyboard-response",562,424692,"0.0-3.183-2.183","rypca8e1k5pabqe",379,"60.csv","","null","resources/images/coin2.png","null","",NA,NA,NA,NA,""
"image-keyboard-response",563,424941,"0.0-3.184-0.184","rypca8e1k5pabqe",379,"60.csv","","247.59999999403954","resources/trios/L1T1A1.jpg","37","restless",0.7,0.4,0.5,0.998958840356497,"false"
"image-keyboard-response",564,425357,"0.0-3.184-1.184","rypca8e1k5pabqe",379,"60.csv","","null","resources/maskTrios/L1BB.jpg","null","",NA,NA,NA,NA,""
"image-keyboard-response",565,426562,"0.0-3.184-2.184","rypca8e1k5pabqe",379,"60.csv","","null","resources/images/fishbone.png","null","",NA,NA,NA,NA,""
"image-keyboard-response",566,426988,"0.0-3.185-0.185","rypca8e1k5pabqe",379,"60.csv","","424.3999999910593","resources/trios/L1T4A1.jpg","38","restless",0.6,0.4,0.5,0.778352512448056,"false"
"image-keyboard-response",567,427398,"0.0-3.185-1.185","rypca8e1k5pabqe",379,"60.csv","","null","resources/maskTrios/BT4B.jpg","null","",NA,NA,NA,NA,""
"image-keyboard-response",568,428603,"0.0-3.185-2.185","rypca8e1k5pabqe",379,"60.csv","","null","resources/images/fishbone.png","null","",NA,NA,NA,NA,""
"image-keyboard-response",569,429036,"0.0-3.186-0.186","rypca8e1k5pabqe",379,"60.csv","","431.59999999403954","resources/trios/L1T1A3.jpg","38","restless",0.5,0.4,0.5,0.313631395700611,"true"
"image-keyboard-response",570,429439,"0.0-3.186-1.186","rypca8e1k5pabqe",379,"60.csv","","null","resources/maskTrios/BT1B.jpg","null","",NA,NA,NA,NA,""
"image-keyboard-response",571,430644,"0.0-3.186-2.186","rypca8e1k5pabqe",379,"60.csv","","null","resources/images/coin2.png","null","",NA,NA,NA,NA,""
"image-keyboard-response",572,431094,"0.0-3.187-0.187","rypca8e1k5pabqe",379,"60.csv","","448.70000000298023","resources/trios/L2T4A1.jpg","39","restless",0.5,0.4,0.5,0.943778645412138,"false"
"image-keyboard-response",573,431506,"0.0-3.187-1.187","rypca8e1k5pabqe",379,"60.csv","","null","resources/maskTrios/BBA1.jpg","null","",NA,NA,NA,NA,""
"image-keyboard-response",574,432708,"0.0-3.187-2.187","rypca8e1k5pabqe",379,"60.csv","","null","resources/images/fishbone.png","null","",NA,NA,NA,NA,""
"image-keyboard-response",575,432874,"0.0-3.188-0.188","rypca8e1k5pabqe",379,"60.csv","","164.70000000298023","resources/trios/L1T1A1.jpg","39","restless",0.5,0.4,0.5,0.930643377921054,"false"
"image-keyboard-response",576,433279,"0.0-3.188-1.188","rypca8e1k5pabqe",379,"60.csv","","null","resources/maskTrios/BBA1.jpg","null","",NA,NA,NA,NA,""
"image-keyboard-response",577,434495,"0.0-3.188-2.188","rypca8e1k5pabqe",379,"60.csv","","null","resources/images/fishbone.png","null","",NA,NA,NA,NA,""
"image-keyboard-response",578,434682,"0.0-3.189-0.189","rypca8e1k5pabqe",379,"60.csv","","185.59999999403954","resources/trios/L2T1A3.jpg","39","restless",0.5,0.4,0.5,0.117666272800501,"true"
"image-keyboard-response",579,435096,"0.0-3.189-1.189","rypca8e1k5pabqe",379,"60.csv","","null","resources/maskTrios/BBA3.jpg","null","",NA,NA,NA,NA,""
"image-keyboard-response",580,436301,"0.0-3.189-2.189","rypca8e1k5pabqe",379,"60.csv","","null","resources/images/coin2.png","null","",NA,NA,NA,NA,""
"image-keyboard-response",581,436689,"0.0-3.190-0.190","rypca8e1k5pabqe",379,"60.csv","","386.3999999910593","resources/trios/L2T4A3.jpg","38","restless",0.5,0.4,0.5,0.00114161660466006,"true"
"image-keyboard-response",582,437104,"0.0-3.190-1.190","rypca8e1k5pabqe",379,"60.csv","","null","resources/maskTrios/BT4B.jpg","null","",NA,NA,NA,NA,""
"image-keyboard-response",583,438307,"0.0-3.190-2.190","rypca8e1k5pabqe",379,"60.csv","","null","resources/images/coin2.png","null","",NA,NA,NA,NA,""
"image-keyboard-response",584,438406,"0.0-3.191-0.191","rypca8e1k5pabqe",379,"60.csv","","97.29999999701977","resources/trios/L2T4A1.jpg","38","restless",0.5,0.4,0.5,0.135825231462,"true"
"image-keyboard-response",585,438817,"0.0-3.191-1.191","rypca8e1k5pabqe",379,"60.csv","","null","resources/maskTrios/BT4B.jpg","null","",NA,NA,NA,NA,""
"image-keyboard-response",586,440022,"0.0-3.191-2.191","rypca8e1k5pabqe",379,"60.csv","","null","resources/images/coin2.png","null","",NA,NA,NA,NA,""
"image-keyboard-response",587,440056,"0.0-3.192-0.192","rypca8e1k5pabqe",379,"60.csv","","32.79999999701977","resources/trios/L2T4A3.jpg","38","restless",0.5,0.4,0.5,0.0767397533650844,"true"
"image-keyboard-response",588,440469,"0.0-3.192-1.192","rypca8e1k5pabqe",379,"60.csv","","null","resources/maskTrios/BT4B.jpg","null","",NA,NA,NA,NA,""
"image-keyboard-response",589,441672,"0.0-3.192-2.192","rypca8e1k5pabqe",379,"60.csv","","null","resources/images/coin2.png","null","",NA,NA,NA,NA,""
"image-keyboard-response",590,441778,"0.0-3.193-0.193","rypca8e1k5pabqe",379,"60.csv","","104.6000000089407","resources/trios/L1T4A3.jpg","38","restless",0.5,0.4,0.5,0.632380325785289,"false"
"image-keyboard-response",591,442179,"0.0-3.193-1.193","rypca8e1k5pabqe",379,"60.csv","","null","resources/maskTrios/BT4B.jpg","null","",NA,NA,NA,NA,""
"image-keyboard-response",592,443383,"0.0-3.193-2.193","rypca8e1k5pabqe",379,"60.csv","","null","resources/images/fishbone.png","null","",NA,NA,NA,NA,""
"image-keyboard-response",593,443829,"0.0-3.194-0.194","rypca8e1k5pabqe",379,"60.csv","","444.79999999701977","resources/trios/L2T4A1.jpg","38","restless",0.5,0.4,0.5,0.438016105538719,"false"
"image-keyboard-response",594,444232,"0.0-3.194-1.194","rypca8e1k5pabqe",379,"60.csv","","null","resources/maskTrios/BT4B.jpg","null","",NA,NA,NA,NA,""
"image-keyboard-response",595,445434,"0.0-3.194-2.194","rypca8e1k5pabqe",379,"60.csv","","null","resources/images/fishbone.png","null","",NA,NA,NA,NA,""
"image-keyboard-response",596,445528,"0.0-3.195-0.195","rypca8e1k5pabqe",379,"60.csv","","92.5","resources/trios/L2T4A3.jpg","37","restless",0.5,0.4,0.5,0.0736843342584999,"true"
"image-keyboard-response",597,445932,"0.0-3.195-1.195","rypca8e1k5pabqe",379,"60.csv","","null","resources/maskTrios/L2BB.jpg","null","",NA,NA,NA,NA,""
"image-keyboard-response",598,447138,"0.0-3.195-2.195","rypca8e1k5pabqe",379,"60.csv","","null","resources/images/coin2.png","null","",NA,NA,NA,NA,""
"image-keyboard-response",599,447309,"0.0-3.196-0.196","rypca8e1k5pabqe",379,"60.csv","","169.79999999701977","resources/trios/L1T4A1.jpg","37","restless",0.5,0.4,0.5,0.83124552960662,"false"
"image-keyboard-response",600,447713,"0.0-3.196-1.196","rypca8e1k5pabqe",379,"60.csv","","null","resources/maskTrios/L1BB.jpg","null","",NA,NA,NA,NA,""
"image-keyboard-response",601,448925,"0.0-3.196-2.196","rypca8e1k5pabqe",379,"60.csv","","null","resources/images/fishbone.png","null","",NA,NA,NA,NA,""
"image-keyboard-response",602,448973,"0.0-3.197-0.197","rypca8e1k5pabqe",379,"60.csv","","46.599999994039536","resources/trios/L2T4A1.jpg","39","restless",0.5,0.4,0.6,0.213109295905074,"true"
"image-keyboard-response",603,449387,"0.0-3.197-1.197","rypca8e1k5pabqe",379,"60.csv","","null","resources/maskTrios/BBA1.jpg","null","",NA,NA,NA,NA,""
"image-keyboard-response",604,450590,"0.0-3.197-2.197","rypca8e1k5pabqe",379,"60.csv","","null","resources/images/coin2.png","null","",NA,NA,NA,NA,""
"image-keyboard-response",605,450592,"0.0-3.198-0.198","rypca8e1k5pabqe",379,"60.csv","","0.20000000298023224","resources/trios/L1T1A3.jpg","39","restless",0.5,0.4,0.6,0.935709905196003,"false"
"image-keyboard-response",606,450993,"0.0-3.198-1.198","rypca8e1k5pabqe",379,"60.csv","","null","resources/maskTrios/BBA3.jpg","null","",NA,NA,NA,NA,""
"image-keyboard-response",607,452200,"0.0-3.198-2.198","rypca8e1k5pabqe",379,"60.csv","","null","resources/images/fishbone.png","null","",NA,NA,NA,NA,""
"image-keyboard-response",608,452358,"0.0-3.199-0.199","rypca8e1k5pabqe",379,"60.csv","","156.09999999403954","resources/trios/L2T4A1.jpg","38","restless",0.5,0.4,0.6,0.600312086305642,"false"
"image-keyboard-response",609,452769,"0.0-3.199-1.199","rypca8e1k5pabqe",379,"60.csv","","null","resources/maskTrios/BT4B.jpg","null","",NA,NA,NA,NA,""
