"trial_type","trial_index","time_elapsed","internal_node_id","subject","participantCode","walkNumber","success","rt","stimulus","key_press","test_part","leftProb","midProb","rightProb","generatedNum","correct"
"pavlovia",0,1298,"0.0-0.0","mr61g5e6c6h9wml",518,"95.csv","","","","","",NA,NA,NA,NA,""
"fullscreen",1,8426,"0.0-1.0","mr61g5e6c6h9wml",518,"95.csv","true","","","","",NA,NA,NA,NA,""
"html-keyboard-response",2,28827,"0.0-2.0-0.0","mr61g5e6c6h9wml",518,"95.csv","","20399.100000023842","<p><font size='6'>Arrrgh!</p></font><p>Can you be the best pirate? Try to find lots of gold! But beware, some islands have more gold than others, and over time, the island with the most gold may change. Can YOU figure it out? </p><font size='6'>GOOD LUCK, CAPTAIN!!!</font><p>Press any key to begin</p>","32","",NA,NA,NA,NA,""
"image-keyboard-response",3,31831,"0.0-2.0-1.0","mr61g5e6c6h9wml",518,"95.csv","","null","resources/image_sets/111.png","null","",NA,NA,NA,NA,""
"image-keyboard-response",4,40639,"0.0-2.0-2.0","mr61g5e6c6h9wml",518,"95.csv","","8806.5","resources/image_sets/left_highlight.png","37","",NA,NA,NA,NA,""
"image-keyboard-response",5,44353,"0.0-2.0-3.0","mr61g5e6c6h9wml",518,"95.csv","","3713.399999976158","resources/image_sets/mid_highlight.png","38","",NA,NA,NA,NA,""
"image-keyboard-response",6,45129,"0.0-2.0-4.0","mr61g5e6c6h9wml",518,"95.csv","","775.1000000238419","resources/image_sets/right_highlight.png","39","",NA,NA,NA,NA,""
"image-keyboard-response",7,53730,"0.0-2.0-5.0","mr61g5e6c6h9wml",518,"95.csv","","8601","resources/image_sets/111.png","13","",NA,NA,NA,NA,""
"image-keyboard-response",8,57010,"0.0-2.0-6.0","mr61g5e6c6h9wml",518,"95.csv","","3279.2000000476837","resources/images/coin2.png","13","",NA,NA,NA,NA,""
"image-keyboard-response",9,58874,"0.0-2.0-7.0","mr61g5e6c6h9wml",518,"95.csv","","1863.3999999761581","resources/images/fishbone.png","13","",NA,NA,NA,NA,""
"html-keyboard-response",10,75108,"0.0-2.0-8.0","mr61g5e6c6h9wml",518,"95.csv","","16233.199999988079","<p>Your first journey will be a long one, but you will get a well deserved break at the end</p><p>After the break you will have four more journeys, but each will be much shorter than the first, and you will have breaks in between each</p><p>Press Enter to begin</p>","13","",NA,NA,NA,NA,""
"image-keyboard-response",11,75859,"0.0-3.0-0.0","mr61g5e6c6h9wml",518,"95.csv","","750","resources/trios/L1T4A2.jpg","37","restless",0.3,0.9,0.7,0.305859329199822,"false"
"image-keyboard-response",12,76263,"0.0-3.0-1.0","mr61g5e6c6h9wml",518,"95.csv","","null","resources/maskTrios/L1BB.jpg","null","",NA,NA,NA,NA,""
"image-keyboard-response",13,77468,"0.0-3.0-2.0","mr61g5e6c6h9wml",518,"95.csv","","null","resources/images/fishbone.png","null","",NA,NA,NA,NA,""
"image-keyboard-response",14,79497,"0.0-3.1-0.1","mr61g5e6c6h9wml",518,"95.csv","","2027.5","resources/trios/L2T4A2.jpg","37","restless",0.3,0.9,0.7,0.461394609648111,"false"
"image-keyboard-response",15,79903,"0.0-3.1-1.1","mr61g5e6c6h9wml",518,"95.csv","","null","resources/maskTrios/L2BB.jpg","null","",NA,NA,NA,NA,""
"image-keyboard-response",16,81109,"0.0-3.1-2.1","mr61g5e6c6h9wml",518,"95.csv","","null","resources/images/fishbone.png","null","",NA,NA,NA,NA,""
"image-keyboard-response",17,82049,"0.0-3.2-0.2","mr61g5e6c6h9wml",518,"95.csv","","939","resources/trios/L1T4A3.jpg","38","restless",0.3,0.9,0.7,0.763303834662906,"true"
"image-keyboard-response",18,82455,"0.0-3.2-1.2","mr61g5e6c6h9wml",518,"95.csv","","null","resources/maskTrios/BT4B.jpg","null","",NA,NA,NA,NA,""
"image-keyboard-response",19,83661,"0.0-3.2-2.2","mr61g5e6c6h9wml",518,"95.csv","","null","resources/images/coin2.png","null","",NA,NA,NA,NA,""
"image-keyboard-response",20,85715,"0.0-3.3-0.3","mr61g5e6c6h9wml",518,"95.csv","","2052.199999988079","resources/trios/L1T1A3.jpg","38","restless",0.3,0.9,0.7,0.233118146457322,"true"
"image-keyboard-response",21,86118,"0.0-3.3-1.3","mr61g5e6c6h9wml",518,"95.csv","","null","resources/maskTrios/BT1B.jpg","null","",NA,NA,NA,NA,""
"image-keyboard-response",22,87324,"0.0-3.3-2.3","mr61g5e6c6h9wml",518,"95.csv","","null","resources/images/coin2.png","null","",NA,NA,NA,NA,""
"image-keyboard-response",23,89247,"0.0-3.4-0.4","mr61g5e6c6h9wml",518,"95.csv","","1922.4000000357628","resources/trios/L2T4A3.jpg","39","restless",0.3,0.9,0.7,0.81036645116048,"false"
"image-keyboard-response",24,89649,"0.0-3.4-1.4","mr61g5e6c6h9wml",518,"95.csv","","null","resources/maskTrios/BBA3.jpg","null","",NA,NA,NA,NA,""
"image-keyboard-response",25,90855,"0.0-3.4-2.4","mr61g5e6c6h9wml",518,"95.csv","","null","resources/images/fishbone.png","null","",NA,NA,NA,NA,""
"image-keyboard-response",26,91407,"0.0-3.5-0.5","mr61g5e6c6h9wml",518,"95.csv","","551.3000000119209","resources/trios/L1T1A3.jpg","38","restless",0.3,0.9,0.7,0.904023945117332,"false"
"image-keyboard-response",27,91813,"0.0-3.5-1.5","mr61g5e6c6h9wml",518,"95.csv","","null","resources/maskTrios/BT1B.jpg","null","",NA,NA,NA,NA,""
"image-keyboard-response",28,93019,"0.0-3.5-2.5","mr61g5e6c6h9wml",518,"95.csv","","null","resources/images/fishbone.png","null","",NA,NA,NA,NA,""
"image-keyboard-response",29,93751,"0.0-3.6-0.6","mr61g5e6c6h9wml",518,"95.csv","","731.1000000238419","resources/trios/L1T1A3.jpg","37","restless",0.3,0.9,0.8,0.0204926346523864,"true"
"image-keyboard-response",30,94154,"0.0-3.6-1.6","mr61g5e6c6h9wml",518,"95.csv","","null","resources/maskTrios/L1BB.jpg","null","",NA,NA,NA,NA,""
"image-keyboard-response",31,95361,"0.0-3.6-2.6","mr61g5e6c6h9wml",518,"95.csv","","null","resources/images/coin2.png","null","",NA,NA,NA,NA,""
"image-keyboard-response",32,97816,"0.0-3.7-0.7","mr61g5e6c6h9wml",518,"95.csv","","2453.7000000476837","resources/trios/L1T1A3.jpg","38","restless",0.3,0.8,0.7,0.227501567252371,"true"
"image-keyboard-response",33,98219,"0.0-3.7-1.7","mr61g5e6c6h9wml",518,"95.csv","","null","resources/maskTrios/BT1B.jpg","null","",NA,NA,NA,NA,""
"image-keyboard-response",34,99425,"0.0-3.7-2.7","mr61g5e6c6h9wml",518,"95.csv","","null","resources/images/coin2.png","null","",NA,NA,NA,NA,""
"image-keyboard-response",35,99791,"0.0-3.8-0.8","mr61g5e6c6h9wml",518,"95.csv","","365.19999998807907","resources/trios/L1T4A3.jpg","39","restless",0.3,0.8,0.7,0.526634176686396,"true"
"image-keyboard-response",36,100197,"0.0-3.8-1.8","mr61g5e6c6h9wml",518,"95.csv","","null","resources/maskTrios/BBA3.jpg","null","",NA,NA,NA,NA,""
"image-keyboard-response",37,101403,"0.0-3.8-2.8","mr61g5e6c6h9wml",518,"95.csv","","null","resources/images/coin2.png","null","",NA,NA,NA,NA,""
"image-keyboard-response",38,101751,"0.0-3.9-0.9","mr61g5e6c6h9wml",518,"95.csv","","347.19999998807907","resources/trios/L1T1A2.jpg","37","restless",0.3,0.8,0.7,0.577277958358865,"false"
"image-keyboard-response",39,102157,"0.0-3.9-1.9","mr61g5e6c6h9wml",518,"95.csv","","null","resources/maskTrios/L1BB.jpg","null","",NA,NA,NA,NA,""
"image-keyboard-response",40,103363,"0.0-3.9-2.9","mr61g5e6c6h9wml",518,"95.csv","","null","resources/images/fishbone.png","null","",NA,NA,NA,NA,""
"image-keyboard-response",41,104719,"0.0-3.10-0.10","mr61g5e6c6h9wml",518,"95.csv","","1355.0999999642372","resources/trios/L2T1A2.jpg","39","restless",0.3,0.8,0.6,0.227580229683722,"true"
"image-keyboard-response",42,105124,"0.0-3.10-1.10","mr61g5e6c6h9wml",518,"95.csv","","null","resources/maskTrios/BBA2.jpg","null","",NA,NA,NA,NA,""
"image-keyboard-response",43,106330,"0.0-3.10-2.10","mr61g5e6c6h9wml",518,"95.csv","","null","resources/images/coin2.png","null","",NA,NA,NA,NA,""
"image-keyboard-response",44,106815,"0.0-3.11-0.11","mr61g5e6c6h9wml",518,"95.csv","","484.30000001192093","resources/trios/L2T1A2.jpg","38","restless",0.3,0.8,0.6,0.431014145137487,"true"
"image-keyboard-response",45,107221,"0.0-3.11-1.11","mr61g5e6c6h9wml",518,"95.csv","","null","resources/maskTrios/BT1B.jpg","null","",NA,NA,NA,NA,""
"image-keyboard-response",46,108428,"0.0-3.11-2.11","mr61g5e6c6h9wml",518,"95.csv","","null","resources/images/coin2.png","null","",NA,NA,NA,NA,""
"image-keyboard-response",47,111050,"0.0-3.12-0.12","mr61g5e6c6h9wml",518,"95.csv","","2621.099999964237","resources/trios/L1T4A2.jpg","37","restless",0.3,0.7,0.6,0.821897223117555,"false"
"image-keyboard-response",48,111456,"0.0-3.12-1.12","mr61g5e6c6h9wml",518,"95.csv","","null","resources/maskTrios/L1BB.jpg","null","",NA,NA,NA,NA,""
"image-keyboard-response",49,112662,"0.0-3.12-2.12","mr61g5e6c6h9wml",518,"95.csv","","null","resources/images/fishbone.png","null","",NA,NA,NA,NA,""
"image-keyboard-response",50,114806,"0.0-3.13-0.13","mr61g5e6c6h9wml",518,"95.csv","","2143.199999988079","resources/trios/L2T4A3.jpg","39","restless",0.3,0.7,0.6,0.236335691713164,"true"
"image-keyboard-response",51,115212,"0.0-3.13-1.13","mr61g5e6c6h9wml",518,"95.csv","","null","resources/maskTrios/BBA3.jpg","null","",NA,NA,NA,NA,""
"image-keyboard-response",52,116418,"0.0-3.13-2.13","mr61g5e6c6h9wml",518,"95.csv","","null","resources/images/coin2.png","null","",NA,NA,NA,NA,""
"image-keyboard-response",53,117262,"0.0-3.14-0.14","mr61g5e6c6h9wml",518,"95.csv","","842.8999999761581","resources/trios/L1T1A3.jpg","38","restless",0.3,0.7,0.6,0.655472731844681,"true"
"image-keyboard-response",54,117666,"0.0-3.14-1.14","mr61g5e6c6h9wml",518,"95.csv","","null","resources/maskTrios/BT1B.jpg","null","",NA,NA,NA,NA,""
"image-keyboard-response",55,118869,"0.0-3.14-2.14","mr61g5e6c6h9wml",518,"95.csv","","null","resources/images/coin2.png","null","",NA,NA,NA,NA,""
"image-keyboard-response",56,120286,"0.0-3.15-0.15","mr61g5e6c6h9wml",518,"95.csv","","1416.4000000357628","resources/trios/L1T4A2.jpg","38","restless",0.3,0.7,0.6,0.692937513154331,"true"
"image-keyboard-response",57,120692,"0.0-3.15-1.15","mr61g5e6c6h9wml",518,"95.csv","","null","resources/maskTrios/BT4B.jpg","null","",NA,NA,NA,NA,""
"image-keyboard-response",58,121895,"0.0-3.15-2.15","mr61g5e6c6h9wml",518,"95.csv","","null","resources/images/coin2.png","null","",NA,NA,NA,NA,""
"image-keyboard-response",59,122854,"0.0-3.16-0.16","mr61g5e6c6h9wml",518,"95.csv","","957.9000000357628","resources/trios/L1T4A3.jpg","39","restless",0.3,0.7,0.6,0.2036668776609,"true"
"image-keyboard-response",60,123260,"0.0-3.16-1.16","mr61g5e6c6h9wml",518,"95.csv","","null","resources/maskTrios/BBA3.jpg","null","",NA,NA,NA,NA,""
"image-keyboard-response",61,124466,"0.0-3.16-2.16","mr61g5e6c6h9wml",518,"95.csv","","null","resources/images/coin2.png","null","",NA,NA,NA,NA,""
"image-keyboard-response",62,127313,"0.0-3.17-0.17","mr61g5e6c6h9wml",518,"95.csv","","2846.099999964237","resources/trios/L1T4A3.jpg","38","restless",0.3,0.6,0.6,0.0362638451855657,"true"
"image-keyboard-response",63,127719,"0.0-3.17-1.17","mr61g5e6c6h9wml",518,"95.csv","","null","resources/maskTrios/BT4B.jpg","null","",NA,NA,NA,NA,""
"image-keyboard-response",64,128926,"0.0-3.17-2.17","mr61g5e6c6h9wml",518,"95.csv","","null","resources/images/coin2.png","null","",NA,NA,NA,NA,""
"image-keyboard-response",65,130849,"0.0-3.18-0.18","mr61g5e6c6h9wml",518,"95.csv","","1922.8999999761581","resources/trios/L1T1A2.jpg","38","restless",0.3,0.6,0.6,0.00185553808613648,"true"
"image-keyboard-response",66,131255,"0.0-3.18-1.18","mr61g5e6c6h9wml",518,"95.csv","","null","resources/maskTrios/BT1B.jpg","null","",NA,NA,NA,NA,""
"image-keyboard-response",67,132462,"0.0-3.18-2.18","mr61g5e6c6h9wml",518,"95.csv","","null","resources/images/coin2.png","null","",NA,NA,NA,NA,""
"image-keyboard-response",68,133193,"0.0-3.19-0.19","mr61g5e6c6h9wml",518,"95.csv","","730.3000000119209","resources/trios/L1T4A2.jpg","39","restless",0.3,0.6,0.6,0.904905650716429,"false"
"image-keyboard-response",69,133596,"0.0-3.19-1.19","mr61g5e6c6h9wml",518,"95.csv","","null","resources/maskTrios/BBA2.jpg","null","",NA,NA,NA,NA,""
"image-keyboard-response",70,134802,"0.0-3.19-2.19","mr61g5e6c6h9wml",518,"95.csv","","null","resources/images/fishbone.png","null","",NA,NA,NA,NA,""
"image-keyboard-response",71,135473,"0.0-3.20-0.20","mr61g5e6c6h9wml",518,"95.csv","","669.4000000357628","resources/trios/L1T1A3.jpg","38","restless",0.3,0.6,0.6,0.289740664879878,"true"
"image-keyboard-response",72,135874,"0.0-3.20-1.20","mr61g5e6c6h9wml",518,"95.csv","","null","resources/maskTrios/BT1B.jpg","null","",NA,NA,NA,NA,""
"image-keyboard-response",73,137077,"0.0-3.20-2.20","mr61g5e6c6h9wml",518,"95.csv","","null","resources/images/coin2.png","null","",NA,NA,NA,NA,""
"image-keyboard-response",74,138233,"0.0-3.21-0.21","mr61g5e6c6h9wml",518,"95.csv","","1154.4000000357628","resources/trios/L1T1A2.jpg","38","restless",0.2,0.6,0.6,0.690126250269804,"false"
"image-keyboard-response",75,138639,"0.0-3.21-1.21","mr61g5e6c6h9wml",518,"95.csv","","null","resources/maskTrios/BT1B.jpg","null","",NA,NA,NA,NA,""
"image-keyboard-response",76,139845,"0.0-3.21-2.21","mr61g5e6c6h9wml",518,"95.csv","","null","resources/images/fishbone.png","null","",NA,NA,NA,NA,""
"image-keyboard-response",77,140825,"0.0-3.22-0.22","mr61g5e6c6h9wml",518,"95.csv","","979.1999999880791","resources/trios/L1T4A2.jpg","37","restless",0.2,0.6,0.6,0.725043552852616,"false"
"image-keyboard-response",78,141228,"0.0-3.22-1.22","mr61g5e6c6h9wml",518,"95.csv","","null","resources/maskTrios/L1BB.jpg","null","",NA,NA,NA,NA,""
"image-keyboard-response",79,142431,"0.0-3.22-2.22","mr61g5e6c6h9wml",518,"95.csv","","null","resources/images/fishbone.png","null","",NA,NA,NA,NA,""
"image-keyboard-response",80,142881,"0.0-3.23-0.23","mr61g5e6c6h9wml",518,"95.csv","","448.5","resources/trios/L1T4A2.jpg","39","restless",0.2,0.6,0.6,0.630362654606525,"false"
"image-keyboard-response",81,143287,"0.0-3.23-1.23","mr61g5e6c6h9wml",518,"95.csv","","null","resources/maskTrios/BBA2.jpg","null","",NA,NA,NA,NA,""
"image-keyboard-response",82,144493,"0.0-3.23-2.23","mr61g5e6c6h9wml",518,"95.csv","","null","resources/images/fishbone.png","null","",NA,NA,NA,NA,""
"image-keyboard-response",83,144793,"0.0-3.24-0.24","mr61g5e6c6h9wml",518,"95.csv","","299.4000000357628","resources/trios/L1T4A3.jpg","38","restless",0.3,0.5,0.6,0.174620581376386,"true"
"image-keyboard-response",84,145199,"0.0-3.24-1.24","mr61g5e6c6h9wml",518,"95.csv","","null","resources/maskTrios/BT4B.jpg","null","",NA,NA,NA,NA,""
"image-keyboard-response",85,146403,"0.0-3.24-2.24","mr61g5e6c6h9wml",518,"95.csv","","null","resources/images/coin2.png","null","",NA,NA,NA,NA,""
"image-keyboard-response",86,146929,"0.0-3.25-0.25","mr61g5e6c6h9wml",518,"95.csv","","524.8000000119209","resources/trios/L2T4A2.jpg","38","restless",0.3,0.5,0.6,0.245468466819968,"true"
"image-keyboard-response",87,147335,"0.0-3.25-1.25","mr61g5e6c6h9wml",518,"95.csv","","null","resources/maskTrios/BT4B.jpg","null","",NA,NA,NA,NA,""
"image-keyboard-response",88,148541,"0.0-3.25-2.25","mr61g5e6c6h9wml",518,"95.csv","","null","resources/images/coin2.png","null","",NA,NA,NA,NA,""
"image-keyboard-response",89,149977,"0.0-3.26-0.26","mr61g5e6c6h9wml",518,"95.csv","","1435.1000000238419","resources/trios/L2T4A3.jpg","39","restless",0.3,0.5,0.6,0.0428219610855787,"true"
"image-keyboard-response",90,150383,"0.0-3.26-1.26","mr61g5e6c6h9wml",518,"95.csv","","null","resources/maskTrios/BBA3.jpg","null","",NA,NA,NA,NA,""
"image-keyboard-response",91,151589,"0.0-3.26-2.26","mr61g5e6c6h9wml",518,"95.csv","","null","resources/images/coin2.png","null","",NA,NA,NA,NA,""
"image-keyboard-response",92,152313,"0.0-3.27-0.27","mr61g5e6c6h9wml",518,"95.csv","","722.8999999761581","resources/trios/L1T1A2.jpg","38","restless",0.3,0.5,0.6,0.1132358834778,"true"
"image-keyboard-response",93,152719,"0.0-3.27-1.27","mr61g5e6c6h9wml",518,"95.csv","","null","resources/maskTrios/BT1B.jpg","null","",NA,NA,NA,NA,""
"image-keyboard-response",94,153925,"0.0-3.27-2.27","mr61g5e6c6h9wml",518,"95.csv","","null","resources/images/coin2.png","null","",NA,NA,NA,NA,""
"image-keyboard-response",95,154601,"0.0-3.28-0.28","mr61g5e6c6h9wml",518,"95.csv","","675.1999999880791","resources/trios/L1T1A3.jpg","38","restless",0.3,0.5,0.6,0.0154623169381383,"true"
"image-keyboard-response",96,155004,"0.0-3.28-1.28","mr61g5e6c6h9wml",518,"95.csv","","null","resources/maskTrios/BT1B.jpg","null","",NA,NA,NA,NA,""
"image-keyboard-response",97,156210,"0.0-3.28-2.28","mr61g5e6c6h9wml",518,"95.csv","","null","resources/images/coin2.png","null","",NA,NA,NA,NA,""
"image-keyboard-response",98,158546,"0.0-3.29-0.29","mr61g5e6c6h9wml",518,"95.csv","","2335.100000023842","resources/trios/L2T4A2.jpg","38","restless",0.3,0.5,0.6,0.895556958311719,"false"
"image-keyboard-response",99,158952,"0.0-3.29-1.29","mr61g5e6c6h9wml",518,"95.csv","","null","resources/maskTrios/BT4B.jpg","null","",NA,NA,NA,NA,""
"image-keyboard-response",100,160158,"0.0-3.29-2.29","mr61g5e6c6h9wml",518,"95.csv","","null","resources/images/fishbone.png","null","",NA,NA,NA,NA,""
"image-keyboard-response",101,160914,"0.0-3.30-0.30","mr61g5e6c6h9wml",518,"95.csv","","754.8999999761581","resources/trios/L1T1A3.jpg","38","restless",0.3,0.5,0.6,0.535947823817421,"false"
"image-keyboard-response",102,161319,"0.0-3.30-1.30","mr61g5e6c6h9wml",518,"95.csv","","null","resources/maskTrios/BT1B.jpg","null","",NA,NA,NA,NA,""
"image-keyboard-response",103,162525,"0.0-3.30-2.30","mr61g5e6c6h9wml",518,"95.csv","","null","resources/images/fishbone.png","null","",NA,NA,NA,NA,""
"image-keyboard-response",104,163314,"0.0-3.31-0.31","mr61g5e6c6h9wml",518,"95.csv","","787.6000000238419","resources/trios/L1T4A3.jpg","39","restless",0.4,0.5,0.6,0.712548631028129,"false"
"image-keyboard-response",105,163715,"0.0-3.31-1.31","mr61g5e6c6h9wml",518,"95.csv","","null","resources/maskTrios/BBA3.jpg","null","",NA,NA,NA,NA,""
"image-keyboard-response",106,164917,"0.0-3.31-2.31","mr61g5e6c6h9wml",518,"95.csv","","null","resources/images/fishbone.png","null","",NA,NA,NA,NA,""
"image-keyboard-response",107,165402,"0.0-3.32-0.32","mr61g5e6c6h9wml",518,"95.csv","","484.5","resources/trios/L1T4A3.jpg","37","restless",0.4,0.5,0.6,0.266307232891798,"true"
"image-keyboard-response",108,165807,"0.0-3.32-1.32","mr61g5e6c6h9wml",518,"95.csv","","null","resources/maskTrios/L1BB.jpg","null","",NA,NA,NA,NA,""
"image-keyboard-response",109,167013,"0.0-3.32-2.32","mr61g5e6c6h9wml",518,"95.csv","","null","resources/images/coin2.png","null","",NA,NA,NA,NA,""
"image-keyboard-response",110,167370,"0.0-3.33-0.33","mr61g5e6c6h9wml",518,"95.csv","","355.7000000476837","resources/trios/L1T1A2.jpg","38","restless",0.4,0.5,0.6,0.380770484477971,"true"
"image-keyboard-response",111,167776,"0.0-3.33-1.33","mr61g5e6c6h9wml",518,"95.csv","","null","resources/maskTrios/BT1B.jpg","null","",NA,NA,NA,NA,""
"image-keyboard-response",112,168982,"0.0-3.33-2.33","mr61g5e6c6h9wml",518,"95.csv","","null","resources/images/coin2.png","null","",NA,NA,NA,NA,""
"image-keyboard-response",113,169274,"0.0-3.34-0.34","mr61g5e6c6h9wml",518,"95.csv","","291.39999997615814","resources/trios/L1T1A2.jpg","39","restless",0.4,0.5,0.6,0.337216654828636,"true"
"image-keyboard-response",114,169680,"0.0-3.34-1.34","mr61g5e6c6h9wml",518,"95.csv","","null","resources/maskTrios/BBA2.jpg","null","",NA,NA,NA,NA,""
"image-keyboard-response",115,170885,"0.0-3.34-2.34","mr61g5e6c6h9wml",518,"95.csv","","null","resources/images/coin2.png","null","",NA,NA,NA,NA,""
"image-keyboard-response",116,171162,"0.0-3.35-0.35","mr61g5e6c6h9wml",518,"95.csv","","275.80000001192093","resources/trios/L1T4A3.jpg","38","restless",0.5,0.4,0.6,0.577581025958046,"false"
"image-keyboard-response",117,171564,"0.0-3.35-1.35","mr61g5e6c6h9wml",518,"95.csv","","null","resources/maskTrios/BT4B.jpg","null","",NA,NA,NA,NA,""
"image-keyboard-response",118,172770,"0.0-3.35-2.35","mr61g5e6c6h9wml",518,"95.csv","","null","resources/images/fishbone.png","null","",NA,NA,NA,NA,""
"image-keyboard-response",119,173354,"0.0-3.36-0.36","mr61g5e6c6h9wml",518,"95.csv","","583.1000000238419","resources/trios/L2T1A3.jpg","37","restless",0.5,0.4,0.6,0.611319752335926,"false"
"image-keyboard-response",120,173760,"0.0-3.36-1.36","mr61g5e6c6h9wml",518,"95.csv","","null","resources/maskTrios/L2BB.jpg","null","",NA,NA,NA,NA,""
"image-keyboard-response",121,174965,"0.0-3.36-2.36","mr61g5e6c6h9wml",518,"95.csv","","null","resources/images/fishbone.png","null","",NA,NA,NA,NA,""
"image-keyboard-response",122,175234,"0.0-3.37-0.37","mr61g5e6c6h9wml",518,"95.csv","","268.30000001192093","resources/trios/L1T1A3.jpg","38","restless",0.5,0.4,0.6,0.541389507153772,"false"
"image-keyboard-response",123,175635,"0.0-3.37-1.37","mr61g5e6c6h9wml",518,"95.csv","","null","resources/maskTrios/BT1B.jpg","null","",NA,NA,NA,NA,""
"image-keyboard-response",124,176839,"0.0-3.37-2.37","mr61g5e6c6h9wml",518,"95.csv","","null","resources/images/fishbone.png","null","",NA,NA,NA,NA,""
"image-keyboard-response",125,177234,"0.0-3.38-0.38","mr61g5e6c6h9wml",518,"95.csv","","394.5","resources/trios/L2T1A3.jpg","39","restless",0.5,0.4,0.6,0.829559277003559,"false"
"image-keyboard-response",126,177639,"0.0-3.38-1.38","mr61g5e6c6h9wml",518,"95.csv","","null","resources/maskTrios/BBA3.jpg","null","",NA,NA,NA,NA,""
"image-keyboard-response",127,178845,"0.0-3.38-2.38","mr61g5e6c6h9wml",518,"95.csv","","null","resources/images/fishbone.png","null","",NA,NA,NA,NA,""
"image-keyboard-response",128,179314,"0.0-3.39-0.39","mr61g5e6c6h9wml",518,"95.csv","","469","resources/trios/L1T1A3.jpg","38","restless",0.5,0.4,0.5,0.789714849675456,"false"
"image-keyboard-response",129,179721,"0.0-3.39-1.39","mr61g5e6c6h9wml",518,"95.csv","","null","resources/maskTrios/BT1B.jpg","null","",NA,NA,NA,NA,""
"image-keyboard-response",130,180927,"0.0-3.39-2.39","mr61g5e6c6h9wml",518,"95.csv","","null","resources/images/fishbone.png","null","",NA,NA,NA,NA,""
"image-keyboard-response",131,181754,"0.0-3.40-0.40","mr61g5e6c6h9wml",518,"95.csv","","827","resources/trios/L1T1A2.jpg","38","restless",0.5,0.4,0.5,0.973257814935395,"false"
"image-keyboard-response",132,182160,"0.0-3.40-1.40","mr61g5e6c6h9wml",518,"95.csv","","null","resources/maskTrios/BT1B.jpg","null","",NA,NA,NA,NA,""
"image-keyboard-response",133,183363,"0.0-3.40-2.40","mr61g5e6c6h9wml",518,"95.csv","","null","resources/images/fishbone.png","null","",NA,NA,NA,NA,""
"image-keyboard-response",134,184026,"0.0-3.41-0.41","mr61g5e6c6h9wml",518,"95.csv","","662.5","resources/trios/L1T1A3.jpg","39","restless",0.5,0.4,0.5,0.022655217467787,"true"
"image-keyboard-response",135,184432,"0.0-3.41-1.41","mr61g5e6c6h9wml",518,"95.csv","","null","resources/maskTrios/BBA3.jpg","null","",NA,NA,NA,NA,""
"image-keyboard-response",136,185636,"0.0-3.41-2.41","mr61g5e6c6h9wml",518,"95.csv","","null","resources/images/coin2.png","null","",NA,NA,NA,NA,""
"image-keyboard-response",137,186859,"0.0-3.42-0.42","mr61g5e6c6h9wml",518,"95.csv","","1221.5","resources/trios/L1T1A3.jpg","39","restless",0.5,0.4,0.5,0.296007042162413,"true"
"image-keyboard-response",138,187265,"0.0-3.42-1.42","mr61g5e6c6h9wml",518,"95.csv","","null","resources/maskTrios/BBA3.jpg","null","",NA,NA,NA,NA,""
"image-keyboard-response",139,188471,"0.0-3.42-2.42","mr61g5e6c6h9wml",518,"95.csv","","null","resources/images/coin2.png","null","",NA,NA,NA,NA,""
"image-keyboard-response",140,189411,"0.0-3.43-0.43","mr61g5e6c6h9wml",518,"95.csv","","939.0999999642372","resources/trios/L1T1A2.jpg","38","restless",0.5,0.4,0.5,0.803813810574375,"false"
"image-keyboard-response",141,189817,"0.0-3.43-1.43","mr61g5e6c6h9wml",518,"95.csv","","null","resources/maskTrios/BT1B.jpg","null","",NA,NA,NA,NA,""
"image-keyboard-response",142,191023,"0.0-3.43-2.43","mr61g5e6c6h9wml",518,"95.csv","","null","resources/images/fishbone.png","null","",NA,NA,NA,NA,""
"image-keyboard-response",143,192011,"0.0-3.44-0.44","mr61g5e6c6h9wml",518,"95.csv","","987.0999999642372","resources/trios/L2T1A2.jpg","38","restless",0.5,0.4,0.5,0.069748661672014,"true"
"image-keyboard-response",144,192414,"0.0-3.44-1.44","mr61g5e6c6h9wml",518,"95.csv","","null","resources/maskTrios/BT1B.jpg","null","",NA,NA,NA,NA,""
"image-keyboard-response",145,193620,"0.0-3.44-2.44","mr61g5e6c6h9wml",518,"95.csv","","null","resources/images/coin2.png","null","",NA,NA,NA,NA,""
"image-keyboard-response",146,195367,"0.0-3.45-0.45","mr61g5e6c6h9wml",518,"95.csv","","1745.8999999761581","resources/trios/L1T1A2.jpg","37","restless",0.5,0.4,0.5,0.974322979190505,"false"
"image-keyboard-response",147,195769,"0.0-3.45-1.45","mr61g5e6c6h9wml",518,"95.csv","","null","resources/maskTrios/L1BB.jpg","null","",NA,NA,NA,NA,""
"image-keyboard-response",148,196975,"0.0-3.45-2.45","mr61g5e6c6h9wml",518,"95.csv","","null","resources/images/fishbone.png","null","",NA,NA,NA,NA,""
"image-keyboard-response",149,197407,"0.0-3.46-0.46","mr61g5e6c6h9wml",518,"95.csv","","431.10000002384186","resources/trios/L1T1A2.jpg","38","restless",0.5,0.4,0.4,0.813251291591749,"false"
"image-keyboard-response",150,197808,"0.0-3.46-1.46","mr61g5e6c6h9wml",518,"95.csv","","null","resources/maskTrios/BT1B.jpg","null","",NA,NA,NA,NA,""
"image-keyboard-response",151,199014,"0.0-3.46-2.46","mr61g5e6c6h9wml",518,"95.csv","","null","resources/images/fishbone.png","null","",NA,NA,NA,NA,""
"image-keyboard-response",152,199968,"0.0-3.47-0.47","mr61g5e6c6h9wml",518,"95.csv","","952.6999999880791","resources/trios/L2T1A3.jpg","38","restless",0.5,0.4,0.4,0.615904280849963,"false"
"image-keyboard-response",153,200371,"0.0-3.47-1.47","mr61g5e6c6h9wml",518,"95.csv","","null","resources/maskTrios/BT1B.jpg","null","",NA,NA,NA,NA,""
"image-keyboard-response",154,201571,"0.0-3.47-2.47","mr61g5e6c6h9wml",518,"95.csv","","null","resources/images/fishbone.png","null","",NA,NA,NA,NA,""
"image-keyboard-response",155,203643,"0.0-3.48-0.48","mr61g5e6c6h9wml",518,"95.csv","","2070.199999988079","resources/trios/L2T1A2.jpg","38","restless",0.5,0.4,0.4,0.288472310189521,"true"
"image-keyboard-response",156,204049,"0.0-3.48-1.48","mr61g5e6c6h9wml",518,"95.csv","","null","resources/maskTrios/BT1B.jpg","null","",NA,NA,NA,NA,""
"image-keyboard-response",157,205255,"0.0-3.48-2.48","mr61g5e6c6h9wml",518,"95.csv","","null","resources/images/coin2.png","null","",NA,NA,NA,NA,""
"image-keyboard-response",158,207152,"0.0-3.49-0.49","mr61g5e6c6h9wml",518,"95.csv","","1895.5","resources/trios/L1T4A2.jpg","39","restless",0.5,0.4,0.4,0.40371526486122,"false"
"image-keyboard-response",159,207553,"0.0-3.49-1.49","mr61g5e6c6h9wml",518,"95.csv","","null","resources/maskTrios/BBA2.jpg","null","",NA,NA,NA,NA,""
"image-keyboard-response",160,208759,"0.0-3.49-2.49","mr61g5e6c6h9wml",518,"95.csv","","null","resources/images/fishbone.png","null","",NA,NA,NA,NA,""
"image-keyboard-response",161,209328,"0.0-3.50-0.50","mr61g5e6c6h9wml",518,"95.csv","","567.7000000476837","resources/trios/L1T4A2.jpg","37","restless",0.5,0.4,0.4,0.0440869644796198,"true"
"image-keyboard-response",162,209731,"0.0-3.50-1.50","mr61g5e6c6h9wml",518,"95.csv","","null","resources/maskTrios/L1BB.jpg","null","",NA,NA,NA,NA,""
"image-keyboard-response",163,210933,"0.0-3.50-2.50","mr61g5e6c6h9wml",518,"95.csv","","null","resources/images/coin2.png","null","",NA,NA,NA,NA,""
"image-keyboard-response",164,212064,"0.0-3.51-0.51","mr61g5e6c6h9wml",518,"95.csv","","1130.5","resources/trios/L1T1A2.jpg","38","restless",0.5,0.4,0.4,0.617463465492287,"false"
"image-keyboard-response",165,212470,"0.0-3.51-1.51","mr61g5e6c6h9wml",518,"95.csv","","null","resources/maskTrios/BT1B.jpg","null","",NA,NA,NA,NA,""
"image-keyboard-response",166,213676,"0.0-3.51-2.51","mr61g5e6c6h9wml",518,"95.csv","","null","resources/images/fishbone.png","null","",NA,NA,NA,NA,""
"image-keyboard-response",167,215312,"0.0-3.52-0.52","mr61g5e6c6h9wml",518,"95.csv","","1634.5999999642372","resources/trios/L2T4A3.jpg","39","restless",0.6,0.4,0.4,0.631588305877042,"false"
"image-keyboard-response",168,215714,"0.0-3.52-1.52","mr61g5e6c6h9wml",518,"95.csv","","null","resources/maskTrios/BBA3.jpg","null","",NA,NA,NA,NA,""
"image-keyboard-response",169,216917,"0.0-3.52-2.52","mr61g5e6c6h9wml",518,"95.csv","","null","resources/images/fishbone.png","null","",NA,NA,NA,NA,""
"image-keyboard-response",170,218448,"0.0-3.53-0.53","mr61g5e6c6h9wml",518,"95.csv","","1529.7000000476837","resources/trios/L1T4A2.jpg","37","restless",0.6,0.4,0.4,0.11914068644554,"true"
"image-keyboard-response",171,218854,"0.0-3.53-1.53","mr61g5e6c6h9wml",518,"95.csv","","null","resources/maskTrios/L1BB.jpg","null","",NA,NA,NA,NA,""
"image-keyboard-response",172,220059,"0.0-3.53-2.53","mr61g5e6c6h9wml",518,"95.csv","","null","resources/images/coin2.png","null","",NA,NA,NA,NA,""
"image-keyboard-response",173,220560,"0.0-3.54-0.54","mr61g5e6c6h9wml",518,"95.csv","","500.5","resources/trios/L1T1A3.jpg","38","restless",0.6,0.4,0.4,0.518545006907897,"false"
"image-keyboard-response",174,220966,"0.0-3.54-1.54","mr61g5e6c6h9wml",518,"95.csv","","null","resources/maskTrios/BT1B.jpg","null","",NA,NA,NA,NA,""
"image-keyboard-response",175,222172,"0.0-3.54-2.54","mr61g5e6c6h9wml",518,"95.csv","","null","resources/images/fishbone.png","null","",NA,NA,NA,NA,""
"image-keyboard-response",176,222448,"0.0-3.55-0.55","mr61g5e6c6h9wml",518,"95.csv","","275.4000000357628","resources/trios/L1T4A2.jpg","37","restless",0.6,0.4,0.4,0.352412692467053,"true"
"image-keyboard-response",177,222854,"0.0-3.55-1.55","mr61g5e6c6h9wml",518,"95.csv","","null","resources/maskTrios/L1BB.jpg","null","",NA,NA,NA,NA,""
"image-keyboard-response",178,224058,"0.0-3.55-2.55","mr61g5e6c6h9wml",518,"95.csv","","null","resources/images/coin2.png","null","",NA,NA,NA,NA,""
"image-keyboard-response",179,224191,"0.0-3.56-0.56","mr61g5e6c6h9wml",518,"95.csv","","132.5999999642372","resources/trios/L1T4A3.jpg","39","restless",0.7,0.4,0.4,0.93889363801592,"false"
"image-keyboard-response",180,224595,"0.0-3.56-1.56","mr61g5e6c6h9wml",518,"95.csv","","null","resources/maskTrios/BBA3.jpg","null","",NA,NA,NA,NA,""
"image-keyboard-response",181,225801,"0.0-3.56-2.56","mr61g5e6c6h9wml",518,"95.csv","","null","resources/images/fishbone.png","null","",NA,NA,NA,NA,""
"image-keyboard-response",182,226103,"0.0-3.57-0.57","mr61g5e6c6h9wml",518,"95.csv","","301.0999999642372","resources/trios/L1T1A3.jpg","38","restless",0.8,0.4,0.5,0.372275348440226,"true"
"image-keyboard-response",183,226509,"0.0-3.57-1.57","mr61g5e6c6h9wml",518,"95.csv","","null","resources/maskTrios/BT1B.jpg","null","",NA,NA,NA,NA,""
"image-keyboard-response",184,227715,"0.0-3.57-2.57","mr61g5e6c6h9wml",518,"95.csv","","null","resources/images/coin2.png","null","",NA,NA,NA,NA,""
"image-keyboard-response",185,227864,"0.0-3.58-0.58","mr61g5e6c6h9wml",518,"95.csv","","148.4000000357628","resources/trios/L1T4A2.jpg","37","restless",0.8,0.4,0.5,0.785299745794185,"true"
"image-keyboard-response",186,228266,"0.0-3.58-1.58","mr61g5e6c6h9wml",518,"95.csv","","null","resources/maskTrios/L1BB.jpg","null","",NA,NA,NA,NA,""
"image-keyboard-response",187,229472,"0.0-3.58-2.58","mr61g5e6c6h9wml",518,"95.csv","","null","resources/images/coin2.png","null","",NA,NA,NA,NA,""
"image-keyboard-response",188,229824,"0.0-3.59-0.59","mr61g5e6c6h9wml",518,"95.csv","","350.89999997615814","resources/trios/L1T1A2.jpg","38","restless",0.8,0.4,0.5,0.0881654875612925,"true"
"image-keyboard-response",189,230230,"0.0-3.59-1.59","mr61g5e6c6h9wml",518,"95.csv","","null","resources/maskTrios/BT1B.jpg","null","",NA,NA,NA,NA,""
"image-keyboard-response",190,231433,"0.0-3.59-2.59","mr61g5e6c6h9wml",518,"95.csv","","null","resources/images/coin2.png","null","",NA,NA,NA,NA,""
"image-keyboard-response",191,231816,"0.0-3.60-0.60","mr61g5e6c6h9wml",518,"95.csv","","381.69999998807907","resources/trios/L1T1A2.jpg","39","restless",0.8,0.4,0.5,0.486183169804981,"true"
"image-keyboard-response",192,232222,"0.0-3.60-1.60","mr61g5e6c6h9wml",518,"95.csv","","null","resources/maskTrios/BBA2.jpg","null","",NA,NA,NA,NA,""
"image-keyboard-response",193,233428,"0.0-3.60-2.60","mr61g5e6c6h9wml",518,"95.csv","","null","resources/images/coin2.png","null","",NA,NA,NA,NA,""
"image-keyboard-response",194,233705,"0.0-3.61-0.61","mr61g5e6c6h9wml",518,"95.csv","","275.30000001192093","resources/trios/L1T4A2.jpg","37","restless",0.8,0.4,0.5,0.258729233125066,"true"
"image-keyboard-response",195,234111,"0.0-3.61-1.61","mr61g5e6c6h9wml",518,"95.csv","","null","resources/maskTrios/L1BB.jpg","null","",NA,NA,NA,NA,""
"image-keyboard-response",196,235317,"0.0-3.61-2.61","mr61g5e6c6h9wml",518,"95.csv","","null","resources/images/coin2.png","null","",NA,NA,NA,NA,""
"image-keyboard-response",197,235785,"0.0-3.62-0.62","mr61g5e6c6h9wml",518,"95.csv","","467.19999998807907","resources/trios/L1T4A2.jpg","38","restless",0.8,0.4,0.5,0.350261594428938,"true"
"image-keyboard-response",198,236191,"0.0-3.62-1.62","mr61g5e6c6h9wml",518,"95.csv","","null","resources/maskTrios/BT4B.jpg","null","",NA,NA,NA,NA,""
"image-keyboard-response",199,237394,"0.0-3.62-2.62","mr61g5e6c6h9wml",518,"95.csv","","null","resources/images/coin2.png","null","",NA,NA,NA,NA,""
"image-keyboard-response",200,237769,"0.0-3.63-0.63","mr61g5e6c6h9wml",518,"95.csv","","374","resources/trios/L1T4A3.jpg","39","restless",0.8,0.4,0.5,0.825457395973315,"false"
"image-keyboard-response",201,238175,"0.0-3.63-1.63","mr61g5e6c6h9wml",518,"95.csv","","null","resources/maskTrios/BBA3.jpg","null","",NA,NA,NA,NA,""
"image-keyboard-response",202,239381,"0.0-3.63-2.63","mr61g5e6c6h9wml",518,"95.csv","","null","resources/images/fishbone.png","null","",NA,NA,NA,NA,""
"image-keyboard-response",203,239720,"0.0-3.64-0.64","mr61g5e6c6h9wml",518,"95.csv","","338.89999997615814","resources/trios/L2T4A3.jpg","37","restless",0.8,0.4,0.5,0.609301658693139,"true"
"image-keyboard-response",204,240126,"0.0-3.64-1.64","mr61g5e6c6h9wml",518,"95.csv","","null","resources/maskTrios/L2BB.jpg","null","",NA,NA,NA,NA,""
"image-keyboard-response",205,241333,"0.0-3.64-2.64","mr61g5e6c6h9wml",518,"95.csv","","null","resources/images/coin2.png","null","",NA,NA,NA,NA,""
"image-keyboard-response",206,241760,"0.0-3.65-0.65","mr61g5e6c6h9wml",518,"95.csv","","427","resources/trios/L1T4A3.jpg","38","restless",0.9,0.4,0.5,0.229180656599862,"true"
"image-keyboard-response",207,242167,"0.0-3.65-1.65","mr61g5e6c6h9wml",518,"95.csv","","null","resources/maskTrios/BT4B.jpg","null","",NA,NA,NA,NA,""
"image-keyboard-response",208,243371,"0.0-3.65-2.65","mr61g5e6c6h9wml",518,"95.csv","","null","resources/images/coin2.png","null","",NA,NA,NA,NA,""
"image-keyboard-response",209,243729,"0.0-3.66-0.66","mr61g5e6c6h9wml",518,"95.csv","","356.5","resources/trios/L2T4A3.jpg","37","restless",0.8,0.4,0.6,0.873115715803125,"false"
"image-keyboard-response",210,244131,"0.0-3.66-1.66","mr61g5e6c6h9wml",518,"95.csv","","null","resources/maskTrios/L2BB.jpg","null","",NA,NA,NA,NA,""
"image-keyboard-response",211,245337,"0.0-3.66-2.66","mr61g5e6c6h9wml",518,"95.csv","","null","resources/images/fishbone.png","null","",NA,NA,NA,NA,""
"image-keyboard-response",212,245736,"0.0-3.67-0.67","mr61g5e6c6h9wml",518,"95.csv","","398.39999997615814","resources/trios/L1T1A2.jpg","38","restless",0.8,0.4,0.6,0.441687674273856,"false"
"image-keyboard-response",213,246142,"0.0-3.67-1.67","mr61g5e6c6h9wml",518,"95.csv","","null","resources/maskTrios/BT1B.jpg","null","",NA,NA,NA,NA,""
"image-keyboard-response",214,247348,"0.0-3.67-2.67","mr61g5e6c6h9wml",518,"95.csv","","null","resources/images/fishbone.png","null","",NA,NA,NA,NA,""
"image-keyboard-response",215,247744,"0.0-3.68-0.68","mr61g5e6c6h9wml",518,"95.csv","","395.7999999523163","resources/trios/L1T4A2.jpg","38","restless",0.8,0.4,0.6,0.388958242637206,"true"
"image-keyboard-response",216,248150,"0.0-3.68-1.68","mr61g5e6c6h9wml",518,"95.csv","","null","resources/maskTrios/BT4B.jpg","null","",NA,NA,NA,NA,""
"image-keyboard-response",217,249355,"0.0-3.68-2.68","mr61g5e6c6h9wml",518,"95.csv","","null","resources/images/coin2.png","null","",NA,NA,NA,NA,""
"image-keyboard-response",218,249489,"0.0-3.69-0.69","mr61g5e6c6h9wml",518,"95.csv","","132.30000001192093","resources/trios/L1T4A2.jpg","39","restless",0.8,0.4,0.6,0.0235671232065824,"true"
"image-keyboard-response",219,249892,"0.0-3.69-1.69","mr61g5e6c6h9wml",518,"95.csv","","null","resources/maskTrios/BBA2.jpg","null","",NA,NA,NA,NA,""
"image-keyboard-response",220,251098,"0.0-3.69-2.69","mr61g5e6c6h9wml",518,"95.csv","","null","resources/images/coin2.png","null","",NA,NA,NA,NA,""
"image-keyboard-response",221,251489,"0.0-3.70-0.70","mr61g5e6c6h9wml",518,"95.csv","","389.9000000357628","resources/trios/L2T1A2.jpg","37","restless",0.8,0.4,0.6,0.948297264554689,"false"
"image-keyboard-response",222,251892,"0.0-3.70-1.70","mr61g5e6c6h9wml",518,"95.csv","","null","resources/maskTrios/L2BB.jpg","null","",NA,NA,NA,NA,""
"image-keyboard-response",223,253098,"0.0-3.70-2.70","mr61g5e6c6h9wml",518,"95.csv","","null","resources/images/fishbone.png","null","",NA,NA,NA,NA,""
"image-keyboard-response",224,253393,"0.0-3.71-0.71","mr61g5e6c6h9wml",518,"95.csv","","293.9000000357628","resources/trios/L1T1A3.jpg","38","restless",0.8,0.3,0.6,0.831526218061897,"false"
"image-keyboard-response",225,253795,"0.0-3.71-1.71","mr61g5e6c6h9wml",518,"95.csv","","null","resources/maskTrios/BT1B.jpg","null","",NA,NA,NA,NA,""
"image-keyboard-response",226,254997,"0.0-3.71-2.71","mr61g5e6c6h9wml",518,"95.csv","","null","resources/images/fishbone.png","null","",NA,NA,NA,NA,""
"image-keyboard-response",227,255345,"0.0-3.72-0.72","mr61g5e6c6h9wml",518,"95.csv","","347.0999999642372","resources/trios/L1T1A3.jpg","38","restless",0.8,0.2,0.6,0.622433911499,"false"
"image-keyboard-response",228,255746,"0.0-3.72-1.72","mr61g5e6c6h9wml",518,"95.csv","","null","resources/maskTrios/BT1B.jpg","null","",NA,NA,NA,NA,""
"image-keyboard-response",229,256950,"0.0-3.72-2.72","mr61g5e6c6h9wml",518,"95.csv","","null","resources/images/fishbone.png","null","",NA,NA,NA,NA,""
"image-keyboard-response",230,257209,"0.0-3.73-0.73","mr61g5e6c6h9wml",518,"95.csv","","258","resources/trios/L1T1A2.jpg","38","restless",0.8,0.2,0.6,0.286966168261318,"false"
"image-keyboard-response",231,257612,"0.0-3.73-1.73","mr61g5e6c6h9wml",518,"95.csv","","null","resources/maskTrios/BT1B.jpg","null","",NA,NA,NA,NA,""
"image-keyboard-response",232,258817,"0.0-3.73-2.73","mr61g5e6c6h9wml",518,"95.csv","","null","resources/images/fishbone.png","null","",NA,NA,NA,NA,""
"image-keyboard-response",233,258969,"0.0-3.74-0.74","mr61g5e6c6h9wml",518,"95.csv","","150.70000004768372","resources/trios/L1T1A3.jpg","39","restless",0.8,0.2,0.6,0.592302752411719,"true"
"image-keyboard-response",234,259371,"0.0-3.74-1.74","mr61g5e6c6h9wml",518,"95.csv","","null","resources/maskTrios/BBA3.jpg","null","",NA,NA,NA,NA,""
"image-keyboard-response",235,260574,"0.0-3.74-2.74","mr61g5e6c6h9wml",518,"95.csv","","null","resources/images/coin2.png","null","",NA,NA,NA,NA,""
"image-keyboard-response",236,260673,"0.0-3.75-0.75","mr61g5e6c6h9wml",518,"95.csv","","97.59999996423721","resources/trios/L1T4A2.jpg","37","restless",0.8,0.2,0.6,0.842079571277729,"false"
"image-keyboard-response",237,261077,"0.0-3.75-1.75","mr61g5e6c6h9wml",518,"95.csv","","null","resources/maskTrios/L1BB.jpg","null","",NA,NA,NA,NA,""
"image-keyboard-response",238,262283,"0.0-3.75-2.75","mr61g5e6c6h9wml",518,"95.csv","","null","resources/images/fishbone.png","null","",NA,NA,NA,NA,""
"image-keyboard-response",239,262593,"0.0-3.76-0.76","mr61g5e6c6h9wml",518,"95.csv","","309.10000002384186","resources/trios/L2T4A3.jpg","38","restless",0.8,0.1,0.6,0.932735410005111,"false"
"image-keyboard-response",240,262997,"0.0-3.76-1.76","mr61g5e6c6h9wml",518,"95.csv","","null","resources/maskTrios/BT4B.jpg","null","",NA,NA,NA,NA,""
"image-keyboard-response",241,264203,"0.0-3.76-2.76","mr61g5e6c6h9wml",518,"95.csv","","null","resources/images/fishbone.png","null","",NA,NA,NA,NA,""
"image-keyboard-response",242,264329,"0.0-3.77-0.77","mr61g5e6c6h9wml",518,"95.csv","","125.60000002384186","resources/trios/L1T4A3.jpg","37","restless",0.8,0.1,0.6,0.701183834019987,"true"
"image-keyboard-response",243,264731,"0.0-3.77-1.77","mr61g5e6c6h9wml",518,"95.csv","","null","resources/maskTrios/L1BB.jpg","null","",NA,NA,NA,NA,""
"image-keyboard-response",244,265934,"0.0-3.77-2.77","mr61g5e6c6h9wml",518,"95.csv","","null","resources/images/coin2.png","null","",NA,NA,NA,NA,""
"image-keyboard-response",245,266329,"0.0-3.78-0.78","mr61g5e6c6h9wml",518,"95.csv","","394.10000002384186","resources/trios/L1T4A3.jpg","39","restless",0.8,0.1,0.6,0.859076189993372,"false"
"image-keyboard-response",246,266731,"0.0-3.78-1.78","mr61g5e6c6h9wml",518,"95.csv","","null","resources/maskTrios/BBA3.jpg","null","",NA,NA,NA,NA,""
"image-keyboard-response",247,267934,"0.0-3.78-2.78","mr61g5e6c6h9wml",518,"95.csv","","null","resources/images/fishbone.png","null","",NA,NA,NA,NA,""
"image-keyboard-response",248,268233,"0.0-3.79-0.79","mr61g5e6c6h9wml",518,"95.csv","","298.19999998807907","resources/trios/L1T4A2.jpg","38","restless",0.8,0.1,0.7,0.743973051921425,"false"
"image-keyboard-response",249,268638,"0.0-3.79-1.79","mr61g5e6c6h9wml",518,"95.csv","","null","resources/maskTrios/BT4B.jpg","null","",NA,NA,NA,NA,""
"image-keyboard-response",250,269842,"0.0-3.79-2.79","mr61g5e6c6h9wml",518,"95.csv","","null","resources/images/fishbone.png","null","",NA,NA,NA,NA,""
"image-keyboard-response",251,269993,"0.0-3.80-0.80","mr61g5e6c6h9wml",518,"95.csv","","149.60000002384186","resources/trios/L1T1A2.jpg","37","restless",0.8,0.1,0.7,0.295426550167869,"true"
"image-keyboard-response",252,270399,"0.0-3.80-1.80","mr61g5e6c6h9wml",518,"95.csv","","null","resources/maskTrios/L1BB.jpg","null","",NA,NA,NA,NA,""
"image-keyboard-response",253,271605,"0.0-3.80-2.80","mr61g5e6c6h9wml",518,"95.csv","","null","resources/images/coin2.png","null","",NA,NA,NA,NA,""
"image-keyboard-response",254,271937,"0.0-3.81-0.81","mr61g5e6c6h9wml",518,"95.csv","","331.0999999642372","resources/trios/L2T4A2.jpg","39","restless",0.8,0.1,0.7,0.72078433791763,"false"
"image-keyboard-response",255,272341,"0.0-3.81-1.81","mr61g5e6c6h9wml",518,"95.csv","","null","resources/maskTrios/BBA2.jpg","null","",NA,NA,NA,NA,""
"image-keyboard-response",256,273547,"0.0-3.81-2.81","mr61g5e6c6h9wml",518,"95.csv","","null","resources/images/fishbone.png","null","",NA,NA,NA,NA,""
"image-keyboard-response",257,273809,"0.0-3.82-0.82","mr61g5e6c6h9wml",518,"95.csv","","261.5","resources/trios/L1T4A3.jpg","38","restless",0.8,0.1,0.7,0.517331387485934,"false"
"image-keyboard-response",258,274215,"0.0-3.82-1.82","mr61g5e6c6h9wml",518,"95.csv","","null","resources/maskTrios/BT4B.jpg","null","",NA,NA,NA,NA,""
"image-keyboard-response",259,275420,"0.0-3.82-2.82","mr61g5e6c6h9wml",518,"95.csv","","null","resources/images/fishbone.png","null","",NA,NA,NA,NA,""
"image-keyboard-response",260,275721,"0.0-3.83-0.83","mr61g5e6c6h9wml",518,"95.csv","","300.39999997615814","resources/trios/L2T4A2.jpg","37","restless",0.8,0.1,0.7,0.85057175133797,"false"
"image-keyboard-response",261,276122,"0.0-3.83-1.83","mr61g5e6c6h9wml",518,"95.csv","","null","resources/maskTrios/L2BB.jpg","null","",NA,NA,NA,NA,""
"image-keyboard-response",262,277324,"0.0-3.83-2.83","mr61g5e6c6h9wml",518,"95.csv","","null","resources/images/fishbone.png","null","",NA,NA,NA,NA,""
"image-keyboard-response",263,277425,"0.0-3.84-0.84","mr61g5e6c6h9wml",518,"95.csv","","100.80000001192093","resources/trios/L1T1A2.jpg","39","restless",0.8,0.1,0.7,0.0101125078888133,"true"
"image-keyboard-response",264,277829,"0.0-3.84-1.84","mr61g5e6c6h9wml",518,"95.csv","","null","resources/maskTrios/BBA2.jpg","null","",NA,NA,NA,NA,""
"image-keyboard-response",265,279032,"0.0-3.84-2.84","mr61g5e6c6h9wml",518,"95.csv","","null","resources/images/coin2.png","null","",NA,NA,NA,NA,""
"image-keyboard-response",266,279281,"0.0-3.85-0.85","mr61g5e6c6h9wml",518,"95.csv","","248.19999998807907","resources/trios/L1T4A2.jpg","38","restless",0.8,0.1,0.7,0.283088742939347,"false"
"image-keyboard-response",267,279684,"0.0-3.85-1.85","mr61g5e6c6h9wml",518,"95.csv","","null","resources/maskTrios/BT4B.jpg","null","",NA,NA,NA,NA,""
"image-keyboard-response",268,280887,"0.0-3.85-2.85","mr61g5e6c6h9wml",518,"95.csv","","null","resources/images/fishbone.png","null","",NA,NA,NA,NA,""
"image-keyboard-response",269,281208,"0.0-3.86-0.86","mr61g5e6c6h9wml",518,"95.csv","","320.30000001192093","resources/trios/L1T1A3.jpg","37","restless",0.8,0.1,0.7,0.91204726497604,"false"
"image-keyboard-response",270,281614,"0.0-3.86-1.86","mr61g5e6c6h9wml",518,"95.csv","","null","resources/maskTrios/L1BB.jpg","null","",NA,NA,NA,NA,""
"image-keyboard-response",271,282820,"0.0-3.86-2.86","mr61g5e6c6h9wml",518,"95.csv","","null","resources/images/fishbone.png","null","",NA,NA,NA,NA,""
"image-keyboard-response",272,283329,"0.0-3.87-0.87","mr61g5e6c6h9wml",518,"95.csv","","508.5","resources/trios/L1T4A3.jpg","39","restless",0.8,0.1,0.7,0.518436718918196,"true"
"image-keyboard-response",273,283735,"0.0-3.87-1.87","mr61g5e6c6h9wml",518,"95.csv","","null","resources/maskTrios/BBA3.jpg","null","",NA,NA,NA,NA,""
"image-keyboard-response",274,284942,"0.0-3.87-2.87","mr61g5e6c6h9wml",518,"95.csv","","null","resources/images/coin2.png","null","",NA,NA,NA,NA,""
"image-keyboard-response",275,286201,"0.0-3.88-0.88","mr61g5e6c6h9wml",518,"95.csv","","1259","resources/trios/L2T4A2.jpg","38","restless",0.8,0.1,0.7,0.506090361923934,"false"
"image-keyboard-response",276,286606,"0.0-3.88-1.88","mr61g5e6c6h9wml",518,"95.csv","","null","resources/maskTrios/BT4B.jpg","null","",NA,NA,NA,NA,""
"image-keyboard-response",277,287809,"0.0-3.88-2.88","mr61g5e6c6h9wml",518,"95.csv","","null","resources/images/fishbone.png","null","",NA,NA,NA,NA,""
"image-keyboard-response",278,288170,"0.0-3.89-0.89","mr61g5e6c6h9wml",518,"95.csv","","359.39999997615814","resources/trios/L1T1A3.jpg","39","restless",0.8,0.1,0.7,0.837001210527738,"false"
"image-keyboard-response",279,288576,"0.0-3.89-1.89","mr61g5e6c6h9wml",518,"95.csv","","null","resources/maskTrios/BBA3.jpg","null","",NA,NA,NA,NA,""
"image-keyboard-response",280,289778,"0.0-3.89-2.89","mr61g5e6c6h9wml",518,"95.csv","","null","resources/images/fishbone.png","null","",NA,NA,NA,NA,""
"image-keyboard-response",281,290586,"0.0-3.90-0.90","mr61g5e6c6h9wml",518,"95.csv","","806.6999999880791","resources/trios/L2T4A3.jpg","39","restless",0.8,0.2,0.7,0.176545665474127,"true"
"image-keyboard-response",282,290990,"0.0-3.90-1.90","mr61g5e6c6h9wml",518,"95.csv","","null","resources/maskTrios/BBA3.jpg","null","",NA,NA,NA,NA,""
"image-keyboard-response",283,292196,"0.0-3.90-2.90","mr61g5e6c6h9wml",518,"95.csv","","null","resources/images/coin2.png","null","",NA,NA,NA,NA,""
"image-keyboard-response",284,292762,"0.0-3.91-0.91","mr61g5e6c6h9wml",518,"95.csv","","565","resources/trios/L2T1A3.jpg","38","restless",0.8,0.3,0.7,0.706860457362695,"false"
"image-keyboard-response",285,293166,"0.0-3.91-1.91","mr61g5e6c6h9wml",518,"95.csv","","null","resources/maskTrios/BT1B.jpg","null","",NA,NA,NA,NA,""
"image-keyboard-response",286,294372,"0.0-3.91-2.91","mr61g5e6c6h9wml",518,"95.csv","","null","resources/images/fishbone.png","null","",NA,NA,NA,NA,""
"image-keyboard-response",287,295402,"0.0-3.92-0.92","mr61g5e6c6h9wml",518,"95.csv","","1028.800000011921","resources/trios/L2T1A3.jpg","39","restless",0.8,0.3,0.7,0.210673018150795,"true"
"image-keyboard-response",288,295808,"0.0-3.92-1.92","mr61g5e6c6h9wml",518,"95.csv","","null","resources/maskTrios/BBA3.jpg","null","",NA,NA,NA,NA,""
"image-keyboard-response",289,297011,"0.0-3.92-2.92","mr61g5e6c6h9wml",518,"95.csv","","null","resources/images/coin2.png","null","",NA,NA,NA,NA,""
"image-keyboard-response",290,298949,"0.0-3.93-0.93","mr61g5e6c6h9wml",518,"95.csv","","1936.4000000357628","resources/trios/L2T4A2.jpg","37","restless",0.8,0.3,0.7,0.886007963629889,"false"
"image-keyboard-response",291,299355,"0.0-3.93-1.93","mr61g5e6c6h9wml",518,"95.csv","","null","resources/maskTrios/L2BB.jpg","null","",NA,NA,NA,NA,""
"image-keyboard-response",292,300560,"0.0-3.93-2.93","mr61g5e6c6h9wml",518,"95.csv","","null","resources/images/fishbone.png","null","",NA,NA,NA,NA,""
"image-keyboard-response",293,301405,"0.0-3.94-0.94","mr61g5e6c6h9wml",518,"95.csv","","843.6999999880791","resources/trios/L2T4A2.jpg","38","restless",0.8,0.3,0.7,0.515318007055083,"false"
"image-keyboard-response",294,301809,"0.0-3.94-1.94","mr61g5e6c6h9wml",518,"95.csv","","null","resources/maskTrios/BT4B.jpg","null","",NA,NA,NA,NA,""
"image-keyboard-response",295,303013,"0.0-3.94-2.94","mr61g5e6c6h9wml",518,"95.csv","","null","resources/images/fishbone.png","null","",NA,NA,NA,NA,""
"image-keyboard-response",296,303973,"0.0-3.95-0.95","mr61g5e6c6h9wml",518,"95.csv","","958.8000000119209","resources/trios/L1T4A2.jpg","37","restless",0.8,0.3,0.7,0.0766074254991473,"true"
"image-keyboard-response",297,304379,"0.0-3.95-1.95","mr61g5e6c6h9wml",518,"95.csv","","null","resources/maskTrios/L1BB.jpg","null","",NA,NA,NA,NA,""
"image-keyboard-response",298,305585,"0.0-3.95-2.95","mr61g5e6c6h9wml",518,"95.csv","","null","resources/images/coin2.png","null","",NA,NA,NA,NA,""
"image-keyboard-response",299,306845,"0.0-3.96-0.96","mr61g5e6c6h9wml",518,"95.csv","","1258.800000011921","resources/trios/L1T1A2.jpg","38","restless",0.7,0.3,0.7,0.0131673201022469,"true"
"image-keyboard-response",300,307248,"0.0-3.96-1.96","mr61g5e6c6h9wml",518,"95.csv","","null","resources/maskTrios/BT1B.jpg","null","",NA,NA,NA,NA,""
"image-keyboard-response",301,308454,"0.0-3.96-2.96","mr61g5e6c6h9wml",518,"95.csv","","null","resources/images/coin2.png","null","",NA,NA,NA,NA,""
"image-keyboard-response",302,310389,"0.0-3.97-0.97","mr61g5e6c6h9wml",518,"95.csv","","1934.199999988079","resources/trios/L2T4A2.jpg","39","restless",0.7,0.3,0.7,0.362141954753695,"true"
"image-keyboard-response",303,310795,"0.0-3.97-1.97","mr61g5e6c6h9wml",518,"95.csv","","null","resources/maskTrios/BBA2.jpg","null","",NA,NA,NA,NA,""
"image-keyboard-response",304,311997,"0.0-3.97-2.97","mr61g5e6c6h9wml",518,"95.csv","","null","resources/images/coin2.png","null","",NA,NA,NA,NA,""
"image-keyboard-response",305,313365,"0.0-3.98-0.98","mr61g5e6c6h9wml",518,"95.csv","","1366.5999999642372","resources/trios/L1T1A3.jpg","39","restless",0.7,0.3,0.7,0.423585223640067,"true"
"image-keyboard-response",306,313771,"0.0-3.98-1.98","mr61g5e6c6h9wml",518,"95.csv","","null","resources/maskTrios/BBA3.jpg","null","",NA,NA,NA,NA,""
"image-keyboard-response",307,314975,"0.0-3.98-2.98","mr61g5e6c6h9wml",518,"95.csv","","null","resources/images/coin2.png","null","",NA,NA,NA,NA,""
"image-keyboard-response",308,316532,"0.0-3.99-0.99","mr61g5e6c6h9wml",518,"95.csv","","1556","resources/trios/L2T1A2.jpg","39","restless",0.7,0.3,0.7,0.206621603465629,"true"
"image-keyboard-response",309,316935,"0.0-3.99-1.99","mr61g5e6c6h9wml",518,"95.csv","","null","resources/maskTrios/BBA2.jpg","null","",NA,NA,NA,NA,""
"image-keyboard-response",310,318138,"0.0-3.99-2.99","mr61g5e6c6h9wml",518,"95.csv","","null","resources/images/coin2.png","null","",NA,NA,NA,NA,""
"image-keyboard-response",311,319461,"0.0-3.100-0.100","mr61g5e6c6h9wml",518,"95.csv","","1321.8999999761581","resources/trios/L1T4A2.jpg","37","restless",0.7,0.4,0.7,0.448020517012865,"true"
"image-keyboard-response",312,319867,"0.0-3.100-1.100","mr61g5e6c6h9wml",518,"95.csv","","null","resources/maskTrios/L1BB.jpg","null","",NA,NA,NA,NA,""
"image-keyboard-response",313,321073,"0.0-3.100-2.100","mr61g5e6c6h9wml",518,"95.csv","","null","resources/images/coin2.png","null","",NA,NA,NA,NA,""
"image-keyboard-response",314,321821,"0.0-3.101-0.101","mr61g5e6c6h9wml",518,"95.csv","","747.5","resources/trios/L1T4A2.jpg","37","restless",0.7,0.4,0.7,0.848121597962746,"false"
"image-keyboard-response",315,322226,"0.0-3.101-1.101","mr61g5e6c6h9wml",518,"95.csv","","null","resources/maskTrios/L1BB.jpg","null","",NA,NA,NA,NA,""
"image-keyboard-response",316,323432,"0.0-3.101-2.101","mr61g5e6c6h9wml",518,"95.csv","","null","resources/images/fishbone.png","null","",NA,NA,NA,NA,""
"image-keyboard-response",317,324573,"0.0-3.102-0.102","mr61g5e6c6h9wml",518,"95.csv","","1139.8999999761581","resources/trios/L1T4A3.jpg","39","restless",0.7,0.4,0.8,0.443601455406925,"true"
"image-keyboard-response",318,324979,"0.0-3.102-1.102","mr61g5e6c6h9wml",518,"95.csv","","null","resources/maskTrios/BBA3.jpg","null","",NA,NA,NA,NA,""
"image-keyboard-response",319,326185,"0.0-3.102-2.102","mr61g5e6c6h9wml",518,"95.csv","","null","resources/images/coin2.png","null","",NA,NA,NA,NA,""
"image-keyboard-response",320,327413,"0.0-3.103-0.103","mr61g5e6c6h9wml",518,"95.csv","","1227.5","resources/trios/L1T4A2.jpg","37","restless",0.6,0.4,0.7,0.235625201380078,"true"
"image-keyboard-response",321,327819,"0.0-3.103-1.103","mr61g5e6c6h9wml",518,"95.csv","","null","resources/maskTrios/L1BB.jpg","null","",NA,NA,NA,NA,""
"image-keyboard-response",322,329022,"0.0-3.103-2.103","mr61g5e6c6h9wml",518,"95.csv","","null","resources/images/coin2.png","null","",NA,NA,NA,NA,""
"image-keyboard-response",323,329773,"0.0-3.104-0.104","mr61g5e6c6h9wml",518,"95.csv","","750.1999999880791","resources/trios/L1T4A3.jpg","39","restless",0.6,0.4,0.7,0.944545717576448,"false"
"image-keyboard-response",324,330179,"0.0-3.104-1.104","mr61g5e6c6h9wml",518,"95.csv","","null","resources/maskTrios/BBA3.jpg","null","",NA,NA,NA,NA,""
"image-keyboard-response",325,331385,"0.0-3.104-2.104","mr61g5e6c6h9wml",518,"95.csv","","null","resources/images/fishbone.png","null","",NA,NA,NA,NA,""
"image-keyboard-response",326,333078,"0.0-3.105-0.105","mr61g5e6c6h9wml",518,"95.csv","","1691.3999999761581","resources/trios/L1T1A3.jpg","39","restless",0.5,0.4,0.7,0.0240284989386397,"true"
"image-keyboard-response",327,333484,"0.0-3.105-1.105","mr61g5e6c6h9wml",518,"95.csv","","null","resources/maskTrios/BBA3.jpg","null","",NA,NA,NA,NA,""
"image-keyboard-response",328,334686,"0.0-3.105-2.105","mr61g5e6c6h9wml",518,"95.csv","","null","resources/images/coin2.png","null","",NA,NA,NA,NA,""
"image-keyboard-response",329,336437,"0.0-3.106-0.106","mr61g5e6c6h9wml",518,"95.csv","","1750.6000000238419","resources/trios/L1T1A3.jpg","37","restless",0.5,0.5,0.7,0.19815866871861,"true"
"image-keyboard-response",330,336842,"0.0-3.106-1.106","mr61g5e6c6h9wml",518,"95.csv","","null","resources/maskTrios/L1BB.jpg","null","",NA,NA,NA,NA,""
"image-keyboard-response",331,338045,"0.0-3.106-2.106","mr61g5e6c6h9wml",518,"95.csv","","null","resources/images/coin2.png","null","",NA,NA,NA,NA,""
"image-keyboard-response",332,339686,"0.0-3.107-0.107","mr61g5e6c6h9wml",518,"95.csv","","1639.699999988079","resources/trios/L2T1A3.jpg","39","restless",0.5,0.5,0.7,0.348113861925138,"true"
"image-keyboard-response",333,340092,"0.0-3.107-1.107","mr61g5e6c6h9wml",518,"95.csv","","null","resources/maskTrios/BBA3.jpg","null","",NA,NA,NA,NA,""
"image-keyboard-response",334,341295,"0.0-3.107-2.107","mr61g5e6c6h9wml",518,"95.csv","","null","resources/images/coin2.png","null","",NA,NA,NA,NA,""
"image-keyboard-response",335,343730,"0.0-3.108-0.108","mr61g5e6c6h9wml",518,"95.csv","","2434.100000023842","resources/trios/L2T4A3.jpg","38","restless",0.5,0.5,0.7,0.547241241546851,"false"
"image-keyboard-response",336,344133,"0.0-3.108-1.108","mr61g5e6c6h9wml",518,"95.csv","","null","resources/maskTrios/BT4B.jpg","null","",NA,NA,NA,NA,""
"image-keyboard-response",337,345336,"0.0-3.108-2.108","mr61g5e6c6h9wml",518,"95.csv","","null","resources/images/fishbone.png","null","",NA,NA,NA,NA,""
"image-keyboard-response",338,345610,"0.0-3.109-0.109","mr61g5e6c6h9wml",518,"95.csv","","272.7999999523163","resources/trios/L2T4A2.jpg","37","restless",0.5,0.5,0.7,0.291007452883757,"true"
"image-keyboard-response",339,346014,"0.0-3.109-1.109","mr61g5e6c6h9wml",518,"95.csv","","null","resources/maskTrios/L2BB.jpg","null","",NA,NA,NA,NA,""
"image-keyboard-response",340,347220,"0.0-3.109-2.109","mr61g5e6c6h9wml",518,"95.csv","","null","resources/images/coin2.png","null","",NA,NA,NA,NA,""
"image-keyboard-response",341,347674,"0.0-3.110-0.110","mr61g5e6c6h9wml",518,"95.csv","","453.10000002384186","resources/trios/L2T1A3.jpg","39","restless",0.5,0.5,0.8,0.253273819045782,"true"
"image-keyboard-response",342,348078,"0.0-3.110-1.110","mr61g5e6c6h9wml",518,"95.csv","","null","resources/maskTrios/BBA3.jpg","null","",NA,NA,NA,NA,""
"image-keyboard-response",343,349279,"0.0-3.110-2.110","mr61g5e6c6h9wml",518,"95.csv","","null","resources/images/coin2.png","null","",NA,NA,NA,NA,""
"image-keyboard-response",344,350330,"0.0-3.111-0.111","mr61g5e6c6h9wml",518,"95.csv","","1049.800000011921","resources/trios/L2T1A3.jpg","39","restless",0.5,0.5,0.8,0.851023000685249,"false"
"image-keyboard-response",345,350735,"0.0-3.111-1.111","mr61g5e6c6h9wml",518,"95.csv","","null","resources/maskTrios/BBA3.jpg","null","",NA,NA,NA,NA,""
"image-keyboard-response",346,351936,"0.0-3.111-2.111","mr61g5e6c6h9wml",518,"95.csv","","null","resources/images/fishbone.png","null","",NA,NA,NA,NA,""
"image-keyboard-response",347,352874,"0.0-3.112-0.112","mr61g5e6c6h9wml",518,"95.csv","","937.6999999880791","resources/trios/L1T4A2.jpg","37","restless",0.4,0.5,0.8,0.84971776196282,"false"
"image-keyboard-response",348,353280,"0.0-3.112-1.112","mr61g5e6c6h9wml",518,"95.csv","","null","resources/maskTrios/L1BB.jpg","null","",NA,NA,NA,NA,""
"image-keyboard-response",349,354486,"0.0-3.112-2.112","mr61g5e6c6h9wml",518,"95.csv","","null","resources/images/fishbone.png","null","",NA,NA,NA,NA,""
"image-keyboard-response",350,354906,"0.0-3.113-0.113","mr61g5e6c6h9wml",518,"95.csv","","419.30000001192093","resources/trios/L2T4A3.jpg","39","restless",0.4,0.5,0.8,0.978182751753784,"false"
"image-keyboard-response",351,355311,"0.0-3.113-1.113","mr61g5e6c6h9wml",518,"95.csv","","null","resources/maskTrios/BBA3.jpg","null","",NA,NA,NA,NA,""
"image-keyboard-response",352,356514,"0.0-3.113-2.113","mr61g5e6c6h9wml",518,"95.csv","","null","resources/images/fishbone.png","null","",NA,NA,NA,NA,""
"image-keyboard-response",353,357330,"0.0-3.114-0.114","mr61g5e6c6h9wml",518,"95.csv","","815.3000000119209","resources/trios/L1T4A2.jpg","37","restless",0.4,0.5,0.8,0.193935741072001,"true"
"image-keyboard-response",354,357733,"0.0-3.114-1.114","mr61g5e6c6h9wml",518,"95.csv","","null","resources/maskTrios/L1BB.jpg","null","",NA,NA,NA,NA,""
"image-keyboard-response",355,358939,"0.0-3.114-2.114","mr61g5e6c6h9wml",518,"95.csv","","null","resources/images/coin2.png","null","",NA,NA,NA,NA,""
"image-keyboard-response",356,359842,"0.0-3.115-0.115","mr61g5e6c6h9wml",518,"95.csv","","902.6999999880791","resources/trios/L1T4A2.jpg","37","restless",0.4,0.5,0.8,0.623143741233834,"false"
"image-keyboard-response",357,360244,"0.0-3.115-1.115","mr61g5e6c6h9wml",518,"95.csv","","null","resources/maskTrios/L1BB.jpg","null","",NA,NA,NA,NA,""
"image-keyboard-response",358,361449,"0.0-3.115-2.115","mr61g5e6c6h9wml",518,"95.csv","","null","resources/images/fishbone.png","null","",NA,NA,NA,NA,""
"image-keyboard-response",359,361826,"0.0-3.116-0.116","mr61g5e6c6h9wml",518,"95.csv","","376.80000001192093","resources/trios/L1T4A3.jpg","39","restless",0.4,0.5,0.8,0.474923910222144,"true"
"image-keyboard-response",360,362232,"0.0-3.116-1.116","mr61g5e6c6h9wml",518,"95.csv","","null","resources/maskTrios/BBA3.jpg","null","",NA,NA,NA,NA,""
"image-keyboard-response",361,363435,"0.0-3.116-2.116","mr61g5e6c6h9wml",518,"95.csv","","null","resources/images/coin2.png","null","",NA,NA,NA,NA,""
"image-keyboard-response",362,364042,"0.0-3.117-0.117","mr61g5e6c6h9wml",518,"95.csv","","606","resources/trios/L1T4A3.jpg","39","restless",0.4,0.5,0.8,0.415473829435367,"true"
"image-keyboard-response",363,364448,"0.0-3.117-1.117","mr61g5e6c6h9wml",518,"95.csv","","null","resources/maskTrios/BBA3.jpg","null","",NA,NA,NA,NA,""
"image-keyboard-response",364,365650,"0.0-3.117-2.117","mr61g5e6c6h9wml",518,"95.csv","","null","resources/images/coin2.png","null","",NA,NA,NA,NA,""
"image-keyboard-response",365,366986,"0.0-3.118-0.118","mr61g5e6c6h9wml",518,"95.csv","","1335.3999999761581","resources/trios/L2T1A2.jpg","38","restless",0.4,0.5,0.8,0.63302209966214,"false"
"image-keyboard-response",366,367393,"0.0-3.118-1.118","mr61g5e6c6h9wml",518,"95.csv","","null","resources/maskTrios/BT1B.jpg","null","",NA,NA,NA,NA,""
"image-keyboard-response",367,368599,"0.0-3.118-2.118","mr61g5e6c6h9wml",518,"95.csv","","null","resources/images/fishbone.png","null","",NA,NA,NA,NA,""
"image-keyboard-response",368,369883,"0.0-3.119-0.119","mr61g5e6c6h9wml",518,"95.csv","","1283","resources/trios/L1T4A2.jpg","37","restless",0.4,0.5,0.8,0.882576635692331,"false"
"image-keyboard-response",369,370289,"0.0-3.119-1.119","mr61g5e6c6h9wml",518,"95.csv","","null","resources/maskTrios/L1BB.jpg","null","",NA,NA,NA,NA,""
"image-keyboard-response",370,371494,"0.0-3.119-2.119","mr61g5e6c6h9wml",518,"95.csv","","null","resources/images/fishbone.png","null","",NA,NA,NA,NA,""
"image-keyboard-response",371,371939,"0.0-3.120-0.120","mr61g5e6c6h9wml",518,"95.csv","","444","resources/trios/L1T1A3.jpg","39","restless",0.4,0.5,0.7,0.196610517932271,"true"
"image-keyboard-response",372,372343,"0.0-3.120-1.120","mr61g5e6c6h9wml",518,"95.csv","","null","resources/maskTrios/BBA3.jpg","null","",NA,NA,NA,NA,""
"image-keyboard-response",373,373549,"0.0-3.120-2.120","mr61g5e6c6h9wml",518,"95.csv","","null","resources/images/coin2.png","null","",NA,NA,NA,NA,""
"image-keyboard-response",374,373805,"0.0-3.121-0.121","mr61g5e6c6h9wml",518,"95.csv","","254.89999997615814","resources/trios/L2T4A3.jpg","39","restless",0.4,0.5,0.7,0.431251500838765,"true"
"image-keyboard-response",375,374211,"0.0-3.121-1.121","mr61g5e6c6h9wml",518,"95.csv","","null","resources/maskTrios/BBA3.jpg","null","",NA,NA,NA,NA,""
"image-keyboard-response",376,375416,"0.0-3.121-2.121","mr61g5e6c6h9wml",518,"95.csv","","null","resources/images/coin2.png","null","",NA,NA,NA,NA,""
"image-keyboard-response",377,376682,"0.0-3.122-0.122","mr61g5e6c6h9wml",518,"95.csv","","1265.5","resources/trios/L2T1A2.jpg","39","restless",0.4,0.5,0.7,0.462999215272452,"true"
"image-keyboard-response",378,377087,"0.0-3.122-1.122","mr61g5e6c6h9wml",518,"95.csv","","null","resources/maskTrios/BBA2.jpg","null","",NA,NA,NA,NA,""
"image-keyboard-response",379,378290,"0.0-3.122-2.122","mr61g5e6c6h9wml",518,"95.csv","","null","resources/images/coin2.png","null","",NA,NA,NA,NA,""
"image-keyboard-response",380,379562,"0.0-3.123-0.123","mr61g5e6c6h9wml",518,"95.csv","","1270.8999999761581","resources/trios/L1T4A2.jpg","37","restless",0.4,0.5,0.7,0.433241514457296,"false"
"image-keyboard-response",381,379964,"0.0-3.123-1.123","mr61g5e6c6h9wml",518,"95.csv","","null","resources/maskTrios/L1BB.jpg","null","",NA,NA,NA,NA,""
"image-keyboard-response",382,381170,"0.0-3.123-2.123","mr61g5e6c6h9wml",518,"95.csv","","null","resources/images/fishbone.png","null","",NA,NA,NA,NA,""
"image-keyboard-response",383,384284,"0.0-3.124-0.124","mr61g5e6c6h9wml",518,"95.csv","","3112.199999988079","resources/trios/L2T4A2.jpg","38","restless",0.4,0.4,0.7,0.618123813595554,"false"
"image-keyboard-response",384,384690,"0.0-3.124-1.124","mr61g5e6c6h9wml",518,"95.csv","","null","resources/maskTrios/BT4B.jpg","null","",NA,NA,NA,NA,""
"image-keyboard-response",385,385895,"0.0-3.124-2.124","mr61g5e6c6h9wml",518,"95.csv","","null","resources/images/fishbone.png","null","",NA,NA,NA,NA,""
"image-keyboard-response",386,387044,"0.0-3.125-0.125","mr61g5e6c6h9wml",518,"95.csv","","1148.2999999523163","resources/trios/L2T1A2.jpg","38","restless",0.4,0.4,0.7,0.566457978870382,"false"
"image-keyboard-response",387,387450,"0.0-3.125-1.125","mr61g5e6c6h9wml",518,"95.csv","","null","resources/maskTrios/BT1B.jpg","null","",NA,NA,NA,NA,""
"image-keyboard-response",388,388655,"0.0-3.125-2.125","mr61g5e6c6h9wml",518,"95.csv","","null","resources/images/fishbone.png","null","",NA,NA,NA,NA,""
"image-keyboard-response",389,389876,"0.0-3.126-0.126","mr61g5e6c6h9wml",518,"95.csv","","1219.699999988079","resources/trios/L1T1A3.jpg","39","restless",0.4,0.4,0.7,0.00391231297313221,"true"
"image-keyboard-response",390,390282,"0.0-3.126-1.126","mr61g5e6c6h9wml",518,"95.csv","","null","resources/maskTrios/BBA3.jpg","null","",NA,NA,NA,NA,""
"image-keyboard-response",391,391483,"0.0-3.126-2.126","mr61g5e6c6h9wml",518,"95.csv","","null","resources/images/coin2.png","null","",NA,NA,NA,NA,""
"image-keyboard-response",392,393766,"0.0-3.127-0.127","mr61g5e6c6h9wml",518,"95.csv","","2282.2999999523163","resources/trios/L2T1A2.jpg","38","restless",0.4,0.4,0.7,0.254181587029634,"true"
"image-keyboard-response",393,394172,"0.0-3.127-1.127","mr61g5e6c6h9wml",518,"95.csv","","null","resources/maskTrios/BT1B.jpg","null","",NA,NA,NA,NA,""
"image-keyboard-response",394,395379,"0.0-3.127-2.127","mr61g5e6c6h9wml",518,"95.csv","","null","resources/images/coin2.png","null","",NA,NA,NA,NA,""
"image-keyboard-response",395,396415,"0.0-3.128-0.128","mr61g5e6c6h9wml",518,"95.csv","","1035.8999999761581","resources/trios/L2T1A3.jpg","39","restless",0.4,0.5,0.7,0.347952936328014,"true"
"image-keyboard-response",396,396820,"0.0-3.128-1.128","mr61g5e6c6h9wml",518,"95.csv","","null","resources/maskTrios/BBA3.jpg","null","",NA,NA,NA,NA,""
"image-keyboard-response",397,398024,"0.0-3.128-2.128","mr61g5e6c6h9wml",518,"95.csv","","null","resources/images/coin2.png","null","",NA,NA,NA,NA,""
"image-keyboard-response",398,399208,"0.0-3.129-0.129","mr61g5e6c6h9wml",518,"95.csv","","1183","resources/trios/L1T4A2.jpg","37","restless",0.4,0.5,0.7,0.557846658693283,"false"
"image-keyboard-response",399,399614,"0.0-3.129-1.129","mr61g5e6c6h9wml",518,"95.csv","","null","resources/maskTrios/L1BB.jpg","null","",NA,NA,NA,NA,""
"image-keyboard-response",400,400820,"0.0-3.129-2.129","mr61g5e6c6h9wml",518,"95.csv","","null","resources/images/fishbone.png","null","",NA,NA,NA,NA,""
"image-keyboard-response",401,401232,"0.0-3.130-0.130","mr61g5e6c6h9wml",518,"95.csv","","411","resources/trios/L2T4A3.jpg","39","restless",0.5,0.5,0.7,0.0304417628173292,"true"
"image-keyboard-response",402,401637,"0.0-3.130-1.130","mr61g5e6c6h9wml",518,"95.csv","","null","resources/maskTrios/BBA3.jpg","null","",NA,NA,NA,NA,""
"image-keyboard-response",403,402840,"0.0-3.130-2.130","mr61g5e6c6h9wml",518,"95.csv","","null","resources/images/coin2.png","null","",NA,NA,NA,NA,""
"image-keyboard-response",404,403496,"0.0-3.131-0.131","mr61g5e6c6h9wml",518,"95.csv","","654.8999999761581","resources/trios/L2T4A3.jpg","39","restless",0.5,0.4,0.7,0.552760614518864,"true"
"image-keyboard-response",405,403902,"0.0-3.131-1.131","mr61g5e6c6h9wml",518,"95.csv","","null","resources/maskTrios/BBA3.jpg","null","",NA,NA,NA,NA,""
"image-keyboard-response",406,405107,"0.0-3.131-2.131","mr61g5e6c6h9wml",518,"95.csv","","null","resources/images/coin2.png","null","",NA,NA,NA,NA,""
"image-keyboard-response",407,407044,"0.0-3.132-0.132","mr61g5e6c6h9wml",518,"95.csv","","1936.300000011921","resources/trios/L1T1A2.jpg","39","restless",0.5,0.4,0.7,0.050274250886976,"true"
"image-keyboard-response",408,407450,"0.0-3.132-1.132","mr61g5e6c6h9wml",518,"95.csv","","null","resources/maskTrios/BBA2.jpg","null","",NA,NA,NA,NA,""
"image-keyboard-response",409,408656,"0.0-3.132-2.132","mr61g5e6c6h9wml",518,"95.csv","","null","resources/images/coin2.png","null","",NA,NA,NA,NA,""
"image-keyboard-response",410,410148,"0.0-3.133-0.133","mr61g5e6c6h9wml",518,"95.csv","","1490.9000000357628","resources/trios/L1T4A2.jpg","37","restless",0.5,0.4,0.7,0.39728620834203,"true"
"image-keyboard-response",411,410554,"0.0-3.133-1.133","mr61g5e6c6h9wml",518,"95.csv","","null","resources/maskTrios/L1BB.jpg","null","",NA,NA,NA,NA,""
"image-keyboard-response",412,411755,"0.0-3.133-2.133","mr61g5e6c6h9wml",518,"95.csv","","null","resources/images/coin2.png","null","",NA,NA,NA,NA,""
"image-keyboard-response",413,413734,"0.0-3.134-0.134","mr61g5e6c6h9wml",518,"95.csv","","1977.699999988079","resources/trios/L2T4A2.jpg","39","restless",0.5,0.4,0.7,0.530312215126693,"true"
"image-keyboard-response",414,414140,"0.0-3.134-1.134","mr61g5e6c6h9wml",518,"95.csv","","null","resources/maskTrios/BBA2.jpg","null","",NA,NA,NA,NA,""
"image-keyboard-response",415,415343,"0.0-3.134-2.134","mr61g5e6c6h9wml",518,"95.csv","","null","resources/images/coin2.png","null","",NA,NA,NA,NA,""
"image-keyboard-response",416,416127,"0.0-3.135-0.135","mr61g5e6c6h9wml",518,"95.csv","","783.2000000476837","resources/trios/L1T1A3.jpg","39","restless",0.4,0.4,0.7,0.360769095609736,"true"
"image-keyboard-response",417,416531,"0.0-3.135-1.135","mr61g5e6c6h9wml",518,"95.csv","","null","resources/maskTrios/BBA3.jpg","null","",NA,NA,NA,NA,""
"image-keyboard-response",418,417734,"0.0-3.135-2.135","mr61g5e6c6h9wml",518,"95.csv","","null","resources/images/coin2.png","null","",NA,NA,NA,NA,""
"image-keyboard-response",419,420684,"0.0-3.136-0.136","mr61g5e6c6h9wml",518,"95.csv","","2949.099999964237","resources/trios/L2T1A2.jpg","37","restless",0.4,0.4,0.7,0.777790595914827,"false"
"image-keyboard-response",420,421090,"0.0-3.136-1.136","mr61g5e6c6h9wml",518,"95.csv","","null","resources/maskTrios/L2BB.jpg","null","",NA,NA,NA,NA,""
"image-keyboard-response",421,422296,"0.0-3.136-2.136","mr61g5e6c6h9wml",518,"95.csv","","null","resources/images/fishbone.png","null","",NA,NA,NA,NA,""
"image-keyboard-response",422,422932,"0.0-3.137-0.137","mr61g5e6c6h9wml",518,"95.csv","","634.8999999761581","resources/trios/L1T4A3.jpg","39","restless",0.4,0.4,0.7,0.6662498012832,"true"
"image-keyboard-response",423,423338,"0.0-3.137-1.137","mr61g5e6c6h9wml",518,"95.csv","","null","resources/maskTrios/BBA3.jpg","null","",NA,NA,NA,NA,""
"image-keyboard-response",424,424544,"0.0-3.137-2.137","mr61g5e6c6h9wml",518,"95.csv","","null","resources/images/coin2.png","null","",NA,NA,NA,NA,""
"image-keyboard-response",425,425516,"0.0-3.138-0.138","mr61g5e6c6h9wml",518,"95.csv","","971.3999999761581","resources/trios/L2T4A2.jpg","39","restless",0.4,0.4,0.7,0.793928965672018,"false"
"image-keyboard-response",426,425922,"0.0-3.138-1.138","mr61g5e6c6h9wml",518,"95.csv","","null","resources/maskTrios/BBA2.jpg","null","",NA,NA,NA,NA,""
"image-keyboard-response",427,427127,"0.0-3.138-2.138","mr61g5e6c6h9wml",518,"95.csv","","null","resources/images/fishbone.png","null","",NA,NA,NA,NA,""
"image-keyboard-response",428,428556,"0.0-3.139-0.139","mr61g5e6c6h9wml",518,"95.csv","","1428.300000011921","resources/trios/L1T1A2.jpg","37","restless",0.4,0.4,0.7,0.217398703193407,"true"
"image-keyboard-response",429,428959,"0.0-3.139-1.139","mr61g5e6c6h9wml",518,"95.csv","","null","resources/maskTrios/L1BB.jpg","null","",NA,NA,NA,NA,""
"image-keyboard-response",430,430165,"0.0-3.139-2.139","mr61g5e6c6h9wml",518,"95.csv","","null","resources/images/coin2.png","null","",NA,NA,NA,NA,""
"image-keyboard-response",431,430932,"0.0-3.140-0.140","mr61g5e6c6h9wml",518,"95.csv","","766.3999999761581","resources/trios/L1T1A3.jpg","39","restless",0.4,0.4,0.7,0.751078570849806,"false"
"image-keyboard-response",432,431338,"0.0-3.140-1.140","mr61g5e6c6h9wml",518,"95.csv","","null","resources/maskTrios/BBA3.jpg","null","",NA,NA,NA,NA,""
"image-keyboard-response",433,432544,"0.0-3.140-2.140","mr61g5e6c6h9wml",518,"95.csv","","null","resources/images/fishbone.png","null","",NA,NA,NA,NA,""
"image-keyboard-response",434,434417,"0.0-3.141-0.141","mr61g5e6c6h9wml",518,"95.csv","","1871.8999999761581","resources/trios/L1T4A2.jpg","37","restless",0.5,0.4,0.7,0.333923183499918,"true"
"image-keyboard-response",435,434823,"0.0-3.141-1.141","mr61g5e6c6h9wml",518,"95.csv","","null","resources/maskTrios/L1BB.jpg","null","",NA,NA,NA,NA,""
"image-keyboard-response",436,436026,"0.0-3.141-2.141","mr61g5e6c6h9wml",518,"95.csv","","null","resources/images/coin2.png","null","",NA,NA,NA,NA,""
"image-keyboard-response",437,437241,"0.0-3.142-0.142","mr61g5e6c6h9wml",518,"95.csv","","1214.300000011921","resources/trios/L2T1A3.jpg","39","restless",0.5,0.4,0.7,0.186989985407427,"true"
"image-keyboard-response",438,437645,"0.0-3.142-1.142","mr61g5e6c6h9wml",518,"95.csv","","null","resources/maskTrios/BBA3.jpg","null","",NA,NA,NA,NA,""
"image-keyboard-response",439,438851,"0.0-3.142-2.142","mr61g5e6c6h9wml",518,"95.csv","","null","resources/images/coin2.png","null","",NA,NA,NA,NA,""
"image-keyboard-response",440,439481,"0.0-3.143-0.143","mr61g5e6c6h9wml",518,"95.csv","","629.1000000238419","resources/trios/L1T4A3.jpg","39","restless",0.5,0.4,0.8,0.617360071495099,"true"
"image-keyboard-response",441,439887,"0.0-3.143-1.143","mr61g5e6c6h9wml",518,"95.csv","","null","resources/maskTrios/BBA3.jpg","null","",NA,NA,NA,NA,""
"image-keyboard-response",442,441089,"0.0-3.143-2.143","mr61g5e6c6h9wml",518,"95.csv","","null","resources/images/coin2.png","null","",NA,NA,NA,NA,""
"image-keyboard-response",443,442193,"0.0-3.144-0.144","mr61g5e6c6h9wml",518,"95.csv","","1103.5","resources/trios/L1T1A3.jpg","37","restless",0.5,0.4,0.8,0.728321844021113,"false"
"image-keyboard-response",444,442599,"0.0-3.144-1.144","mr61g5e6c6h9wml",518,"95.csv","","null","resources/maskTrios/L1BB.jpg","null","",NA,NA,NA,NA,""
"image-keyboard-response",445,443802,"0.0-3.144-2.144","mr61g5e6c6h9wml",518,"95.csv","","null","resources/images/fishbone.png","null","",NA,NA,NA,NA,""
"image-keyboard-response",446,444233,"0.0-3.145-0.145","mr61g5e6c6h9wml",518,"95.csv","","430.4000000357628","resources/trios/L1T4A2.jpg","39","restless",0.5,0.4,0.8,0.296833018352427,"true"
"image-keyboard-response",447,444639,"0.0-3.145-1.145","mr61g5e6c6h9wml",518,"95.csv","","null","resources/maskTrios/BBA2.jpg","null","",NA,NA,NA,NA,""
"image-keyboard-response",448,445844,"0.0-3.145-2.145","mr61g5e6c6h9wml",518,"95.csv","","null","resources/images/coin2.png","null","",NA,NA,NA,NA,""
"image-keyboard-response",449,446657,"0.0-3.146-0.146","mr61g5e6c6h9wml",518,"95.csv","","811.9000000357628","resources/trios/L1T1A2.jpg","38","restless",0.5,0.4,0.8,0.832370637364112,"false"
"image-keyboard-response",450,447063,"0.0-3.146-1.146","mr61g5e6c6h9wml",518,"95.csv","","null","resources/maskTrios/BT1B.jpg","null","",NA,NA,NA,NA,""
"image-keyboard-response",451,448266,"0.0-3.146-2.146","mr61g5e6c6h9wml",518,"95.csv","","null","resources/images/fishbone.png","null","",NA,NA,NA,NA,""
"image-keyboard-response",452,449002,"0.0-3.147-0.147","mr61g5e6c6h9wml",518,"95.csv","","734.8999999761581","resources/trios/L2T1A3.jpg","39","restless",0.5,0.4,0.8,0.674272267635534,"true"
"image-keyboard-response",453,449406,"0.0-3.147-1.147","mr61g5e6c6h9wml",518,"95.csv","","null","resources/maskTrios/BBA3.jpg","null","",NA,NA,NA,NA,""
"image-keyboard-response",454,450610,"0.0-3.147-2.147","mr61g5e6c6h9wml",518,"95.csv","","null","resources/images/coin2.png","null","",NA,NA,NA,NA,""
"image-keyboard-response",455,451625,"0.0-3.148-0.148","mr61g5e6c6h9wml",518,"95.csv","","1014.3000000119209","resources/trios/L2T1A2.jpg","37","restless",0.5,0.4,0.8,0.196905582683959,"true"
"image-keyboard-response",456,452027,"0.0-3.148-1.148","mr61g5e6c6h9wml",518,"95.csv","","null","resources/maskTrios/L2BB.jpg","null","",NA,NA,NA,NA,""
"image-keyboard-response",457,453233,"0.0-3.148-2.148","mr61g5e6c6h9wml",518,"95.csv","","null","resources/images/coin2.png","null","",NA,NA,NA,NA,""
"image-keyboard-response",458,453969,"0.0-3.149-0.149","mr61g5e6c6h9wml",518,"95.csv","","735.4000000357628","resources/trios/L1T4A3.jpg","39","restless",0.5,0.5,0.8,0.227876076683229,"true"
"image-keyboard-response",459,454375,"0.0-3.149-1.149","mr61g5e6c6h9wml",518,"95.csv","","null","resources/maskTrios/BBA3.jpg","null","",NA,NA,NA,NA,""
"image-keyboard-response",460,455578,"0.0-3.149-2.149","mr61g5e6c6h9wml",518,"95.csv","","null","resources/images/coin2.png","null","",NA,NA,NA,NA,""
"image-keyboard-response",461,457827,"0.0-3.150-0.150","mr61g5e6c6h9wml",518,"95.csv","","2247.900000035763","resources/trios/L1T1A2.jpg","38","restless",0.5,0.6,0.7,0.730426417522223,"false"
"image-keyboard-response",462,458233,"0.0-3.150-1.150","mr61g5e6c6h9wml",518,"95.csv","","null","resources/maskTrios/BT1B.jpg","null","",NA,NA,NA,NA,""
"image-keyboard-response",463,459439,"0.0-3.150-2.150","mr61g5e6c6h9wml",518,"95.csv","","null","resources/images/fishbone.png","null","",NA,NA,NA,NA,""
"image-keyboard-response",464,459979,"0.0-3.151-0.151","mr61g5e6c6h9wml",518,"95.csv","","539.3999999761581","resources/trios/L1T1A3.jpg","39","restless",0.6,0.6,0.7,0.601303390478944,"true"
"image-keyboard-response",465,460385,"0.0-3.151-1.151","mr61g5e6c6h9wml",518,"95.csv","","null","resources/maskTrios/BBA3.jpg","null","",NA,NA,NA,NA,""
"image-keyboard-response",466,461589,"0.0-3.151-2.151","mr61g5e6c6h9wml",518,"95.csv","","null","resources/images/coin2.png","null","",NA,NA,NA,NA,""
"image-keyboard-response",467,463387,"0.0-3.152-0.152","mr61g5e6c6h9wml",518,"95.csv","","1797.2000000476837","resources/trios/L2T1A2.jpg","37","restless",0.6,0.6,0.7,0.872145740138888,"false"
"image-keyboard-response",468,463793,"0.0-3.152-1.152","mr61g5e6c6h9wml",518,"95.csv","","null","resources/maskTrios/L2BB.jpg","null","",NA,NA,NA,NA,""
"image-keyboard-response",469,464999,"0.0-3.152-2.152","mr61g5e6c6h9wml",518,"95.csv","","null","resources/images/fishbone.png","null","",NA,NA,NA,NA,""
"image-keyboard-response",470,465643,"0.0-3.153-0.153","mr61g5e6c6h9wml",518,"95.csv","","642.9000000357628","resources/trios/L1T1A2.jpg","38","restless",0.6,0.6,0.7,0.968268073939323,"false"
"image-keyboard-response",471,466049,"0.0-3.153-1.153","mr61g5e6c6h9wml",518,"95.csv","","null","resources/maskTrios/BT1B.jpg","null","",NA,NA,NA,NA,""
"image-keyboard-response",472,467251,"0.0-3.153-2.153","mr61g5e6c6h9wml",518,"95.csv","","null","resources/images/fishbone.png","null","",NA,NA,NA,NA,""
"image-keyboard-response",473,467699,"0.0-3.154-0.154","mr61g5e6c6h9wml",518,"95.csv","","447","resources/trios/L1T4A3.jpg","39","restless",0.6,0.6,0.7,0.710444962534355,"false"
"image-keyboard-response",474,468105,"0.0-3.154-1.154","mr61g5e6c6h9wml",518,"95.csv","","null","resources/maskTrios/BBA3.jpg","null","",NA,NA,NA,NA,""
"image-keyboard-response",475,469308,"0.0-3.154-2.154","mr61g5e6c6h9wml",518,"95.csv","","null","resources/images/fishbone.png","null","",NA,NA,NA,NA,""
"image-keyboard-response",476,469803,"0.0-3.155-0.155","mr61g5e6c6h9wml",518,"95.csv","","494.5999999642372","resources/trios/L2T1A3.jpg","39","restless",0.6,0.6,0.7,0.422268998159226,"true"
"image-keyboard-response",477,470209,"0.0-3.155-1.155","mr61g5e6c6h9wml",518,"95.csv","","null","resources/maskTrios/BBA3.jpg","null","",NA,NA,NA,NA,""
"image-keyboard-response",478,471411,"0.0-3.155-2.155","mr61g5e6c6h9wml",518,"95.csv","","null","resources/images/coin2.png","null","",NA,NA,NA,NA,""
"image-keyboard-response",479,472107,"0.0-3.156-0.156","mr61g5e6c6h9wml",518,"95.csv","","695.3000000119209","resources/trios/L1T1A3.jpg","37","restless",0.6,0.6,0.7,0.680393411609481,"false"
"image-keyboard-response",480,472513,"0.0-3.156-1.156","mr61g5e6c6h9wml",518,"95.csv","","null","resources/maskTrios/L1BB.jpg","null","",NA,NA,NA,NA,""
"image-keyboard-response",481,473719,"0.0-3.156-2.156","mr61g5e6c6h9wml",518,"95.csv","","null","resources/images/fishbone.png","null","",NA,NA,NA,NA,""
"image-keyboard-response",482,474227,"0.0-3.157-0.157","mr61g5e6c6h9wml",518,"95.csv","","507.5","resources/trios/L2T4A3.jpg","39","restless",0.6,0.6,0.7,0.76128625074496,"false"
"image-keyboard-response",483,474633,"0.0-3.157-1.157","mr61g5e6c6h9wml",518,"95.csv","","null","resources/maskTrios/BBA3.jpg","null","",NA,NA,NA,NA,""
"image-keyboard-response",484,475839,"0.0-3.157-2.157","mr61g5e6c6h9wml",518,"95.csv","","null","resources/images/fishbone.png","null","",NA,NA,NA,NA,""
"image-keyboard-response",485,476283,"0.0-3.158-0.158","mr61g5e6c6h9wml",518,"95.csv","","443.39999997615814","resources/trios/L2T4A3.jpg","39","restless",0.6,0.6,0.7,0.265864502419018,"true"
"image-keyboard-response",486,476689,"0.0-3.158-1.158","mr61g5e6c6h9wml",518,"95.csv","","null","resources/maskTrios/BBA3.jpg","null","",NA,NA,NA,NA,""
"image-keyboard-response",487,477895,"0.0-3.158-2.158","mr61g5e6c6h9wml",518,"95.csv","","null","resources/images/coin2.png","null","",NA,NA,NA,NA,""
"image-keyboard-response",488,479099,"0.0-3.159-0.159","mr61g5e6c6h9wml",518,"95.csv","","1203.4000000357628","resources/trios/L1T4A2.jpg","37","restless",0.6,0.6,0.7,0.637745243758407,"false"
"image-keyboard-response",489,479505,"0.0-3.159-1.159","mr61g5e6c6h9wml",518,"95.csv","","null","resources/maskTrios/L1BB.jpg","null","",NA,NA,NA,NA,""
"image-keyboard-response",490,480711,"0.0-3.159-2.159","mr61g5e6c6h9wml",518,"95.csv","","null","resources/images/fishbone.png","null","",NA,NA,NA,NA,""
"image-keyboard-response",491,481739,"0.0-3.160-0.160","mr61g5e6c6h9wml",518,"95.csv","","1027","resources/trios/L2T1A2.jpg","38","restless",0.5,0.6,0.6,0.343813182525714,"true"
"image-keyboard-response",492,482145,"0.0-3.160-1.160","mr61g5e6c6h9wml",518,"95.csv","","null","resources/maskTrios/BT1B.jpg","null","",NA,NA,NA,NA,""
"image-keyboard-response",493,483352,"0.0-3.160-2.160","mr61g5e6c6h9wml",518,"95.csv","","null","resources/images/coin2.png","null","",NA,NA,NA,NA,""
"image-keyboard-response",494,483898,"0.0-3.161-0.161","mr61g5e6c6h9wml",518,"95.csv","","545.8000000119209","resources/trios/L2T4A3.jpg","39","restless",0.4,0.6,0.5,0.363410661504029,"true"
"image-keyboard-response",495,484304,"0.0-3.161-1.161","mr61g5e6c6h9wml",518,"95.csv","","null","resources/maskTrios/BBA3.jpg","null","",NA,NA,NA,NA,""
"image-keyboard-response",496,485510,"0.0-3.161-2.161","mr61g5e6c6h9wml",518,"95.csv","","null","resources/images/coin2.png","null","",NA,NA,NA,NA,""
"image-keyboard-response",497,486635,"0.0-3.162-0.162","mr61g5e6c6h9wml",518,"95.csv","","1123.2999999523163","resources/trios/L2T1A2.jpg","39","restless",0.4,0.6,0.5,0.192975233435886,"true"
"image-keyboard-response",498,487039,"0.0-3.162-1.162","mr61g5e6c6h9wml",518,"95.csv","","null","resources/maskTrios/BBA2.jpg","null","",NA,NA,NA,NA,""
"image-keyboard-response",499,488245,"0.0-3.162-2.162","mr61g5e6c6h9wml",518,"95.csv","","null","resources/images/coin2.png","null","",NA,NA,NA,NA,""
"image-keyboard-response",500,489428,"0.0-3.163-0.163","mr61g5e6c6h9wml",518,"95.csv","","1181.300000011921","resources/trios/L2T4A2.jpg","37","restless",0.4,0.6,0.5,0.10818774493357,"true"
"image-keyboard-response",501,489834,"0.0-3.163-1.163","mr61g5e6c6h9wml",518,"95.csv","","null","resources/maskTrios/L2BB.jpg","null","",NA,NA,NA,NA,""
"image-keyboard-response",502,491040,"0.0-3.163-2.163","mr61g5e6c6h9wml",518,"95.csv","","null","resources/images/coin2.png","null","",NA,NA,NA,NA,""
"image-keyboard-response",503,491620,"0.0-3.164-0.164","mr61g5e6c6h9wml",518,"95.csv","","578.8000000119209","resources/trios/L2T1A3.jpg","39","restless",0.4,0.5,0.4,0.076047996278815,"true"
"image-keyboard-response",504,492022,"0.0-3.164-1.164","mr61g5e6c6h9wml",518,"95.csv","","null","resources/maskTrios/BBA3.jpg","null","",NA,NA,NA,NA,""
"image-keyboard-response",505,493228,"0.0-3.164-2.164","mr61g5e6c6h9wml",518,"95.csv","","null","resources/images/coin2.png","null","",NA,NA,NA,NA,""
"image-keyboard-response",506,494860,"0.0-3.165-0.165","mr61g5e6c6h9wml",518,"95.csv","","1631","resources/trios/L2T1A2.jpg","39","restless",0.4,0.5,0.4,0.452852677140077,"false"
"image-keyboard-response",507,495263,"0.0-3.165-1.165","mr61g5e6c6h9wml",518,"95.csv","","null","resources/maskTrios/BBA2.jpg","null","",NA,NA,NA,NA,""
"image-keyboard-response",508,496469,"0.0-3.165-2.165","mr61g5e6c6h9wml",518,"95.csv","","null","resources/images/fishbone.png","null","",NA,NA,NA,NA,""
"image-keyboard-response",509,496884,"0.0-3.166-0.166","mr61g5e6c6h9wml",518,"95.csv","","414.10000002384186","resources/trios/L2T4A3.jpg","39","restless",0.4,0.5,0.4,0.354569393926915,"true"
"image-keyboard-response",510,497285,"0.0-3.166-1.166","mr61g5e6c6h9wml",518,"95.csv","","null","resources/maskTrios/BBA3.jpg","null","",NA,NA,NA,NA,""
"image-keyboard-response",511,498491,"0.0-3.166-2.166","mr61g5e6c6h9wml",518,"95.csv","","null","resources/images/coin2.png","null","",NA,NA,NA,NA,""
"image-keyboard-response",512,498924,"0.0-3.167-0.167","mr61g5e6c6h9wml",518,"95.csv","","432","resources/trios/L2T4A3.jpg","39","restless",0.3,0.5,0.4,0.830440415400629,"false"
"image-keyboard-response",513,499326,"0.0-3.167-1.167","mr61g5e6c6h9wml",518,"95.csv","","null","resources/maskTrios/BBA3.jpg","null","",NA,NA,NA,NA,""
"image-keyboard-response",514,500529,"0.0-3.167-2.167","mr61g5e6c6h9wml",518,"95.csv","","null","resources/images/fishbone.png","null","",NA,NA,NA,NA,""
"image-keyboard-response",515,500916,"0.0-3.168-0.168","mr61g5e6c6h9wml",518,"95.csv","","386.19999998807907","resources/trios/L1T1A2.jpg","39","restless",0.3,0.5,0.5,0.308206543570795,"true"
"image-keyboard-response",516,501322,"0.0-3.168-1.168","mr61g5e6c6h9wml",518,"95.csv","","null","resources/maskTrios/BBA2.jpg","null","",NA,NA,NA,NA,""
"image-keyboard-response",517,502528,"0.0-3.168-2.168","mr61g5e6c6h9wml",518,"95.csv","","null","resources/images/coin2.png","null","",NA,NA,NA,NA,""
"image-keyboard-response",518,502908,"0.0-3.169-0.169","mr61g5e6c6h9wml",518,"95.csv","","378.80000001192093","resources/trios/L2T1A3.jpg","39","restless",0.3,0.5,0.5,0.707891609584954,"false"
"image-keyboard-response",519,503314,"0.0-3.169-1.169","mr61g5e6c6h9wml",518,"95.csv","","null","resources/maskTrios/BBA3.jpg","null","",NA,NA,NA,NA,""
"image-keyboard-response",520,504517,"0.0-3.169-2.169","mr61g5e6c6h9wml",518,"95.csv","","null","resources/images/fishbone.png","null","",NA,NA,NA,NA,""
"image-keyboard-response",521,504884,"0.0-3.170-0.170","mr61g5e6c6h9wml",518,"95.csv","","365.60000002384186","resources/trios/L1T1A2.jpg","39","restless",0.3,0.5,0.5,0.389908277146535,"true"
"image-keyboard-response",522,505290,"0.0-3.170-1.170","mr61g5e6c6h9wml",518,"95.csv","","null","resources/maskTrios/BBA2.jpg","null","",NA,NA,NA,NA,""
"image-keyboard-response",523,506496,"0.0-3.170-2.170","mr61g5e6c6h9wml",518,"95.csv","","null","resources/images/coin2.png","null","",NA,NA,NA,NA,""
"image-keyboard-response",524,507108,"0.0-3.171-0.171","mr61g5e6c6h9wml",518,"95.csv","","610.8000000119209","resources/trios/L1T1A3.jpg","39","restless",0.4,0.5,0.5,0.728597462387126,"false"
"image-keyboard-response",525,507514,"0.0-3.171-1.171","mr61g5e6c6h9wml",518,"95.csv","","null","resources/maskTrios/BBA3.jpg","null","",NA,NA,NA,NA,""
"image-keyboard-response",526,508716,"0.0-3.171-2.171","mr61g5e6c6h9wml",518,"95.csv","","null","resources/images/fishbone.png","null","",NA,NA,NA,NA,""
"image-keyboard-response",527,509060,"0.0-3.172-0.172","mr61g5e6c6h9wml",518,"95.csv","","343","resources/trios/L2T4A3.jpg","39","restless",0.4,0.5,0.6,0.360902844991316,"true"
"image-keyboard-response",528,509466,"0.0-3.172-1.172","mr61g5e6c6h9wml",518,"95.csv","","null","resources/maskTrios/BBA3.jpg","null","",NA,NA,NA,NA,""
"image-keyboard-response",529,510672,"0.0-3.172-2.172","mr61g5e6c6h9wml",518,"95.csv","","null","resources/images/coin2.png","null","",NA,NA,NA,NA,""
"image-keyboard-response",530,511140,"0.0-3.173-0.173","mr61g5e6c6h9wml",518,"95.csv","","467","resources/trios/L1T1A2.jpg","39","restless",0.4,0.5,0.6,0.368335065634422,"true"
"image-keyboard-response",531,511546,"0.0-3.173-1.173","mr61g5e6c6h9wml",518,"95.csv","","null","resources/maskTrios/BBA2.jpg","null","",NA,NA,NA,NA,""
"image-keyboard-response",532,512752,"0.0-3.173-2.173","mr61g5e6c6h9wml",518,"95.csv","","null","resources/images/coin2.png","null","",NA,NA,NA,NA,""
"image-keyboard-response",533,513532,"0.0-3.174-0.174","mr61g5e6c6h9wml",518,"95.csv","","778.8000000119209","resources/trios/L2T1A2.jpg","37","restless",0.4,0.5,0.6,0.449775312952608,"false"
"image-keyboard-response",534,513938,"0.0-3.174-1.174","mr61g5e6c6h9wml",518,"95.csv","","null","resources/maskTrios/L2BB.jpg","null","",NA,NA,NA,NA,""
"image-keyboard-response",535,515144,"0.0-3.174-2.174","mr61g5e6c6h9wml",518,"95.csv","","null","resources/images/fishbone.png","null","",NA,NA,NA,NA,""
"image-keyboard-response",536,515516,"0.0-3.175-0.175","mr61g5e6c6h9wml",518,"95.csv","","371.19999998807907","resources/trios/L1T4A2.jpg","38","restless",0.4,0.5,0.6,0.986849979736936,"false"
"image-keyboard-response",537,515918,"0.0-3.175-1.175","mr61g5e6c6h9wml",518,"95.csv","","null","resources/maskTrios/BT4B.jpg","null","",NA,NA,NA,NA,""
"image-keyboard-response",538,517121,"0.0-3.175-2.175","mr61g5e6c6h9wml",518,"95.csv","","null","resources/images/fishbone.png","null","",NA,NA,NA,NA,""
"image-keyboard-response",539,517492,"0.0-3.176-0.176","mr61g5e6c6h9wml",518,"95.csv","","369.69999998807907","resources/trios/L1T4A3.jpg","39","restless",0.4,0.5,0.6,0.851442121000306,"false"
"image-keyboard-response",540,517897,"0.0-3.176-1.176","mr61g5e6c6h9wml",518,"95.csv","","null","resources/maskTrios/BBA3.jpg","null","",NA,NA,NA,NA,""
"image-keyboard-response",541,519099,"0.0-3.176-2.176","mr61g5e6c6h9wml",518,"95.csv","","null","resources/images/fishbone.png","null","",NA,NA,NA,NA,""
"image-keyboard-response",542,519172,"0.0-3.177-0.177","mr61g5e6c6h9wml",518,"95.csv","","72.5","resources/trios/L2T4A3.jpg","37","restless",0.4,0.5,0.6,0.833701671718748,"false"
"image-keyboard-response",543,519578,"0.0-3.177-1.177","mr61g5e6c6h9wml",518,"95.csv","","null","resources/maskTrios/L2BB.jpg","null","",NA,NA,NA,NA,""
"image-keyboard-response",544,520783,"0.0-3.177-2.177","mr61g5e6c6h9wml",518,"95.csv","","null","resources/images/fishbone.png","null","",NA,NA,NA,NA,""
"image-keyboard-response",545,521381,"0.0-3.178-0.178","mr61g5e6c6h9wml",518,"95.csv","","596.5","resources/trios/L1T1A3.jpg","38","restless",0.4,0.5,0.6,0.767669364091311,"false"
"image-keyboard-response",546,521782,"0.0-3.178-1.178","mr61g5e6c6h9wml",518,"95.csv","","null","resources/maskTrios/BT1B.jpg","null","",NA,NA,NA,NA,""
"image-keyboard-response",547,522984,"0.0-3.178-2.178","mr61g5e6c6h9wml",518,"95.csv","","null","resources/images/fishbone.png","null","",NA,NA,NA,NA,""
"image-keyboard-response",548,523492,"0.0-3.179-0.179","mr61g5e6c6h9wml",518,"95.csv","","507","resources/trios/L2T1A3.jpg","39","restless",0.4,0.5,0.6,0.974844215956947,"false"
"image-keyboard-response",549,523897,"0.0-3.179-1.179","mr61g5e6c6h9wml",518,"95.csv","","null","resources/maskTrios/BBA3.jpg","null","",NA,NA,NA,NA,""
"image-keyboard-response",550,525102,"0.0-3.179-2.179","mr61g5e6c6h9wml",518,"95.csv","","null","resources/images/fishbone.png","null","",NA,NA,NA,NA,""
"image-keyboard-response",551,529661,"0.0-3.180-0.180","mr61g5e6c6h9wml",518,"95.csv","","4557.5","resources/trios/L2T4A3.jpg","37","restless",0.4,0.5,0.6,0.929163943150669,"false"
"image-keyboard-response",552,530067,"0.0-3.180-1.180","mr61g5e6c6h9wml",518,"95.csv","","null","resources/maskTrios/L2BB.jpg","null","",NA,NA,NA,NA,""
"image-keyboard-response",553,531272,"0.0-3.180-2.180","mr61g5e6c6h9wml",518,"95.csv","","null","resources/images/fishbone.png","null","",NA,NA,NA,NA,""
"image-keyboard-response",554,531700,"0.0-3.181-0.181","mr61g5e6c6h9wml",518,"95.csv","","426.69999998807907","resources/trios/L1T1A2.jpg","39","restless",0.4,0.5,0.6,0.899263909114196,"false"
"image-keyboard-response",555,532106,"0.0-3.181-1.181","mr61g5e6c6h9wml",518,"95.csv","","null","resources/maskTrios/BBA2.jpg","null","",NA,NA,NA,NA,""
"image-keyboard-response",556,533309,"0.0-3.181-2.181","mr61g5e6c6h9wml",518,"95.csv","","null","resources/images/fishbone.png","null","",NA,NA,NA,NA,""
"image-keyboard-response",557,533844,"0.0-3.182-0.182","mr61g5e6c6h9wml",518,"95.csv","","534.1000000238419","resources/trios/L2T1A3.jpg","38","restless",0.4,0.5,0.6,0.90911910474023,"false"
"image-keyboard-response",558,534246,"0.0-3.182-1.182","mr61g5e6c6h9wml",518,"95.csv","","null","resources/maskTrios/BT1B.jpg","null","",NA,NA,NA,NA,""
"image-keyboard-response",559,535452,"0.0-3.182-2.182","mr61g5e6c6h9wml",518,"95.csv","","null","resources/images/fishbone.png","null","",NA,NA,NA,NA,""
"image-keyboard-response",560,535644,"0.0-3.183-0.183","mr61g5e6c6h9wml",518,"95.csv","","191.80000001192093","resources/trios/L1T4A3.jpg","38","restless",0.4,0.5,0.5,0.71451977109169,"false"
"image-keyboard-response",561,536046,"0.0-3.183-1.183","mr61g5e6c6h9wml",518,"95.csv","","null","resources/maskTrios/BT4B.jpg","null","",NA,NA,NA,NA,""
"image-keyboard-response",562,537248,"0.0-3.183-2.183","mr61g5e6c6h9wml",518,"95.csv","","null","resources/images/fishbone.png","null","",NA,NA,NA,NA,""
"image-keyboard-response",563,537692,"0.0-3.184-0.184","mr61g5e6c6h9wml",518,"95.csv","","443.80000001192093","resources/trios/L2T4A3.jpg","37","restless",0.4,0.4,0.5,0.852065920714195,"false"
"image-keyboard-response",564,538095,"0.0-3.184-1.184","mr61g5e6c6h9wml",518,"95.csv","","null","resources/maskTrios/L2BB.jpg","null","",NA,NA,NA,NA,""
"image-keyboard-response",565,539299,"0.0-3.184-2.184","mr61g5e6c6h9wml",518,"95.csv","","null","resources/images/fishbone.png","null","",NA,NA,NA,NA,""
"image-keyboard-response",566,540389,"0.0-3.185-0.185","mr61g5e6c6h9wml",518,"95.csv","","1089.1000000238419","resources/trios/L2T1A2.jpg","38","restless",0.4,0.4,0.5,0.0305682597404056,"true"
"image-keyboard-response",567,540795,"0.0-3.185-1.185","mr61g5e6c6h9wml",518,"95.csv","","null","resources/maskTrios/BT1B.jpg","null","",NA,NA,NA,NA,""
"image-keyboard-response",568,542001,"0.0-3.185-2.185","mr61g5e6c6h9wml",518,"95.csv","","null","resources/images/coin2.png","null","",NA,NA,NA,NA,""
"image-keyboard-response",569,542420,"0.0-3.186-0.186","mr61g5e6c6h9wml",518,"95.csv","","418.80000001192093","resources/trios/L1T1A2.jpg","39","restless",0.4,0.4,0.4,0.47439266151129,"false"
"image-keyboard-response",570,542825,"0.0-3.186-1.186","mr61g5e6c6h9wml",518,"95.csv","","null","resources/maskTrios/BBA2.jpg","null","",NA,NA,NA,NA,""
"image-keyboard-response",571,544030,"0.0-3.186-2.186","mr61g5e6c6h9wml",518,"95.csv","","null","resources/images/fishbone.png","null","",NA,NA,NA,NA,""
"image-keyboard-response",572,544996,"0.0-3.187-0.187","mr61g5e6c6h9wml",518,"95.csv","","964.5","resources/trios/L1T4A2.jpg","37","restless",0.4,0.4,0.4,0.938163843782674,"false"
"image-keyboard-response",573,545398,"0.0-3.187-1.187","mr61g5e6c6h9wml",518,"95.csv","","null","resources/maskTrios/L1BB.jpg","null","",NA,NA,NA,NA,""
"image-keyboard-response",574,546604,"0.0-3.187-2.187","mr61g5e6c6h9wml",518,"95.csv","","null","resources/images/fishbone.png","null","",NA,NA,NA,NA,""
"image-keyboard-response",575,548557,"0.0-3.188-0.188","mr61g5e6c6h9wml",518,"95.csv","","1951.9000000357628","resources/trios/L1T1A3.jpg","39","restless",0.4,0.4,0.4,0.0561584986630583,"true"
"image-keyboard-response",576,548963,"0.0-3.188-1.188","mr61g5e6c6h9wml",518,"95.csv","","null","resources/maskTrios/BBA3.jpg","null","",NA,NA,NA,NA,""
"image-keyboard-response",577,550169,"0.0-3.188-2.188","mr61g5e6c6h9wml",518,"95.csv","","null","resources/images/coin2.png","null","",NA,NA,NA,NA,""
"image-keyboard-response",578,550757,"0.0-3.189-0.189","mr61g5e6c6h9wml",518,"95.csv","","587.3000000119209","resources/trios/L1T1A2.jpg","37","restless",0.4,0.4,0.4,0.172620456536311,"true"
"image-keyboard-response",579,551159,"0.0-3.189-1.189","mr61g5e6c6h9wml",518,"95.csv","","null","resources/maskTrios/L1BB.jpg","null","",NA,NA,NA,NA,""
"image-keyboard-response",580,552365,"0.0-3.189-2.189","mr61g5e6c6h9wml",518,"95.csv","","null","resources/images/coin2.png","null","",NA,NA,NA,NA,""
"image-keyboard-response",581,552957,"0.0-3.190-0.190","mr61g5e6c6h9wml",518,"95.csv","","590.7000000476837","resources/trios/L2T4A2.jpg","38","restless",0.4,0.4,0.4,0.801455412109699,"false"
"image-keyboard-response",582,553363,"0.0-3.190-1.190","mr61g5e6c6h9wml",518,"95.csv","","null","resources/maskTrios/BT4B.jpg","null","",NA,NA,NA,NA,""
"image-keyboard-response",583,554565,"0.0-3.190-2.190","mr61g5e6c6h9wml",518,"95.csv","","null","resources/images/fishbone.png","null","",NA,NA,NA,NA,""
"image-keyboard-response",584,555029,"0.0-3.191-0.191","mr61g5e6c6h9wml",518,"95.csv","","463.19999998807907","resources/trios/L2T4A3.jpg","39","restless",0.4,0.4,0.4,0.263637428079322,"true"
"image-keyboard-response",585,555435,"0.0-3.191-1.191","mr61g5e6c6h9wml",518,"95.csv","","null","resources/maskTrios/BBA3.jpg","null","",NA,NA,NA,NA,""
"image-keyboard-response",586,556641,"0.0-3.191-2.191","mr61g5e6c6h9wml",518,"95.csv","","null","resources/images/coin2.png","null","",NA,NA,NA,NA,""
"image-keyboard-response",587,557765,"0.0-3.192-0.192","mr61g5e6c6h9wml",518,"95.csv","","1122.8999999761581","resources/trios/L1T4A2.jpg","37","restless",0.4,0.4,0.4,0.0405561265562644,"true"
"image-keyboard-response",588,558167,"0.0-3.192-1.192","mr61g5e6c6h9wml",518,"95.csv","","null","resources/maskTrios/L1BB.jpg","null","",NA,NA,NA,NA,""
"image-keyboard-response",589,559373,"0.0-3.192-2.192","mr61g5e6c6h9wml",518,"95.csv","","null","resources/images/coin2.png","null","",NA,NA,NA,NA,""
"image-keyboard-response",590,583943,"0.0-3.193-0.193","mr61g5e6c6h9wml",518,"95.csv","","24640.30000001192","resources/trios/L1T4A2.jpg","37","restless",0.4,0.4,0.4,0.544338311986251,"false"
"image-keyboard-response",591,584350,"0.0-3.193-1.193","mr61g5e6c6h9wml",518,"95.csv","","null","resources/maskTrios/L1BB.jpg","null","",NA,NA,NA,NA,""
"image-keyboard-response",592,585556,"0.0-3.193-2.193","mr61g5e6c6h9wml",518,"95.csv","","null","resources/images/fishbone.png","null","",NA,NA,NA,NA,""
"image-keyboard-response",593,585823,"0.0-3.194-0.194","mr61g5e6c6h9wml",518,"95.csv","","266.4000000357628","resources/trios/L2T4A3.jpg","38","restless",0.4,0.4,0.4,0.793792696648515,"false"
"image-keyboard-response",594,586229,"0.0-3.194-1.194","mr61g5e6c6h9wml",518,"95.csv","","null","resources/maskTrios/BT4B.jpg","null","",NA,NA,NA,NA,""
"image-keyboard-response",595,587432,"0.0-3.194-2.194","mr61g5e6c6h9wml",518,"95.csv","","null","resources/images/fishbone.png","null","",NA,NA,NA,NA,""
"image-keyboard-response",596,587511,"0.0-3.195-0.195","mr61g5e6c6h9wml",518,"95.csv","","78.30000001192093","resources/trios/L1T4A3.jpg","39","restless",0.5,0.4,0.4,0.203850856312462,"true"
"image-keyboard-response",597,587917,"0.0-3.195-1.195","mr61g5e6c6h9wml",518,"95.csv","","null","resources/maskTrios/BBA3.jpg","null","",NA,NA,NA,NA,""
"image-keyboard-response",598,589123,"0.0-3.195-2.195","mr61g5e6c6h9wml",518,"95.csv","","null","resources/images/coin2.png","null","",NA,NA,NA,NA,""
"image-keyboard-response",599,616167,"0.0-3.196-0.196","mr61g5e6c6h9wml",518,"95.csv","","27042.399999976158","resources/trios/L1T1A3.jpg","39","restless",0.5,0.5,0.4,0.948924243485048,"false"
"image-keyboard-response",600,616573,"0.0-3.196-1.196","mr61g5e6c6h9wml",518,"95.csv","","null","resources/maskTrios/BBA3.jpg","null","",NA,NA,NA,NA,""
"image-keyboard-response",601,617779,"0.0-3.196-2.196","mr61g5e6c6h9wml",518,"95.csv","","null","resources/images/fishbone.png","null","",NA,NA,NA,NA,""
"image-keyboard-response",602,618924,"0.0-3.197-0.197","mr61g5e6c6h9wml",518,"95.csv","","1144.6000000238419","resources/trios/L2T1A2.jpg","38","restless",0.5,0.5,0.4,0.722764223363553,"false"
"image-keyboard-response",603,619327,"0.0-3.197-1.197","mr61g5e6c6h9wml",518,"95.csv","","null","resources/maskTrios/BT1B.jpg","null","",NA,NA,NA,NA,""
"image-keyboard-response",604,620533,"0.0-3.197-2.197","mr61g5e6c6h9wml",518,"95.csv","","null","resources/images/fishbone.png","null","",NA,NA,NA,NA,""
"image-keyboard-response",605,620804,"0.0-3.198-0.198","mr61g5e6c6h9wml",518,"95.csv","","270","resources/trios/L2T1A3.jpg","37","restless",0.5,0.5,0.4,0.93844276738032,"false"
"image-keyboard-response",606,621207,"0.0-3.198-1.198","mr61g5e6c6h9wml",518,"95.csv","","null","resources/maskTrios/L2BB.jpg","null","",NA,NA,NA,NA,""
"image-keyboard-response",607,622413,"0.0-3.198-2.198","mr61g5e6c6h9wml",518,"95.csv","","null","resources/images/fishbone.png","null","",NA,NA,NA,NA,""
"image-keyboard-response",608,622796,"0.0-3.199-0.199","mr61g5e6c6h9wml",518,"95.csv","","382.30000001192093","resources/trios/L1T4A3.jpg","39","restless",0.5,0.5,0.4,0.601552293538857,"false"
"image-keyboard-response",609,623202,"0.0-3.199-1.199","mr61g5e6c6h9wml",518,"95.csv","","null","resources/maskTrios/BBA3.jpg","null","",NA,NA,NA,NA,""
