"trial_type","trial_index","time_elapsed","internal_node_id","subject","participantCode","walkNumber","success","rt","stimulus","key_press","test_part","leftProb","midProb","rightProb","generatedNum","correct"
"pavlovia",0,1351,"0.0-0.0","2ok7hxhjyj16xzc",144,"67.csv","","","","","",NA,NA,NA,NA,""
"fullscreen",1,13403,"0.0-1.0","2ok7hxhjyj16xzc",144,"67.csv","true","","","","",NA,NA,NA,NA,""
"html-keyboard-response",2,28727,"0.0-2.0-0.0","2ok7hxhjyj16xzc",144,"67.csv","","15322.300000190735","<p><font size='6'>Arrrgh!</p></font><p>Can you be the best pirate? Try to find lots of gold! But beware, some islands have more gold than others, and over time, the island with the most gold may change. Can YOU figure it out? </p><font size='6'>GOOD LUCK, CAPTAIN!!!</font><p>Press any key to begin</p>","32","",NA,NA,NA,NA,""
"image-keyboard-response",3,31742,"0.0-2.0-1.0","2ok7hxhjyj16xzc",144,"67.csv","","null","resources/image_sets/111.png","null","",NA,NA,NA,NA,""
"image-keyboard-response",4,54033,"0.0-2.0-2.0","2ok7hxhjyj16xzc",144,"67.csv","","22293.60000038147","resources/image_sets/left_highlight.png","37","",NA,NA,NA,NA,""
"image-keyboard-response",5,55547,"0.0-2.0-3.0","2ok7hxhjyj16xzc",144,"67.csv","","1514.5999999046326","resources/image_sets/mid_highlight.png","38","",NA,NA,NA,NA,""
"image-keyboard-response",6,56232,"0.0-2.0-4.0","2ok7hxhjyj16xzc",144,"67.csv","","683.8000001907349","resources/image_sets/right_highlight.png","39","",NA,NA,NA,NA,""
"image-keyboard-response",7,59138,"0.0-2.0-5.0","2ok7hxhjyj16xzc",144,"67.csv","","2908.1000003814697","resources/image_sets/111.png","13","",NA,NA,NA,NA,""
"image-keyboard-response",8,62012,"0.0-2.0-6.0","2ok7hxhjyj16xzc",144,"67.csv","","2876.699999809265","resources/images/coin2.png","13","",NA,NA,NA,NA,""
"image-keyboard-response",9,63961,"0.0-2.0-7.0","2ok7hxhjyj16xzc",144,"67.csv","","1948.3000001907349","resources/images/fishbone.png","13","",NA,NA,NA,NA,""
"html-keyboard-response",10,70921,"0.0-2.0-8.0","2ok7hxhjyj16xzc",144,"67.csv","","6965.199999809265","<p>Your first journey will be a long one, but you will get a well deserved break at the end</p><p>After the break you will have four more journeys, but each will be much shorter than the first, and you will have breaks in between each</p><p>Press Enter to begin</p>","13","",NA,NA,NA,NA,""
"image-keyboard-response",11,72588,"0.0-3.0-0.0","2ok7hxhjyj16xzc",144,"67.csv","","1664.6999998092651","resources/trios/L2T2A1.jpg","37","restless",0.9,0.7,0.3,0.476076317457322,"true"
"image-keyboard-response",12,72994,"0.0-3.0-1.0","2ok7hxhjyj16xzc",144,"67.csv","","null","resources/maskTrios/L2BB.jpg","null","",NA,NA,NA,NA,""
"image-keyboard-response",13,74201,"0.0-3.0-2.0","2ok7hxhjyj16xzc",144,"67.csv","","null","resources/images/coin2.png","null","",NA,NA,NA,NA,""
"image-keyboard-response",14,77263,"0.0-3.1-0.1","2ok7hxhjyj16xzc",144,"67.csv","","3060.2999997138977","resources/trios/L1T1A2.jpg","37","restless",0.9,0.7,0.3,0.942868813261486,"false"
"image-keyboard-response",15,77674,"0.0-3.1-1.1","2ok7hxhjyj16xzc",144,"67.csv","","null","resources/maskTrios/L1BB.jpg","null","",NA,NA,NA,NA,""
"image-keyboard-response",16,78882,"0.0-3.1-2.1","2ok7hxhjyj16xzc",144,"67.csv","","null","resources/images/fishbone.png","null","",NA,NA,NA,NA,""
"image-keyboard-response",17,80907,"0.0-3.2-0.2","2ok7hxhjyj16xzc",144,"67.csv","","2023.8999996185303","resources/trios/L2T1A1.jpg","38","restless",0.9,0.7,0.3,0.693700280031333,"true"
"image-keyboard-response",18,81318,"0.0-3.2-1.2","2ok7hxhjyj16xzc",144,"67.csv","","null","resources/maskTrios/BT1B.jpg","null","",NA,NA,NA,NA,""
"image-keyboard-response",19,82526,"0.0-3.2-2.2","2ok7hxhjyj16xzc",144,"67.csv","","null","resources/images/coin2.png","null","",NA,NA,NA,NA,""
"image-keyboard-response",20,83784,"0.0-3.3-0.3","2ok7hxhjyj16xzc",144,"67.csv","","1256.7000002861023","resources/trios/L1T2A1.jpg","38","restless",0.9,0.7,0.3,0.294756387143248,"true"
"image-keyboard-response",21,84190,"0.0-3.3-1.3","2ok7hxhjyj16xzc",144,"67.csv","","null","resources/maskTrios/BT2B.jpg","null","",NA,NA,NA,NA,""
"image-keyboard-response",22,85399,"0.0-3.3-2.3","2ok7hxhjyj16xzc",144,"67.csv","","null","resources/images/coin2.png","null","",NA,NA,NA,NA,""
"image-keyboard-response",23,86601,"0.0-3.4-0.4","2ok7hxhjyj16xzc",144,"67.csv","","1200.1000003814697","resources/trios/L2T2A2.jpg","38","restless",0.9,0.7,0.3,0.942673708961828,"false"
"image-keyboard-response",24,87016,"0.0-3.4-1.4","2ok7hxhjyj16xzc",144,"67.csv","","null","resources/maskTrios/BT2B.jpg","null","",NA,NA,NA,NA,""
"image-keyboard-response",25,88224,"0.0-3.4-2.4","2ok7hxhjyj16xzc",144,"67.csv","","null","resources/images/fishbone.png","null","",NA,NA,NA,NA,""
"image-keyboard-response",26,89156,"0.0-3.5-0.5","2ok7hxhjyj16xzc",144,"67.csv","","929.8000001907349","resources/trios/L1T1A1.jpg","38","restless",0.9,0.7,0.3,0.402969944213374,"true"
"image-keyboard-response",27,89564,"0.0-3.5-1.5","2ok7hxhjyj16xzc",144,"67.csv","","null","resources/maskTrios/BT1B.jpg","null","",NA,NA,NA,NA,""
"image-keyboard-response",28,90773,"0.0-3.5-2.5","2ok7hxhjyj16xzc",144,"67.csv","","null","resources/images/coin2.png","null","",NA,NA,NA,NA,""
"image-keyboard-response",29,92034,"0.0-3.6-0.6","2ok7hxhjyj16xzc",144,"67.csv","","1259.5","resources/trios/L1T2A1.jpg","38","restless",0.9,0.7,0.3,0.726862181640555,"false"
"image-keyboard-response",30,92443,"0.0-3.6-1.6","2ok7hxhjyj16xzc",144,"67.csv","","null","resources/maskTrios/BT2B.jpg","null","",NA,NA,NA,NA,""
"image-keyboard-response",31,93655,"0.0-3.6-2.6","2ok7hxhjyj16xzc",144,"67.csv","","null","resources/images/fishbone.png","null","",NA,NA,NA,NA,""
"image-keyboard-response",32,96518,"0.0-3.7-0.7","2ok7hxhjyj16xzc",144,"67.csv","","2861.7999997138977","resources/trios/L1T2A2.jpg","37","restless",0.9,0.7,0.3,0.0736054984363848,"true"
"image-keyboard-response",33,96923,"0.0-3.7-1.7","2ok7hxhjyj16xzc",144,"67.csv","","null","resources/maskTrios/L1BB.jpg","null","",NA,NA,NA,NA,""
"image-keyboard-response",34,98134,"0.0-3.7-2.7","2ok7hxhjyj16xzc",144,"67.csv","","null","resources/images/coin2.png","null","",NA,NA,NA,NA,""
"image-keyboard-response",35,99150,"0.0-3.8-0.8","2ok7hxhjyj16xzc",144,"67.csv","","1014","resources/trios/L1T1A2.jpg","38","restless",0.9,0.7,0.3,0.516888720648707,"true"
"image-keyboard-response",36,99554,"0.0-3.8-1.8","2ok7hxhjyj16xzc",144,"67.csv","","null","resources/maskTrios/BT1B.jpg","null","",NA,NA,NA,NA,""
"image-keyboard-response",37,100763,"0.0-3.8-2.8","2ok7hxhjyj16xzc",144,"67.csv","","null","resources/images/coin2.png","null","",NA,NA,NA,NA,""
"image-keyboard-response",38,103360,"0.0-3.9-0.9","2ok7hxhjyj16xzc",144,"67.csv","","2595.0999999046326","resources/trios/L2T2A2.jpg","38","restless",0.9,0.7,0.3,0.711507043058981,"false"
"image-keyboard-response",39,103770,"0.0-3.9-1.9","2ok7hxhjyj16xzc",144,"67.csv","","null","resources/maskTrios/BT2B.jpg","null","",NA,NA,NA,NA,""
"image-keyboard-response",40,104979,"0.0-3.9-2.9","2ok7hxhjyj16xzc",144,"67.csv","","null","resources/images/fishbone.png","null","",NA,NA,NA,NA,""
"image-keyboard-response",41,106311,"0.0-3.10-0.10","2ok7hxhjyj16xzc",144,"67.csv","","1330.3000001907349","resources/trios/L2T1A1.jpg","38","restless",0.9,0.6,0.3,0.912077035821633,"false"
"image-keyboard-response",42,106721,"0.0-3.10-1.10","2ok7hxhjyj16xzc",144,"67.csv","","null","resources/maskTrios/BT1B.jpg","null","",NA,NA,NA,NA,""
"image-keyboard-response",43,107930,"0.0-3.10-2.10","2ok7hxhjyj16xzc",144,"67.csv","","null","resources/images/fishbone.png","null","",NA,NA,NA,NA,""
"image-keyboard-response",44,110276,"0.0-3.11-0.11","2ok7hxhjyj16xzc",144,"67.csv","","2344.699999809265","resources/trios/L2T1A2.jpg","38","restless",0.8,0.6,0.3,0.705680801438457,"false"
"image-keyboard-response",45,110681,"0.0-3.11-1.11","2ok7hxhjyj16xzc",144,"67.csv","","null","resources/maskTrios/BT1B.jpg","null","",NA,NA,NA,NA,""
"image-keyboard-response",46,111893,"0.0-3.11-2.11","2ok7hxhjyj16xzc",144,"67.csv","","null","resources/images/fishbone.png","null","",NA,NA,NA,NA,""
"image-keyboard-response",47,114001,"0.0-3.12-0.12","2ok7hxhjyj16xzc",144,"67.csv","","2106.5","resources/trios/L1T1A2.jpg","38","restless",0.8,0.6,0.2,0.359282105013372,"true"
"image-keyboard-response",48,114411,"0.0-3.12-1.12","2ok7hxhjyj16xzc",144,"67.csv","","null","resources/maskTrios/BT1B.jpg","null","",NA,NA,NA,NA,""
"image-keyboard-response",49,115617,"0.0-3.12-2.12","2ok7hxhjyj16xzc",144,"67.csv","","null","resources/images/coin2.png","null","",NA,NA,NA,NA,""
"image-keyboard-response",50,116670,"0.0-3.13-0.13","2ok7hxhjyj16xzc",144,"67.csv","","1052","resources/trios/L1T1A2.jpg","38","restless",0.7,0.6,0.2,0.424113203365989,"true"
"image-keyboard-response",51,117085,"0.0-3.13-1.13","2ok7hxhjyj16xzc",144,"67.csv","","null","resources/maskTrios/BT1B.jpg","null","",NA,NA,NA,NA,""
"image-keyboard-response",52,118292,"0.0-3.13-2.13","2ok7hxhjyj16xzc",144,"67.csv","","null","resources/images/coin2.png","null","",NA,NA,NA,NA,""
"image-keyboard-response",53,119130,"0.0-3.14-0.14","2ok7hxhjyj16xzc",144,"67.csv","","836.0999999046326","resources/trios/L1T1A2.jpg","38","restless",0.7,0.6,0.2,0.471641107260809,"true"
"image-keyboard-response",54,119539,"0.0-3.14-1.14","2ok7hxhjyj16xzc",144,"67.csv","","null","resources/maskTrios/BT1B.jpg","null","",NA,NA,NA,NA,""
"image-keyboard-response",55,120747,"0.0-3.14-2.14","2ok7hxhjyj16xzc",144,"67.csv","","null","resources/images/coin2.png","null","",NA,NA,NA,NA,""
"image-keyboard-response",56,122120,"0.0-3.15-0.15","2ok7hxhjyj16xzc",144,"67.csv","","1370.5","resources/trios/L1T1A1.jpg","38","restless",0.7,0.6,0.2,0.904977797968594,"false"
"image-keyboard-response",57,122532,"0.0-3.15-1.15","2ok7hxhjyj16xzc",144,"67.csv","","null","resources/maskTrios/BT1B.jpg","null","",NA,NA,NA,NA,""
"image-keyboard-response",58,123735,"0.0-3.15-2.15","2ok7hxhjyj16xzc",144,"67.csv","","null","resources/images/fishbone.png","null","",NA,NA,NA,NA,""
"image-keyboard-response",59,126415,"0.0-3.16-0.16","2ok7hxhjyj16xzc",144,"67.csv","","2677.699999809265","resources/trios/L2T2A1.jpg","37","restless",0.7,0.6,0.2,0.560697529166876,"true"
"image-keyboard-response",60,126825,"0.0-3.16-1.16","2ok7hxhjyj16xzc",144,"67.csv","","null","resources/maskTrios/L2BB.jpg","null","",NA,NA,NA,NA,""
"image-keyboard-response",61,128032,"0.0-3.16-2.16","2ok7hxhjyj16xzc",144,"67.csv","","null","resources/images/coin2.png","null","",NA,NA,NA,NA,""
"image-keyboard-response",62,129150,"0.0-3.17-0.17","2ok7hxhjyj16xzc",144,"67.csv","","1115.5","resources/trios/L2T1A2.jpg","38","restless",0.6,0.6,0.2,0.289757136460035,"true"
"image-keyboard-response",63,129554,"0.0-3.17-1.17","2ok7hxhjyj16xzc",144,"67.csv","","null","resources/maskTrios/BT1B.jpg","null","",NA,NA,NA,NA,""
"image-keyboard-response",64,130760,"0.0-3.17-2.17","2ok7hxhjyj16xzc",144,"67.csv","","null","resources/images/coin2.png","null","",NA,NA,NA,NA,""
"image-keyboard-response",65,132562,"0.0-3.18-0.18","2ok7hxhjyj16xzc",144,"67.csv","","1799.4000000953674","resources/trios/L2T1A1.jpg","38","restless",0.6,0.6,0.2,0.815737778638565,"false"
"image-keyboard-response",66,132968,"0.0-3.18-1.18","2ok7hxhjyj16xzc",144,"67.csv","","null","resources/maskTrios/BT1B.jpg","null","",NA,NA,NA,NA,""
"image-keyboard-response",67,134176,"0.0-3.18-2.18","2ok7hxhjyj16xzc",144,"67.csv","","null","resources/images/fishbone.png","null","",NA,NA,NA,NA,""
"image-keyboard-response",68,135210,"0.0-3.19-0.19","2ok7hxhjyj16xzc",144,"67.csv","","1031.5","resources/trios/L1T2A2.jpg","37","restless",0.6,0.6,0.2,0.31023890782007,"true"
"image-keyboard-response",69,135616,"0.0-3.19-1.19","2ok7hxhjyj16xzc",144,"67.csv","","null","resources/maskTrios/L1BB.jpg","null","",NA,NA,NA,NA,""
"image-keyboard-response",70,136824,"0.0-3.19-2.19","2ok7hxhjyj16xzc",144,"67.csv","","null","resources/images/coin2.png","null","",NA,NA,NA,NA,""
"image-keyboard-response",71,138239,"0.0-3.20-0.20","2ok7hxhjyj16xzc",144,"67.csv","","1412.3999996185303","resources/trios/L2T2A2.jpg","37","restless",0.6,0.7,0.2,0.420214724697334,"true"
"image-keyboard-response",72,138651,"0.0-3.20-1.20","2ok7hxhjyj16xzc",144,"67.csv","","null","resources/maskTrios/L2BB.jpg","null","",NA,NA,NA,NA,""
"image-keyboard-response",73,139855,"0.0-3.20-2.20","2ok7hxhjyj16xzc",144,"67.csv","","null","resources/images/coin2.png","null","",NA,NA,NA,NA,""
"image-keyboard-response",74,142049,"0.0-3.21-0.21","2ok7hxhjyj16xzc",144,"67.csv","","2191.800000190735","resources/trios/L2T1A1.jpg","38","restless",0.6,0.7,0.2,0.0052839033793266,"true"
"image-keyboard-response",75,142457,"0.0-3.21-1.21","2ok7hxhjyj16xzc",144,"67.csv","","null","resources/maskTrios/BT1B.jpg","null","",NA,NA,NA,NA,""
"image-keyboard-response",76,143667,"0.0-3.21-2.21","2ok7hxhjyj16xzc",144,"67.csv","","null","resources/images/coin2.png","null","",NA,NA,NA,NA,""
"image-keyboard-response",77,144285,"0.0-3.22-0.22","2ok7hxhjyj16xzc",144,"67.csv","","615.2000002861023","resources/trios/L2T1A1.jpg","38","restless",0.6,0.7,0.2,0.12829372781739,"true"
"image-keyboard-response",78,144695,"0.0-3.22-1.22","2ok7hxhjyj16xzc",144,"67.csv","","null","resources/maskTrios/BT1B.jpg","null","",NA,NA,NA,NA,""
"image-keyboard-response",79,145904,"0.0-3.22-2.22","2ok7hxhjyj16xzc",144,"67.csv","","null","resources/images/coin2.png","null","",NA,NA,NA,NA,""
"image-keyboard-response",80,147356,"0.0-3.23-0.23","2ok7hxhjyj16xzc",144,"67.csv","","1451","resources/trios/L2T1A2.jpg","38","restless",0.6,0.6,0.2,0.685912524217629,"false"
"image-keyboard-response",81,147760,"0.0-3.23-1.23","2ok7hxhjyj16xzc",144,"67.csv","","null","resources/maskTrios/BT1B.jpg","null","",NA,NA,NA,NA,""
"image-keyboard-response",82,148968,"0.0-3.23-2.23","2ok7hxhjyj16xzc",144,"67.csv","","null","resources/images/fishbone.png","null","",NA,NA,NA,NA,""
"image-keyboard-response",83,149935,"0.0-3.24-0.24","2ok7hxhjyj16xzc",144,"67.csv","","965.0999999046326","resources/trios/L1T1A1.jpg","37","restless",0.6,0.6,0.2,0.555485879933051,"true"
"image-keyboard-response",84,150344,"0.0-3.24-1.24","2ok7hxhjyj16xzc",144,"67.csv","","null","resources/maskTrios/L1BB.jpg","null","",NA,NA,NA,NA,""
"image-keyboard-response",85,151553,"0.0-3.24-2.24","2ok7hxhjyj16xzc",144,"67.csv","","null","resources/images/coin2.png","null","",NA,NA,NA,NA,""
"image-keyboard-response",86,152564,"0.0-3.25-0.25","2ok7hxhjyj16xzc",144,"67.csv","","1008.7000002861023","resources/trios/L1T1A2.jpg","37","restless",0.6,0.6,0.2,0.413285462344265,"true"
"image-keyboard-response",87,152968,"0.0-3.25-1.25","2ok7hxhjyj16xzc",144,"67.csv","","null","resources/maskTrios/L1BB.jpg","null","",NA,NA,NA,NA,""
"image-keyboard-response",88,154176,"0.0-3.25-2.25","2ok7hxhjyj16xzc",144,"67.csv","","null","resources/images/coin2.png","null","",NA,NA,NA,NA,""
"image-keyboard-response",89,155219,"0.0-3.26-0.26","2ok7hxhjyj16xzc",144,"67.csv","","1041.5999999046326","resources/trios/L2T1A2.jpg","38","restless",0.6,0.6,0.2,0.273923277547708,"true"
"image-keyboard-response",90,155623,"0.0-3.26-1.26","2ok7hxhjyj16xzc",144,"67.csv","","null","resources/maskTrios/BT1B.jpg","null","",NA,NA,NA,NA,""
"image-keyboard-response",91,156831,"0.0-3.26-2.26","2ok7hxhjyj16xzc",144,"67.csv","","null","resources/images/coin2.png","null","",NA,NA,NA,NA,""
"image-keyboard-response",92,157688,"0.0-3.27-0.27","2ok7hxhjyj16xzc",144,"67.csv","","855.3000001907349","resources/trios/L1T2A2.jpg","38","restless",0.6,0.6,0.3,0.36738586545899,"true"
"image-keyboard-response",93,158095,"0.0-3.27-1.27","2ok7hxhjyj16xzc",144,"67.csv","","null","resources/maskTrios/BT2B.jpg","null","",NA,NA,NA,NA,""
"image-keyboard-response",94,159303,"0.0-3.27-2.27","2ok7hxhjyj16xzc",144,"67.csv","","null","resources/images/coin2.png","null","",NA,NA,NA,NA,""
"image-keyboard-response",95,160717,"0.0-3.28-0.28","2ok7hxhjyj16xzc",144,"67.csv","","1411.7999997138977","resources/trios/L1T1A1.jpg","38","restless",0.6,0.6,0.3,0.110945478223854,"true"
"image-keyboard-response",96,161131,"0.0-3.28-1.28","2ok7hxhjyj16xzc",144,"67.csv","","null","resources/maskTrios/BT1B.jpg","null","",NA,NA,NA,NA,""
"image-keyboard-response",97,162335,"0.0-3.28-2.28","2ok7hxhjyj16xzc",144,"67.csv","","null","resources/images/coin2.png","null","",NA,NA,NA,NA,""
"image-keyboard-response",98,162850,"0.0-3.29-0.29","2ok7hxhjyj16xzc",144,"67.csv","","512.8999996185303","resources/trios/L2T1A2.jpg","38","restless",0.6,0.6,0.3,0.0734505397572851,"true"
"image-keyboard-response",99,163259,"0.0-3.29-1.29","2ok7hxhjyj16xzc",144,"67.csv","","null","resources/maskTrios/BT1B.jpg","null","",NA,NA,NA,NA,""
"image-keyboard-response",100,164467,"0.0-3.29-2.29","2ok7hxhjyj16xzc",144,"67.csv","","null","resources/images/coin2.png","null","",NA,NA,NA,NA,""
"image-keyboard-response",101,165315,"0.0-3.30-0.30","2ok7hxhjyj16xzc",144,"67.csv","","846.4000000953674","resources/trios/L2T1A2.jpg","38","restless",0.5,0.6,0.3,0.763531691936802,"false"
"image-keyboard-response",102,165721,"0.0-3.30-1.30","2ok7hxhjyj16xzc",144,"67.csv","","null","resources/maskTrios/BT1B.jpg","null","",NA,NA,NA,NA,""
"image-keyboard-response",103,166926,"0.0-3.30-2.30","2ok7hxhjyj16xzc",144,"67.csv","","null","resources/images/fishbone.png","null","",NA,NA,NA,NA,""
"image-keyboard-response",104,167797,"0.0-3.31-0.31","2ok7hxhjyj16xzc",144,"67.csv","","868.3000001907349","resources/trios/L2T1A1.jpg","37","restless",0.5,0.6,0.3,0.496018086931865,"true"
"image-keyboard-response",105,168209,"0.0-3.31-1.31","2ok7hxhjyj16xzc",144,"67.csv","","null","resources/maskTrios/L2BB.jpg","null","",NA,NA,NA,NA,""
"image-keyboard-response",106,169414,"0.0-3.31-2.31","2ok7hxhjyj16xzc",144,"67.csv","","null","resources/images/coin2.png","null","",NA,NA,NA,NA,""
"image-keyboard-response",107,170411,"0.0-3.32-0.32","2ok7hxhjyj16xzc",144,"67.csv","","994.5","resources/trios/L2T2A2.jpg","37","restless",0.5,0.6,0.3,0.612009460042841,"false"
"image-keyboard-response",108,170814,"0.0-3.32-1.32","2ok7hxhjyj16xzc",144,"67.csv","","null","resources/maskTrios/L2BB.jpg","null","",NA,NA,NA,NA,""
"image-keyboard-response",109,172026,"0.0-3.32-2.32","2ok7hxhjyj16xzc",144,"67.csv","","null","resources/images/fishbone.png","null","",NA,NA,NA,NA,""
"image-keyboard-response",110,173408,"0.0-3.33-0.33","2ok7hxhjyj16xzc",144,"67.csv","","1379.5","resources/trios/L1T2A2.jpg","38","restless",0.5,0.6,0.3,0.911441732448331,"false"
"image-keyboard-response",111,173818,"0.0-3.33-1.33","2ok7hxhjyj16xzc",144,"67.csv","","null","resources/maskTrios/BT2B.jpg","null","",NA,NA,NA,NA,""
"image-keyboard-response",112,175026,"0.0-3.33-2.33","2ok7hxhjyj16xzc",144,"67.csv","","null","resources/images/fishbone.png","null","",NA,NA,NA,NA,""
"image-keyboard-response",113,176597,"0.0-3.34-0.34","2ok7hxhjyj16xzc",144,"67.csv","","1569.0999999046326","resources/trios/L1T2A2.jpg","37","restless",0.5,0.6,0.3,0.545962499572242,"false"
"image-keyboard-response",114,177010,"0.0-3.34-1.34","2ok7hxhjyj16xzc",144,"67.csv","","null","resources/maskTrios/L1BB.jpg","null","",NA,NA,NA,NA,""
"image-keyboard-response",115,178213,"0.0-3.34-2.34","2ok7hxhjyj16xzc",144,"67.csv","","null","resources/images/fishbone.png","null","",NA,NA,NA,NA,""
"image-keyboard-response",116,179300,"0.0-3.35-0.35","2ok7hxhjyj16xzc",144,"67.csv","","1084.8000001907349","resources/trios/L1T1A2.jpg","38","restless",0.6,0.5,0.3,0.0163467918558582,"true"
"image-keyboard-response",117,179710,"0.0-3.35-1.35","2ok7hxhjyj16xzc",144,"67.csv","","null","resources/maskTrios/BT1B.jpg","null","",NA,NA,NA,NA,""
"image-keyboard-response",118,180921,"0.0-3.35-2.35","2ok7hxhjyj16xzc",144,"67.csv","","null","resources/images/coin2.png","null","",NA,NA,NA,NA,""
"image-keyboard-response",119,182758,"0.0-3.36-0.36","2ok7hxhjyj16xzc",144,"67.csv","","1835.4000000953674","resources/trios/L2T2A2.jpg","37","restless",0.6,0.5,0.3,0.457803367749735,"true"
"image-keyboard-response",120,183166,"0.0-3.36-1.36","2ok7hxhjyj16xzc",144,"67.csv","","null","resources/maskTrios/L2BB.jpg","null","",NA,NA,NA,NA,""
"image-keyboard-response",121,184375,"0.0-3.36-2.36","2ok7hxhjyj16xzc",144,"67.csv","","null","resources/images/coin2.png","null","",NA,NA,NA,NA,""
"image-keyboard-response",122,189402,"0.0-3.37-0.37","2ok7hxhjyj16xzc",144,"67.csv","","5025.699999809265","resources/trios/L2T1A1.jpg","38","restless",0.6,0.5,0.3,0.0599439770388721,"true"
"image-keyboard-response",123,189807,"0.0-3.37-1.37","2ok7hxhjyj16xzc",144,"67.csv","","null","resources/maskTrios/BT1B.jpg","null","",NA,NA,NA,NA,""
"image-keyboard-response",124,191018,"0.0-3.37-2.37","2ok7hxhjyj16xzc",144,"67.csv","","null","resources/images/coin2.png","null","",NA,NA,NA,NA,""
"image-keyboard-response",125,192005,"0.0-3.38-0.38","2ok7hxhjyj16xzc",144,"67.csv","","985.2000002861023","resources/trios/L1T1A1.jpg","38","restless",0.6,0.5,0.3,0.0998993407830429,"true"
"image-keyboard-response",126,192414,"0.0-3.38-1.38","2ok7hxhjyj16xzc",144,"67.csv","","null","resources/maskTrios/BT1B.jpg","null","",NA,NA,NA,NA,""
"image-keyboard-response",127,193626,"0.0-3.38-2.38","2ok7hxhjyj16xzc",144,"67.csv","","null","resources/images/coin2.png","null","",NA,NA,NA,NA,""
"image-keyboard-response",128,194202,"0.0-3.39-0.39","2ok7hxhjyj16xzc",144,"67.csv","","574","resources/trios/L2T1A2.jpg","38","restless",0.6,0.5,0.3,0.986275815468139,"false"
"image-keyboard-response",129,194606,"0.0-3.39-1.39","2ok7hxhjyj16xzc",144,"67.csv","","null","resources/maskTrios/BT1B.jpg","null","",NA,NA,NA,NA,""
"image-keyboard-response",130,195814,"0.0-3.39-2.39","2ok7hxhjyj16xzc",144,"67.csv","","null","resources/images/fishbone.png","null","",NA,NA,NA,NA,""
"image-keyboard-response",131,196440,"0.0-3.40-0.40","2ok7hxhjyj16xzc",144,"67.csv","","624.3000001907349","resources/trios/L2T1A2.jpg","37","restless",0.6,0.5,0.4,0.548174467650427,"true"
"image-keyboard-response",132,196846,"0.0-3.40-1.40","2ok7hxhjyj16xzc",144,"67.csv","","null","resources/maskTrios/L2BB.jpg","null","",NA,NA,NA,NA,""
"image-keyboard-response",133,198053,"0.0-3.40-2.40","2ok7hxhjyj16xzc",144,"67.csv","","null","resources/images/coin2.png","null","",NA,NA,NA,NA,""
"image-keyboard-response",134,199009,"0.0-3.41-0.41","2ok7hxhjyj16xzc",144,"67.csv","","954","resources/trios/L1T1A2.jpg","37","restless",0.6,0.5,0.4,0.197634099976946,"true"
"image-keyboard-response",135,199414,"0.0-3.41-1.41","2ok7hxhjyj16xzc",144,"67.csv","","null","resources/maskTrios/L1BB.jpg","null","",NA,NA,NA,NA,""
"image-keyboard-response",136,200622,"0.0-3.41-2.41","2ok7hxhjyj16xzc",144,"67.csv","","null","resources/images/coin2.png","null","",NA,NA,NA,NA,""
"image-keyboard-response",137,201281,"0.0-3.42-0.42","2ok7hxhjyj16xzc",144,"67.csv","","657.3999996185303","resources/trios/L2T1A2.jpg","37","restless",0.6,0.5,0.4,0.375753347718553,"true"
"image-keyboard-response",138,201685,"0.0-3.42-1.42","2ok7hxhjyj16xzc",144,"67.csv","","null","resources/maskTrios/L2BB.jpg","null","",NA,NA,NA,NA,""
"image-keyboard-response",139,202895,"0.0-3.42-2.42","2ok7hxhjyj16xzc",144,"67.csv","","null","resources/images/coin2.png","null","",NA,NA,NA,NA,""
"image-keyboard-response",140,203652,"0.0-3.43-0.43","2ok7hxhjyj16xzc",144,"67.csv","","755.0999999046326","resources/trios/L2T1A1.jpg","38","restless",0.6,0.5,0.4,0.793259545846945,"false"
"image-keyboard-response",141,204065,"0.0-3.43-1.43","2ok7hxhjyj16xzc",144,"67.csv","","null","resources/maskTrios/BT1B.jpg","null","",NA,NA,NA,NA,""
"image-keyboard-response",142,205273,"0.0-3.43-2.43","2ok7hxhjyj16xzc",144,"67.csv","","null","resources/images/fishbone.png","null","",NA,NA,NA,NA,""
"image-keyboard-response",143,205845,"0.0-3.44-0.44","2ok7hxhjyj16xzc",144,"67.csv","","570.3999996185303","resources/trios/L1T1A2.jpg","37","restless",0.6,0.5,0.4,0.83080867919965,"false"
"image-keyboard-response",144,206256,"0.0-3.44-1.44","2ok7hxhjyj16xzc",144,"67.csv","","null","resources/maskTrios/L1BB.jpg","null","",NA,NA,NA,NA,""
"image-keyboard-response",145,207464,"0.0-3.44-2.44","2ok7hxhjyj16xzc",144,"67.csv","","null","resources/images/fishbone.png","null","",NA,NA,NA,NA,""
"image-keyboard-response",146,208035,"0.0-3.45-0.45","2ok7hxhjyj16xzc",144,"67.csv","","569.2999997138977","resources/trios/L1T2A2.jpg","38","restless",0.6,0.5,0.4,0.365420528435898,"true"
"image-keyboard-response",147,208449,"0.0-3.45-1.45","2ok7hxhjyj16xzc",144,"67.csv","","null","resources/maskTrios/BT2B.jpg","null","",NA,NA,NA,NA,""
"image-keyboard-response",148,209653,"0.0-3.45-2.45","2ok7hxhjyj16xzc",144,"67.csv","","null","resources/images/coin2.png","null","",NA,NA,NA,NA,""
"image-keyboard-response",149,210230,"0.0-3.46-0.46","2ok7hxhjyj16xzc",144,"67.csv","","574.6999998092651","resources/trios/L2T1A2.jpg","38","restless",0.6,0.5,0.4,0.274621576603267,"true"
"image-keyboard-response",150,210638,"0.0-3.46-1.46","2ok7hxhjyj16xzc",144,"67.csv","","null","resources/maskTrios/BT1B.jpg","null","",NA,NA,NA,NA,""
"image-keyboard-response",151,211846,"0.0-3.46-2.46","2ok7hxhjyj16xzc",144,"67.csv","","null","resources/images/coin2.png","null","",NA,NA,NA,NA,""
"image-keyboard-response",152,212687,"0.0-3.47-0.47","2ok7hxhjyj16xzc",144,"67.csv","","839.3999996185303","resources/trios/L2T2A1.jpg","37","restless",0.6,0.5,0.4,0.128041010921184,"true"
"image-keyboard-response",153,213094,"0.0-3.47-1.47","2ok7hxhjyj16xzc",144,"67.csv","","null","resources/maskTrios/L2BB.jpg","null","",NA,NA,NA,NA,""
"image-keyboard-response",154,214302,"0.0-3.47-2.47","2ok7hxhjyj16xzc",144,"67.csv","","null","resources/images/coin2.png","null","",NA,NA,NA,NA,""
"image-keyboard-response",155,214957,"0.0-3.48-0.48","2ok7hxhjyj16xzc",144,"67.csv","","652.4000000953674","resources/trios/L2T1A1.jpg","38","restless",0.6,0.5,0.4,0.227913963147438,"true"
"image-keyboard-response",156,215365,"0.0-3.48-1.48","2ok7hxhjyj16xzc",144,"67.csv","","null","resources/maskTrios/BT1B.jpg","null","",NA,NA,NA,NA,""
"image-keyboard-response",157,216574,"0.0-3.48-2.48","2ok7hxhjyj16xzc",144,"67.csv","","null","resources/images/coin2.png","null","",NA,NA,NA,NA,""
"image-keyboard-response",158,217086,"0.0-3.49-0.49","2ok7hxhjyj16xzc",144,"67.csv","","510.2000002861023","resources/trios/L1T2A2.jpg","38","restless",0.6,0.5,0.4,0.0886073282513922,"true"
"image-keyboard-response",159,217489,"0.0-3.49-1.49","2ok7hxhjyj16xzc",144,"67.csv","","null","resources/maskTrios/BT2B.jpg","null","",NA,NA,NA,NA,""
"image-keyboard-response",160,218695,"0.0-3.49-2.49","2ok7hxhjyj16xzc",144,"67.csv","","null","resources/images/coin2.png","null","",NA,NA,NA,NA,""
"image-keyboard-response",161,219189,"0.0-3.50-0.50","2ok7hxhjyj16xzc",144,"67.csv","","492","resources/trios/L1T2A1.jpg","38","restless",0.6,0.5,0.4,0.325225651237053,"true"
"image-keyboard-response",162,219597,"0.0-3.50-1.50","2ok7hxhjyj16xzc",144,"67.csv","","null","resources/maskTrios/BT2B.jpg","null","",NA,NA,NA,NA,""
"image-keyboard-response",163,220807,"0.0-3.50-2.50","2ok7hxhjyj16xzc",144,"67.csv","","null","resources/images/coin2.png","null","",NA,NA,NA,NA,""
"image-keyboard-response",164,221487,"0.0-3.51-0.51","2ok7hxhjyj16xzc",144,"67.csv","","677.7999997138977","resources/trios/L1T2A1.jpg","38","restless",0.7,0.5,0.4,0.41492332503778,"true"
"image-keyboard-response",165,221895,"0.0-3.51-1.51","2ok7hxhjyj16xzc",144,"67.csv","","null","resources/maskTrios/BT2B.jpg","null","",NA,NA,NA,NA,""
"image-keyboard-response",166,223104,"0.0-3.51-2.51","2ok7hxhjyj16xzc",144,"67.csv","","null","resources/images/coin2.png","null","",NA,NA,NA,NA,""
"image-keyboard-response",167,223800,"0.0-3.52-0.52","2ok7hxhjyj16xzc",144,"67.csv","","693.9000000953674","resources/trios/L1T2A1.jpg","38","restless",0.7,0.5,0.5,0.880945897284623,"false"
"image-keyboard-response",168,224208,"0.0-3.52-1.52","2ok7hxhjyj16xzc",144,"67.csv","","null","resources/maskTrios/BT2B.jpg","null","",NA,NA,NA,NA,""
"image-keyboard-response",169,225413,"0.0-3.52-2.52","2ok7hxhjyj16xzc",144,"67.csv","","null","resources/images/fishbone.png","null","",NA,NA,NA,NA,""
"image-keyboard-response",170,227981,"0.0-3.53-0.53","2ok7hxhjyj16xzc",144,"67.csv","","2566.0999999046326","resources/trios/L2T2A1.jpg","38","restless",0.7,0.5,0.5,0.965236023872601,"false"
"image-keyboard-response",171,228389,"0.0-3.53-1.53","2ok7hxhjyj16xzc",144,"67.csv","","null","resources/maskTrios/BT2B.jpg","null","",NA,NA,NA,NA,""
"image-keyboard-response",172,229597,"0.0-3.53-2.53","2ok7hxhjyj16xzc",144,"67.csv","","null","resources/images/fishbone.png","null","",NA,NA,NA,NA,""
"image-keyboard-response",173,232533,"0.0-3.54-0.54","2ok7hxhjyj16xzc",144,"67.csv","","2933.7000002861023","resources/trios/L2T2A1.jpg","37","restless",0.7,0.5,0.5,0.171927861032211,"true"
"image-keyboard-response",174,232940,"0.0-3.54-1.54","2ok7hxhjyj16xzc",144,"67.csv","","null","resources/maskTrios/L2BB.jpg","null","",NA,NA,NA,NA,""
"image-keyboard-response",175,234152,"0.0-3.54-2.54","2ok7hxhjyj16xzc",144,"67.csv","","null","resources/images/coin2.png","null","",NA,NA,NA,NA,""
"image-keyboard-response",176,237392,"0.0-3.55-0.55","2ok7hxhjyj16xzc",144,"67.csv","","3237.5","resources/trios/L2T2A1.jpg","37","restless",0.6,0.6,0.5,0.550713671558489,"true"
"image-keyboard-response",177,237795,"0.0-3.55-1.55","2ok7hxhjyj16xzc",144,"67.csv","","null","resources/maskTrios/L2BB.jpg","null","",NA,NA,NA,NA,""
"image-keyboard-response",178,239006,"0.0-3.55-2.55","2ok7hxhjyj16xzc",144,"67.csv","","null","resources/images/coin2.png","null","",NA,NA,NA,NA,""
"image-keyboard-response",179,240449,"0.0-3.56-0.56","2ok7hxhjyj16xzc",144,"67.csv","","1441.5","resources/trios/L2T1A1.jpg","38","restless",0.6,0.6,0.5,0.986380403460027,"false"
"image-keyboard-response",180,240861,"0.0-3.56-1.56","2ok7hxhjyj16xzc",144,"67.csv","","null","resources/maskTrios/BT1B.jpg","null","",NA,NA,NA,NA,""
"image-keyboard-response",181,242068,"0.0-3.56-2.56","2ok7hxhjyj16xzc",144,"67.csv","","null","resources/images/fishbone.png","null","",NA,NA,NA,NA,""
"image-keyboard-response",182,243642,"0.0-3.57-0.57","2ok7hxhjyj16xzc",144,"67.csv","","1571.9000000953674","resources/trios/L1T1A2.jpg","37","restless",0.6,0.7,0.5,0.542101884654179,"true"
"image-keyboard-response",183,244048,"0.0-3.57-1.57","2ok7hxhjyj16xzc",144,"67.csv","","null","resources/maskTrios/L1BB.jpg","null","",NA,NA,NA,NA,""
"image-keyboard-response",184,245251,"0.0-3.57-2.57","2ok7hxhjyj16xzc",144,"67.csv","","null","resources/images/coin2.png","null","",NA,NA,NA,NA,""
"image-keyboard-response",185,253507,"0.0-3.58-0.58","2ok7hxhjyj16xzc",144,"67.csv","","8254.200000286102","resources/trios/L2T2A1.jpg","37","restless",0.6,0.7,0.5,0.207948222269915,"true"
"image-keyboard-response",186,253916,"0.0-3.58-1.58","2ok7hxhjyj16xzc",144,"67.csv","","null","resources/maskTrios/L2BB.jpg","null","",NA,NA,NA,NA,""
"image-keyboard-response",187,255124,"0.0-3.58-2.58","2ok7hxhjyj16xzc",144,"67.csv","","null","resources/images/coin2.png","null","",NA,NA,NA,NA,""
"image-keyboard-response",188,259448,"0.0-3.59-0.59","2ok7hxhjyj16xzc",144,"67.csv","","4321.599999904633","resources/trios/L2T2A1.jpg","37","restless",0.7,0.8,0.5,0.908164554565004,"false"
"image-keyboard-response",189,259852,"0.0-3.59-1.59","2ok7hxhjyj16xzc",144,"67.csv","","null","resources/maskTrios/L2BB.jpg","null","",NA,NA,NA,NA,""
"image-keyboard-response",190,261063,"0.0-3.59-2.59","2ok7hxhjyj16xzc",144,"67.csv","","null","resources/images/fishbone.png","null","",NA,NA,NA,NA,""
"image-keyboard-response",191,261718,"0.0-3.60-0.60","2ok7hxhjyj16xzc",144,"67.csv","","652.7000002861023","resources/trios/L2T1A1.jpg","38","restless",0.7,0.8,0.5,0.221030853991706,"true"
"image-keyboard-response",192,262127,"0.0-3.60-1.60","2ok7hxhjyj16xzc",144,"67.csv","","null","resources/maskTrios/BT1B.jpg","null","",NA,NA,NA,NA,""
"image-keyboard-response",193,263332,"0.0-3.60-2.60","2ok7hxhjyj16xzc",144,"67.csv","","null","resources/images/coin2.png","null","",NA,NA,NA,NA,""
"image-keyboard-response",194,264038,"0.0-3.61-0.61","2ok7hxhjyj16xzc",144,"67.csv","","704.5999999046326","resources/trios/L2T2A2.jpg","38","restless",0.7,0.9,0.5,0.541269560566653,"true"
"image-keyboard-response",195,264443,"0.0-3.61-1.61","2ok7hxhjyj16xzc",144,"67.csv","","null","resources/maskTrios/BT2B.jpg","null","",NA,NA,NA,NA,""
"image-keyboard-response",196,265655,"0.0-3.61-2.61","2ok7hxhjyj16xzc",144,"67.csv","","null","resources/images/coin2.png","null","",NA,NA,NA,NA,""
"image-keyboard-response",197,266773,"0.0-3.62-0.62","2ok7hxhjyj16xzc",144,"67.csv","","1115.4000000953674","resources/trios/L1T2A2.jpg","37","restless",0.7,0.9,0.5,0.888864694115544,"false"
"image-keyboard-response",198,267180,"0.0-3.62-1.62","2ok7hxhjyj16xzc",144,"67.csv","","null","resources/maskTrios/L1BB.jpg","null","",NA,NA,NA,NA,""
"image-keyboard-response",199,268390,"0.0-3.62-2.62","2ok7hxhjyj16xzc",144,"67.csv","","null","resources/images/fishbone.png","null","",NA,NA,NA,NA,""
"image-keyboard-response",200,268686,"0.0-3.63-0.63","2ok7hxhjyj16xzc",144,"67.csv","","294.2999997138977","resources/trios/L2T1A2.jpg","38","restless",0.7,0.9,0.5,0.970275969977798,"false"
"image-keyboard-response",201,269092,"0.0-3.63-1.63","2ok7hxhjyj16xzc",144,"67.csv","","null","resources/maskTrios/BT1B.jpg","null","",NA,NA,NA,NA,""
"image-keyboard-response",202,270301,"0.0-3.63-2.63","2ok7hxhjyj16xzc",144,"67.csv","","null","resources/images/fishbone.png","null","",NA,NA,NA,NA,""
"image-keyboard-response",203,271254,"0.0-3.64-0.64","2ok7hxhjyj16xzc",144,"67.csv","","952.2999997138977","resources/trios/L1T2A1.jpg","38","restless",0.7,0.9,0.5,0.895175596851852,"true"
"image-keyboard-response",204,271660,"0.0-3.64-1.64","2ok7hxhjyj16xzc",144,"67.csv","","null","resources/maskTrios/BT2B.jpg","null","",NA,NA,NA,NA,""
"image-keyboard-response",205,272867,"0.0-3.64-2.64","2ok7hxhjyj16xzc",144,"67.csv","","null","resources/images/coin2.png","null","",NA,NA,NA,NA,""
"image-keyboard-response",206,275775,"0.0-3.65-0.65","2ok7hxhjyj16xzc",144,"67.csv","","2905.800000190735","resources/trios/L1T2A2.jpg","38","restless",0.7,0.9,0.5,0.498725474091722,"true"
"image-keyboard-response",207,276179,"0.0-3.65-1.65","2ok7hxhjyj16xzc",144,"67.csv","","null","resources/maskTrios/BT2B.jpg","null","",NA,NA,NA,NA,""
"image-keyboard-response",208,277389,"0.0-3.65-2.65","2ok7hxhjyj16xzc",144,"67.csv","","null","resources/images/coin2.png","null","",NA,NA,NA,NA,""
"image-keyboard-response",209,279123,"0.0-3.66-0.66","2ok7hxhjyj16xzc",144,"67.csv","","1731.5999999046326","resources/trios/L1T1A2.jpg","38","restless",0.7,0.9,0.4,0.0715303658357083,"true"
"image-keyboard-response",210,279534,"0.0-3.66-1.66","2ok7hxhjyj16xzc",144,"67.csv","","null","resources/maskTrios/BT1B.jpg","null","",NA,NA,NA,NA,""
"image-keyboard-response",211,280740,"0.0-3.66-2.66","2ok7hxhjyj16xzc",144,"67.csv","","null","resources/images/coin2.png","null","",NA,NA,NA,NA,""
"image-keyboard-response",212,286956,"0.0-3.67-0.67","2ok7hxhjyj16xzc",144,"67.csv","","6214.400000095367","resources/trios/L2T2A2.jpg","37","restless",0.7,0.8,0.4,0.254779312465866,"true"
"image-keyboard-response",213,287363,"0.0-3.67-1.67","2ok7hxhjyj16xzc",144,"67.csv","","null","resources/maskTrios/L2BB.jpg","null","",NA,NA,NA,NA,""
"image-keyboard-response",214,288573,"0.0-3.67-2.67","2ok7hxhjyj16xzc",144,"67.csv","","null","resources/images/coin2.png","null","",NA,NA,NA,NA,""
"image-keyboard-response",215,290246,"0.0-3.68-0.68","2ok7hxhjyj16xzc",144,"67.csv","","1671.2999997138977","resources/trios/L1T1A2.jpg","38","restless",0.7,0.8,0.4,0.475253879568051,"true"
"image-keyboard-response",216,290651,"0.0-3.68-1.68","2ok7hxhjyj16xzc",144,"67.csv","","null","resources/maskTrios/BT1B.jpg","null","",NA,NA,NA,NA,""
"image-keyboard-response",217,291859,"0.0-3.68-2.68","2ok7hxhjyj16xzc",144,"67.csv","","null","resources/images/coin2.png","null","",NA,NA,NA,NA,""
"image-keyboard-response",218,293190,"0.0-3.69-0.69","2ok7hxhjyj16xzc",144,"67.csv","","1329.5","resources/trios/L2T2A1.jpg","37","restless",0.7,0.8,0.4,0.58174387491542,"true"
"image-keyboard-response",219,293595,"0.0-3.69-1.69","2ok7hxhjyj16xzc",144,"67.csv","","null","resources/maskTrios/L2BB.jpg","null","",NA,NA,NA,NA,""
"image-keyboard-response",220,294805,"0.0-3.69-2.69","2ok7hxhjyj16xzc",144,"67.csv","","null","resources/images/coin2.png","null","",NA,NA,NA,NA,""
"image-keyboard-response",221,296344,"0.0-3.70-0.70","2ok7hxhjyj16xzc",144,"67.csv","","1537.0999999046326","resources/trios/L2T1A2.jpg","37","restless",0.7,0.8,0.4,0.820549440906419,"false"
"image-keyboard-response",222,296755,"0.0-3.70-1.70","2ok7hxhjyj16xzc",144,"67.csv","","null","resources/maskTrios/L2BB.jpg","null","",NA,NA,NA,NA,""
"image-keyboard-response",223,297963,"0.0-3.70-2.70","2ok7hxhjyj16xzc",144,"67.csv","","null","resources/images/fishbone.png","null","",NA,NA,NA,NA,""
"image-keyboard-response",224,298783,"0.0-3.71-0.71","2ok7hxhjyj16xzc",144,"67.csv","","817.9000000953674","resources/trios/L2T1A2.jpg","38","restless",0.7,0.8,0.4,0.67944713420154,"true"
"image-keyboard-response",225,299187,"0.0-3.71-1.71","2ok7hxhjyj16xzc",144,"67.csv","","null","resources/maskTrios/BT1B.jpg","null","",NA,NA,NA,NA,""
"image-keyboard-response",226,300396,"0.0-3.71-2.71","2ok7hxhjyj16xzc",144,"67.csv","","null","resources/images/coin2.png","null","",NA,NA,NA,NA,""
"image-keyboard-response",227,302175,"0.0-3.72-0.72","2ok7hxhjyj16xzc",144,"67.csv","","1776","resources/trios/L1T2A1.jpg","37","restless",0.6,0.8,0.4,0.189970218025583,"true"
"image-keyboard-response",228,302578,"0.0-3.72-1.72","2ok7hxhjyj16xzc",144,"67.csv","","null","resources/maskTrios/L1BB.jpg","null","",NA,NA,NA,NA,""
"image-keyboard-response",229,303787,"0.0-3.72-2.72","2ok7hxhjyj16xzc",144,"67.csv","","null","resources/images/coin2.png","null","",NA,NA,NA,NA,""
"image-keyboard-response",230,304585,"0.0-3.73-0.73","2ok7hxhjyj16xzc",144,"67.csv","","796.5","resources/trios/L1T2A1.jpg","37","restless",0.6,0.8,0.4,0.323918611481463,"true"
"image-keyboard-response",231,304998,"0.0-3.73-1.73","2ok7hxhjyj16xzc",144,"67.csv","","null","resources/maskTrios/L1BB.jpg","null","",NA,NA,NA,NA,""
"image-keyboard-response",232,306204,"0.0-3.73-2.73","2ok7hxhjyj16xzc",144,"67.csv","","null","resources/images/coin2.png","null","",NA,NA,NA,NA,""
"image-keyboard-response",233,307892,"0.0-3.74-0.74","2ok7hxhjyj16xzc",144,"67.csv","","1686.2000002861023","resources/trios/L2T1A2.jpg","37","restless",0.6,0.8,0.4,0.786881363287389,"false"
"image-keyboard-response",234,308298,"0.0-3.74-1.74","2ok7hxhjyj16xzc",144,"67.csv","","null","resources/maskTrios/L2BB.jpg","null","",NA,NA,NA,NA,""
"image-keyboard-response",235,309509,"0.0-3.74-2.74","2ok7hxhjyj16xzc",144,"67.csv","","null","resources/images/fishbone.png","null","",NA,NA,NA,NA,""
"image-keyboard-response",236,310259,"0.0-3.75-0.75","2ok7hxhjyj16xzc",144,"67.csv","","748.2999997138977","resources/trios/L2T1A2.jpg","38","restless",0.6,0.8,0.4,0.904939647649719,"false"
"image-keyboard-response",237,310670,"0.0-3.75-1.75","2ok7hxhjyj16xzc",144,"67.csv","","null","resources/maskTrios/BT1B.jpg","null","",NA,NA,NA,NA,""
"image-keyboard-response",238,311876,"0.0-3.75-2.75","2ok7hxhjyj16xzc",144,"67.csv","","null","resources/images/fishbone.png","null","",NA,NA,NA,NA,""
"image-keyboard-response",239,316512,"0.0-3.76-0.76","2ok7hxhjyj16xzc",144,"67.csv","","4633.39999961853","resources/trios/L2T2A2.jpg","38","restless",0.6,0.8,0.4,0.638740750442811,"true"
"image-keyboard-response",240,316922,"0.0-3.76-1.76","2ok7hxhjyj16xzc",144,"67.csv","","null","resources/maskTrios/BT2B.jpg","null","",NA,NA,NA,NA,""
"image-keyboard-response",241,318132,"0.0-3.76-2.76","2ok7hxhjyj16xzc",144,"67.csv","","null","resources/images/coin2.png","null","",NA,NA,NA,NA,""
"image-keyboard-response",242,321209,"0.0-3.77-0.77","2ok7hxhjyj16xzc",144,"67.csv","","3075.4000000953674","resources/trios/L2T1A1.jpg","37","restless",0.6,0.8,0.4,0.30817688682542,"true"
"image-keyboard-response",243,321621,"0.0-3.77-1.77","2ok7hxhjyj16xzc",144,"67.csv","","null","resources/maskTrios/L2BB.jpg","null","",NA,NA,NA,NA,""
"image-keyboard-response",244,322826,"0.0-3.77-2.77","2ok7hxhjyj16xzc",144,"67.csv","","null","resources/images/coin2.png","null","",NA,NA,NA,NA,""
"image-keyboard-response",245,325060,"0.0-3.78-0.78","2ok7hxhjyj16xzc",144,"67.csv","","2231.800000190735","resources/trios/L1T1A1.jpg","37","restless",0.6,0.8,0.5,0.887003513332358,"false"
"image-keyboard-response",246,325469,"0.0-3.78-1.78","2ok7hxhjyj16xzc",144,"67.csv","","null","resources/maskTrios/L1BB.jpg","null","",NA,NA,NA,NA,""
"image-keyboard-response",247,326677,"0.0-3.78-2.78","2ok7hxhjyj16xzc",144,"67.csv","","null","resources/images/fishbone.png","null","",NA,NA,NA,NA,""
"image-keyboard-response",248,327336,"0.0-3.79-0.79","2ok7hxhjyj16xzc",144,"67.csv","","657","resources/trios/L2T1A2.jpg","38","restless",0.6,0.8,0.5,0.275146292735179,"true"
"image-keyboard-response",249,327746,"0.0-3.79-1.79","2ok7hxhjyj16xzc",144,"67.csv","","null","resources/maskTrios/BT1B.jpg","null","",NA,NA,NA,NA,""
"image-keyboard-response",250,328954,"0.0-3.79-2.79","2ok7hxhjyj16xzc",144,"67.csv","","null","resources/images/coin2.png","null","",NA,NA,NA,NA,""
"image-keyboard-response",251,330589,"0.0-3.80-0.80","2ok7hxhjyj16xzc",144,"67.csv","","1632.6999998092651","resources/trios/L2T2A2.jpg","38","restless",0.6,0.8,0.5,0.557515415176836,"true"
"image-keyboard-response",252,330997,"0.0-3.80-1.80","2ok7hxhjyj16xzc",144,"67.csv","","null","resources/maskTrios/BT2B.jpg","null","",NA,NA,NA,NA,""
"image-keyboard-response",253,332203,"0.0-3.80-2.80","2ok7hxhjyj16xzc",144,"67.csv","","null","resources/images/coin2.png","null","",NA,NA,NA,NA,""
"image-keyboard-response",254,333399,"0.0-3.81-0.81","2ok7hxhjyj16xzc",144,"67.csv","","1194.4000000953674","resources/trios/L1T2A2.jpg","37","restless",0.6,0.7,0.5,0.619152667256967,"false"
"image-keyboard-response",255,333809,"0.0-3.81-1.81","2ok7hxhjyj16xzc",144,"67.csv","","null","resources/maskTrios/L1BB.jpg","null","",NA,NA,NA,NA,""
"image-keyboard-response",256,335021,"0.0-3.81-2.81","2ok7hxhjyj16xzc",144,"67.csv","","null","resources/images/fishbone.png","null","",NA,NA,NA,NA,""
"image-keyboard-response",257,337603,"0.0-3.82-0.82","2ok7hxhjyj16xzc",144,"67.csv","","2580.4000000953674","resources/trios/L2T2A2.jpg","38","restless",0.6,0.7,0.5,0.6582673401528,"true"
"image-keyboard-response",258,338009,"0.0-3.82-1.82","2ok7hxhjyj16xzc",144,"67.csv","","null","resources/maskTrios/BT2B.jpg","null","",NA,NA,NA,NA,""
"image-keyboard-response",259,339220,"0.0-3.82-2.82","2ok7hxhjyj16xzc",144,"67.csv","","null","resources/images/coin2.png","null","",NA,NA,NA,NA,""
"image-keyboard-response",260,340472,"0.0-3.83-0.83","2ok7hxhjyj16xzc",144,"67.csv","","1250.1000003814697","resources/trios/L2T1A1.jpg","37","restless",0.6,0.7,0.5,0.446165114176084,"true"
"image-keyboard-response",261,340885,"0.0-3.83-1.83","2ok7hxhjyj16xzc",144,"67.csv","","null","resources/maskTrios/L2BB.jpg","null","",NA,NA,NA,NA,""
"image-keyboard-response",262,342090,"0.0-3.83-2.83","2ok7hxhjyj16xzc",144,"67.csv","","null","resources/images/coin2.png","null","",NA,NA,NA,NA,""
"image-keyboard-response",263,351854,"0.0-3.84-0.84","2ok7hxhjyj16xzc",144,"67.csv","","9762.599999904633","resources/trios/L1T1A1.jpg","38","restless",0.5,0.7,0.5,0.438023232460202,"true"
"image-keyboard-response",264,352266,"0.0-3.84-1.84","2ok7hxhjyj16xzc",144,"67.csv","","null","resources/maskTrios/BT1B.jpg","null","",NA,NA,NA,NA,""
"image-keyboard-response",265,353474,"0.0-3.84-2.84","2ok7hxhjyj16xzc",144,"67.csv","","null","resources/images/coin2.png","null","",NA,NA,NA,NA,""
"image-keyboard-response",266,355274,"0.0-3.85-0.85","2ok7hxhjyj16xzc",144,"67.csv","","1798.4000000953674","resources/trios/L1T2A1.jpg","38","restless",0.5,0.7,0.5,0.186734609265222,"true"
"image-keyboard-response",267,355681,"0.0-3.85-1.85","2ok7hxhjyj16xzc",144,"67.csv","","null","resources/maskTrios/BT2B.jpg","null","",NA,NA,NA,NA,""
"image-keyboard-response",268,356891,"0.0-3.85-2.85","2ok7hxhjyj16xzc",144,"67.csv","","null","resources/images/coin2.png","null","",NA,NA,NA,NA,""
"image-keyboard-response",269,358048,"0.0-3.86-0.86","2ok7hxhjyj16xzc",144,"67.csv","","1155.1999998092651","resources/trios/L1T1A2.jpg","37","restless",0.4,0.7,0.5,0.729876727765687,"false"
"image-keyboard-response",270,358460,"0.0-3.86-1.86","2ok7hxhjyj16xzc",144,"67.csv","","null","resources/maskTrios/L1BB.jpg","null","",NA,NA,NA,NA,""
"image-keyboard-response",271,359664,"0.0-3.86-2.86","2ok7hxhjyj16xzc",144,"67.csv","","null","resources/images/fishbone.png","null","",NA,NA,NA,NA,""
"image-keyboard-response",272,360203,"0.0-3.87-0.87","2ok7hxhjyj16xzc",144,"67.csv","","536.5999999046326","resources/trios/L1T1A2.jpg","38","restless",0.4,0.7,0.5,0.883090388352469,"false"
"image-keyboard-response",273,360609,"0.0-3.87-1.87","2ok7hxhjyj16xzc",144,"67.csv","","null","resources/maskTrios/BT1B.jpg","null","",NA,NA,NA,NA,""
"image-keyboard-response",274,361818,"0.0-3.87-2.87","2ok7hxhjyj16xzc",144,"67.csv","","null","resources/images/fishbone.png","null","",NA,NA,NA,NA,""
"image-keyboard-response",275,362734,"0.0-3.88-0.88","2ok7hxhjyj16xzc",144,"67.csv","","913.5","resources/trios/L2T2A1.jpg","38","restless",0.4,0.7,0.5,0.602743599673435,"true"
"image-keyboard-response",276,363148,"0.0-3.88-1.88","2ok7hxhjyj16xzc",144,"67.csv","","null","resources/maskTrios/BT2B.jpg","null","",NA,NA,NA,NA,""
"image-keyboard-response",277,364352,"0.0-3.88-2.88","2ok7hxhjyj16xzc",144,"67.csv","","null","resources/images/coin2.png","null","",NA,NA,NA,NA,""
"image-keyboard-response",278,366969,"0.0-3.89-0.89","2ok7hxhjyj16xzc",144,"67.csv","","2615","resources/trios/L2T1A2.jpg","38","restless",0.4,0.7,0.5,0.980739788105952,"false"
"image-keyboard-response",279,367380,"0.0-3.89-1.89","2ok7hxhjyj16xzc",144,"67.csv","","null","resources/maskTrios/BT1B.jpg","null","",NA,NA,NA,NA,""
"image-keyboard-response",280,368584,"0.0-3.89-2.89","2ok7hxhjyj16xzc",144,"67.csv","","null","resources/images/fishbone.png","null","",NA,NA,NA,NA,""
"image-keyboard-response",281,369932,"0.0-3.90-0.90","2ok7hxhjyj16xzc",144,"67.csv","","1345.4000000953674","resources/trios/L2T2A2.jpg","37","restless",0.4,0.7,0.5,0.244968922775671,"true"
"image-keyboard-response",282,370336,"0.0-3.90-1.90","2ok7hxhjyj16xzc",144,"67.csv","","null","resources/maskTrios/L2BB.jpg","null","",NA,NA,NA,NA,""
"image-keyboard-response",283,371546,"0.0-3.90-2.90","2ok7hxhjyj16xzc",144,"67.csv","","null","resources/images/coin2.png","null","",NA,NA,NA,NA,""
"image-keyboard-response",284,373306,"0.0-3.91-0.91","2ok7hxhjyj16xzc",144,"67.csv","","1758.1999998092651","resources/trios/L1T1A2.jpg","38","restless",0.4,0.7,0.5,0.639198751073891,"true"
"image-keyboard-response",285,373714,"0.0-3.91-1.91","2ok7hxhjyj16xzc",144,"67.csv","","null","resources/maskTrios/BT1B.jpg","null","",NA,NA,NA,NA,""
"image-keyboard-response",286,374920,"0.0-3.91-2.91","2ok7hxhjyj16xzc",144,"67.csv","","null","resources/images/coin2.png","null","",NA,NA,NA,NA,""
"image-keyboard-response",287,377791,"0.0-3.92-0.92","2ok7hxhjyj16xzc",144,"67.csv","","2870.800000190735","resources/trios/L2T2A1.jpg","37","restless",0.4,0.7,0.5,0.62438613676233,"false"
"image-keyboard-response",288,378202,"0.0-3.92-1.92","2ok7hxhjyj16xzc",144,"67.csv","","null","resources/maskTrios/L2BB.jpg","null","",NA,NA,NA,NA,""
"image-keyboard-response",289,379408,"0.0-3.92-2.92","2ok7hxhjyj16xzc",144,"67.csv","","null","resources/images/fishbone.png","null","",NA,NA,NA,NA,""
"image-keyboard-response",290,381579,"0.0-3.93-0.93","2ok7hxhjyj16xzc",144,"67.csv","","2169.4000000953674","resources/trios/L2T1A2.jpg","37","restless",0.4,0.7,0.5,0.23236101378914,"true"
"image-keyboard-response",291,381984,"0.0-3.93-1.93","2ok7hxhjyj16xzc",144,"67.csv","","null","resources/maskTrios/L2BB.jpg","null","",NA,NA,NA,NA,""
"image-keyboard-response",292,383196,"0.0-3.93-2.93","2ok7hxhjyj16xzc",144,"67.csv","","null","resources/images/coin2.png","null","",NA,NA,NA,NA,""
"image-keyboard-response",293,385932,"0.0-3.94-0.94","2ok7hxhjyj16xzc",144,"67.csv","","2734.4000000953674","resources/trios/L1T1A1.jpg","38","restless",0.4,0.7,0.5,0.402580761787401,"true"
"image-keyboard-response",294,386336,"0.0-3.94-1.94","2ok7hxhjyj16xzc",144,"67.csv","","null","resources/maskTrios/BT1B.jpg","null","",NA,NA,NA,NA,""
"image-keyboard-response",295,387544,"0.0-3.94-2.94","2ok7hxhjyj16xzc",144,"67.csv","","null","resources/images/coin2.png","null","",NA,NA,NA,NA,""
"image-keyboard-response",296,390175,"0.0-3.95-0.95","2ok7hxhjyj16xzc",144,"67.csv","","2629.2999997138977","resources/trios/L1T2A2.jpg","37","restless",0.4,0.7,0.5,0.951188993650345,"false"
"image-keyboard-response",297,390583,"0.0-3.95-1.95","2ok7hxhjyj16xzc",144,"67.csv","","null","resources/maskTrios/L1BB.jpg","null","",NA,NA,NA,NA,""
"image-keyboard-response",298,391792,"0.0-3.95-2.95","2ok7hxhjyj16xzc",144,"67.csv","","null","resources/images/fishbone.png","null","",NA,NA,NA,NA,""
"image-keyboard-response",299,393370,"0.0-3.96-0.96","2ok7hxhjyj16xzc",144,"67.csv","","1576.3999996185303","resources/trios/L2T2A1.jpg","37","restless",0.4,0.7,0.5,0.416481047466526,"false"
"image-keyboard-response",300,393779,"0.0-3.96-1.96","2ok7hxhjyj16xzc",144,"67.csv","","null","resources/maskTrios/L2BB.jpg","null","",NA,NA,NA,NA,""
"image-keyboard-response",301,394985,"0.0-3.96-2.96","2ok7hxhjyj16xzc",144,"67.csv","","null","resources/images/fishbone.png","null","",NA,NA,NA,NA,""
"image-keyboard-response",302,396187,"0.0-3.97-0.97","2ok7hxhjyj16xzc",144,"67.csv","","1199.7999997138977","resources/trios/L2T1A1.jpg","38","restless",0.4,0.7,0.5,0.892119102895053,"false"
"image-keyboard-response",303,396591,"0.0-3.97-1.97","2ok7hxhjyj16xzc",144,"67.csv","","null","resources/maskTrios/BT1B.jpg","null","",NA,NA,NA,NA,""
"image-keyboard-response",304,397800,"0.0-3.97-2.97","2ok7hxhjyj16xzc",144,"67.csv","","null","resources/images/fishbone.png","null","",NA,NA,NA,NA,""
"image-keyboard-response",305,398987,"0.0-3.98-0.98","2ok7hxhjyj16xzc",144,"67.csv","","1185.5","resources/trios/L2T2A2.jpg","38","restless",0.4,0.7,0.5,0.189579767065311,"true"
"image-keyboard-response",306,399395,"0.0-3.98-1.98","2ok7hxhjyj16xzc",144,"67.csv","","null","resources/maskTrios/BT2B.jpg","null","",NA,NA,NA,NA,""
"image-keyboard-response",307,400599,"0.0-3.98-2.98","2ok7hxhjyj16xzc",144,"67.csv","","null","resources/images/coin2.png","null","",NA,NA,NA,NA,""
"image-keyboard-response",308,402011,"0.0-3.99-0.99","2ok7hxhjyj16xzc",144,"67.csv","","1410.4000000953674","resources/trios/L1T1A1.jpg","38","restless",0.3,0.7,0.5,0.173291848155776,"true"
"image-keyboard-response",309,402415,"0.0-3.99-1.99","2ok7hxhjyj16xzc",144,"67.csv","","null","resources/maskTrios/BT1B.jpg","null","",NA,NA,NA,NA,""
"image-keyboard-response",310,403625,"0.0-3.99-2.99","2ok7hxhjyj16xzc",144,"67.csv","","null","resources/images/coin2.png","null","",NA,NA,NA,NA,""
"image-keyboard-response",311,405081,"0.0-3.100-0.100","2ok7hxhjyj16xzc",144,"67.csv","","1453.5","resources/trios/L2T2A1.jpg","37","restless",0.3,0.7,0.6,0.670733834804492,"false"
"image-keyboard-response",312,405487,"0.0-3.100-1.100","2ok7hxhjyj16xzc",144,"67.csv","","null","resources/maskTrios/L2BB.jpg","null","",NA,NA,NA,NA,""
"image-keyboard-response",313,406697,"0.0-3.100-2.100","2ok7hxhjyj16xzc",144,"67.csv","","null","resources/images/fishbone.png","null","",NA,NA,NA,NA,""
"image-keyboard-response",314,408113,"0.0-3.101-0.101","2ok7hxhjyj16xzc",144,"67.csv","","1413.4000000953674","resources/trios/L2T2A1.jpg","38","restless",0.3,0.7,0.6,0.976743212592193,"false"
"image-keyboard-response",315,408523,"0.0-3.101-1.101","2ok7hxhjyj16xzc",144,"67.csv","","null","resources/maskTrios/BT2B.jpg","null","",NA,NA,NA,NA,""
"image-keyboard-response",316,409727,"0.0-3.101-2.101","2ok7hxhjyj16xzc",144,"67.csv","","null","resources/images/fishbone.png","null","",NA,NA,NA,NA,""
"image-keyboard-response",317,411441,"0.0-3.102-0.102","2ok7hxhjyj16xzc",144,"67.csv","","1711.8999996185303","resources/trios/L2T2A2.jpg","38","restless",0.3,0.7,0.6,0.584947100939689,"true"
"image-keyboard-response",318,411847,"0.0-3.102-1.102","2ok7hxhjyj16xzc",144,"67.csv","","null","resources/maskTrios/BT2B.jpg","null","",NA,NA,NA,NA,""
"image-keyboard-response",319,413058,"0.0-3.102-2.102","2ok7hxhjyj16xzc",144,"67.csv","","null","resources/images/coin2.png","null","",NA,NA,NA,NA,""
"image-keyboard-response",320,413829,"0.0-3.103-0.103","2ok7hxhjyj16xzc",144,"67.csv","","769.3000001907349","resources/trios/L1T1A1.jpg","38","restless",0.3,0.7,0.6,0.632862728874772,"true"
"image-keyboard-response",321,414243,"0.0-3.103-1.103","2ok7hxhjyj16xzc",144,"67.csv","","null","resources/maskTrios/BT1B.jpg","null","",NA,NA,NA,NA,""
"image-keyboard-response",322,415448,"0.0-3.103-2.103","2ok7hxhjyj16xzc",144,"67.csv","","null","resources/images/coin2.png","null","",NA,NA,NA,NA,""
"image-keyboard-response",323,417106,"0.0-3.104-0.104","2ok7hxhjyj16xzc",144,"67.csv","","1656.1999998092651","resources/trios/L2T1A2.jpg","39","restless",0.3,0.7,0.6,0.498934516107995,"true"
"image-keyboard-response",324,417511,"0.0-3.104-1.104","2ok7hxhjyj16xzc",144,"67.csv","","null","resources/maskTrios/BBA2.jpg","null","",NA,NA,NA,NA,""
"image-keyboard-response",325,418718,"0.0-3.104-2.104","2ok7hxhjyj16xzc",144,"67.csv","","null","resources/images/coin2.png","null","",NA,NA,NA,NA,""
"image-keyboard-response",326,419142,"0.0-3.105-0.105","2ok7hxhjyj16xzc",144,"67.csv","","422","resources/trios/L2T1A1.jpg","39","restless",0.3,0.7,0.6,0.821583192649377,"false"
"image-keyboard-response",327,419550,"0.0-3.105-1.105","2ok7hxhjyj16xzc",144,"67.csv","","null","resources/maskTrios/BBA1.jpg","null","",NA,NA,NA,NA,""
"image-keyboard-response",328,420762,"0.0-3.105-2.105","2ok7hxhjyj16xzc",144,"67.csv","","null","resources/images/fishbone.png","null","",NA,NA,NA,NA,""
"image-keyboard-response",329,421325,"0.0-3.106-0.106","2ok7hxhjyj16xzc",144,"67.csv","","560.9000000953674","resources/trios/L2T1A2.jpg","38","restless",0.3,0.7,0.6,0.331942711461649,"true"
"image-keyboard-response",330,421734,"0.0-3.106-1.106","2ok7hxhjyj16xzc",144,"67.csv","","null","resources/maskTrios/BT1B.jpg","null","",NA,NA,NA,NA,""
"image-keyboard-response",331,422942,"0.0-3.106-2.106","2ok7hxhjyj16xzc",144,"67.csv","","null","resources/images/coin2.png","null","",NA,NA,NA,NA,""
"image-keyboard-response",332,424581,"0.0-3.107-0.107","2ok7hxhjyj16xzc",144,"67.csv","","1636.2999997138977","resources/trios/L1T1A1.jpg","39","restless",0.3,0.7,0.6,0.725075550404289,"false"
"image-keyboard-response",333,424993,"0.0-3.107-1.107","2ok7hxhjyj16xzc",144,"67.csv","","null","resources/maskTrios/BBA1.jpg","null","",NA,NA,NA,NA,""
"image-keyboard-response",334,426201,"0.0-3.107-2.107","2ok7hxhjyj16xzc",144,"67.csv","","null","resources/images/fishbone.png","null","",NA,NA,NA,NA,""
"image-keyboard-response",335,426628,"0.0-3.108-0.108","2ok7hxhjyj16xzc",144,"67.csv","","424.90000009536743","resources/trios/L2T2A2.jpg","37","restless",0.2,0.7,0.6,0.377973836050653,"false"
"image-keyboard-response",336,427042,"0.0-3.108-1.108","2ok7hxhjyj16xzc",144,"67.csv","","null","resources/maskTrios/L2BB.jpg","null","",NA,NA,NA,NA,""
"image-keyboard-response",337,428250,"0.0-3.108-2.108","2ok7hxhjyj16xzc",144,"67.csv","","null","resources/images/fishbone.png","null","",NA,NA,NA,NA,""
"image-keyboard-response",338,428499,"0.0-3.109-0.109","2ok7hxhjyj16xzc",144,"67.csv","","247.2000002861023","resources/trios/L1T1A2.jpg","38","restless",0.2,0.7,0.6,0.712049675721619,"false"
"image-keyboard-response",339,428910,"0.0-3.109-1.109","2ok7hxhjyj16xzc",144,"67.csv","","null","resources/maskTrios/BT1B.jpg","null","",NA,NA,NA,NA,""
"image-keyboard-response",340,430122,"0.0-3.109-2.109","2ok7hxhjyj16xzc",144,"67.csv","","null","resources/images/fishbone.png","null","",NA,NA,NA,NA,""
"image-keyboard-response",341,439323,"0.0-3.110-0.110","2ok7hxhjyj16xzc",144,"67.csv","","9198.799999713898","resources/trios/L1T1A1.jpg","37","restless",0.2,0.7,0.6,0.355280587461511,"false"
"image-keyboard-response",342,439737,"0.0-3.110-1.110","2ok7hxhjyj16xzc",144,"67.csv","","null","resources/maskTrios/L1BB.jpg","null","",NA,NA,NA,NA,""
"image-keyboard-response",343,440942,"0.0-3.110-2.110","2ok7hxhjyj16xzc",144,"67.csv","","null","resources/images/fishbone.png","null","",NA,NA,NA,NA,""
"image-keyboard-response",344,441596,"0.0-3.111-0.111","2ok7hxhjyj16xzc",144,"67.csv","","651.1999998092651","resources/trios/L2T2A2.jpg","37","restless",0.2,0.6,0.6,0.480244127811259,"false"
"image-keyboard-response",345,442010,"0.0-3.111-1.111","2ok7hxhjyj16xzc",144,"67.csv","","null","resources/maskTrios/L2BB.jpg","null","",NA,NA,NA,NA,""
"image-keyboard-response",346,443216,"0.0-3.111-2.111","2ok7hxhjyj16xzc",144,"67.csv","","null","resources/images/fishbone.png","null","",NA,NA,NA,NA,""
"image-keyboard-response",347,443601,"0.0-3.112-0.112","2ok7hxhjyj16xzc",144,"67.csv","","383.09999990463257","resources/trios/L1T2A2.jpg","38","restless",0.3,0.6,0.6,0.885748931672661,"false"
"image-keyboard-response",348,444005,"0.0-3.112-1.112","2ok7hxhjyj16xzc",144,"67.csv","","null","resources/maskTrios/BT2B.jpg","null","",NA,NA,NA,NA,""
"image-keyboard-response",349,445216,"0.0-3.112-2.112","2ok7hxhjyj16xzc",144,"67.csv","","null","resources/images/fishbone.png","null","",NA,NA,NA,NA,""
"image-keyboard-response",350,446466,"0.0-3.113-0.113","2ok7hxhjyj16xzc",144,"67.csv","","1248.6999998092651","resources/trios/L2T2A1.jpg","38","restless",0.3,0.6,0.6,0.555701234495487,"true"
"image-keyboard-response",351,446881,"0.0-3.113-1.113","2ok7hxhjyj16xzc",144,"67.csv","","null","resources/maskTrios/BT2B.jpg","null","",NA,NA,NA,NA,""
"image-keyboard-response",352,448086,"0.0-3.113-2.113","2ok7hxhjyj16xzc",144,"67.csv","","null","resources/images/coin2.png","null","",NA,NA,NA,NA,""
"image-keyboard-response",353,448726,"0.0-3.114-0.114","2ok7hxhjyj16xzc",144,"67.csv","","638.0999999046326","resources/trios/L1T2A2.jpg","38","restless",0.3,0.7,0.6,0.560918577214723,"true"
"image-keyboard-response",354,449133,"0.0-3.114-1.114","2ok7hxhjyj16xzc",144,"67.csv","","null","resources/maskTrios/BT2B.jpg","null","",NA,NA,NA,NA,""
"image-keyboard-response",355,450343,"0.0-3.114-2.114","2ok7hxhjyj16xzc",144,"67.csv","","null","resources/images/coin2.png","null","",NA,NA,NA,NA,""
"image-keyboard-response",356,451255,"0.0-3.115-0.115","2ok7hxhjyj16xzc",144,"67.csv","","910.0999999046326","resources/trios/L2T2A1.jpg","38","restless",0.3,0.6,0.6,0.0455248576781053,"true"
"image-keyboard-response",357,451661,"0.0-3.115-1.115","2ok7hxhjyj16xzc",144,"67.csv","","null","resources/maskTrios/BT2B.jpg","null","",NA,NA,NA,NA,""
"image-keyboard-response",358,452872,"0.0-3.115-2.115","2ok7hxhjyj16xzc",144,"67.csv","","null","resources/images/coin2.png","null","",NA,NA,NA,NA,""
"image-keyboard-response",359,454348,"0.0-3.116-0.116","2ok7hxhjyj16xzc",144,"67.csv","","1474.5","resources/trios/L2T2A2.jpg","37","restless",0.3,0.5,0.6,0.606731683767287,"false"
"image-keyboard-response",360,454761,"0.0-3.116-1.116","2ok7hxhjyj16xzc",144,"67.csv","","null","resources/maskTrios/L2BB.jpg","null","",NA,NA,NA,NA,""
"image-keyboard-response",361,455968,"0.0-3.116-2.116","2ok7hxhjyj16xzc",144,"67.csv","","null","resources/images/fishbone.png","null","",NA,NA,NA,NA,""
"image-keyboard-response",362,456511,"0.0-3.117-0.117","2ok7hxhjyj16xzc",144,"67.csv","","541.7000002861023","resources/trios/L2T1A1.jpg","38","restless",0.3,0.5,0.6,0.550951478330058,"false"
"image-keyboard-response",363,456918,"0.0-3.117-1.117","2ok7hxhjyj16xzc",144,"67.csv","","null","resources/maskTrios/BT1B.jpg","null","",NA,NA,NA,NA,""
"image-keyboard-response",364,458129,"0.0-3.117-2.117","2ok7hxhjyj16xzc",144,"67.csv","","null","resources/images/fishbone.png","null","",NA,NA,NA,NA,""
"image-keyboard-response",365,458749,"0.0-3.118-0.118","2ok7hxhjyj16xzc",144,"67.csv","","618","resources/trios/L1T2A2.jpg","39","restless",0.3,0.5,0.6,0.702115919642016,"false"
"image-keyboard-response",366,459158,"0.0-3.118-1.118","2ok7hxhjyj16xzc",144,"67.csv","","null","resources/maskTrios/BBA2.jpg","null","",NA,NA,NA,NA,""
"image-keyboard-response",367,460365,"0.0-3.118-2.118","2ok7hxhjyj16xzc",144,"67.csv","","null","resources/images/fishbone.png","null","",NA,NA,NA,NA,""
"image-keyboard-response",368,460837,"0.0-3.119-0.119","2ok7hxhjyj16xzc",144,"67.csv","","469.90000009536743","resources/trios/L1T2A2.jpg","38","restless",0.3,0.5,0.6,0.422776318470383,"true"
"image-keyboard-response",369,461249,"0.0-3.119-1.119","2ok7hxhjyj16xzc",144,"67.csv","","null","resources/maskTrios/BT2B.jpg","null","",NA,NA,NA,NA,""
"image-keyboard-response",370,462457,"0.0-3.119-2.119","2ok7hxhjyj16xzc",144,"67.csv","","null","resources/images/coin2.png","null","",NA,NA,NA,NA,""
"image-keyboard-response",371,463506,"0.0-3.120-0.120","2ok7hxhjyj16xzc",144,"67.csv","","1046.9000000953674","resources/trios/L2T1A2.jpg","38","restless",0.3,0.5,0.6,0.909266511196378,"false"
"image-keyboard-response",372,463911,"0.0-3.120-1.120","2ok7hxhjyj16xzc",144,"67.csv","","null","resources/maskTrios/BT1B.jpg","null","",NA,NA,NA,NA,""
"image-keyboard-response",373,465121,"0.0-3.120-2.120","2ok7hxhjyj16xzc",144,"67.csv","","null","resources/images/fishbone.png","null","",NA,NA,NA,NA,""
"image-keyboard-response",374,465794,"0.0-3.121-0.121","2ok7hxhjyj16xzc",144,"67.csv","","670.8000001907349","resources/trios/L2T2A1.jpg","37","restless",0.3,0.5,0.6,0.481524846021571,"false"
"image-keyboard-response",375,466209,"0.0-3.121-1.121","2ok7hxhjyj16xzc",144,"67.csv","","null","resources/maskTrios/L2BB.jpg","null","",NA,NA,NA,NA,""
"image-keyboard-response",376,467413,"0.0-3.121-2.121","2ok7hxhjyj16xzc",144,"67.csv","","null","resources/images/fishbone.png","null","",NA,NA,NA,NA,""
"image-keyboard-response",377,467963,"0.0-3.122-0.122","2ok7hxhjyj16xzc",144,"67.csv","","547.8000001907349","resources/trios/L2T1A1.jpg","38","restless",0.3,0.5,0.6,0.897657086893346,"false"
"image-keyboard-response",378,468373,"0.0-3.122-1.122","2ok7hxhjyj16xzc",144,"67.csv","","null","resources/maskTrios/BT1B.jpg","null","",NA,NA,NA,NA,""
"image-keyboard-response",379,469581,"0.0-3.122-2.122","2ok7hxhjyj16xzc",144,"67.csv","","null","resources/images/fishbone.png","null","",NA,NA,NA,NA,""
"image-keyboard-response",380,469903,"0.0-3.123-0.123","2ok7hxhjyj16xzc",144,"67.csv","","319","resources/trios/L2T2A1.jpg","39","restless",0.3,0.5,0.6,0.818748666662406,"false"
"image-keyboard-response",381,470309,"0.0-3.123-1.123","2ok7hxhjyj16xzc",144,"67.csv","","null","resources/maskTrios/BBA1.jpg","null","",NA,NA,NA,NA,""
"image-keyboard-response",382,471521,"0.0-3.123-2.123","2ok7hxhjyj16xzc",144,"67.csv","","null","resources/images/fishbone.png","null","",NA,NA,NA,NA,""
"image-keyboard-response",383,472095,"0.0-3.124-0.124","2ok7hxhjyj16xzc",144,"67.csv","","572.8000001907349","resources/trios/L1T2A1.jpg","38","restless",0.3,0.5,0.6,0.119691128267387,"true"
"image-keyboard-response",384,472503,"0.0-3.124-1.124","2ok7hxhjyj16xzc",144,"67.csv","","null","resources/maskTrios/BT2B.jpg","null","",NA,NA,NA,NA,""
"image-keyboard-response",385,473709,"0.0-3.124-2.124","2ok7hxhjyj16xzc",144,"67.csv","","null","resources/images/coin2.png","null","",NA,NA,NA,NA,""
"image-keyboard-response",386,474305,"0.0-3.125-0.125","2ok7hxhjyj16xzc",144,"67.csv","","594.9000000953674","resources/trios/L2T2A1.jpg","38","restless",0.3,0.6,0.6,0.517627262675389,"true"
"image-keyboard-response",387,474711,"0.0-3.125-1.125","2ok7hxhjyj16xzc",144,"67.csv","","null","resources/maskTrios/BT2B.jpg","null","",NA,NA,NA,NA,""
"image-keyboard-response",388,475917,"0.0-3.125-2.125","2ok7hxhjyj16xzc",144,"67.csv","","null","resources/images/coin2.png","null","",NA,NA,NA,NA,""
"image-keyboard-response",389,477833,"0.0-3.126-0.126","2ok7hxhjyj16xzc",144,"67.csv","","1914.1000003814697","resources/trios/L2T2A1.jpg","38","restless",0.3,0.6,0.6,0.307858274645594,"true"
"image-keyboard-response",390,478240,"0.0-3.126-1.126","2ok7hxhjyj16xzc",144,"67.csv","","null","resources/maskTrios/BT2B.jpg","null","",NA,NA,NA,NA,""
"image-keyboard-response",391,479447,"0.0-3.126-2.126","2ok7hxhjyj16xzc",144,"67.csv","","null","resources/images/coin2.png","null","",NA,NA,NA,NA,""
"image-keyboard-response",392,481015,"0.0-3.127-0.127","2ok7hxhjyj16xzc",144,"67.csv","","1565.5","resources/trios/L1T1A2.jpg","37","restless",0.2,0.5,0.6,0.665745939640945,"false"
"image-keyboard-response",393,481424,"0.0-3.127-1.127","2ok7hxhjyj16xzc",144,"67.csv","","null","resources/maskTrios/L1BB.jpg","null","",NA,NA,NA,NA,""
"image-keyboard-response",394,482629,"0.0-3.127-2.127","2ok7hxhjyj16xzc",144,"67.csv","","null","resources/images/fishbone.png","null","",NA,NA,NA,NA,""
"image-keyboard-response",395,483379,"0.0-3.128-0.128","2ok7hxhjyj16xzc",144,"67.csv","","748.2999997138977","resources/trios/L2T1A2.jpg","38","restless",0.1,0.5,0.6,0.816359835349576,"false"
"image-keyboard-response",396,483789,"0.0-3.128-1.128","2ok7hxhjyj16xzc",144,"67.csv","","null","resources/maskTrios/BT1B.jpg","null","",NA,NA,NA,NA,""
"image-keyboard-response",397,485000,"0.0-3.128-2.128","2ok7hxhjyj16xzc",144,"67.csv","","null","resources/images/fishbone.png","null","",NA,NA,NA,NA,""
"image-keyboard-response",398,486664,"0.0-3.129-0.129","2ok7hxhjyj16xzc",144,"67.csv","","1661.5","resources/trios/L1T1A1.jpg","38","restless",0.1,0.5,0.6,0.5741215045184,"false"
"image-keyboard-response",399,487068,"0.0-3.129-1.129","2ok7hxhjyj16xzc",144,"67.csv","","null","resources/maskTrios/BT1B.jpg","null","",NA,NA,NA,NA,""
"image-keyboard-response",400,488280,"0.0-3.129-2.129","2ok7hxhjyj16xzc",144,"67.csv","","null","resources/images/fishbone.png","null","",NA,NA,NA,NA,""
"image-keyboard-response",401,489030,"0.0-3.130-0.130","2ok7hxhjyj16xzc",144,"67.csv","","748.6999998092651","resources/trios/L1T1A2.jpg","38","restless",0.1,0.4,0.6,0.31096274311569,"true"
"image-keyboard-response",402,489440,"0.0-3.130-1.130","2ok7hxhjyj16xzc",144,"67.csv","","null","resources/maskTrios/BT1B.jpg","null","",NA,NA,NA,NA,""
"image-keyboard-response",403,490648,"0.0-3.130-2.130","2ok7hxhjyj16xzc",144,"67.csv","","null","resources/images/coin2.png","null","",NA,NA,NA,NA,""
"image-keyboard-response",404,490838,"0.0-3.131-0.131","2ok7hxhjyj16xzc",144,"67.csv","","187.69999980926514","resources/trios/L2T2A2.jpg","38","restless",0.1,0.4,0.6,0.72750525234846,"false"
"image-keyboard-response",405,491248,"0.0-3.131-1.131","2ok7hxhjyj16xzc",144,"67.csv","","null","resources/maskTrios/BT2B.jpg","null","",NA,NA,NA,NA,""
"image-keyboard-response",406,492455,"0.0-3.131-2.131","2ok7hxhjyj16xzc",144,"67.csv","","null","resources/images/fishbone.png","null","",NA,NA,NA,NA,""
"image-keyboard-response",407,493865,"0.0-3.132-0.132","2ok7hxhjyj16xzc",144,"67.csv","","1407.4000000953674","resources/trios/L2T1A1.jpg","39","restless",0.1,0.4,0.6,0.388266821062885,"true"
"image-keyboard-response",408,494268,"0.0-3.132-1.132","2ok7hxhjyj16xzc",144,"67.csv","","null","resources/maskTrios/BBA1.jpg","null","",NA,NA,NA,NA,""
"image-keyboard-response",409,495477,"0.0-3.132-2.132","2ok7hxhjyj16xzc",144,"67.csv","","null","resources/images/coin2.png","null","",NA,NA,NA,NA,""
"image-keyboard-response",410,497604,"0.0-3.133-0.133","2ok7hxhjyj16xzc",144,"67.csv","","2125.699999809265","resources/trios/L2T1A1.jpg","37","restless",0.1,0.4,0.6,0.132098641105237,"false"
"image-keyboard-response",411,498012,"0.0-3.133-1.133","2ok7hxhjyj16xzc",144,"67.csv","","null","resources/maskTrios/L2BB.jpg","null","",NA,NA,NA,NA,""
"image-keyboard-response",412,499220,"0.0-3.133-2.133","2ok7hxhjyj16xzc",144,"67.csv","","null","resources/images/fishbone.png","null","",NA,NA,NA,NA,""
"image-keyboard-response",413,499735,"0.0-3.134-0.134","2ok7hxhjyj16xzc",144,"67.csv","","513","resources/trios/L1T1A1.jpg","38","restless",0.1,0.4,0.6,0.420708563706874,"false"
"image-keyboard-response",414,500143,"0.0-3.134-1.134","2ok7hxhjyj16xzc",144,"67.csv","","null","resources/maskTrios/BT1B.jpg","null","",NA,NA,NA,NA,""
"image-keyboard-response",415,501348,"0.0-3.134-2.134","2ok7hxhjyj16xzc",144,"67.csv","","null","resources/images/fishbone.png","null","",NA,NA,NA,NA,""
"image-keyboard-response",416,502034,"0.0-3.135-0.135","2ok7hxhjyj16xzc",144,"67.csv","","684.0999999046326","resources/trios/L1T1A2.jpg","38","restless",0.1,0.4,0.5,0.15129496044798,"true"
"image-keyboard-response",417,502446,"0.0-3.135-1.135","2ok7hxhjyj16xzc",144,"67.csv","","null","resources/maskTrios/BT1B.jpg","null","",NA,NA,NA,NA,""
"image-keyboard-response",418,503656,"0.0-3.135-2.135","2ok7hxhjyj16xzc",144,"67.csv","","null","resources/images/coin2.png","null","",NA,NA,NA,NA,""
"image-keyboard-response",419,504222,"0.0-3.136-0.136","2ok7hxhjyj16xzc",144,"67.csv","","565.5999999046326","resources/trios/L2T2A1.jpg","38","restless",0.1,0.4,0.5,0.681281118601846,"false"
"image-keyboard-response",420,504628,"0.0-3.136-1.136","2ok7hxhjyj16xzc",144,"67.csv","","null","resources/maskTrios/BT2B.jpg","null","",NA,NA,NA,NA,""
"image-keyboard-response",421,505836,"0.0-3.136-2.136","2ok7hxhjyj16xzc",144,"67.csv","","null","resources/images/fishbone.png","null","",NA,NA,NA,NA,""
"image-keyboard-response",422,506851,"0.0-3.137-0.137","2ok7hxhjyj16xzc",144,"67.csv","","1012.4000000953674","resources/trios/L1T1A1.jpg","39","restless",0.1,0.4,0.5,0.120674828146749,"true"
"image-keyboard-response",423,507260,"0.0-3.137-1.137","2ok7hxhjyj16xzc",144,"67.csv","","null","resources/maskTrios/BBA1.jpg","null","",NA,NA,NA,NA,""
"image-keyboard-response",424,508468,"0.0-3.137-2.137","2ok7hxhjyj16xzc",144,"67.csv","","null","resources/images/coin2.png","null","",NA,NA,NA,NA,""
"image-keyboard-response",425,509055,"0.0-3.138-0.138","2ok7hxhjyj16xzc",144,"67.csv","","585.0999999046326","resources/trios/L2T2A1.jpg","39","restless",0.1,0.4,0.5,0.701021078667653,"false"
"image-keyboard-response",426,509460,"0.0-3.138-1.138","2ok7hxhjyj16xzc",144,"67.csv","","null","resources/maskTrios/BBA1.jpg","null","",NA,NA,NA,NA,""
"image-keyboard-response",427,510672,"0.0-3.138-2.138","2ok7hxhjyj16xzc",144,"67.csv","","null","resources/images/fishbone.png","null","",NA,NA,NA,NA,""
"image-keyboard-response",428,511465,"0.0-3.139-0.139","2ok7hxhjyj16xzc",144,"67.csv","","791","resources/trios/L2T1A1.jpg","38","restless",0.1,0.4,0.5,0.622087339804246,"false"
"image-keyboard-response",429,511879,"0.0-3.139-1.139","2ok7hxhjyj16xzc",144,"67.csv","","null","resources/maskTrios/BT1B.jpg","null","",NA,NA,NA,NA,""
"image-keyboard-response",430,513083,"0.0-3.139-2.139","2ok7hxhjyj16xzc",144,"67.csv","","null","resources/images/fishbone.png","null","",NA,NA,NA,NA,""
"image-keyboard-response",431,513386,"0.0-3.140-0.140","2ok7hxhjyj16xzc",144,"67.csv","","300.2000002861023","resources/trios/L2T2A1.jpg","38","restless",0.1,0.4,0.5,0.494603911993802,"false"
"image-keyboard-response",432,513796,"0.0-3.140-1.140","2ok7hxhjyj16xzc",144,"67.csv","","null","resources/maskTrios/BT2B.jpg","null","",NA,NA,NA,NA,""
"image-keyboard-response",433,515007,"0.0-3.140-2.140","2ok7hxhjyj16xzc",144,"67.csv","","null","resources/images/fishbone.png","null","",NA,NA,NA,NA,""
"image-keyboard-response",434,515315,"0.0-3.141-0.141","2ok7hxhjyj16xzc",144,"67.csv","","305.09999990463257","resources/trios/L1T2A1.jpg","38","restless",0.1,0.4,0.5,0.928811153625779,"false"
"image-keyboard-response",435,515723,"0.0-3.141-1.141","2ok7hxhjyj16xzc",144,"67.csv","","null","resources/maskTrios/BT2B.jpg","null","",NA,NA,NA,NA,""
"image-keyboard-response",436,516932,"0.0-3.141-2.141","2ok7hxhjyj16xzc",144,"67.csv","","null","resources/images/fishbone.png","null","",NA,NA,NA,NA,""
"image-keyboard-response",437,517424,"0.0-3.142-0.142","2ok7hxhjyj16xzc",144,"67.csv","","490.19999980926514","resources/trios/L2T2A1.jpg","38","restless",0.1,0.4,0.5,0.916259721586237,"false"
"image-keyboard-response",438,517834,"0.0-3.142-1.142","2ok7hxhjyj16xzc",144,"67.csv","","null","resources/maskTrios/BT2B.jpg","null","",NA,NA,NA,NA,""
"image-keyboard-response",439,519043,"0.0-3.142-2.142","2ok7hxhjyj16xzc",144,"67.csv","","null","resources/images/fishbone.png","null","",NA,NA,NA,NA,""
"image-keyboard-response",440,519572,"0.0-3.143-0.143","2ok7hxhjyj16xzc",144,"67.csv","","526.7000002861023","resources/trios/L2T1A2.jpg","38","restless",0.1,0.4,0.5,0.285173701622473,"true"
"image-keyboard-response",441,519979,"0.0-3.143-1.143","2ok7hxhjyj16xzc",144,"67.csv","","null","resources/maskTrios/BT1B.jpg","null","",NA,NA,NA,NA,""
"image-keyboard-response",442,521191,"0.0-3.143-2.143","2ok7hxhjyj16xzc",144,"67.csv","","null","resources/images/coin2.png","null","",NA,NA,NA,NA,""
"image-keyboard-response",443,522174,"0.0-3.144-0.144","2ok7hxhjyj16xzc",144,"67.csv","","980.9000000953674","resources/trios/L2T2A1.jpg","39","restless",0.1,0.4,0.6,0.0217383958595538,"true"
"image-keyboard-response",444,522579,"0.0-3.144-1.144","2ok7hxhjyj16xzc",144,"67.csv","","null","resources/maskTrios/BBA1.jpg","null","",NA,NA,NA,NA,""
"image-keyboard-response",445,523787,"0.0-3.144-2.144","2ok7hxhjyj16xzc",144,"67.csv","","null","resources/images/coin2.png","null","",NA,NA,NA,NA,""
"image-keyboard-response",446,524325,"0.0-3.145-0.145","2ok7hxhjyj16xzc",144,"67.csv","","537","resources/trios/L1T2A1.jpg","37","restless",0.1,0.4,0.6,0.464733158178759,"false"
"image-keyboard-response",447,524734,"0.0-3.145-1.145","2ok7hxhjyj16xzc",144,"67.csv","","null","resources/maskTrios/L1BB.jpg","null","",NA,NA,NA,NA,""
"image-keyboard-response",448,525939,"0.0-3.145-2.145","2ok7hxhjyj16xzc",144,"67.csv","","null","resources/images/fishbone.png","null","",NA,NA,NA,NA,""
"image-keyboard-response",449,526372,"0.0-3.146-0.146","2ok7hxhjyj16xzc",144,"67.csv","","431","resources/trios/L2T2A1.jpg","38","restless",0.1,0.4,0.6,0.440345011827747,"false"
"image-keyboard-response",450,526779,"0.0-3.146-1.146","2ok7hxhjyj16xzc",144,"67.csv","","null","resources/maskTrios/BT2B.jpg","null","",NA,NA,NA,NA,""
"image-keyboard-response",451,527991,"0.0-3.146-2.146","2ok7hxhjyj16xzc",144,"67.csv","","null","resources/images/fishbone.png","null","",NA,NA,NA,NA,""
"image-keyboard-response",452,528358,"0.0-3.147-0.147","2ok7hxhjyj16xzc",144,"67.csv","","364.59999990463257","resources/trios/L2T2A2.jpg","38","restless",0.1,0.4,0.6,0.127431493757816,"true"
"image-keyboard-response",453,528763,"0.0-3.147-1.147","2ok7hxhjyj16xzc",144,"67.csv","","null","resources/maskTrios/BT2B.jpg","null","",NA,NA,NA,NA,""
"image-keyboard-response",454,529971,"0.0-3.147-2.147","2ok7hxhjyj16xzc",144,"67.csv","","null","resources/images/coin2.png","null","",NA,NA,NA,NA,""
"image-keyboard-response",455,530324,"0.0-3.148-0.148","2ok7hxhjyj16xzc",144,"67.csv","","351.19999980926514","resources/trios/L2T2A2.jpg","39","restless",0.1,0.4,0.6,0.989336350638972,"false"
"image-keyboard-response",456,530734,"0.0-3.148-1.148","2ok7hxhjyj16xzc",144,"67.csv","","null","resources/maskTrios/BBA2.jpg","null","",NA,NA,NA,NA,""
"image-keyboard-response",457,531939,"0.0-3.148-2.148","2ok7hxhjyj16xzc",144,"67.csv","","null","resources/images/fishbone.png","null","",NA,NA,NA,NA,""
"image-keyboard-response",458,532712,"0.0-3.149-0.149","2ok7hxhjyj16xzc",144,"67.csv","","771.4000000953674","resources/trios/L1T1A2.jpg","37","restless",0.1,0.4,0.6,0.937319428015307,"false"
"image-keyboard-response",459,533123,"0.0-3.149-1.149","2ok7hxhjyj16xzc",144,"67.csv","","null","resources/maskTrios/L1BB.jpg","null","",NA,NA,NA,NA,""
"image-keyboard-response",460,534331,"0.0-3.149-2.149","2ok7hxhjyj16xzc",144,"67.csv","","null","resources/images/fishbone.png","null","",NA,NA,NA,NA,""
"image-keyboard-response",461,534343,"0.0-3.150-0.150","2ok7hxhjyj16xzc",144,"67.csv","","9.599999904632568","resources/trios/L2T2A2.jpg","37","restless",0.1,0.4,0.6,0.38657857301352,"false"
"image-keyboard-response",462,534750,"0.0-3.150-1.150","2ok7hxhjyj16xzc",144,"67.csv","","null","resources/maskTrios/L2BB.jpg","null","",NA,NA,NA,NA,""
"image-keyboard-response",463,535955,"0.0-3.150-2.150","2ok7hxhjyj16xzc",144,"67.csv","","null","resources/images/fishbone.png","null","",NA,NA,NA,NA,""
"image-keyboard-response",464,536577,"0.0-3.151-0.151","2ok7hxhjyj16xzc",144,"67.csv","","619.1999998092651","resources/trios/L2T1A2.jpg","37","restless",0.1,0.4,0.6,0.690190440859673,"false"
"image-keyboard-response",465,536991,"0.0-3.151-1.151","2ok7hxhjyj16xzc",144,"67.csv","","null","resources/maskTrios/L2BB.jpg","null","",NA,NA,NA,NA,""
"image-keyboard-response",466,538197,"0.0-3.151-2.151","2ok7hxhjyj16xzc",144,"67.csv","","null","resources/images/fishbone.png","null","",NA,NA,NA,NA,""
"image-keyboard-response",467,538549,"0.0-3.152-0.152","2ok7hxhjyj16xzc",144,"67.csv","","350.09999990463257","resources/trios/L2T2A1.jpg","38","restless",0.2,0.4,0.6,0.401983916625752,"false"
"image-keyboard-response",468,538955,"0.0-3.152-1.152","2ok7hxhjyj16xzc",144,"67.csv","","null","resources/maskTrios/BT2B.jpg","null","",NA,NA,NA,NA,""
"image-keyboard-response",469,540162,"0.0-3.152-2.152","2ok7hxhjyj16xzc",144,"67.csv","","null","resources/images/fishbone.png","null","",NA,NA,NA,NA,""
"image-keyboard-response",470,540490,"0.0-3.153-0.153","2ok7hxhjyj16xzc",144,"67.csv","","325.8999996185303","resources/trios/L2T1A2.jpg","39","restless",0.2,0.4,0.6,0.862749508108494,"false"
"image-keyboard-response",471,540902,"0.0-3.153-1.153","2ok7hxhjyj16xzc",144,"67.csv","","null","resources/maskTrios/BBA2.jpg","null","",NA,NA,NA,NA,""
"image-keyboard-response",472,542106,"0.0-3.153-2.153","2ok7hxhjyj16xzc",144,"67.csv","","null","resources/images/fishbone.png","null","",NA,NA,NA,NA,""
"image-keyboard-response",473,572108,"0.0-3.154-0.154","2ok7hxhjyj16xzc",144,"67.csv","","30000.299999713898","resources/trios/L1T1A1.jpg","39","restless",0.2,0.4,0.6,0.888043443493585,"false"
"image-keyboard-response",474,572517,"0.0-3.154-1.154","2ok7hxhjyj16xzc",144,"67.csv","","null","resources/maskTrios/BBA1.jpg","null","",NA,NA,NA,NA,""
"image-keyboard-response",475,573725,"0.0-3.154-2.154","2ok7hxhjyj16xzc",144,"67.csv","","null","resources/images/fishbone.png","null","",NA,NA,NA,NA,""
"image-keyboard-response",476,574177,"0.0-3.155-0.155","2ok7hxhjyj16xzc",144,"67.csv","","449.7999997138977","resources/trios/L2T1A1.jpg","38","restless",0.3,0.4,0.6,0.712762918272658,"false"
"image-keyboard-response",477,574585,"0.0-3.155-1.155","2ok7hxhjyj16xzc",144,"67.csv","","null","resources/maskTrios/BT1B.jpg","null","",NA,NA,NA,NA,""
"image-keyboard-response",478,575793,"0.0-3.155-2.155","2ok7hxhjyj16xzc",144,"67.csv","","null","resources/images/fishbone.png","null","",NA,NA,NA,NA,""
"image-keyboard-response",479,577331,"0.0-3.156-0.156","2ok7hxhjyj16xzc",144,"67.csv","","1535.7000002861023","resources/trios/L2T1A2.jpg","37","restless",0.3,0.4,0.7,0.993873421801358,"false"
"image-keyboard-response",480,577737,"0.0-3.156-1.156","2ok7hxhjyj16xzc",144,"67.csv","","null","resources/maskTrios/L2BB.jpg","null","",NA,NA,NA,NA,""
"image-keyboard-response",481,578946,"0.0-3.156-2.156","2ok7hxhjyj16xzc",144,"67.csv","","null","resources/images/fishbone.png","null","",NA,NA,NA,NA,""
"image-keyboard-response",482,579504,"0.0-3.157-0.157","2ok7hxhjyj16xzc",144,"67.csv","","556.1999998092651","resources/trios/L2T2A2.jpg","38","restless",0.3,0.4,0.7,0.0727593183338577,"true"
"image-keyboard-response",483,579913,"0.0-3.157-1.157","2ok7hxhjyj16xzc",144,"67.csv","","null","resources/maskTrios/BT2B.jpg","null","",NA,NA,NA,NA,""
"image-keyboard-response",484,581124,"0.0-3.157-2.157","2ok7hxhjyj16xzc",144,"67.csv","","null","resources/images/coin2.png","null","",NA,NA,NA,NA,""
"image-keyboard-response",485,581681,"0.0-3.158-0.158","2ok7hxhjyj16xzc",144,"67.csv","","554.4000000953674","resources/trios/L2T2A1.jpg","39","restless",0.3,0.4,0.7,0.568630117878171,"true"
"image-keyboard-response",486,582089,"0.0-3.158-1.158","2ok7hxhjyj16xzc",144,"67.csv","","null","resources/maskTrios/BBA1.jpg","null","",NA,NA,NA,NA,""
"image-keyboard-response",487,583296,"0.0-3.158-2.158","2ok7hxhjyj16xzc",144,"67.csv","","null","resources/images/coin2.png","null","",NA,NA,NA,NA,""
"image-keyboard-response",488,583851,"0.0-3.159-0.159","2ok7hxhjyj16xzc",144,"67.csv","","552.7000002861023","resources/trios/L2T2A1.jpg","38","restless",0.3,0.4,0.6,0.0542871025137808,"true"
"image-keyboard-response",489,584261,"0.0-3.159-1.159","2ok7hxhjyj16xzc",144,"67.csv","","null","resources/maskTrios/BT2B.jpg","null","",NA,NA,NA,NA,""
"image-keyboard-response",490,585469,"0.0-3.159-2.159","2ok7hxhjyj16xzc",144,"67.csv","","null","resources/images/coin2.png","null","",NA,NA,NA,NA,""
"image-keyboard-response",491,586266,"0.0-3.160-0.160","2ok7hxhjyj16xzc",144,"67.csv","","794.9000000953674","resources/trios/L1T1A1.jpg","38","restless",0.3,0.4,0.6,0.288499020559156,"true"
"image-keyboard-response",492,586673,"0.0-3.160-1.160","2ok7hxhjyj16xzc",144,"67.csv","","null","resources/maskTrios/BT1B.jpg","null","",NA,NA,NA,NA,""
"image-keyboard-response",493,587883,"0.0-3.160-2.160","2ok7hxhjyj16xzc",144,"67.csv","","null","resources/images/coin2.png","null","",NA,NA,NA,NA,""
"image-keyboard-response",494,588579,"0.0-3.161-0.161","2ok7hxhjyj16xzc",144,"67.csv","","694.4000000953674","resources/trios/L2T2A2.jpg","38","restless",0.3,0.4,0.6,0.26900298642358,"true"
"image-keyboard-response",495,588985,"0.0-3.161-1.161","2ok7hxhjyj16xzc",144,"67.csv","","null","resources/maskTrios/BT2B.jpg","null","",NA,NA,NA,NA,""
"image-keyboard-response",496,590193,"0.0-3.161-2.161","2ok7hxhjyj16xzc",144,"67.csv","","null","resources/images/coin2.png","null","",NA,NA,NA,NA,""
"image-keyboard-response",497,591401,"0.0-3.162-0.162","2ok7hxhjyj16xzc",144,"67.csv","","1206.1000003814697","resources/trios/L2T2A2.jpg","38","restless",0.4,0.4,0.6,0.873185642583087,"false"
"image-keyboard-response",498,591810,"0.0-3.162-1.162","2ok7hxhjyj16xzc",144,"67.csv","","null","resources/maskTrios/BT2B.jpg","null","",NA,NA,NA,NA,""
"image-keyboard-response",499,593021,"0.0-3.162-2.162","2ok7hxhjyj16xzc",144,"67.csv","","null","resources/images/fishbone.png","null","",NA,NA,NA,NA,""
"image-keyboard-response",500,593358,"0.0-3.163-0.163","2ok7hxhjyj16xzc",144,"67.csv","","335.5","resources/trios/L2T1A2.jpg","37","restless",0.4,0.4,0.6,0.747533522891654,"false"
"image-keyboard-response",501,593772,"0.0-3.163-1.163","2ok7hxhjyj16xzc",144,"67.csv","","null","resources/maskTrios/L2BB.jpg","null","",NA,NA,NA,NA,""
"image-keyboard-response",502,594977,"0.0-3.163-2.163","2ok7hxhjyj16xzc",144,"67.csv","","null","resources/images/fishbone.png","null","",NA,NA,NA,NA,""
"image-keyboard-response",503,595856,"0.0-3.164-0.164","2ok7hxhjyj16xzc",144,"67.csv","","876.7999997138977","resources/trios/L2T2A1.jpg","38","restless",0.4,0.4,0.6,0.497181105507711,"false"
"image-keyboard-response",504,596269,"0.0-3.164-1.164","2ok7hxhjyj16xzc",144,"67.csv","","null","resources/maskTrios/BT2B.jpg","null","",NA,NA,NA,NA,""
"image-keyboard-response",505,597473,"0.0-3.164-2.164","2ok7hxhjyj16xzc",144,"67.csv","","null","resources/images/fishbone.png","null","",NA,NA,NA,NA,""
"image-keyboard-response",506,598218,"0.0-3.165-0.165","2ok7hxhjyj16xzc",144,"67.csv","","742.6999998092651","resources/trios/L1T1A1.jpg","39","restless",0.4,0.4,0.5,0.468186545584487,"true"
"image-keyboard-response",507,598624,"0.0-3.165-1.165","2ok7hxhjyj16xzc",144,"67.csv","","null","resources/maskTrios/BBA1.jpg","null","",NA,NA,NA,NA,""
"image-keyboard-response",508,599832,"0.0-3.165-2.165","2ok7hxhjyj16xzc",144,"67.csv","","null","resources/images/coin2.png","null","",NA,NA,NA,NA,""
"image-keyboard-response",509,601160,"0.0-3.166-0.166","2ok7hxhjyj16xzc",144,"67.csv","","1326.3000001907349","resources/trios/L1T2A1.jpg","37","restless",0.4,0.4,0.5,0.674913990006314,"false"
"image-keyboard-response",510,601568,"0.0-3.166-1.166","2ok7hxhjyj16xzc",144,"67.csv","","null","resources/maskTrios/L1BB.jpg","null","",NA,NA,NA,NA,""
"image-keyboard-response",511,602778,"0.0-3.166-2.166","2ok7hxhjyj16xzc",144,"67.csv","","null","resources/images/fishbone.png","null","",NA,NA,NA,NA,""
"image-keyboard-response",512,603200,"0.0-3.167-0.167","2ok7hxhjyj16xzc",144,"67.csv","","419.19999980926514","resources/trios/L2T1A2.jpg","38","restless",0.4,0.4,0.5,0.266483812747085,"true"
"image-keyboard-response",513,603612,"0.0-3.167-1.167","2ok7hxhjyj16xzc",144,"67.csv","","null","resources/maskTrios/BT1B.jpg","null","",NA,NA,NA,NA,""
"image-keyboard-response",514,604816,"0.0-3.167-2.167","2ok7hxhjyj16xzc",144,"67.csv","","null","resources/images/coin2.png","null","",NA,NA,NA,NA,""
"image-keyboard-response",515,605321,"0.0-3.168-0.168","2ok7hxhjyj16xzc",144,"67.csv","","502.8999996185303","resources/trios/L1T1A1.jpg","38","restless",0.5,0.4,0.5,0.391196523540029,"true"
"image-keyboard-response",516,605728,"0.0-3.168-1.168","2ok7hxhjyj16xzc",144,"67.csv","","null","resources/maskTrios/BT1B.jpg","null","",NA,NA,NA,NA,""
"image-keyboard-response",517,606935,"0.0-3.168-2.168","2ok7hxhjyj16xzc",144,"67.csv","","null","resources/images/coin2.png","null","",NA,NA,NA,NA,""
"image-keyboard-response",518,607321,"0.0-3.169-0.169","2ok7hxhjyj16xzc",144,"67.csv","","383.59999990463257","resources/trios/L1T2A2.jpg","38","restless",0.6,0.4,0.5,0.00251835435040304,"true"
"image-keyboard-response",519,607731,"0.0-3.169-1.169","2ok7hxhjyj16xzc",144,"67.csv","","null","resources/maskTrios/BT2B.jpg","null","",NA,NA,NA,NA,""
"image-keyboard-response",520,608937,"0.0-3.169-2.169","2ok7hxhjyj16xzc",144,"67.csv","","null","resources/images/coin2.png","null","",NA,NA,NA,NA,""
"image-keyboard-response",521,609400,"0.0-3.170-0.170","2ok7hxhjyj16xzc",144,"67.csv","","460.40000009536743","resources/trios/L2T2A2.jpg","37","restless",0.6,0.4,0.5,0.138743727211603,"true"
"image-keyboard-response",522,609810,"0.0-3.170-1.170","2ok7hxhjyj16xzc",144,"67.csv","","null","resources/maskTrios/L2BB.jpg","null","",NA,NA,NA,NA,""
"image-keyboard-response",523,611020,"0.0-3.170-2.170","2ok7hxhjyj16xzc",144,"67.csv","","null","resources/images/coin2.png","null","",NA,NA,NA,NA,""
"image-keyboard-response",524,611743,"0.0-3.171-0.171","2ok7hxhjyj16xzc",144,"67.csv","","720.5","resources/trios/L1T2A2.jpg","38","restless",0.6,0.4,0.5,0.673207475407037,"false"
"image-keyboard-response",525,612152,"0.0-3.171-1.171","2ok7hxhjyj16xzc",144,"67.csv","","null","resources/maskTrios/BT2B.jpg","null","",NA,NA,NA,NA,""
"image-keyboard-response",526,613361,"0.0-3.171-2.171","2ok7hxhjyj16xzc",144,"67.csv","","null","resources/images/fishbone.png","null","",NA,NA,NA,NA,""
"image-keyboard-response",527,614139,"0.0-3.172-0.172","2ok7hxhjyj16xzc",144,"67.csv","","776.4000000953674","resources/trios/L2T1A2.jpg","38","restless",0.6,0.4,0.4,0.513351788569539,"false"
"image-keyboard-response",528,614544,"0.0-3.172-1.172","2ok7hxhjyj16xzc",144,"67.csv","","null","resources/maskTrios/BT1B.jpg","null","",NA,NA,NA,NA,""
"image-keyboard-response",529,615756,"0.0-3.172-2.172","2ok7hxhjyj16xzc",144,"67.csv","","null","resources/images/fishbone.png","null","",NA,NA,NA,NA,""
"image-keyboard-response",530,616473,"0.0-3.173-0.173","2ok7hxhjyj16xzc",144,"67.csv","","715.0999999046326","resources/trios/L1T1A2.jpg","37","restless",0.6,0.4,0.4,0.0743065863391648,"true"
"image-keyboard-response",531,616880,"0.0-3.173-1.173","2ok7hxhjyj16xzc",144,"67.csv","","null","resources/maskTrios/L1BB.jpg","null","",NA,NA,NA,NA,""
"image-keyboard-response",532,618089,"0.0-3.173-2.173","2ok7hxhjyj16xzc",144,"67.csv","","null","resources/images/coin2.png","null","",NA,NA,NA,NA,""
"image-keyboard-response",533,619036,"0.0-3.174-0.174","2ok7hxhjyj16xzc",144,"67.csv","","945.6999998092651","resources/trios/L2T2A1.jpg","38","restless",0.6,0.4,0.3,0.485053516507992,"false"
"image-keyboard-response",534,619443,"0.0-3.174-1.174","2ok7hxhjyj16xzc",144,"67.csv","","null","resources/maskTrios/BT2B.jpg","null","",NA,NA,NA,NA,""
"image-keyboard-response",535,620648,"0.0-3.174-2.174","2ok7hxhjyj16xzc",144,"67.csv","","null","resources/images/fishbone.png","null","",NA,NA,NA,NA,""
"image-keyboard-response",536,621223,"0.0-3.175-0.175","2ok7hxhjyj16xzc",144,"67.csv","","573.3000001907349","resources/trios/L1T1A2.jpg","38","restless",0.6,0.4,0.3,0.275851427195332,"true"
"image-keyboard-response",537,621633,"0.0-3.175-1.175","2ok7hxhjyj16xzc",144,"67.csv","","null","resources/maskTrios/BT1B.jpg","null","",NA,NA,NA,NA,""
"image-keyboard-response",538,622840,"0.0-3.175-2.175","2ok7hxhjyj16xzc",144,"67.csv","","null","resources/images/coin2.png","null","",NA,NA,NA,NA,""
"image-keyboard-response",539,623363,"0.0-3.176-0.176","2ok7hxhjyj16xzc",144,"67.csv","","522.3000001907349","resources/trios/L1T1A1.jpg","38","restless",0.6,0.3,0.3,0.941768267160512,"false"
"image-keyboard-response",540,623767,"0.0-3.176-1.176","2ok7hxhjyj16xzc",144,"67.csv","","null","resources/maskTrios/BT1B.jpg","null","",NA,NA,NA,NA,""
"image-keyboard-response",541,624976,"0.0-3.176-2.176","2ok7hxhjyj16xzc",144,"67.csv","","null","resources/images/fishbone.png","null","",NA,NA,NA,NA,""
"image-keyboard-response",542,625297,"0.0-3.177-0.177","2ok7hxhjyj16xzc",144,"67.csv","","319.90000009536743","resources/trios/L1T1A1.jpg","37","restless",0.6,0.3,0.3,0.570787674686242,"true"
"image-keyboard-response",543,625705,"0.0-3.177-1.177","2ok7hxhjyj16xzc",144,"67.csv","","null","resources/maskTrios/L1BB.jpg","null","",NA,NA,NA,NA,""
"image-keyboard-response",544,626914,"0.0-3.177-2.177","2ok7hxhjyj16xzc",144,"67.csv","","null","resources/images/coin2.png","null","",NA,NA,NA,NA,""
"image-keyboard-response",545,627596,"0.0-3.178-0.178","2ok7hxhjyj16xzc",144,"67.csv","","681.5999999046326","resources/trios/L1T2A1.jpg","39","restless",0.6,0.3,0.3,0.984169754419582,"false"
"image-keyboard-response",546,628000,"0.0-3.178-1.178","2ok7hxhjyj16xzc",144,"67.csv","","null","resources/maskTrios/BBA1.jpg","null","",NA,NA,NA,NA,""
"image-keyboard-response",547,629210,"0.0-3.178-2.178","2ok7hxhjyj16xzc",144,"67.csv","","null","resources/images/fishbone.png","null","",NA,NA,NA,NA,""
"image-keyboard-response",548,629605,"0.0-3.179-0.179","2ok7hxhjyj16xzc",144,"67.csv","","393.09999990463257","resources/trios/L2T2A2.jpg","38","restless",0.6,0.4,0.3,0.282140872399556,"true"
"image-keyboard-response",549,630017,"0.0-3.179-1.179","2ok7hxhjyj16xzc",144,"67.csv","","null","resources/maskTrios/BT2B.jpg","null","",NA,NA,NA,NA,""
"image-keyboard-response",550,631227,"0.0-3.179-2.179","2ok7hxhjyj16xzc",144,"67.csv","","null","resources/images/coin2.png","null","",NA,NA,NA,NA,""
"image-keyboard-response",551,631781,"0.0-3.180-0.180","2ok7hxhjyj16xzc",144,"67.csv","","551","resources/trios/L1T1A1.jpg","38","restless",0.6,0.4,0.3,0.245083842266766,"true"
"image-keyboard-response",552,632191,"0.0-3.180-1.180","2ok7hxhjyj16xzc",144,"67.csv","","null","resources/maskTrios/BT1B.jpg","null","",NA,NA,NA,NA,""
"image-keyboard-response",553,633400,"0.0-3.180-2.180","2ok7hxhjyj16xzc",144,"67.csv","","null","resources/images/coin2.png","null","",NA,NA,NA,NA,""
"image-keyboard-response",554,634061,"0.0-3.181-0.181","2ok7hxhjyj16xzc",144,"67.csv","","658.4000000953674","resources/trios/L1T2A2.jpg","37","restless",0.6,0.4,0.3,0.0143159893856024,"true"
"image-keyboard-response",555,634471,"0.0-3.181-1.181","2ok7hxhjyj16xzc",144,"67.csv","","null","resources/maskTrios/L1BB.jpg","null","",NA,NA,NA,NA,""
"image-keyboard-response",556,635679,"0.0-3.181-2.181","2ok7hxhjyj16xzc",144,"67.csv","","null","resources/images/coin2.png","null","",NA,NA,NA,NA,""
"image-keyboard-response",557,638904,"0.0-3.182-0.182","2ok7hxhjyj16xzc",144,"67.csv","","3222.5999999046326","resources/trios/L1T2A2.jpg","38","restless",0.6,0.4,0.3,0.0461672657945915,"true"
"image-keyboard-response",558,639312,"0.0-3.182-1.182","2ok7hxhjyj16xzc",144,"67.csv","","null","resources/maskTrios/BT2B.jpg","null","",NA,NA,NA,NA,""
"image-keyboard-response",559,640522,"0.0-3.182-2.182","2ok7hxhjyj16xzc",144,"67.csv","","null","resources/images/coin2.png","null","",NA,NA,NA,NA,""
"image-keyboard-response",560,641113,"0.0-3.183-0.183","2ok7hxhjyj16xzc",144,"67.csv","","589.2000002861023","resources/trios/L2T2A2.jpg","38","restless",0.6,0.4,0.4,0.435727107122914,"false"
"image-keyboard-response",561,641520,"0.0-3.183-1.183","2ok7hxhjyj16xzc",144,"67.csv","","null","resources/maskTrios/BT2B.jpg","null","",NA,NA,NA,NA,""
"image-keyboard-response",562,642726,"0.0-3.183-2.183","2ok7hxhjyj16xzc",144,"67.csv","","null","resources/images/fishbone.png","null","",NA,NA,NA,NA,""
"image-keyboard-response",563,650831,"0.0-3.184-0.184","2ok7hxhjyj16xzc",144,"67.csv","","8103","resources/trios/L1T1A1.jpg","38","restless",0.6,0.5,0.4,0.0437096466771925,"true"
"image-keyboard-response",564,651243,"0.0-3.184-1.184","2ok7hxhjyj16xzc",144,"67.csv","","null","resources/maskTrios/BT1B.jpg","null","",NA,NA,NA,NA,""
"image-keyboard-response",565,652450,"0.0-3.184-2.184","2ok7hxhjyj16xzc",144,"67.csv","","null","resources/images/coin2.png","null","",NA,NA,NA,NA,""
"image-keyboard-response",566,657266,"0.0-3.185-0.185","2ok7hxhjyj16xzc",144,"67.csv","","4813.799999713898","resources/trios/L2T2A2.jpg","38","restless",0.6,0.5,0.4,0.797369868672592,"false"
"image-keyboard-response",567,657675,"0.0-3.185-1.185","2ok7hxhjyj16xzc",144,"67.csv","","null","resources/maskTrios/BT2B.jpg","null","",NA,NA,NA,NA,""
"image-keyboard-response",568,658879,"0.0-3.185-2.185","2ok7hxhjyj16xzc",144,"67.csv","","null","resources/images/fishbone.png","null","",NA,NA,NA,NA,""
"image-keyboard-response",569,667298,"0.0-3.186-0.186","2ok7hxhjyj16xzc",144,"67.csv","","8417.300000190735","resources/trios/L2T2A1.jpg","39","restless",0.6,0.5,0.4,0.614292373004085,"false"
"image-keyboard-response",570,667702,"0.0-3.186-1.186","2ok7hxhjyj16xzc",144,"67.csv","","null","resources/maskTrios/BBA1.jpg","null","",NA,NA,NA,NA,""
"image-keyboard-response",571,668911,"0.0-3.186-2.186","2ok7hxhjyj16xzc",144,"67.csv","","null","resources/images/fishbone.png","null","",NA,NA,NA,NA,""
"image-keyboard-response",572,669451,"0.0-3.187-0.187","2ok7hxhjyj16xzc",144,"67.csv","","538.4000000953674","resources/trios/L1T2A2.jpg","37","restless",0.6,0.5,0.5,0.426623340356437,"true"
"image-keyboard-response",573,669855,"0.0-3.187-1.187","2ok7hxhjyj16xzc",144,"67.csv","","null","resources/maskTrios/L1BB.jpg","null","",NA,NA,NA,NA,""
"image-keyboard-response",574,671066,"0.0-3.187-2.187","2ok7hxhjyj16xzc",144,"67.csv","","null","resources/images/coin2.png","null","",NA,NA,NA,NA,""
"image-keyboard-response",575,671999,"0.0-3.188-0.188","2ok7hxhjyj16xzc",144,"67.csv","","931.5999999046326","resources/trios/L1T1A2.jpg","37","restless",0.6,0.5,0.5,0.0571710043275628,"true"
"image-keyboard-response",576,672409,"0.0-3.188-1.188","2ok7hxhjyj16xzc",144,"67.csv","","null","resources/maskTrios/L1BB.jpg","null","",NA,NA,NA,NA,""
"image-keyboard-response",577,673616,"0.0-3.188-2.188","2ok7hxhjyj16xzc",144,"67.csv","","null","resources/images/coin2.png","null","",NA,NA,NA,NA,""
"image-keyboard-response",578,674101,"0.0-3.189-0.189","2ok7hxhjyj16xzc",144,"67.csv","","482.5","resources/trios/L2T2A2.jpg","37","restless",0.6,0.5,0.5,0.0909915673307755,"true"
"image-keyboard-response",579,674514,"0.0-3.189-1.189","2ok7hxhjyj16xzc",144,"67.csv","","null","resources/maskTrios/L2BB.jpg","null","",NA,NA,NA,NA,""
"image-keyboard-response",580,675721,"0.0-3.189-2.189","2ok7hxhjyj16xzc",144,"67.csv","","null","resources/images/coin2.png","null","",NA,NA,NA,NA,""
"image-keyboard-response",581,676495,"0.0-3.190-0.190","2ok7hxhjyj16xzc",144,"67.csv","","771.5999999046326","resources/trios/L1T1A2.jpg","38","restless",0.6,0.5,0.5,0.420877601822887,"true"
"image-keyboard-response",582,676905,"0.0-3.190-1.190","2ok7hxhjyj16xzc",144,"67.csv","","null","resources/maskTrios/BT1B.jpg","null","",NA,NA,NA,NA,""
"image-keyboard-response",583,678110,"0.0-3.190-2.190","2ok7hxhjyj16xzc",144,"67.csv","","null","resources/images/coin2.png","null","",NA,NA,NA,NA,""
"image-keyboard-response",584,678487,"0.0-3.191-0.191","2ok7hxhjyj16xzc",144,"67.csv","","374.2000002861023","resources/trios/L1T1A1.jpg","38","restless",0.6,0.5,0.5,0.610698056726794,"false"
"image-keyboard-response",585,678895,"0.0-3.191-1.191","2ok7hxhjyj16xzc",144,"67.csv","","null","resources/maskTrios/BT1B.jpg","null","",NA,NA,NA,NA,""
"image-keyboard-response",586,680102,"0.0-3.191-2.191","2ok7hxhjyj16xzc",144,"67.csv","","null","resources/images/fishbone.png","null","",NA,NA,NA,NA,""
"image-keyboard-response",587,680499,"0.0-3.192-0.192","2ok7hxhjyj16xzc",144,"67.csv","","396.59999990463257","resources/trios/L2T1A2.jpg","39","restless",0.6,0.5,0.5,0.799132173310805,"false"
"image-keyboard-response",588,680914,"0.0-3.192-1.192","2ok7hxhjyj16xzc",144,"67.csv","","null","resources/maskTrios/BBA2.jpg","null","",NA,NA,NA,NA,""
"image-keyboard-response",589,682122,"0.0-3.192-2.192","2ok7hxhjyj16xzc",144,"67.csv","","null","resources/images/fishbone.png","null","",NA,NA,NA,NA,""
"image-keyboard-response",590,682651,"0.0-3.193-0.193","2ok7hxhjyj16xzc",144,"67.csv","","527.3999996185303","resources/trios/L2T1A2.jpg","37","restless",0.6,0.5,0.5,0.260111135627429,"true"
"image-keyboard-response",591,683066,"0.0-3.193-1.193","2ok7hxhjyj16xzc",144,"67.csv","","null","resources/maskTrios/L2BB.jpg","null","",NA,NA,NA,NA,""
"image-keyboard-response",592,684273,"0.0-3.193-2.193","2ok7hxhjyj16xzc",144,"67.csv","","null","resources/images/coin2.png","null","",NA,NA,NA,NA,""
"image-keyboard-response",593,684846,"0.0-3.194-0.194","2ok7hxhjyj16xzc",144,"67.csv","","570.5","resources/trios/L2T1A2.jpg","37","restless",0.6,0.5,0.5,0.856660758986684,"false"
"image-keyboard-response",594,685255,"0.0-3.194-1.194","2ok7hxhjyj16xzc",144,"67.csv","","null","resources/maskTrios/L2BB.jpg","null","",NA,NA,NA,NA,""
"image-keyboard-response",595,686458,"0.0-3.194-2.194","2ok7hxhjyj16xzc",144,"67.csv","","null","resources/images/fishbone.png","null","",NA,NA,NA,NA,""
"image-keyboard-response",596,686780,"0.0-3.195-0.195","2ok7hxhjyj16xzc",144,"67.csv","","320.3999996185303","resources/trios/L1T2A1.jpg","38","restless",0.6,0.5,0.6,0.520790748090131,"false"
"image-keyboard-response",597,687192,"0.0-3.195-1.195","2ok7hxhjyj16xzc",144,"67.csv","","null","resources/maskTrios/BT2B.jpg","null","",NA,NA,NA,NA,""
"image-keyboard-response",598,688398,"0.0-3.195-2.195","2ok7hxhjyj16xzc",144,"67.csv","","null","resources/images/fishbone.png","null","",NA,NA,NA,NA,""
"image-keyboard-response",599,688912,"0.0-3.196-0.196","2ok7hxhjyj16xzc",144,"67.csv","","512.2999997138977","resources/trios/L1T1A1.jpg","38","restless",0.6,0.5,0.6,0.856933491949079,"false"
"image-keyboard-response",600,689318,"0.0-3.196-1.196","2ok7hxhjyj16xzc",144,"67.csv","","null","resources/maskTrios/BT1B.jpg","null","",NA,NA,NA,NA,""
"image-keyboard-response",601,690529,"0.0-3.196-2.196","2ok7hxhjyj16xzc",144,"67.csv","","null","resources/images/fishbone.png","null","",NA,NA,NA,NA,""
"image-keyboard-response",602,691092,"0.0-3.197-0.197","2ok7hxhjyj16xzc",144,"67.csv","","560.7999997138977","resources/trios/L1T1A1.jpg","39","restless",0.6,0.5,0.6,0.303111905476688,"true"
"image-keyboard-response",603,691501,"0.0-3.197-1.197","2ok7hxhjyj16xzc",144,"67.csv","","null","resources/maskTrios/BBA1.jpg","null","",NA,NA,NA,NA,""
"image-keyboard-response",604,692709,"0.0-3.197-2.197","2ok7hxhjyj16xzc",144,"67.csv","","null","resources/images/coin2.png","null","",NA,NA,NA,NA,""
"image-keyboard-response",605,696428,"0.0-3.198-0.198","2ok7hxhjyj16xzc",144,"67.csv","","3716.2000002861023","resources/trios/L1T2A2.jpg","39","restless",0.6,0.5,0.7,0.559604980472243,"true"
"image-keyboard-response",606,696837,"0.0-3.198-1.198","2ok7hxhjyj16xzc",144,"67.csv","","null","resources/maskTrios/BBA2.jpg","null","",NA,NA,NA,NA,""
"image-keyboard-response",607,698049,"0.0-3.198-2.198","2ok7hxhjyj16xzc",144,"67.csv","","null","resources/images/coin2.png","null","",NA,NA,NA,NA,""
"image-keyboard-response",608,698834,"0.0-3.199-0.199","2ok7hxhjyj16xzc",144,"67.csv","","781.7999997138977","resources/trios/L2T2A1.jpg","39","restless",0.6,0.5,0.7,0.726751039185954,"false"
"image-keyboard-response",609,699237,"0.0-3.199-1.199","2ok7hxhjyj16xzc",144,"67.csv","","null","resources/maskTrios/BBA1.jpg","null","",NA,NA,NA,NA,""
