"trial_type","trial_index","time_elapsed","internal_node_id","subject","participantCode","walkNumber","success","rt","stimulus","key_press","test_part","leftProb","midProb","rightProb","generatedNum","correct"
"pavlovia",0,1154,"0.0-0.0","q3dwu8kywjwabqj",11,"103.csv","","","","","",NA,NA,NA,NA,""
"fullscreen",1,6692,"0.0-1.0","q3dwu8kywjwabqj",11,"103.csv","true","","","","",NA,NA,NA,NA,""
"html-keyboard-response",2,24950,"0.0-2.0-0.0","q3dwu8kywjwabqj",11,"103.csv","","18244.5","<p><font size='6'>Arrrgh!</p></font><p>Can you be the best pirate? Try to find lots of gold! But beware, some islands have more gold than others, and over time, the island with the most gold may change. Can YOU figure it out? </p><font size='6'>GOOD LUCK, CAPTAIN!!!</font><p>Press any key to begin</p>","13","",NA,NA,NA,NA,""
"image-keyboard-response",3,27953,"0.0-2.0-1.0","q3dwu8kywjwabqj",11,"103.csv","","null","resources/image_sets/111.png","null","",NA,NA,NA,NA,""
"image-keyboard-response",4,54056,"0.0-2.0-2.0","q3dwu8kywjwabqj",11,"103.csv","","26100.10000000149","resources/image_sets/left_highlight.png","37","",NA,NA,NA,NA,""
"image-keyboard-response",5,60979,"0.0-2.0-3.0","q3dwu8kywjwabqj",11,"103.csv","","6920.9000000059605","resources/image_sets/mid_highlight.png","38","",NA,NA,NA,NA,""
"image-keyboard-response",6,71325,"0.0-2.0-4.0","q3dwu8kywjwabqj",11,"103.csv","","10344.79999999702","resources/image_sets/right_highlight.png","39","",NA,NA,NA,NA,""
"image-keyboard-response",7,77248,"0.0-2.0-5.0","q3dwu8kywjwabqj",11,"103.csv","","5921.30000000447","resources/image_sets/111.png","13","",NA,NA,NA,NA,""
"image-keyboard-response",8,81895,"0.0-2.0-6.0","q3dwu8kywjwabqj",11,"103.csv","","4645","resources/images/coin2.png","13","",NA,NA,NA,NA,""
"image-keyboard-response",9,84259,"0.0-2.0-7.0","q3dwu8kywjwabqj",11,"103.csv","","2362.2000000029802","resources/images/fishbone.png","13","",NA,NA,NA,NA,""
"html-keyboard-response",10,95482,"0.0-2.0-8.0","q3dwu8kywjwabqj",11,"103.csv","","11221.59999999404","<p>Your first journey will be a long one, but you will get a well deserved break at the end</p><p>After the break you will have four more journeys, but each will be much shorter than the first, and you will have breaks in between each</p><p>Press Enter to begin</p>","13","",NA,NA,NA,NA,""
"image-keyboard-response",11,97480,"0.0-3.0-0.0","q3dwu8kywjwabqj",11,"103.csv","","1996","resources/trios/L1T1A1.jpg","39","restless",0.3,0.9,0.7,0.576797185346246,"true"
"image-keyboard-response",12,97890,"0.0-3.0-1.0","q3dwu8kywjwabqj",11,"103.csv","","null","resources/maskTrios/BBA1.jpg","null","",NA,NA,NA,NA,""
"image-keyboard-response",13,99096,"0.0-3.0-2.0","q3dwu8kywjwabqj",11,"103.csv","","null","resources/images/coin2.png","null","",NA,NA,NA,NA,""
"image-keyboard-response",14,104424,"0.0-3.1-0.1","q3dwu8kywjwabqj",11,"103.csv","","5326.30000000447","resources/trios/L1T4A2.jpg","38","restless",0.3,0.8,0.7,0.0530279353532488,"true"
"image-keyboard-response",15,104832,"0.0-3.1-1.1","q3dwu8kywjwabqj",11,"103.csv","","null","resources/maskTrios/BT4B.jpg","null","",NA,NA,NA,NA,""
"image-keyboard-response",16,106039,"0.0-3.1-2.1","q3dwu8kywjwabqj",11,"103.csv","","null","resources/images/coin2.png","null","",NA,NA,NA,NA,""
"image-keyboard-response",17,108960,"0.0-3.2-0.2","q3dwu8kywjwabqj",11,"103.csv","","2919.60000000149","resources/trios/L2T1A2.jpg","38","restless",0.3,0.8,0.7,0.170195930229625,"true"
"image-keyboard-response",18,109363,"0.0-3.2-1.2","q3dwu8kywjwabqj",11,"103.csv","","null","resources/maskTrios/BT1B.jpg","null","",NA,NA,NA,NA,""
"image-keyboard-response",19,110570,"0.0-3.2-2.2","q3dwu8kywjwabqj",11,"103.csv","","null","resources/images/coin2.png","null","",NA,NA,NA,NA,""
"image-keyboard-response",20,115569,"0.0-3.3-0.3","q3dwu8kywjwabqj",11,"103.csv","","4996.29999999702","resources/trios/L1T4A2.jpg","38","restless",0.3,0.8,0.7,0.757067311434546,"true"
"image-keyboard-response",21,115976,"0.0-3.3-1.3","q3dwu8kywjwabqj",11,"103.csv","","null","resources/maskTrios/BT4B.jpg","null","",NA,NA,NA,NA,""
"image-keyboard-response",22,117180,"0.0-3.3-2.3","q3dwu8kywjwabqj",11,"103.csv","","null","resources/images/coin2.png","null","",NA,NA,NA,NA,""
"image-keyboard-response",23,125131,"0.0-3.4-0.4","q3dwu8kywjwabqj",11,"103.csv","","7948.39999999851","resources/trios/L2T4A1.jpg","37","restless",0.3,0.7,0.7,0.413679367195269,"false"
"image-keyboard-response",24,125538,"0.0-3.4-1.4","q3dwu8kywjwabqj",11,"103.csv","","null","resources/maskTrios/L2BB.jpg","null","",NA,NA,NA,NA,""
"image-keyboard-response",25,126744,"0.0-3.4-2.4","q3dwu8kywjwabqj",11,"103.csv","","null","resources/images/fishbone.png","null","",NA,NA,NA,NA,""
"image-keyboard-response",26,129244,"0.0-3.5-0.5","q3dwu8kywjwabqj",11,"103.csv","","2497.9000000059605","resources/trios/L2T4A1.jpg","38","restless",0.3,0.7,0.7,0.992958684554512,"false"
"image-keyboard-response",27,129649,"0.0-3.5-1.5","q3dwu8kywjwabqj",11,"103.csv","","null","resources/maskTrios/BT4B.jpg","null","",NA,NA,NA,NA,""
"image-keyboard-response",28,130855,"0.0-3.5-2.5","q3dwu8kywjwabqj",11,"103.csv","","null","resources/images/fishbone.png","null","",NA,NA,NA,NA,""
"image-keyboard-response",29,132933,"0.0-3.6-0.6","q3dwu8kywjwabqj",11,"103.csv","","2076.89999999851","resources/trios/L2T1A1.jpg","39","restless",0.3,0.7,0.8,0.510385585381855,"true"
"image-keyboard-response",30,133336,"0.0-3.6-1.6","q3dwu8kywjwabqj",11,"103.csv","","null","resources/maskTrios/BBA1.jpg","null","",NA,NA,NA,NA,""
"image-keyboard-response",31,134541,"0.0-3.6-2.6","q3dwu8kywjwabqj",11,"103.csv","","null","resources/images/coin2.png","null","",NA,NA,NA,NA,""
"image-keyboard-response",32,136462,"0.0-3.7-0.7","q3dwu8kywjwabqj",11,"103.csv","","1919.3000000044703","resources/trios/L1T4A2.jpg","38","restless",0.2,0.7,0.8,0.19693967510378,"true"
"image-keyboard-response",33,136869,"0.0-3.7-1.7","q3dwu8kywjwabqj",11,"103.csv","","null","resources/maskTrios/BT4B.jpg","null","",NA,NA,NA,NA,""
"image-keyboard-response",34,138072,"0.0-3.7-2.7","q3dwu8kywjwabqj",11,"103.csv","","null","resources/images/coin2.png","null","",NA,NA,NA,NA,""
"image-keyboard-response",35,140919,"0.0-3.8-0.8","q3dwu8kywjwabqj",11,"103.csv","","2844.2000000029802","resources/trios/L1T4A2.jpg","38","restless",0.2,0.7,0.8,0.728465035340455,"false"
"image-keyboard-response",36,141326,"0.0-3.8-1.8","q3dwu8kywjwabqj",11,"103.csv","","null","resources/maskTrios/BT4B.jpg","null","",NA,NA,NA,NA,""
"image-keyboard-response",37,142532,"0.0-3.8-2.8","q3dwu8kywjwabqj",11,"103.csv","","null","resources/images/fishbone.png","null","",NA,NA,NA,NA,""
"image-keyboard-response",38,143455,"0.0-3.9-0.9","q3dwu8kywjwabqj",11,"103.csv","","921","resources/trios/L2T1A1.jpg","39","restless",0.2,0.7,0.8,0.352729928664703,"true"
"image-keyboard-response",39,143858,"0.0-3.9-1.9","q3dwu8kywjwabqj",11,"103.csv","","null","resources/maskTrios/BBA1.jpg","null","",NA,NA,NA,NA,""
"image-keyboard-response",40,145065,"0.0-3.9-2.9","q3dwu8kywjwabqj",11,"103.csv","","null","resources/images/coin2.png","null","",NA,NA,NA,NA,""
"image-keyboard-response",41,146147,"0.0-3.10-0.10","q3dwu8kywjwabqj",11,"103.csv","","1080.5","resources/trios/L2T4A2.jpg","37","restless",0.2,0.7,0.8,0.236479995635065,"false"
"image-keyboard-response",42,146554,"0.0-3.10-1.10","q3dwu8kywjwabqj",11,"103.csv","","null","resources/maskTrios/L2BB.jpg","null","",NA,NA,NA,NA,""
"image-keyboard-response",43,147761,"0.0-3.10-2.10","q3dwu8kywjwabqj",11,"103.csv","","null","resources/images/fishbone.png","null","",NA,NA,NA,NA,""
"image-keyboard-response",44,149211,"0.0-3.11-0.11","q3dwu8kywjwabqj",11,"103.csv","","1447.6999999955297","resources/trios/L2T4A2.jpg","38","restless",0.2,0.7,0.8,0.195723475700037,"true"
"image-keyboard-response",45,149613,"0.0-3.11-1.11","q3dwu8kywjwabqj",11,"103.csv","","null","resources/maskTrios/BT4B.jpg","null","",NA,NA,NA,NA,""
"image-keyboard-response",46,150817,"0.0-3.11-2.11","q3dwu8kywjwabqj",11,"103.csv","","null","resources/images/coin2.png","null","",NA,NA,NA,NA,""
"image-keyboard-response",47,151410,"0.0-3.12-0.12","q3dwu8kywjwabqj",11,"103.csv","","590.8999999985099","resources/trios/L2T1A2.jpg","39","restless",0.2,0.7,0.8,0.99055123817216,"false"
"image-keyboard-response",48,151816,"0.0-3.12-1.12","q3dwu8kywjwabqj",11,"103.csv","","null","resources/maskTrios/BBA2.jpg","null","",NA,NA,NA,NA,""
"image-keyboard-response",49,153018,"0.0-3.12-2.12","q3dwu8kywjwabqj",11,"103.csv","","null","resources/images/fishbone.png","null","",NA,NA,NA,NA,""
"image-keyboard-response",50,153676,"0.0-3.13-0.13","q3dwu8kywjwabqj",11,"103.csv","","656.5","resources/trios/L2T1A2.jpg","38","restless",0.2,0.7,0.8,0.527509645281807,"true"
"image-keyboard-response",51,154083,"0.0-3.13-1.13","q3dwu8kywjwabqj",11,"103.csv","","null","resources/maskTrios/BT1B.jpg","null","",NA,NA,NA,NA,""
"image-keyboard-response",52,155286,"0.0-3.13-2.13","q3dwu8kywjwabqj",11,"103.csv","","null","resources/images/coin2.png","null","",NA,NA,NA,NA,""
"image-keyboard-response",53,157900,"0.0-3.14-0.14","q3dwu8kywjwabqj",11,"103.csv","","2612.60000000149","resources/trios/L1T4A1.jpg","37","restless",0.2,0.7,0.8,0.350589986057341,"false"
"image-keyboard-response",54,158307,"0.0-3.14-1.14","q3dwu8kywjwabqj",11,"103.csv","","null","resources/maskTrios/L1BB.jpg","null","",NA,NA,NA,NA,""
"image-keyboard-response",55,159514,"0.0-3.14-2.14","q3dwu8kywjwabqj",11,"103.csv","","null","resources/images/fishbone.png","null","",NA,NA,NA,NA,""
"image-keyboard-response",56,160083,"0.0-3.15-0.15","q3dwu8kywjwabqj",11,"103.csv","","567.5","resources/trios/L2T1A1.jpg","39","restless",0.2,0.7,0.8,0.15207272881845,"true"
"image-keyboard-response",57,160485,"0.0-3.15-1.15","q3dwu8kywjwabqj",11,"103.csv","","null","resources/maskTrios/BBA1.jpg","null","",NA,NA,NA,NA,""
"image-keyboard-response",58,161692,"0.0-3.15-2.15","q3dwu8kywjwabqj",11,"103.csv","","null","resources/images/coin2.png","null","",NA,NA,NA,NA,""
"image-keyboard-response",59,162278,"0.0-3.16-0.16","q3dwu8kywjwabqj",11,"103.csv","","583.7999999970198","resources/trios/L2T1A2.jpg","37","restless",0.2,0.7,0.8,0.0692199432470926,"true"
"image-keyboard-response",60,162685,"0.0-3.16-1.16","q3dwu8kywjwabqj",11,"103.csv","","null","resources/maskTrios/L2BB.jpg","null","",NA,NA,NA,NA,""
"image-keyboard-response",61,163893,"0.0-3.16-2.16","q3dwu8kywjwabqj",11,"103.csv","","null","resources/images/coin2.png","null","",NA,NA,NA,NA,""
"image-keyboard-response",62,164689,"0.0-3.17-0.17","q3dwu8kywjwabqj",11,"103.csv","","794.1000000014901","resources/trios/L2T4A1.jpg","38","restless",0.2,0.7,0.8,0.240575978803141,"true"
"image-keyboard-response",63,165095,"0.0-3.17-1.17","q3dwu8kywjwabqj",11,"103.csv","","null","resources/maskTrios/BT4B.jpg","null","",NA,NA,NA,NA,""
"image-keyboard-response",64,166297,"0.0-3.17-2.17","q3dwu8kywjwabqj",11,"103.csv","","null","resources/images/coin2.png","null","",NA,NA,NA,NA,""
"image-keyboard-response",65,167104,"0.0-3.18-0.18","q3dwu8kywjwabqj",11,"103.csv","","805","resources/trios/L2T1A1.jpg","39","restless",0.2,0.7,0.9,0.953264501274943,"false"
"image-keyboard-response",66,167511,"0.0-3.18-1.18","q3dwu8kywjwabqj",11,"103.csv","","null","resources/maskTrios/BBA1.jpg","null","",NA,NA,NA,NA,""
"image-keyboard-response",67,168717,"0.0-3.18-2.18","q3dwu8kywjwabqj",11,"103.csv","","null","resources/images/fishbone.png","null","",NA,NA,NA,NA,""
"image-keyboard-response",68,169217,"0.0-3.19-0.19","q3dwu8kywjwabqj",11,"103.csv","","497.6000000014901","resources/trios/L2T1A2.jpg","37","restless",0.1,0.7,0.9,0.365724378178024,"false"
"image-keyboard-response",69,169621,"0.0-3.19-1.19","q3dwu8kywjwabqj",11,"103.csv","","null","resources/maskTrios/L2BB.jpg","null","",NA,NA,NA,NA,""
"image-keyboard-response",70,170828,"0.0-3.19-2.19","q3dwu8kywjwabqj",11,"103.csv","","null","resources/images/fishbone.png","null","",NA,NA,NA,NA,""
"image-keyboard-response",71,171182,"0.0-3.20-0.20","q3dwu8kywjwabqj",11,"103.csv","","352.69999999552965","resources/trios/L2T1A1.jpg","38","restless",0.1,0.7,0.9,0.473799645829452,"true"
"image-keyboard-response",72,171584,"0.0-3.20-1.20","q3dwu8kywjwabqj",11,"103.csv","","null","resources/maskTrios/BT1B.jpg","null","",NA,NA,NA,NA,""
"image-keyboard-response",73,172790,"0.0-3.20-2.20","q3dwu8kywjwabqj",11,"103.csv","","null","resources/images/coin2.png","null","",NA,NA,NA,NA,""
"image-keyboard-response",74,172845,"0.0-3.21-0.21","q3dwu8kywjwabqj",11,"103.csv","","53.400000005960464","resources/trios/L1T1A2.jpg","39","restless",0.1,0.7,0.9,0.380651514120746,"true"
"image-keyboard-response",75,173252,"0.0-3.21-1.21","q3dwu8kywjwabqj",11,"103.csv","","null","resources/maskTrios/BBA2.jpg","null","",NA,NA,NA,NA,""
"image-keyboard-response",76,174455,"0.0-3.21-2.21","q3dwu8kywjwabqj",11,"103.csv","","null","resources/images/coin2.png","null","",NA,NA,NA,NA,""
"image-keyboard-response",77,174833,"0.0-3.22-0.22","q3dwu8kywjwabqj",11,"103.csv","","376.5","resources/trios/L1T1A2.jpg","37","restless",0.1,0.8,0.9,0.342057515089134,"false"
"image-keyboard-response",78,175240,"0.0-3.22-1.22","q3dwu8kywjwabqj",11,"103.csv","","null","resources/maskTrios/L1BB.jpg","null","",NA,NA,NA,NA,""
"image-keyboard-response",79,176447,"0.0-3.22-2.22","q3dwu8kywjwabqj",11,"103.csv","","null","resources/images/fishbone.png","null","",NA,NA,NA,NA,""
"image-keyboard-response",80,177490,"0.0-3.23-0.23","q3dwu8kywjwabqj",11,"103.csv","","1042.3999999985099","resources/trios/L1T4A1.jpg","39","restless",0.1,0.8,0.9,0.622279630296047,"true"
"image-keyboard-response",81,177898,"0.0-3.23-1.23","q3dwu8kywjwabqj",11,"103.csv","","null","resources/maskTrios/BBA1.jpg","null","",NA,NA,NA,NA,""
"image-keyboard-response",82,179104,"0.0-3.23-2.23","q3dwu8kywjwabqj",11,"103.csv","","null","resources/images/coin2.png","null","",NA,NA,NA,NA,""
"image-keyboard-response",83,179509,"0.0-3.24-0.24","q3dwu8kywjwabqj",11,"103.csv","","403.6000000014901","resources/trios/L2T1A2.jpg","39","restless",0.1,0.8,0.9,0.275130036675985,"true"
"image-keyboard-response",84,179916,"0.0-3.24-1.24","q3dwu8kywjwabqj",11,"103.csv","","null","resources/maskTrios/BBA2.jpg","null","",NA,NA,NA,NA,""
"image-keyboard-response",85,181119,"0.0-3.24-2.24","q3dwu8kywjwabqj",11,"103.csv","","null","resources/images/coin2.png","null","",NA,NA,NA,NA,""
"image-keyboard-response",86,181649,"0.0-3.25-0.25","q3dwu8kywjwabqj",11,"103.csv","","528.3999999985099","resources/trios/L2T4A1.jpg","39","restless",0.1,0.7,0.9,0.38251882984167,"true"
"image-keyboard-response",87,182054,"0.0-3.25-1.25","q3dwu8kywjwabqj",11,"103.csv","","null","resources/maskTrios/BBA1.jpg","null","",NA,NA,NA,NA,""
"image-keyboard-response",88,183261,"0.0-3.25-2.25","q3dwu8kywjwabqj",11,"103.csv","","null","resources/images/coin2.png","null","",NA,NA,NA,NA,""
"image-keyboard-response",89,183981,"0.0-3.26-0.26","q3dwu8kywjwabqj",11,"103.csv","","718.2000000029802","resources/trios/L1T1A2.jpg","37","restless",0.1,0.7,0.9,0.442786613400741,"false"
"image-keyboard-response",90,184388,"0.0-3.26-1.26","q3dwu8kywjwabqj",11,"103.csv","","null","resources/maskTrios/L1BB.jpg","null","",NA,NA,NA,NA,""
"image-keyboard-response",91,185595,"0.0-3.26-2.26","q3dwu8kywjwabqj",11,"103.csv","","null","resources/images/fishbone.png","null","",NA,NA,NA,NA,""
"image-keyboard-response",92,186524,"0.0-3.27-0.27","q3dwu8kywjwabqj",11,"103.csv","","927.6000000014901","resources/trios/L2T1A1.jpg","37","restless",0.1,0.7,0.8,0.631560945313488,"false"
"image-keyboard-response",93,186931,"0.0-3.27-1.27","q3dwu8kywjwabqj",11,"103.csv","","null","resources/maskTrios/L2BB.jpg","null","",NA,NA,NA,NA,""
"image-keyboard-response",94,188138,"0.0-3.27-2.27","q3dwu8kywjwabqj",11,"103.csv","","null","resources/images/fishbone.png","null","",NA,NA,NA,NA,""
"image-keyboard-response",95,192240,"0.0-3.28-0.28","q3dwu8kywjwabqj",11,"103.csv","","4100.39999999851","resources/trios/L1T1A1.jpg","39","restless",0.1,0.7,0.8,0.224142185389052,"true"
"image-keyboard-response",96,192647,"0.0-3.28-1.28","q3dwu8kywjwabqj",11,"103.csv","","null","resources/maskTrios/BBA1.jpg","null","",NA,NA,NA,NA,""
"image-keyboard-response",97,193853,"0.0-3.28-2.28","q3dwu8kywjwabqj",11,"103.csv","","null","resources/images/coin2.png","null","",NA,NA,NA,NA,""
"image-keyboard-response",98,194315,"0.0-3.29-0.29","q3dwu8kywjwabqj",11,"103.csv","","459.8999999985099","resources/trios/L2T4A2.jpg","37","restless",0.1,0.7,0.8,0.770372684043287,"false"
"image-keyboard-response",99,194722,"0.0-3.29-1.29","q3dwu8kywjwabqj",11,"103.csv","","null","resources/maskTrios/L2BB.jpg","null","",NA,NA,NA,NA,""
"image-keyboard-response",100,195927,"0.0-3.29-2.29","q3dwu8kywjwabqj",11,"103.csv","","null","resources/images/fishbone.png","null","",NA,NA,NA,NA,""
"image-keyboard-response",101,197799,"0.0-3.30-0.30","q3dwu8kywjwabqj",11,"103.csv","","1870.4000000059605","resources/trios/L1T1A2.jpg","38","restless",0.1,0.7,0.8,0.656491904727059,"true"
"image-keyboard-response",102,198204,"0.0-3.30-1.30","q3dwu8kywjwabqj",11,"103.csv","","null","resources/maskTrios/BT1B.jpg","null","",NA,NA,NA,NA,""
"image-keyboard-response",103,199410,"0.0-3.30-2.30","q3dwu8kywjwabqj",11,"103.csv","","null","resources/images/coin2.png","null","",NA,NA,NA,NA,""
"image-keyboard-response",104,201428,"0.0-3.31-0.31","q3dwu8kywjwabqj",11,"103.csv","","2015.6000000014901","resources/trios/L2T4A2.jpg","39","restless",0.1,0.6,0.8,0.816007722840379,"false"
"image-keyboard-response",105,201834,"0.0-3.31-1.31","q3dwu8kywjwabqj",11,"103.csv","","null","resources/maskTrios/BBA2.jpg","null","",NA,NA,NA,NA,""
"image-keyboard-response",106,203039,"0.0-3.31-2.31","q3dwu8kywjwabqj",11,"103.csv","","null","resources/images/fishbone.png","null","",NA,NA,NA,NA,""
"image-keyboard-response",107,204672,"0.0-3.32-0.32","q3dwu8kywjwabqj",11,"103.csv","","1631.1999999955297","resources/trios/L1T1A2.jpg","39","restless",0.2,0.6,0.8,0.334060292888415,"true"
"image-keyboard-response",108,205077,"0.0-3.32-1.32","q3dwu8kywjwabqj",11,"103.csv","","null","resources/maskTrios/BBA2.jpg","null","",NA,NA,NA,NA,""
"image-keyboard-response",109,206282,"0.0-3.32-2.32","q3dwu8kywjwabqj",11,"103.csv","","null","resources/images/coin2.png","null","",NA,NA,NA,NA,""
"image-keyboard-response",110,207254,"0.0-3.33-0.33","q3dwu8kywjwabqj",11,"103.csv","","970.2000000029802","resources/trios/L2T1A2.jpg","39","restless",0.2,0.6,0.8,0.739377755897442,"true"
"image-keyboard-response",111,207658,"0.0-3.33-1.33","q3dwu8kywjwabqj",11,"103.csv","","null","resources/maskTrios/BBA2.jpg","null","",NA,NA,NA,NA,""
"image-keyboard-response",112,208865,"0.0-3.33-2.33","q3dwu8kywjwabqj",11,"103.csv","","null","resources/images/coin2.png","null","",NA,NA,NA,NA,""
"image-keyboard-response",113,209417,"0.0-3.34-0.34","q3dwu8kywjwabqj",11,"103.csv","","550","resources/trios/L1T4A2.jpg","39","restless",0.2,0.6,0.8,0.585456506688156,"true"
"image-keyboard-response",114,209825,"0.0-3.34-1.34","q3dwu8kywjwabqj",11,"103.csv","","null","resources/maskTrios/BBA2.jpg","null","",NA,NA,NA,NA,""
"image-keyboard-response",115,211032,"0.0-3.34-2.34","q3dwu8kywjwabqj",11,"103.csv","","null","resources/images/coin2.png","null","",NA,NA,NA,NA,""
"image-keyboard-response",116,212143,"0.0-3.35-0.35","q3dwu8kywjwabqj",11,"103.csv","","1109.1000000014901","resources/trios/L2T1A1.jpg","37","restless",0.2,0.6,0.8,0.256277100275463,"false"
"image-keyboard-response",117,212546,"0.0-3.35-1.35","q3dwu8kywjwabqj",11,"103.csv","","null","resources/maskTrios/L2BB.jpg","null","",NA,NA,NA,NA,""
"image-keyboard-response",118,213753,"0.0-3.35-2.35","q3dwu8kywjwabqj",11,"103.csv","","null","resources/images/fishbone.png","null","",NA,NA,NA,NA,""
"image-keyboard-response",119,215233,"0.0-3.36-0.36","q3dwu8kywjwabqj",11,"103.csv","","1478.3000000044703","resources/trios/L2T4A2.jpg","39","restless",0.2,0.6,0.8,0.716738521179141,"true"
"image-keyboard-response",120,215637,"0.0-3.36-1.36","q3dwu8kywjwabqj",11,"103.csv","","null","resources/maskTrios/BBA2.jpg","null","",NA,NA,NA,NA,""
"image-keyboard-response",121,216842,"0.0-3.36-2.36","q3dwu8kywjwabqj",11,"103.csv","","null","resources/images/coin2.png","null","",NA,NA,NA,NA,""
"image-keyboard-response",122,217589,"0.0-3.37-0.37","q3dwu8kywjwabqj",11,"103.csv","","744.8999999985099","resources/trios/L1T1A2.jpg","37","restless",0.2,0.5,0.8,0.986566910158585,"false"
"image-keyboard-response",123,217997,"0.0-3.37-1.37","q3dwu8kywjwabqj",11,"103.csv","","null","resources/maskTrios/L1BB.jpg","null","",NA,NA,NA,NA,""
"image-keyboard-response",124,219199,"0.0-3.37-2.37","q3dwu8kywjwabqj",11,"103.csv","","null","resources/images/fishbone.png","null","",NA,NA,NA,NA,""
"image-keyboard-response",125,219940,"0.0-3.38-0.38","q3dwu8kywjwabqj",11,"103.csv","","739.5","resources/trios/L1T4A1.jpg","39","restless",0.2,0.5,0.7,0.653859667500856,"true"
"image-keyboard-response",126,220343,"0.0-3.38-1.38","q3dwu8kywjwabqj",11,"103.csv","","null","resources/maskTrios/BBA1.jpg","null","",NA,NA,NA,NA,""
"image-keyboard-response",127,221547,"0.0-3.38-2.38","q3dwu8kywjwabqj",11,"103.csv","","null","resources/images/coin2.png","null","",NA,NA,NA,NA,""
"image-keyboard-response",128,222301,"0.0-3.39-0.39","q3dwu8kywjwabqj",11,"103.csv","","752.3999999985099","resources/trios/L2T4A2.jpg","37","restless",0.2,0.4,0.7,0.405412354011871,"false"
"image-keyboard-response",129,222706,"0.0-3.39-1.39","q3dwu8kywjwabqj",11,"103.csv","","null","resources/maskTrios/L2BB.jpg","null","",NA,NA,NA,NA,""
"image-keyboard-response",130,223913,"0.0-3.39-2.39","q3dwu8kywjwabqj",11,"103.csv","","null","resources/images/fishbone.png","null","",NA,NA,NA,NA,""
"image-keyboard-response",131,224376,"0.0-3.40-0.40","q3dwu8kywjwabqj",11,"103.csv","","461.30000000447035","resources/trios/L2T1A2.jpg","39","restless",0.2,0.4,0.7,0.0335957588924778,"true"
"image-keyboard-response",132,224779,"0.0-3.40-1.40","q3dwu8kywjwabqj",11,"103.csv","","null","resources/maskTrios/BBA2.jpg","null","",NA,NA,NA,NA,""
"image-keyboard-response",133,225987,"0.0-3.40-2.40","q3dwu8kywjwabqj",11,"103.csv","","null","resources/images/coin2.png","null","",NA,NA,NA,NA,""
"image-keyboard-response",134,228202,"0.0-3.41-0.41","q3dwu8kywjwabqj",11,"103.csv","","2213.10000000149","resources/trios/L1T1A2.jpg","39","restless",0.2,0.4,0.6,0.251803642527236,"true"
"image-keyboard-response",135,228606,"0.0-3.41-1.41","q3dwu8kywjwabqj",11,"103.csv","","null","resources/maskTrios/BBA2.jpg","null","",NA,NA,NA,NA,""
"image-keyboard-response",136,229813,"0.0-3.41-2.41","q3dwu8kywjwabqj",11,"103.csv","","null","resources/images/coin2.png","null","",NA,NA,NA,NA,""
"image-keyboard-response",137,231782,"0.0-3.42-0.42","q3dwu8kywjwabqj",11,"103.csv","","1967.5","resources/trios/L1T4A1.jpg","37","restless",0.2,0.4,0.6,0.397428047181839,"false"
"image-keyboard-response",138,232184,"0.0-3.42-1.42","q3dwu8kywjwabqj",11,"103.csv","","null","resources/maskTrios/L1BB.jpg","null","",NA,NA,NA,NA,""
"image-keyboard-response",139,233391,"0.0-3.42-2.42","q3dwu8kywjwabqj",11,"103.csv","","null","resources/images/fishbone.png","null","",NA,NA,NA,NA,""
"image-keyboard-response",140,233508,"0.0-3.43-0.43","q3dwu8kywjwabqj",11,"103.csv","","114.60000000149012","resources/trios/L1T1A1.jpg","38","restless",0.2,0.3,0.5,0.123010287281019,"true"
"image-keyboard-response",141,233915,"0.0-3.43-1.43","q3dwu8kywjwabqj",11,"103.csv","","null","resources/maskTrios/BT1B.jpg","null","",NA,NA,NA,NA,""
"image-keyboard-response",142,235122,"0.0-3.43-2.43","q3dwu8kywjwabqj",11,"103.csv","","null","resources/images/coin2.png","null","",NA,NA,NA,NA,""
"image-keyboard-response",143,237141,"0.0-3.44-0.44","q3dwu8kywjwabqj",11,"103.csv","","2017.6000000014901","resources/trios/L1T1A1.jpg","39","restless",0.2,0.3,0.5,0.0527319188240438,"true"
"image-keyboard-response",144,237547,"0.0-3.44-1.44","q3dwu8kywjwabqj",11,"103.csv","","null","resources/maskTrios/BBA1.jpg","null","",NA,NA,NA,NA,""
"image-keyboard-response",145,238752,"0.0-3.44-2.44","q3dwu8kywjwabqj",11,"103.csv","","null","resources/images/coin2.png","null","",NA,NA,NA,NA,""
"image-keyboard-response",146,239443,"0.0-3.45-0.45","q3dwu8kywjwabqj",11,"103.csv","","688.8999999985099","resources/trios/L2T1A1.jpg","39","restless",0.2,0.3,0.5,0.97537601139796,"false"
"image-keyboard-response",147,239850,"0.0-3.45-1.45","q3dwu8kywjwabqj",11,"103.csv","","null","resources/maskTrios/BBA1.jpg","null","",NA,NA,NA,NA,""
"image-keyboard-response",148,241055,"0.0-3.45-2.45","q3dwu8kywjwabqj",11,"103.csv","","null","resources/images/fishbone.png","null","",NA,NA,NA,NA,""
"image-keyboard-response",149,241144,"0.0-3.46-0.46","q3dwu8kywjwabqj",11,"103.csv","","87.39999999850988","resources/trios/L1T1A2.jpg","37","restless",0.3,0.3,0.5,0.00622578189784906,"true"
"image-keyboard-response",150,241547,"0.0-3.46-1.46","q3dwu8kywjwabqj",11,"103.csv","","null","resources/maskTrios/L1BB.jpg","null","",NA,NA,NA,NA,""
"image-keyboard-response",151,242754,"0.0-3.46-2.46","q3dwu8kywjwabqj",11,"103.csv","","null","resources/images/coin2.png","null","",NA,NA,NA,NA,""
"image-keyboard-response",152,243225,"0.0-3.47-0.47","q3dwu8kywjwabqj",11,"103.csv","","468.79999999701977","resources/trios/L2T4A1.jpg","37","restless",0.4,0.3,0.5,0.637948280855053,"false"
"image-keyboard-response",153,243632,"0.0-3.47-1.47","q3dwu8kywjwabqj",11,"103.csv","","null","resources/maskTrios/L2BB.jpg","null","",NA,NA,NA,NA,""
"image-keyboard-response",154,244834,"0.0-3.47-2.47","q3dwu8kywjwabqj",11,"103.csv","","null","resources/images/fishbone.png","null","",NA,NA,NA,NA,""
"image-keyboard-response",155,245410,"0.0-3.48-0.48","q3dwu8kywjwabqj",11,"103.csv","","574.6000000014901","resources/trios/L1T4A2.jpg","37","restless",0.4,0.2,0.5,0.633987790245679,"false"
"image-keyboard-response",156,245817,"0.0-3.48-1.48","q3dwu8kywjwabqj",11,"103.csv","","null","resources/maskTrios/L1BB.jpg","null","",NA,NA,NA,NA,""
"image-keyboard-response",157,247019,"0.0-3.48-2.48","q3dwu8kywjwabqj",11,"103.csv","","null","resources/images/fishbone.png","null","",NA,NA,NA,NA,""
"image-keyboard-response",158,247540,"0.0-3.49-0.49","q3dwu8kywjwabqj",11,"103.csv","","518.5","resources/trios/L1T1A1.jpg","37","restless",0.4,0.2,0.5,0.919100906398794,"false"
"image-keyboard-response",159,247947,"0.0-3.49-1.49","q3dwu8kywjwabqj",11,"103.csv","","null","resources/maskTrios/L1BB.jpg","null","",NA,NA,NA,NA,""
"image-keyboard-response",160,249151,"0.0-3.49-2.49","q3dwu8kywjwabqj",11,"103.csv","","null","resources/images/fishbone.png","null","",NA,NA,NA,NA,""
"image-keyboard-response",161,249790,"0.0-3.50-0.50","q3dwu8kywjwabqj",11,"103.csv","","637.7999999970198","resources/trios/L1T1A2.jpg","37","restless",0.4,0.2,0.4,0.554905794401743,"false"
"image-keyboard-response",162,250195,"0.0-3.50-1.50","q3dwu8kywjwabqj",11,"103.csv","","null","resources/maskTrios/L1BB.jpg","null","",NA,NA,NA,NA,""
"image-keyboard-response",163,251402,"0.0-3.50-2.50","q3dwu8kywjwabqj",11,"103.csv","","null","resources/images/fishbone.png","null","",NA,NA,NA,NA,""
"image-keyboard-response",164,252241,"0.0-3.51-0.51","q3dwu8kywjwabqj",11,"103.csv","","836.7999999970198","resources/trios/L1T1A1.jpg","39","restless",0.3,0.3,0.4,0.789978769205112,"false"
"image-keyboard-response",165,252648,"0.0-3.51-1.51","q3dwu8kywjwabqj",11,"103.csv","","null","resources/maskTrios/BBA1.jpg","null","",NA,NA,NA,NA,""
"image-keyboard-response",166,253856,"0.0-3.51-2.51","q3dwu8kywjwabqj",11,"103.csv","","null","resources/images/fishbone.png","null","",NA,NA,NA,NA,""
"image-keyboard-response",167,253862,"0.0-3.52-0.52","q3dwu8kywjwabqj",11,"103.csv","","2.899999998509884","resources/trios/L2T1A2.jpg","39","restless",0.3,0.3,0.4,0.702996812927021,"false"
"image-keyboard-response",168,254269,"0.0-3.52-1.52","q3dwu8kywjwabqj",11,"103.csv","","null","resources/maskTrios/BBA2.jpg","null","",NA,NA,NA,NA,""
"image-keyboard-response",169,255472,"0.0-3.52-2.52","q3dwu8kywjwabqj",11,"103.csv","","null","resources/images/fishbone.png","null","",NA,NA,NA,NA,""
"image-keyboard-response",170,257563,"0.0-3.53-0.53","q3dwu8kywjwabqj",11,"103.csv","","2089.7999999970198","resources/trios/L1T4A1.jpg","37","restless",0.4,0.3,0.4,0.951953818223528,"false"
"image-keyboard-response",171,257970,"0.0-3.53-1.53","q3dwu8kywjwabqj",11,"103.csv","","null","resources/maskTrios/L1BB.jpg","null","",NA,NA,NA,NA,""
"image-keyboard-response",172,259172,"0.0-3.53-2.53","q3dwu8kywjwabqj",11,"103.csv","","null","resources/images/fishbone.png","null","",NA,NA,NA,NA,""
"image-keyboard-response",173,259899,"0.0-3.54-0.54","q3dwu8kywjwabqj",11,"103.csv","","725.2999999970198","resources/trios/L1T1A2.jpg","39","restless",0.4,0.3,0.4,0.313435662639095,"true"
"image-keyboard-response",174,260306,"0.0-3.54-1.54","q3dwu8kywjwabqj",11,"103.csv","","null","resources/maskTrios/BBA2.jpg","null","",NA,NA,NA,NA,""
"image-keyboard-response",175,261509,"0.0-3.54-2.54","q3dwu8kywjwabqj",11,"103.csv","","null","resources/images/coin2.png","null","",NA,NA,NA,NA,""
"image-keyboard-response",176,261552,"0.0-3.55-0.55","q3dwu8kywjwabqj",11,"103.csv","","40.899999998509884","resources/trios/L1T4A2.jpg","39","restless",0.4,0.3,0.4,0.42433300137919,"false"
"image-keyboard-response",177,261959,"0.0-3.55-1.55","q3dwu8kywjwabqj",11,"103.csv","","null","resources/maskTrios/BBA2.jpg","null","",NA,NA,NA,NA,""
"image-keyboard-response",178,263163,"0.0-3.55-2.55","q3dwu8kywjwabqj",11,"103.csv","","null","resources/images/fishbone.png","null","",NA,NA,NA,NA,""
"image-keyboard-response",179,263344,"0.0-3.56-0.56","q3dwu8kywjwabqj",11,"103.csv","","177.20000000298023","resources/trios/L1T1A1.jpg","39","restless",0.4,0.3,0.4,0.113190178103142,"true"
"image-keyboard-response",180,263749,"0.0-3.56-1.56","q3dwu8kywjwabqj",11,"103.csv","","null","resources/maskTrios/BBA1.jpg","null","",NA,NA,NA,NA,""
"image-keyboard-response",181,264956,"0.0-3.56-2.56","q3dwu8kywjwabqj",11,"103.csv","","null","resources/images/coin2.png","null","",NA,NA,NA,NA,""
"image-keyboard-response",182,265459,"0.0-3.57-0.57","q3dwu8kywjwabqj",11,"103.csv","","501.6000000014901","resources/trios/L1T1A1.jpg","39","restless",0.4,0.3,0.4,0.503065340836792,"false"
"image-keyboard-response",183,265864,"0.0-3.57-1.57","q3dwu8kywjwabqj",11,"103.csv","","null","resources/maskTrios/BBA1.jpg","null","",NA,NA,NA,NA,""
"image-keyboard-response",184,267071,"0.0-3.57-2.57","q3dwu8kywjwabqj",11,"103.csv","","null","resources/images/fishbone.png","null","",NA,NA,NA,NA,""
"image-keyboard-response",185,268155,"0.0-3.58-0.58","q3dwu8kywjwabqj",11,"103.csv","","1083","resources/trios/L1T1A2.jpg","37","restless",0.4,0.4,0.4,0.912598995334193,"false"
"image-keyboard-response",186,268562,"0.0-3.58-1.58","q3dwu8kywjwabqj",11,"103.csv","","null","resources/maskTrios/L1BB.jpg","null","",NA,NA,NA,NA,""
"image-keyboard-response",187,269764,"0.0-3.58-2.58","q3dwu8kywjwabqj",11,"103.csv","","null","resources/images/fishbone.png","null","",NA,NA,NA,NA,""
"image-keyboard-response",188,271577,"0.0-3.59-0.59","q3dwu8kywjwabqj",11,"103.csv","","1812.1000000014901","resources/trios/L1T4A1.jpg","39","restless",0.4,0.4,0.4,0.0598471010224557,"true"
"image-keyboard-response",189,271980,"0.0-3.59-1.59","q3dwu8kywjwabqj",11,"103.csv","","null","resources/maskTrios/BBA1.jpg","null","",NA,NA,NA,NA,""
"image-keyboard-response",190,273183,"0.0-3.59-2.59","q3dwu8kywjwabqj",11,"103.csv","","null","resources/images/coin2.png","null","",NA,NA,NA,NA,""
"image-keyboard-response",191,273792,"0.0-3.60-0.60","q3dwu8kywjwabqj",11,"103.csv","","607.2999999970198","resources/trios/L1T1A1.jpg","37","restless",0.3,0.4,0.4,0.85833951293078,"false"
"image-keyboard-response",192,274199,"0.0-3.60-1.60","q3dwu8kywjwabqj",11,"103.csv","","null","resources/maskTrios/L1BB.jpg","null","",NA,NA,NA,NA,""
"image-keyboard-response",193,275405,"0.0-3.60-2.60","q3dwu8kywjwabqj",11,"103.csv","","null","resources/images/fishbone.png","null","",NA,NA,NA,NA,""
"image-keyboard-response",194,275839,"0.0-3.61-0.61","q3dwu8kywjwabqj",11,"103.csv","","432","resources/trios/L2T4A2.jpg","38","restless",0.3,0.4,0.4,0.631155607787019,"false"
"image-keyboard-response",195,276246,"0.0-3.61-1.61","q3dwu8kywjwabqj",11,"103.csv","","null","resources/maskTrios/BT4B.jpg","null","",NA,NA,NA,NA,""
"image-keyboard-response",196,277453,"0.0-3.61-2.61","q3dwu8kywjwabqj",11,"103.csv","","null","resources/images/fishbone.png","null","",NA,NA,NA,NA,""
"image-keyboard-response",197,277509,"0.0-3.62-0.62","q3dwu8kywjwabqj",11,"103.csv","","54.5","resources/trios/L1T4A2.jpg","39","restless",0.3,0.5,0.4,0.309535131008018,"true"
"image-keyboard-response",198,277916,"0.0-3.62-1.62","q3dwu8kywjwabqj",11,"103.csv","","null","resources/maskTrios/BBA2.jpg","null","",NA,NA,NA,NA,""
"image-keyboard-response",199,279123,"0.0-3.62-2.62","q3dwu8kywjwabqj",11,"103.csv","","null","resources/images/coin2.png","null","",NA,NA,NA,NA,""
"image-keyboard-response",200,279434,"0.0-3.63-0.63","q3dwu8kywjwabqj",11,"103.csv","","309.80000000447035","resources/trios/L1T4A1.jpg","39","restless",0.3,0.6,0.4,0.669683557966623,"false"
"image-keyboard-response",201,279841,"0.0-3.63-1.63","q3dwu8kywjwabqj",11,"103.csv","","null","resources/maskTrios/BBA1.jpg","null","",NA,NA,NA,NA,""
"image-keyboard-response",202,281042,"0.0-3.63-2.63","q3dwu8kywjwabqj",11,"103.csv","","null","resources/images/fishbone.png","null","",NA,NA,NA,NA,""
"image-keyboard-response",203,281607,"0.0-3.64-0.64","q3dwu8kywjwabqj",11,"103.csv","","563.5","resources/trios/L1T1A2.jpg","37","restless",0.3,0.6,0.4,0.669690291832795,"false"
"image-keyboard-response",204,282009,"0.0-3.64-1.64","q3dwu8kywjwabqj",11,"103.csv","","null","resources/maskTrios/L1BB.jpg","null","",NA,NA,NA,NA,""
"image-keyboard-response",205,283211,"0.0-3.64-2.64","q3dwu8kywjwabqj",11,"103.csv","","null","resources/images/fishbone.png","null","",NA,NA,NA,NA,""
"image-keyboard-response",206,283649,"0.0-3.65-0.65","q3dwu8kywjwabqj",11,"103.csv","","436.5","resources/trios/L2T1A2.jpg","38","restless",0.3,0.6,0.4,0.816475592932161,"false"
"image-keyboard-response",207,284055,"0.0-3.65-1.65","q3dwu8kywjwabqj",11,"103.csv","","null","resources/maskTrios/BT1B.jpg","null","",NA,NA,NA,NA,""
"image-keyboard-response",208,285262,"0.0-3.65-2.65","q3dwu8kywjwabqj",11,"103.csv","","null","resources/images/fishbone.png","null","",NA,NA,NA,NA,""
"image-keyboard-response",209,285543,"0.0-3.66-0.66","q3dwu8kywjwabqj",11,"103.csv","","279.1000000014901","resources/trios/L2T1A2.jpg","39","restless",0.4,0.6,0.4,0.3961003405628,"true"
"image-keyboard-response",210,285950,"0.0-3.66-1.66","q3dwu8kywjwabqj",11,"103.csv","","null","resources/maskTrios/BBA2.jpg","null","",NA,NA,NA,NA,""
"image-keyboard-response",211,287157,"0.0-3.66-2.66","q3dwu8kywjwabqj",11,"103.csv","","null","resources/images/coin2.png","null","",NA,NA,NA,NA,""
"image-keyboard-response",212,288151,"0.0-3.67-0.67","q3dwu8kywjwabqj",11,"103.csv","","992.7999999970198","resources/trios/L1T1A2.jpg","39","restless",0.4,0.6,0.5,0.597492533247435,"false"
"image-keyboard-response",213,288558,"0.0-3.67-1.67","q3dwu8kywjwabqj",11,"103.csv","","null","resources/maskTrios/BBA2.jpg","null","",NA,NA,NA,NA,""
"image-keyboard-response",214,289762,"0.0-3.67-2.67","q3dwu8kywjwabqj",11,"103.csv","","null","resources/images/fishbone.png","null","",NA,NA,NA,NA,""
"image-keyboard-response",215,289829,"0.0-3.68-0.68","q3dwu8kywjwabqj",11,"103.csv","","66","resources/trios/L1T4A1.jpg","38","restless",0.4,0.6,0.4,0.954666056009034,"false"
"image-keyboard-response",216,290236,"0.0-3.68-1.68","q3dwu8kywjwabqj",11,"103.csv","","null","resources/maskTrios/BT4B.jpg","null","",NA,NA,NA,NA,""
"image-keyboard-response",217,291442,"0.0-3.68-2.68","q3dwu8kywjwabqj",11,"103.csv","","null","resources/images/fishbone.png","null","",NA,NA,NA,NA,""
"image-keyboard-response",218,291977,"0.0-3.69-0.69","q3dwu8kywjwabqj",11,"103.csv","","532.8999999985099","resources/trios/L2T4A2.jpg","37","restless",0.4,0.6,0.4,0.957005330694686,"false"
"image-keyboard-response",219,292384,"0.0-3.69-1.69","q3dwu8kywjwabqj",11,"103.csv","","null","resources/maskTrios/L2BB.jpg","null","",NA,NA,NA,NA,""
"image-keyboard-response",220,293588,"0.0-3.69-2.69","q3dwu8kywjwabqj",11,"103.csv","","null","resources/images/fishbone.png","null","",NA,NA,NA,NA,""
"image-keyboard-response",221,294349,"0.0-3.70-0.70","q3dwu8kywjwabqj",11,"103.csv","","759.6000000014901","resources/trios/L2T4A2.jpg","39","restless",0.4,0.6,0.4,0.528218616605631,"false"
"image-keyboard-response",222,294754,"0.0-3.70-1.70","q3dwu8kywjwabqj",11,"103.csv","","null","resources/maskTrios/BBA2.jpg","null","",NA,NA,NA,NA,""
"image-keyboard-response",223,295961,"0.0-3.70-2.70","q3dwu8kywjwabqj",11,"103.csv","","null","resources/images/fishbone.png","null","",NA,NA,NA,NA,""
"image-keyboard-response",224,296440,"0.0-3.71-0.71","q3dwu8kywjwabqj",11,"103.csv","","477.1000000014901","resources/trios/L2T4A2.jpg","38","restless",0.4,0.6,0.4,0.973274703174558,"false"
"image-keyboard-response",225,296847,"0.0-3.71-1.71","q3dwu8kywjwabqj",11,"103.csv","","null","resources/maskTrios/BT4B.jpg","null","",NA,NA,NA,NA,""
"image-keyboard-response",226,298052,"0.0-3.71-2.71","q3dwu8kywjwabqj",11,"103.csv","","null","resources/images/fishbone.png","null","",NA,NA,NA,NA,""
"image-keyboard-response",227,298827,"0.0-3.72-0.72","q3dwu8kywjwabqj",11,"103.csv","","773","resources/trios/L1T1A1.jpg","37","restless",0.4,0.6,0.4,0.590986495861048,"false"
"image-keyboard-response",228,299228,"0.0-3.72-1.72","q3dwu8kywjwabqj",11,"103.csv","","null","resources/maskTrios/L1BB.jpg","null","",NA,NA,NA,NA,""
"image-keyboard-response",229,300433,"0.0-3.72-2.72","q3dwu8kywjwabqj",11,"103.csv","","null","resources/images/fishbone.png","null","",NA,NA,NA,NA,""
"image-keyboard-response",230,300879,"0.0-3.73-0.73","q3dwu8kywjwabqj",11,"103.csv","","444.29999999701977","resources/trios/L2T1A2.jpg","37","restless",0.4,0.6,0.4,0.443297167698943,"false"
"image-keyboard-response",231,301281,"0.0-3.73-1.73","q3dwu8kywjwabqj",11,"103.csv","","null","resources/maskTrios/L2BB.jpg","null","",NA,NA,NA,NA,""
"image-keyboard-response",232,302484,"0.0-3.73-2.73","q3dwu8kywjwabqj",11,"103.csv","","null","resources/images/fishbone.png","null","",NA,NA,NA,NA,""
"image-keyboard-response",233,302825,"0.0-3.74-0.74","q3dwu8kywjwabqj",11,"103.csv","","338.29999999701977","resources/trios/L1T4A2.jpg","37","restless",0.4,0.6,0.4,0.163395078947598,"true"
"image-keyboard-response",234,303228,"0.0-3.74-1.74","q3dwu8kywjwabqj",11,"103.csv","","null","resources/maskTrios/L1BB.jpg","null","",NA,NA,NA,NA,""
"image-keyboard-response",235,304434,"0.0-3.74-2.74","q3dwu8kywjwabqj",11,"103.csv","","null","resources/images/coin2.png","null","",NA,NA,NA,NA,""
"image-keyboard-response",236,304732,"0.0-3.75-0.75","q3dwu8kywjwabqj",11,"103.csv","","296.19999999552965","resources/trios/L1T4A1.jpg","39","restless",0.4,0.5,0.4,0.505986998507934,"false"
"image-keyboard-response",237,305138,"0.0-3.75-1.75","q3dwu8kywjwabqj",11,"103.csv","","null","resources/maskTrios/BBA1.jpg","null","",NA,NA,NA,NA,""
"image-keyboard-response",238,306340,"0.0-3.75-2.75","q3dwu8kywjwabqj",11,"103.csv","","null","resources/images/fishbone.png","null","",NA,NA,NA,NA,""
"image-keyboard-response",239,306619,"0.0-3.76-0.76","q3dwu8kywjwabqj",11,"103.csv","","277.70000000298023","resources/trios/L2T1A2.jpg","38","restless",0.4,0.5,0.4,0.449484734781584,"true"
"image-keyboard-response",240,307026,"0.0-3.76-1.76","q3dwu8kywjwabqj",11,"103.csv","","null","resources/maskTrios/BT1B.jpg","null","",NA,NA,NA,NA,""
"image-keyboard-response",241,308229,"0.0-3.76-2.76","q3dwu8kywjwabqj",11,"103.csv","","null","resources/images/coin2.png","null","",NA,NA,NA,NA,""
"image-keyboard-response",242,308631,"0.0-3.77-0.77","q3dwu8kywjwabqj",11,"103.csv","","400.19999999552965","resources/trios/L2T4A1.jpg","37","restless",0.4,0.6,0.4,0.0538274955890932,"true"
"image-keyboard-response",243,309038,"0.0-3.77-1.77","q3dwu8kywjwabqj",11,"103.csv","","null","resources/maskTrios/L2BB.jpg","null","",NA,NA,NA,NA,""
"image-keyboard-response",244,310242,"0.0-3.77-2.77","q3dwu8kywjwabqj",11,"103.csv","","null","resources/images/coin2.png","null","",NA,NA,NA,NA,""
"image-keyboard-response",245,310566,"0.0-3.78-0.78","q3dwu8kywjwabqj",11,"103.csv","","322","resources/trios/L2T1A1.jpg","39","restless",0.4,0.6,0.4,0.452389548272219,"false"
"image-keyboard-response",246,310968,"0.0-3.78-1.78","q3dwu8kywjwabqj",11,"103.csv","","null","resources/maskTrios/BBA1.jpg","null","",NA,NA,NA,NA,""
"image-keyboard-response",247,312172,"0.0-3.78-2.78","q3dwu8kywjwabqj",11,"103.csv","","null","resources/images/fishbone.png","null","",NA,NA,NA,NA,""
"image-keyboard-response",248,314118,"0.0-3.79-0.79","q3dwu8kywjwabqj",11,"103.csv","","1943.5","resources/trios/L2T1A1.jpg","37","restless",0.4,0.6,0.4,0.220486955467956,"true"
"image-keyboard-response",249,314524,"0.0-3.79-1.79","q3dwu8kywjwabqj",11,"103.csv","","null","resources/maskTrios/L2BB.jpg","null","",NA,NA,NA,NA,""
"image-keyboard-response",250,315730,"0.0-3.79-2.79","q3dwu8kywjwabqj",11,"103.csv","","null","resources/images/coin2.png","null","",NA,NA,NA,NA,""
"image-keyboard-response",251,316552,"0.0-3.80-0.80","q3dwu8kywjwabqj",11,"103.csv","","819.6999999955297","resources/trios/L2T1A1.jpg","39","restless",0.4,0.6,0.4,0.376781426702195,"true"
"image-keyboard-response",252,316955,"0.0-3.80-1.80","q3dwu8kywjwabqj",11,"103.csv","","null","resources/maskTrios/BBA1.jpg","null","",NA,NA,NA,NA,""
"image-keyboard-response",253,318158,"0.0-3.80-2.80","q3dwu8kywjwabqj",11,"103.csv","","null","resources/images/coin2.png","null","",NA,NA,NA,NA,""
"image-keyboard-response",254,318447,"0.0-3.81-0.81","q3dwu8kywjwabqj",11,"103.csv","","287","resources/trios/L1T1A2.jpg","38","restless",0.4,0.6,0.5,0.412302418452614,"true"
"image-keyboard-response",255,318852,"0.0-3.81-1.81","q3dwu8kywjwabqj",11,"103.csv","","null","resources/maskTrios/BT1B.jpg","null","",NA,NA,NA,NA,""
"image-keyboard-response",256,320059,"0.0-3.81-2.81","q3dwu8kywjwabqj",11,"103.csv","","null","resources/images/coin2.png","null","",NA,NA,NA,NA,""
"image-keyboard-response",257,320389,"0.0-3.82-0.82","q3dwu8kywjwabqj",11,"103.csv","","327.90000000596046","resources/trios/L1T4A1.jpg","37","restless",0.4,0.6,0.5,0.735473266729938,"false"
"image-keyboard-response",258,320795,"0.0-3.82-1.82","q3dwu8kywjwabqj",11,"103.csv","","null","resources/maskTrios/L1BB.jpg","null","",NA,NA,NA,NA,""
"image-keyboard-response",259,321998,"0.0-3.82-2.82","q3dwu8kywjwabqj",11,"103.csv","","null","resources/images/fishbone.png","null","",NA,NA,NA,NA,""
"image-keyboard-response",260,322499,"0.0-3.83-0.83","q3dwu8kywjwabqj",11,"103.csv","","499.20000000298023","resources/trios/L2T4A2.jpg","39","restless",0.4,0.6,0.5,0.988507723943588,"false"
"image-keyboard-response",261,322907,"0.0-3.83-1.83","q3dwu8kywjwabqj",11,"103.csv","","null","resources/maskTrios/BBA2.jpg","null","",NA,NA,NA,NA,""
"image-keyboard-response",262,324113,"0.0-3.83-2.83","q3dwu8kywjwabqj",11,"103.csv","","null","resources/images/fishbone.png","null","",NA,NA,NA,NA,""
"image-keyboard-response",263,324725,"0.0-3.84-0.84","q3dwu8kywjwabqj",11,"103.csv","","609.7999999970198","resources/trios/L2T4A1.jpg","38","restless",0.3,0.6,0.5,0.0503346199598211,"true"
"image-keyboard-response",264,325132,"0.0-3.84-1.84","q3dwu8kywjwabqj",11,"103.csv","","null","resources/maskTrios/BT4B.jpg","null","",NA,NA,NA,NA,""
"image-keyboard-response",265,326337,"0.0-3.84-2.84","q3dwu8kywjwabqj",11,"103.csv","","null","resources/images/coin2.png","null","",NA,NA,NA,NA,""
"image-keyboard-response",266,328007,"0.0-3.85-0.85","q3dwu8kywjwabqj",11,"103.csv","","1668.7999999970198","resources/trios/L1T4A1.jpg","39","restless",0.3,0.6,0.5,0.311683229356701,"true"
"image-keyboard-response",267,328409,"0.0-3.85-1.85","q3dwu8kywjwabqj",11,"103.csv","","null","resources/maskTrios/BBA1.jpg","null","",NA,NA,NA,NA,""
"image-keyboard-response",268,329616,"0.0-3.85-2.85","q3dwu8kywjwabqj",11,"103.csv","","null","resources/images/coin2.png","null","",NA,NA,NA,NA,""
"image-keyboard-response",269,330498,"0.0-3.86-0.86","q3dwu8kywjwabqj",11,"103.csv","","880.2999999970198","resources/trios/L2T1A1.jpg","37","restless",0.3,0.6,0.4,0.982050210581439,"false"
"image-keyboard-response",270,330902,"0.0-3.86-1.86","q3dwu8kywjwabqj",11,"103.csv","","null","resources/maskTrios/L2BB.jpg","null","",NA,NA,NA,NA,""
"image-keyboard-response",271,332107,"0.0-3.86-2.86","q3dwu8kywjwabqj",11,"103.csv","","null","resources/images/fishbone.png","null","",NA,NA,NA,NA,""
"image-keyboard-response",272,332478,"0.0-3.87-0.87","q3dwu8kywjwabqj",11,"103.csv","","369.20000000298023","resources/trios/L2T1A1.jpg","38","restless",0.3,0.6,0.4,0.949667213576341,"false"
"image-keyboard-response",273,332881,"0.0-3.87-1.87","q3dwu8kywjwabqj",11,"103.csv","","null","resources/maskTrios/BT1B.jpg","null","",NA,NA,NA,NA,""
"image-keyboard-response",274,334086,"0.0-3.87-2.87","q3dwu8kywjwabqj",11,"103.csv","","null","resources/images/fishbone.png","null","",NA,NA,NA,NA,""
"image-keyboard-response",275,334751,"0.0-3.88-0.88","q3dwu8kywjwabqj",11,"103.csv","","663.6000000014901","resources/trios/L2T4A2.jpg","39","restless",0.3,0.6,0.4,0.890384390195914,"false"
"image-keyboard-response",276,335158,"0.0-3.88-1.88","q3dwu8kywjwabqj",11,"103.csv","","null","resources/maskTrios/BBA2.jpg","null","",NA,NA,NA,NA,""
"image-keyboard-response",277,336360,"0.0-3.88-2.88","q3dwu8kywjwabqj",11,"103.csv","","null","resources/images/fishbone.png","null","",NA,NA,NA,NA,""
"image-keyboard-response",278,337688,"0.0-3.89-0.89","q3dwu8kywjwabqj",11,"103.csv","","1325.7000000029802","resources/trios/L1T1A1.jpg","37","restless",0.3,0.6,0.4,0.573650607238997,"false"
"image-keyboard-response",279,338093,"0.0-3.89-1.89","q3dwu8kywjwabqj",11,"103.csv","","null","resources/maskTrios/L1BB.jpg","null","",NA,NA,NA,NA,""
"image-keyboard-response",280,339298,"0.0-3.89-2.89","q3dwu8kywjwabqj",11,"103.csv","","null","resources/images/fishbone.png","null","",NA,NA,NA,NA,""
"image-keyboard-response",281,340188,"0.0-3.90-0.90","q3dwu8kywjwabqj",11,"103.csv","","888.8999999985099","resources/trios/L2T1A2.jpg","38","restless",0.3,0.6,0.4,0.865381546114793,"false"
"image-keyboard-response",282,340591,"0.0-3.90-1.90","q3dwu8kywjwabqj",11,"103.csv","","null","resources/maskTrios/BT1B.jpg","null","",NA,NA,NA,NA,""
"image-keyboard-response",283,341795,"0.0-3.90-2.90","q3dwu8kywjwabqj",11,"103.csv","","null","resources/images/fishbone.png","null","",NA,NA,NA,NA,""
"image-keyboard-response",284,345294,"0.0-3.91-0.91","q3dwu8kywjwabqj",11,"103.csv","","3497.89999999851","resources/trios/L2T1A2.jpg","39","restless",0.3,0.5,0.4,0.880006419258524,"false"
"image-keyboard-response",285,345695,"0.0-3.91-1.91","q3dwu8kywjwabqj",11,"103.csv","","null","resources/maskTrios/BBA2.jpg","null","",NA,NA,NA,NA,""
"image-keyboard-response",286,346899,"0.0-3.91-2.91","q3dwu8kywjwabqj",11,"103.csv","","null","resources/images/fishbone.png","null","",NA,NA,NA,NA,""
"image-keyboard-response",287,349682,"0.0-3.92-0.92","q3dwu8kywjwabqj",11,"103.csv","","2780.6999999955297","resources/trios/L1T4A1.jpg","39","restless",0.3,0.5,0.4,0.428517067185617,"false"
"image-keyboard-response",288,350083,"0.0-3.92-1.92","q3dwu8kywjwabqj",11,"103.csv","","null","resources/maskTrios/BBA1.jpg","null","",NA,NA,NA,NA,""
"image-keyboard-response",289,351286,"0.0-3.92-2.92","q3dwu8kywjwabqj",11,"103.csv","","null","resources/images/fishbone.png","null","",NA,NA,NA,NA,""
"image-keyboard-response",290,351991,"0.0-3.93-0.93","q3dwu8kywjwabqj",11,"103.csv","","703.2999999970198","resources/trios/L1T1A1.jpg","37","restless",0.3,0.5,0.4,0.436855481850627,"false"
"image-keyboard-response",291,352392,"0.0-3.93-1.93","q3dwu8kywjwabqj",11,"103.csv","","null","resources/maskTrios/L1BB.jpg","null","",NA,NA,NA,NA,""
"image-keyboard-response",292,353596,"0.0-3.93-2.93","q3dwu8kywjwabqj",11,"103.csv","","null","resources/images/fishbone.png","null","",NA,NA,NA,NA,""
"image-keyboard-response",293,354162,"0.0-3.94-0.94","q3dwu8kywjwabqj",11,"103.csv","","564.3999999985099","resources/trios/L1T1A2.jpg","38","restless",0.3,0.5,0.4,0.599797801754848,"false"
"image-keyboard-response",294,354563,"0.0-3.94-1.94","q3dwu8kywjwabqj",11,"103.csv","","null","resources/maskTrios/BT1B.jpg","null","",NA,NA,NA,NA,""
"image-keyboard-response",295,355765,"0.0-3.94-2.94","q3dwu8kywjwabqj",11,"103.csv","","null","resources/images/fishbone.png","null","",NA,NA,NA,NA,""
"image-keyboard-response",296,357386,"0.0-3.95-0.95","q3dwu8kywjwabqj",11,"103.csv","","1619.2999999970198","resources/trios/L1T1A2.jpg","37","restless",0.3,0.5,0.4,0.611390982202401,"false"
"image-keyboard-response",297,357793,"0.0-3.95-1.95","q3dwu8kywjwabqj",11,"103.csv","","null","resources/maskTrios/L1BB.jpg","null","",NA,NA,NA,NA,""
"image-keyboard-response",298,358996,"0.0-3.95-2.95","q3dwu8kywjwabqj",11,"103.csv","","null","resources/images/fishbone.png","null","",NA,NA,NA,NA,""
"image-keyboard-response",299,361880,"0.0-3.96-0.96","q3dwu8kywjwabqj",11,"103.csv","","2882.2999999970198","resources/trios/L2T1A2.jpg","37","restless",0.3,0.5,0.4,0.818884074990031,"false"
"image-keyboard-response",300,362282,"0.0-3.96-1.96","q3dwu8kywjwabqj",11,"103.csv","","null","resources/maskTrios/L2BB.jpg","null","",NA,NA,NA,NA,""
"image-keyboard-response",301,363484,"0.0-3.96-2.96","q3dwu8kywjwabqj",11,"103.csv","","null","resources/images/fishbone.png","null","",NA,NA,NA,NA,""
"image-keyboard-response",302,363762,"0.0-3.97-0.97","q3dwu8kywjwabqj",11,"103.csv","","276.30000000447035","resources/trios/L1T4A2.jpg","37","restless",0.2,0.5,0.4,0.218329418646087,"false"
"image-keyboard-response",303,364168,"0.0-3.97-1.97","q3dwu8kywjwabqj",11,"103.csv","","null","resources/maskTrios/L1BB.jpg","null","",NA,NA,NA,NA,""
"image-keyboard-response",304,365372,"0.0-3.97-2.97","q3dwu8kywjwabqj",11,"103.csv","","null","resources/images/fishbone.png","null","",NA,NA,NA,NA,""
"image-keyboard-response",305,366436,"0.0-3.98-0.98","q3dwu8kywjwabqj",11,"103.csv","","1061.1000000014901","resources/trios/L2T1A1.jpg","38","restless",0.3,0.5,0.4,0.432844120786268,"true"
"image-keyboard-response",306,366842,"0.0-3.98-1.98","q3dwu8kywjwabqj",11,"103.csv","","null","resources/maskTrios/BT1B.jpg","null","",NA,NA,NA,NA,""
"image-keyboard-response",307,368046,"0.0-3.98-2.98","q3dwu8kywjwabqj",11,"103.csv","","null","resources/images/coin2.png","null","",NA,NA,NA,NA,""
"image-keyboard-response",308,376505,"0.0-3.99-0.99","q3dwu8kywjwabqj",11,"103.csv","","8457","resources/trios/L2T1A2.jpg","37","restless",0.3,0.5,0.4,0.0275479151192404,"true"
"image-keyboard-response",309,376912,"0.0-3.99-1.99","q3dwu8kywjwabqj",11,"103.csv","","null","resources/maskTrios/L2BB.jpg","null","",NA,NA,NA,NA,""
"image-keyboard-response",310,378113,"0.0-3.99-2.99","q3dwu8kywjwabqj",11,"103.csv","","null","resources/images/coin2.png","null","",NA,NA,NA,NA,""
"image-keyboard-response",311,378564,"0.0-3.100-0.100","q3dwu8kywjwabqj",11,"103.csv","","448","resources/trios/L2T4A2.jpg","37","restless",0.4,0.5,0.4,0.123612587722949,"true"
"image-keyboard-response",312,378966,"0.0-3.100-1.100","q3dwu8kywjwabqj",11,"103.csv","","null","resources/maskTrios/L2BB.jpg","null","",NA,NA,NA,NA,""
"image-keyboard-response",313,380169,"0.0-3.100-2.100","q3dwu8kywjwabqj",11,"103.csv","","null","resources/images/coin2.png","null","",NA,NA,NA,NA,""
"image-keyboard-response",314,380597,"0.0-3.101-0.101","q3dwu8kywjwabqj",11,"103.csv","","426","resources/trios/L2T4A1.jpg","37","restless",0.5,0.5,0.4,0.444954966909704,"true"
"image-keyboard-response",315,381003,"0.0-3.101-1.101","q3dwu8kywjwabqj",11,"103.csv","","null","resources/maskTrios/L2BB.jpg","null","",NA,NA,NA,NA,""
"image-keyboard-response",316,382208,"0.0-3.101-2.101","q3dwu8kywjwabqj",11,"103.csv","","null","resources/images/coin2.png","null","",NA,NA,NA,NA,""
"image-keyboard-response",317,382965,"0.0-3.102-0.102","q3dwu8kywjwabqj",11,"103.csv","","755.7000000029802","resources/trios/L2T1A1.jpg","37","restless",0.6,0.5,0.4,0.217461674306261,"true"
"image-keyboard-response",318,383373,"0.0-3.102-1.102","q3dwu8kywjwabqj",11,"103.csv","","null","resources/maskTrios/L2BB.jpg","null","",NA,NA,NA,NA,""
"image-keyboard-response",319,384580,"0.0-3.102-2.102","q3dwu8kywjwabqj",11,"103.csv","","null","resources/images/coin2.png","null","",NA,NA,NA,NA,""
"image-keyboard-response",320,386112,"0.0-3.103-0.103","q3dwu8kywjwabqj",11,"103.csv","","1530.7999999970198","resources/trios/L2T1A2.jpg","37","restless",0.6,0.5,0.3,0.498663372844817,"true"
"image-keyboard-response",321,386514,"0.0-3.103-1.103","q3dwu8kywjwabqj",11,"103.csv","","null","resources/maskTrios/L2BB.jpg","null","",NA,NA,NA,NA,""
"image-keyboard-response",322,387717,"0.0-3.103-2.103","q3dwu8kywjwabqj",11,"103.csv","","null","resources/images/coin2.png","null","",NA,NA,NA,NA,""
"image-keyboard-response",323,388228,"0.0-3.104-0.104","q3dwu8kywjwabqj",11,"103.csv","","509.19999999552965","resources/trios/L1T4A2.jpg","37","restless",0.6,0.5,0.2,0.470717323025291,"true"
"image-keyboard-response",324,388631,"0.0-3.104-1.104","q3dwu8kywjwabqj",11,"103.csv","","null","resources/maskTrios/L1BB.jpg","null","",NA,NA,NA,NA,""
"image-keyboard-response",325,389837,"0.0-3.104-2.104","q3dwu8kywjwabqj",11,"103.csv","","null","resources/images/coin2.png","null","",NA,NA,NA,NA,""
"image-keyboard-response",326,390377,"0.0-3.105-0.105","q3dwu8kywjwabqj",11,"103.csv","","537.6000000014901","resources/trios/L1T4A2.jpg","37","restless",0.6,0.5,0.2,0.264430074549152,"true"
"image-keyboard-response",327,390784,"0.0-3.105-1.105","q3dwu8kywjwabqj",11,"103.csv","","null","resources/maskTrios/L1BB.jpg","null","",NA,NA,NA,NA,""
"image-keyboard-response",328,391990,"0.0-3.105-2.105","q3dwu8kywjwabqj",11,"103.csv","","null","resources/images/coin2.png","null","",NA,NA,NA,NA,""
"image-keyboard-response",329,392500,"0.0-3.106-0.106","q3dwu8kywjwabqj",11,"103.csv","","507.79999999701977","resources/trios/L2T4A1.jpg","37","restless",0.6,0.5,0.2,0.107322444373302,"true"
"image-keyboard-response",330,392906,"0.0-3.106-1.106","q3dwu8kywjwabqj",11,"103.csv","","null","resources/maskTrios/L2BB.jpg","null","",NA,NA,NA,NA,""
"image-keyboard-response",331,394111,"0.0-3.106-2.106","q3dwu8kywjwabqj",11,"103.csv","","null","resources/images/coin2.png","null","",NA,NA,NA,NA,""
"image-keyboard-response",332,394640,"0.0-3.107-0.107","q3dwu8kywjwabqj",11,"103.csv","","527.2999999970198","resources/trios/L2T1A1.jpg","37","restless",0.7,0.5,0.2,0.506069591153552,"true"
"image-keyboard-response",333,395047,"0.0-3.107-1.107","q3dwu8kywjwabqj",11,"103.csv","","null","resources/maskTrios/L2BB.jpg","null","",NA,NA,NA,NA,""
"image-keyboard-response",334,396254,"0.0-3.107-2.107","q3dwu8kywjwabqj",11,"103.csv","","null","resources/images/coin2.png","null","",NA,NA,NA,NA,""
"image-keyboard-response",335,396687,"0.0-3.108-0.108","q3dwu8kywjwabqj",11,"103.csv","","431","resources/trios/L1T4A1.jpg","37","restless",0.7,0.5,0.2,0.137864893275272,"true"
"image-keyboard-response",336,397090,"0.0-3.108-1.108","q3dwu8kywjwabqj",11,"103.csv","","null","resources/maskTrios/L1BB.jpg","null","",NA,NA,NA,NA,""
"image-keyboard-response",337,398293,"0.0-3.108-2.108","q3dwu8kywjwabqj",11,"103.csv","","null","resources/images/coin2.png","null","",NA,NA,NA,NA,""
"image-keyboard-response",338,398619,"0.0-3.109-0.109","q3dwu8kywjwabqj",11,"103.csv","","324.29999999701977","resources/trios/L1T4A2.jpg","37","restless",0.7,0.5,0.2,0.53298684263391,"true"
"image-keyboard-response",339,399023,"0.0-3.109-1.109","q3dwu8kywjwabqj",11,"103.csv","","null","resources/maskTrios/L1BB.jpg","null","",NA,NA,NA,NA,""
"image-keyboard-response",340,400225,"0.0-3.109-2.109","q3dwu8kywjwabqj",11,"103.csv","","null","resources/images/coin2.png","null","",NA,NA,NA,NA,""
"image-keyboard-response",341,400557,"0.0-3.110-0.110","q3dwu8kywjwabqj",11,"103.csv","","330.5","resources/trios/L1T1A1.jpg","37","restless",0.7,0.5,0.2,0.0712336199785388,"true"
"image-keyboard-response",342,400964,"0.0-3.110-1.110","q3dwu8kywjwabqj",11,"103.csv","","null","resources/maskTrios/L1BB.jpg","null","",NA,NA,NA,NA,""
"image-keyboard-response",343,402171,"0.0-3.110-2.110","q3dwu8kywjwabqj",11,"103.csv","","null","resources/images/coin2.png","null","",NA,NA,NA,NA,""
"image-keyboard-response",344,402506,"0.0-3.111-0.111","q3dwu8kywjwabqj",11,"103.csv","","333.29999999701977","resources/trios/L2T4A1.jpg","37","restless",0.7,0.5,0.2,0.878216548363242,"false"
"image-keyboard-response",345,402914,"0.0-3.111-1.111","q3dwu8kywjwabqj",11,"103.csv","","null","resources/maskTrios/L2BB.jpg","null","",NA,NA,NA,NA,""
"image-keyboard-response",346,404120,"0.0-3.111-2.111","q3dwu8kywjwabqj",11,"103.csv","","null","resources/images/fishbone.png","null","",NA,NA,NA,NA,""
"image-keyboard-response",347,404496,"0.0-3.112-0.112","q3dwu8kywjwabqj",11,"103.csv","","374.69999999552965","resources/trios/L1T1A2.jpg","39","restless",0.7,0.5,0.2,0.497727013390357,"false"
"image-keyboard-response",348,404898,"0.0-3.112-1.112","q3dwu8kywjwabqj",11,"103.csv","","null","resources/maskTrios/BBA2.jpg","null","",NA,NA,NA,NA,""
"image-keyboard-response",349,406099,"0.0-3.112-2.112","q3dwu8kywjwabqj",11,"103.csv","","null","resources/images/fishbone.png","null","",NA,NA,NA,NA,""
"image-keyboard-response",350,406525,"0.0-3.113-0.113","q3dwu8kywjwabqj",11,"103.csv","","424.59999999403954","resources/trios/L1T1A1.jpg","38","restless",0.7,0.5,0.2,0.321449431032411,"true"
"image-keyboard-response",351,406929,"0.0-3.113-1.113","q3dwu8kywjwabqj",11,"103.csv","","null","resources/maskTrios/BT1B.jpg","null","",NA,NA,NA,NA,""
"image-keyboard-response",352,408131,"0.0-3.113-2.113","q3dwu8kywjwabqj",11,"103.csv","","null","resources/images/coin2.png","null","",NA,NA,NA,NA,""
"image-keyboard-response",353,408525,"0.0-3.114-0.114","q3dwu8kywjwabqj",11,"103.csv","","393.29999999701977","resources/trios/L2T4A1.jpg","38","restless",0.8,0.5,0.2,0.204735975455887,"true"
"image-keyboard-response",354,408928,"0.0-3.114-1.114","q3dwu8kywjwabqj",11,"103.csv","","null","resources/maskTrios/BT4B.jpg","null","",NA,NA,NA,NA,""
"image-keyboard-response",355,410136,"0.0-3.114-2.114","q3dwu8kywjwabqj",11,"103.csv","","null","resources/images/coin2.png","null","",NA,NA,NA,NA,""
"image-keyboard-response",356,410532,"0.0-3.115-0.115","q3dwu8kywjwabqj",11,"103.csv","","394.1000000014901","resources/trios/L1T1A2.jpg","38","restless",0.8,0.5,0.2,0.84164710982553,"false"
"image-keyboard-response",357,410939,"0.0-3.115-1.115","q3dwu8kywjwabqj",11,"103.csv","","null","resources/maskTrios/BT1B.jpg","null","",NA,NA,NA,NA,""
"image-keyboard-response",358,412145,"0.0-3.115-2.115","q3dwu8kywjwabqj",11,"103.csv","","null","resources/images/fishbone.png","null","",NA,NA,NA,NA,""
"image-keyboard-response",359,412569,"0.0-3.116-0.116","q3dwu8kywjwabqj",11,"103.csv","","422.09999999403954","resources/trios/L1T4A2.jpg","39","restless",0.8,0.5,0.1,0.183262836496895,"false"
"image-keyboard-response",360,412975,"0.0-3.116-1.116","q3dwu8kywjwabqj",11,"103.csv","","null","resources/maskTrios/BBA2.jpg","null","",NA,NA,NA,NA,""
"image-keyboard-response",361,414181,"0.0-3.116-2.116","q3dwu8kywjwabqj",11,"103.csv","","null","resources/images/fishbone.png","null","",NA,NA,NA,NA,""
"image-keyboard-response",362,415087,"0.0-3.117-0.117","q3dwu8kywjwabqj",11,"103.csv","","903.6999999955297","resources/trios/L2T4A1.jpg","39","restless",0.7,0.5,0.1,0.435504183445709,"false"
"image-keyboard-response",363,415493,"0.0-3.117-1.117","q3dwu8kywjwabqj",11,"103.csv","","null","resources/maskTrios/BBA1.jpg","null","",NA,NA,NA,NA,""
"image-keyboard-response",364,416700,"0.0-3.117-2.117","q3dwu8kywjwabqj",11,"103.csv","","null","resources/images/fishbone.png","null","",NA,NA,NA,NA,""
"image-keyboard-response",365,417034,"0.0-3.118-0.118","q3dwu8kywjwabqj",11,"103.csv","","333.1000000014901","resources/trios/L1T1A1.jpg","37","restless",0.7,0.5,0.1,0.631594144602814,"true"
"image-keyboard-response",366,417441,"0.0-3.118-1.118","q3dwu8kywjwabqj",11,"103.csv","","null","resources/maskTrios/L1BB.jpg","null","",NA,NA,NA,NA,""
"image-keyboard-response",367,418643,"0.0-3.118-2.118","q3dwu8kywjwabqj",11,"103.csv","","null","resources/images/coin2.png","null","",NA,NA,NA,NA,""
"image-keyboard-response",368,418981,"0.0-3.119-0.119","q3dwu8kywjwabqj",11,"103.csv","","335.80000000447035","resources/trios/L1T4A2.jpg","37","restless",0.7,0.5,0.1,0.06479282996725,"true"
"image-keyboard-response",369,419388,"0.0-3.119-1.119","q3dwu8kywjwabqj",11,"103.csv","","null","resources/maskTrios/L1BB.jpg","null","",NA,NA,NA,NA,""
"image-keyboard-response",370,420594,"0.0-3.119-2.119","q3dwu8kywjwabqj",11,"103.csv","","null","resources/images/coin2.png","null","",NA,NA,NA,NA,""
"image-keyboard-response",371,420964,"0.0-3.120-0.120","q3dwu8kywjwabqj",11,"103.csv","","368.29999999701977","resources/trios/L1T4A2.jpg","37","restless",0.7,0.5,0.1,0.419861128538769,"true"
"image-keyboard-response",372,421367,"0.0-3.120-1.120","q3dwu8kywjwabqj",11,"103.csv","","null","resources/maskTrios/L1BB.jpg","null","",NA,NA,NA,NA,""
"image-keyboard-response",373,422570,"0.0-3.120-2.120","q3dwu8kywjwabqj",11,"103.csv","","null","resources/images/coin2.png","null","",NA,NA,NA,NA,""
"image-keyboard-response",374,422957,"0.0-3.121-0.121","q3dwu8kywjwabqj",11,"103.csv","","385.6000000014901","resources/trios/L2T4A1.jpg","37","restless",0.7,0.5,0.1,0.408985811677619,"true"
"image-keyboard-response",375,423359,"0.0-3.121-1.121","q3dwu8kywjwabqj",11,"103.csv","","null","resources/maskTrios/L2BB.jpg","null","",NA,NA,NA,NA,""
"image-keyboard-response",376,424563,"0.0-3.121-2.121","q3dwu8kywjwabqj",11,"103.csv","","null","resources/images/coin2.png","null","",NA,NA,NA,NA,""
"image-keyboard-response",377,425044,"0.0-3.122-0.122","q3dwu8kywjwabqj",11,"103.csv","","479.5","resources/trios/L1T1A2.jpg","37","restless",0.7,0.5,0.1,0.663569520954144,"true"
"image-keyboard-response",378,425450,"0.0-3.122-1.122","q3dwu8kywjwabqj",11,"103.csv","","null","resources/maskTrios/L1BB.jpg","null","",NA,NA,NA,NA,""
"image-keyboard-response",379,426657,"0.0-3.122-2.122","q3dwu8kywjwabqj",11,"103.csv","","null","resources/images/coin2.png","null","",NA,NA,NA,NA,""
"image-keyboard-response",380,427142,"0.0-3.123-0.123","q3dwu8kywjwabqj",11,"103.csv","","483","resources/trios/L1T4A1.jpg","37","restless",0.7,0.5,0.1,0.798059741689233,"false"
"image-keyboard-response",381,427546,"0.0-3.123-1.123","q3dwu8kywjwabqj",11,"103.csv","","null","resources/maskTrios/L1BB.jpg","null","",NA,NA,NA,NA,""
"image-keyboard-response",382,428747,"0.0-3.123-2.123","q3dwu8kywjwabqj",11,"103.csv","","null","resources/images/fishbone.png","null","",NA,NA,NA,NA,""
"image-keyboard-response",383,429256,"0.0-3.124-0.124","q3dwu8kywjwabqj",11,"103.csv","","506.70000000298023","resources/trios/L1T4A2.jpg","39","restless",0.7,0.4,0.1,0.136160361189052,"false"
"image-keyboard-response",384,429658,"0.0-3.124-1.124","q3dwu8kywjwabqj",11,"103.csv","","null","resources/maskTrios/BBA2.jpg","null","",NA,NA,NA,NA,""
"image-keyboard-response",385,430863,"0.0-3.124-2.124","q3dwu8kywjwabqj",11,"103.csv","","null","resources/images/fishbone.png","null","",NA,NA,NA,NA,""
"image-keyboard-response",386,431262,"0.0-3.125-0.125","q3dwu8kywjwabqj",11,"103.csv","","396.69999999552965","resources/trios/L1T4A1.jpg","39","restless",0.7,0.4,0.1,0.314868720418325,"false"
"image-keyboard-response",387,431669,"0.0-3.125-1.125","q3dwu8kywjwabqj",11,"103.csv","","null","resources/maskTrios/BBA1.jpg","null","",NA,NA,NA,NA,""
"image-keyboard-response",388,432871,"0.0-3.125-2.125","q3dwu8kywjwabqj",11,"103.csv","","null","resources/images/fishbone.png","null","",NA,NA,NA,NA,""
"image-keyboard-response",389,433259,"0.0-3.126-0.126","q3dwu8kywjwabqj",11,"103.csv","","387","resources/trios/L2T4A1.jpg","38","restless",0.7,0.4,0.1,0.866358893751618,"false"
"image-keyboard-response",390,433666,"0.0-3.126-1.126","q3dwu8kywjwabqj",11,"103.csv","","null","resources/maskTrios/BT4B.jpg","null","",NA,NA,NA,NA,""
"image-keyboard-response",391,434870,"0.0-3.126-2.126","q3dwu8kywjwabqj",11,"103.csv","","null","resources/images/fishbone.png","null","",NA,NA,NA,NA,""
"image-keyboard-response",392,435213,"0.0-3.127-0.127","q3dwu8kywjwabqj",11,"103.csv","","341.30000000447035","resources/trios/L2T1A2.jpg","37","restless",0.7,0.4,0.1,0.358850868286621,"true"
"image-keyboard-response",393,435615,"0.0-3.127-1.127","q3dwu8kywjwabqj",11,"103.csv","","null","resources/maskTrios/L2BB.jpg","null","",NA,NA,NA,NA,""
"image-keyboard-response",394,436818,"0.0-3.127-2.127","q3dwu8kywjwabqj",11,"103.csv","","null","resources/images/coin2.png","null","",NA,NA,NA,NA,""
"image-keyboard-response",395,438592,"0.0-3.128-0.128","q3dwu8kywjwabqj",11,"103.csv","","1772.2999999970198","resources/trios/L2T4A1.jpg","37","restless",0.7,0.4,0.1,0.947382225237029,"false"
"image-keyboard-response",396,438993,"0.0-3.128-1.128","q3dwu8kywjwabqj",11,"103.csv","","null","resources/maskTrios/L2BB.jpg","null","",NA,NA,NA,NA,""
"image-keyboard-response",397,440195,"0.0-3.128-2.128","q3dwu8kywjwabqj",11,"103.csv","","null","resources/images/fishbone.png","null","",NA,NA,NA,NA,""
"image-keyboard-response",398,440579,"0.0-3.129-0.129","q3dwu8kywjwabqj",11,"103.csv","","381.8999999985099","resources/trios/L1T1A1.jpg","39","restless",0.7,0.4,0.2,0.882299232994824,"false"
"image-keyboard-response",399,440983,"0.0-3.129-1.129","q3dwu8kywjwabqj",11,"103.csv","","null","resources/maskTrios/BBA1.jpg","null","",NA,NA,NA,NA,""
"image-keyboard-response",400,442188,"0.0-3.129-2.129","q3dwu8kywjwabqj",11,"103.csv","","null","resources/images/fishbone.png","null","",NA,NA,NA,NA,""
"image-keyboard-response",401,442615,"0.0-3.130-0.130","q3dwu8kywjwabqj",11,"103.csv","","425.6000000014901","resources/trios/L2T1A2.jpg","39","restless",0.7,0.4,0.2,0.638064924001623,"false"
"image-keyboard-response",402,443021,"0.0-3.130-1.130","q3dwu8kywjwabqj",11,"103.csv","","null","resources/maskTrios/BBA2.jpg","null","",NA,NA,NA,NA,""
"image-keyboard-response",403,444225,"0.0-3.130-2.130","q3dwu8kywjwabqj",11,"103.csv","","null","resources/images/fishbone.png","null","",NA,NA,NA,NA,""
"image-keyboard-response",404,444573,"0.0-3.131-0.131","q3dwu8kywjwabqj",11,"103.csv","","347","resources/trios/L1T4A2.jpg","38","restless",0.7,0.4,0.2,0.558090468185069,"false"
"image-keyboard-response",405,444976,"0.0-3.131-1.131","q3dwu8kywjwabqj",11,"103.csv","","null","resources/maskTrios/BT4B.jpg","null","",NA,NA,NA,NA,""
"image-keyboard-response",406,446177,"0.0-3.131-2.131","q3dwu8kywjwabqj",11,"103.csv","","null","resources/images/fishbone.png","null","",NA,NA,NA,NA,""
"image-keyboard-response",407,446557,"0.0-3.132-0.132","q3dwu8kywjwabqj",11,"103.csv","","378","resources/trios/L2T4A2.jpg","37","restless",0.7,0.4,0.2,0.596499872148198,"true"
"image-keyboard-response",408,446960,"0.0-3.132-1.132","q3dwu8kywjwabqj",11,"103.csv","","null","resources/maskTrios/L2BB.jpg","null","",NA,NA,NA,NA,""
"image-keyboard-response",409,448164,"0.0-3.132-2.132","q3dwu8kywjwabqj",11,"103.csv","","null","resources/images/coin2.png","null","",NA,NA,NA,NA,""
"image-keyboard-response",410,448511,"0.0-3.133-0.133","q3dwu8kywjwabqj",11,"103.csv","","345.3999999985099","resources/trios/L2T4A1.jpg","37","restless",0.7,0.4,0.3,0.902375678202609,"false"
"image-keyboard-response",411,448917,"0.0-3.133-1.133","q3dwu8kywjwabqj",11,"103.csv","","null","resources/maskTrios/L2BB.jpg","null","",NA,NA,NA,NA,""
"image-keyboard-response",412,450118,"0.0-3.133-2.133","q3dwu8kywjwabqj",11,"103.csv","","null","resources/images/fishbone.png","null","",NA,NA,NA,NA,""
"image-keyboard-response",413,450499,"0.0-3.134-0.134","q3dwu8kywjwabqj",11,"103.csv","","380.8999999985099","resources/trios/L1T1A2.jpg","38","restless",0.7,0.4,0.3,0.760697660678598,"false"
"image-keyboard-response",414,450905,"0.0-3.134-1.134","q3dwu8kywjwabqj",11,"103.csv","","null","resources/maskTrios/BT1B.jpg","null","",NA,NA,NA,NA,""
"image-keyboard-response",415,452106,"0.0-3.134-2.134","q3dwu8kywjwabqj",11,"103.csv","","null","resources/images/fishbone.png","null","",NA,NA,NA,NA,""
"image-keyboard-response",416,452474,"0.0-3.135-0.135","q3dwu8kywjwabqj",11,"103.csv","","366.40000000596046","resources/trios/L1T1A2.jpg","38","restless",0.7,0.4,0.3,0.237425406092817,"true"
"image-keyboard-response",417,452876,"0.0-3.135-1.135","q3dwu8kywjwabqj",11,"103.csv","","null","resources/maskTrios/BT1B.jpg","null","",NA,NA,NA,NA,""
"image-keyboard-response",418,454078,"0.0-3.135-2.135","q3dwu8kywjwabqj",11,"103.csv","","null","resources/images/coin2.png","null","",NA,NA,NA,NA,""
"image-keyboard-response",419,454599,"0.0-3.136-0.136","q3dwu8kywjwabqj",11,"103.csv","","519.6000000014901","resources/trios/L1T1A2.jpg","38","restless",0.7,0.4,0.3,0.755139796733306,"false"
"image-keyboard-response",420,455005,"0.0-3.136-1.136","q3dwu8kywjwabqj",11,"103.csv","","null","resources/maskTrios/BT1B.jpg","null","",NA,NA,NA,NA,""
"image-keyboard-response",421,456206,"0.0-3.136-2.136","q3dwu8kywjwabqj",11,"103.csv","","null","resources/images/fishbone.png","null","",NA,NA,NA,NA,""
"image-keyboard-response",422,456552,"0.0-3.137-0.137","q3dwu8kywjwabqj",11,"103.csv","","345.1000000014901","resources/trios/L1T1A1.jpg","39","restless",0.7,0.4,0.3,0.104258260046839,"true"
"image-keyboard-response",423,456956,"0.0-3.137-1.137","q3dwu8kywjwabqj",11,"103.csv","","null","resources/maskTrios/BBA1.jpg","null","",NA,NA,NA,NA,""
"image-keyboard-response",424,458158,"0.0-3.137-2.137","q3dwu8kywjwabqj",11,"103.csv","","null","resources/images/coin2.png","null","",NA,NA,NA,NA,""
"image-keyboard-response",425,458470,"0.0-3.138-0.138","q3dwu8kywjwabqj",11,"103.csv","","310.30000000447035","resources/trios/L1T4A1.jpg","39","restless",0.7,0.4,0.3,0.0846677016683739,"true"
"image-keyboard-response",426,458873,"0.0-3.138-1.138","q3dwu8kywjwabqj",11,"103.csv","","null","resources/maskTrios/BBA1.jpg","null","",NA,NA,NA,NA,""
"image-keyboard-response",427,460080,"0.0-3.138-2.138","q3dwu8kywjwabqj",11,"103.csv","","null","resources/images/coin2.png","null","",NA,NA,NA,NA,""
"image-keyboard-response",428,460418,"0.0-3.139-0.139","q3dwu8kywjwabqj",11,"103.csv","","336.19999999552965","resources/trios/L1T4A1.jpg","39","restless",0.7,0.4,0.3,0.765653365862633,"false"
"image-keyboard-response",429,460819,"0.0-3.139-1.139","q3dwu8kywjwabqj",11,"103.csv","","null","resources/maskTrios/BBA1.jpg","null","",NA,NA,NA,NA,""
"image-keyboard-response",430,462023,"0.0-3.139-2.139","q3dwu8kywjwabqj",11,"103.csv","","null","resources/images/fishbone.png","null","",NA,NA,NA,NA,""
"image-keyboard-response",431,462360,"0.0-3.140-0.140","q3dwu8kywjwabqj",11,"103.csv","","335.8999999985099","resources/trios/L1T1A1.jpg","37","restless",0.7,0.3,0.3,0.402668451450648,"true"
"image-keyboard-response",432,462762,"0.0-3.140-1.140","q3dwu8kywjwabqj",11,"103.csv","","null","resources/maskTrios/L1BB.jpg","null","",NA,NA,NA,NA,""
"image-keyboard-response",433,463964,"0.0-3.140-2.140","q3dwu8kywjwabqj",11,"103.csv","","null","resources/images/coin2.png","null","",NA,NA,NA,NA,""
"image-keyboard-response",434,464337,"0.0-3.141-0.141","q3dwu8kywjwabqj",11,"103.csv","","371","resources/trios/L1T4A1.jpg","37","restless",0.7,0.3,0.3,0.0749943559091295,"true"
"image-keyboard-response",435,464738,"0.0-3.141-1.141","q3dwu8kywjwabqj",11,"103.csv","","null","resources/maskTrios/L1BB.jpg","null","",NA,NA,NA,NA,""
"image-keyboard-response",436,465940,"0.0-3.141-2.141","q3dwu8kywjwabqj",11,"103.csv","","null","resources/images/coin2.png","null","",NA,NA,NA,NA,""
"image-keyboard-response",437,466326,"0.0-3.142-0.142","q3dwu8kywjwabqj",11,"103.csv","","384","resources/trios/L1T4A2.jpg","37","restless",0.7,0.3,0.3,0.793478351865817,"false"
"image-keyboard-response",438,466728,"0.0-3.142-1.142","q3dwu8kywjwabqj",11,"103.csv","","null","resources/maskTrios/L1BB.jpg","null","",NA,NA,NA,NA,""
"image-keyboard-response",439,467934,"0.0-3.142-2.142","q3dwu8kywjwabqj",11,"103.csv","","null","resources/images/fishbone.png","null","",NA,NA,NA,NA,""
"image-keyboard-response",440,468571,"0.0-3.143-0.143","q3dwu8kywjwabqj",11,"103.csv","","634.6000000014901","resources/trios/L1T4A1.jpg","38","restless",0.7,0.3,0.3,0.144892426063682,"true"
"image-keyboard-response",441,468974,"0.0-3.143-1.143","q3dwu8kywjwabqj",11,"103.csv","","null","resources/maskTrios/BT4B.jpg","null","",NA,NA,NA,NA,""
"image-keyboard-response",442,470176,"0.0-3.143-2.143","q3dwu8kywjwabqj",11,"103.csv","","null","resources/images/coin2.png","null","",NA,NA,NA,NA,""
"image-keyboard-response",443,470756,"0.0-3.144-0.144","q3dwu8kywjwabqj",11,"103.csv","","578.5","resources/trios/L1T1A2.jpg","38","restless",0.7,0.3,0.3,0.578967204838353,"false"
"image-keyboard-response",444,471158,"0.0-3.144-1.144","q3dwu8kywjwabqj",11,"103.csv","","null","resources/maskTrios/BT1B.jpg","null","",NA,NA,NA,NA,""
"image-keyboard-response",445,472360,"0.0-3.144-2.144","q3dwu8kywjwabqj",11,"103.csv","","null","resources/images/fishbone.png","null","",NA,NA,NA,NA,""
"image-keyboard-response",446,472752,"0.0-3.145-0.145","q3dwu8kywjwabqj",11,"103.csv","","390.69999999552965","resources/trios/L1T1A2.jpg","39","restless",0.7,0.3,0.3,0.119536374880732,"true"
"image-keyboard-response",447,473158,"0.0-3.145-1.145","q3dwu8kywjwabqj",11,"103.csv","","null","resources/maskTrios/BBA2.jpg","null","",NA,NA,NA,NA,""
"image-keyboard-response",448,474360,"0.0-3.145-2.145","q3dwu8kywjwabqj",11,"103.csv","","null","resources/images/coin2.png","null","",NA,NA,NA,NA,""
"image-keyboard-response",449,474778,"0.0-3.146-0.146","q3dwu8kywjwabqj",11,"103.csv","","416.1000000014901","resources/trios/L2T4A1.jpg","39","restless",0.7,0.3,0.3,0.148465218650151,"true"
"image-keyboard-response",450,475180,"0.0-3.146-1.146","q3dwu8kywjwabqj",11,"103.csv","","null","resources/maskTrios/BBA1.jpg","null","",NA,NA,NA,NA,""
"image-keyboard-response",451,476385,"0.0-3.146-2.146","q3dwu8kywjwabqj",11,"103.csv","","null","resources/images/coin2.png","null","",NA,NA,NA,NA,""
"image-keyboard-response",452,476765,"0.0-3.147-0.147","q3dwu8kywjwabqj",11,"103.csv","","378.20000000298023","resources/trios/L2T1A2.jpg","39","restless",0.7,0.3,0.3,0.804468649174421,"false"
"image-keyboard-response",453,477166,"0.0-3.147-1.147","q3dwu8kywjwabqj",11,"103.csv","","null","resources/maskTrios/BBA2.jpg","null","",NA,NA,NA,NA,""
"image-keyboard-response",454,478368,"0.0-3.147-2.147","q3dwu8kywjwabqj",11,"103.csv","","null","resources/images/fishbone.png","null","",NA,NA,NA,NA,""
"image-keyboard-response",455,478518,"0.0-3.148-0.148","q3dwu8kywjwabqj",11,"103.csv","","148.20000000298023","resources/trios/L2T1A2.jpg","37","restless",0.6,0.3,0.3,0.456807722242476,"true"
"image-keyboard-response",456,478922,"0.0-3.148-1.148","q3dwu8kywjwabqj",11,"103.csv","","null","resources/maskTrios/L2BB.jpg","null","",NA,NA,NA,NA,""
"image-keyboard-response",457,480124,"0.0-3.148-2.148","q3dwu8kywjwabqj",11,"103.csv","","null","resources/images/coin2.png","null","",NA,NA,NA,NA,""
"image-keyboard-response",458,480449,"0.0-3.149-0.149","q3dwu8kywjwabqj",11,"103.csv","","322.69999999552965","resources/trios/L2T4A1.jpg","37","restless",0.7,0.4,0.3,0.499358260757367,"true"
"image-keyboard-response",459,480852,"0.0-3.149-1.149","q3dwu8kywjwabqj",11,"103.csv","","null","resources/maskTrios/L2BB.jpg","null","",NA,NA,NA,NA,""
"image-keyboard-response",460,482055,"0.0-3.149-2.149","q3dwu8kywjwabqj",11,"103.csv","","null","resources/images/coin2.png","null","",NA,NA,NA,NA,""
"image-keyboard-response",461,482437,"0.0-3.150-0.150","q3dwu8kywjwabqj",11,"103.csv","","380.3999999985099","resources/trios/L1T1A2.jpg","37","restless",0.6,0.4,0.4,0.93492016266804,"false"
"image-keyboard-response",462,482839,"0.0-3.150-1.150","q3dwu8kywjwabqj",11,"103.csv","","null","resources/maskTrios/L1BB.jpg","null","",NA,NA,NA,NA,""
"image-keyboard-response",463,484041,"0.0-3.150-2.150","q3dwu8kywjwabqj",11,"103.csv","","null","resources/images/fishbone.png","null","",NA,NA,NA,NA,""
"image-keyboard-response",464,484346,"0.0-3.151-0.151","q3dwu8kywjwabqj",11,"103.csv","","302.3999999985099","resources/trios/L2T1A1.jpg","38","restless",0.5,0.4,0.4,0.355525052994443,"true"
"image-keyboard-response",465,484751,"0.0-3.151-1.151","q3dwu8kywjwabqj",11,"103.csv","","null","resources/maskTrios/BT1B.jpg","null","",NA,NA,NA,NA,""
"image-keyboard-response",466,485957,"0.0-3.151-2.151","q3dwu8kywjwabqj",11,"103.csv","","null","resources/images/coin2.png","null","",NA,NA,NA,NA,""
"image-keyboard-response",467,486335,"0.0-3.152-0.152","q3dwu8kywjwabqj",11,"103.csv","","376.69999999552965","resources/trios/L2T1A1.jpg","38","restless",0.5,0.4,0.3,0.946393162659782,"false"
"image-keyboard-response",468,486737,"0.0-3.152-1.152","q3dwu8kywjwabqj",11,"103.csv","","null","resources/maskTrios/BT1B.jpg","null","",NA,NA,NA,NA,""
"image-keyboard-response",469,487943,"0.0-3.152-2.152","q3dwu8kywjwabqj",11,"103.csv","","null","resources/images/fishbone.png","null","",NA,NA,NA,NA,""
"image-keyboard-response",470,488312,"0.0-3.153-0.153","q3dwu8kywjwabqj",11,"103.csv","","368.1000000014901","resources/trios/L2T1A2.jpg","37","restless",0.5,0.4,0.3,0.162503004845626,"true"
"image-keyboard-response",471,488718,"0.0-3.153-1.153","q3dwu8kywjwabqj",11,"103.csv","","null","resources/maskTrios/L2BB.jpg","null","",NA,NA,NA,NA,""
"image-keyboard-response",472,489920,"0.0-3.153-2.153","q3dwu8kywjwabqj",11,"103.csv","","null","resources/images/coin2.png","null","",NA,NA,NA,NA,""
"image-keyboard-response",473,490272,"0.0-3.154-0.154","q3dwu8kywjwabqj",11,"103.csv","","350.20000000298023","resources/trios/L1T4A2.jpg","37","restless",0.5,0.4,0.3,0.753334040460977,"false"
"image-keyboard-response",474,490674,"0.0-3.154-1.154","q3dwu8kywjwabqj",11,"103.csv","","null","resources/maskTrios/L1BB.jpg","null","",NA,NA,NA,NA,""
"image-keyboard-response",475,491876,"0.0-3.154-2.154","q3dwu8kywjwabqj",11,"103.csv","","null","resources/images/fishbone.png","null","",NA,NA,NA,NA,""
"image-keyboard-response",476,492399,"0.0-3.155-0.155","q3dwu8kywjwabqj",11,"103.csv","","521.7999999970198","resources/trios/L1T1A1.jpg","39","restless",0.5,0.4,0.3,0.792629058869197,"false"
"image-keyboard-response",477,492801,"0.0-3.155-1.155","q3dwu8kywjwabqj",11,"103.csv","","null","resources/maskTrios/BBA1.jpg","null","",NA,NA,NA,NA,""
"image-keyboard-response",478,494003,"0.0-3.155-2.155","q3dwu8kywjwabqj",11,"103.csv","","null","resources/images/fishbone.png","null","",NA,NA,NA,NA,""
"image-keyboard-response",479,494335,"0.0-3.156-0.156","q3dwu8kywjwabqj",11,"103.csv","","331","resources/trios/L1T1A2.jpg","39","restless",0.5,0.4,0.2,0.0213601105236074,"true"
"image-keyboard-response",480,494738,"0.0-3.156-1.156","q3dwu8kywjwabqj",11,"103.csv","","null","resources/maskTrios/BBA2.jpg","null","",NA,NA,NA,NA,""
"image-keyboard-response",481,495939,"0.0-3.156-2.156","q3dwu8kywjwabqj",11,"103.csv","","null","resources/images/coin2.png","null","",NA,NA,NA,NA,""
"image-keyboard-response",482,496257,"0.0-3.157-0.157","q3dwu8kywjwabqj",11,"103.csv","","316.8999999985099","resources/trios/L1T4A2.jpg","39","restless",0.5,0.4,0.2,0.861437890162457,"false"
"image-keyboard-response",483,496658,"0.0-3.157-1.157","q3dwu8kywjwabqj",11,"103.csv","","null","resources/maskTrios/BBA2.jpg","null","",NA,NA,NA,NA,""
"image-keyboard-response",484,497861,"0.0-3.157-2.157","q3dwu8kywjwabqj",11,"103.csv","","null","resources/images/fishbone.png","null","",NA,NA,NA,NA,""
"image-keyboard-response",485,498275,"0.0-3.158-0.158","q3dwu8kywjwabqj",11,"103.csv","","412.3999999985099","resources/trios/L2T4A1.jpg","39","restless",0.6,0.4,0.2,0.735971430236214,"false"
"image-keyboard-response",486,498677,"0.0-3.158-1.158","q3dwu8kywjwabqj",11,"103.csv","","null","resources/maskTrios/BBA1.jpg","null","",NA,NA,NA,NA,""
"image-keyboard-response",487,499878,"0.0-3.158-2.158","q3dwu8kywjwabqj",11,"103.csv","","null","resources/images/fishbone.png","null","",NA,NA,NA,NA,""
"image-keyboard-response",488,499943,"0.0-3.159-0.159","q3dwu8kywjwabqj",11,"103.csv","","63","resources/trios/L1T1A1.jpg","38","restless",0.6,0.4,0.2,0.200592035106913,"true"
"image-keyboard-response",489,500344,"0.0-3.159-1.159","q3dwu8kywjwabqj",11,"103.csv","","null","resources/maskTrios/BT1B.jpg","null","",NA,NA,NA,NA,""
"image-keyboard-response",490,501546,"0.0-3.159-2.159","q3dwu8kywjwabqj",11,"103.csv","","null","resources/images/coin2.png","null","",NA,NA,NA,NA,""
"image-keyboard-response",491,501882,"0.0-3.160-0.160","q3dwu8kywjwabqj",11,"103.csv","","334.6000000014901","resources/trios/L1T1A2.jpg","38","restless",0.6,0.4,0.2,0.316518323415343,"true"
"image-keyboard-response",492,502284,"0.0-3.160-1.160","q3dwu8kywjwabqj",11,"103.csv","","null","resources/maskTrios/BT1B.jpg","null","",NA,NA,NA,NA,""
"image-keyboard-response",493,503486,"0.0-3.160-2.160","q3dwu8kywjwabqj",11,"103.csv","","null","resources/images/coin2.png","null","",NA,NA,NA,NA,""
"image-keyboard-response",494,503888,"0.0-3.161-0.161","q3dwu8kywjwabqj",11,"103.csv","","400.79999999701977","resources/trios/L2T1A2.jpg","38","restless",0.6,0.4,0.2,0.791574519508887,"false"
"image-keyboard-response",495,504290,"0.0-3.161-1.161","q3dwu8kywjwabqj",11,"103.csv","","null","resources/maskTrios/BT1B.jpg","null","",NA,NA,NA,NA,""
"image-keyboard-response",496,505493,"0.0-3.161-2.161","q3dwu8kywjwabqj",11,"103.csv","","null","resources/images/fishbone.png","null","",NA,NA,NA,NA,""
"image-keyboard-response",497,505849,"0.0-3.162-0.162","q3dwu8kywjwabqj",11,"103.csv","","355.20000000298023","resources/trios/L2T1A1.jpg","38","restless",0.6,0.4,0.3,0.24153198222803,"true"
"image-keyboard-response",498,506251,"0.0-3.162-1.162","q3dwu8kywjwabqj",11,"103.csv","","null","resources/maskTrios/BT1B.jpg","null","",NA,NA,NA,NA,""
"image-keyboard-response",499,507454,"0.0-3.162-2.162","q3dwu8kywjwabqj",11,"103.csv","","null","resources/images/coin2.png","null","",NA,NA,NA,NA,""
"image-keyboard-response",500,507869,"0.0-3.163-0.163","q3dwu8kywjwabqj",11,"103.csv","","413.29999999701977","resources/trios/L1T4A1.jpg","38","restless",0.6,0.4,0.3,0.274019749373181,"true"
"image-keyboard-response",501,508271,"0.0-3.163-1.163","q3dwu8kywjwabqj",11,"103.csv","","null","resources/maskTrios/BT4B.jpg","null","",NA,NA,NA,NA,""
"image-keyboard-response",502,509473,"0.0-3.163-2.163","q3dwu8kywjwabqj",11,"103.csv","","null","resources/images/coin2.png","null","",NA,NA,NA,NA,""
"image-keyboard-response",503,509900,"0.0-3.164-0.164","q3dwu8kywjwabqj",11,"103.csv","","425","resources/trios/L2T4A1.jpg","38","restless",0.7,0.4,0.3,0.351128778996618,"true"
"image-keyboard-response",504,510303,"0.0-3.164-1.164","q3dwu8kywjwabqj",11,"103.csv","","null","resources/maskTrios/BT4B.jpg","null","",NA,NA,NA,NA,""
"image-keyboard-response",505,511504,"0.0-3.164-2.164","q3dwu8kywjwabqj",11,"103.csv","","null","resources/images/coin2.png","null","",NA,NA,NA,NA,""
"image-keyboard-response",506,511946,"0.0-3.165-0.165","q3dwu8kywjwabqj",11,"103.csv","","440.5","resources/trios/L2T4A2.jpg","38","restless",0.7,0.4,0.3,0.600262199764577,"false"
"image-keyboard-response",507,512348,"0.0-3.165-1.165","q3dwu8kywjwabqj",11,"103.csv","","null","resources/maskTrios/BT4B.jpg","null","",NA,NA,NA,NA,""
"image-keyboard-response",508,513551,"0.0-3.165-2.165","q3dwu8kywjwabqj",11,"103.csv","","null","resources/images/fishbone.png","null","",NA,NA,NA,NA,""
"image-keyboard-response",509,513915,"0.0-3.166-0.166","q3dwu8kywjwabqj",11,"103.csv","","361.69999999552965","resources/trios/L2T1A2.jpg","37","restless",0.7,0.4,0.3,0.886249145430305,"false"
"image-keyboard-response",510,514317,"0.0-3.166-1.166","q3dwu8kywjwabqj",11,"103.csv","","null","resources/maskTrios/L2BB.jpg","null","",NA,NA,NA,NA,""
"image-keyboard-response",511,515519,"0.0-3.166-2.166","q3dwu8kywjwabqj",11,"103.csv","","null","resources/images/fishbone.png","null","",NA,NA,NA,NA,""
"image-keyboard-response",512,515855,"0.0-3.167-0.167","q3dwu8kywjwabqj",11,"103.csv","","334","resources/trios/L1T1A1.jpg","37","restless",0.7,0.4,0.3,0.89358049136959,"false"
"image-keyboard-response",513,516258,"0.0-3.167-1.167","q3dwu8kywjwabqj",11,"103.csv","","null","resources/maskTrios/L1BB.jpg","null","",NA,NA,NA,NA,""
"image-keyboard-response",514,517465,"0.0-3.167-2.167","q3dwu8kywjwabqj",11,"103.csv","","null","resources/images/fishbone.png","null","",NA,NA,NA,NA,""
"image-keyboard-response",515,517832,"0.0-3.168-0.168","q3dwu8kywjwabqj",11,"103.csv","","365.6000000014901","resources/trios/L1T4A2.jpg","37","restless",0.7,0.4,0.4,0.455932321817559,"true"
"image-keyboard-response",516,518234,"0.0-3.168-1.168","q3dwu8kywjwabqj",11,"103.csv","","null","resources/maskTrios/L1BB.jpg","null","",NA,NA,NA,NA,""
"image-keyboard-response",517,519436,"0.0-3.168-2.168","q3dwu8kywjwabqj",11,"103.csv","","null","resources/images/coin2.png","null","",NA,NA,NA,NA,""
"image-keyboard-response",518,519812,"0.0-3.169-0.169","q3dwu8kywjwabqj",11,"103.csv","","375.29999999701977","resources/trios/L2T4A2.jpg","37","restless",0.7,0.4,0.4,0.603492794764116,"true"
"image-keyboard-response",519,520214,"0.0-3.169-1.169","q3dwu8kywjwabqj",11,"103.csv","","null","resources/maskTrios/L2BB.jpg","null","",NA,NA,NA,NA,""
"image-keyboard-response",520,521416,"0.0-3.169-2.169","q3dwu8kywjwabqj",11,"103.csv","","null","resources/images/coin2.png","null","",NA,NA,NA,NA,""
"image-keyboard-response",521,521792,"0.0-3.170-0.170","q3dwu8kywjwabqj",11,"103.csv","","374.80000000447035","resources/trios/L2T1A2.jpg","37","restless",0.7,0.4,0.4,0.666014307663772,"true"
"image-keyboard-response",522,522194,"0.0-3.170-1.170","q3dwu8kywjwabqj",11,"103.csv","","null","resources/maskTrios/L2BB.jpg","null","",NA,NA,NA,NA,""
"image-keyboard-response",523,523399,"0.0-3.170-2.170","q3dwu8kywjwabqj",11,"103.csv","","null","resources/images/coin2.png","null","",NA,NA,NA,NA,""
"image-keyboard-response",524,523712,"0.0-3.171-0.171","q3dwu8kywjwabqj",11,"103.csv","","310.79999999701977","resources/trios/L2T1A2.jpg","37","restless",0.7,0.4,0.4,0.889507479397019,"false"
"image-keyboard-response",525,524114,"0.0-3.171-1.171","q3dwu8kywjwabqj",11,"103.csv","","null","resources/maskTrios/L2BB.jpg","null","",NA,NA,NA,NA,""
"image-keyboard-response",526,525315,"0.0-3.171-2.171","q3dwu8kywjwabqj",11,"103.csv","","null","resources/images/fishbone.png","null","",NA,NA,NA,NA,""
"image-keyboard-response",527,525614,"0.0-3.172-0.172","q3dwu8kywjwabqj",11,"103.csv","","297.30000000447035","resources/trios/L2T1A1.jpg","39","restless",0.7,0.4,0.4,0.249596138390244,"true"
"image-keyboard-response",528,526015,"0.0-3.172-1.172","q3dwu8kywjwabqj",11,"103.csv","","null","resources/maskTrios/BBA1.jpg","null","",NA,NA,NA,NA,""
"image-keyboard-response",529,527218,"0.0-3.172-2.172","q3dwu8kywjwabqj",11,"103.csv","","null","resources/images/coin2.png","null","",NA,NA,NA,NA,""
"image-keyboard-response",530,527599,"0.0-3.173-0.173","q3dwu8kywjwabqj",11,"103.csv","","379.6000000014901","resources/trios/L1T1A1.jpg","39","restless",0.7,0.4,0.4,0.75103242653216,"false"
"image-keyboard-response",531,528003,"0.0-3.173-1.173","q3dwu8kywjwabqj",11,"103.csv","","null","resources/maskTrios/BBA1.jpg","null","",NA,NA,NA,NA,""
"image-keyboard-response",532,529204,"0.0-3.173-2.173","q3dwu8kywjwabqj",11,"103.csv","","null","resources/images/fishbone.png","null","",NA,NA,NA,NA,""
"image-keyboard-response",533,529503,"0.0-3.174-0.174","q3dwu8kywjwabqj",11,"103.csv","","297.5","resources/trios/L2T4A2.jpg","39","restless",0.7,0.4,0.4,0.118071600532639,"true"
"image-keyboard-response",534,529906,"0.0-3.174-1.174","q3dwu8kywjwabqj",11,"103.csv","","null","resources/maskTrios/BBA2.jpg","null","",NA,NA,NA,NA,""
"image-keyboard-response",535,531108,"0.0-3.174-2.174","q3dwu8kywjwabqj",11,"103.csv","","null","resources/images/coin2.png","null","",NA,NA,NA,NA,""
"image-keyboard-response",536,531520,"0.0-3.175-0.175","q3dwu8kywjwabqj",11,"103.csv","","410.70000000298023","resources/trios/L1T4A1.jpg","39","restless",0.8,0.4,0.4,0.366213249194869,"true"
"image-keyboard-response",537,531922,"0.0-3.175-1.175","q3dwu8kywjwabqj",11,"103.csv","","null","resources/maskTrios/BBA1.jpg","null","",NA,NA,NA,NA,""
"image-keyboard-response",538,533124,"0.0-3.175-2.175","q3dwu8kywjwabqj",11,"103.csv","","null","resources/images/coin2.png","null","",NA,NA,NA,NA,""
"image-keyboard-response",539,533486,"0.0-3.176-0.176","q3dwu8kywjwabqj",11,"103.csv","","360.3999999985099","resources/trios/L2T1A2.jpg","39","restless",0.7,0.4,0.4,0.179168669096708,"true"
"image-keyboard-response",540,533887,"0.0-3.176-1.176","q3dwu8kywjwabqj",11,"103.csv","","null","resources/maskTrios/BBA2.jpg","null","",NA,NA,NA,NA,""
"image-keyboard-response",541,535092,"0.0-3.176-2.176","q3dwu8kywjwabqj",11,"103.csv","","null","resources/images/coin2.png","null","",NA,NA,NA,NA,""
"image-keyboard-response",542,535492,"0.0-3.177-0.177","q3dwu8kywjwabqj",11,"103.csv","","399","resources/trios/L2T4A2.jpg","39","restless",0.7,0.4,0.4,0.919267804124004,"false"
"image-keyboard-response",543,535894,"0.0-3.177-1.177","q3dwu8kywjwabqj",11,"103.csv","","null","resources/maskTrios/BBA2.jpg","null","",NA,NA,NA,NA,""
"image-keyboard-response",544,537096,"0.0-3.177-2.177","q3dwu8kywjwabqj",11,"103.csv","","null","resources/images/fishbone.png","null","",NA,NA,NA,NA,""
"image-keyboard-response",545,537397,"0.0-3.178-0.178","q3dwu8kywjwabqj",11,"103.csv","","299.1000000014901","resources/trios/L2T1A2.jpg","38","restless",0.7,0.5,0.4,0.504240232702053,"false"
"image-keyboard-response",546,537802,"0.0-3.178-1.178","q3dwu8kywjwabqj",11,"103.csv","","null","resources/maskTrios/BT1B.jpg","null","",NA,NA,NA,NA,""
"image-keyboard-response",547,539004,"0.0-3.178-2.178","q3dwu8kywjwabqj",11,"103.csv","","null","resources/images/fishbone.png","null","",NA,NA,NA,NA,""
"image-keyboard-response",548,539356,"0.0-3.179-0.179","q3dwu8kywjwabqj",11,"103.csv","","350.6000000014901","resources/trios/L2T4A1.jpg","38","restless",0.7,0.5,0.4,0.16186584449077,"true"
"image-keyboard-response",549,539757,"0.0-3.179-1.179","q3dwu8kywjwabqj",11,"103.csv","","null","resources/maskTrios/BT4B.jpg","null","",NA,NA,NA,NA,""
"image-keyboard-response",550,540961,"0.0-3.179-2.179","q3dwu8kywjwabqj",11,"103.csv","","null","resources/images/coin2.png","null","",NA,NA,NA,NA,""
"image-keyboard-response",551,541340,"0.0-3.180-0.180","q3dwu8kywjwabqj",11,"103.csv","","376.8999999985099","resources/trios/L1T1A2.jpg","38","restless",0.7,0.5,0.4,0.135494512757619,"true"
"image-keyboard-response",552,541741,"0.0-3.180-1.180","q3dwu8kywjwabqj",11,"103.csv","","null","resources/maskTrios/BT1B.jpg","null","",NA,NA,NA,NA,""
"image-keyboard-response",553,542944,"0.0-3.180-2.180","q3dwu8kywjwabqj",11,"103.csv","","null","resources/images/coin2.png","null","",NA,NA,NA,NA,""
"image-keyboard-response",554,543267,"0.0-3.181-0.181","q3dwu8kywjwabqj",11,"103.csv","","321.70000000298023","resources/trios/L1T4A1.jpg","38","restless",0.7,0.5,0.4,0.448163090801891,"true"
"image-keyboard-response",555,543669,"0.0-3.181-1.181","q3dwu8kywjwabqj",11,"103.csv","","null","resources/maskTrios/BT4B.jpg","null","",NA,NA,NA,NA,""
"image-keyboard-response",556,544871,"0.0-3.181-2.181","q3dwu8kywjwabqj",11,"103.csv","","null","resources/images/coin2.png","null","",NA,NA,NA,NA,""
"image-keyboard-response",557,545241,"0.0-3.182-0.182","q3dwu8kywjwabqj",11,"103.csv","","368.70000000298023","resources/trios/L1T1A1.jpg","37","restless",0.7,0.5,0.4,0.992133724200081,"false"
"image-keyboard-response",558,545643,"0.0-3.182-1.182","q3dwu8kywjwabqj",11,"103.csv","","null","resources/maskTrios/L1BB.jpg","null","",NA,NA,NA,NA,""
"image-keyboard-response",559,546845,"0.0-3.182-2.182","q3dwu8kywjwabqj",11,"103.csv","","null","resources/images/fishbone.png","null","",NA,NA,NA,NA,""
"image-keyboard-response",560,547187,"0.0-3.183-0.183","q3dwu8kywjwabqj",11,"103.csv","","340.80000000447035","resources/trios/L2T4A1.jpg","37","restless",0.7,0.4,0.4,0.477227115776451,"true"
"image-keyboard-response",561,547589,"0.0-3.183-1.183","q3dwu8kywjwabqj",11,"103.csv","","null","resources/maskTrios/L2BB.jpg","null","",NA,NA,NA,NA,""
"image-keyboard-response",562,548791,"0.0-3.183-2.183","q3dwu8kywjwabqj",11,"103.csv","","null","resources/images/coin2.png","null","",NA,NA,NA,NA,""
"image-keyboard-response",563,549143,"0.0-3.184-0.184","q3dwu8kywjwabqj",11,"103.csv","","350.5","resources/trios/L1T4A2.jpg","37","restless",0.7,0.3,0.4,0.9090868875457,"false"
"image-keyboard-response",564,549545,"0.0-3.184-1.184","q3dwu8kywjwabqj",11,"103.csv","","null","resources/maskTrios/L1BB.jpg","null","",NA,NA,NA,NA,""
"image-keyboard-response",565,550751,"0.0-3.184-2.184","q3dwu8kywjwabqj",11,"103.csv","","null","resources/images/fishbone.png","null","",NA,NA,NA,NA,""
"image-keyboard-response",566,551301,"0.0-3.185-0.185","q3dwu8kywjwabqj",11,"103.csv","","548.3000000044703","resources/trios/L2T4A2.jpg","37","restless",0.6,0.3,0.4,0.189536138164254,"true"
"image-keyboard-response",567,551703,"0.0-3.185-1.185","q3dwu8kywjwabqj",11,"103.csv","","null","resources/maskTrios/L2BB.jpg","null","",NA,NA,NA,NA,""
"image-keyboard-response",568,552906,"0.0-3.185-2.185","q3dwu8kywjwabqj",11,"103.csv","","null","resources/images/coin2.png","null","",NA,NA,NA,NA,""
"image-keyboard-response",569,553256,"0.0-3.186-0.186","q3dwu8kywjwabqj",11,"103.csv","","347.70000000298023","resources/trios/L2T4A2.jpg","37","restless",0.6,0.3,0.4,0.350397822394491,"true"
"image-keyboard-response",570,553658,"0.0-3.186-1.186","q3dwu8kywjwabqj",11,"103.csv","","null","resources/maskTrios/L2BB.jpg","null","",NA,NA,NA,NA,""
"image-keyboard-response",571,554860,"0.0-3.186-2.186","q3dwu8kywjwabqj",11,"103.csv","","null","resources/images/coin2.png","null","",NA,NA,NA,NA,""
"image-keyboard-response",572,555201,"0.0-3.187-0.187","q3dwu8kywjwabqj",11,"103.csv","","340.3999999985099","resources/trios/L2T4A2.jpg","37","restless",0.6,0.3,0.4,0.942688850079825,"false"
"image-keyboard-response",573,555608,"0.0-3.187-1.187","q3dwu8kywjwabqj",11,"103.csv","","null","resources/maskTrios/L2BB.jpg","null","",NA,NA,NA,NA,""
"image-keyboard-response",574,556810,"0.0-3.187-2.187","q3dwu8kywjwabqj",11,"103.csv","","null","resources/images/fishbone.png","null","",NA,NA,NA,NA,""
"image-keyboard-response",575,557499,"0.0-3.188-0.188","q3dwu8kywjwabqj",11,"103.csv","","688.1999999955297","resources/trios/L1T1A1.jpg","37","restless",0.6,0.3,0.4,0.816746624328916,"false"
"image-keyboard-response",576,557902,"0.0-3.188-1.188","q3dwu8kywjwabqj",11,"103.csv","","null","resources/maskTrios/L1BB.jpg","null","",NA,NA,NA,NA,""
"image-keyboard-response",577,559105,"0.0-3.188-2.188","q3dwu8kywjwabqj",11,"103.csv","","null","resources/images/fishbone.png","null","",NA,NA,NA,NA,""
"image-keyboard-response",578,559524,"0.0-3.189-0.189","q3dwu8kywjwabqj",11,"103.csv","","417.29999999701977","resources/trios/L1T4A1.jpg","37","restless",0.6,0.3,0.4,0.895511042190854,"false"
"image-keyboard-response",579,559927,"0.0-3.189-1.189","q3dwu8kywjwabqj",11,"103.csv","","null","resources/maskTrios/L1BB.jpg","null","",NA,NA,NA,NA,""
"image-keyboard-response",580,561131,"0.0-3.189-2.189","q3dwu8kywjwabqj",11,"103.csv","","null","resources/images/fishbone.png","null","",NA,NA,NA,NA,""
"image-keyboard-response",581,561521,"0.0-3.190-0.190","q3dwu8kywjwabqj",11,"103.csv","","388.29999999701977","resources/trios/L1T4A1.jpg","38","restless",0.6,0.3,0.4,0.73515515977453,"false"
"image-keyboard-response",582,561922,"0.0-3.190-1.190","q3dwu8kywjwabqj",11,"103.csv","","null","resources/maskTrios/BT4B.jpg","null","",NA,NA,NA,NA,""
"image-keyboard-response",583,563124,"0.0-3.190-2.190","q3dwu8kywjwabqj",11,"103.csv","","null","resources/images/fishbone.png","null","",NA,NA,NA,NA,""
"image-keyboard-response",584,563540,"0.0-3.191-0.191","q3dwu8kywjwabqj",11,"103.csv","","414.80000000447035","resources/trios/L2T4A1.jpg","38","restless",0.6,0.3,0.4,0.277174984330858,"true"
"image-keyboard-response",585,563944,"0.0-3.191-1.191","q3dwu8kywjwabqj",11,"103.csv","","null","resources/maskTrios/BT4B.jpg","null","",NA,NA,NA,NA,""
"image-keyboard-response",586,565147,"0.0-3.191-2.191","q3dwu8kywjwabqj",11,"103.csv","","null","resources/images/coin2.png","null","",NA,NA,NA,NA,""
"image-keyboard-response",587,565496,"0.0-3.192-0.192","q3dwu8kywjwabqj",11,"103.csv","","347.5","resources/trios/L2T1A1.jpg","38","restless",0.6,0.3,0.4,0.86544184676809,"false"
"image-keyboard-response",588,565903,"0.0-3.192-1.192","q3dwu8kywjwabqj",11,"103.csv","","null","resources/maskTrios/BT1B.jpg","null","",NA,NA,NA,NA,""
"image-keyboard-response",589,567106,"0.0-3.192-2.192","q3dwu8kywjwabqj",11,"103.csv","","null","resources/images/fishbone.png","null","",NA,NA,NA,NA,""
"image-keyboard-response",590,567504,"0.0-3.193-0.193","q3dwu8kywjwabqj",11,"103.csv","","395.3999999985099","resources/trios/L2T4A2.jpg","38","restless",0.6,0.3,0.5,0.21220069267648,"true"
"image-keyboard-response",591,567907,"0.0-3.193-1.193","q3dwu8kywjwabqj",11,"103.csv","","null","resources/maskTrios/BT4B.jpg","null","",NA,NA,NA,NA,""
"image-keyboard-response",592,569111,"0.0-3.193-2.193","q3dwu8kywjwabqj",11,"103.csv","","null","resources/images/coin2.png","null","",NA,NA,NA,NA,""
"image-keyboard-response",593,569458,"0.0-3.194-0.194","q3dwu8kywjwabqj",11,"103.csv","","345.6000000014901","resources/trios/L1T4A1.jpg","38","restless",0.6,0.3,0.5,0.104239107321884,"true"
"image-keyboard-response",594,569862,"0.0-3.194-1.194","q3dwu8kywjwabqj",11,"103.csv","","null","resources/maskTrios/BT4B.jpg","null","",NA,NA,NA,NA,""
"image-keyboard-response",595,571064,"0.0-3.194-2.194","q3dwu8kywjwabqj",11,"103.csv","","null","resources/images/coin2.png","null","",NA,NA,NA,NA,""
"image-keyboard-response",596,571406,"0.0-3.195-0.195","q3dwu8kywjwabqj",11,"103.csv","","340.70000000298023","resources/trios/L1T4A2.jpg","38","restless",0.6,0.3,0.5,0.435323407063706,"false"
"image-keyboard-response",597,571811,"0.0-3.195-1.195","q3dwu8kywjwabqj",11,"103.csv","","null","resources/maskTrios/BT4B.jpg","null","",NA,NA,NA,NA,""
"image-keyboard-response",598,573014,"0.0-3.195-2.195","q3dwu8kywjwabqj",11,"103.csv","","null","resources/images/fishbone.png","null","",NA,NA,NA,NA,""
"image-keyboard-response",599,573835,"0.0-3.196-0.196","q3dwu8kywjwabqj",11,"103.csv","","820.1000000014901","resources/trios/L2T1A2.jpg","39","restless",0.6,0.3,0.5,0.672498943746148,"false"
"image-keyboard-response",600,574241,"0.0-3.196-1.196","q3dwu8kywjwabqj",11,"103.csv","","null","resources/maskTrios/BBA2.jpg","null","",NA,NA,NA,NA,""
"image-keyboard-response",601,575445,"0.0-3.196-2.196","q3dwu8kywjwabqj",11,"103.csv","","null","resources/images/fishbone.png","null","",NA,NA,NA,NA,""
"image-keyboard-response",602,575741,"0.0-3.197-0.197","q3dwu8kywjwabqj",11,"103.csv","","294.5","resources/trios/L1T4A2.jpg","39","restless",0.6,0.3,0.5,0.945470603240959,"false"
"image-keyboard-response",603,576143,"0.0-3.197-1.197","q3dwu8kywjwabqj",11,"103.csv","","null","resources/maskTrios/BBA2.jpg","null","",NA,NA,NA,NA,""
"image-keyboard-response",604,577345,"0.0-3.197-2.197","q3dwu8kywjwabqj",11,"103.csv","","null","resources/images/fishbone.png","null","",NA,NA,NA,NA,""
"image-keyboard-response",605,577717,"0.0-3.198-0.198","q3dwu8kywjwabqj",11,"103.csv","","371.1000000014901","resources/trios/L1T4A2.jpg","39","restless",0.6,0.3,0.5,0.737551124064997,"false"
"image-keyboard-response",606,578119,"0.0-3.198-1.198","q3dwu8kywjwabqj",11,"103.csv","","null","resources/maskTrios/BBA2.jpg","null","",NA,NA,NA,NA,""
"image-keyboard-response",607,579325,"0.0-3.198-2.198","q3dwu8kywjwabqj",11,"103.csv","","null","resources/images/fishbone.png","null","",NA,NA,NA,NA,""
"image-keyboard-response",608,579747,"0.0-3.199-0.199","q3dwu8kywjwabqj",11,"103.csv","","420.09999999403954","resources/trios/L2T1A1.jpg","38","restless",0.6,0.3,0.6,0.214910199109457,"true"
"image-keyboard-response",609,580150,"0.0-3.199-1.199","q3dwu8kywjwabqj",11,"103.csv","","null","resources/maskTrios/BT1B.jpg","null","",NA,NA,NA,NA,""
