"trial_type","trial_index","time_elapsed","internal_node_id","subject","participantCode","walkNumber","success","rt","stimulus","key_press","test_part","leftProb","midProb","rightProb","generatedNum","correct"
"pavlovia",0,1245,"0.0-0.0","9uavves474fs3b2",850,"88.csv","","","","","",NA,NA,NA,NA,""
"fullscreen",1,6980,"0.0-1.0","9uavves474fs3b2",850,"88.csv","true","","","","",NA,NA,NA,NA,""
"html-keyboard-response",2,17300,"0.0-2.0-0.0","9uavves474fs3b2",850,"88.csv","","10318","<p><font size='6'>Arrrgh!</p></font><p>Can you be the best pirate? Try to find lots of gold! But beware, some islands have more gold than others, and over time, the island with the most gold may change. Can YOU figure it out? </p><font size='6'>GOOD LUCK, CAPTAIN!!!</font><p>Press any key to begin</p>","75","",NA,NA,NA,NA,""
"image-keyboard-response",3,20303,"0.0-2.0-1.0","9uavves474fs3b2",850,"88.csv","","null","resources/image_sets/111.png","null","",NA,NA,NA,NA,""
"image-keyboard-response",4,35931,"0.0-2.0-2.0","9uavves474fs3b2",850,"88.csv","","15625","resources/image_sets/left_highlight.png","37","",NA,NA,NA,NA,""
"image-keyboard-response",5,50662,"0.0-2.0-3.0","9uavves474fs3b2",850,"88.csv","","14731.000000000007","resources/image_sets/mid_highlight.png","38","",NA,NA,NA,NA,""
"image-keyboard-response",6,52528,"0.0-2.0-4.0","9uavves474fs3b2",850,"88.csv","","1865.0000000000073","resources/image_sets/right_highlight.png","39","",NA,NA,NA,NA,""
"image-keyboard-response",7,62946,"0.0-2.0-5.0","9uavves474fs3b2",850,"88.csv","","10418","resources/image_sets/111.png","13","",NA,NA,NA,NA,""
"image-keyboard-response",8,66576,"0.0-2.0-6.0","9uavves474fs3b2",850,"88.csv","","3630","resources/images/coin2.png","13","",NA,NA,NA,NA,""
"image-keyboard-response",9,69864,"0.0-2.0-7.0","9uavves474fs3b2",850,"88.csv","","3284.0000000000146","resources/images/fishbone.png","13","",NA,NA,NA,NA,""
"html-keyboard-response",10,76412,"0.0-2.0-8.0","9uavves474fs3b2",850,"88.csv","","6545","<p>Your first journey will be a long one, but you will get a well deserved break at the end</p><p>After the break you will have four more journeys, but each will be much shorter than the first, and you will have breaks in between each</p><p>Press Enter to begin</p>","13","",NA,NA,NA,NA,""
"image-keyboard-response",11,78029,"0.0-3.0-0.0","9uavves474fs3b2",850,"88.csv","","1615","resources/trios/L1T1A3.jpg","38","restless",0.7,0.3,0.9,0.608539266889401,"false"
"image-keyboard-response",12,78433,"0.0-3.0-1.0","9uavves474fs3b2",850,"88.csv","","null","resources/maskTrios/BT1B.jpg","null","",NA,NA,NA,NA,""
"image-keyboard-response",13,79639,"0.0-3.0-2.0","9uavves474fs3b2",850,"88.csv","","null","resources/images/fishbone.png","null","",NA,NA,NA,NA,""
"image-keyboard-response",14,80282,"0.0-3.1-0.1","9uavves474fs3b2",850,"88.csv","","638","resources/trios/L2T1A2.jpg","39","restless",0.7,0.3,0.9,0.656847741461002,"true"
"image-keyboard-response",15,80685,"0.0-3.1-1.1","9uavves474fs3b2",850,"88.csv","","null","resources/maskTrios/BBA2.jpg","null","",NA,NA,NA,NA,""
"image-keyboard-response",16,81891,"0.0-3.1-2.1","9uavves474fs3b2",850,"88.csv","","null","resources/images/coin2.png","null","",NA,NA,NA,NA,""
"image-keyboard-response",17,82516,"0.0-3.2-0.2","9uavves474fs3b2",850,"88.csv","","622","resources/trios/L1T1A2.jpg","39","restless",0.7,0.3,0.9,0.0119672646879602,"true"
"image-keyboard-response",18,82919,"0.0-3.2-1.2","9uavves474fs3b2",850,"88.csv","","null","resources/maskTrios/BBA2.jpg","null","",NA,NA,NA,NA,""
"image-keyboard-response",19,84123,"0.0-3.2-2.2","9uavves474fs3b2",850,"88.csv","","null","resources/images/coin2.png","null","",NA,NA,NA,NA,""
"image-keyboard-response",20,84632,"0.0-3.3-0.3","9uavves474fs3b2",850,"88.csv","","506","resources/trios/L2T2A2.jpg","39","restless",0.7,0.3,0.9,0.943592081875228,"false"
"image-keyboard-response",21,85035,"0.0-3.3-1.3","9uavves474fs3b2",850,"88.csv","","null","resources/maskTrios/BBA2.jpg","null","",NA,NA,NA,NA,""
"image-keyboard-response",22,86240,"0.0-3.3-2.3","9uavves474fs3b2",850,"88.csv","","null","resources/images/fishbone.png","null","",NA,NA,NA,NA,""
"image-keyboard-response",23,86932,"0.0-3.4-0.4","9uavves474fs3b2",850,"88.csv","","688.9999999999854","resources/trios/L2T2A2.jpg","37","restless",0.7,0.3,0.9,0.262009509437627,"true"
"image-keyboard-response",24,87335,"0.0-3.4-1.4","9uavves474fs3b2",850,"88.csv","","null","resources/maskTrios/L2BB.jpg","null","",NA,NA,NA,NA,""
"image-keyboard-response",25,88540,"0.0-3.4-2.4","9uavves474fs3b2",850,"88.csv","","null","resources/images/coin2.png","null","",NA,NA,NA,NA,""
"image-keyboard-response",26,89358,"0.0-3.5-0.5","9uavves474fs3b2",850,"88.csv","","815","resources/trios/L2T2A3.jpg","38","restless",0.7,0.3,0.9,0.376583433313618,"false"
"image-keyboard-response",27,89760,"0.0-3.5-1.5","9uavves474fs3b2",850,"88.csv","","null","resources/maskTrios/BT2B.jpg","null","",NA,NA,NA,NA,""
"image-keyboard-response",28,90965,"0.0-3.5-2.5","9uavves474fs3b2",850,"88.csv","","null","resources/images/fishbone.png","null","",NA,NA,NA,NA,""
"image-keyboard-response",29,91414,"0.0-3.6-0.6","9uavves474fs3b2",850,"88.csv","","446","resources/trios/L1T2A2.jpg","37","restless",0.7,0.3,0.9,0.569765373085454,"true"
"image-keyboard-response",30,91817,"0.0-3.6-1.6","9uavves474fs3b2",850,"88.csv","","null","resources/maskTrios/L1BB.jpg","null","",NA,NA,NA,NA,""
"image-keyboard-response",31,93021,"0.0-3.6-2.6","9uavves474fs3b2",850,"88.csv","","null","resources/images/coin2.png","null","",NA,NA,NA,NA,""
"image-keyboard-response",32,93400,"0.0-3.7-0.7","9uavves474fs3b2",850,"88.csv","","376","resources/trios/L1T2A2.jpg","39","restless",0.7,0.3,0.9,0.989375741566009,"false"
"image-keyboard-response",33,93807,"0.0-3.7-1.7","9uavves474fs3b2",850,"88.csv","","null","resources/maskTrios/BBA2.jpg","null","",NA,NA,NA,NA,""
"image-keyboard-response",34,95013,"0.0-3.7-2.7","9uavves474fs3b2",850,"88.csv","","null","resources/images/fishbone.png","null","",NA,NA,NA,NA,""
"image-keyboard-response",35,95740,"0.0-3.8-0.8","9uavves474fs3b2",850,"88.csv","","720","resources/trios/L1T2A3.jpg","38","restless",0.7,0.2,0.8,0.267869078598897,"false"
"image-keyboard-response",36,96143,"0.0-3.8-1.8","9uavves474fs3b2",850,"88.csv","","null","resources/maskTrios/BT2B.jpg","null","",NA,NA,NA,NA,""
"image-keyboard-response",37,97348,"0.0-3.8-2.8","9uavves474fs3b2",850,"88.csv","","null","resources/images/fishbone.png","null","",NA,NA,NA,NA,""
"image-keyboard-response",38,97873,"0.0-3.9-0.9","9uavves474fs3b2",850,"88.csv","","521","resources/trios/L2T2A3.jpg","37","restless",0.7,0.2,0.8,0.544407196886034,"true"
"image-keyboard-response",39,98276,"0.0-3.9-1.9","9uavves474fs3b2",850,"88.csv","","null","resources/maskTrios/L2BB.jpg","null","",NA,NA,NA,NA,""
"image-keyboard-response",40,99481,"0.0-3.9-2.9","9uavves474fs3b2",850,"88.csv","","null","resources/images/coin2.png","null","",NA,NA,NA,NA,""
"image-keyboard-response",41,99875,"0.0-3.10-0.10","9uavves474fs3b2",850,"88.csv","","391","resources/trios/L2T2A3.jpg","39","restless",0.6,0.1,0.8,0.777354863098404,"true"
"image-keyboard-response",42,100278,"0.0-3.10-1.10","9uavves474fs3b2",850,"88.csv","","null","resources/maskTrios/BBA3.jpg","null","",NA,NA,NA,NA,""
"image-keyboard-response",43,101483,"0.0-3.10-2.10","9uavves474fs3b2",850,"88.csv","","null","resources/images/coin2.png","null","",NA,NA,NA,NA,""
"image-keyboard-response",44,101900,"0.0-3.11-0.11","9uavves474fs3b2",850,"88.csv","","414","resources/trios/L1T2A3.jpg","38","restless",0.6,0.1,0.8,0.715177452142489,"false"
"image-keyboard-response",45,102303,"0.0-3.11-1.11","9uavves474fs3b2",850,"88.csv","","null","resources/maskTrios/BT2B.jpg","null","",NA,NA,NA,NA,""
"image-keyboard-response",46,103506,"0.0-3.11-2.11","9uavves474fs3b2",850,"88.csv","","null","resources/images/fishbone.png","null","",NA,NA,NA,NA,""
"image-keyboard-response",47,103960,"0.0-3.12-0.12","9uavves474fs3b2",850,"88.csv","","451","resources/trios/L1T2A2.jpg","39","restless",0.6,0.1,0.8,0.597274768169221,"true"
"image-keyboard-response",48,104363,"0.0-3.12-1.12","9uavves474fs3b2",850,"88.csv","","null","resources/maskTrios/BBA2.jpg","null","",NA,NA,NA,NA,""
"image-keyboard-response",49,105568,"0.0-3.12-2.12","9uavves474fs3b2",850,"88.csv","","null","resources/images/coin2.png","null","",NA,NA,NA,NA,""
"image-keyboard-response",50,106068,"0.0-3.13-0.13","9uavves474fs3b2",850,"88.csv","","495","resources/trios/L2T1A3.jpg","37","restless",0.5,0.1,0.8,0.166795367093395,"true"
"image-keyboard-response",51,106471,"0.0-3.13-1.13","9uavves474fs3b2",850,"88.csv","","null","resources/maskTrios/L2BB.jpg","null","",NA,NA,NA,NA,""
"image-keyboard-response",52,107675,"0.0-3.13-2.13","9uavves474fs3b2",850,"88.csv","","null","resources/images/coin2.png","null","",NA,NA,NA,NA,""
"image-keyboard-response",53,108257,"0.0-3.14-0.14","9uavves474fs3b2",850,"88.csv","","579.0000000000146","resources/trios/L1T2A2.jpg","37","restless",0.5,0.1,0.8,0.340438572060983,"true"
"image-keyboard-response",54,108660,"0.0-3.14-1.14","9uavves474fs3b2",850,"88.csv","","null","resources/maskTrios/L1BB.jpg","null","",NA,NA,NA,NA,""
"image-keyboard-response",55,109867,"0.0-3.14-2.14","9uavves474fs3b2",850,"88.csv","","null","resources/images/coin2.png","null","",NA,NA,NA,NA,""
"image-keyboard-response",56,111468,"0.0-3.15-0.15","9uavves474fs3b2",850,"88.csv","","1594.9999999999854","resources/trios/L1T2A2.jpg","39","restless",0.5,0.1,0.7,0.0789584791598621,"true"
"image-keyboard-response",57,111871,"0.0-3.15-1.15","9uavves474fs3b2",850,"88.csv","","null","resources/maskTrios/BBA2.jpg","null","",NA,NA,NA,NA,""
"image-keyboard-response",58,113077,"0.0-3.15-2.15","9uavves474fs3b2",850,"88.csv","","null","resources/images/coin2.png","null","",NA,NA,NA,NA,""
"image-keyboard-response",59,113753,"0.0-3.16-0.16","9uavves474fs3b2",850,"88.csv","","673","resources/trios/L2T2A2.jpg","37","restless",0.5,0.1,0.7,0.328975141715346,"true"
"image-keyboard-response",60,114156,"0.0-3.16-1.16","9uavves474fs3b2",850,"88.csv","","null","resources/maskTrios/L2BB.jpg","null","",NA,NA,NA,NA,""
"image-keyboard-response",61,115360,"0.0-3.16-2.16","9uavves474fs3b2",850,"88.csv","","null","resources/images/coin2.png","null","",NA,NA,NA,NA,""
"image-keyboard-response",62,115803,"0.0-3.17-0.17","9uavves474fs3b2",850,"88.csv","","438.99999999998545","resources/trios/L2T1A3.jpg","39","restless",0.5,0.1,0.7,0.963709119566671,"false"
"image-keyboard-response",63,116206,"0.0-3.17-1.17","9uavves474fs3b2",850,"88.csv","","null","resources/maskTrios/BBA3.jpg","null","",NA,NA,NA,NA,""
"image-keyboard-response",64,117410,"0.0-3.17-2.17","9uavves474fs3b2",850,"88.csv","","null","resources/images/fishbone.png","null","",NA,NA,NA,NA,""
"image-keyboard-response",65,118185,"0.0-3.18-0.18","9uavves474fs3b2",850,"88.csv","","772","resources/trios/L2T2A2.jpg","38","restless",0.5,0.1,0.7,0.284190115662673,"false"
"image-keyboard-response",66,118588,"0.0-3.18-1.18","9uavves474fs3b2",850,"88.csv","","null","resources/maskTrios/BT2B.jpg","null","",NA,NA,NA,NA,""
"image-keyboard-response",67,119792,"0.0-3.18-2.18","9uavves474fs3b2",850,"88.csv","","null","resources/images/fishbone.png","null","",NA,NA,NA,NA,""
"image-keyboard-response",68,120948,"0.0-3.19-0.19","9uavves474fs3b2",850,"88.csv","","1154","resources/trios/L1T2A3.jpg","38","restless",0.4,0.1,0.7,0.308881407817537,"false"
"image-keyboard-response",69,121351,"0.0-3.19-1.19","9uavves474fs3b2",850,"88.csv","","null","resources/maskTrios/BT2B.jpg","null","",NA,NA,NA,NA,""
"image-keyboard-response",70,122554,"0.0-3.19-2.19","9uavves474fs3b2",850,"88.csv","","null","resources/images/fishbone.png","null","",NA,NA,NA,NA,""
"image-keyboard-response",71,123398,"0.0-3.20-0.20","9uavves474fs3b2",850,"88.csv","","840","resources/trios/L2T2A2.jpg","38","restless",0.4,0.1,0.7,0.738626239181007,"false"
"image-keyboard-response",72,123800,"0.0-3.20-1.20","9uavves474fs3b2",850,"88.csv","","null","resources/maskTrios/BT2B.jpg","null","",NA,NA,NA,NA,""
"image-keyboard-response",73,125004,"0.0-3.20-2.20","9uavves474fs3b2",850,"88.csv","","null","resources/images/fishbone.png","null","",NA,NA,NA,NA,""
"image-keyboard-response",74,125570,"0.0-3.21-0.21","9uavves474fs3b2",850,"88.csv","","563.9999999999854","resources/trios/L2T1A3.jpg","37","restless",0.4,0.1,0.7,0.995385787336406,"false"
"image-keyboard-response",75,125973,"0.0-3.21-1.21","9uavves474fs3b2",850,"88.csv","","null","resources/maskTrios/L2BB.jpg","null","",NA,NA,NA,NA,""
"image-keyboard-response",76,127177,"0.0-3.21-2.21","9uavves474fs3b2",850,"88.csv","","null","resources/images/fishbone.png","null","",NA,NA,NA,NA,""
"image-keyboard-response",77,127565,"0.0-3.22-0.22","9uavves474fs3b2",850,"88.csv","","385.99999999998545","resources/trios/L1T1A3.jpg","39","restless",0.4,0.1,0.7,0.169460708611008,"true"
"image-keyboard-response",78,127968,"0.0-3.22-1.22","9uavves474fs3b2",850,"88.csv","","null","resources/maskTrios/BBA3.jpg","null","",NA,NA,NA,NA,""
"image-keyboard-response",79,129172,"0.0-3.22-2.22","9uavves474fs3b2",850,"88.csv","","null","resources/images/coin2.png","null","",NA,NA,NA,NA,""
"image-keyboard-response",80,129608,"0.0-3.23-0.23","9uavves474fs3b2",850,"88.csv","","433","resources/trios/L1T2A2.jpg","39","restless",0.5,0.1,0.7,0.269919815751541,"true"
"image-keyboard-response",81,130010,"0.0-3.23-1.23","9uavves474fs3b2",850,"88.csv","","null","resources/maskTrios/BBA2.jpg","null","",NA,NA,NA,NA,""
"image-keyboard-response",82,131222,"0.0-3.23-2.23","9uavves474fs3b2",850,"88.csv","","null","resources/images/coin2.png","null","",NA,NA,NA,NA,""
"image-keyboard-response",83,131766,"0.0-3.24-0.24","9uavves474fs3b2",850,"88.csv","","537.9999999999709","resources/trios/L2T1A3.jpg","37","restless",0.6,0.1,0.7,0.996024805703724,"false"
"image-keyboard-response",84,132169,"0.0-3.24-1.24","9uavves474fs3b2",850,"88.csv","","null","resources/maskTrios/L2BB.jpg","null","",NA,NA,NA,NA,""
"image-keyboard-response",85,133373,"0.0-3.24-2.24","9uavves474fs3b2",850,"88.csv","","null","resources/images/fishbone.png","null","",NA,NA,NA,NA,""
"image-keyboard-response",86,133712,"0.0-3.25-0.25","9uavves474fs3b2",850,"88.csv","","335","resources/trios/L1T1A2.jpg","38","restless",0.6,0.1,0.7,0.830271094360282,"false"
"image-keyboard-response",87,134115,"0.0-3.25-1.25","9uavves474fs3b2",850,"88.csv","","null","resources/maskTrios/BT1B.jpg","null","",NA,NA,NA,NA,""
"image-keyboard-response",88,135318,"0.0-3.25-2.25","9uavves474fs3b2",850,"88.csv","","null","resources/images/fishbone.png","null","",NA,NA,NA,NA,""
"image-keyboard-response",89,135721,"0.0-3.26-0.26","9uavves474fs3b2",850,"88.csv","","393","resources/trios/L2T2A3.jpg","37","restless",0.6,0.1,0.7,0.804349047959181,"false"
"image-keyboard-response",90,136123,"0.0-3.26-1.26","9uavves474fs3b2",850,"88.csv","","null","resources/maskTrios/L2BB.jpg","null","",NA,NA,NA,NA,""
"image-keyboard-response",91,137327,"0.0-3.26-2.26","9uavves474fs3b2",850,"88.csv","","null","resources/images/fishbone.png","null","",NA,NA,NA,NA,""
"image-keyboard-response",92,137741,"0.0-3.27-0.27","9uavves474fs3b2",850,"88.csv","","410","resources/trios/L2T2A2.jpg","39","restless",0.6,0.1,0.7,0.322677107798481,"true"
"image-keyboard-response",93,138142,"0.0-3.27-1.27","9uavves474fs3b2",850,"88.csv","","null","resources/maskTrios/BBA2.jpg","null","",NA,NA,NA,NA,""
"image-keyboard-response",94,139347,"0.0-3.27-2.27","9uavves474fs3b2",850,"88.csv","","null","resources/images/coin2.png","null","",NA,NA,NA,NA,""
"image-keyboard-response",95,139754,"0.0-3.28-0.28","9uavves474fs3b2",850,"88.csv","","404","resources/trios/L2T2A3.jpg","37","restless",0.5,0.1,0.6,0.765796536938326,"false"
"image-keyboard-response",96,140157,"0.0-3.28-1.28","9uavves474fs3b2",850,"88.csv","","null","resources/maskTrios/L2BB.jpg","null","",NA,NA,NA,NA,""
"image-keyboard-response",97,141361,"0.0-3.28-2.28","9uavves474fs3b2",850,"88.csv","","null","resources/images/fishbone.png","null","",NA,NA,NA,NA,""
"image-keyboard-response",98,141787,"0.0-3.29-0.29","9uavves474fs3b2",850,"88.csv","","422.9999999999709","resources/trios/L2T2A2.jpg","38","restless",0.5,0.1,0.6,0.751657760748342,"false"
"image-keyboard-response",99,142190,"0.0-3.29-1.29","9uavves474fs3b2",850,"88.csv","","null","resources/maskTrios/BT2B.jpg","null","",NA,NA,NA,NA,""
"image-keyboard-response",100,143394,"0.0-3.29-2.29","9uavves474fs3b2",850,"88.csv","","null","resources/images/fishbone.png","null","",NA,NA,NA,NA,""
"image-keyboard-response",101,143771,"0.0-3.30-0.30","9uavves474fs3b2",850,"88.csv","","375","resources/trios/L2T2A3.jpg","37","restless",0.5,0.1,0.6,0.731625263039312,"false"
"image-keyboard-response",102,144174,"0.0-3.30-1.30","9uavves474fs3b2",850,"88.csv","","null","resources/maskTrios/L2BB.jpg","null","",NA,NA,NA,NA,""
"image-keyboard-response",103,145377,"0.0-3.30-2.30","9uavves474fs3b2",850,"88.csv","","null","resources/images/fishbone.png","null","",NA,NA,NA,NA,""
"image-keyboard-response",104,145921,"0.0-3.31-0.31","9uavves474fs3b2",850,"88.csv","","541","resources/trios/L2T1A3.jpg","37","restless",0.5,0.1,0.6,0.837555693223309,"false"
"image-keyboard-response",105,146323,"0.0-3.31-1.31","9uavves474fs3b2",850,"88.csv","","null","resources/maskTrios/L2BB.jpg","null","",NA,NA,NA,NA,""
"image-keyboard-response",106,147527,"0.0-3.31-2.31","9uavves474fs3b2",850,"88.csv","","null","resources/images/fishbone.png","null","",NA,NA,NA,NA,""
"image-keyboard-response",107,147922,"0.0-3.32-0.32","9uavves474fs3b2",850,"88.csv","","392","resources/trios/L1T2A3.jpg","39","restless",0.5,0.1,0.6,0.0472182467720621,"true"
"image-keyboard-response",108,148324,"0.0-3.32-1.32","9uavves474fs3b2",850,"88.csv","","null","resources/maskTrios/BBA3.jpg","null","",NA,NA,NA,NA,""
"image-keyboard-response",109,149529,"0.0-3.32-2.32","9uavves474fs3b2",850,"88.csv","","null","resources/images/coin2.png","null","",NA,NA,NA,NA,""
"image-keyboard-response",110,149990,"0.0-3.33-0.33","9uavves474fs3b2",850,"88.csv","","459","resources/trios/L2T2A3.jpg","39","restless",0.5,0.1,0.6,0.16475957217775,"true"
"image-keyboard-response",111,150393,"0.0-3.33-1.33","9uavves474fs3b2",850,"88.csv","","null","resources/maskTrios/BBA3.jpg","null","",NA,NA,NA,NA,""
"image-keyboard-response",112,151598,"0.0-3.33-2.33","9uavves474fs3b2",850,"88.csv","","null","resources/images/coin2.png","null","",NA,NA,NA,NA,""
"image-keyboard-response",113,152192,"0.0-3.34-0.34","9uavves474fs3b2",850,"88.csv","","592","resources/trios/L1T2A2.jpg","38","restless",0.5,0.2,0.6,0.348213404802543,"false"
"image-keyboard-response",114,152595,"0.0-3.34-1.34","9uavves474fs3b2",850,"88.csv","","null","resources/maskTrios/BT2B.jpg","null","",NA,NA,NA,NA,""
"image-keyboard-response",115,153798,"0.0-3.34-2.34","9uavves474fs3b2",850,"88.csv","","null","resources/images/fishbone.png","null","",NA,NA,NA,NA,""
"image-keyboard-response",116,154197,"0.0-3.35-0.35","9uavves474fs3b2",850,"88.csv","","390","resources/trios/L2T1A3.jpg","37","restless",0.5,0.3,0.6,0.806994331847795,"false"
"image-keyboard-response",117,154600,"0.0-3.35-1.35","9uavves474fs3b2",850,"88.csv","","null","resources/maskTrios/L2BB.jpg","null","",NA,NA,NA,NA,""
"image-keyboard-response",118,155803,"0.0-3.35-2.35","9uavves474fs3b2",850,"88.csv","","null","resources/images/fishbone.png","null","",NA,NA,NA,NA,""
"image-keyboard-response",119,156172,"0.0-3.36-0.36","9uavves474fs3b2",850,"88.csv","","366","resources/trios/L2T1A2.jpg","39","restless",0.5,0.3,0.6,0.242398570961132,"true"
"image-keyboard-response",120,156574,"0.0-3.36-1.36","9uavves474fs3b2",850,"88.csv","","null","resources/maskTrios/BBA2.jpg","null","",NA,NA,NA,NA,""
"image-keyboard-response",121,157779,"0.0-3.36-2.36","9uavves474fs3b2",850,"88.csv","","null","resources/images/coin2.png","null","",NA,NA,NA,NA,""
"image-keyboard-response",122,158293,"0.0-3.37-0.37","9uavves474fs3b2",850,"88.csv","","512","resources/trios/L1T2A2.jpg","38","restless",0.5,0.3,0.6,0.681151598730168,"false"
"image-keyboard-response",123,158696,"0.0-3.37-1.37","9uavves474fs3b2",850,"88.csv","","null","resources/maskTrios/BT2B.jpg","null","",NA,NA,NA,NA,""
"image-keyboard-response",124,159899,"0.0-3.37-2.37","9uavves474fs3b2",850,"88.csv","","null","resources/images/fishbone.png","null","",NA,NA,NA,NA,""
"image-keyboard-response",125,160278,"0.0-3.38-0.38","9uavves474fs3b2",850,"88.csv","","376","resources/trios/L2T1A2.jpg","37","restless",0.5,0.3,0.6,0.821040606243024,"false"
"image-keyboard-response",126,160681,"0.0-3.38-1.38","9uavves474fs3b2",850,"88.csv","","null","resources/maskTrios/L2BB.jpg","null","",NA,NA,NA,NA,""
"image-keyboard-response",127,161884,"0.0-3.38-2.38","9uavves474fs3b2",850,"88.csv","","null","resources/images/fishbone.png","null","",NA,NA,NA,NA,""
"image-keyboard-response",128,162237,"0.0-3.39-0.39","9uavves474fs3b2",850,"88.csv","","350","resources/trios/L2T1A2.jpg","39","restless",0.5,0.3,0.6,0.162346559940588,"true"
"image-keyboard-response",129,162642,"0.0-3.39-1.39","9uavves474fs3b2",850,"88.csv","","null","resources/maskTrios/BBA2.jpg","null","",NA,NA,NA,NA,""
"image-keyboard-response",130,163848,"0.0-3.39-2.39","9uavves474fs3b2",850,"88.csv","","null","resources/images/coin2.png","null","",NA,NA,NA,NA,""
"image-keyboard-response",131,164213,"0.0-3.40-0.40","9uavves474fs3b2",850,"88.csv","","360","resources/trios/L1T1A3.jpg","39","restless",0.5,0.3,0.6,0.536442823847162,"true"
"image-keyboard-response",132,164616,"0.0-3.40-1.40","9uavves474fs3b2",850,"88.csv","","null","resources/maskTrios/BBA3.jpg","null","",NA,NA,NA,NA,""
"image-keyboard-response",133,165821,"0.0-3.40-2.40","9uavves474fs3b2",850,"88.csv","","null","resources/images/coin2.png","null","",NA,NA,NA,NA,""
"image-keyboard-response",134,166587,"0.0-3.41-0.41","9uavves474fs3b2",850,"88.csv","","764","resources/trios/L2T1A3.jpg","39","restless",0.5,0.2,0.6,0.192285608131167,"true"
"image-keyboard-response",135,166990,"0.0-3.41-1.41","9uavves474fs3b2",850,"88.csv","","null","resources/maskTrios/BBA3.jpg","null","",NA,NA,NA,NA,""
"image-keyboard-response",136,168195,"0.0-3.41-2.41","9uavves474fs3b2",850,"88.csv","","null","resources/images/coin2.png","null","",NA,NA,NA,NA,""
"image-keyboard-response",137,168599,"0.0-3.42-0.42","9uavves474fs3b2",850,"88.csv","","400","resources/trios/L2T2A2.jpg","39","restless",0.5,0.2,0.6,0.197398615276598,"true"
"image-keyboard-response",138,169002,"0.0-3.42-1.42","9uavves474fs3b2",850,"88.csv","","null","resources/maskTrios/BBA2.jpg","null","",NA,NA,NA,NA,""
"image-keyboard-response",139,170206,"0.0-3.42-2.42","9uavves474fs3b2",850,"88.csv","","null","resources/images/coin2.png","null","",NA,NA,NA,NA,""
"image-keyboard-response",140,170609,"0.0-3.43-0.43","9uavves474fs3b2",850,"88.csv","","400","resources/trios/L2T1A3.jpg","39","restless",0.5,0.2,0.5,0.954841719607172,"false"
"image-keyboard-response",141,171012,"0.0-3.43-1.43","9uavves474fs3b2",850,"88.csv","","null","resources/maskTrios/BBA3.jpg","null","",NA,NA,NA,NA,""
"image-keyboard-response",142,172216,"0.0-3.43-2.43","9uavves474fs3b2",850,"88.csv","","null","resources/images/fishbone.png","null","",NA,NA,NA,NA,""
"image-keyboard-response",143,172594,"0.0-3.44-0.44","9uavves474fs3b2",850,"88.csv","","376.0000000000291","resources/trios/L2T1A2.jpg","37","restless",0.5,0.2,0.5,0.213993284937047,"true"
"image-keyboard-response",144,172997,"0.0-3.44-1.44","9uavves474fs3b2",850,"88.csv","","null","resources/maskTrios/L2BB.jpg","null","",NA,NA,NA,NA,""
"image-keyboard-response",145,174201,"0.0-3.44-2.44","9uavves474fs3b2",850,"88.csv","","null","resources/images/coin2.png","null","",NA,NA,NA,NA,""
"image-keyboard-response",146,174600,"0.0-3.45-0.45","9uavves474fs3b2",850,"88.csv","","396.0000000000291","resources/trios/L2T2A2.jpg","37","restless",0.5,0.2,0.5,0.727458394122795,"false"
"image-keyboard-response",147,175003,"0.0-3.45-1.45","9uavves474fs3b2",850,"88.csv","","null","resources/maskTrios/L2BB.jpg","null","",NA,NA,NA,NA,""
"image-keyboard-response",148,176206,"0.0-3.45-2.45","9uavves474fs3b2",850,"88.csv","","null","resources/images/fishbone.png","null","",NA,NA,NA,NA,""
"image-keyboard-response",149,176544,"0.0-3.46-0.46","9uavves474fs3b2",850,"88.csv","","330","resources/trios/L2T2A3.jpg","37","restless",0.5,0.2,0.4,0.129431037387219,"true"
"image-keyboard-response",150,176947,"0.0-3.46-1.46","9uavves474fs3b2",850,"88.csv","","null","resources/maskTrios/L2BB.jpg","null","",NA,NA,NA,NA,""
"image-keyboard-response",151,178151,"0.0-3.46-2.46","9uavves474fs3b2",850,"88.csv","","null","resources/images/coin2.png","null","",NA,NA,NA,NA,""
"image-keyboard-response",152,178568,"0.0-3.47-0.47","9uavves474fs3b2",850,"88.csv","","414","resources/trios/L1T1A2.jpg","37","restless",0.5,0.2,0.4,0.916025761085029,"false"
"image-keyboard-response",153,178975,"0.0-3.47-1.47","9uavves474fs3b2",850,"88.csv","","null","resources/maskTrios/L1BB.jpg","null","",NA,NA,NA,NA,""
"image-keyboard-response",154,180180,"0.0-3.47-2.47","9uavves474fs3b2",850,"88.csv","","null","resources/images/fishbone.png","null","",NA,NA,NA,NA,""
"image-keyboard-response",155,180584,"0.0-3.48-0.48","9uavves474fs3b2",850,"88.csv","","400","resources/trios/L2T1A3.jpg","37","restless",0.6,0.2,0.4,0.335259146795208,"true"
"image-keyboard-response",156,180987,"0.0-3.48-1.48","9uavves474fs3b2",850,"88.csv","","null","resources/maskTrios/L2BB.jpg","null","",NA,NA,NA,NA,""
"image-keyboard-response",157,182192,"0.0-3.48-2.48","9uavves474fs3b2",850,"88.csv","","null","resources/images/coin2.png","null","",NA,NA,NA,NA,""
"image-keyboard-response",158,182652,"0.0-3.49-0.49","9uavves474fs3b2",850,"88.csv","","456.9999999999709","resources/trios/L1T2A2.jpg","37","restless",0.6,0.2,0.5,0.646190551266488,"false"
"image-keyboard-response",159,183054,"0.0-3.49-1.49","9uavves474fs3b2",850,"88.csv","","null","resources/maskTrios/L1BB.jpg","null","",NA,NA,NA,NA,""
"image-keyboard-response",160,184258,"0.0-3.49-2.49","9uavves474fs3b2",850,"88.csv","","null","resources/images/fishbone.png","null","",NA,NA,NA,NA,""
"image-keyboard-response",161,184635,"0.0-3.50-0.50","9uavves474fs3b2",850,"88.csv","","373","resources/trios/L1T2A2.jpg","38","restless",0.6,0.2,0.5,0.678287443245294,"false"
"image-keyboard-response",162,185038,"0.0-3.50-1.50","9uavves474fs3b2",850,"88.csv","","null","resources/maskTrios/BT2B.jpg","null","",NA,NA,NA,NA,""
"image-keyboard-response",163,186241,"0.0-3.50-2.50","9uavves474fs3b2",850,"88.csv","","null","resources/images/fishbone.png","null","",NA,NA,NA,NA,""
"image-keyboard-response",164,186621,"0.0-3.51-0.51","9uavves474fs3b2",850,"88.csv","","376","resources/trios/L2T2A2.jpg","39","restless",0.7,0.2,0.5,0.0657048900332566,"true"
"image-keyboard-response",165,187024,"0.0-3.51-1.51","9uavves474fs3b2",850,"88.csv","","null","resources/maskTrios/BBA2.jpg","null","",NA,NA,NA,NA,""
"image-keyboard-response",166,188228,"0.0-3.51-2.51","9uavves474fs3b2",850,"88.csv","","null","resources/images/coin2.png","null","",NA,NA,NA,NA,""
"image-keyboard-response",167,188593,"0.0-3.52-0.52","9uavves474fs3b2",850,"88.csv","","362.0000000000291","resources/trios/L2T1A3.jpg","39","restless",0.8,0.2,0.5,0.212586874758372,"true"
"image-keyboard-response",168,188996,"0.0-3.52-1.52","9uavves474fs3b2",850,"88.csv","","null","resources/maskTrios/BBA3.jpg","null","",NA,NA,NA,NA,""
"image-keyboard-response",169,190201,"0.0-3.52-2.52","9uavves474fs3b2",850,"88.csv","","null","resources/images/coin2.png","null","",NA,NA,NA,NA,""
"image-keyboard-response",170,190582,"0.0-3.53-0.53","9uavves474fs3b2",850,"88.csv","","379","resources/trios/L2T1A2.jpg","39","restless",0.8,0.2,0.5,0.274406672385156,"true"
"image-keyboard-response",171,190985,"0.0-3.53-1.53","9uavves474fs3b2",850,"88.csv","","null","resources/maskTrios/BBA2.jpg","null","",NA,NA,NA,NA,""
"image-keyboard-response",172,192189,"0.0-3.53-2.53","9uavves474fs3b2",850,"88.csv","","null","resources/images/coin2.png","null","",NA,NA,NA,NA,""
"image-keyboard-response",173,192600,"0.0-3.54-0.54","9uavves474fs3b2",850,"88.csv","","408","resources/trios/L2T1A2.jpg","39","restless",0.7,0.1,0.5,0.88443758983967,"false"
"image-keyboard-response",174,193002,"0.0-3.54-1.54","9uavves474fs3b2",850,"88.csv","","null","resources/maskTrios/BBA2.jpg","null","",NA,NA,NA,NA,""
"image-keyboard-response",175,194206,"0.0-3.54-2.54","9uavves474fs3b2",850,"88.csv","","null","resources/images/fishbone.png","null","",NA,NA,NA,NA,""
"image-keyboard-response",176,194599,"0.0-3.55-0.55","9uavves474fs3b2",850,"88.csv","","390.0000000000291","resources/trios/L1T2A3.jpg","38","restless",0.7,0.1,0.5,0.866462489352622,"false"
"image-keyboard-response",177,195002,"0.0-3.55-1.55","9uavves474fs3b2",850,"88.csv","","null","resources/maskTrios/BT2B.jpg","null","",NA,NA,NA,NA,""
"image-keyboard-response",178,196205,"0.0-3.55-2.55","9uavves474fs3b2",850,"88.csv","","null","resources/images/fishbone.png","null","",NA,NA,NA,NA,""
"image-keyboard-response",179,196601,"0.0-3.56-0.56","9uavves474fs3b2",850,"88.csv","","393","resources/trios/L2T2A2.jpg","38","restless",0.7,0.1,0.5,0.0253577877847446,"true"
"image-keyboard-response",180,197003,"0.0-3.56-1.56","9uavves474fs3b2",850,"88.csv","","null","resources/maskTrios/BT2B.jpg","null","",NA,NA,NA,NA,""
"image-keyboard-response",181,198208,"0.0-3.56-2.56","9uavves474fs3b2",850,"88.csv","","null","resources/images/coin2.png","null","",NA,NA,NA,NA,""
"image-keyboard-response",182,198614,"0.0-3.57-0.57","9uavves474fs3b2",850,"88.csv","","404","resources/trios/L2T2A3.jpg","38","restless",0.7,0.1,0.5,0.669775932375605,"false"
"image-keyboard-response",183,199017,"0.0-3.57-1.57","9uavves474fs3b2",850,"88.csv","","null","resources/maskTrios/BT2B.jpg","null","",NA,NA,NA,NA,""
"image-keyboard-response",184,200220,"0.0-3.57-2.57","9uavves474fs3b2",850,"88.csv","","null","resources/images/fishbone.png","null","",NA,NA,NA,NA,""
"image-keyboard-response",185,200600,"0.0-3.58-0.58","9uavves474fs3b2",850,"88.csv","","370","resources/trios/L2T2A2.jpg","37","restless",0.7,0.1,0.5,0.731828888836741,"false"
"image-keyboard-response",186,201004,"0.0-3.58-1.58","9uavves474fs3b2",850,"88.csv","","null","resources/maskTrios/L2BB.jpg","null","",NA,NA,NA,NA,""
"image-keyboard-response",187,202208,"0.0-3.58-2.58","9uavves474fs3b2",850,"88.csv","","null","resources/images/fishbone.png","null","",NA,NA,NA,NA,""
"image-keyboard-response",188,202544,"0.0-3.59-0.59","9uavves474fs3b2",850,"88.csv","","324","resources/trios/L1T1A2.jpg","37","restless",0.7,0.1,0.5,0.932802394700017,"false"
"image-keyboard-response",189,202947,"0.0-3.59-1.59","9uavves474fs3b2",850,"88.csv","","null","resources/maskTrios/L1BB.jpg","null","",NA,NA,NA,NA,""
"image-keyboard-response",190,204151,"0.0-3.59-2.59","9uavves474fs3b2",850,"88.csv","","null","resources/images/fishbone.png","null","",NA,NA,NA,NA,""
"image-keyboard-response",191,204504,"0.0-3.60-0.60","9uavves474fs3b2",850,"88.csv","","350","resources/trios/L2T2A2.jpg","39","restless",0.6,0.2,0.5,0.877275635314429,"false"
"image-keyboard-response",192,204907,"0.0-3.60-1.60","9uavves474fs3b2",850,"88.csv","","null","resources/maskTrios/BBA2.jpg","null","",NA,NA,NA,NA,""
"image-keyboard-response",193,206110,"0.0-3.60-2.60","9uavves474fs3b2",850,"88.csv","","null","resources/images/fishbone.png","null","",NA,NA,NA,NA,""
"image-keyboard-response",194,206467,"0.0-3.61-0.61","9uavves474fs3b2",850,"88.csv","","353.0000000000291","resources/trios/L2T1A3.jpg","39","restless",0.6,0.2,0.5,0.0465119593724895,"true"
"image-keyboard-response",195,206869,"0.0-3.61-1.61","9uavves474fs3b2",850,"88.csv","","null","resources/maskTrios/BBA3.jpg","null","",NA,NA,NA,NA,""
"image-keyboard-response",196,208074,"0.0-3.61-2.61","9uavves474fs3b2",850,"88.csv","","null","resources/images/coin2.png","null","",NA,NA,NA,NA,""
"image-keyboard-response",197,208457,"0.0-3.62-0.62","9uavves474fs3b2",850,"88.csv","","379","resources/trios/L1T2A2.jpg","39","restless",0.6,0.2,0.5,0.50901464027618,"false"
"image-keyboard-response",198,208859,"0.0-3.62-1.62","9uavves474fs3b2",850,"88.csv","","null","resources/maskTrios/BBA2.jpg","null","",NA,NA,NA,NA,""
"image-keyboard-response",199,210063,"0.0-3.62-2.62","9uavves474fs3b2",850,"88.csv","","null","resources/images/fishbone.png","null","",NA,NA,NA,NA,""
"image-keyboard-response",200,210438,"0.0-3.63-0.63","9uavves474fs3b2",850,"88.csv","","372","resources/trios/L2T1A2.jpg","39","restless",0.6,0.2,0.5,0.875510481156475,"false"
"image-keyboard-response",201,210841,"0.0-3.63-1.63","9uavves474fs3b2",850,"88.csv","","null","resources/maskTrios/BBA2.jpg","null","",NA,NA,NA,NA,""
"image-keyboard-response",202,212044,"0.0-3.63-2.63","9uavves474fs3b2",850,"88.csv","","null","resources/images/fishbone.png","null","",NA,NA,NA,NA,""
"image-keyboard-response",203,212464,"0.0-3.64-0.64","9uavves474fs3b2",850,"88.csv","","417","resources/trios/L1T2A3.jpg","37","restless",0.7,0.3,0.5,0.00825555149160107,"true"
"image-keyboard-response",204,212866,"0.0-3.64-1.64","9uavves474fs3b2",850,"88.csv","","null","resources/maskTrios/L1BB.jpg","null","",NA,NA,NA,NA,""
"image-keyboard-response",205,214070,"0.0-3.64-2.64","9uavves474fs3b2",850,"88.csv","","null","resources/images/coin2.png","null","",NA,NA,NA,NA,""
"image-keyboard-response",206,214453,"0.0-3.65-0.65","9uavves474fs3b2",850,"88.csv","","374","resources/trios/L1T1A2.jpg","37","restless",0.7,0.3,0.6,0.0187801383228674,"true"
"image-keyboard-response",207,214856,"0.0-3.65-1.65","9uavves474fs3b2",850,"88.csv","","null","resources/maskTrios/L1BB.jpg","null","",NA,NA,NA,NA,""
"image-keyboard-response",208,216060,"0.0-3.65-2.65","9uavves474fs3b2",850,"88.csv","","null","resources/images/coin2.png","null","",NA,NA,NA,NA,""
"image-keyboard-response",209,216391,"0.0-3.66-0.66","9uavves474fs3b2",850,"88.csv","","328","resources/trios/L1T2A2.jpg","37","restless",0.7,0.3,0.6,0.294018213610091,"true"
"image-keyboard-response",210,216793,"0.0-3.66-1.66","9uavves474fs3b2",850,"88.csv","","null","resources/maskTrios/L1BB.jpg","null","",NA,NA,NA,NA,""
"image-keyboard-response",211,217998,"0.0-3.66-2.66","9uavves474fs3b2",850,"88.csv","","null","resources/images/coin2.png","null","",NA,NA,NA,NA,""
"image-keyboard-response",212,218389,"0.0-3.67-0.67","9uavves474fs3b2",850,"88.csv","","388","resources/trios/L1T1A2.jpg","37","restless",0.7,0.3,0.6,0.480798279935905,"true"
"image-keyboard-response",213,218791,"0.0-3.67-1.67","9uavves474fs3b2",850,"88.csv","","null","resources/maskTrios/L1BB.jpg","null","",NA,NA,NA,NA,""
"image-keyboard-response",214,219996,"0.0-3.67-2.67","9uavves474fs3b2",850,"88.csv","","null","resources/images/coin2.png","null","",NA,NA,NA,NA,""
"image-keyboard-response",215,220360,"0.0-3.68-0.68","9uavves474fs3b2",850,"88.csv","","360.0000000000291","resources/trios/L2T1A3.jpg","37","restless",0.7,0.3,0.6,0.552546257262444,"true"
"image-keyboard-response",216,220762,"0.0-3.68-1.68","9uavves474fs3b2",850,"88.csv","","null","resources/maskTrios/L2BB.jpg","null","",NA,NA,NA,NA,""
"image-keyboard-response",217,221967,"0.0-3.68-2.68","9uavves474fs3b2",850,"88.csv","","null","resources/images/coin2.png","null","",NA,NA,NA,NA,""
"image-keyboard-response",218,222338,"0.0-3.69-0.69","9uavves474fs3b2",850,"88.csv","","368","resources/trios/L1T1A2.jpg","37","restless",0.7,0.3,0.6,0.0560015225520746,"true"
"image-keyboard-response",219,222740,"0.0-3.69-1.69","9uavves474fs3b2",850,"88.csv","","null","resources/maskTrios/L1BB.jpg","null","",NA,NA,NA,NA,""
"image-keyboard-response",220,223944,"0.0-3.69-2.69","9uavves474fs3b2",850,"88.csv","","null","resources/images/coin2.png","null","",NA,NA,NA,NA,""
"image-keyboard-response",221,224318,"0.0-3.70-0.70","9uavves474fs3b2",850,"88.csv","","371","resources/trios/L2T2A2.jpg","37","restless",0.7,0.3,0.6,0.820847952701003,"false"
"image-keyboard-response",222,224721,"0.0-3.70-1.70","9uavves474fs3b2",850,"88.csv","","null","resources/maskTrios/L2BB.jpg","null","",NA,NA,NA,NA,""
"image-keyboard-response",223,225924,"0.0-3.70-2.70","9uavves474fs3b2",850,"88.csv","","null","resources/images/fishbone.png","null","",NA,NA,NA,NA,""
"image-keyboard-response",224,226260,"0.0-3.71-0.71","9uavves474fs3b2",850,"88.csv","","323.9999999999709","resources/trios/L2T2A2.jpg","37","restless",0.7,0.3,0.6,0.829838878203241,"false"
"image-keyboard-response",225,226663,"0.0-3.71-1.71","9uavves474fs3b2",850,"88.csv","","null","resources/maskTrios/L2BB.jpg","null","",NA,NA,NA,NA,""
"image-keyboard-response",226,227868,"0.0-3.71-2.71","9uavves474fs3b2",850,"88.csv","","null","resources/images/fishbone.png","null","",NA,NA,NA,NA,""
"image-keyboard-response",227,228371,"0.0-3.72-0.72","9uavves474fs3b2",850,"88.csv","","499.0000000000291","resources/trios/L1T1A2.jpg","39","restless",0.7,0.3,0.6,0.606576534371519,"false"
"image-keyboard-response",228,228774,"0.0-3.72-1.72","9uavves474fs3b2",850,"88.csv","","null","resources/maskTrios/BBA2.jpg","null","",NA,NA,NA,NA,""
"image-keyboard-response",229,229977,"0.0-3.72-2.72","9uavves474fs3b2",850,"88.csv","","null","resources/images/fishbone.png","null","",NA,NA,NA,NA,""
"image-keyboard-response",230,230362,"0.0-3.73-0.73","9uavves474fs3b2",850,"88.csv","","383","resources/trios/L2T1A3.jpg","38","restless",0.7,0.3,0.6,0.89964926123518,"false"
"image-keyboard-response",231,230765,"0.0-3.73-1.73","9uavves474fs3b2",850,"88.csv","","null","resources/maskTrios/BT1B.jpg","null","",NA,NA,NA,NA,""
"image-keyboard-response",232,231969,"0.0-3.73-2.73","9uavves474fs3b2",850,"88.csv","","null","resources/images/fishbone.png","null","",NA,NA,NA,NA,""
"image-keyboard-response",233,232329,"0.0-3.74-0.74","9uavves474fs3b2",850,"88.csv","","356.0000000000291","resources/trios/L1T1A3.jpg","37","restless",0.7,0.3,0.6,0.0308118165717389,"true"
"image-keyboard-response",234,232732,"0.0-3.74-1.74","9uavves474fs3b2",850,"88.csv","","null","resources/maskTrios/L1BB.jpg","null","",NA,NA,NA,NA,""
"image-keyboard-response",235,233936,"0.0-3.74-2.74","9uavves474fs3b2",850,"88.csv","","null","resources/images/coin2.png","null","",NA,NA,NA,NA,""
"image-keyboard-response",236,234252,"0.0-3.75-0.75","9uavves474fs3b2",850,"88.csv","","313","resources/trios/L2T1A3.jpg","37","restless",0.7,0.3,0.6,0.449854550094456,"true"
"image-keyboard-response",237,234655,"0.0-3.75-1.75","9uavves474fs3b2",850,"88.csv","","null","resources/maskTrios/L2BB.jpg","null","",NA,NA,NA,NA,""
"image-keyboard-response",238,235860,"0.0-3.75-2.75","9uavves474fs3b2",850,"88.csv","","null","resources/images/coin2.png","null","",NA,NA,NA,NA,""
"image-keyboard-response",239,236231,"0.0-3.76-0.76","9uavves474fs3b2",850,"88.csv","","369","resources/trios/L2T2A2.jpg","37","restless",0.7,0.3,0.6,0.723204342805442,"false"
"image-keyboard-response",240,236634,"0.0-3.76-1.76","9uavves474fs3b2",850,"88.csv","","null","resources/maskTrios/L2BB.jpg","null","",NA,NA,NA,NA,""
"image-keyboard-response",241,237837,"0.0-3.76-2.76","9uavves474fs3b2",850,"88.csv","","null","resources/images/fishbone.png","null","",NA,NA,NA,NA,""
"image-keyboard-response",242,238172,"0.0-3.77-0.77","9uavves474fs3b2",850,"88.csv","","331.9999999999709","resources/trios/L2T1A3.jpg","37","restless",0.7,0.3,0.6,0.639768749292582,"true"
"image-keyboard-response",243,238577,"0.0-3.77-1.77","9uavves474fs3b2",850,"88.csv","","null","resources/maskTrios/L2BB.jpg","null","",NA,NA,NA,NA,""
"image-keyboard-response",244,239781,"0.0-3.77-2.77","9uavves474fs3b2",850,"88.csv","","null","resources/images/coin2.png","null","",NA,NA,NA,NA,""
"image-keyboard-response",245,240380,"0.0-3.78-0.78","9uavves474fs3b2",850,"88.csv","","598.9999999999709","resources/trios/L1T2A2.jpg","37","restless",0.7,0.3,0.6,0.239754754459579,"true"
"image-keyboard-response",246,240783,"0.0-3.78-1.78","9uavves474fs3b2",850,"88.csv","","null","resources/maskTrios/L1BB.jpg","null","",NA,NA,NA,NA,""
"image-keyboard-response",247,241987,"0.0-3.78-2.78","9uavves474fs3b2",850,"88.csv","","null","resources/images/coin2.png","null","",NA,NA,NA,NA,""
"image-keyboard-response",248,242444,"0.0-3.79-0.79","9uavves474fs3b2",850,"88.csv","","454","resources/trios/L1T1A3.jpg","37","restless",0.7,0.3,0.6,0.922021894938926,"false"
"image-keyboard-response",249,242846,"0.0-3.79-1.79","9uavves474fs3b2",850,"88.csv","","null","resources/maskTrios/L1BB.jpg","null","",NA,NA,NA,NA,""
"image-keyboard-response",250,244050,"0.0-3.79-2.79","9uavves474fs3b2",850,"88.csv","","null","resources/images/fishbone.png","null","",NA,NA,NA,NA,""
"image-keyboard-response",251,244378,"0.0-3.80-0.80","9uavves474fs3b2",850,"88.csv","","325","resources/trios/L1T2A3.jpg","37","restless",0.7,0.3,0.6,0.332526244526545,"true"
"image-keyboard-response",252,244780,"0.0-3.80-1.80","9uavves474fs3b2",850,"88.csv","","null","resources/maskTrios/L1BB.jpg","null","",NA,NA,NA,NA,""
"image-keyboard-response",253,245985,"0.0-3.80-2.80","9uavves474fs3b2",850,"88.csv","","null","resources/images/coin2.png","null","",NA,NA,NA,NA,""
"image-keyboard-response",254,246377,"0.0-3.81-0.81","9uavves474fs3b2",850,"88.csv","","390","resources/trios/L2T2A2.jpg","37","restless",0.7,0.3,0.6,0.457749577739112,"true"
"image-keyboard-response",255,246780,"0.0-3.81-1.81","9uavves474fs3b2",850,"88.csv","","null","resources/maskTrios/L2BB.jpg","null","",NA,NA,NA,NA,""
"image-keyboard-response",256,247984,"0.0-3.81-2.81","9uavves474fs3b2",850,"88.csv","","null","resources/images/coin2.png","null","",NA,NA,NA,NA,""
"image-keyboard-response",257,248348,"0.0-3.82-0.82","9uavves474fs3b2",850,"88.csv","","361","resources/trios/L1T2A3.jpg","37","restless",0.7,0.3,0.6,0.46192946897031,"true"
"image-keyboard-response",258,248754,"0.0-3.82-1.82","9uavves474fs3b2",850,"88.csv","","null","resources/maskTrios/L1BB.jpg","null","",NA,NA,NA,NA,""
"image-keyboard-response",259,249960,"0.0-3.82-2.82","9uavves474fs3b2",850,"88.csv","","null","resources/images/coin2.png","null","",NA,NA,NA,NA,""
"image-keyboard-response",260,250696,"0.0-3.83-0.83","9uavves474fs3b2",850,"88.csv","","730","resources/trios/L1T2A3.jpg","37","restless",0.7,0.3,0.6,0.0489586354560598,"true"
"image-keyboard-response",261,251099,"0.0-3.83-1.83","9uavves474fs3b2",850,"88.csv","","null","resources/maskTrios/L1BB.jpg","null","",NA,NA,NA,NA,""
"image-keyboard-response",262,252304,"0.0-3.83-2.83","9uavves474fs3b2",850,"88.csv","","null","resources/images/coin2.png","null","",NA,NA,NA,NA,""
"image-keyboard-response",263,252617,"0.0-3.84-0.84","9uavves474fs3b2",850,"88.csv","","310","resources/trios/L2T1A2.jpg","37","restless",0.7,0.3,0.6,0.115998014679466,"true"
"image-keyboard-response",264,253020,"0.0-3.84-1.84","9uavves474fs3b2",850,"88.csv","","null","resources/maskTrios/L2BB.jpg","null","",NA,NA,NA,NA,""
"image-keyboard-response",265,254224,"0.0-3.84-2.84","9uavves474fs3b2",850,"88.csv","","null","resources/images/coin2.png","null","",NA,NA,NA,NA,""
"image-keyboard-response",266,254588,"0.0-3.85-0.85","9uavves474fs3b2",850,"88.csv","","359.9999999999418","resources/trios/L1T2A2.jpg","37","restless",0.7,0.3,0.6,0.111313406379023,"true"
"image-keyboard-response",267,254991,"0.0-3.85-1.85","9uavves474fs3b2",850,"88.csv","","null","resources/maskTrios/L1BB.jpg","null","",NA,NA,NA,NA,""
"image-keyboard-response",268,256196,"0.0-3.85-2.85","9uavves474fs3b2",850,"88.csv","","null","resources/images/coin2.png","null","",NA,NA,NA,NA,""
"image-keyboard-response",269,256591,"0.0-3.86-0.86","9uavves474fs3b2",850,"88.csv","","390.9999999999709","resources/trios/L2T1A2.jpg","37","restless",0.7,0.3,0.6,0.148435565216222,"true"
"image-keyboard-response",270,256993,"0.0-3.86-1.86","9uavves474fs3b2",850,"88.csv","","null","resources/maskTrios/L2BB.jpg","null","",NA,NA,NA,NA,""
"image-keyboard-response",271,258198,"0.0-3.86-2.86","9uavves474fs3b2",850,"88.csv","","null","resources/images/coin2.png","null","",NA,NA,NA,NA,""
"image-keyboard-response",272,259930,"0.0-3.87-0.87","9uavves474fs3b2",850,"88.csv","","1729.000000000029","resources/trios/L2T2A2.jpg","37","restless",0.7,0.3,0.6,0.586452662269201,"true"
"image-keyboard-response",273,260333,"0.0-3.87-1.87","9uavves474fs3b2",850,"88.csv","","null","resources/maskTrios/L2BB.jpg","null","",NA,NA,NA,NA,""
"image-keyboard-response",274,261543,"0.0-3.87-2.87","9uavves474fs3b2",850,"88.csv","","null","resources/images/coin2.png","null","",NA,NA,NA,NA,""
"image-keyboard-response",275,262171,"0.0-3.88-0.88","9uavves474fs3b2",850,"88.csv","","624","resources/trios/L1T2A3.jpg","37","restless",0.7,0.3,0.6,0.589184998868454,"true"
"image-keyboard-response",276,262575,"0.0-3.88-1.88","9uavves474fs3b2",850,"88.csv","","null","resources/maskTrios/L1BB.jpg","null","",NA,NA,NA,NA,""
"image-keyboard-response",277,263780,"0.0-3.88-2.88","9uavves474fs3b2",850,"88.csv","","null","resources/images/coin2.png","null","",NA,NA,NA,NA,""
"image-keyboard-response",278,264209,"0.0-3.89-0.89","9uavves474fs3b2",850,"88.csv","","425.9999999999418","resources/trios/L1T1A3.jpg","37","restless",0.7,0.3,0.6,0.360561612881978,"true"
"image-keyboard-response",279,264611,"0.0-3.89-1.89","9uavves474fs3b2",850,"88.csv","","null","resources/maskTrios/L1BB.jpg","null","",NA,NA,NA,NA,""
"image-keyboard-response",280,265815,"0.0-3.89-2.89","9uavves474fs3b2",850,"88.csv","","null","resources/images/coin2.png","null","",NA,NA,NA,NA,""
"image-keyboard-response",281,267244,"0.0-3.90-0.90","9uavves474fs3b2",850,"88.csv","","1425","resources/trios/L2T2A3.jpg","37","restless",0.7,0.3,0.6,0.206344359157897,"true"
"image-keyboard-response",282,267646,"0.0-3.90-1.90","9uavves474fs3b2",850,"88.csv","","null","resources/maskTrios/L2BB.jpg","null","",NA,NA,NA,NA,""
"image-keyboard-response",283,268850,"0.0-3.90-2.90","9uavves474fs3b2",850,"88.csv","","null","resources/images/coin2.png","null","",NA,NA,NA,NA,""
"image-keyboard-response",284,269365,"0.0-3.91-0.91","9uavves474fs3b2",850,"88.csv","","512","resources/trios/L1T1A2.jpg","37","restless",0.7,0.3,0.6,0.802295219997385,"false"
"image-keyboard-response",285,269768,"0.0-3.91-1.91","9uavves474fs3b2",850,"88.csv","","null","resources/maskTrios/L1BB.jpg","null","",NA,NA,NA,NA,""
"image-keyboard-response",286,270972,"0.0-3.91-2.91","9uavves474fs3b2",850,"88.csv","","null","resources/images/fishbone.png","null","",NA,NA,NA,NA,""
"image-keyboard-response",287,271345,"0.0-3.92-0.92","9uavves474fs3b2",850,"88.csv","","369","resources/trios/L2T1A2.jpg","39","restless",0.7,0.3,0.6,0.960347571786193,"false"
"image-keyboard-response",288,271747,"0.0-3.92-1.92","9uavves474fs3b2",850,"88.csv","","null","resources/maskTrios/BBA2.jpg","null","",NA,NA,NA,NA,""
"image-keyboard-response",289,272951,"0.0-3.92-2.92","9uavves474fs3b2",850,"88.csv","","null","resources/images/fishbone.png","null","",NA,NA,NA,NA,""
"image-keyboard-response",290,273446,"0.0-3.93-0.93","9uavves474fs3b2",850,"88.csv","","492","resources/trios/L1T1A3.jpg","39","restless",0.7,0.3,0.6,0.0937734577889291,"true"
"image-keyboard-response",291,273848,"0.0-3.93-1.93","9uavves474fs3b2",850,"88.csv","","null","resources/maskTrios/BBA3.jpg","null","",NA,NA,NA,NA,""
"image-keyboard-response",292,275053,"0.0-3.93-2.93","9uavves474fs3b2",850,"88.csv","","null","resources/images/coin2.png","null","",NA,NA,NA,NA,""
"image-keyboard-response",293,275413,"0.0-3.94-0.94","9uavves474fs3b2",850,"88.csv","","356.9999999999418","resources/trios/L2T2A3.jpg","39","restless",0.7,0.3,0.6,0.938108808088701,"false"
"image-keyboard-response",294,275816,"0.0-3.94-1.94","9uavves474fs3b2",850,"88.csv","","null","resources/maskTrios/BBA3.jpg","null","",NA,NA,NA,NA,""
"image-keyboard-response",295,277019,"0.0-3.94-2.94","9uavves474fs3b2",850,"88.csv","","null","resources/images/fishbone.png","null","",NA,NA,NA,NA,""
"image-keyboard-response",296,277347,"0.0-3.95-0.95","9uavves474fs3b2",850,"88.csv","","326","resources/trios/L1T2A2.jpg","39","restless",0.7,0.3,0.6,0.268315228277492,"true"
"image-keyboard-response",297,277750,"0.0-3.95-1.95","9uavves474fs3b2",850,"88.csv","","null","resources/maskTrios/BBA2.jpg","null","",NA,NA,NA,NA,""
"image-keyboard-response",298,278954,"0.0-3.95-2.95","9uavves474fs3b2",850,"88.csv","","null","resources/images/coin2.png","null","",NA,NA,NA,NA,""
"image-keyboard-response",299,279340,"0.0-3.96-0.96","9uavves474fs3b2",850,"88.csv","","382","resources/trios/L2T1A2.jpg","39","restless",0.7,0.3,0.6,0.23115297460409,"true"
"image-keyboard-response",300,279743,"0.0-3.96-1.96","9uavves474fs3b2",850,"88.csv","","null","resources/maskTrios/BBA2.jpg","null","",NA,NA,NA,NA,""
"image-keyboard-response",301,280947,"0.0-3.96-2.96","9uavves474fs3b2",850,"88.csv","","null","resources/images/coin2.png","null","",NA,NA,NA,NA,""
"image-keyboard-response",302,281274,"0.0-3.97-0.97","9uavves474fs3b2",850,"88.csv","","324","resources/trios/L2T2A2.jpg","39","restless",0.7,0.3,0.6,0.915403821207872,"false"
"image-keyboard-response",303,281676,"0.0-3.97-1.97","9uavves474fs3b2",850,"88.csv","","null","resources/maskTrios/BBA2.jpg","null","",NA,NA,NA,NA,""
"image-keyboard-response",304,282881,"0.0-3.97-2.97","9uavves474fs3b2",850,"88.csv","","null","resources/images/fishbone.png","null","",NA,NA,NA,NA,""
"image-keyboard-response",305,283282,"0.0-3.98-0.98","9uavves474fs3b2",850,"88.csv","","399","resources/trios/L2T1A3.jpg","38","restless",0.7,0.3,0.6,0.706383429633872,"false"
"image-keyboard-response",306,283685,"0.0-3.98-1.98","9uavves474fs3b2",850,"88.csv","","null","resources/maskTrios/BT1B.jpg","null","",NA,NA,NA,NA,""
"image-keyboard-response",307,284888,"0.0-3.98-2.98","9uavves474fs3b2",850,"88.csv","","null","resources/images/fishbone.png","null","",NA,NA,NA,NA,""
"image-keyboard-response",308,285335,"0.0-3.99-0.99","9uavves474fs3b2",850,"88.csv","","443.0000000000582","resources/trios/L1T1A3.jpg","38","restless",0.7,0.3,0.6,0.925737454573697,"false"
"image-keyboard-response",309,285737,"0.0-3.99-1.99","9uavves474fs3b2",850,"88.csv","","null","resources/maskTrios/BT1B.jpg","null","",NA,NA,NA,NA,""
"image-keyboard-response",310,286941,"0.0-3.99-2.99","9uavves474fs3b2",850,"88.csv","","null","resources/images/fishbone.png","null","",NA,NA,NA,NA,""
"image-keyboard-response",311,287297,"0.0-3.100-0.100","9uavves474fs3b2",850,"88.csv","","353","resources/trios/L1T1A3.jpg","37","restless",0.7,0.3,0.6,0.868137193367987,"false"
"image-keyboard-response",312,287702,"0.0-3.100-1.100","9uavves474fs3b2",850,"88.csv","","null","resources/maskTrios/L1BB.jpg","null","",NA,NA,NA,NA,""
"image-keyboard-response",313,288906,"0.0-3.100-2.100","9uavves474fs3b2",850,"88.csv","","null","resources/images/fishbone.png","null","",NA,NA,NA,NA,""
"image-keyboard-response",314,289294,"0.0-3.101-0.101","9uavves474fs3b2",850,"88.csv","","384.0000000000582","resources/trios/L2T1A2.jpg","37","restless",0.7,0.3,0.6,0.850313362504031,"false"
"image-keyboard-response",315,289700,"0.0-3.101-1.101","9uavves474fs3b2",850,"88.csv","","null","resources/maskTrios/L2BB.jpg","null","",NA,NA,NA,NA,""
"image-keyboard-response",316,290905,"0.0-3.101-2.101","9uavves474fs3b2",850,"88.csv","","null","resources/images/fishbone.png","null","",NA,NA,NA,NA,""
"image-keyboard-response",317,291285,"0.0-3.102-0.102","9uavves474fs3b2",850,"88.csv","","375","resources/trios/L1T2A2.jpg","37","restless",0.7,0.3,0.6,0.299425930189522,"true"
"image-keyboard-response",318,291688,"0.0-3.102-1.102","9uavves474fs3b2",850,"88.csv","","null","resources/maskTrios/L1BB.jpg","null","",NA,NA,NA,NA,""
"image-keyboard-response",319,292893,"0.0-3.102-2.102","9uavves474fs3b2",850,"88.csv","","null","resources/images/coin2.png","null","",NA,NA,NA,NA,""
"image-keyboard-response",320,293262,"0.0-3.103-0.103","9uavves474fs3b2",850,"88.csv","","365","resources/trios/L1T2A2.jpg","37","restless",0.7,0.3,0.6,0.146264497396099,"true"
"image-keyboard-response",321,293664,"0.0-3.103-1.103","9uavves474fs3b2",850,"88.csv","","null","resources/maskTrios/L1BB.jpg","null","",NA,NA,NA,NA,""
"image-keyboard-response",322,294869,"0.0-3.103-2.103","9uavves474fs3b2",850,"88.csv","","null","resources/images/coin2.png","null","",NA,NA,NA,NA,""
"image-keyboard-response",323,295262,"0.0-3.104-0.104","9uavves474fs3b2",850,"88.csv","","391","resources/trios/L1T1A3.jpg","37","restless",0.7,0.3,0.6,0.154893563172272,"true"
"image-keyboard-response",324,295666,"0.0-3.104-1.104","9uavves474fs3b2",850,"88.csv","","null","resources/maskTrios/L1BB.jpg","null","",NA,NA,NA,NA,""
"image-keyboard-response",325,296870,"0.0-3.104-2.104","9uavves474fs3b2",850,"88.csv","","null","resources/images/coin2.png","null","",NA,NA,NA,NA,""
"image-keyboard-response",326,297247,"0.0-3.105-0.105","9uavves474fs3b2",850,"88.csv","","368","resources/trios/L1T2A3.jpg","37","restless",0.7,0.3,0.6,0.578692035117303,"true"
"image-keyboard-response",327,297650,"0.0-3.105-1.105","9uavves474fs3b2",850,"88.csv","","null","resources/maskTrios/L1BB.jpg","null","",NA,NA,NA,NA,""
"image-keyboard-response",328,298854,"0.0-3.105-2.105","9uavves474fs3b2",850,"88.csv","","null","resources/images/coin2.png","null","",NA,NA,NA,NA,""
"image-keyboard-response",329,300296,"0.0-3.106-0.106","9uavves474fs3b2",850,"88.csv","","1438.9999999999418","resources/trios/L2T2A3.jpg","38","restless",0.6,0.3,0.6,0.610325707492437,"false"
"image-keyboard-response",330,300703,"0.0-3.106-1.106","9uavves474fs3b2",850,"88.csv","","null","resources/maskTrios/BT2B.jpg","null","",NA,NA,NA,NA,""
"image-keyboard-response",331,301907,"0.0-3.106-2.106","9uavves474fs3b2",850,"88.csv","","null","resources/images/fishbone.png","null","",NA,NA,NA,NA,""
"image-keyboard-response",332,302433,"0.0-3.107-0.107","9uavves474fs3b2",850,"88.csv","","523","resources/trios/L1T2A3.jpg","39","restless",0.6,0.3,0.6,0.439490740197057,"true"
"image-keyboard-response",333,302836,"0.0-3.107-1.107","9uavves474fs3b2",850,"88.csv","","null","resources/maskTrios/BBA3.jpg","null","",NA,NA,NA,NA,""
"image-keyboard-response",334,304040,"0.0-3.107-2.107","9uavves474fs3b2",850,"88.csv","","null","resources/images/coin2.png","null","",NA,NA,NA,NA,""
"image-keyboard-response",335,304648,"0.0-3.108-0.108","9uavves474fs3b2",850,"88.csv","","605","resources/trios/L1T1A3.jpg","39","restless",0.6,0.3,0.6,0.127654169465065,"true"
"image-keyboard-response",336,305051,"0.0-3.108-1.108","9uavves474fs3b2",850,"88.csv","","null","resources/maskTrios/BBA3.jpg","null","",NA,NA,NA,NA,""
"image-keyboard-response",337,306255,"0.0-3.108-2.108","9uavves474fs3b2",850,"88.csv","","null","resources/images/coin2.png","null","",NA,NA,NA,NA,""
"image-keyboard-response",338,306892,"0.0-3.109-0.109","9uavves474fs3b2",850,"88.csv","","634","resources/trios/L2T1A3.jpg","39","restless",0.6,0.3,0.6,0.478172057175342,"true"
"image-keyboard-response",339,307295,"0.0-3.109-1.109","9uavves474fs3b2",850,"88.csv","","null","resources/maskTrios/BBA3.jpg","null","",NA,NA,NA,NA,""
"image-keyboard-response",340,308499,"0.0-3.109-2.109","9uavves474fs3b2",850,"88.csv","","null","resources/images/coin2.png","null","",NA,NA,NA,NA,""
"image-keyboard-response",341,309894,"0.0-3.110-0.110","9uavves474fs3b2",850,"88.csv","","1392","resources/trios/L1T1A2.jpg","38","restless",0.6,0.3,0.6,0.0128935747442099,"true"
"image-keyboard-response",342,310297,"0.0-3.110-1.110","9uavves474fs3b2",850,"88.csv","","null","resources/maskTrios/BT1B.jpg","null","",NA,NA,NA,NA,""
"image-keyboard-response",343,311501,"0.0-3.110-2.110","9uavves474fs3b2",850,"88.csv","","null","resources/images/coin2.png","null","",NA,NA,NA,NA,""
"image-keyboard-response",344,312160,"0.0-3.111-0.111","9uavves474fs3b2",850,"88.csv","","656","resources/trios/L1T1A3.jpg","38","restless",0.6,0.3,0.5,0.52619934938527,"false"
"image-keyboard-response",345,312562,"0.0-3.111-1.111","9uavves474fs3b2",850,"88.csv","","null","resources/maskTrios/BT1B.jpg","null","",NA,NA,NA,NA,""
"image-keyboard-response",346,313765,"0.0-3.111-2.111","9uavves474fs3b2",850,"88.csv","","null","resources/images/fishbone.png","null","",NA,NA,NA,NA,""
"image-keyboard-response",347,314454,"0.0-3.112-0.112","9uavves474fs3b2",850,"88.csv","","686","resources/trios/L2T2A2.jpg","37","restless",0.6,0.3,0.5,0.359008456404736,"true"
"image-keyboard-response",348,314857,"0.0-3.112-1.112","9uavves474fs3b2",850,"88.csv","","null","resources/maskTrios/L2BB.jpg","null","",NA,NA,NA,NA,""
"image-keyboard-response",349,316061,"0.0-3.112-2.112","9uavves474fs3b2",850,"88.csv","","null","resources/images/coin2.png","null","",NA,NA,NA,NA,""
"image-keyboard-response",350,317096,"0.0-3.113-0.113","9uavves474fs3b2",850,"88.csv","","1033","resources/trios/L2T2A2.jpg","38","restless",0.6,0.3,0.5,0.225430058547742,"true"
"image-keyboard-response",351,317499,"0.0-3.113-1.113","9uavves474fs3b2",850,"88.csv","","null","resources/maskTrios/BT2B.jpg","null","",NA,NA,NA,NA,""
"image-keyboard-response",352,318703,"0.0-3.113-2.113","9uavves474fs3b2",850,"88.csv","","null","resources/images/coin2.png","null","",NA,NA,NA,NA,""
"image-keyboard-response",353,319980,"0.0-3.114-0.114","9uavves474fs3b2",850,"88.csv","","1274","resources/trios/L1T2A3.jpg","39","restless",0.6,0.3,0.5,0.79935185498012,"false"
"image-keyboard-response",354,320386,"0.0-3.114-1.114","9uavves474fs3b2",850,"88.csv","","null","resources/maskTrios/BBA3.jpg","null","",NA,NA,NA,NA,""
"image-keyboard-response",355,321590,"0.0-3.114-2.114","9uavves474fs3b2",850,"88.csv","","null","resources/images/fishbone.png","null","",NA,NA,NA,NA,""
"image-keyboard-response",356,324071,"0.0-3.115-0.115","9uavves474fs3b2",850,"88.csv","","2477.000000000058","resources/trios/L1T1A3.jpg","38","restless",0.5,0.3,0.5,0.818645364305033,"false"
"image-keyboard-response",357,324477,"0.0-3.115-1.115","9uavves474fs3b2",850,"88.csv","","null","resources/maskTrios/BT1B.jpg","null","",NA,NA,NA,NA,""
"image-keyboard-response",358,325682,"0.0-3.115-2.115","9uavves474fs3b2",850,"88.csv","","null","resources/images/fishbone.png","null","",NA,NA,NA,NA,""
"image-keyboard-response",359,326374,"0.0-3.116-0.116","9uavves474fs3b2",850,"88.csv","","687","resources/trios/L2T1A2.jpg","37","restless",0.5,0.3,0.5,0.0620288723294488,"true"
"image-keyboard-response",360,326777,"0.0-3.116-1.116","9uavves474fs3b2",850,"88.csv","","null","resources/maskTrios/L2BB.jpg","null","",NA,NA,NA,NA,""
"image-keyboard-response",361,327982,"0.0-3.116-2.116","9uavves474fs3b2",850,"88.csv","","null","resources/images/coin2.png","null","",NA,NA,NA,NA,""
"image-keyboard-response",362,328780,"0.0-3.117-0.117","9uavves474fs3b2",850,"88.csv","","795","resources/trios/L2T1A2.jpg","37","restless",0.5,0.3,0.5,0.355715503592216,"true"
"image-keyboard-response",363,329183,"0.0-3.117-1.117","9uavves474fs3b2",850,"88.csv","","null","resources/maskTrios/L2BB.jpg","null","",NA,NA,NA,NA,""
"image-keyboard-response",364,330388,"0.0-3.117-2.117","9uavves474fs3b2",850,"88.csv","","null","resources/images/coin2.png","null","",NA,NA,NA,NA,""
"image-keyboard-response",365,331635,"0.0-3.118-0.118","9uavves474fs3b2",850,"88.csv","","1244","resources/trios/L1T1A2.jpg","37","restless",0.5,0.3,0.5,0.394622905377708,"true"
"image-keyboard-response",366,332038,"0.0-3.118-1.118","9uavves474fs3b2",850,"88.csv","","null","resources/maskTrios/L1BB.jpg","null","",NA,NA,NA,NA,""
"image-keyboard-response",367,333242,"0.0-3.118-2.118","9uavves474fs3b2",850,"88.csv","","null","resources/images/coin2.png","null","",NA,NA,NA,NA,""
"image-keyboard-response",368,334166,"0.0-3.119-0.119","9uavves474fs3b2",850,"88.csv","","915.0000000000582","resources/trios/L2T2A2.jpg","37","restless",0.4,0.4,0.5,0.366786329221653,"true"
"image-keyboard-response",369,334569,"0.0-3.119-1.119","9uavves474fs3b2",850,"88.csv","","null","resources/maskTrios/L2BB.jpg","null","",NA,NA,NA,NA,""
"image-keyboard-response",370,335773,"0.0-3.119-2.119","9uavves474fs3b2",850,"88.csv","","null","resources/images/coin2.png","null","",NA,NA,NA,NA,""
"image-keyboard-response",371,336785,"0.0-3.120-0.120","9uavves474fs3b2",850,"88.csv","","1009","resources/trios/L1T1A3.jpg","37","restless",0.4,0.4,0.5,0.236967539356923,"true"
"image-keyboard-response",372,337190,"0.0-3.120-1.120","9uavves474fs3b2",850,"88.csv","","null","resources/maskTrios/L1BB.jpg","null","",NA,NA,NA,NA,""
"image-keyboard-response",373,338395,"0.0-3.120-2.120","9uavves474fs3b2",850,"88.csv","","null","resources/images/coin2.png","null","",NA,NA,NA,NA,""
"image-keyboard-response",374,340003,"0.0-3.121-0.121","9uavves474fs3b2",850,"88.csv","","1605","resources/trios/L2T2A2.jpg","37","restless",0.4,0.5,0.5,0.094214788224829,"true"
"image-keyboard-response",375,340406,"0.0-3.121-1.121","9uavves474fs3b2",850,"88.csv","","null","resources/maskTrios/L2BB.jpg","null","",NA,NA,NA,NA,""
"image-keyboard-response",376,341610,"0.0-3.121-2.121","9uavves474fs3b2",850,"88.csv","","null","resources/images/coin2.png","null","",NA,NA,NA,NA,""
"image-keyboard-response",377,342380,"0.0-3.122-0.122","9uavves474fs3b2",850,"88.csv","","767","resources/trios/L2T2A2.jpg","37","restless",0.4,0.5,0.5,0.540626462119557,"false"
"image-keyboard-response",378,342783,"0.0-3.122-1.122","9uavves474fs3b2",850,"88.csv","","null","resources/maskTrios/L2BB.jpg","null","",NA,NA,NA,NA,""
"image-keyboard-response",379,343987,"0.0-3.122-2.122","9uavves474fs3b2",850,"88.csv","","null","resources/images/fishbone.png","null","",NA,NA,NA,NA,""
"image-keyboard-response",380,344857,"0.0-3.123-0.123","9uavves474fs3b2",850,"88.csv","","868","resources/trios/L1T2A3.jpg","37","restless",0.4,0.5,0.4,0.993849164036799,"false"
"image-keyboard-response",381,345259,"0.0-3.123-1.123","9uavves474fs3b2",850,"88.csv","","null","resources/maskTrios/L1BB.jpg","null","",NA,NA,NA,NA,""
"image-keyboard-response",382,346463,"0.0-3.123-2.123","9uavves474fs3b2",850,"88.csv","","null","resources/images/fishbone.png","null","",NA,NA,NA,NA,""
"image-keyboard-response",383,349025,"0.0-3.124-0.124","9uavves474fs3b2",850,"88.csv","","2559","resources/trios/L1T2A2.jpg","38","restless",0.4,0.5,0.3,0.176794842439994,"true"
"image-keyboard-response",384,349428,"0.0-3.124-1.124","9uavves474fs3b2",850,"88.csv","","null","resources/maskTrios/BT2B.jpg","null","",NA,NA,NA,NA,""
"image-keyboard-response",385,350632,"0.0-3.124-2.124","9uavves474fs3b2",850,"88.csv","","null","resources/images/coin2.png","null","",NA,NA,NA,NA,""
"image-keyboard-response",386,351934,"0.0-3.125-0.125","9uavves474fs3b2",850,"88.csv","","1299","resources/trios/L1T2A3.jpg","38","restless",0.4,0.5,0.3,0.925825462585155,"false"
"image-keyboard-response",387,352337,"0.0-3.125-1.125","9uavves474fs3b2",850,"88.csv","","null","resources/maskTrios/BT2B.jpg","null","",NA,NA,NA,NA,""
"image-keyboard-response",388,353540,"0.0-3.125-2.125","9uavves474fs3b2",850,"88.csv","","null","resources/images/fishbone.png","null","",NA,NA,NA,NA,""
"image-keyboard-response",389,356194,"0.0-3.126-0.126","9uavves474fs3b2",850,"88.csv","","2650.000000000058","resources/trios/L2T1A2.jpg","37","restless",0.4,0.5,0.3,0.918428287357644,"false"
"image-keyboard-response",390,356596,"0.0-3.126-1.126","9uavves474fs3b2",850,"88.csv","","null","resources/maskTrios/L2BB.jpg","null","",NA,NA,NA,NA,""
"image-keyboard-response",391,357800,"0.0-3.126-2.126","9uavves474fs3b2",850,"88.csv","","null","resources/images/fishbone.png","null","",NA,NA,NA,NA,""
"image-keyboard-response",392,358744,"0.0-3.127-0.127","9uavves474fs3b2",850,"88.csv","","941","resources/trios/L2T2A2.jpg","39","restless",0.4,0.5,0.3,0.91239219657243,"false"
"image-keyboard-response",393,359147,"0.0-3.127-1.127","9uavves474fs3b2",850,"88.csv","","null","resources/maskTrios/BBA2.jpg","null","",NA,NA,NA,NA,""
"image-keyboard-response",394,360351,"0.0-3.127-2.127","9uavves474fs3b2",850,"88.csv","","null","resources/images/fishbone.png","null","",NA,NA,NA,NA,""
"image-keyboard-response",395,361625,"0.0-3.128-0.128","9uavves474fs3b2",850,"88.csv","","1270.9999999999418","resources/trios/L2T1A2.jpg","37","restless",0.4,0.5,0.3,0.282450364508114,"true"
"image-keyboard-response",396,362028,"0.0-3.128-1.128","9uavves474fs3b2",850,"88.csv","","null","resources/maskTrios/L2BB.jpg","null","",NA,NA,NA,NA,""
"image-keyboard-response",397,363232,"0.0-3.128-2.128","9uavves474fs3b2",850,"88.csv","","null","resources/images/coin2.png","null","",NA,NA,NA,NA,""
"image-keyboard-response",398,364007,"0.0-3.129-0.129","9uavves474fs3b2",850,"88.csv","","772","resources/trios/L2T2A2.jpg","37","restless",0.4,0.6,0.3,0.339920337732094,"true"
"image-keyboard-response",399,364412,"0.0-3.129-1.129","9uavves474fs3b2",850,"88.csv","","null","resources/maskTrios/L2BB.jpg","null","",NA,NA,NA,NA,""
"image-keyboard-response",400,365616,"0.0-3.129-2.129","9uavves474fs3b2",850,"88.csv","","null","resources/images/coin2.png","null","",NA,NA,NA,NA,""
"image-keyboard-response",401,366172,"0.0-3.130-0.130","9uavves474fs3b2",850,"88.csv","","553","resources/trios/L2T2A3.jpg","37","restless",0.4,0.6,0.3,0.796557475987905,"false"
"image-keyboard-response",402,366575,"0.0-3.130-1.130","9uavves474fs3b2",850,"88.csv","","null","resources/maskTrios/L2BB.jpg","null","",NA,NA,NA,NA,""
"image-keyboard-response",403,367786,"0.0-3.130-2.130","9uavves474fs3b2",850,"88.csv","","null","resources/images/fishbone.png","null","",NA,NA,NA,NA,""
"image-keyboard-response",404,368579,"0.0-3.131-0.131","9uavves474fs3b2",850,"88.csv","","788.0000000000582","resources/trios/L1T1A3.jpg","37","restless",0.4,0.6,0.3,0.0231204383590646,"true"
"image-keyboard-response",405,368982,"0.0-3.131-1.131","9uavves474fs3b2",850,"88.csv","","null","resources/maskTrios/L1BB.jpg","null","",NA,NA,NA,NA,""
"image-keyboard-response",406,370188,"0.0-3.131-2.131","9uavves474fs3b2",850,"88.csv","","null","resources/images/coin2.png","null","",NA,NA,NA,NA,""
"image-keyboard-response",407,372586,"0.0-3.132-0.132","9uavves474fs3b2",850,"88.csv","","2394","resources/trios/L2T1A2.jpg","39","restless",0.4,0.6,0.3,0.671416722137566,"false"
"image-keyboard-response",408,372988,"0.0-3.132-1.132","9uavves474fs3b2",850,"88.csv","","null","resources/maskTrios/BBA2.jpg","null","",NA,NA,NA,NA,""
"image-keyboard-response",409,374192,"0.0-3.132-2.132","9uavves474fs3b2",850,"88.csv","","null","resources/images/fishbone.png","null","",NA,NA,NA,NA,""
"image-keyboard-response",410,375243,"0.0-3.133-0.133","9uavves474fs3b2",850,"88.csv","","1048","resources/trios/L1T2A3.jpg","38","restless",0.4,0.6,0.3,0.203404399818708,"true"
"image-keyboard-response",411,375645,"0.0-3.133-1.133","9uavves474fs3b2",850,"88.csv","","null","resources/maskTrios/BT2B.jpg","null","",NA,NA,NA,NA,""
"image-keyboard-response",412,376850,"0.0-3.133-2.133","9uavves474fs3b2",850,"88.csv","","null","resources/images/coin2.png","null","",NA,NA,NA,NA,""
"image-keyboard-response",413,378104,"0.0-3.134-0.134","9uavves474fs3b2",850,"88.csv","","1250","resources/trios/L1T2A2.jpg","38","restless",0.4,0.6,0.3,0.898155465087694,"false"
"image-keyboard-response",414,378507,"0.0-3.134-1.134","9uavves474fs3b2",850,"88.csv","","null","resources/maskTrios/BT2B.jpg","null","",NA,NA,NA,NA,""
"image-keyboard-response",415,379711,"0.0-3.134-2.134","9uavves474fs3b2",850,"88.csv","","null","resources/images/fishbone.png","null","",NA,NA,NA,NA,""
"image-keyboard-response",416,380339,"0.0-3.135-0.135","9uavves474fs3b2",850,"88.csv","","625","resources/trios/L1T2A2.jpg","37","restless",0.4,0.6,0.4,0.244850837322852,"true"
"image-keyboard-response",417,380742,"0.0-3.135-1.135","9uavves474fs3b2",850,"88.csv","","null","resources/maskTrios/L1BB.jpg","null","",NA,NA,NA,NA,""
"image-keyboard-response",418,381946,"0.0-3.135-2.135","9uavves474fs3b2",850,"88.csv","","null","resources/images/coin2.png","null","",NA,NA,NA,NA,""
"image-keyboard-response",419,382753,"0.0-3.136-0.136","9uavves474fs3b2",850,"88.csv","","804.9999999999418","resources/trios/L2T1A2.jpg","37","restless",0.4,0.6,0.4,0.55480321902239,"false"
"image-keyboard-response",420,383156,"0.0-3.136-1.136","9uavves474fs3b2",850,"88.csv","","null","resources/maskTrios/L2BB.jpg","null","",NA,NA,NA,NA,""
"image-keyboard-response",421,384359,"0.0-3.136-2.136","9uavves474fs3b2",850,"88.csv","","null","resources/images/fishbone.png","null","",NA,NA,NA,NA,""
"image-keyboard-response",422,384911,"0.0-3.137-0.137","9uavves474fs3b2",850,"88.csv","","548","resources/trios/L2T2A3.jpg","37","restless",0.4,0.6,0.4,0.377645255748827,"true"
"image-keyboard-response",423,385313,"0.0-3.137-1.137","9uavves474fs3b2",850,"88.csv","","null","resources/maskTrios/L2BB.jpg","null","",NA,NA,NA,NA,""
"image-keyboard-response",424,386517,"0.0-3.137-2.137","9uavves474fs3b2",850,"88.csv","","null","resources/images/coin2.png","null","",NA,NA,NA,NA,""
"image-keyboard-response",425,387322,"0.0-3.138-0.138","9uavves474fs3b2",850,"88.csv","","802","resources/trios/L2T1A3.jpg","37","restless",0.3,0.6,0.4,0.728722438901725,"false"
"image-keyboard-response",426,387725,"0.0-3.138-1.138","9uavves474fs3b2",850,"88.csv","","null","resources/maskTrios/L2BB.jpg","null","",NA,NA,NA,NA,""
"image-keyboard-response",427,388929,"0.0-3.138-2.138","9uavves474fs3b2",850,"88.csv","","null","resources/images/fishbone.png","null","",NA,NA,NA,NA,""
"image-keyboard-response",428,389773,"0.0-3.139-0.139","9uavves474fs3b2",850,"88.csv","","841","resources/trios/L2T2A2.jpg","38","restless",0.3,0.6,0.4,0.369164370919979,"true"
"image-keyboard-response",429,390176,"0.0-3.139-1.139","9uavves474fs3b2",850,"88.csv","","null","resources/maskTrios/BT2B.jpg","null","",NA,NA,NA,NA,""
"image-keyboard-response",430,391384,"0.0-3.139-2.139","9uavves474fs3b2",850,"88.csv","","null","resources/images/coin2.png","null","",NA,NA,NA,NA,""
"image-keyboard-response",431,392000,"0.0-3.140-0.140","9uavves474fs3b2",850,"88.csv","","609","resources/trios/L2T2A2.jpg","38","restless",0.3,0.6,0.4,0.797623023598398,"false"
"image-keyboard-response",432,392402,"0.0-3.140-1.140","9uavves474fs3b2",850,"88.csv","","null","resources/maskTrios/BT2B.jpg","null","",NA,NA,NA,NA,""
"image-keyboard-response",433,393607,"0.0-3.140-2.140","9uavves474fs3b2",850,"88.csv","","null","resources/images/fishbone.png","null","",NA,NA,NA,NA,""
"image-keyboard-response",434,394520,"0.0-3.141-0.141","9uavves474fs3b2",850,"88.csv","","909","resources/trios/L1T2A2.jpg","37","restless",0.3,0.6,0.4,0.353496247747233,"false"
"image-keyboard-response",435,394923,"0.0-3.141-1.141","9uavves474fs3b2",850,"88.csv","","null","resources/maskTrios/L1BB.jpg","null","",NA,NA,NA,NA,""
"image-keyboard-response",436,396127,"0.0-3.141-2.141","9uavves474fs3b2",850,"88.csv","","null","resources/images/fishbone.png","null","",NA,NA,NA,NA,""
"image-keyboard-response",437,396627,"0.0-3.142-0.142","9uavves474fs3b2",850,"88.csv","","496","resources/trios/L1T1A2.jpg","39","restless",0.2,0.6,0.4,0.907538443179199,"false"
"image-keyboard-response",438,397029,"0.0-3.142-1.142","9uavves474fs3b2",850,"88.csv","","null","resources/maskTrios/BBA2.jpg","null","",NA,NA,NA,NA,""
"image-keyboard-response",439,398233,"0.0-3.142-2.142","9uavves474fs3b2",850,"88.csv","","null","resources/images/fishbone.png","null","",NA,NA,NA,NA,""
"image-keyboard-response",440,399682,"0.0-3.143-0.143","9uavves474fs3b2",850,"88.csv","","1445","resources/trios/L1T2A2.jpg","38","restless",0.2,0.6,0.4,0.0850154615613988,"true"
"image-keyboard-response",441,400084,"0.0-3.143-1.143","9uavves474fs3b2",850,"88.csv","","null","resources/maskTrios/BT2B.jpg","null","",NA,NA,NA,NA,""
"image-keyboard-response",442,401289,"0.0-3.143-2.143","9uavves474fs3b2",850,"88.csv","","null","resources/images/coin2.png","null","",NA,NA,NA,NA,""
"image-keyboard-response",443,402246,"0.0-3.144-0.144","9uavves474fs3b2",850,"88.csv","","953.0000000000582","resources/trios/L2T2A2.jpg","38","restless",0.2,0.5,0.4,0.723527112327532,"false"
"image-keyboard-response",444,402649,"0.0-3.144-1.144","9uavves474fs3b2",850,"88.csv","","null","resources/maskTrios/BT2B.jpg","null","",NA,NA,NA,NA,""
"image-keyboard-response",445,403852,"0.0-3.144-2.144","9uavves474fs3b2",850,"88.csv","","null","resources/images/fishbone.png","null","",NA,NA,NA,NA,""
"image-keyboard-response",446,404987,"0.0-3.145-0.145","9uavves474fs3b2",850,"88.csv","","1131","resources/trios/L2T2A3.jpg","38","restless",0.3,0.5,0.4,0.558043632308026,"false"
"image-keyboard-response",447,405389,"0.0-3.145-1.145","9uavves474fs3b2",850,"88.csv","","null","resources/maskTrios/BT2B.jpg","null","",NA,NA,NA,NA,""
"image-keyboard-response",448,406593,"0.0-3.145-2.145","9uavves474fs3b2",850,"88.csv","","null","resources/images/fishbone.png","null","",NA,NA,NA,NA,""
"image-keyboard-response",449,407097,"0.0-3.146-0.146","9uavves474fs3b2",850,"88.csv","","500.9999999999418","resources/trios/L1T1A2.jpg","37","restless",0.3,0.5,0.4,0.51252636946989,"false"
"image-keyboard-response",450,407499,"0.0-3.146-1.146","9uavves474fs3b2",850,"88.csv","","null","resources/maskTrios/L1BB.jpg","null","",NA,NA,NA,NA,""
"image-keyboard-response",451,408703,"0.0-3.146-2.146","9uavves474fs3b2",850,"88.csv","","null","resources/images/fishbone.png","null","",NA,NA,NA,NA,""
"image-keyboard-response",452,409963,"0.0-3.147-0.147","9uavves474fs3b2",850,"88.csv","","1247","resources/trios/L1T1A2.jpg","38","restless",0.2,0.5,0.4,0.884693998807147,"false"
"image-keyboard-response",453,410367,"0.0-3.147-1.147","9uavves474fs3b2",850,"88.csv","","null","resources/maskTrios/BT1B.jpg","null","",NA,NA,NA,NA,""
"image-keyboard-response",454,411571,"0.0-3.147-2.147","9uavves474fs3b2",850,"88.csv","","null","resources/images/fishbone.png","null","",NA,NA,NA,NA,""
"image-keyboard-response",455,412382,"0.0-3.148-0.148","9uavves474fs3b2",850,"88.csv","","807","resources/trios/L1T2A3.jpg","37","restless",0.2,0.5,0.4,0.664395925048279,"false"
"image-keyboard-response",456,412785,"0.0-3.148-1.148","9uavves474fs3b2",850,"88.csv","","null","resources/maskTrios/L1BB.jpg","null","",NA,NA,NA,NA,""
"image-keyboard-response",457,413989,"0.0-3.148-2.148","9uavves474fs3b2",850,"88.csv","","null","resources/images/fishbone.png","null","",NA,NA,NA,NA,""
"image-keyboard-response",458,414908,"0.0-3.149-0.149","9uavves474fs3b2",850,"88.csv","","916","resources/trios/L2T1A2.jpg","39","restless",0.2,0.5,0.4,0.195063293469548,"true"
"image-keyboard-response",459,415311,"0.0-3.149-1.149","9uavves474fs3b2",850,"88.csv","","null","resources/maskTrios/BBA2.jpg","null","",NA,NA,NA,NA,""
"image-keyboard-response",460,416516,"0.0-3.149-2.149","9uavves474fs3b2",850,"88.csv","","null","resources/images/coin2.png","null","",NA,NA,NA,NA,""
"image-keyboard-response",461,417839,"0.0-3.150-0.150","9uavves474fs3b2",850,"88.csv","","1319.0000000000582","resources/trios/L2T1A2.jpg","39","restless",0.2,0.5,0.4,0.752493731423414,"false"
"image-keyboard-response",462,418241,"0.0-3.150-1.150","9uavves474fs3b2",850,"88.csv","","null","resources/maskTrios/BBA2.jpg","null","",NA,NA,NA,NA,""
"image-keyboard-response",463,419445,"0.0-3.150-2.150","9uavves474fs3b2",850,"88.csv","","null","resources/images/fishbone.png","null","",NA,NA,NA,NA,""
"image-keyboard-response",464,420160,"0.0-3.151-0.151","9uavves474fs3b2",850,"88.csv","","706.0000000000582","resources/trios/L2T1A2.jpg","37","restless",0.2,0.5,0.4,0.160510023914243,"true"
"image-keyboard-response",465,420563,"0.0-3.151-1.151","9uavves474fs3b2",850,"88.csv","","null","resources/maskTrios/L2BB.jpg","null","",NA,NA,NA,NA,""
"image-keyboard-response",466,421768,"0.0-3.151-2.151","9uavves474fs3b2",850,"88.csv","","null","resources/images/coin2.png","null","",NA,NA,NA,NA,""
"image-keyboard-response",467,422840,"0.0-3.152-0.152","9uavves474fs3b2",850,"88.csv","","1069","resources/trios/L2T1A3.jpg","39","restless",0.2,0.5,0.5,0.338287787912382,"true"
"image-keyboard-response",468,423242,"0.0-3.152-1.152","9uavves474fs3b2",850,"88.csv","","null","resources/maskTrios/BBA3.jpg","null","",NA,NA,NA,NA,""
"image-keyboard-response",469,424447,"0.0-3.152-2.152","9uavves474fs3b2",850,"88.csv","","null","resources/images/coin2.png","null","",NA,NA,NA,NA,""
"image-keyboard-response",470,425995,"0.0-3.153-0.153","9uavves474fs3b2",850,"88.csv","","1545","resources/trios/L2T2A2.jpg","38","restless",0.2,0.5,0.5,0.935130165917806,"false"
"image-keyboard-response",471,426397,"0.0-3.153-1.153","9uavves474fs3b2",850,"88.csv","","null","resources/maskTrios/BT2B.jpg","null","",NA,NA,NA,NA,""
"image-keyboard-response",472,427609,"0.0-3.153-2.153","9uavves474fs3b2",850,"88.csv","","null","resources/images/fishbone.png","null","",NA,NA,NA,NA,""
"image-keyboard-response",473,428057,"0.0-3.154-0.154","9uavves474fs3b2",850,"88.csv","","443","resources/trios/L1T1A2.jpg","37","restless",0.3,0.6,0.5,0.389601432077624,"false"
"image-keyboard-response",474,428460,"0.0-3.154-1.154","9uavves474fs3b2",850,"88.csv","","null","resources/maskTrios/L1BB.jpg","null","",NA,NA,NA,NA,""
"image-keyboard-response",475,429664,"0.0-3.154-2.154","9uavves474fs3b2",850,"88.csv","","null","resources/images/fishbone.png","null","",NA,NA,NA,NA,""
"image-keyboard-response",476,430355,"0.0-3.155-0.155","9uavves474fs3b2",850,"88.csv","","687","resources/trios/L2T1A3.jpg","37","restless",0.3,0.6,0.5,0.928653746111015,"false"
"image-keyboard-response",477,430758,"0.0-3.155-1.155","9uavves474fs3b2",850,"88.csv","","null","resources/maskTrios/L2BB.jpg","null","",NA,NA,NA,NA,""
"image-keyboard-response",478,431962,"0.0-3.155-2.155","9uavves474fs3b2",850,"88.csv","","null","resources/images/fishbone.png","null","",NA,NA,NA,NA,""
"image-keyboard-response",479,432579,"0.0-3.156-0.156","9uavves474fs3b2",850,"88.csv","","613","resources/trios/L1T1A3.jpg","38","restless",0.4,0.6,0.5,0.0884693244804203,"true"
"image-keyboard-response",480,432981,"0.0-3.156-1.156","9uavves474fs3b2",850,"88.csv","","null","resources/maskTrios/BT1B.jpg","null","",NA,NA,NA,NA,""
"image-keyboard-response",481,434186,"0.0-3.156-2.156","9uavves474fs3b2",850,"88.csv","","null","resources/images/coin2.png","null","",NA,NA,NA,NA,""
"image-keyboard-response",482,435373,"0.0-3.157-0.157","9uavves474fs3b2",850,"88.csv","","1183","resources/trios/L1T1A2.jpg","38","restless",0.4,0.6,0.5,0.791267009363328,"false"
"image-keyboard-response",483,435776,"0.0-3.157-1.157","9uavves474fs3b2",850,"88.csv","","null","resources/maskTrios/BT1B.jpg","null","",NA,NA,NA,NA,""
"image-keyboard-response",484,436979,"0.0-3.157-2.157","9uavves474fs3b2",850,"88.csv","","null","resources/images/fishbone.png","null","",NA,NA,NA,NA,""
"image-keyboard-response",485,437383,"0.0-3.158-0.158","9uavves474fs3b2",850,"88.csv","","401","resources/trios/L1T1A2.jpg","37","restless",0.4,0.6,0.6,0.600873890539538,"false"
"image-keyboard-response",486,437786,"0.0-3.158-1.158","9uavves474fs3b2",850,"88.csv","","null","resources/maskTrios/L1BB.jpg","null","",NA,NA,NA,NA,""
"image-keyboard-response",487,438990,"0.0-3.158-2.158","9uavves474fs3b2",850,"88.csv","","null","resources/images/fishbone.png","null","",NA,NA,NA,NA,""
"image-keyboard-response",488,439387,"0.0-3.159-0.159","9uavves474fs3b2",850,"88.csv","","393.9999999999418","resources/trios/L1T2A2.jpg","39","restless",0.4,0.6,0.6,0.134503120186686,"true"
"image-keyboard-response",489,439789,"0.0-3.159-1.159","9uavves474fs3b2",850,"88.csv","","null","resources/maskTrios/BBA2.jpg","null","",NA,NA,NA,NA,""
"image-keyboard-response",490,440994,"0.0-3.159-2.159","9uavves474fs3b2",850,"88.csv","","null","resources/images/coin2.png","null","",NA,NA,NA,NA,""
"image-keyboard-response",491,441868,"0.0-3.160-0.160","9uavves474fs3b2",850,"88.csv","","871.0000000000582","resources/trios/L2T2A3.jpg","39","restless",0.4,0.6,0.6,0.53443743505387,"true"
"image-keyboard-response",492,442271,"0.0-3.160-1.160","9uavves474fs3b2",850,"88.csv","","null","resources/maskTrios/BBA3.jpg","null","",NA,NA,NA,NA,""
"image-keyboard-response",493,443475,"0.0-3.160-2.160","9uavves474fs3b2",850,"88.csv","","null","resources/images/coin2.png","null","",NA,NA,NA,NA,""
"image-keyboard-response",494,444559,"0.0-3.161-0.161","9uavves474fs3b2",850,"88.csv","","1081","resources/trios/L1T2A2.jpg","39","restless",0.4,0.6,0.6,0.272324979689474,"true"
"image-keyboard-response",495,444961,"0.0-3.161-1.161","9uavves474fs3b2",850,"88.csv","","null","resources/maskTrios/BBA2.jpg","null","",NA,NA,NA,NA,""
"image-keyboard-response",496,446165,"0.0-3.161-2.161","9uavves474fs3b2",850,"88.csv","","null","resources/images/coin2.png","null","",NA,NA,NA,NA,""
"image-keyboard-response",497,448678,"0.0-3.162-0.162","9uavves474fs3b2",850,"88.csv","","2501.999999999942","resources/trios/L1T2A2.jpg","39","restless",0.4,0.6,0.6,0.69205230967326,"false"
"image-keyboard-response",498,449081,"0.0-3.162-1.162","9uavves474fs3b2",850,"88.csv","","null","resources/maskTrios/BBA2.jpg","null","",NA,NA,NA,NA,""
"image-keyboard-response",499,450286,"0.0-3.162-2.162","9uavves474fs3b2",850,"88.csv","","null","resources/images/fishbone.png","null","",NA,NA,NA,NA,""
"image-keyboard-response",500,450864,"0.0-3.163-0.163","9uavves474fs3b2",850,"88.csv","","575","resources/trios/L2T1A2.jpg","37","restless",0.4,0.6,0.6,0.920993158177912,"false"
"image-keyboard-response",501,451267,"0.0-3.163-1.163","9uavves474fs3b2",850,"88.csv","","null","resources/maskTrios/L2BB.jpg","null","",NA,NA,NA,NA,""
"image-keyboard-response",502,452471,"0.0-3.163-2.163","9uavves474fs3b2",850,"88.csv","","null","resources/images/fishbone.png","null","",NA,NA,NA,NA,""
"image-keyboard-response",503,453716,"0.0-3.164-0.164","9uavves474fs3b2",850,"88.csv","","1241","resources/trios/L1T1A2.jpg","38","restless",0.4,0.6,0.6,0.965568779826112,"false"
"image-keyboard-response",504,454120,"0.0-3.164-1.164","9uavves474fs3b2",850,"88.csv","","null","resources/maskTrios/BT1B.jpg","null","",NA,NA,NA,NA,""
"image-keyboard-response",505,455324,"0.0-3.164-2.164","9uavves474fs3b2",850,"88.csv","","null","resources/images/fishbone.png","null","",NA,NA,NA,NA,""
"image-keyboard-response",506,455932,"0.0-3.165-0.165","9uavves474fs3b2",850,"88.csv","","603","resources/trios/L1T2A3.jpg","37","restless",0.4,0.6,0.6,0.670016268369862,"false"
"image-keyboard-response",507,456335,"0.0-3.165-1.165","9uavves474fs3b2",850,"88.csv","","null","resources/maskTrios/L1BB.jpg","null","",NA,NA,NA,NA,""
"image-keyboard-response",508,457538,"0.0-3.165-2.165","9uavves474fs3b2",850,"88.csv","","null","resources/images/fishbone.png","null","",NA,NA,NA,NA,""
"image-keyboard-response",509,457991,"0.0-3.166-0.166","9uavves474fs3b2",850,"88.csv","","449","resources/trios/L2T1A3.jpg","39","restless",0.4,0.6,0.6,0.855064171445264,"false"
"image-keyboard-response",510,458394,"0.0-3.166-1.166","9uavves474fs3b2",850,"88.csv","","null","resources/maskTrios/BBA3.jpg","null","",NA,NA,NA,NA,""
"image-keyboard-response",511,459598,"0.0-3.166-2.166","9uavves474fs3b2",850,"88.csv","","null","resources/images/fishbone.png","null","",NA,NA,NA,NA,""
"image-keyboard-response",512,459968,"0.0-3.167-0.167","9uavves474fs3b2",850,"88.csv","","367.0000000000582","resources/trios/L1T1A2.jpg","38","restless",0.4,0.6,0.6,0.818372189977511,"false"
"image-keyboard-response",513,460371,"0.0-3.167-1.167","9uavves474fs3b2",850,"88.csv","","null","resources/maskTrios/BT1B.jpg","null","",NA,NA,NA,NA,""
"image-keyboard-response",514,461575,"0.0-3.167-2.167","9uavves474fs3b2",850,"88.csv","","null","resources/images/fishbone.png","null","",NA,NA,NA,NA,""
"image-keyboard-response",515,461984,"0.0-3.168-0.168","9uavves474fs3b2",850,"88.csv","","406","resources/trios/L2T1A2.jpg","37","restless",0.4,0.7,0.6,0.946452878537496,"false"
"image-keyboard-response",516,462388,"0.0-3.168-1.168","9uavves474fs3b2",850,"88.csv","","null","resources/maskTrios/L2BB.jpg","null","",NA,NA,NA,NA,""
"image-keyboard-response",517,463591,"0.0-3.168-2.168","9uavves474fs3b2",850,"88.csv","","null","resources/images/fishbone.png","null","",NA,NA,NA,NA,""
"image-keyboard-response",518,463976,"0.0-3.169-0.169","9uavves474fs3b2",850,"88.csv","","381","resources/trios/L1T2A2.jpg","39","restless",0.5,0.7,0.6,0.437555304655337,"true"
"image-keyboard-response",519,464379,"0.0-3.169-1.169","9uavves474fs3b2",850,"88.csv","","null","resources/maskTrios/BBA2.jpg","null","",NA,NA,NA,NA,""
"image-keyboard-response",520,465583,"0.0-3.169-2.169","9uavves474fs3b2",850,"88.csv","","null","resources/images/coin2.png","null","",NA,NA,NA,NA,""
"image-keyboard-response",521,466747,"0.0-3.170-0.170","9uavves474fs3b2",850,"88.csv","","1154.9999999999418","resources/trios/L2T1A2.jpg","39","restless",0.5,0.7,0.6,0.490512937328359,"true"
"image-keyboard-response",522,467149,"0.0-3.170-1.170","9uavves474fs3b2",850,"88.csv","","null","resources/maskTrios/BBA2.jpg","null","",NA,NA,NA,NA,""
"image-keyboard-response",523,468354,"0.0-3.170-2.170","9uavves474fs3b2",850,"88.csv","","null","resources/images/coin2.png","null","",NA,NA,NA,NA,""
"image-keyboard-response",524,468847,"0.0-3.171-0.171","9uavves474fs3b2",850,"88.csv","","489","resources/trios/L1T2A3.jpg","39","restless",0.6,0.7,0.5,0.873733515653391,"false"
"image-keyboard-response",525,469249,"0.0-3.171-1.171","9uavves474fs3b2",850,"88.csv","","null","resources/maskTrios/BBA3.jpg","null","",NA,NA,NA,NA,""
"image-keyboard-response",526,470453,"0.0-3.171-2.171","9uavves474fs3b2",850,"88.csv","","null","resources/images/fishbone.png","null","",NA,NA,NA,NA,""
"image-keyboard-response",527,471021,"0.0-3.172-0.172","9uavves474fs3b2",850,"88.csv","","565","resources/trios/L2T2A2.jpg","38","restless",0.6,0.7,0.6,0.0438053708060357,"true"
"image-keyboard-response",528,471424,"0.0-3.172-1.172","9uavves474fs3b2",850,"88.csv","","null","resources/maskTrios/BT2B.jpg","null","",NA,NA,NA,NA,""
"image-keyboard-response",529,472628,"0.0-3.172-2.172","9uavves474fs3b2",850,"88.csv","","null","resources/images/coin2.png","null","",NA,NA,NA,NA,""
"image-keyboard-response",530,473258,"0.0-3.173-0.173","9uavves474fs3b2",850,"88.csv","","627.0000000000582","resources/trios/L1T1A2.jpg","37","restless",0.5,0.7,0.6,0.21101419647746,"true"
"image-keyboard-response",531,473664,"0.0-3.173-1.173","9uavves474fs3b2",850,"88.csv","","null","resources/maskTrios/L1BB.jpg","null","",NA,NA,NA,NA,""
"image-keyboard-response",532,474870,"0.0-3.173-2.173","9uavves474fs3b2",850,"88.csv","","null","resources/images/coin2.png","null","",NA,NA,NA,NA,""
"image-keyboard-response",533,475331,"0.0-3.174-0.174","9uavves474fs3b2",850,"88.csv","","457","resources/trios/L2T2A2.jpg","38","restless",0.5,0.7,0.6,0.368046922316653,"true"
"image-keyboard-response",534,475734,"0.0-3.174-1.174","9uavves474fs3b2",850,"88.csv","","null","resources/maskTrios/BT2B.jpg","null","",NA,NA,NA,NA,""
"image-keyboard-response",535,476939,"0.0-3.174-2.174","9uavves474fs3b2",850,"88.csv","","null","resources/images/coin2.png","null","",NA,NA,NA,NA,""
"image-keyboard-response",536,477440,"0.0-3.175-0.175","9uavves474fs3b2",850,"88.csv","","496.9999999999418","resources/trios/L2T2A3.jpg","39","restless",0.5,0.7,0.6,0.574797659633952,"true"
"image-keyboard-response",537,477843,"0.0-3.175-1.175","9uavves474fs3b2",850,"88.csv","","null","resources/maskTrios/BBA3.jpg","null","",NA,NA,NA,NA,""
"image-keyboard-response",538,479048,"0.0-3.175-2.175","9uavves474fs3b2",850,"88.csv","","null","resources/images/coin2.png","null","",NA,NA,NA,NA,""
"image-keyboard-response",539,479716,"0.0-3.176-0.176","9uavves474fs3b2",850,"88.csv","","665","resources/trios/L1T2A3.jpg","38","restless",0.5,0.7,0.6,0.24918280403489,"true"
"image-keyboard-response",540,480119,"0.0-3.176-1.176","9uavves474fs3b2",850,"88.csv","","null","resources/maskTrios/BT2B.jpg","null","",NA,NA,NA,NA,""
"image-keyboard-response",541,481323,"0.0-3.176-2.176","9uavves474fs3b2",850,"88.csv","","null","resources/images/coin2.png","null","",NA,NA,NA,NA,""
"image-keyboard-response",542,481842,"0.0-3.177-0.177","9uavves474fs3b2",850,"88.csv","","516","resources/trios/L2T2A3.jpg","38","restless",0.5,0.7,0.6,0.421930223711271,"true"
"image-keyboard-response",543,482245,"0.0-3.177-1.177","9uavves474fs3b2",850,"88.csv","","null","resources/maskTrios/BT2B.jpg","null","",NA,NA,NA,NA,""
"image-keyboard-response",544,483450,"0.0-3.177-2.177","9uavves474fs3b2",850,"88.csv","","null","resources/images/coin2.png","null","",NA,NA,NA,NA,""
"image-keyboard-response",545,483870,"0.0-3.178-0.178","9uavves474fs3b2",850,"88.csv","","414","resources/trios/L2T1A2.jpg","38","restless",0.5,0.6,0.5,0.0294372082411063,"true"
"image-keyboard-response",546,484273,"0.0-3.178-1.178","9uavves474fs3b2",850,"88.csv","","null","resources/maskTrios/BT1B.jpg","null","",NA,NA,NA,NA,""
"image-keyboard-response",547,485477,"0.0-3.178-2.178","9uavves474fs3b2",850,"88.csv","","null","resources/images/coin2.png","null","",NA,NA,NA,NA,""
"image-keyboard-response",548,486010,"0.0-3.179-0.179","9uavves474fs3b2",850,"88.csv","","530","resources/trios/L2T2A3.jpg","38","restless",0.5,0.7,0.5,0.695824041329184,"true"
"image-keyboard-response",549,486413,"0.0-3.179-1.179","9uavves474fs3b2",850,"88.csv","","null","resources/maskTrios/BT2B.jpg","null","",NA,NA,NA,NA,""
"image-keyboard-response",550,487625,"0.0-3.179-2.179","9uavves474fs3b2",850,"88.csv","","null","resources/images/coin2.png","null","",NA,NA,NA,NA,""
"image-keyboard-response",551,488285,"0.0-3.180-0.180","9uavves474fs3b2",850,"88.csv","","657","resources/trios/L1T1A3.jpg","39","restless",0.5,0.7,0.5,0.261002199663827,"true"
"image-keyboard-response",552,488688,"0.0-3.180-1.180","9uavves474fs3b2",850,"88.csv","","null","resources/maskTrios/BBA3.jpg","null","",NA,NA,NA,NA,""
"image-keyboard-response",553,489892,"0.0-3.180-2.180","9uavves474fs3b2",850,"88.csv","","null","resources/images/coin2.png","null","",NA,NA,NA,NA,""
"image-keyboard-response",554,490595,"0.0-3.181-0.181","9uavves474fs3b2",850,"88.csv","","700","resources/trios/L2T2A2.jpg","38","restless",0.5,0.7,0.5,0.12045983712911,"true"
"image-keyboard-response",555,490998,"0.0-3.181-1.181","9uavves474fs3b2",850,"88.csv","","null","resources/maskTrios/BT2B.jpg","null","",NA,NA,NA,NA,""
"image-keyboard-response",556,492202,"0.0-3.181-2.181","9uavves474fs3b2",850,"88.csv","","null","resources/images/coin2.png","null","",NA,NA,NA,NA,""
"image-keyboard-response",557,492850,"0.0-3.182-0.182","9uavves474fs3b2",850,"88.csv","","644","resources/trios/L1T2A3.jpg","39","restless",0.6,0.7,0.5,0.661984688650752,"false"
"image-keyboard-response",558,493253,"0.0-3.182-1.182","9uavves474fs3b2",850,"88.csv","","null","resources/maskTrios/BBA3.jpg","null","",NA,NA,NA,NA,""
"image-keyboard-response",559,494456,"0.0-3.182-2.182","9uavves474fs3b2",850,"88.csv","","null","resources/images/fishbone.png","null","",NA,NA,NA,NA,""
"image-keyboard-response",560,495157,"0.0-3.183-0.183","9uavves474fs3b2",850,"88.csv","","697","resources/trios/L2T1A3.jpg","39","restless",0.6,0.7,0.5,0.495888856661647,"true"
"image-keyboard-response",561,495558,"0.0-3.183-1.183","9uavves474fs3b2",850,"88.csv","","null","resources/maskTrios/BBA3.jpg","null","",NA,NA,NA,NA,""
"image-keyboard-response",562,496767,"0.0-3.183-2.183","9uavves474fs3b2",850,"88.csv","","null","resources/images/coin2.png","null","",NA,NA,NA,NA,""
"image-keyboard-response",563,497337,"0.0-3.184-0.184","9uavves474fs3b2",850,"88.csv","","566","resources/trios/L1T1A3.jpg","39","restless",0.6,0.7,0.5,0.189652520722745,"true"
"image-keyboard-response",564,497739,"0.0-3.184-1.184","9uavves474fs3b2",850,"88.csv","","null","resources/maskTrios/BBA3.jpg","null","",NA,NA,NA,NA,""
"image-keyboard-response",565,498943,"0.0-3.184-2.184","9uavves474fs3b2",850,"88.csv","","null","resources/images/coin2.png","null","",NA,NA,NA,NA,""
"image-keyboard-response",566,499615,"0.0-3.185-0.185","9uavves474fs3b2",850,"88.csv","","668.9999999999418","resources/trios/L2T2A3.jpg","39","restless",0.6,0.7,0.5,0.496189034642701,"true"
"image-keyboard-response",567,500018,"0.0-3.185-1.185","9uavves474fs3b2",850,"88.csv","","null","resources/maskTrios/BBA3.jpg","null","",NA,NA,NA,NA,""
"image-keyboard-response",568,501222,"0.0-3.185-2.185","9uavves474fs3b2",850,"88.csv","","null","resources/images/coin2.png","null","",NA,NA,NA,NA,""
"image-keyboard-response",569,501911,"0.0-3.186-0.186","9uavves474fs3b2",850,"88.csv","","688","resources/trios/L1T2A2.jpg","38","restless",0.6,0.7,0.5,0.143203213133218,"true"
"image-keyboard-response",570,502314,"0.0-3.186-1.186","9uavves474fs3b2",850,"88.csv","","null","resources/maskTrios/BT2B.jpg","null","",NA,NA,NA,NA,""
"image-keyboard-response",571,503518,"0.0-3.186-2.186","9uavves474fs3b2",850,"88.csv","","null","resources/images/coin2.png","null","",NA,NA,NA,NA,""
"image-keyboard-response",572,504025,"0.0-3.187-0.187","9uavves474fs3b2",850,"88.csv","","504.0000000000582","resources/trios/L1T1A3.jpg","39","restless",0.6,0.8,0.5,0.250938227254965,"true"
"image-keyboard-response",573,504428,"0.0-3.187-1.187","9uavves474fs3b2",850,"88.csv","","null","resources/maskTrios/BBA3.jpg","null","",NA,NA,NA,NA,""
"image-keyboard-response",574,505632,"0.0-3.187-2.187","9uavves474fs3b2",850,"88.csv","","null","resources/images/coin2.png","null","",NA,NA,NA,NA,""
"image-keyboard-response",575,506366,"0.0-3.188-0.188","9uavves474fs3b2",850,"88.csv","","731","resources/trios/L1T2A2.jpg","38","restless",0.5,0.8,0.5,0.709923838084532,"true"
"image-keyboard-response",576,506769,"0.0-3.188-1.188","9uavves474fs3b2",850,"88.csv","","null","resources/maskTrios/BT2B.jpg","null","",NA,NA,NA,NA,""
"image-keyboard-response",577,507978,"0.0-3.188-2.188","9uavves474fs3b2",850,"88.csv","","null","resources/images/coin2.png","null","",NA,NA,NA,NA,""
"image-keyboard-response",578,509241,"0.0-3.189-0.189","9uavves474fs3b2",850,"88.csv","","1262","resources/trios/L1T1A2.jpg","37","restless",0.5,0.8,0.5,0.961479665613761,"false"
"image-keyboard-response",579,509643,"0.0-3.189-1.189","9uavves474fs3b2",850,"88.csv","","null","resources/maskTrios/L1BB.jpg","null","",NA,NA,NA,NA,""
"image-keyboard-response",580,510846,"0.0-3.189-2.189","9uavves474fs3b2",850,"88.csv","","null","resources/images/fishbone.png","null","",NA,NA,NA,NA,""
"image-keyboard-response",581,511474,"0.0-3.190-0.190","9uavves474fs3b2",850,"88.csv","","624.0000000000582","resources/trios/L1T2A2.jpg","38","restless",0.5,0.8,0.4,0.876751774634895,"false"
"image-keyboard-response",582,511877,"0.0-3.190-1.190","9uavves474fs3b2",850,"88.csv","","null","resources/maskTrios/BT2B.jpg","null","",NA,NA,NA,NA,""
"image-keyboard-response",583,513080,"0.0-3.190-2.190","9uavves474fs3b2",850,"88.csv","","null","resources/images/fishbone.png","null","",NA,NA,NA,NA,""
"image-keyboard-response",584,513579,"0.0-3.191-0.191","9uavves474fs3b2",850,"88.csv","","495","resources/trios/L2T1A3.jpg","39","restless",0.5,0.8,0.4,0.0946496573828547,"true"
"image-keyboard-response",585,513982,"0.0-3.191-1.191","9uavves474fs3b2",850,"88.csv","","null","resources/maskTrios/BBA3.jpg","null","",NA,NA,NA,NA,""
"image-keyboard-response",586,515186,"0.0-3.191-2.191","9uavves474fs3b2",850,"88.csv","","null","resources/images/coin2.png","null","",NA,NA,NA,NA,""
"image-keyboard-response",587,516205,"0.0-3.192-0.192","9uavves474fs3b2",850,"88.csv","","1014","resources/trios/L1T1A2.jpg","39","restless",0.5,0.8,0.4,0.157090885431812,"true"
"image-keyboard-response",588,516607,"0.0-3.192-1.192","9uavves474fs3b2",850,"88.csv","","null","resources/maskTrios/BBA2.jpg","null","",NA,NA,NA,NA,""
"image-keyboard-response",589,517811,"0.0-3.192-2.192","9uavves474fs3b2",850,"88.csv","","null","resources/images/coin2.png","null","",NA,NA,NA,NA,""
"image-keyboard-response",590,518585,"0.0-3.193-0.193","9uavves474fs3b2",850,"88.csv","","770.9999999999418","resources/trios/L2T1A2.jpg","37","restless",0.4,0.8,0.4,0.757746627294959,"false"
"image-keyboard-response",591,518988,"0.0-3.193-1.193","9uavves474fs3b2",850,"88.csv","","null","resources/maskTrios/L2BB.jpg","null","",NA,NA,NA,NA,""
"image-keyboard-response",592,520192,"0.0-3.193-2.193","9uavves474fs3b2",850,"88.csv","","null","resources/images/fishbone.png","null","",NA,NA,NA,NA,""
"image-keyboard-response",593,520731,"0.0-3.194-0.194","9uavves474fs3b2",850,"88.csv","","535.0000000000582","resources/trios/L1T1A3.jpg","39","restless",0.4,0.8,0.4,0.220005024494337,"true"
"image-keyboard-response",594,521133,"0.0-3.194-1.194","9uavves474fs3b2",850,"88.csv","","null","resources/maskTrios/BBA3.jpg","null","",NA,NA,NA,NA,""
"image-keyboard-response",595,522337,"0.0-3.194-2.194","9uavves474fs3b2",850,"88.csv","","null","resources/images/coin2.png","null","",NA,NA,NA,NA,""
"image-keyboard-response",596,523266,"0.0-3.195-0.195","9uavves474fs3b2",850,"88.csv","","926","resources/trios/L2T1A2.jpg","38","restless",0.4,0.8,0.4,0.691213637217181,"true"
"image-keyboard-response",597,523668,"0.0-3.195-1.195","9uavves474fs3b2",850,"88.csv","","null","resources/maskTrios/BT1B.jpg","null","",NA,NA,NA,NA,""
"image-keyboard-response",598,524873,"0.0-3.195-2.195","9uavves474fs3b2",850,"88.csv","","null","resources/images/coin2.png","null","",NA,NA,NA,NA,""
"image-keyboard-response",599,525430,"0.0-3.196-0.196","9uavves474fs3b2",850,"88.csv","","554","resources/trios/L1T2A2.jpg","38","restless",0.4,0.8,0.4,0.783114523518392,"true"
"image-keyboard-response",600,525833,"0.0-3.196-1.196","9uavves474fs3b2",850,"88.csv","","null","resources/maskTrios/BT2B.jpg","null","",NA,NA,NA,NA,""
"image-keyboard-response",601,527037,"0.0-3.196-2.196","9uavves474fs3b2",850,"88.csv","","null","resources/images/coin2.png","null","",NA,NA,NA,NA,""
"image-keyboard-response",602,527555,"0.0-3.197-0.197","9uavves474fs3b2",850,"88.csv","","514","resources/trios/L1T2A2.jpg","38","restless",0.4,0.8,0.4,0.13036349903448,"true"
"image-keyboard-response",603,527957,"0.0-3.197-1.197","9uavves474fs3b2",850,"88.csv","","null","resources/maskTrios/BT2B.jpg","null","",NA,NA,NA,NA,""
"image-keyboard-response",604,529162,"0.0-3.197-2.197","9uavves474fs3b2",850,"88.csv","","null","resources/images/coin2.png","null","",NA,NA,NA,NA,""
"image-keyboard-response",605,530749,"0.0-3.198-0.198","9uavves474fs3b2",850,"88.csv","","1575.0000000001164","resources/trios/L2T2A2.jpg","38","restless",0.4,0.8,0.4,0.256752280299803,"true"
"image-keyboard-response",606,531152,"0.0-3.198-1.198","9uavves474fs3b2",850,"88.csv","","null","resources/maskTrios/BT2B.jpg","null","",NA,NA,NA,NA,""
"image-keyboard-response",607,532358,"0.0-3.198-2.198","9uavves474fs3b2",850,"88.csv","","null","resources/images/coin2.png","null","",NA,NA,NA,NA,""
"image-keyboard-response",608,532936,"0.0-3.199-0.199","9uavves474fs3b2",850,"88.csv","","566","resources/trios/L1T2A3.jpg","39","restless",0.4,0.8,0.4,0.770662699520851,"false"
"image-keyboard-response",609,533339,"0.0-3.199-1.199","9uavves474fs3b2",850,"88.csv","","null","resources/maskTrios/BBA3.jpg","null","",NA,NA,NA,NA,""
"image-keyboard-response",610,534543,"0.0-3.199-2.199","9uavves474fs3b2",850,"88.csv","","null","resources/images/fishbone.png","null","",NA,NA,NA,NA,""
"image-keyboard-response",611,535602,"0.0-3.200-0.200","9uavves474fs3b2",850,"88.csv","","1055.9999999998836","resources/trios/L1T1A2.jpg","37","restless",0.4,0.8,0.4,0.930570918139772,"false"
"image-keyboard-response",612,536005,"0.0-3.200-1.200","9uavves474fs3b2",850,"88.csv","","null","resources/maskTrios/L1BB.jpg","null","",NA,NA,NA,NA,""
"image-keyboard-response",613,537209,"0.0-3.200-2.200","9uavves474fs3b2",850,"88.csv","","null","resources/images/fishbone.png","null","",NA,NA,NA,NA,""
"image-keyboard-response",614,537707,"0.0-3.201-0.201","9uavves474fs3b2",850,"88.csv","","493","resources/trios/L2T1A2.jpg","39","restless",0.5,0.7,0.4,0.490231456127152,"false"
"image-keyboard-response",615,538109,"0.0-3.201-1.201","9uavves474fs3b2",850,"88.csv","","null","resources/maskTrios/BBA2.jpg","null","",NA,NA,NA,NA,""
"image-keyboard-response",616,539313,"0.0-3.201-2.201","9uavves474fs3b2",850,"88.csv","","null","resources/images/fishbone.png","null","",NA,NA,NA,NA,""
"image-keyboard-response",617,539731,"0.0-3.202-0.202","9uavves474fs3b2",850,"88.csv","","415","resources/trios/L1T2A2.jpg","38","restless",0.5,0.8,0.3,0.918553384914701,"false"
"image-keyboard-response",618,540134,"0.0-3.202-1.202","9uavves474fs3b2",850,"88.csv","","null","resources/maskTrios/BT2B.jpg","null","",NA,NA,NA,NA,""
"image-keyboard-response",619,541337,"0.0-3.202-2.202","9uavves474fs3b2",850,"88.csv","","null","resources/images/fishbone.png","null","",NA,NA,NA,NA,""
