"trial_type","trial_index","time_elapsed","internal_node_id","subject","participantCode","walkNumber","success","rt","stimulus","key_press","test_part","leftProb","midProb","rightProb","generatedNum","correct"
"pavlovia",0,1041,"0.0-0.0","hvconp1fg8ucxc5",332,"7.csv","","","","","",NA,NA,NA,NA,""
"fullscreen",1,15355,"0.0-1.0","hvconp1fg8ucxc5",332,"7.csv","true","","","","",NA,NA,NA,NA,""
"html-keyboard-response",2,20194,"0.0-2.0-0.0","hvconp1fg8ucxc5",332,"7.csv","","4838.199999809265","<p><font size='6'>Arrrgh!</p></font><p>Can you be the best pirate? Try to find lots of gold! But beware, some islands have more gold than others, and over time, the island with the most gold may change. Can YOU figure it out? </p><font size='6'>GOOD LUCK, CAPTAIN!!!</font><p>Press any key to begin</p>","175","",NA,NA,NA,NA,""
"image-keyboard-response",3,23214,"0.0-2.0-1.0","hvconp1fg8ucxc5",332,"7.csv","","null","resources/image_sets/111.png","null","",NA,NA,NA,NA,""
"image-keyboard-response",4,30863,"0.0-2.0-2.0","hvconp1fg8ucxc5",332,"7.csv","","7647.400000572205","resources/image_sets/left_highlight.png","37","",NA,NA,NA,NA,""
"image-keyboard-response",5,33801,"0.0-2.0-3.0","hvconp1fg8ucxc5",332,"7.csv","","2936.6000003814697","resources/image_sets/mid_highlight.png","38","",NA,NA,NA,NA,""
"image-keyboard-response",6,34580,"0.0-2.0-4.0","hvconp1fg8ucxc5",332,"7.csv","","776.6000003814697","resources/image_sets/right_highlight.png","39","",NA,NA,NA,NA,""
"image-keyboard-response",7,39658,"0.0-2.0-5.0","hvconp1fg8ucxc5",332,"7.csv","","5077.60000038147","resources/image_sets/111.png","13","",NA,NA,NA,NA,""
"image-keyboard-response",8,42876,"0.0-2.0-6.0","hvconp1fg8ucxc5",332,"7.csv","","3216.699999809265","resources/images/coin2.png","13","",NA,NA,NA,NA,""
"image-keyboard-response",9,44661,"0.0-2.0-7.0","hvconp1fg8ucxc5",332,"7.csv","","1784.5999994277954","resources/images/fishbone.png","13","",NA,NA,NA,NA,""
"html-keyboard-response",10,51544,"0.0-2.0-8.0","hvconp1fg8ucxc5",332,"7.csv","","6882.300000190735","<p>Your first journey will be a long one, but you will get a well deserved break at the end</p><p>After the break you will have four more journeys, but each will be much shorter than the first, and you will have breaks in between each</p><p>Press Enter to begin</p>","13","",NA,NA,NA,NA,""
"image-keyboard-response",11,53875,"0.0-3.0-0.0","hvconp1fg8ucxc5",332,"7.csv","","2329.800000190735","resources/trios/L1T4A3.jpg","39","restless",0.9,0.3,0.7,0.690682526602961,"true"
"image-keyboard-response",12,54284,"0.0-3.0-1.0","hvconp1fg8ucxc5",332,"7.csv","","null","resources/maskTrios/BBA3.jpg","null","",NA,NA,NA,NA,""
"image-keyboard-response",13,55491,"0.0-3.0-2.0","hvconp1fg8ucxc5",332,"7.csv","","null","resources/images/coin2.png","null","",NA,NA,NA,NA,""
"image-keyboard-response",14,60862,"0.0-3.1-0.1","hvconp1fg8ucxc5",332,"7.csv","","5369","resources/trios/L4T2A1.jpg","37","restless",0.9,0.3,0.7,0.857807251163021,"true"
"image-keyboard-response",15,61278,"0.0-3.1-1.1","hvconp1fg8ucxc5",332,"7.csv","","null","resources/maskTrios/L4BB.jpg","null","",NA,NA,NA,NA,""
"image-keyboard-response",16,62485,"0.0-3.1-2.1","hvconp1fg8ucxc5",332,"7.csv","","null","resources/images/coin2.png","null","",NA,NA,NA,NA,""
"image-keyboard-response",17,66770,"0.0-3.2-0.2","hvconp1fg8ucxc5",332,"7.csv","","4282.89999961853","resources/trios/L4T4A3.jpg","38","restless",0.8,0.3,0.7,0.0870823930594211,"true"
"image-keyboard-response",18,67185,"0.0-3.2-1.2","hvconp1fg8ucxc5",332,"7.csv","","null","resources/maskTrios/BT4B.jpg","null","",NA,NA,NA,NA,""
"image-keyboard-response",19,68389,"0.0-3.2-2.2","hvconp1fg8ucxc5",332,"7.csv","","null","resources/images/coin2.png","null","",NA,NA,NA,NA,""
"image-keyboard-response",20,69744,"0.0-3.3-0.3","hvconp1fg8ucxc5",332,"7.csv","","1353","resources/trios/L1T4A1.jpg","37","restless",0.8,0.3,0.7,0.468610290875069,"true"
"image-keyboard-response",21,70158,"0.0-3.3-1.3","hvconp1fg8ucxc5",332,"7.csv","","null","resources/maskTrios/L1BB.jpg","null","",NA,NA,NA,NA,""
"image-keyboard-response",22,71371,"0.0-3.3-2.3","hvconp1fg8ucxc5",332,"7.csv","","null","resources/images/coin2.png","null","",NA,NA,NA,NA,""
"image-keyboard-response",23,71915,"0.0-3.4-0.4","hvconp1fg8ucxc5",332,"7.csv","","541.3000001907349","resources/trios/L4T2A3.jpg","39","restless",0.7,0.3,0.7,0.771466992709877,"false"
"image-keyboard-response",24,72319,"0.0-3.4-1.4","hvconp1fg8ucxc5",332,"7.csv","","null","resources/maskTrios/BBA3.jpg","null","",NA,NA,NA,NA,""
"image-keyboard-response",25,73524,"0.0-3.4-2.4","hvconp1fg8ucxc5",332,"7.csv","","null","resources/images/fishbone.png","null","",NA,NA,NA,NA,""
"image-keyboard-response",26,74201,"0.0-3.5-0.5","hvconp1fg8ucxc5",332,"7.csv","","675.6000003814697","resources/trios/L4T4A1.jpg","38","restless",0.6,0.3,0.7,0.113126778654566,"true"
"image-keyboard-response",27,74605,"0.0-3.5-1.5","hvconp1fg8ucxc5",332,"7.csv","","null","resources/maskTrios/BT4B.jpg","null","",NA,NA,NA,NA,""
"image-keyboard-response",28,75818,"0.0-3.5-2.5","hvconp1fg8ucxc5",332,"7.csv","","null","resources/images/coin2.png","null","",NA,NA,NA,NA,""
"image-keyboard-response",29,76513,"0.0-3.6-0.6","hvconp1fg8ucxc5",332,"7.csv","","692.8000001907349","resources/trios/L1T2A1.jpg","37","restless",0.6,0.3,0.7,0.716920568021985,"false"
"image-keyboard-response",30,76931,"0.0-3.6-1.6","hvconp1fg8ucxc5",332,"7.csv","","null","resources/maskTrios/L1BB.jpg","null","",NA,NA,NA,NA,""
"image-keyboard-response",31,78145,"0.0-3.6-2.6","hvconp1fg8ucxc5",332,"7.csv","","null","resources/images/fishbone.png","null","",NA,NA,NA,NA,""
"image-keyboard-response",32,78487,"0.0-3.7-0.7","hvconp1fg8ucxc5",332,"7.csv","","340.0999994277954","resources/trios/L1T4A1.jpg","37","restless",0.6,0.3,0.7,0.177482359648758,"true"
"image-keyboard-response",33,78891,"0.0-3.7-1.7","hvconp1fg8ucxc5",332,"7.csv","","null","resources/maskTrios/L1BB.jpg","null","",NA,NA,NA,NA,""
"image-keyboard-response",34,80098,"0.0-3.7-2.7","hvconp1fg8ucxc5",332,"7.csv","","null","resources/images/coin2.png","null","",NA,NA,NA,NA,""
"image-keyboard-response",35,80342,"0.0-3.8-0.8","hvconp1fg8ucxc5",332,"7.csv","","242.5","resources/trios/L1T4A3.jpg","39","restless",0.6,0.3,0.7,0.0695231450096501,"true"
"image-keyboard-response",36,80752,"0.0-3.8-1.8","hvconp1fg8ucxc5",332,"7.csv","","null","resources/maskTrios/BBA3.jpg","null","",NA,NA,NA,NA,""
"image-keyboard-response",37,81965,"0.0-3.8-2.8","hvconp1fg8ucxc5",332,"7.csv","","null","resources/images/coin2.png","null","",NA,NA,NA,NA,""
"image-keyboard-response",38,82812,"0.0-3.9-0.9","hvconp1fg8ucxc5",332,"7.csv","","845.3000001907349","resources/trios/L4T2A3.jpg","39","restless",0.5,0.3,0.7,0.867559108114589,"false"
"image-keyboard-response",39,83221,"0.0-3.9-1.9","hvconp1fg8ucxc5",332,"7.csv","","null","resources/maskTrios/BBA3.jpg","null","",NA,NA,NA,NA,""
"image-keyboard-response",40,84435,"0.0-3.9-2.9","hvconp1fg8ucxc5",332,"7.csv","","null","resources/images/fishbone.png","null","",NA,NA,NA,NA,""
"image-keyboard-response",41,85445,"0.0-3.10-0.10","hvconp1fg8ucxc5",332,"7.csv","","1008.5","resources/trios/L4T2A3.jpg","39","restless",0.5,0.3,0.7,0.886884891048079,"false"
"image-keyboard-response",42,85854,"0.0-3.10-1.10","hvconp1fg8ucxc5",332,"7.csv","","null","resources/maskTrios/BBA3.jpg","null","",NA,NA,NA,NA,""
"image-keyboard-response",43,87067,"0.0-3.10-2.10","hvconp1fg8ucxc5",332,"7.csv","","null","resources/images/fishbone.png","null","",NA,NA,NA,NA,""
"image-keyboard-response",44,87438,"0.0-3.11-0.11","hvconp1fg8ucxc5",332,"7.csv","","369.4000005722046","resources/trios/L1T2A1.jpg","38","restless",0.5,0.3,0.7,0.278348036364712,"true"
"image-keyboard-response",45,87848,"0.0-3.11-1.11","hvconp1fg8ucxc5",332,"7.csv","","null","resources/maskTrios/BT2B.jpg","null","",NA,NA,NA,NA,""
"image-keyboard-response",46,89054,"0.0-3.11-2.11","hvconp1fg8ucxc5",332,"7.csv","","null","resources/images/coin2.png","null","",NA,NA,NA,NA,""
"image-keyboard-response",47,89485,"0.0-3.12-0.12","hvconp1fg8ucxc5",332,"7.csv","","429.29999923706055","resources/trios/L4T4A3.jpg","37","restless",0.5,0.3,0.7,0.867020281290511,"false"
"image-keyboard-response",48,89888,"0.0-3.12-1.12","hvconp1fg8ucxc5",332,"7.csv","","null","resources/maskTrios/L4BB.jpg","null","",NA,NA,NA,NA,""
"image-keyboard-response",49,91101,"0.0-3.12-2.12","hvconp1fg8ucxc5",332,"7.csv","","null","resources/images/fishbone.png","null","",NA,NA,NA,NA,""
"image-keyboard-response",50,91559,"0.0-3.13-0.13","hvconp1fg8ucxc5",332,"7.csv","","456.4000005722046","resources/trios/L1T4A3.jpg","38","restless",0.5,0.3,0.7,0.618765236914791,"false"
"image-keyboard-response",51,91971,"0.0-3.13-1.13","hvconp1fg8ucxc5",332,"7.csv","","null","resources/maskTrios/BT4B.jpg","null","",NA,NA,NA,NA,""
"image-keyboard-response",52,93183,"0.0-3.13-2.13","hvconp1fg8ucxc5",332,"7.csv","","null","resources/images/fishbone.png","null","",NA,NA,NA,NA,""
"image-keyboard-response",53,93920,"0.0-3.14-0.14","hvconp1fg8ucxc5",332,"7.csv","","735.8999996185303","resources/trios/L1T4A1.jpg","39","restless",0.5,0.3,0.7,0.0188465044545645,"true"
"image-keyboard-response",54,94329,"0.0-3.14-1.14","hvconp1fg8ucxc5",332,"7.csv","","null","resources/maskTrios/BBA1.jpg","null","",NA,NA,NA,NA,""
"image-keyboard-response",55,95546,"0.0-3.14-2.14","hvconp1fg8ucxc5",332,"7.csv","","null","resources/images/coin2.png","null","",NA,NA,NA,NA,""
"image-keyboard-response",56,96367,"0.0-3.15-0.15","hvconp1fg8ucxc5",332,"7.csv","","819.0999994277954","resources/trios/L1T2A3.jpg","37","restless",0.5,0.3,0.7,0.0924284513727203,"true"
"image-keyboard-response",57,96775,"0.0-3.15-1.15","hvconp1fg8ucxc5",332,"7.csv","","null","resources/maskTrios/L1BB.jpg","null","",NA,NA,NA,NA,""
"image-keyboard-response",58,97981,"0.0-3.15-2.15","hvconp1fg8ucxc5",332,"7.csv","","null","resources/images/coin2.png","null","",NA,NA,NA,NA,""
"image-keyboard-response",59,98346,"0.0-3.16-0.16","hvconp1fg8ucxc5",332,"7.csv","","363.19999980926514","resources/trios/L4T4A1.jpg","38","restless",0.5,0.3,0.7,0.410644004697793,"false"
"image-keyboard-response",60,98760,"0.0-3.16-1.16","hvconp1fg8ucxc5",332,"7.csv","","null","resources/maskTrios/BT4B.jpg","null","",NA,NA,NA,NA,""
"image-keyboard-response",61,99966,"0.0-3.16-2.16","hvconp1fg8ucxc5",332,"7.csv","","null","resources/images/fishbone.png","null","",NA,NA,NA,NA,""
"image-keyboard-response",62,100498,"0.0-3.17-0.17","hvconp1fg8ucxc5",332,"7.csv","","529.8999996185303","resources/trios/L1T4A1.jpg","37","restless",0.5,0.3,0.7,0.923308717618919,"false"
"image-keyboard-response",63,100904,"0.0-3.17-1.17","hvconp1fg8ucxc5",332,"7.csv","","null","resources/maskTrios/L1BB.jpg","null","",NA,NA,NA,NA,""
"image-keyboard-response",64,102117,"0.0-3.17-2.17","hvconp1fg8ucxc5",332,"7.csv","","null","resources/images/fishbone.png","null","",NA,NA,NA,NA,""
"image-keyboard-response",65,102725,"0.0-3.18-0.18","hvconp1fg8ucxc5",332,"7.csv","","606.8999996185303","resources/trios/L1T2A3.jpg","37","restless",0.6,0.3,0.7,0.269740073511226,"true"
"image-keyboard-response",66,103128,"0.0-3.18-1.18","hvconp1fg8ucxc5",332,"7.csv","","null","resources/maskTrios/L1BB.jpg","null","",NA,NA,NA,NA,""
"image-keyboard-response",67,104343,"0.0-3.18-2.18","hvconp1fg8ucxc5",332,"7.csv","","null","resources/images/coin2.png","null","",NA,NA,NA,NA,""
"image-keyboard-response",68,104699,"0.0-3.19-0.19","hvconp1fg8ucxc5",332,"7.csv","","354.5999994277954","resources/trios/L1T2A3.jpg","38","restless",0.6,0.3,0.7,0.602543929127512,"false"
"image-keyboard-response",69,105129,"0.0-3.19-1.19","hvconp1fg8ucxc5",332,"7.csv","","null","resources/maskTrios/BT2B.jpg","null","",NA,NA,NA,NA,""
"image-keyboard-response",70,106345,"0.0-3.19-2.19","hvconp1fg8ucxc5",332,"7.csv","","null","resources/images/fishbone.png","null","",NA,NA,NA,NA,""
"image-keyboard-response",71,106712,"0.0-3.20-0.20","hvconp1fg8ucxc5",332,"7.csv","","365.80000019073486","resources/trios/L1T4A1.jpg","39","restless",0.6,0.3,0.7,0.996913093434471,"false"
"image-keyboard-response",72,107123,"0.0-3.20-1.20","hvconp1fg8ucxc5",332,"7.csv","","null","resources/maskTrios/BBA1.jpg","null","",NA,NA,NA,NA,""
"image-keyboard-response",73,108327,"0.0-3.20-2.20","hvconp1fg8ucxc5",332,"7.csv","","null","resources/images/fishbone.png","null","",NA,NA,NA,NA,""
"image-keyboard-response",74,108646,"0.0-3.21-0.21","hvconp1fg8ucxc5",332,"7.csv","","316.3999996185303","resources/trios/L4T4A3.jpg","38","restless",0.6,0.3,0.7,0.870893236492364,"false"
"image-keyboard-response",75,109059,"0.0-3.21-1.21","hvconp1fg8ucxc5",332,"7.csv","","null","resources/maskTrios/BT4B.jpg","null","",NA,NA,NA,NA,""
"image-keyboard-response",76,110275,"0.0-3.21-2.21","hvconp1fg8ucxc5",332,"7.csv","","null","resources/images/fishbone.png","null","",NA,NA,NA,NA,""
"image-keyboard-response",77,111128,"0.0-3.22-0.22","hvconp1fg8ucxc5",332,"7.csv","","851.0999994277954","resources/trios/L4T4A3.jpg","38","restless",0.5,0.3,0.7,0.24490394689603,"true"
"image-keyboard-response",78,111537,"0.0-3.22-1.22","hvconp1fg8ucxc5",332,"7.csv","","null","resources/maskTrios/BT4B.jpg","null","",NA,NA,NA,NA,""
"image-keyboard-response",79,112763,"0.0-3.22-2.22","hvconp1fg8ucxc5",332,"7.csv","","null","resources/images/coin2.png","null","",NA,NA,NA,NA,""
"image-keyboard-response",80,113148,"0.0-3.23-0.23","hvconp1fg8ucxc5",332,"7.csv","","383.80000019073486","resources/trios/L1T4A1.jpg","38","restless",0.5,0.3,0.6,0.802218499725056,"false"
"image-keyboard-response",81,113552,"0.0-3.23-1.23","hvconp1fg8ucxc5",332,"7.csv","","null","resources/maskTrios/BT4B.jpg","null","",NA,NA,NA,NA,""
"image-keyboard-response",82,114763,"0.0-3.23-2.23","hvconp1fg8ucxc5",332,"7.csv","","null","resources/images/fishbone.png","null","",NA,NA,NA,NA,""
"image-keyboard-response",83,115117,"0.0-3.24-0.24","hvconp1fg8ucxc5",332,"7.csv","","352","resources/trios/L1T2A1.jpg","39","restless",0.5,0.3,0.6,0.604976108058153,"false"
"image-keyboard-response",84,115529,"0.0-3.24-1.24","hvconp1fg8ucxc5",332,"7.csv","","null","resources/maskTrios/BBA1.jpg","null","",NA,NA,NA,NA,""
"image-keyboard-response",85,116746,"0.0-3.24-2.24","hvconp1fg8ucxc5",332,"7.csv","","null","resources/images/fishbone.png","null","",NA,NA,NA,NA,""
"image-keyboard-response",86,116973,"0.0-3.25-0.25","hvconp1fg8ucxc5",332,"7.csv","","225.60000038146973","resources/trios/L1T2A1.jpg","37","restless",0.5,0.3,0.6,0.0874551102212575,"true"
"image-keyboard-response",87,117382,"0.0-3.25-1.25","hvconp1fg8ucxc5",332,"7.csv","","null","resources/maskTrios/L1BB.jpg","null","",NA,NA,NA,NA,""
"image-keyboard-response",88,118586,"0.0-3.25-2.25","hvconp1fg8ucxc5",332,"7.csv","","null","resources/images/coin2.png","null","",NA,NA,NA,NA,""
"image-keyboard-response",89,118818,"0.0-3.26-0.26","hvconp1fg8ucxc5",332,"7.csv","","229.70000076293945","resources/trios/L1T2A3.jpg","39","restless",0.5,0.3,0.6,0.208617001285338,"true"
"image-keyboard-response",90,119228,"0.0-3.26-1.26","hvconp1fg8ucxc5",332,"7.csv","","null","resources/maskTrios/BBA3.jpg","null","",NA,NA,NA,NA,""
"image-keyboard-response",91,120436,"0.0-3.26-2.26","hvconp1fg8ucxc5",332,"7.csv","","null","resources/images/coin2.png","null","",NA,NA,NA,NA,""
"image-keyboard-response",92,120697,"0.0-3.27-0.27","hvconp1fg8ucxc5",332,"7.csv","","259.30000019073486","resources/trios/L4T2A3.jpg","38","restless",0.5,0.3,0.6,0.787212060463493,"false"
"image-keyboard-response",93,121113,"0.0-3.27-1.27","hvconp1fg8ucxc5",332,"7.csv","","null","resources/maskTrios/BT2B.jpg","null","",NA,NA,NA,NA,""
"image-keyboard-response",94,122317,"0.0-3.27-2.27","hvconp1fg8ucxc5",332,"7.csv","","null","resources/images/fishbone.png","null","",NA,NA,NA,NA,""
"image-keyboard-response",95,122581,"0.0-3.28-0.28","hvconp1fg8ucxc5",332,"7.csv","","261.29999923706055","resources/trios/L4T4A1.jpg","37","restless",0.5,0.3,0.6,0.3536569382492,"true"
"image-keyboard-response",96,122987,"0.0-3.28-1.28","hvconp1fg8ucxc5",332,"7.csv","","null","resources/maskTrios/L4BB.jpg","null","",NA,NA,NA,NA,""
"image-keyboard-response",97,124201,"0.0-3.28-2.28","hvconp1fg8ucxc5",332,"7.csv","","null","resources/images/coin2.png","null","",NA,NA,NA,NA,""
"image-keyboard-response",98,124488,"0.0-3.29-0.29","hvconp1fg8ucxc5",332,"7.csv","","285.70000076293945","resources/trios/L1T4A1.jpg","39","restless",0.5,0.3,0.6,0.678506204377923,"false"
"image-keyboard-response",99,124895,"0.0-3.29-1.29","hvconp1fg8ucxc5",332,"7.csv","","null","resources/maskTrios/BBA1.jpg","null","",NA,NA,NA,NA,""
"image-keyboard-response",100,126105,"0.0-3.29-2.29","hvconp1fg8ucxc5",332,"7.csv","","null","resources/images/fishbone.png","null","",NA,NA,NA,NA,""
"image-keyboard-response",101,126508,"0.0-3.30-0.30","hvconp1fg8ucxc5",332,"7.csv","","401.0999994277954","resources/trios/L1T4A1.jpg","37","restless",0.5,0.3,0.6,0.629974178314493,"false"
"image-keyboard-response",102,126911,"0.0-3.30-1.30","hvconp1fg8ucxc5",332,"7.csv","","null","resources/maskTrios/L1BB.jpg","null","",NA,NA,NA,NA,""
"image-keyboard-response",103,128122,"0.0-3.30-2.30","hvconp1fg8ucxc5",332,"7.csv","","null","resources/images/fishbone.png","null","",NA,NA,NA,NA,""
"image-keyboard-response",104,128572,"0.0-3.31-0.31","hvconp1fg8ucxc5",332,"7.csv","","448","resources/trios/L1T2A1.jpg","37","restless",0.5,0.3,0.6,0.819617542595938,"false"
"image-keyboard-response",105,128980,"0.0-3.31-1.31","hvconp1fg8ucxc5",332,"7.csv","","null","resources/maskTrios/L1BB.jpg","null","",NA,NA,NA,NA,""
"image-keyboard-response",106,130186,"0.0-3.31-2.31","hvconp1fg8ucxc5",332,"7.csv","","null","resources/images/fishbone.png","null","",NA,NA,NA,NA,""
"image-keyboard-response",107,130571,"0.0-3.32-0.32","hvconp1fg8ucxc5",332,"7.csv","","383.69999980926514","resources/trios/L1T4A3.jpg","37","restless",0.5,0.3,0.6,0.793673200401323,"false"
"image-keyboard-response",108,130977,"0.0-3.32-1.32","hvconp1fg8ucxc5",332,"7.csv","","null","resources/maskTrios/L1BB.jpg","null","",NA,NA,NA,NA,""
"image-keyboard-response",109,132186,"0.0-3.32-2.32","hvconp1fg8ucxc5",332,"7.csv","","null","resources/images/fishbone.png","null","",NA,NA,NA,NA,""
"image-keyboard-response",110,132748,"0.0-3.33-0.33","hvconp1fg8ucxc5",332,"7.csv","","559.6999998092651","resources/trios/L1T4A1.jpg","38","restless",0.6,0.3,0.6,0.145281859982103,"true"
"image-keyboard-response",111,133163,"0.0-3.33-1.33","hvconp1fg8ucxc5",332,"7.csv","","null","resources/maskTrios/BT4B.jpg","null","",NA,NA,NA,NA,""
"image-keyboard-response",112,134375,"0.0-3.33-2.33","hvconp1fg8ucxc5",332,"7.csv","","null","resources/images/coin2.png","null","",NA,NA,NA,NA,""
"image-keyboard-response",113,134574,"0.0-3.34-0.34","hvconp1fg8ucxc5",332,"7.csv","","197.30000019073486","resources/trios/L1T4A3.jpg","39","restless",0.7,0.3,0.6,0.935134481164488,"false"
"image-keyboard-response",114,134986,"0.0-3.34-1.34","hvconp1fg8ucxc5",332,"7.csv","","null","resources/maskTrios/BBA3.jpg","null","",NA,NA,NA,NA,""
"image-keyboard-response",115,136192,"0.0-3.34-2.34","hvconp1fg8ucxc5",332,"7.csv","","null","resources/images/fishbone.png","null","",NA,NA,NA,NA,""
"image-keyboard-response",116,136468,"0.0-3.35-0.35","hvconp1fg8ucxc5",332,"7.csv","","274","resources/trios/L1T2A3.jpg","37","restless",0.7,0.3,0.6,0.652630248674703,"true"
"image-keyboard-response",117,136895,"0.0-3.35-1.35","hvconp1fg8ucxc5",332,"7.csv","","null","resources/maskTrios/L1BB.jpg","null","",NA,NA,NA,NA,""
"image-keyboard-response",118,138101,"0.0-3.35-2.35","hvconp1fg8ucxc5",332,"7.csv","","null","resources/images/coin2.png","null","",NA,NA,NA,NA,""
"image-keyboard-response",119,138326,"0.0-3.36-0.36","hvconp1fg8ucxc5",332,"7.csv","","223.10000038146973","resources/trios/L4T2A3.jpg","38","restless",0.7,0.3,0.6,0.94910059131138,"false"
"image-keyboard-response",120,138737,"0.0-3.36-1.36","hvconp1fg8ucxc5",332,"7.csv","","null","resources/maskTrios/BT2B.jpg","null","",NA,NA,NA,NA,""
"image-keyboard-response",121,139943,"0.0-3.36-2.36","hvconp1fg8ucxc5",332,"7.csv","","null","resources/images/fishbone.png","null","",NA,NA,NA,NA,""
"image-keyboard-response",122,140329,"0.0-3.37-0.37","hvconp1fg8ucxc5",332,"7.csv","","384.30000019073486","resources/trios/L1T2A3.jpg","37","restless",0.7,0.3,0.6,0.508978299852988,"true"
"image-keyboard-response",123,140733,"0.0-3.37-1.37","hvconp1fg8ucxc5",332,"7.csv","","null","resources/maskTrios/L1BB.jpg","null","",NA,NA,NA,NA,""
"image-keyboard-response",124,141950,"0.0-3.37-2.37","hvconp1fg8ucxc5",332,"7.csv","","null","resources/images/coin2.png","null","",NA,NA,NA,NA,""
"image-keyboard-response",125,142243,"0.0-3.38-0.38","hvconp1fg8ucxc5",332,"7.csv","","290.9000005722046","resources/trios/L4T4A3.jpg","39","restless",0.7,0.3,0.7,0.14355104410364,"true"
"image-keyboard-response",126,142659,"0.0-3.38-1.38","hvconp1fg8ucxc5",332,"7.csv","","null","resources/maskTrios/BBA3.jpg","null","",NA,NA,NA,NA,""
"image-keyboard-response",127,143873,"0.0-3.38-2.38","hvconp1fg8ucxc5",332,"7.csv","","null","resources/images/coin2.png","null","",NA,NA,NA,NA,""
"image-keyboard-response",128,144204,"0.0-3.39-0.39","hvconp1fg8ucxc5",332,"7.csv","","329","resources/trios/L4T4A3.jpg","38","restless",0.7,0.3,0.7,0.470019408100094,"false"
"image-keyboard-response",129,144614,"0.0-3.39-1.39","hvconp1fg8ucxc5",332,"7.csv","","null","resources/maskTrios/BT4B.jpg","null","",NA,NA,NA,NA,""
"image-keyboard-response",130,145827,"0.0-3.39-2.39","hvconp1fg8ucxc5",332,"7.csv","","null","resources/images/fishbone.png","null","",NA,NA,NA,NA,""
"image-keyboard-response",131,146131,"0.0-3.40-0.40","hvconp1fg8ucxc5",332,"7.csv","","302.3999996185303","resources/trios/L4T4A3.jpg","37","restless",0.8,0.3,0.7,0.467452987166529,"true"
"image-keyboard-response",132,146537,"0.0-3.40-1.40","hvconp1fg8ucxc5",332,"7.csv","","null","resources/maskTrios/L4BB.jpg","null","",NA,NA,NA,NA,""
"image-keyboard-response",133,147741,"0.0-3.40-2.40","hvconp1fg8ucxc5",332,"7.csv","","null","resources/images/coin2.png","null","",NA,NA,NA,NA,""
"image-keyboard-response",134,147939,"0.0-3.41-0.41","hvconp1fg8ucxc5",332,"7.csv","","195.80000019073486","resources/trios/L4T4A1.jpg","39","restless",0.8,0.3,0.7,0.0801053711422035,"true"
"image-keyboard-response",135,148353,"0.0-3.41-1.41","hvconp1fg8ucxc5",332,"7.csv","","null","resources/maskTrios/BBA1.jpg","null","",NA,NA,NA,NA,""
"image-keyboard-response",136,149565,"0.0-3.41-2.41","hvconp1fg8ucxc5",332,"7.csv","","null","resources/images/coin2.png","null","",NA,NA,NA,NA,""
"image-keyboard-response",137,149861,"0.0-3.42-0.42","hvconp1fg8ucxc5",332,"7.csv","","294.3999996185303","resources/trios/L1T2A3.jpg","37","restless",0.8,0.3,0.7,0.300621192615776,"true"
"image-keyboard-response",138,150272,"0.0-3.42-1.42","hvconp1fg8ucxc5",332,"7.csv","","null","resources/maskTrios/L1BB.jpg","null","",NA,NA,NA,NA,""
"image-keyboard-response",139,151485,"0.0-3.42-2.42","hvconp1fg8ucxc5",332,"7.csv","","null","resources/images/coin2.png","null","",NA,NA,NA,NA,""
"image-keyboard-response",140,151723,"0.0-3.43-0.43","hvconp1fg8ucxc5",332,"7.csv","","235.5999994277954","resources/trios/L4T2A3.jpg","38","restless",0.8,0.3,0.7,0.855188737898211,"false"
"image-keyboard-response",141,152128,"0.0-3.43-1.43","hvconp1fg8ucxc5",332,"7.csv","","null","resources/maskTrios/BT2B.jpg","null","",NA,NA,NA,NA,""
"image-keyboard-response",142,153341,"0.0-3.43-2.43","hvconp1fg8ucxc5",332,"7.csv","","null","resources/images/fishbone.png","null","",NA,NA,NA,NA,""
"image-keyboard-response",143,153593,"0.0-3.44-0.44","hvconp1fg8ucxc5",332,"7.csv","","250.5","resources/trios/L4T4A1.jpg","37","restless",0.8,0.2,0.7,0.552042678937664,"true"
"image-keyboard-response",144,153997,"0.0-3.44-1.44","hvconp1fg8ucxc5",332,"7.csv","","null","resources/maskTrios/L4BB.jpg","null","",NA,NA,NA,NA,""
"image-keyboard-response",145,155199,"0.0-3.44-2.44","hvconp1fg8ucxc5",332,"7.csv","","null","resources/images/coin2.png","null","",NA,NA,NA,NA,""
"image-keyboard-response",146,155541,"0.0-3.45-0.45","hvconp1fg8ucxc5",332,"7.csv","","339.80000019073486","resources/trios/L1T4A3.jpg","39","restless",0.8,0.2,0.8,0.139754524494912,"true"
"image-keyboard-response",147,155954,"0.0-3.45-1.45","hvconp1fg8ucxc5",332,"7.csv","","null","resources/maskTrios/BBA3.jpg","null","",NA,NA,NA,NA,""
"image-keyboard-response",148,157164,"0.0-3.45-2.45","hvconp1fg8ucxc5",332,"7.csv","","null","resources/images/coin2.png","null","",NA,NA,NA,NA,""
"image-keyboard-response",149,157485,"0.0-3.46-0.46","hvconp1fg8ucxc5",332,"7.csv","","319.29999923706055","resources/trios/L4T2A3.jpg","39","restless",0.8,0.3,0.8,0.260720480126688,"true"
"image-keyboard-response",150,157895,"0.0-3.46-1.46","hvconp1fg8ucxc5",332,"7.csv","","null","resources/maskTrios/BBA3.jpg","null","",NA,NA,NA,NA,""
"image-keyboard-response",151,159101,"0.0-3.46-2.46","hvconp1fg8ucxc5",332,"7.csv","","null","resources/images/coin2.png","null","",NA,NA,NA,NA,""
"image-keyboard-response",152,159497,"0.0-3.47-0.47","hvconp1fg8ucxc5",332,"7.csv","","394.80000019073486","resources/trios/L1T2A3.jpg","37","restless",0.8,0.3,0.8,0.821376981984106,"false"
"image-keyboard-response",153,159909,"0.0-3.47-1.47","hvconp1fg8ucxc5",332,"7.csv","","null","resources/maskTrios/L1BB.jpg","null","",NA,NA,NA,NA,""
"image-keyboard-response",154,161113,"0.0-3.47-2.47","hvconp1fg8ucxc5",332,"7.csv","","null","resources/images/fishbone.png","null","",NA,NA,NA,NA,""
"image-keyboard-response",155,161408,"0.0-3.48-0.48","hvconp1fg8ucxc5",332,"7.csv","","293.8999996185303","resources/trios/L4T4A3.jpg","37","restless",0.8,0.3,0.8,0.289715684468859,"true"
"image-keyboard-response",156,161815,"0.0-3.48-1.48","hvconp1fg8ucxc5",332,"7.csv","","null","resources/maskTrios/L4BB.jpg","null","",NA,NA,NA,NA,""
"image-keyboard-response",157,163032,"0.0-3.48-2.48","hvconp1fg8ucxc5",332,"7.csv","","null","resources/images/coin2.png","null","",NA,NA,NA,NA,""
"image-keyboard-response",158,163278,"0.0-3.49-0.49","hvconp1fg8ucxc5",332,"7.csv","","244","resources/trios/L4T4A3.jpg","39","restless",0.8,0.3,0.8,0.376585950688155,"true"
"image-keyboard-response",159,163689,"0.0-3.49-1.49","hvconp1fg8ucxc5",332,"7.csv","","null","resources/maskTrios/BBA3.jpg","null","",NA,NA,NA,NA,""
"image-keyboard-response",160,164891,"0.0-3.49-2.49","hvconp1fg8ucxc5",332,"7.csv","","null","resources/images/coin2.png","null","",NA,NA,NA,NA,""
"image-keyboard-response",161,165187,"0.0-3.50-0.50","hvconp1fg8ucxc5",332,"7.csv","","294.9000005722046","resources/trios/L1T2A3.jpg","39","restless",0.8,0.3,0.8,0.107630542264995,"true"
"image-keyboard-response",162,165592,"0.0-3.50-1.50","hvconp1fg8ucxc5",332,"7.csv","","null","resources/maskTrios/BBA3.jpg","null","",NA,NA,NA,NA,""
"image-keyboard-response",163,166804,"0.0-3.50-2.50","hvconp1fg8ucxc5",332,"7.csv","","null","resources/images/coin2.png","null","",NA,NA,NA,NA,""
"image-keyboard-response",164,167122,"0.0-3.51-0.51","hvconp1fg8ucxc5",332,"7.csv","","315.69999980926514","resources/trios/L1T2A1.jpg","38","restless",0.8,0.3,0.8,0.222191455272754,"true"
"image-keyboard-response",165,167532,"0.0-3.51-1.51","hvconp1fg8ucxc5",332,"7.csv","","null","resources/maskTrios/BT2B.jpg","null","",NA,NA,NA,NA,""
"image-keyboard-response",166,168738,"0.0-3.51-2.51","hvconp1fg8ucxc5",332,"7.csv","","null","resources/images/coin2.png","null","",NA,NA,NA,NA,""
"image-keyboard-response",167,169040,"0.0-3.52-0.52","hvconp1fg8ucxc5",332,"7.csv","","299.6000003814697","resources/trios/L4T4A1.jpg","37","restless",0.8,0.3,0.8,0.437642078175331,"true"
"image-keyboard-response",168,169447,"0.0-3.52-1.52","hvconp1fg8ucxc5",332,"7.csv","","null","resources/maskTrios/L4BB.jpg","null","",NA,NA,NA,NA,""
"image-keyboard-response",169,170662,"0.0-3.52-2.52","hvconp1fg8ucxc5",332,"7.csv","","null","resources/images/coin2.png","null","",NA,NA,NA,NA,""
"image-keyboard-response",170,170990,"0.0-3.53-0.53","hvconp1fg8ucxc5",332,"7.csv","","325.69999980926514","resources/trios/L4T2A1.jpg","39","restless",0.7,0.3,0.8,0.816075696216538,"false"
"image-keyboard-response",171,171394,"0.0-3.53-1.53","hvconp1fg8ucxc5",332,"7.csv","","null","resources/maskTrios/BBA1.jpg","null","",NA,NA,NA,NA,""
"image-keyboard-response",172,172608,"0.0-3.53-2.53","hvconp1fg8ucxc5",332,"7.csv","","null","resources/images/fishbone.png","null","",NA,NA,NA,NA,""
"image-keyboard-response",173,173261,"0.0-3.54-0.54","hvconp1fg8ucxc5",332,"7.csv","","652","resources/trios/L4T4A1.jpg","37","restless",0.7,0.3,0.8,0.879186245637308,"false"
"image-keyboard-response",174,173676,"0.0-3.54-1.54","hvconp1fg8ucxc5",332,"7.csv","","null","resources/maskTrios/L4BB.jpg","null","",NA,NA,NA,NA,""
"image-keyboard-response",175,174878,"0.0-3.54-2.54","hvconp1fg8ucxc5",332,"7.csv","","null","resources/images/fishbone.png","null","",NA,NA,NA,NA,""
"image-keyboard-response",176,175194,"0.0-3.55-0.55","hvconp1fg8ucxc5",332,"7.csv","","314","resources/trios/L1T4A3.jpg","37","restless",0.7,0.3,0.8,0.439006905798048,"true"
"image-keyboard-response",177,175596,"0.0-3.55-1.55","hvconp1fg8ucxc5",332,"7.csv","","null","resources/maskTrios/L1BB.jpg","null","",NA,NA,NA,NA,""
"image-keyboard-response",178,176810,"0.0-3.55-2.55","hvconp1fg8ucxc5",332,"7.csv","","null","resources/images/coin2.png","null","",NA,NA,NA,NA,""
"image-keyboard-response",179,177068,"0.0-3.56-0.56","hvconp1fg8ucxc5",332,"7.csv","","256","resources/trios/L4T2A1.jpg","39","restless",0.7,0.3,0.8,0.480604008948655,"true"
"image-keyboard-response",180,177480,"0.0-3.56-1.56","hvconp1fg8ucxc5",332,"7.csv","","null","resources/maskTrios/BBA1.jpg","null","",NA,NA,NA,NA,""
"image-keyboard-response",181,178695,"0.0-3.56-2.56","hvconp1fg8ucxc5",332,"7.csv","","null","resources/images/coin2.png","null","",NA,NA,NA,NA,""
"image-keyboard-response",182,178976,"0.0-3.57-0.57","hvconp1fg8ucxc5",332,"7.csv","","278.9000005722046","resources/trios/L1T2A1.jpg","39","restless",0.7,0.3,0.8,0.478915482041874,"true"
"image-keyboard-response",183,179392,"0.0-3.57-1.57","hvconp1fg8ucxc5",332,"7.csv","","null","resources/maskTrios/BBA1.jpg","null","",NA,NA,NA,NA,""
"image-keyboard-response",184,180596,"0.0-3.57-2.57","hvconp1fg8ucxc5",332,"7.csv","","null","resources/images/coin2.png","null","",NA,NA,NA,NA,""
"image-keyboard-response",185,180973,"0.0-3.58-0.58","hvconp1fg8ucxc5",332,"7.csv","","375.5","resources/trios/L1T4A1.jpg","37","restless",0.6,0.3,0.8,0.35850242931776,"true"
"image-keyboard-response",186,181385,"0.0-3.58-1.58","hvconp1fg8ucxc5",332,"7.csv","","null","resources/maskTrios/L1BB.jpg","null","",NA,NA,NA,NA,""
"image-keyboard-response",187,182588,"0.0-3.58-2.58","hvconp1fg8ucxc5",332,"7.csv","","null","resources/images/coin2.png","null","",NA,NA,NA,NA,""
"image-keyboard-response",188,182993,"0.0-3.59-0.59","hvconp1fg8ucxc5",332,"7.csv","","402.69999980926514","resources/trios/L1T2A1.jpg","38","restless",0.6,0.3,0.8,0.00592833196253251,"true"
"image-keyboard-response",189,183402,"0.0-3.59-1.59","hvconp1fg8ucxc5",332,"7.csv","","null","resources/maskTrios/BT2B.jpg","null","",NA,NA,NA,NA,""
"image-keyboard-response",190,184614,"0.0-3.59-2.59","hvconp1fg8ucxc5",332,"7.csv","","null","resources/images/coin2.png","null","",NA,NA,NA,NA,""
"image-keyboard-response",191,185568,"0.0-3.60-0.60","hvconp1fg8ucxc5",332,"7.csv","","950.5","resources/trios/L1T2A3.jpg","38","restless",0.5,0.3,0.8,0.534556212566425,"false"
"image-keyboard-response",192,185977,"0.0-3.60-1.60","hvconp1fg8ucxc5",332,"7.csv","","null","resources/maskTrios/BT2B.jpg","null","",NA,NA,NA,NA,""
"image-keyboard-response",193,187188,"0.0-3.60-2.60","hvconp1fg8ucxc5",332,"7.csv","","null","resources/images/fishbone.png","null","",NA,NA,NA,NA,""
"image-keyboard-response",194,187497,"0.0-3.61-0.61","hvconp1fg8ucxc5",332,"7.csv","","307.4000005722046","resources/trios/L4T2A1.jpg","37","restless",0.4,0.4,0.8,0.368289047051928,"true"
"image-keyboard-response",195,187913,"0.0-3.61-1.61","hvconp1fg8ucxc5",332,"7.csv","","null","resources/maskTrios/L4BB.jpg","null","",NA,NA,NA,NA,""
"image-keyboard-response",196,189125,"0.0-3.61-2.61","hvconp1fg8ucxc5",332,"7.csv","","null","resources/images/coin2.png","null","",NA,NA,NA,NA,""
"image-keyboard-response",197,189415,"0.0-3.62-0.62","hvconp1fg8ucxc5",332,"7.csv","","288.5999994277954","resources/trios/L1T2A3.jpg","39","restless",0.4,0.4,0.8,0.273641717506157,"true"
"image-keyboard-response",198,189824,"0.0-3.62-1.62","hvconp1fg8ucxc5",332,"7.csv","","null","resources/maskTrios/BBA3.jpg","null","",NA,NA,NA,NA,""
"image-keyboard-response",199,191039,"0.0-3.62-2.62","hvconp1fg8ucxc5",332,"7.csv","","null","resources/images/coin2.png","null","",NA,NA,NA,NA,""
"image-keyboard-response",200,191286,"0.0-3.63-0.63","hvconp1fg8ucxc5",332,"7.csv","","245.4000005722046","resources/trios/L1T2A3.jpg","39","restless",0.4,0.3,0.8,0.792427133417258,"true"
"image-keyboard-response",201,191694,"0.0-3.63-1.63","hvconp1fg8ucxc5",332,"7.csv","","null","resources/maskTrios/BBA3.jpg","null","",NA,NA,NA,NA,""
"image-keyboard-response",202,192903,"0.0-3.63-2.63","hvconp1fg8ucxc5",332,"7.csv","","null","resources/images/coin2.png","null","",NA,NA,NA,NA,""
"image-keyboard-response",203,193217,"0.0-3.64-0.64","hvconp1fg8ucxc5",332,"7.csv","","311.8999996185303","resources/trios/L1T2A3.jpg","37","restless",0.4,0.3,0.9,0.0679328155608427,"true"
"image-keyboard-response",204,193626,"0.0-3.64-1.64","hvconp1fg8ucxc5",332,"7.csv","","null","resources/maskTrios/L1BB.jpg","null","",NA,NA,NA,NA,""
"image-keyboard-response",205,194831,"0.0-3.64-2.64","hvconp1fg8ucxc5",332,"7.csv","","null","resources/images/coin2.png","null","",NA,NA,NA,NA,""
"image-keyboard-response",206,195144,"0.0-3.65-0.65","hvconp1fg8ucxc5",332,"7.csv","","311.5","resources/trios/L1T2A1.jpg","38","restless",0.4,0.3,0.9,0.886510588181003,"false"
"image-keyboard-response",207,195557,"0.0-3.65-1.65","hvconp1fg8ucxc5",332,"7.csv","","null","resources/maskTrios/BT2B.jpg","null","",NA,NA,NA,NA,""
"image-keyboard-response",208,196766,"0.0-3.65-2.65","hvconp1fg8ucxc5",332,"7.csv","","null","resources/images/fishbone.png","null","",NA,NA,NA,NA,""
"image-keyboard-response",209,197283,"0.0-3.66-0.66","hvconp1fg8ucxc5",332,"7.csv","","515.6999998092651","resources/trios/L4T2A3.jpg","37","restless",0.4,0.3,0.9,0.698669894733079,"false"
"image-keyboard-response",210,197686,"0.0-3.66-1.66","hvconp1fg8ucxc5",332,"7.csv","","null","resources/maskTrios/L4BB.jpg","null","",NA,NA,NA,NA,""
"image-keyboard-response",211,198892,"0.0-3.66-2.66","hvconp1fg8ucxc5",332,"7.csv","","null","resources/images/fishbone.png","null","",NA,NA,NA,NA,""
"image-keyboard-response",212,199185,"0.0-3.67-0.67","hvconp1fg8ucxc5",332,"7.csv","","291.80000019073486","resources/trios/L1T2A1.jpg","37","restless",0.3,0.3,0.8,0.498672591818347,"false"
"image-keyboard-response",213,199594,"0.0-3.67-1.67","hvconp1fg8ucxc5",332,"7.csv","","null","resources/maskTrios/L1BB.jpg","null","",NA,NA,NA,NA,""
"image-keyboard-response",214,200807,"0.0-3.67-2.67","hvconp1fg8ucxc5",332,"7.csv","","null","resources/images/fishbone.png","null","",NA,NA,NA,NA,""
"image-keyboard-response",215,201017,"0.0-3.68-0.68","hvconp1fg8ucxc5",332,"7.csv","","208.30000019073486","resources/trios/L1T2A3.jpg","37","restless",0.3,0.3,0.8,0.164861600160446,"true"
"image-keyboard-response",216,201422,"0.0-3.68-1.68","hvconp1fg8ucxc5",332,"7.csv","","null","resources/maskTrios/L1BB.jpg","null","",NA,NA,NA,NA,""
"image-keyboard-response",217,202631,"0.0-3.68-2.68","hvconp1fg8ucxc5",332,"7.csv","","null","resources/images/coin2.png","null","",NA,NA,NA,NA,""
"image-keyboard-response",218,202884,"0.0-3.69-0.69","hvconp1fg8ucxc5",332,"7.csv","","250.9000005722046","resources/trios/L1T2A1.jpg","39","restless",0.3,0.4,0.9,0.0459190731023973,"true"
"image-keyboard-response",219,203291,"0.0-3.69-1.69","hvconp1fg8ucxc5",332,"7.csv","","null","resources/maskTrios/BBA1.jpg","null","",NA,NA,NA,NA,""
"image-keyboard-response",220,204507,"0.0-3.69-2.69","hvconp1fg8ucxc5",332,"7.csv","","null","resources/images/coin2.png","null","",NA,NA,NA,NA,""
"image-keyboard-response",221,204693,"0.0-3.70-0.70","hvconp1fg8ucxc5",332,"7.csv","","184","resources/trios/L1T2A1.jpg","39","restless",0.3,0.4,0.9,0.216369043806241,"true"
"image-keyboard-response",222,205099,"0.0-3.70-1.70","hvconp1fg8ucxc5",332,"7.csv","","null","resources/maskTrios/BBA1.jpg","null","",NA,NA,NA,NA,""
"image-keyboard-response",223,206303,"0.0-3.70-2.70","hvconp1fg8ucxc5",332,"7.csv","","null","resources/images/coin2.png","null","",NA,NA,NA,NA,""
"image-keyboard-response",224,206602,"0.0-3.71-0.71","hvconp1fg8ucxc5",332,"7.csv","","296.80000019073486","resources/trios/L4T4A3.jpg","37","restless",0.3,0.4,0.9,0.139985421451258,"true"
"image-keyboard-response",225,207017,"0.0-3.71-1.71","hvconp1fg8ucxc5",332,"7.csv","","null","resources/maskTrios/L4BB.jpg","null","",NA,NA,NA,NA,""
"image-keyboard-response",226,208232,"0.0-3.71-2.71","hvconp1fg8ucxc5",332,"7.csv","","null","resources/images/coin2.png","null","",NA,NA,NA,NA,""
"image-keyboard-response",227,209053,"0.0-3.72-0.72","hvconp1fg8ucxc5",332,"7.csv","","819.1999998092651","resources/trios/L1T2A1.jpg","38","restless",0.3,0.4,0.9,0.922021737748832,"false"
"image-keyboard-response",228,209468,"0.0-3.72-1.72","hvconp1fg8ucxc5",332,"7.csv","","null","resources/maskTrios/BT2B.jpg","null","",NA,NA,NA,NA,""
"image-keyboard-response",229,210674,"0.0-3.72-2.72","hvconp1fg8ucxc5",332,"7.csv","","null","resources/images/fishbone.png","null","",NA,NA,NA,NA,""
"image-keyboard-response",230,211039,"0.0-3.73-0.73","hvconp1fg8ucxc5",332,"7.csv","","363.19999980926514","resources/trios/L4T2A1.jpg","37","restless",0.3,0.4,0.9,0.0219979686029994,"true"
"image-keyboard-response",231,211443,"0.0-3.73-1.73","hvconp1fg8ucxc5",332,"7.csv","","null","resources/maskTrios/L4BB.jpg","null","",NA,NA,NA,NA,""
"image-keyboard-response",232,212657,"0.0-3.73-2.73","hvconp1fg8ucxc5",332,"7.csv","","null","resources/images/coin2.png","null","",NA,NA,NA,NA,""
"image-keyboard-response",233,212962,"0.0-3.74-0.74","hvconp1fg8ucxc5",332,"7.csv","","302.6000003814697","resources/trios/L4T4A1.jpg","39","restless",0.2,0.4,0.9,0.360837066843765,"true"
"image-keyboard-response",234,213369,"0.0-3.74-1.74","hvconp1fg8ucxc5",332,"7.csv","","null","resources/maskTrios/BBA1.jpg","null","",NA,NA,NA,NA,""
"image-keyboard-response",235,214571,"0.0-3.74-2.74","hvconp1fg8ucxc5",332,"7.csv","","null","resources/images/coin2.png","null","",NA,NA,NA,NA,""
"image-keyboard-response",236,214855,"0.0-3.75-0.75","hvconp1fg8ucxc5",332,"7.csv","","281.8999996185303","resources/trios/L1T4A3.jpg","39","restless",0.2,0.3,0.9,0.32661239516957,"true"
"image-keyboard-response",237,215262,"0.0-3.75-1.75","hvconp1fg8ucxc5",332,"7.csv","","null","resources/maskTrios/BBA3.jpg","null","",NA,NA,NA,NA,""
"image-keyboard-response",238,216466,"0.0-3.75-2.75","hvconp1fg8ucxc5",332,"7.csv","","null","resources/images/coin2.png","null","",NA,NA,NA,NA,""
"image-keyboard-response",239,216806,"0.0-3.76-0.76","hvconp1fg8ucxc5",332,"7.csv","","337.80000019073486","resources/trios/L4T4A1.jpg","37","restless",0.2,0.3,0.9,0.875932485583286,"false"
"image-keyboard-response",240,217209,"0.0-3.76-1.76","hvconp1fg8ucxc5",332,"7.csv","","null","resources/maskTrios/L4BB.jpg","null","",NA,NA,NA,NA,""
"image-keyboard-response",241,218422,"0.0-3.76-2.76","hvconp1fg8ucxc5",332,"7.csv","","null","resources/images/fishbone.png","null","",NA,NA,NA,NA,""
"image-keyboard-response",242,218889,"0.0-3.77-0.77","hvconp1fg8ucxc5",332,"7.csv","","465.30000019073486","resources/trios/L4T2A1.jpg","38","restless",0.2,0.3,0.8,0.859576416894294,"false"
"image-keyboard-response",243,219297,"0.0-3.77-1.77","hvconp1fg8ucxc5",332,"7.csv","","null","resources/maskTrios/BT2B.jpg","null","",NA,NA,NA,NA,""
"image-keyboard-response",244,220504,"0.0-3.77-2.77","hvconp1fg8ucxc5",332,"7.csv","","null","resources/images/fishbone.png","null","",NA,NA,NA,NA,""
"image-keyboard-response",245,220790,"0.0-3.78-0.78","hvconp1fg8ucxc5",332,"7.csv","","283.5","resources/trios/L4T4A1.jpg","37","restless",0.1,0.3,0.8,0.453696166925052,"false"
"image-keyboard-response",246,221207,"0.0-3.78-1.78","hvconp1fg8ucxc5",332,"7.csv","","null","resources/maskTrios/L4BB.jpg","null","",NA,NA,NA,NA,""
"image-keyboard-response",247,222414,"0.0-3.78-2.78","hvconp1fg8ucxc5",332,"7.csv","","null","resources/images/fishbone.png","null","",NA,NA,NA,NA,""
"image-keyboard-response",248,222785,"0.0-3.79-0.79","hvconp1fg8ucxc5",332,"7.csv","","368.6000003814697","resources/trios/L1T2A1.jpg","37","restless",0.1,0.3,0.8,0.883085921737218,"false"
"image-keyboard-response",249,223187,"0.0-3.79-1.79","hvconp1fg8ucxc5",332,"7.csv","","null","resources/maskTrios/L1BB.jpg","null","",NA,NA,NA,NA,""
"image-keyboard-response",250,224404,"0.0-3.79-2.79","hvconp1fg8ucxc5",332,"7.csv","","null","resources/images/fishbone.png","null","",NA,NA,NA,NA,""
"image-keyboard-response",251,224901,"0.0-3.80-0.80","hvconp1fg8ucxc5",332,"7.csv","","495","resources/trios/L1T4A3.jpg","39","restless",0.1,0.3,0.8,0.816724109642913,"false"
"image-keyboard-response",252,225304,"0.0-3.80-1.80","hvconp1fg8ucxc5",332,"7.csv","","null","resources/maskTrios/BBA3.jpg","null","",NA,NA,NA,NA,""
"image-keyboard-response",253,226515,"0.0-3.80-2.80","hvconp1fg8ucxc5",332,"7.csv","","null","resources/images/fishbone.png","null","",NA,NA,NA,NA,""
"image-keyboard-response",254,226763,"0.0-3.81-0.81","hvconp1fg8ucxc5",332,"7.csv","","246.5","resources/trios/L1T4A3.jpg","37","restless",0.1,0.4,0.7,0.733167910263899,"false"
"image-keyboard-response",255,227166,"0.0-3.81-1.81","hvconp1fg8ucxc5",332,"7.csv","","null","resources/maskTrios/L1BB.jpg","null","",NA,NA,NA,NA,""
"image-keyboard-response",256,228369,"0.0-3.81-2.81","hvconp1fg8ucxc5",332,"7.csv","","null","resources/images/fishbone.png","null","",NA,NA,NA,NA,""
"image-keyboard-response",257,228708,"0.0-3.82-0.82","hvconp1fg8ucxc5",332,"7.csv","","338","resources/trios/L1T2A3.jpg","37","restless",0.1,0.4,0.7,0.753900340706166,"false"
"image-keyboard-response",258,229117,"0.0-3.82-1.82","hvconp1fg8ucxc5",332,"7.csv","","null","resources/maskTrios/L1BB.jpg","null","",NA,NA,NA,NA,""
"image-keyboard-response",259,230326,"0.0-3.82-2.82","hvconp1fg8ucxc5",332,"7.csv","","null","resources/images/fishbone.png","null","",NA,NA,NA,NA,""
"image-keyboard-response",260,230534,"0.0-3.83-0.83","hvconp1fg8ucxc5",332,"7.csv","","206.5","resources/trios/L1T2A3.jpg","37","restless",0.1,0.4,0.7,0.684217981615018,"false"
"image-keyboard-response",261,230945,"0.0-3.83-1.83","hvconp1fg8ucxc5",332,"7.csv","","null","resources/maskTrios/L1BB.jpg","null","",NA,NA,NA,NA,""
"image-keyboard-response",262,232158,"0.0-3.83-2.83","hvconp1fg8ucxc5",332,"7.csv","","null","resources/images/fishbone.png","null","",NA,NA,NA,NA,""
"image-keyboard-response",263,232996,"0.0-3.84-0.84","hvconp1fg8ucxc5",332,"7.csv","","836.3999996185303","resources/trios/L4T4A3.jpg","37","restless",0.1,0.3,0.7,0.312825143054731,"false"
"image-keyboard-response",264,233401,"0.0-3.84-1.84","hvconp1fg8ucxc5",332,"7.csv","","null","resources/maskTrios/L4BB.jpg","null","",NA,NA,NA,NA,""
"image-keyboard-response",265,234611,"0.0-3.84-2.84","hvconp1fg8ucxc5",332,"7.csv","","null","resources/images/fishbone.png","null","",NA,NA,NA,NA,""
"image-keyboard-response",266,234947,"0.0-3.85-0.85","hvconp1fg8ucxc5",332,"7.csv","","334.5","resources/trios/L4T2A3.jpg","37","restless",0.1,0.4,0.7,0.0856929759906948,"true"
"image-keyboard-response",267,235350,"0.0-3.85-1.85","hvconp1fg8ucxc5",332,"7.csv","","null","resources/maskTrios/L4BB.jpg","null","",NA,NA,NA,NA,""
"image-keyboard-response",268,236560,"0.0-3.85-2.85","hvconp1fg8ucxc5",332,"7.csv","","null","resources/images/coin2.png","null","",NA,NA,NA,NA,""
"image-keyboard-response",269,236786,"0.0-3.86-0.86","hvconp1fg8ucxc5",332,"7.csv","","224.5","resources/trios/L1T4A1.jpg","39","restless",0.1,0.4,0.7,0.336506157154842,"true"
"image-keyboard-response",270,237194,"0.0-3.86-1.86","hvconp1fg8ucxc5",332,"7.csv","","null","resources/maskTrios/BBA1.jpg","null","",NA,NA,NA,NA,""
"image-keyboard-response",271,238400,"0.0-3.86-2.86","hvconp1fg8ucxc5",332,"7.csv","","null","resources/images/coin2.png","null","",NA,NA,NA,NA,""
"image-keyboard-response",272,238836,"0.0-3.87-0.87","hvconp1fg8ucxc5",332,"7.csv","","433.19999980926514","resources/trios/L4T4A3.jpg","39","restless",0.1,0.4,0.7,0.97792988794552,"false"
"image-keyboard-response",273,239241,"0.0-3.87-1.87","hvconp1fg8ucxc5",332,"7.csv","","null","resources/maskTrios/BBA3.jpg","null","",NA,NA,NA,NA,""
"image-keyboard-response",274,240443,"0.0-3.87-2.87","hvconp1fg8ucxc5",332,"7.csv","","null","resources/images/fishbone.png","null","",NA,NA,NA,NA,""
"image-keyboard-response",275,240966,"0.0-3.88-0.88","hvconp1fg8ucxc5",332,"7.csv","","520.6000003814697","resources/trios/L1T4A1.jpg","38","restless",0.2,0.4,0.7,0.601248157549235,"false"
"image-keyboard-response",276,241369,"0.0-3.88-1.88","hvconp1fg8ucxc5",332,"7.csv","","null","resources/maskTrios/BT4B.jpg","null","",NA,NA,NA,NA,""
"image-keyboard-response",277,242574,"0.0-3.88-2.88","hvconp1fg8ucxc5",332,"7.csv","","null","resources/images/fishbone.png","null","",NA,NA,NA,NA,""
"image-keyboard-response",278,242814,"0.0-3.89-0.89","hvconp1fg8ucxc5",332,"7.csv","","238.4000005722046","resources/trios/L4T4A3.jpg","39","restless",0.2,0.4,0.7,0.694443339558968,"true"
"image-keyboard-response",279,243220,"0.0-3.89-1.89","hvconp1fg8ucxc5",332,"7.csv","","null","resources/maskTrios/BBA3.jpg","null","",NA,NA,NA,NA,""
"image-keyboard-response",280,244434,"0.0-3.89-2.89","hvconp1fg8ucxc5",332,"7.csv","","null","resources/images/coin2.png","null","",NA,NA,NA,NA,""
"image-keyboard-response",281,244988,"0.0-3.90-0.90","hvconp1fg8ucxc5",332,"7.csv","","553","resources/trios/L1T2A3.jpg","37","restless",0.2,0.4,0.7,0.406040764931766,"false"
"image-keyboard-response",282,245400,"0.0-3.90-1.90","hvconp1fg8ucxc5",332,"7.csv","","null","resources/maskTrios/L1BB.jpg","null","",NA,NA,NA,NA,""
"image-keyboard-response",283,246607,"0.0-3.90-2.90","hvconp1fg8ucxc5",332,"7.csv","","null","resources/images/fishbone.png","null","",NA,NA,NA,NA,""
"image-keyboard-response",284,246882,"0.0-3.91-0.91","hvconp1fg8ucxc5",332,"7.csv","","273.19999980926514","resources/trios/L1T2A1.jpg","38","restless",0.2,0.4,0.7,0.521144130122698,"false"
"image-keyboard-response",285,247297,"0.0-3.91-1.91","hvconp1fg8ucxc5",332,"7.csv","","null","resources/maskTrios/BT2B.jpg","null","",NA,NA,NA,NA,""
"image-keyboard-response",286,248500,"0.0-3.91-2.91","hvconp1fg8ucxc5",332,"7.csv","","null","resources/images/fishbone.png","null","",NA,NA,NA,NA,""
"image-keyboard-response",287,248750,"0.0-3.92-0.92","hvconp1fg8ucxc5",332,"7.csv","","247.80000019073486","resources/trios/L4T2A1.jpg","39","restless",0.2,0.4,0.7,0.446700971721157,"true"
"image-keyboard-response",288,249164,"0.0-3.92-1.92","hvconp1fg8ucxc5",332,"7.csv","","null","resources/maskTrios/BBA1.jpg","null","",NA,NA,NA,NA,""
"image-keyboard-response",289,250371,"0.0-3.92-2.92","hvconp1fg8ucxc5",332,"7.csv","","null","resources/images/coin2.png","null","",NA,NA,NA,NA,""
"image-keyboard-response",290,250715,"0.0-3.93-0.93","hvconp1fg8ucxc5",332,"7.csv","","341.5999994277954","resources/trios/L1T4A1.jpg","37","restless",0.2,0.5,0.8,0.271421821099484,"false"
"image-keyboard-response",291,251119,"0.0-3.93-1.93","hvconp1fg8ucxc5",332,"7.csv","","null","resources/maskTrios/L1BB.jpg","null","",NA,NA,NA,NA,""
"image-keyboard-response",292,252322,"0.0-3.93-2.93","hvconp1fg8ucxc5",332,"7.csv","","null","resources/images/fishbone.png","null","",NA,NA,NA,NA,""
"image-keyboard-response",293,252639,"0.0-3.94-0.94","hvconp1fg8ucxc5",332,"7.csv","","312.79999923706055","resources/trios/L1T2A1.jpg","37","restless",0.2,0.5,0.8,0.112898158545224,"true"
"image-keyboard-response",294,253044,"0.0-3.94-1.94","hvconp1fg8ucxc5",332,"7.csv","","null","resources/maskTrios/L1BB.jpg","null","",NA,NA,NA,NA,""
"image-keyboard-response",295,254255,"0.0-3.94-2.94","hvconp1fg8ucxc5",332,"7.csv","","null","resources/images/coin2.png","null","",NA,NA,NA,NA,""
"image-keyboard-response",296,254549,"0.0-3.95-0.95","hvconp1fg8ucxc5",332,"7.csv","","292.3999996185303","resources/trios/L1T4A3.jpg","39","restless",0.2,0.5,0.8,0.815831484633414,"false"
"image-keyboard-response",297,254963,"0.0-3.95-1.95","hvconp1fg8ucxc5",332,"7.csv","","null","resources/maskTrios/BBA3.jpg","null","",NA,NA,NA,NA,""
"image-keyboard-response",298,256166,"0.0-3.95-2.95","hvconp1fg8ucxc5",332,"7.csv","","null","resources/images/fishbone.png","null","",NA,NA,NA,NA,""
"image-keyboard-response",299,256510,"0.0-3.96-0.96","hvconp1fg8ucxc5",332,"7.csv","","342.19999980926514","resources/trios/L1T2A1.jpg","38","restless",0.2,0.5,0.8,0.751249448901985,"false"
"image-keyboard-response",300,256922,"0.0-3.96-1.96","hvconp1fg8ucxc5",332,"7.csv","","null","resources/maskTrios/BT2B.jpg","null","",NA,NA,NA,NA,""
"image-keyboard-response",301,258136,"0.0-3.96-2.96","hvconp1fg8ucxc5",332,"7.csv","","null","resources/images/fishbone.png","null","",NA,NA,NA,NA,""
"image-keyboard-response",302,258543,"0.0-3.97-0.97","hvconp1fg8ucxc5",332,"7.csv","","406.19999980926514","resources/trios/L4T4A3.jpg","39","restless",0.2,0.5,0.8,0.576900901415049,"true"
"image-keyboard-response",303,258953,"0.0-3.97-1.97","hvconp1fg8ucxc5",332,"7.csv","","null","resources/maskTrios/BBA3.jpg","null","",NA,NA,NA,NA,""
"image-keyboard-response",304,260160,"0.0-3.97-2.97","hvconp1fg8ucxc5",332,"7.csv","","null","resources/images/coin2.png","null","",NA,NA,NA,NA,""
"image-keyboard-response",305,260498,"0.0-3.98-0.98","hvconp1fg8ucxc5",332,"7.csv","","335.30000019073486","resources/trios/L4T4A3.jpg","39","restless",0.2,0.5,0.8,0.180802161616378,"true"
"image-keyboard-response",306,260911,"0.0-3.98-1.98","hvconp1fg8ucxc5",332,"7.csv","","null","resources/maskTrios/BBA3.jpg","null","",NA,NA,NA,NA,""
"image-keyboard-response",307,262126,"0.0-3.98-2.98","hvconp1fg8ucxc5",332,"7.csv","","null","resources/images/coin2.png","null","",NA,NA,NA,NA,""
"image-keyboard-response",308,262665,"0.0-3.99-0.99","hvconp1fg8ucxc5",332,"7.csv","","537.1000003814697","resources/trios/L4T2A3.jpg","37","restless",0.2,0.5,0.8,0.671062589426236,"false"
"image-keyboard-response",309,263074,"0.0-3.99-1.99","hvconp1fg8ucxc5",332,"7.csv","","null","resources/maskTrios/L4BB.jpg","null","",NA,NA,NA,NA,""
"image-keyboard-response",310,264283,"0.0-3.99-2.99","hvconp1fg8ucxc5",332,"7.csv","","null","resources/images/fishbone.png","null","",NA,NA,NA,NA,""
"image-keyboard-response",311,264603,"0.0-3.100-0.100","hvconp1fg8ucxc5",332,"7.csv","","318.1000003814697","resources/trios/L1T2A3.jpg","39","restless",0.2,0.5,0.8,0.404094559794699,"true"
"image-keyboard-response",312,265012,"0.0-3.100-1.100","hvconp1fg8ucxc5",332,"7.csv","","null","resources/maskTrios/BBA3.jpg","null","",NA,NA,NA,NA,""
"image-keyboard-response",313,266227,"0.0-3.100-2.100","hvconp1fg8ucxc5",332,"7.csv","","null","resources/images/coin2.png","null","",NA,NA,NA,NA,""
"image-keyboard-response",314,266503,"0.0-3.101-0.101","hvconp1fg8ucxc5",332,"7.csv","","273.9000005722046","resources/trios/L1T2A3.jpg","39","restless",0.2,0.5,0.8,0.0830785572665642,"true"
"image-keyboard-response",315,266912,"0.0-3.101-1.101","hvconp1fg8ucxc5",332,"7.csv","","null","resources/maskTrios/BBA3.jpg","null","",NA,NA,NA,NA,""
"image-keyboard-response",316,268128,"0.0-3.101-2.101","hvconp1fg8ucxc5",332,"7.csv","","null","resources/images/coin2.png","null","",NA,NA,NA,NA,""
"image-keyboard-response",317,268427,"0.0-3.102-0.102","hvconp1fg8ucxc5",332,"7.csv","","297.80000019073486","resources/trios/L1T4A3.jpg","39","restless",0.2,0.5,0.8,0.334958682277069,"true"
"image-keyboard-response",318,268837,"0.0-3.102-1.102","hvconp1fg8ucxc5",332,"7.csv","","null","resources/maskTrios/BBA3.jpg","null","",NA,NA,NA,NA,""
"image-keyboard-response",319,270052,"0.0-3.102-2.102","hvconp1fg8ucxc5",332,"7.csv","","null","resources/images/coin2.png","null","",NA,NA,NA,NA,""
"image-keyboard-response",320,270409,"0.0-3.103-0.103","hvconp1fg8ucxc5",332,"7.csv","","355.5","resources/trios/L1T4A3.jpg","39","restless",0.2,0.5,0.8,0.814175226312298,"false"
"image-keyboard-response",321,270826,"0.0-3.103-1.103","hvconp1fg8ucxc5",332,"7.csv","","null","resources/maskTrios/BBA3.jpg","null","",NA,NA,NA,NA,""
"image-keyboard-response",322,272031,"0.0-3.103-2.103","hvconp1fg8ucxc5",332,"7.csv","","null","resources/images/fishbone.png","null","",NA,NA,NA,NA,""
"image-keyboard-response",323,272296,"0.0-3.104-0.104","hvconp1fg8ucxc5",332,"7.csv","","262.4000005722046","resources/trios/L4T2A1.jpg","38","restless",0.2,0.5,0.8,0.69008550401304,"false"
"image-keyboard-response",324,272705,"0.0-3.104-1.104","hvconp1fg8ucxc5",332,"7.csv","","null","resources/maskTrios/BT2B.jpg","null","",NA,NA,NA,NA,""
"image-keyboard-response",325,273910,"0.0-3.104-2.104","hvconp1fg8ucxc5",332,"7.csv","","null","resources/images/fishbone.png","null","",NA,NA,NA,NA,""
"image-keyboard-response",326,273964,"0.0-3.105-0.105","hvconp1fg8ucxc5",332,"7.csv","","52.5","resources/trios/L1T4A3.jpg","37","restless",0.2,0.5,0.7,0.0464929263494065,"true"
"image-keyboard-response",327,274367,"0.0-3.105-1.105","hvconp1fg8ucxc5",332,"7.csv","","null","resources/maskTrios/L1BB.jpg","null","",NA,NA,NA,NA,""
"image-keyboard-response",328,275584,"0.0-3.105-2.105","hvconp1fg8ucxc5",332,"7.csv","","null","resources/images/coin2.png","null","",NA,NA,NA,NA,""
"image-keyboard-response",329,275835,"0.0-3.106-0.106","hvconp1fg8ucxc5",332,"7.csv","","248.9000005722046","resources/trios/L4T4A1.jpg","37","restless",0.3,0.5,0.6,0.201689346867239,"true"
"image-keyboard-response",330,276241,"0.0-3.106-1.106","hvconp1fg8ucxc5",332,"7.csv","","null","resources/maskTrios/L4BB.jpg","null","",NA,NA,NA,NA,""
"image-keyboard-response",331,277449,"0.0-3.106-2.106","hvconp1fg8ucxc5",332,"7.csv","","null","resources/images/coin2.png","null","",NA,NA,NA,NA,""
"image-keyboard-response",332,277873,"0.0-3.107-0.107","hvconp1fg8ucxc5",332,"7.csv","","422","resources/trios/L4T2A1.jpg","37","restless",0.3,0.5,0.6,0.863223826494067,"false"
"image-keyboard-response",333,278276,"0.0-3.107-1.107","hvconp1fg8ucxc5",332,"7.csv","","null","resources/maskTrios/L4BB.jpg","null","",NA,NA,NA,NA,""
"image-keyboard-response",334,279487,"0.0-3.107-2.107","hvconp1fg8ucxc5",332,"7.csv","","null","resources/images/fishbone.png","null","",NA,NA,NA,NA,""
"image-keyboard-response",335,279772,"0.0-3.108-0.108","hvconp1fg8ucxc5",332,"7.csv","","283.80000019073486","resources/trios/L4T4A3.jpg","38","restless",0.3,0.5,0.6,0.709429351454088,"false"
"image-keyboard-response",336,280179,"0.0-3.108-1.108","hvconp1fg8ucxc5",332,"7.csv","","null","resources/maskTrios/BT4B.jpg","null","",NA,NA,NA,NA,""
"image-keyboard-response",337,281385,"0.0-3.108-2.108","hvconp1fg8ucxc5",332,"7.csv","","null","resources/images/fishbone.png","null","",NA,NA,NA,NA,""
"image-keyboard-response",338,281671,"0.0-3.109-0.109","hvconp1fg8ucxc5",332,"7.csv","","284.30000019073486","resources/trios/L4T4A3.jpg","39","restless",0.3,0.5,0.6,0.527516592734017,"true"
"image-keyboard-response",339,282082,"0.0-3.109-1.109","hvconp1fg8ucxc5",332,"7.csv","","null","resources/maskTrios/BBA3.jpg","null","",NA,NA,NA,NA,""
"image-keyboard-response",340,283307,"0.0-3.109-2.109","hvconp1fg8ucxc5",332,"7.csv","","null","resources/images/coin2.png","null","",NA,NA,NA,NA,""
"image-keyboard-response",341,283599,"0.0-3.110-0.110","hvconp1fg8ucxc5",332,"7.csv","","290.5999994277954","resources/trios/L4T2A3.jpg","39","restless",0.3,0.5,0.6,0.415553026996623,"true"
"image-keyboard-response",342,284008,"0.0-3.110-1.110","hvconp1fg8ucxc5",332,"7.csv","","null","resources/maskTrios/BBA3.jpg","null","",NA,NA,NA,NA,""
"image-keyboard-response",343,285219,"0.0-3.110-2.110","hvconp1fg8ucxc5",332,"7.csv","","null","resources/images/coin2.png","null","",NA,NA,NA,NA,""
"image-keyboard-response",344,285551,"0.0-3.111-0.111","hvconp1fg8ucxc5",332,"7.csv","","330.1000003814697","resources/trios/L1T2A1.jpg","39","restless",0.3,0.6,0.6,0.0282485803075643,"true"
"image-keyboard-response",345,285960,"0.0-3.111-1.111","hvconp1fg8ucxc5",332,"7.csv","","null","resources/maskTrios/BBA1.jpg","null","",NA,NA,NA,NA,""
"image-keyboard-response",346,287173,"0.0-3.111-2.111","hvconp1fg8ucxc5",332,"7.csv","","null","resources/images/coin2.png","null","",NA,NA,NA,NA,""
"image-keyboard-response",347,287484,"0.0-3.112-0.112","hvconp1fg8ucxc5",332,"7.csv","","309.30000019073486","resources/trios/L1T4A1.jpg","39","restless",0.4,0.6,0.6,0.984369820943,"false"
"image-keyboard-response",348,287887,"0.0-3.112-1.112","hvconp1fg8ucxc5",332,"7.csv","","null","resources/maskTrios/BBA1.jpg","null","",NA,NA,NA,NA,""
"image-keyboard-response",349,289096,"0.0-3.112-2.112","hvconp1fg8ucxc5",332,"7.csv","","null","resources/images/fishbone.png","null","",NA,NA,NA,NA,""
"image-keyboard-response",350,289306,"0.0-3.113-0.113","hvconp1fg8ucxc5",332,"7.csv","","208.9000005722046","resources/trios/L1T2A3.jpg","37","restless",0.4,0.7,0.6,0.68676892186009,"false"
"image-keyboard-response",351,289720,"0.0-3.113-1.113","hvconp1fg8ucxc5",332,"7.csv","","null","resources/maskTrios/L1BB.jpg","null","",NA,NA,NA,NA,""
"image-keyboard-response",352,290927,"0.0-3.113-2.113","hvconp1fg8ucxc5",332,"7.csv","","null","resources/images/fishbone.png","null","",NA,NA,NA,NA,""
"image-keyboard-response",353,291282,"0.0-3.114-0.114","hvconp1fg8ucxc5",332,"7.csv","","353.1000003814697","resources/trios/L4T4A1.jpg","37","restless",0.4,0.7,0.6,0.504887797361983,"false"
"image-keyboard-response",354,291695,"0.0-3.114-1.114","hvconp1fg8ucxc5",332,"7.csv","","null","resources/maskTrios/L4BB.jpg","null","",NA,NA,NA,NA,""
"image-keyboard-response",355,292897,"0.0-3.114-2.114","hvconp1fg8ucxc5",332,"7.csv","","null","resources/images/fishbone.png","null","",NA,NA,NA,NA,""
"image-keyboard-response",356,293184,"0.0-3.115-0.115","hvconp1fg8ucxc5",332,"7.csv","","285","resources/trios/L1T2A3.jpg","39","restless",0.4,0.6,0.6,0.353125793463877,"true"
"image-keyboard-response",357,293592,"0.0-3.115-1.115","hvconp1fg8ucxc5",332,"7.csv","","null","resources/maskTrios/BBA3.jpg","null","",NA,NA,NA,NA,""
"image-keyboard-response",358,294804,"0.0-3.115-2.115","hvconp1fg8ucxc5",332,"7.csv","","null","resources/images/coin2.png","null","",NA,NA,NA,NA,""
"image-keyboard-response",359,295098,"0.0-3.116-0.116","hvconp1fg8ucxc5",332,"7.csv","","292.19999980926514","resources/trios/L1T4A1.jpg","39","restless",0.4,0.6,0.6,0.425552044541945,"true"
"image-keyboard-response",360,295507,"0.0-3.116-1.116","hvconp1fg8ucxc5",332,"7.csv","","null","resources/maskTrios/BBA1.jpg","null","",NA,NA,NA,NA,""
"image-keyboard-response",361,296710,"0.0-3.116-2.116","hvconp1fg8ucxc5",332,"7.csv","","null","resources/images/coin2.png","null","",NA,NA,NA,NA,""
"image-keyboard-response",362,297051,"0.0-3.117-0.117","hvconp1fg8ucxc5",332,"7.csv","","339.19999980926514","resources/trios/L4T4A3.jpg","39","restless",0.4,0.6,0.6,0.574237362904083,"true"
"image-keyboard-response",363,297462,"0.0-3.117-1.117","hvconp1fg8ucxc5",332,"7.csv","","null","resources/maskTrios/BBA3.jpg","null","",NA,NA,NA,NA,""
"image-keyboard-response",364,298666,"0.0-3.117-2.117","hvconp1fg8ucxc5",332,"7.csv","","null","resources/images/coin2.png","null","",NA,NA,NA,NA,""
"image-keyboard-response",365,298971,"0.0-3.118-0.118","hvconp1fg8ucxc5",332,"7.csv","","303","resources/trios/L1T2A1.jpg","38","restless",0.4,0.6,0.6,0.775323563879332,"false"
"image-keyboard-response",366,299373,"0.0-3.118-1.118","hvconp1fg8ucxc5",332,"7.csv","","null","resources/maskTrios/BT2B.jpg","null","",NA,NA,NA,NA,""
"image-keyboard-response",367,300580,"0.0-3.118-2.118","hvconp1fg8ucxc5",332,"7.csv","","null","resources/images/fishbone.png","null","",NA,NA,NA,NA,""
"image-keyboard-response",368,301180,"0.0-3.119-0.119","hvconp1fg8ucxc5",332,"7.csv","","598.5","resources/trios/L4T2A1.jpg","38","restless",0.4,0.6,0.6,0.153103743182393,"true"
"image-keyboard-response",369,301597,"0.0-3.119-1.119","hvconp1fg8ucxc5",332,"7.csv","","null","resources/maskTrios/BT2B.jpg","null","",NA,NA,NA,NA,""
"image-keyboard-response",370,302804,"0.0-3.119-2.119","hvconp1fg8ucxc5",332,"7.csv","","null","resources/images/coin2.png","null","",NA,NA,NA,NA,""
"image-keyboard-response",371,303281,"0.0-3.120-0.120","hvconp1fg8ucxc5",332,"7.csv","","475.3999996185303","resources/trios/L1T2A1.jpg","38","restless",0.4,0.6,0.6,0.440307672806176,"true"
"image-keyboard-response",372,303687,"0.0-3.120-1.120","hvconp1fg8ucxc5",332,"7.csv","","null","resources/maskTrios/BT2B.jpg","null","",NA,NA,NA,NA,""
"image-keyboard-response",373,304900,"0.0-3.120-2.120","hvconp1fg8ucxc5",332,"7.csv","","null","resources/images/coin2.png","null","",NA,NA,NA,NA,""
"image-keyboard-response",374,305212,"0.0-3.121-0.121","hvconp1fg8ucxc5",332,"7.csv","","310","resources/trios/L1T2A1.jpg","38","restless",0.4,0.6,0.6,0.520330050380226,"true"
"image-keyboard-response",375,305628,"0.0-3.121-1.121","hvconp1fg8ucxc5",332,"7.csv","","null","resources/maskTrios/BT2B.jpg","null","",NA,NA,NA,NA,""
"image-keyboard-response",376,306836,"0.0-3.121-2.121","hvconp1fg8ucxc5",332,"7.csv","","null","resources/images/coin2.png","null","",NA,NA,NA,NA,""
"image-keyboard-response",377,307219,"0.0-3.122-0.122","hvconp1fg8ucxc5",332,"7.csv","","380.5999994277954","resources/trios/L1T4A3.jpg","38","restless",0.5,0.6,0.6,0.200944655544922,"true"
"image-keyboard-response",378,307631,"0.0-3.122-1.122","hvconp1fg8ucxc5",332,"7.csv","","null","resources/maskTrios/BT4B.jpg","null","",NA,NA,NA,NA,""
"image-keyboard-response",379,308835,"0.0-3.122-2.122","hvconp1fg8ucxc5",332,"7.csv","","null","resources/images/coin2.png","null","",NA,NA,NA,NA,""
"image-keyboard-response",380,309145,"0.0-3.123-0.123","hvconp1fg8ucxc5",332,"7.csv","","308.6000003814697","resources/trios/L1T4A1.jpg","38","restless",0.5,0.6,0.6,0.52651379292025,"true"
"image-keyboard-response",381,309559,"0.0-3.123-1.123","hvconp1fg8ucxc5",332,"7.csv","","null","resources/maskTrios/BT4B.jpg","null","",NA,NA,NA,NA,""
"image-keyboard-response",382,310770,"0.0-3.123-2.123","hvconp1fg8ucxc5",332,"7.csv","","null","resources/images/coin2.png","null","",NA,NA,NA,NA,""
"image-keyboard-response",383,311096,"0.0-3.124-0.124","hvconp1fg8ucxc5",332,"7.csv","","323.80000019073486","resources/trios/L1T4A1.jpg","38","restless",0.5,0.6,0.6,0.642997781642425,"false"
"image-keyboard-response",384,311513,"0.0-3.124-1.124","hvconp1fg8ucxc5",332,"7.csv","","null","resources/maskTrios/BT4B.jpg","null","",NA,NA,NA,NA,""
"image-keyboard-response",385,312715,"0.0-3.124-2.124","hvconp1fg8ucxc5",332,"7.csv","","null","resources/images/fishbone.png","null","",NA,NA,NA,NA,""
"image-keyboard-response",386,312846,"0.0-3.125-0.125","hvconp1fg8ucxc5",332,"7.csv","","129.0999994277954","resources/trios/L4T2A3.jpg","37","restless",0.6,0.6,0.6,0.0300711662931779,"true"
"image-keyboard-response",387,313254,"0.0-3.125-1.125","hvconp1fg8ucxc5",332,"7.csv","","null","resources/maskTrios/L4BB.jpg","null","",NA,NA,NA,NA,""
"image-keyboard-response",388,314460,"0.0-3.125-2.125","hvconp1fg8ucxc5",332,"7.csv","","null","resources/images/coin2.png","null","",NA,NA,NA,NA,""
"image-keyboard-response",389,314706,"0.0-3.126-0.126","hvconp1fg8ucxc5",332,"7.csv","","243.69999980926514","resources/trios/L1T4A1.jpg","37","restless",0.6,0.6,0.6,0.967168756439121,"false"
"image-keyboard-response",390,315116,"0.0-3.126-1.126","hvconp1fg8ucxc5",332,"7.csv","","null","resources/maskTrios/L1BB.jpg","null","",NA,NA,NA,NA,""
"image-keyboard-response",391,316318,"0.0-3.126-2.126","hvconp1fg8ucxc5",332,"7.csv","","null","resources/images/fishbone.png","null","",NA,NA,NA,NA,""
"image-keyboard-response",392,316585,"0.0-3.127-0.127","hvconp1fg8ucxc5",332,"7.csv","","265.80000019073486","resources/trios/L4T2A1.jpg","39","restless",0.6,0.6,0.6,0.519800522663126,"true"
"image-keyboard-response",393,317002,"0.0-3.127-1.127","hvconp1fg8ucxc5",332,"7.csv","","null","resources/maskTrios/BBA1.jpg","null","",NA,NA,NA,NA,""
"image-keyboard-response",394,318215,"0.0-3.127-2.127","hvconp1fg8ucxc5",332,"7.csv","","null","resources/images/coin2.png","null","",NA,NA,NA,NA,""
"image-keyboard-response",395,318299,"0.0-3.128-0.128","hvconp1fg8ucxc5",332,"7.csv","","82.5","resources/trios/L1T4A3.jpg","39","restless",0.6,0.6,0.6,0.066182116876407,"true"
"image-keyboard-response",396,318710,"0.0-3.128-1.128","hvconp1fg8ucxc5",332,"7.csv","","null","resources/maskTrios/BBA3.jpg","null","",NA,NA,NA,NA,""
"image-keyboard-response",397,319922,"0.0-3.128-2.128","hvconp1fg8ucxc5",332,"7.csv","","null","resources/images/coin2.png","null","",NA,NA,NA,NA,""
"image-keyboard-response",398,320199,"0.0-3.129-0.129","hvconp1fg8ucxc5",332,"7.csv","","274.5","resources/trios/L4T4A1.jpg","39","restless",0.7,0.6,0.6,0.932243231559399,"false"
"image-keyboard-response",399,320606,"0.0-3.129-1.129","hvconp1fg8ucxc5",332,"7.csv","","null","resources/maskTrios/BBA1.jpg","null","",NA,NA,NA,NA,""
"image-keyboard-response",400,321810,"0.0-3.129-2.129","hvconp1fg8ucxc5",332,"7.csv","","null","resources/images/fishbone.png","null","",NA,NA,NA,NA,""
"image-keyboard-response",401,322239,"0.0-3.130-0.130","hvconp1fg8ucxc5",332,"7.csv","","426.30000019073486","resources/trios/L4T4A1.jpg","38","restless",0.7,0.6,0.6,0.941679475206726,"false"
"image-keyboard-response",402,322649,"0.0-3.130-1.130","hvconp1fg8ucxc5",332,"7.csv","","null","resources/maskTrios/BT4B.jpg","null","",NA,NA,NA,NA,""
"image-keyboard-response",403,323864,"0.0-3.130-2.130","hvconp1fg8ucxc5",332,"7.csv","","null","resources/images/fishbone.png","null","",NA,NA,NA,NA,""
"image-keyboard-response",404,324117,"0.0-3.131-0.131","hvconp1fg8ucxc5",332,"7.csv","","251.39999961853027","resources/trios/L1T4A3.jpg","38","restless",0.7,0.7,0.5,0.533670570321767,"true"
"image-keyboard-response",405,324521,"0.0-3.131-1.131","hvconp1fg8ucxc5",332,"7.csv","","null","resources/maskTrios/BT4B.jpg","null","",NA,NA,NA,NA,""
"image-keyboard-response",406,325734,"0.0-3.131-2.131","hvconp1fg8ucxc5",332,"7.csv","","null","resources/images/coin2.png","null","",NA,NA,NA,NA,""
"image-keyboard-response",407,326080,"0.0-3.132-0.132","hvconp1fg8ucxc5",332,"7.csv","","343.9000005722046","resources/trios/L4T4A1.jpg","38","restless",0.7,0.7,0.5,0.721734025885217,"false"
"image-keyboard-response",408,326490,"0.0-3.132-1.132","hvconp1fg8ucxc5",332,"7.csv","","null","resources/maskTrios/BT4B.jpg","null","",NA,NA,NA,NA,""
"image-keyboard-response",409,327699,"0.0-3.132-2.132","hvconp1fg8ucxc5",332,"7.csv","","null","resources/images/fishbone.png","null","",NA,NA,NA,NA,""
"image-keyboard-response",410,327757,"0.0-3.133-0.133","hvconp1fg8ucxc5",332,"7.csv","","55.5","resources/trios/L1T4A3.jpg","37","restless",0.7,0.7,0.5,0.415182534781335,"true"
"image-keyboard-response",411,328161,"0.0-3.133-1.133","hvconp1fg8ucxc5",332,"7.csv","","null","resources/maskTrios/L1BB.jpg","null","",NA,NA,NA,NA,""
"image-keyboard-response",412,329369,"0.0-3.133-2.133","hvconp1fg8ucxc5",332,"7.csv","","null","resources/images/coin2.png","null","",NA,NA,NA,NA,""
"image-keyboard-response",413,329493,"0.0-3.134-0.134","hvconp1fg8ucxc5",332,"7.csv","","122.40000057220459","resources/trios/L1T2A3.jpg","37","restless",0.7,0.7,0.5,0.610862598763345,"true"
"image-keyboard-response",414,329901,"0.0-3.134-1.134","hvconp1fg8ucxc5",332,"7.csv","","null","resources/maskTrios/L1BB.jpg","null","",NA,NA,NA,NA,""
"image-keyboard-response",415,331113,"0.0-3.134-2.134","hvconp1fg8ucxc5",332,"7.csv","","null","resources/images/coin2.png","null","",NA,NA,NA,NA,""
"image-keyboard-response",416,332013,"0.0-3.135-0.135","hvconp1fg8ucxc5",332,"7.csv","","898.1999998092651","resources/trios/L1T4A3.jpg","37","restless",0.7,0.7,0.5,0.302680671976482,"true"
"image-keyboard-response",417,332423,"0.0-3.135-1.135","hvconp1fg8ucxc5",332,"7.csv","","null","resources/maskTrios/L1BB.jpg","null","",NA,NA,NA,NA,""
"image-keyboard-response",418,333630,"0.0-3.135-2.135","hvconp1fg8ucxc5",332,"7.csv","","null","resources/images/coin2.png","null","",NA,NA,NA,NA,""
"image-keyboard-response",419,333989,"0.0-3.136-0.136","hvconp1fg8ucxc5",332,"7.csv","","358.1000003814697","resources/trios/L1T2A3.jpg","37","restless",0.8,0.7,0.5,0.176593476359585,"true"
"image-keyboard-response",420,334403,"0.0-3.136-1.136","hvconp1fg8ucxc5",332,"7.csv","","null","resources/maskTrios/L1BB.jpg","null","",NA,NA,NA,NA,""
"image-keyboard-response",421,335614,"0.0-3.136-2.136","hvconp1fg8ucxc5",332,"7.csv","","null","resources/images/coin2.png","null","",NA,NA,NA,NA,""
"image-keyboard-response",422,335694,"0.0-3.137-0.137","hvconp1fg8ucxc5",332,"7.csv","","78.10000038146973","resources/trios/L4T4A3.jpg","37","restless",0.8,0.7,0.5,0.186116554557825,"true"
"image-keyboard-response",423,336117,"0.0-3.137-1.137","hvconp1fg8ucxc5",332,"7.csv","","null","resources/maskTrios/L4BB.jpg","null","",NA,NA,NA,NA,""
"image-keyboard-response",424,337330,"0.0-3.137-2.137","hvconp1fg8ucxc5",332,"7.csv","","null","resources/images/coin2.png","null","",NA,NA,NA,NA,""
"image-keyboard-response",425,337579,"0.0-3.138-0.138","hvconp1fg8ucxc5",332,"7.csv","","246.69999980926514","resources/trios/L4T4A1.jpg","37","restless",0.8,0.7,0.5,0.944637909914728,"false"
"image-keyboard-response",426,337985,"0.0-3.138-1.138","hvconp1fg8ucxc5",332,"7.csv","","null","resources/maskTrios/L4BB.jpg","null","",NA,NA,NA,NA,""
"image-keyboard-response",427,339196,"0.0-3.138-2.138","hvconp1fg8ucxc5",332,"7.csv","","null","resources/images/fishbone.png","null","",NA,NA,NA,NA,""
"image-keyboard-response",428,339867,"0.0-3.139-0.139","hvconp1fg8ucxc5",332,"7.csv","","668.5","resources/trios/L4T2A1.jpg","39","restless",0.8,0.8,0.5,0.100112720642728,"true"
"image-keyboard-response",429,340288,"0.0-3.139-1.139","hvconp1fg8ucxc5",332,"7.csv","","null","resources/maskTrios/BBA1.jpg","null","",NA,NA,NA,NA,""
"image-keyboard-response",430,341499,"0.0-3.139-2.139","hvconp1fg8ucxc5",332,"7.csv","","null","resources/images/coin2.png","null","",NA,NA,NA,NA,""
"image-keyboard-response",431,341862,"0.0-3.140-0.140","hvconp1fg8ucxc5",332,"7.csv","","361.30000019073486","resources/trios/L4T2A1.jpg","39","restless",0.8,0.8,0.5,0.48356531167621,"true"
"image-keyboard-response",432,342267,"0.0-3.140-1.140","hvconp1fg8ucxc5",332,"7.csv","","null","resources/maskTrios/BBA1.jpg","null","",NA,NA,NA,NA,""
"image-keyboard-response",433,343479,"0.0-3.140-2.140","hvconp1fg8ucxc5",332,"7.csv","","null","resources/images/coin2.png","null","",NA,NA,NA,NA,""
"image-keyboard-response",434,343951,"0.0-3.141-0.141","hvconp1fg8ucxc5",332,"7.csv","","468.19999980926514","resources/trios/L1T4A3.jpg","39","restless",0.8,0.8,0.5,0.992532708985162,"false"
"image-keyboard-response",435,344363,"0.0-3.141-1.141","hvconp1fg8ucxc5",332,"7.csv","","null","resources/maskTrios/BBA3.jpg","null","",NA,NA,NA,NA,""
"image-keyboard-response",436,345565,"0.0-3.141-2.141","hvconp1fg8ucxc5",332,"7.csv","","null","resources/images/fishbone.png","null","",NA,NA,NA,NA,""
"image-keyboard-response",437,346096,"0.0-3.142-0.142","hvconp1fg8ucxc5",332,"7.csv","","529.1999998092651","resources/trios/L4T4A1.jpg","38","restless",0.7,0.8,0.5,0.535076208199553,"true"
"image-keyboard-response",438,346507,"0.0-3.142-1.142","hvconp1fg8ucxc5",332,"7.csv","","null","resources/maskTrios/BT4B.jpg","null","",NA,NA,NA,NA,""
"image-keyboard-response",439,347724,"0.0-3.142-2.142","hvconp1fg8ucxc5",332,"7.csv","","null","resources/images/coin2.png","null","",NA,NA,NA,NA,""
"image-keyboard-response",440,348348,"0.0-3.143-0.143","hvconp1fg8ucxc5",332,"7.csv","","622.5","resources/trios/L1T2A1.jpg","38","restless",0.7,0.8,0.5,0.0918304508849335,"true"
"image-keyboard-response",441,348759,"0.0-3.143-1.143","hvconp1fg8ucxc5",332,"7.csv","","null","resources/maskTrios/BT2B.jpg","null","",NA,NA,NA,NA,""
"image-keyboard-response",442,349962,"0.0-3.143-2.143","hvconp1fg8ucxc5",332,"7.csv","","null","resources/images/coin2.png","null","",NA,NA,NA,NA,""
"image-keyboard-response",443,350644,"0.0-3.144-0.144","hvconp1fg8ucxc5",332,"7.csv","","680","resources/trios/L4T2A3.jpg","38","restless",0.7,0.8,0.5,0.0633662466371028,"true"
"image-keyboard-response",444,351047,"0.0-3.144-1.144","hvconp1fg8ucxc5",332,"7.csv","","null","resources/maskTrios/BT2B.jpg","null","",NA,NA,NA,NA,""
"image-keyboard-response",445,352255,"0.0-3.144-2.144","hvconp1fg8ucxc5",332,"7.csv","","null","resources/images/coin2.png","null","",NA,NA,NA,NA,""
"image-keyboard-response",446,352846,"0.0-3.145-0.145","hvconp1fg8ucxc5",332,"7.csv","","588.5","resources/trios/L1T4A3.jpg","38","restless",0.7,0.8,0.5,0.616933320205983,"true"
"image-keyboard-response",447,353263,"0.0-3.145-1.145","hvconp1fg8ucxc5",332,"7.csv","","null","resources/maskTrios/BT4B.jpg","null","",NA,NA,NA,NA,""
"image-keyboard-response",448,354477,"0.0-3.145-2.145","hvconp1fg8ucxc5",332,"7.csv","","null","resources/images/coin2.png","null","",NA,NA,NA,NA,""
"image-keyboard-response",449,354594,"0.0-3.146-0.146","hvconp1fg8ucxc5",332,"7.csv","","115.30000019073486","resources/trios/L1T4A1.jpg","38","restless",0.7,0.9,0.5,0.00169634780963168,"true"
"image-keyboard-response",450,355010,"0.0-3.146-1.146","hvconp1fg8ucxc5",332,"7.csv","","null","resources/maskTrios/BT4B.jpg","null","",NA,NA,NA,NA,""
"image-keyboard-response",451,356221,"0.0-3.146-2.146","hvconp1fg8ucxc5",332,"7.csv","","null","resources/images/coin2.png","null","",NA,NA,NA,NA,""
"image-keyboard-response",452,356929,"0.0-3.147-0.147","hvconp1fg8ucxc5",332,"7.csv","","706","resources/trios/L4T2A1.jpg","38","restless",0.7,0.9,0.5,0.908318073482395,"false"
"image-keyboard-response",453,357343,"0.0-3.147-1.147","hvconp1fg8ucxc5",332,"7.csv","","null","resources/maskTrios/BT2B.jpg","null","",NA,NA,NA,NA,""
"image-keyboard-response",454,358557,"0.0-3.147-2.147","hvconp1fg8ucxc5",332,"7.csv","","null","resources/images/fishbone.png","null","",NA,NA,NA,NA,""
"image-keyboard-response",455,358715,"0.0-3.148-0.148","hvconp1fg8ucxc5",332,"7.csv","","156.5","resources/trios/L1T4A1.jpg","37","restless",0.7,0.9,0.5,0.837652177221021,"false"
"image-keyboard-response",456,359134,"0.0-3.148-1.148","hvconp1fg8ucxc5",332,"7.csv","","null","resources/maskTrios/L1BB.jpg","null","",NA,NA,NA,NA,""
"image-keyboard-response",457,360350,"0.0-3.148-2.148","hvconp1fg8ucxc5",332,"7.csv","","null","resources/images/fishbone.png","null","",NA,NA,NA,NA,""
"image-keyboard-response",458,360807,"0.0-3.149-0.149","hvconp1fg8ucxc5",332,"7.csv","","455.80000019073486","resources/trios/L1T2A1.jpg","37","restless",0.7,0.9,0.5,0.128026221479273,"true"
"image-keyboard-response",459,361222,"0.0-3.149-1.149","hvconp1fg8ucxc5",332,"7.csv","","null","resources/maskTrios/L1BB.jpg","null","",NA,NA,NA,NA,""
"image-keyboard-response",460,362425,"0.0-3.149-2.149","hvconp1fg8ucxc5",332,"7.csv","","null","resources/images/coin2.png","null","",NA,NA,NA,NA,""
"image-keyboard-response",461,362561,"0.0-3.150-0.150","hvconp1fg8ucxc5",332,"7.csv","","133.69999980926514","resources/trios/L4T2A3.jpg","37","restless",0.7,0.9,0.5,0.554345271910373,"true"
"image-keyboard-response",462,362974,"0.0-3.150-1.150","hvconp1fg8ucxc5",332,"7.csv","","null","resources/maskTrios/L4BB.jpg","null","",NA,NA,NA,NA,""
"image-keyboard-response",463,364188,"0.0-3.150-2.150","hvconp1fg8ucxc5",332,"7.csv","","null","resources/images/coin2.png","null","",NA,NA,NA,NA,""
"image-keyboard-response",464,364201,"0.0-3.151-0.151","hvconp1fg8ucxc5",332,"7.csv","","10.300000190734863","resources/trios/L1T4A3.jpg","37","restless",0.7,0.9,0.5,0.823769106656447,"false"
"image-keyboard-response",465,364611,"0.0-3.151-1.151","hvconp1fg8ucxc5",332,"7.csv","","null","resources/maskTrios/L1BB.jpg","null","",NA,NA,NA,NA,""
"image-keyboard-response",466,365815,"0.0-3.151-2.151","hvconp1fg8ucxc5",332,"7.csv","","null","resources/images/fishbone.png","null","",NA,NA,NA,NA,""
"image-keyboard-response",467,366647,"0.0-3.152-0.152","hvconp1fg8ucxc5",332,"7.csv","","830.3999996185303","resources/trios/L4T2A3.jpg","39","restless",0.7,0.9,0.5,0.947831239337631,"false"
"image-keyboard-response",468,367064,"0.0-3.152-1.152","hvconp1fg8ucxc5",332,"7.csv","","null","resources/maskTrios/BBA3.jpg","null","",NA,NA,NA,NA,""
"image-keyboard-response",469,368272,"0.0-3.152-2.152","hvconp1fg8ucxc5",332,"7.csv","","null","resources/images/fishbone.png","null","",NA,NA,NA,NA,""
"image-keyboard-response",470,368574,"0.0-3.153-0.153","hvconp1fg8ucxc5",332,"7.csv","","300.8999996185303","resources/trios/L1T2A1.jpg","39","restless",0.7,0.9,0.5,0.441833224678211,"true"
"image-keyboard-response",471,368981,"0.0-3.153-1.153","hvconp1fg8ucxc5",332,"7.csv","","null","resources/maskTrios/BBA1.jpg","null","",NA,NA,NA,NA,""
"image-keyboard-response",472,370191,"0.0-3.153-2.153","hvconp1fg8ucxc5",332,"7.csv","","null","resources/images/coin2.png","null","",NA,NA,NA,NA,""
"image-keyboard-response",473,370614,"0.0-3.154-0.154","hvconp1fg8ucxc5",332,"7.csv","","421.80000019073486","resources/trios/L1T4A3.jpg","39","restless",0.7,0.9,0.5,0.439322035311763,"true"
"image-keyboard-response",474,371020,"0.0-3.154-1.154","hvconp1fg8ucxc5",332,"7.csv","","null","resources/maskTrios/BBA3.jpg","null","",NA,NA,NA,NA,""
"image-keyboard-response",475,372236,"0.0-3.154-2.154","hvconp1fg8ucxc5",332,"7.csv","","null","resources/images/coin2.png","null","",NA,NA,NA,NA,""
"image-keyboard-response",476,372662,"0.0-3.155-0.155","hvconp1fg8ucxc5",332,"7.csv","","424.4000005722046","resources/trios/L1T4A3.jpg","39","restless",0.7,0.9,0.6,0.486884747079023,"true"
"image-keyboard-response",477,373074,"0.0-3.155-1.155","hvconp1fg8ucxc5",332,"7.csv","","null","resources/maskTrios/BBA3.jpg","null","",NA,NA,NA,NA,""
"image-keyboard-response",478,374290,"0.0-3.155-2.155","hvconp1fg8ucxc5",332,"7.csv","","null","resources/images/coin2.png","null","",NA,NA,NA,NA,""
"image-keyboard-response",479,374626,"0.0-3.156-0.156","hvconp1fg8ucxc5",332,"7.csv","","334.69999980926514","resources/trios/L1T4A1.jpg","39","restless",0.6,0.9,0.5,0.967818021174177,"false"
"image-keyboard-response",480,375037,"0.0-3.156-1.156","hvconp1fg8ucxc5",332,"7.csv","","null","resources/maskTrios/BBA1.jpg","null","",NA,NA,NA,NA,""
"image-keyboard-response",481,376248,"0.0-3.156-2.156","hvconp1fg8ucxc5",332,"7.csv","","null","resources/images/fishbone.png","null","",NA,NA,NA,NA,""
"image-keyboard-response",482,376780,"0.0-3.157-0.157","hvconp1fg8ucxc5",332,"7.csv","","530.1000003814697","resources/trios/L4T2A3.jpg","38","restless",0.6,0.9,0.5,0.873165336240785,"true"
"image-keyboard-response",483,377186,"0.0-3.157-1.157","hvconp1fg8ucxc5",332,"7.csv","","null","resources/maskTrios/BT2B.jpg","null","",NA,NA,NA,NA,""
"image-keyboard-response",484,378398,"0.0-3.157-2.157","hvconp1fg8ucxc5",332,"7.csv","","null","resources/images/coin2.png","null","",NA,NA,NA,NA,""
"image-keyboard-response",485,379019,"0.0-3.158-0.158","hvconp1fg8ucxc5",332,"7.csv","","619.6999998092651","resources/trios/L4T4A3.jpg","38","restless",0.6,0.9,0.5,0.997805713978788,"false"
"image-keyboard-response",486,379434,"0.0-3.158-1.158","hvconp1fg8ucxc5",332,"7.csv","","null","resources/maskTrios/BT4B.jpg","null","",NA,NA,NA,NA,""
"image-keyboard-response",487,380651,"0.0-3.158-2.158","hvconp1fg8ucxc5",332,"7.csv","","null","resources/images/fishbone.png","null","",NA,NA,NA,NA,""
"image-keyboard-response",488,380965,"0.0-3.159-0.159","hvconp1fg8ucxc5",332,"7.csv","","312.5","resources/trios/L1T4A3.jpg","39","restless",0.6,0.9,0.5,0.771552737197,"false"
"image-keyboard-response",489,381370,"0.0-3.159-1.159","hvconp1fg8ucxc5",332,"7.csv","","null","resources/maskTrios/BBA3.jpg","null","",NA,NA,NA,NA,""
"image-keyboard-response",490,382572,"0.0-3.159-2.159","hvconp1fg8ucxc5",332,"7.csv","","null","resources/images/fishbone.png","null","",NA,NA,NA,NA,""
"image-keyboard-response",491,383201,"0.0-3.160-0.160","hvconp1fg8ucxc5",332,"7.csv","","627.1000003814697","resources/trios/L4T4A3.jpg","37","restless",0.6,0.9,0.5,0.560032787040958,"true"
"image-keyboard-response",492,383607,"0.0-3.160-1.160","hvconp1fg8ucxc5",332,"7.csv","","null","resources/maskTrios/L4BB.jpg","null","",NA,NA,NA,NA,""
"image-keyboard-response",493,384810,"0.0-3.160-2.160","hvconp1fg8ucxc5",332,"7.csv","","null","resources/images/coin2.png","null","",NA,NA,NA,NA,""
"image-keyboard-response",494,385180,"0.0-3.161-0.161","hvconp1fg8ucxc5",332,"7.csv","","367.19999980926514","resources/trios/L4T2A3.jpg","37","restless",0.5,0.8,0.5,0.842895130995427,"false"
"image-keyboard-response",495,385593,"0.0-3.161-1.161","hvconp1fg8ucxc5",332,"7.csv","","null","resources/maskTrios/L4BB.jpg","null","",NA,NA,NA,NA,""
"image-keyboard-response",496,386809,"0.0-3.161-2.161","hvconp1fg8ucxc5",332,"7.csv","","null","resources/images/fishbone.png","null","",NA,NA,NA,NA,""
"image-keyboard-response",497,387193,"0.0-3.162-0.162","hvconp1fg8ucxc5",332,"7.csv","","382.5","resources/trios/L4T2A1.jpg","39","restless",0.5,0.8,0.5,0.32484521171909,"true"
"image-keyboard-response",498,387607,"0.0-3.162-1.162","hvconp1fg8ucxc5",332,"7.csv","","null","resources/maskTrios/BBA1.jpg","null","",NA,NA,NA,NA,""
"image-keyboard-response",499,388814,"0.0-3.162-2.162","hvconp1fg8ucxc5",332,"7.csv","","null","resources/images/coin2.png","null","",NA,NA,NA,NA,""
"image-keyboard-response",500,389147,"0.0-3.163-0.163","hvconp1fg8ucxc5",332,"7.csv","","331.29999923706055","resources/trios/L1T2A3.jpg","39","restless",0.5,0.8,0.5,0.422702101944866,"true"
"image-keyboard-response",501,389559,"0.0-3.163-1.163","hvconp1fg8ucxc5",332,"7.csv","","null","resources/maskTrios/BBA3.jpg","null","",NA,NA,NA,NA,""
"image-keyboard-response",502,390760,"0.0-3.163-2.163","hvconp1fg8ucxc5",332,"7.csv","","null","resources/images/coin2.png","null","",NA,NA,NA,NA,""
"image-keyboard-response",503,391938,"0.0-3.164-0.164","hvconp1fg8ucxc5",332,"7.csv","","1175.8999996185303","resources/trios/L4T2A1.jpg","39","restless",0.4,0.8,0.5,0.647035771215264,"false"
"image-keyboard-response",504,392355,"0.0-3.164-1.164","hvconp1fg8ucxc5",332,"7.csv","","null","resources/maskTrios/BBA1.jpg","null","",NA,NA,NA,NA,""
"image-keyboard-response",505,393564,"0.0-3.164-2.164","hvconp1fg8ucxc5",332,"7.csv","","null","resources/images/fishbone.png","null","",NA,NA,NA,NA,""
"image-keyboard-response",506,394772,"0.0-3.165-0.165","hvconp1fg8ucxc5",332,"7.csv","","1205.3999996185303","resources/trios/L4T4A1.jpg","38","restless",0.4,0.8,0.4,0.222050606627639,"true"
"image-keyboard-response",507,395176,"0.0-3.165-1.165","hvconp1fg8ucxc5",332,"7.csv","","null","resources/maskTrios/BT4B.jpg","null","",NA,NA,NA,NA,""
"image-keyboard-response",508,396378,"0.0-3.165-2.165","hvconp1fg8ucxc5",332,"7.csv","","null","resources/images/coin2.png","null","",NA,NA,NA,NA,""
"image-keyboard-response",509,396880,"0.0-3.166-0.166","hvconp1fg8ucxc5",332,"7.csv","","499.80000019073486","resources/trios/L4T2A1.jpg","38","restless",0.4,0.8,0.4,0.405310260530401,"true"
"image-keyboard-response",510,397283,"0.0-3.166-1.166","hvconp1fg8ucxc5",332,"7.csv","","null","resources/maskTrios/BT2B.jpg","null","",NA,NA,NA,NA,""
"image-keyboard-response",511,398494,"0.0-3.166-2.166","hvconp1fg8ucxc5",332,"7.csv","","null","resources/images/coin2.png","null","",NA,NA,NA,NA,""
"image-keyboard-response",512,398982,"0.0-3.167-0.167","hvconp1fg8ucxc5",332,"7.csv","","487.1000003814697","resources/trios/L4T4A3.jpg","38","restless",0.4,0.8,0.4,0.197184992994166,"true"
"image-keyboard-response",513,399391,"0.0-3.167-1.167","hvconp1fg8ucxc5",332,"7.csv","","null","resources/maskTrios/BT4B.jpg","null","",NA,NA,NA,NA,""
"image-keyboard-response",514,400596,"0.0-3.167-2.167","hvconp1fg8ucxc5",332,"7.csv","","null","resources/images/coin2.png","null","",NA,NA,NA,NA,""
"image-keyboard-response",515,401002,"0.0-3.168-0.168","hvconp1fg8ucxc5",332,"7.csv","","403.9000005722046","resources/trios/L1T2A1.jpg","38","restless",0.4,0.8,0.4,0.428257751691858,"true"
"image-keyboard-response",516,401419,"0.0-3.168-1.168","hvconp1fg8ucxc5",332,"7.csv","","null","resources/maskTrios/BT2B.jpg","null","",NA,NA,NA,NA,""
"image-keyboard-response",517,402635,"0.0-3.168-2.168","hvconp1fg8ucxc5",332,"7.csv","","null","resources/images/coin2.png","null","",NA,NA,NA,NA,""
"image-keyboard-response",518,403269,"0.0-3.169-0.169","hvconp1fg8ucxc5",332,"7.csv","","632.1999998092651","resources/trios/L4T2A1.jpg","38","restless",0.4,0.8,0.4,0.0593958901670844,"true"
"image-keyboard-response",519,403682,"0.0-3.169-1.169","hvconp1fg8ucxc5",332,"7.csv","","null","resources/maskTrios/BT2B.jpg","null","",NA,NA,NA,NA,""
"image-keyboard-response",520,404897,"0.0-3.169-2.169","hvconp1fg8ucxc5",332,"7.csv","","null","resources/images/coin2.png","null","",NA,NA,NA,NA,""
"image-keyboard-response",521,405308,"0.0-3.170-0.170","hvconp1fg8ucxc5",332,"7.csv","","409.29999923706055","resources/trios/L4T2A3.jpg","38","restless",0.4,0.8,0.4,0.251643873260968,"true"
"image-keyboard-response",522,405724,"0.0-3.170-1.170","hvconp1fg8ucxc5",332,"7.csv","","null","resources/maskTrios/BT2B.jpg","null","",NA,NA,NA,NA,""
"image-keyboard-response",523,406926,"0.0-3.170-2.170","hvconp1fg8ucxc5",332,"7.csv","","null","resources/images/coin2.png","null","",NA,NA,NA,NA,""
"image-keyboard-response",524,407341,"0.0-3.171-0.171","hvconp1fg8ucxc5",332,"7.csv","","412.6000003814697","resources/trios/L4T4A3.jpg","38","restless",0.4,0.8,0.4,0.0529679759461417,"true"
"image-keyboard-response",525,407746,"0.0-3.171-1.171","hvconp1fg8ucxc5",332,"7.csv","","null","resources/maskTrios/BT4B.jpg","null","",NA,NA,NA,NA,""
"image-keyboard-response",526,408964,"0.0-3.171-2.171","hvconp1fg8ucxc5",332,"7.csv","","null","resources/images/coin2.png","null","",NA,NA,NA,NA,""
"image-keyboard-response",527,409459,"0.0-3.172-0.172","hvconp1fg8ucxc5",332,"7.csv","","492.70000076293945","resources/trios/L4T2A1.jpg","38","restless",0.4,0.8,0.4,0.166961729730556,"true"
"image-keyboard-response",528,409867,"0.0-3.172-1.172","hvconp1fg8ucxc5",332,"7.csv","","null","resources/maskTrios/BT2B.jpg","null","",NA,NA,NA,NA,""
"image-keyboard-response",529,411080,"0.0-3.172-2.172","hvconp1fg8ucxc5",332,"7.csv","","null","resources/images/coin2.png","null","",NA,NA,NA,NA,""
"image-keyboard-response",530,411500,"0.0-3.173-0.173","hvconp1fg8ucxc5",332,"7.csv","","417.4000005722046","resources/trios/L1T4A3.jpg","38","restless",0.4,0.8,0.4,0.764913997163381,"true"
"image-keyboard-response",531,411902,"0.0-3.173-1.173","hvconp1fg8ucxc5",332,"7.csv","","null","resources/maskTrios/BT4B.jpg","null","",NA,NA,NA,NA,""
"image-keyboard-response",532,413107,"0.0-3.173-2.173","hvconp1fg8ucxc5",332,"7.csv","","null","resources/images/coin2.png","null","",NA,NA,NA,NA,""
"image-keyboard-response",533,413655,"0.0-3.174-0.174","hvconp1fg8ucxc5",332,"7.csv","","545.6999998092651","resources/trios/L1T2A1.jpg","38","restless",0.4,0.8,0.4,0.272658071900301,"true"
"image-keyboard-response",534,414069,"0.0-3.174-1.174","hvconp1fg8ucxc5",332,"7.csv","","null","resources/maskTrios/BT2B.jpg","null","",NA,NA,NA,NA,""
"image-keyboard-response",535,415284,"0.0-3.174-2.174","hvconp1fg8ucxc5",332,"7.csv","","null","resources/images/coin2.png","null","",NA,NA,NA,NA,""
"image-keyboard-response",536,415715,"0.0-3.175-0.175","hvconp1fg8ucxc5",332,"7.csv","","429.1000003814697","resources/trios/L4T4A1.jpg","38","restless",0.3,0.8,0.4,0.0817950573344561,"true"
"image-keyboard-response",537,416128,"0.0-3.175-1.175","hvconp1fg8ucxc5",332,"7.csv","","null","resources/maskTrios/BT4B.jpg","null","",NA,NA,NA,NA,""
"image-keyboard-response",538,417333,"0.0-3.175-2.175","hvconp1fg8ucxc5",332,"7.csv","","null","resources/images/coin2.png","null","",NA,NA,NA,NA,""
"image-keyboard-response",539,417719,"0.0-3.176-0.176","hvconp1fg8ucxc5",332,"7.csv","","385.0999994277954","resources/trios/L1T2A1.jpg","38","restless",0.3,0.8,0.4,0.36899739183161,"true"
"image-keyboard-response",540,418129,"0.0-3.176-1.176","hvconp1fg8ucxc5",332,"7.csv","","null","resources/maskTrios/BT2B.jpg","null","",NA,NA,NA,NA,""
"image-keyboard-response",541,419342,"0.0-3.176-2.176","hvconp1fg8ucxc5",332,"7.csv","","null","resources/images/coin2.png","null","",NA,NA,NA,NA,""
"image-keyboard-response",542,419661,"0.0-3.177-0.177","hvconp1fg8ucxc5",332,"7.csv","","317.1000003814697","resources/trios/L4T4A3.jpg","38","restless",0.3,0.8,0.4,0.987497263720017,"false"
"image-keyboard-response",543,420075,"0.0-3.177-1.177","hvconp1fg8ucxc5",332,"7.csv","","null","resources/maskTrios/BT4B.jpg","null","",NA,NA,NA,NA,""
"image-keyboard-response",544,421286,"0.0-3.177-2.177","hvconp1fg8ucxc5",332,"7.csv","","null","resources/images/fishbone.png","null","",NA,NA,NA,NA,""
"image-keyboard-response",545,421855,"0.0-3.178-0.178","hvconp1fg8ucxc5",332,"7.csv","","567.4000005722046","resources/trios/L4T2A1.jpg","37","restless",0.3,0.8,0.4,0.348542815550955,"false"
"image-keyboard-response",546,422260,"0.0-3.178-1.178","hvconp1fg8ucxc5",332,"7.csv","","null","resources/maskTrios/L4BB.jpg","null","",NA,NA,NA,NA,""
"image-keyboard-response",547,423466,"0.0-3.178-2.178","hvconp1fg8ucxc5",332,"7.csv","","null","resources/images/fishbone.png","null","",NA,NA,NA,NA,""
"image-keyboard-response",548,423784,"0.0-3.179-0.179","hvconp1fg8ucxc5",332,"7.csv","","315.80000019073486","resources/trios/L1T2A3.jpg","37","restless",0.3,0.8,0.5,0.278728851602352,"true"
"image-keyboard-response",549,424198,"0.0-3.179-1.179","hvconp1fg8ucxc5",332,"7.csv","","null","resources/maskTrios/L1BB.jpg","null","",NA,NA,NA,NA,""
"image-keyboard-response",550,425410,"0.0-3.179-2.179","hvconp1fg8ucxc5",332,"7.csv","","null","resources/images/coin2.png","null","",NA,NA,NA,NA,""
"image-keyboard-response",551,425723,"0.0-3.180-0.180","hvconp1fg8ucxc5",332,"7.csv","","309.5999994277954","resources/trios/L1T4A1.jpg","37","restless",0.3,0.8,0.6,0.00080380288198767,"true"
"image-keyboard-response",552,426129,"0.0-3.180-1.180","hvconp1fg8ucxc5",332,"7.csv","","null","resources/maskTrios/L1BB.jpg","null","",NA,NA,NA,NA,""
"image-keyboard-response",553,427347,"0.0-3.180-2.180","hvconp1fg8ucxc5",332,"7.csv","","null","resources/images/coin2.png","null","",NA,NA,NA,NA,""
"image-keyboard-response",554,427575,"0.0-3.181-0.181","hvconp1fg8ucxc5",332,"7.csv","","225.79999923706055","resources/trios/L1T4A1.jpg","37","restless",0.3,0.8,0.6,0.581239931175771,"false"
"image-keyboard-response",555,427986,"0.0-3.181-1.181","hvconp1fg8ucxc5",332,"7.csv","","null","resources/maskTrios/L1BB.jpg","null","",NA,NA,NA,NA,""
"image-keyboard-response",556,429190,"0.0-3.181-2.181","hvconp1fg8ucxc5",332,"7.csv","","null","resources/images/fishbone.png","null","",NA,NA,NA,NA,""
"image-keyboard-response",557,429666,"0.0-3.182-0.182","hvconp1fg8ucxc5",332,"7.csv","","473.9000005722046","resources/trios/L4T2A3.jpg","39","restless",0.3,0.8,0.6,0.538207723773624,"true"
"image-keyboard-response",558,430071,"0.0-3.182-1.182","hvconp1fg8ucxc5",332,"7.csv","","null","resources/maskTrios/BBA3.jpg","null","",NA,NA,NA,NA,""
"image-keyboard-response",559,431291,"0.0-3.182-2.182","hvconp1fg8ucxc5",332,"7.csv","","null","resources/images/coin2.png","null","",NA,NA,NA,NA,""
"image-keyboard-response",560,431585,"0.0-3.183-0.183","hvconp1fg8ucxc5",332,"7.csv","","292.6000003814697","resources/trios/L1T2A1.jpg","39","restless",0.3,0.8,0.6,0.887543597408518,"false"
"image-keyboard-response",561,431991,"0.0-3.183-1.183","hvconp1fg8ucxc5",332,"7.csv","","null","resources/maskTrios/BBA1.jpg","null","",NA,NA,NA,NA,""
"image-keyboard-response",562,433195,"0.0-3.183-2.183","hvconp1fg8ucxc5",332,"7.csv","","null","resources/images/fishbone.png","null","",NA,NA,NA,NA,""
"image-keyboard-response",563,433971,"0.0-3.184-0.184","hvconp1fg8ucxc5",332,"7.csv","","774.1999998092651","resources/trios/L1T2A1.jpg","38","restless",0.4,0.8,0.6,0.45187839430398,"true"
"image-keyboard-response",564,434381,"0.0-3.184-1.184","hvconp1fg8ucxc5",332,"7.csv","","null","resources/maskTrios/BT2B.jpg","null","",NA,NA,NA,NA,""
"image-keyboard-response",565,435587,"0.0-3.184-2.184","hvconp1fg8ucxc5",332,"7.csv","","null","resources/images/coin2.png","null","",NA,NA,NA,NA,""
"image-keyboard-response",566,436075,"0.0-3.185-0.185","hvconp1fg8ucxc5",332,"7.csv","","485.80000019073486","resources/trios/L4T4A3.jpg","38","restless",0.4,0.8,0.6,0.547436618722654,"true"
"image-keyboard-response",567,436486,"0.0-3.185-1.185","hvconp1fg8ucxc5",332,"7.csv","","null","resources/maskTrios/BT4B.jpg","null","",NA,NA,NA,NA,""
"image-keyboard-response",568,437699,"0.0-3.185-2.185","hvconp1fg8ucxc5",332,"7.csv","","null","resources/images/coin2.png","null","",NA,NA,NA,NA,""
"image-keyboard-response",569,438466,"0.0-3.186-0.186","hvconp1fg8ucxc5",332,"7.csv","","765.6999998092651","resources/trios/L1T2A3.jpg","38","restless",0.4,0.8,0.6,0.517742403690493,"true"
"image-keyboard-response",570,438878,"0.0-3.186-1.186","hvconp1fg8ucxc5",332,"7.csv","","null","resources/maskTrios/BT2B.jpg","null","",NA,NA,NA,NA,""
"image-keyboard-response",571,440093,"0.0-3.186-2.186","hvconp1fg8ucxc5",332,"7.csv","","null","resources/images/coin2.png","null","",NA,NA,NA,NA,""
"image-keyboard-response",572,440607,"0.0-3.187-0.187","hvconp1fg8ucxc5",332,"7.csv","","511.3999996185303","resources/trios/L4T2A1.jpg","38","restless",0.4,0.8,0.6,0.161448007044394,"true"
"image-keyboard-response",573,441014,"0.0-3.187-1.187","hvconp1fg8ucxc5",332,"7.csv","","null","resources/maskTrios/BT2B.jpg","null","",NA,NA,NA,NA,""
"image-keyboard-response",574,442218,"0.0-3.187-2.187","hvconp1fg8ucxc5",332,"7.csv","","null","resources/images/coin2.png","null","",NA,NA,NA,NA,""
"image-keyboard-response",575,443561,"0.0-3.188-0.188","hvconp1fg8ucxc5",332,"7.csv","","1341","resources/trios/L4T2A3.jpg","38","restless",0.4,0.8,0.6,0.856870461469564,"false"
"image-keyboard-response",576,443967,"0.0-3.188-1.188","hvconp1fg8ucxc5",332,"7.csv","","null","resources/maskTrios/BT2B.jpg","null","",NA,NA,NA,NA,""
"image-keyboard-response",577,445183,"0.0-3.188-2.188","hvconp1fg8ucxc5",332,"7.csv","","null","resources/images/fishbone.png","null","",NA,NA,NA,NA,""
"image-keyboard-response",578,445814,"0.0-3.189-0.189","hvconp1fg8ucxc5",332,"7.csv","","629.5","resources/trios/L1T4A1.jpg","39","restless",0.5,0.8,0.6,0.238593520120435,"true"
"image-keyboard-response",579,446232,"0.0-3.189-1.189","hvconp1fg8ucxc5",332,"7.csv","","null","resources/maskTrios/BBA1.jpg","null","",NA,NA,NA,NA,""
"image-keyboard-response",580,447446,"0.0-3.189-2.189","hvconp1fg8ucxc5",332,"7.csv","","null","resources/images/coin2.png","null","",NA,NA,NA,NA,""
"image-keyboard-response",581,448082,"0.0-3.190-0.190","hvconp1fg8ucxc5",332,"7.csv","","635.1999998092651","resources/trios/L4T4A1.jpg","39","restless",0.5,0.8,0.6,0.0832810181021644,"true"
"image-keyboard-response",582,448492,"0.0-3.190-1.190","hvconp1fg8ucxc5",332,"7.csv","","null","resources/maskTrios/BBA1.jpg","null","",NA,NA,NA,NA,""
"image-keyboard-response",583,449695,"0.0-3.190-2.190","hvconp1fg8ucxc5",332,"7.csv","","null","resources/images/coin2.png","null","",NA,NA,NA,NA,""
"image-keyboard-response",584,450380,"0.0-3.191-0.191","hvconp1fg8ucxc5",332,"7.csv","","683.4000005722046","resources/trios/L4T4A1.jpg","39","restless",0.5,0.7,0.6,0.751885675938146,"false"
"image-keyboard-response",585,450794,"0.0-3.191-1.191","hvconp1fg8ucxc5",332,"7.csv","","null","resources/maskTrios/BBA1.jpg","null","",NA,NA,NA,NA,""
"image-keyboard-response",586,452009,"0.0-3.191-2.191","hvconp1fg8ucxc5",332,"7.csv","","null","resources/images/fishbone.png","null","",NA,NA,NA,NA,""
"image-keyboard-response",587,452130,"0.0-3.192-0.192","hvconp1fg8ucxc5",332,"7.csv","","119.79999923706055","resources/trios/L1T2A1.jpg","37","restless",0.5,0.7,0.6,0.0730806462854237,"true"
"image-keyboard-response",588,452545,"0.0-3.192-1.192","hvconp1fg8ucxc5",332,"7.csv","","null","resources/maskTrios/L1BB.jpg","null","",NA,NA,NA,NA,""
"image-keyboard-response",589,453752,"0.0-3.192-2.192","hvconp1fg8ucxc5",332,"7.csv","","null","resources/images/coin2.png","null","",NA,NA,NA,NA,""
"image-keyboard-response",590,454214,"0.0-3.193-0.193","hvconp1fg8ucxc5",332,"7.csv","","460","resources/trios/L4T2A1.jpg","37","restless",0.5,0.7,0.6,0.314515943956083,"true"
"image-keyboard-response",591,454620,"0.0-3.193-1.193","hvconp1fg8ucxc5",332,"7.csv","","null","resources/maskTrios/L4BB.jpg","null","",NA,NA,NA,NA,""
"image-keyboard-response",592,455827,"0.0-3.193-2.193","hvconp1fg8ucxc5",332,"7.csv","","null","resources/images/coin2.png","null","",NA,NA,NA,NA,""
"image-keyboard-response",593,456369,"0.0-3.194-0.194","hvconp1fg8ucxc5",332,"7.csv","","540.0999994277954","resources/trios/L4T2A3.jpg","37","restless",0.5,0.7,0.5,0.290795152239938,"true"
"image-keyboard-response",594,456781,"0.0-3.194-1.194","hvconp1fg8ucxc5",332,"7.csv","","null","resources/maskTrios/L4BB.jpg","null","",NA,NA,NA,NA,""
"image-keyboard-response",595,457993,"0.0-3.194-2.194","hvconp1fg8ucxc5",332,"7.csv","","null","resources/images/coin2.png","null","",NA,NA,NA,NA,""
"image-keyboard-response",596,459678,"0.0-3.195-0.195","hvconp1fg8ucxc5",332,"7.csv","","1682.5","resources/trios/L1T4A3.jpg","39","restless",0.6,0.7,0.5,0.480318006980989,"true"
"image-keyboard-response",597,460085,"0.0-3.195-1.195","hvconp1fg8ucxc5",332,"7.csv","","null","resources/maskTrios/BBA3.jpg","null","",NA,NA,NA,NA,""
"image-keyboard-response",598,461297,"0.0-3.195-2.195","hvconp1fg8ucxc5",332,"7.csv","","null","resources/images/coin2.png","null","",NA,NA,NA,NA,""
"image-keyboard-response",599,463159,"0.0-3.196-0.196","hvconp1fg8ucxc5",332,"7.csv","","1861","resources/trios/L4T2A1.jpg","38","restless",0.6,0.7,0.5,0.520973121521665,"true"
"image-keyboard-response",600,463576,"0.0-3.196-1.196","hvconp1fg8ucxc5",332,"7.csv","","null","resources/maskTrios/BT2B.jpg","null","",NA,NA,NA,NA,""
"image-keyboard-response",601,464779,"0.0-3.196-2.196","hvconp1fg8ucxc5",332,"7.csv","","null","resources/images/coin2.png","null","",NA,NA,NA,NA,""
"image-keyboard-response",602,465427,"0.0-3.197-0.197","hvconp1fg8ucxc5",332,"7.csv","","646.5","resources/trios/L4T2A1.jpg","38","restless",0.6,0.7,0.5,0.253591113969011,"true"
"image-keyboard-response",603,465844,"0.0-3.197-1.197","hvconp1fg8ucxc5",332,"7.csv","","null","resources/maskTrios/BT2B.jpg","null","",NA,NA,NA,NA,""
"image-keyboard-response",604,467058,"0.0-3.197-2.197","hvconp1fg8ucxc5",332,"7.csv","","null","resources/images/coin2.png","null","",NA,NA,NA,NA,""
"image-keyboard-response",605,468638,"0.0-3.198-0.198","hvconp1fg8ucxc5",332,"7.csv","","1577.9000005722046","resources/trios/L4T4A1.jpg","37","restless",0.6,0.7,0.5,0.139886334279905,"true"
"image-keyboard-response",606,469056,"0.0-3.198-1.198","hvconp1fg8ucxc5",332,"7.csv","","null","resources/maskTrios/L4BB.jpg","null","",NA,NA,NA,NA,""
"image-keyboard-response",607,470267,"0.0-3.198-2.198","hvconp1fg8ucxc5",332,"7.csv","","null","resources/images/coin2.png","null","",NA,NA,NA,NA,""
"image-keyboard-response",608,472338,"0.0-3.199-0.199","hvconp1fg8ucxc5",332,"7.csv","","2069.0999994277954","resources/trios/L4T2A3.jpg","39","restless",0.6,0.7,0.5,0.633041504232535,"false"
"image-keyboard-response",609,472752,"0.0-3.199-1.199","hvconp1fg8ucxc5",332,"7.csv","","null","resources/maskTrios/BBA3.jpg","null","",NA,NA,NA,NA,""
"image-keyboard-response",610,473969,"0.0-3.199-2.199","hvconp1fg8ucxc5",332,"7.csv","","null","resources/images/fishbone.png","null","",NA,NA,NA,NA,""
"image-keyboard-response",611,475653,"0.0-3.200-0.200","hvconp1fg8ucxc5",332,"7.csv","","1682.4000005722046","resources/trios/L1T2A1.jpg","38","restless",0.7,0.7,0.5,0.899148999197846,"false"
"image-keyboard-response",612,476067,"0.0-3.200-1.200","hvconp1fg8ucxc5",332,"7.csv","","null","resources/maskTrios/BT2B.jpg","null","",NA,NA,NA,NA,""
"image-keyboard-response",613,477278,"0.0-3.200-2.200","hvconp1fg8ucxc5",332,"7.csv","","null","resources/images/fishbone.png","null","",NA,NA,NA,NA,""
"image-keyboard-response",614,477982,"0.0-3.201-0.201","hvconp1fg8ucxc5",332,"7.csv","","701.5","resources/trios/L1T2A3.jpg","37","restless",0.6,0.7,0.5,0.473174757619558,"true"
