"trial_type","trial_index","time_elapsed","internal_node_id","subject","participantCode","walkNumber","success","rt","stimulus","key_press","test_part","leftProb","midProb","rightProb","generatedNum","correct"
"pavlovia",0,1259,"0.0-0.0","kn4dk4y9l3l9kc9",912,"110.csv","","","","","",NA,NA,NA,NA,""
"fullscreen",1,19158,"0.0-1.0","kn4dk4y9l3l9kc9",912,"110.csv","true","","","","",NA,NA,NA,NA,""
"html-keyboard-response",2,35844,"0.0-2.0-0.0","kn4dk4y9l3l9kc9",912,"110.csv","","16683","<p><font size='6'>Arrrgh!</p></font><p>Can you be the best pirate? Try to find lots of gold! But beware, some islands have more gold than others, and over time, the island with the most gold may change. Can YOU figure it out? </p><font size='6'>GOOD LUCK, CAPTAIN!!!</font><p>Press any key to begin</p>","32","",NA,NA,NA,NA,""
"image-keyboard-response",3,38848,"0.0-2.0-1.0","kn4dk4y9l3l9kc9",912,"110.csv","","null","resources/image_sets/111.png","null","",NA,NA,NA,NA,""
"image-keyboard-response",4,61909,"0.0-2.0-2.0","kn4dk4y9l3l9kc9",912,"110.csv","","23058","resources/image_sets/left_highlight.png","37","",NA,NA,NA,NA,""
"image-keyboard-response",5,67308,"0.0-2.0-3.0","kn4dk4y9l3l9kc9",912,"110.csv","","5397","resources/image_sets/mid_highlight.png","38","",NA,NA,NA,NA,""
"image-keyboard-response",6,71483,"0.0-2.0-4.0","kn4dk4y9l3l9kc9",912,"110.csv","","4173","resources/image_sets/right_highlight.png","39","",NA,NA,NA,NA,""
"image-keyboard-response",7,74135,"0.0-2.0-5.0","kn4dk4y9l3l9kc9",912,"110.csv","","2652","resources/image_sets/111.png","13","",NA,NA,NA,NA,""
"image-keyboard-response",8,75323,"0.0-2.0-6.0","kn4dk4y9l3l9kc9",912,"110.csv","","1186","resources/images/coin2.png","13","",NA,NA,NA,NA,""
"image-keyboard-response",9,79645,"0.0-2.0-7.0","kn4dk4y9l3l9kc9",912,"110.csv","","4321","resources/images/fishbone.png","13","",NA,NA,NA,NA,""
"html-keyboard-response",10,80929,"0.0-2.0-8.0","kn4dk4y9l3l9kc9",912,"110.csv","","1283","<p>Your first journey will be a long one, but you will get a well deserved break at the end</p><p>After the break you will have four more journeys, but each will be much shorter than the first, and you will have breaks in between each</p><p>Press Enter to begin</p>","13","",NA,NA,NA,NA,""
"image-keyboard-response",11,83465,"0.0-3.0-0.0","kn4dk4y9l3l9kc9",912,"110.csv","","2532","resources/trios/L2T2A3.jpg","38","restless",0.9,0.3,0.7,0.639925890225314,"false"
"image-keyboard-response",12,83871,"0.0-3.0-1.0","kn4dk4y9l3l9kc9",912,"110.csv","","null","resources/maskTrios/BT2B.jpg","null","",NA,NA,NA,NA,""
"image-keyboard-response",13,85074,"0.0-3.0-2.0","kn4dk4y9l3l9kc9",912,"110.csv","","null","resources/images/fishbone.png","null","",NA,NA,NA,NA,""
"image-keyboard-response",14,86108,"0.0-3.1-0.1","kn4dk4y9l3l9kc9",912,"110.csv","","1032","resources/trios/L2T2A3.jpg","37","restless",0.9,0.3,0.7,0.443060599875524,"true"
"image-keyboard-response",15,86513,"0.0-3.1-1.1","kn4dk4y9l3l9kc9",912,"110.csv","","null","resources/maskTrios/L2BB.jpg","null","",NA,NA,NA,NA,""
"image-keyboard-response",16,87720,"0.0-3.1-2.1","kn4dk4y9l3l9kc9",912,"110.csv","","null","resources/images/coin2.png","null","",NA,NA,NA,NA,""
"image-keyboard-response",17,90221,"0.0-3.2-0.2","kn4dk4y9l3l9kc9",912,"110.csv","","2500","resources/trios/L4T2A1.jpg","37","restless",0.9,0.3,0.7,0.524694207965077,"true"
"image-keyboard-response",18,90627,"0.0-3.2-1.2","kn4dk4y9l3l9kc9",912,"110.csv","","null","resources/maskTrios/L4BB.jpg","null","",NA,NA,NA,NA,""
"image-keyboard-response",19,91830,"0.0-3.2-2.2","kn4dk4y9l3l9kc9",912,"110.csv","","null","resources/images/coin2.png","null","",NA,NA,NA,NA,""
"image-keyboard-response",20,93390,"0.0-3.3-0.3","kn4dk4y9l3l9kc9",912,"110.csv","","1560","resources/trios/L4T2A1.jpg","37","restless",0.9,0.3,0.7,0.650317626773883,"true"
"image-keyboard-response",21,93795,"0.0-3.3-1.3","kn4dk4y9l3l9kc9",912,"110.csv","","null","resources/maskTrios/L4BB.jpg","null","",NA,NA,NA,NA,""
"image-keyboard-response",22,94996,"0.0-3.3-2.3","kn4dk4y9l3l9kc9",912,"110.csv","","null","resources/images/coin2.png","null","",NA,NA,NA,NA,""
"image-keyboard-response",23,96499,"0.0-3.4-0.4","kn4dk4y9l3l9kc9",912,"110.csv","","1501","resources/trios/L2T1A1.jpg","38","restless",0.9,0.3,0.7,0.92333109808663,"false"
"image-keyboard-response",24,96902,"0.0-3.4-1.4","kn4dk4y9l3l9kc9",912,"110.csv","","null","resources/maskTrios/BT1B.jpg","null","",NA,NA,NA,NA,""
"image-keyboard-response",25,98106,"0.0-3.4-2.4","kn4dk4y9l3l9kc9",912,"110.csv","","null","resources/images/fishbone.png","null","",NA,NA,NA,NA,""
"image-keyboard-response",26,98457,"0.0-3.5-0.5","kn4dk4y9l3l9kc9",912,"110.csv","","349","resources/trios/L2T2A1.jpg","37","restless",0.9,0.3,0.7,0.666332890395463,"true"
"image-keyboard-response",27,98861,"0.0-3.5-1.5","kn4dk4y9l3l9kc9",912,"110.csv","","null","resources/maskTrios/L2BB.jpg","null","",NA,NA,NA,NA,""
"image-keyboard-response",28,100063,"0.0-3.5-2.5","kn4dk4y9l3l9kc9",912,"110.csv","","null","resources/images/coin2.png","null","",NA,NA,NA,NA,""
"image-keyboard-response",29,100761,"0.0-3.6-0.6","kn4dk4y9l3l9kc9",912,"110.csv","","696","resources/trios/L2T1A3.jpg","37","restless",0.9,0.3,0.7,0.540459588079421,"true"
"image-keyboard-response",30,101163,"0.0-3.6-1.6","kn4dk4y9l3l9kc9",912,"110.csv","","null","resources/maskTrios/L2BB.jpg","null","",NA,NA,NA,NA,""
"image-keyboard-response",31,102368,"0.0-3.6-2.6","kn4dk4y9l3l9kc9",912,"110.csv","","null","resources/images/coin2.png","null","",NA,NA,NA,NA,""
"image-keyboard-response",32,103373,"0.0-3.7-0.7","kn4dk4y9l3l9kc9",912,"110.csv","","1004","resources/trios/L4T2A1.jpg","37","restless",0.8,0.3,0.7,0.543964372072202,"true"
"image-keyboard-response",33,103778,"0.0-3.7-1.7","kn4dk4y9l3l9kc9",912,"110.csv","","null","resources/maskTrios/L4BB.jpg","null","",NA,NA,NA,NA,""
"image-keyboard-response",34,104981,"0.0-3.7-2.7","kn4dk4y9l3l9kc9",912,"110.csv","","null","resources/images/coin2.png","null","",NA,NA,NA,NA,""
"image-keyboard-response",35,105804,"0.0-3.8-0.8","kn4dk4y9l3l9kc9",912,"110.csv","","822","resources/trios/L4T1A3.jpg","37","restless",0.8,0.3,0.7,0.652055666547579,"true"
"image-keyboard-response",36,106207,"0.0-3.8-1.8","kn4dk4y9l3l9kc9",912,"110.csv","","null","resources/maskTrios/L4BB.jpg","null","",NA,NA,NA,NA,""
"image-keyboard-response",37,107410,"0.0-3.8-2.8","kn4dk4y9l3l9kc9",912,"110.csv","","null","resources/images/coin2.png","null","",NA,NA,NA,NA,""
"image-keyboard-response",38,107897,"0.0-3.9-0.9","kn4dk4y9l3l9kc9",912,"110.csv","","486","resources/trios/L2T2A1.jpg","37","restless",0.8,0.3,0.7,0.883251578392887,"false"
"image-keyboard-response",39,108302,"0.0-3.9-1.9","kn4dk4y9l3l9kc9",912,"110.csv","","null","resources/maskTrios/L2BB.jpg","null","",NA,NA,NA,NA,""
"image-keyboard-response",40,109504,"0.0-3.9-2.9","kn4dk4y9l3l9kc9",912,"110.csv","","null","resources/images/fishbone.png","null","",NA,NA,NA,NA,""
"image-keyboard-response",41,110450,"0.0-3.10-0.10","kn4dk4y9l3l9kc9",912,"110.csv","","944","resources/trios/L4T2A3.jpg","38","restless",0.8,0.3,0.6,0.956638445294371,"false"
"image-keyboard-response",42,110854,"0.0-3.10-1.10","kn4dk4y9l3l9kc9",912,"110.csv","","null","resources/maskTrios/BT2B.jpg","null","",NA,NA,NA,NA,""
"image-keyboard-response",43,112059,"0.0-3.10-2.10","kn4dk4y9l3l9kc9",912,"110.csv","","null","resources/images/fishbone.png","null","",NA,NA,NA,NA,""
"image-keyboard-response",44,112334,"0.0-3.11-0.11","kn4dk4y9l3l9kc9",912,"110.csv","","275","resources/trios/L4T2A1.jpg","39","restless",0.7,0.3,0.6,0.0185540261454701,"true"
"image-keyboard-response",45,112738,"0.0-3.11-1.11","kn4dk4y9l3l9kc9",912,"110.csv","","null","resources/maskTrios/BBA1.jpg","null","",NA,NA,NA,NA,""
"image-keyboard-response",46,113939,"0.0-3.11-2.11","kn4dk4y9l3l9kc9",912,"110.csv","","null","resources/images/coin2.png","null","",NA,NA,NA,NA,""
"image-keyboard-response",47,114241,"0.0-3.12-0.12","kn4dk4y9l3l9kc9",912,"110.csv","","301","resources/trios/L2T2A3.jpg","39","restless",0.7,0.3,0.6,0.959499832013859,"false"
"image-keyboard-response",48,114645,"0.0-3.12-1.12","kn4dk4y9l3l9kc9",912,"110.csv","","null","resources/maskTrios/BBA3.jpg","null","",NA,NA,NA,NA,""
"image-keyboard-response",49,115850,"0.0-3.12-2.12","kn4dk4y9l3l9kc9",912,"110.csv","","null","resources/images/fishbone.png","null","",NA,NA,NA,NA,""
"image-keyboard-response",50,116111,"0.0-3.13-0.13","kn4dk4y9l3l9kc9",912,"110.csv","","259","resources/trios/L4T2A1.jpg","38","restless",0.7,0.2,0.6,0.208040286433405,"false"
"image-keyboard-response",51,116516,"0.0-3.13-1.13","kn4dk4y9l3l9kc9",912,"110.csv","","null","resources/maskTrios/BT2B.jpg","null","",NA,NA,NA,NA,""
"image-keyboard-response",52,117722,"0.0-3.13-2.13","kn4dk4y9l3l9kc9",912,"110.csv","","null","resources/images/fishbone.png","null","",NA,NA,NA,NA,""
"image-keyboard-response",53,117975,"0.0-3.14-0.14","kn4dk4y9l3l9kc9",912,"110.csv","","252","resources/trios/L2T1A1.jpg","37","restless",0.7,0.2,0.6,0.276871295530617,"true"
"image-keyboard-response",54,118379,"0.0-3.14-1.14","kn4dk4y9l3l9kc9",912,"110.csv","","null","resources/maskTrios/L2BB.jpg","null","",NA,NA,NA,NA,""
"image-keyboard-response",55,119583,"0.0-3.14-2.14","kn4dk4y9l3l9kc9",912,"110.csv","","null","resources/images/coin2.png","null","",NA,NA,NA,NA,""
"image-keyboard-response",56,120647,"0.0-3.15-0.15","kn4dk4y9l3l9kc9",912,"110.csv","","1063","resources/trios/L4T1A1.jpg","38","restless",0.7,0.2,0.6,0.341532771266944,"false"
"image-keyboard-response",57,121052,"0.0-3.15-1.15","kn4dk4y9l3l9kc9",912,"110.csv","","null","resources/maskTrios/BT1B.jpg","null","",NA,NA,NA,NA,""
"image-keyboard-response",58,122257,"0.0-3.15-2.15","kn4dk4y9l3l9kc9",912,"110.csv","","null","resources/images/fishbone.png","null","",NA,NA,NA,NA,""
"image-keyboard-response",59,122486,"0.0-3.16-0.16","kn4dk4y9l3l9kc9",912,"110.csv","","227","resources/trios/L4T1A1.jpg","39","restless",0.7,0.2,0.6,0.553839318657055,"true"
"image-keyboard-response",60,122892,"0.0-3.16-1.16","kn4dk4y9l3l9kc9",912,"110.csv","","null","resources/maskTrios/BBA1.jpg","null","",NA,NA,NA,NA,""
"image-keyboard-response",61,124097,"0.0-3.16-2.16","kn4dk4y9l3l9kc9",912,"110.csv","","null","resources/images/coin2.png","null","",NA,NA,NA,NA,""
"image-keyboard-response",62,124468,"0.0-3.17-0.17","kn4dk4y9l3l9kc9",912,"110.csv","","370","resources/trios/L2T1A3.jpg","37","restless",0.7,0.2,0.6,0.327088413853274,"true"
"image-keyboard-response",63,124874,"0.0-3.17-1.17","kn4dk4y9l3l9kc9",912,"110.csv","","null","resources/maskTrios/L2BB.jpg","null","",NA,NA,NA,NA,""
"image-keyboard-response",64,126079,"0.0-3.17-2.17","kn4dk4y9l3l9kc9",912,"110.csv","","null","resources/images/coin2.png","null","",NA,NA,NA,NA,""
"image-keyboard-response",65,126815,"0.0-3.18-0.18","kn4dk4y9l3l9kc9",912,"110.csv","","735","resources/trios/L4T2A1.jpg","39","restless",0.7,0.2,0.6,0.337644745364566,"true"
"image-keyboard-response",66,127221,"0.0-3.18-1.18","kn4dk4y9l3l9kc9",912,"110.csv","","null","resources/maskTrios/BBA1.jpg","null","",NA,NA,NA,NA,""
"image-keyboard-response",67,128427,"0.0-3.18-2.18","kn4dk4y9l3l9kc9",912,"110.csv","","null","resources/images/coin2.png","null","",NA,NA,NA,NA,""
"image-keyboard-response",68,128716,"0.0-3.19-0.19","kn4dk4y9l3l9kc9",912,"110.csv","","289","resources/trios/L4T2A1.jpg","37","restless",0.7,0.2,0.6,0.940662738691714,"false"
"image-keyboard-response",69,129121,"0.0-3.19-1.19","kn4dk4y9l3l9kc9",912,"110.csv","","null","resources/maskTrios/L4BB.jpg","null","",NA,NA,NA,NA,""
"image-keyboard-response",70,130327,"0.0-3.19-2.19","kn4dk4y9l3l9kc9",912,"110.csv","","null","resources/images/fishbone.png","null","",NA,NA,NA,NA,""
"image-keyboard-response",71,130831,"0.0-3.20-0.20","kn4dk4y9l3l9kc9",912,"110.csv","","503","resources/trios/L2T2A3.jpg","38","restless",0.7,0.2,0.6,0.648845608584277,"false"
"image-keyboard-response",72,131234,"0.0-3.20-1.20","kn4dk4y9l3l9kc9",912,"110.csv","","null","resources/maskTrios/BT2B.jpg","null","",NA,NA,NA,NA,""
"image-keyboard-response",73,132439,"0.0-3.20-2.20","kn4dk4y9l3l9kc9",912,"110.csv","","null","resources/images/fishbone.png","null","",NA,NA,NA,NA,""
"image-keyboard-response",74,132713,"0.0-3.21-0.21","kn4dk4y9l3l9kc9",912,"110.csv","","272","resources/trios/L4T1A1.jpg","39","restless",0.7,0.2,0.6,0.229757741221037,"true"
"image-keyboard-response",75,133114,"0.0-3.21-1.21","kn4dk4y9l3l9kc9",912,"110.csv","","null","resources/maskTrios/BBA1.jpg","null","",NA,NA,NA,NA,""
"image-keyboard-response",76,134321,"0.0-3.21-2.21","kn4dk4y9l3l9kc9",912,"110.csv","","null","resources/images/coin2.png","null","",NA,NA,NA,NA,""
"image-keyboard-response",77,135043,"0.0-3.22-0.22","kn4dk4y9l3l9kc9",912,"110.csv","","722","resources/trios/L2T1A1.jpg","39","restless",0.7,0.2,0.6,0.30879171360485,"true"
"image-keyboard-response",78,135446,"0.0-3.22-1.22","kn4dk4y9l3l9kc9",912,"110.csv","","null","resources/maskTrios/BBA1.jpg","null","",NA,NA,NA,NA,""
"image-keyboard-response",79,136649,"0.0-3.22-2.22","kn4dk4y9l3l9kc9",912,"110.csv","","null","resources/images/coin2.png","null","",NA,NA,NA,NA,""
"image-keyboard-response",80,137665,"0.0-3.23-0.23","kn4dk4y9l3l9kc9",912,"110.csv","","1014","resources/trios/L4T2A1.jpg","38","restless",0.7,0.2,0.6,0.876885806180927,"false"
"image-keyboard-response",81,138069,"0.0-3.23-1.23","kn4dk4y9l3l9kc9",912,"110.csv","","null","resources/maskTrios/BT2B.jpg","null","",NA,NA,NA,NA,""
"image-keyboard-response",82,139272,"0.0-3.23-2.23","kn4dk4y9l3l9kc9",912,"110.csv","","null","resources/images/fishbone.png","null","",NA,NA,NA,NA,""
"image-keyboard-response",83,139676,"0.0-3.24-0.24","kn4dk4y9l3l9kc9",912,"110.csv","","402","resources/trios/L2T1A1.jpg","37","restless",0.7,0.2,0.7,0.234488422360445,"true"
"image-keyboard-response",84,140082,"0.0-3.24-1.24","kn4dk4y9l3l9kc9",912,"110.csv","","null","resources/maskTrios/L2BB.jpg","null","",NA,NA,NA,NA,""
"image-keyboard-response",85,141286,"0.0-3.24-2.24","kn4dk4y9l3l9kc9",912,"110.csv","","null","resources/images/coin2.png","null","",NA,NA,NA,NA,""
"image-keyboard-response",86,141905,"0.0-3.25-0.25","kn4dk4y9l3l9kc9",912,"110.csv","","619","resources/trios/L4T1A1.jpg","37","restless",0.7,0.2,0.7,0.676680713686948,"true"
"image-keyboard-response",87,142307,"0.0-3.25-1.25","kn4dk4y9l3l9kc9",912,"110.csv","","null","resources/maskTrios/L4BB.jpg","null","",NA,NA,NA,NA,""
"image-keyboard-response",88,143512,"0.0-3.25-2.25","kn4dk4y9l3l9kc9",912,"110.csv","","null","resources/images/coin2.png","null","",NA,NA,NA,NA,""
"image-keyboard-response",89,143972,"0.0-3.26-0.26","kn4dk4y9l3l9kc9",912,"110.csv","","459","resources/trios/L4T1A3.jpg","39","restless",0.7,0.2,0.7,0.87672731466256,"false"
"image-keyboard-response",90,144378,"0.0-3.26-1.26","kn4dk4y9l3l9kc9",912,"110.csv","","null","resources/maskTrios/BBA3.jpg","null","",NA,NA,NA,NA,""
"image-keyboard-response",91,145584,"0.0-3.26-2.26","kn4dk4y9l3l9kc9",912,"110.csv","","null","resources/images/fishbone.png","null","",NA,NA,NA,NA,""
"image-keyboard-response",92,149429,"0.0-3.27-0.27","kn4dk4y9l3l9kc9",912,"110.csv","","3845","resources/trios/L4T2A3.jpg","37","restless",0.7,0.2,0.7,0.541602904509238,"true"
"image-keyboard-response",93,149834,"0.0-3.27-1.27","kn4dk4y9l3l9kc9",912,"110.csv","","null","resources/maskTrios/L4BB.jpg","null","",NA,NA,NA,NA,""
"image-keyboard-response",94,151039,"0.0-3.27-2.27","kn4dk4y9l3l9kc9",912,"110.csv","","null","resources/images/coin2.png","null","",NA,NA,NA,NA,""
"image-keyboard-response",95,152405,"0.0-3.28-0.28","kn4dk4y9l3l9kc9",912,"110.csv","","1365","resources/trios/L2T1A3.jpg","37","restless",0.7,0.3,0.7,0.716654131935156,"false"
"image-keyboard-response",96,152812,"0.0-3.28-1.28","kn4dk4y9l3l9kc9",912,"110.csv","","null","resources/maskTrios/L2BB.jpg","null","",NA,NA,NA,NA,""
"image-keyboard-response",97,154017,"0.0-3.28-2.28","kn4dk4y9l3l9kc9",912,"110.csv","","null","resources/images/fishbone.png","null","",NA,NA,NA,NA,""
"image-keyboard-response",98,154559,"0.0-3.29-0.29","kn4dk4y9l3l9kc9",912,"110.csv","","540","resources/trios/L4T1A1.jpg","38","restless",0.7,0.4,0.7,0.237792132537026,"true"
"image-keyboard-response",99,154963,"0.0-3.29-1.29","kn4dk4y9l3l9kc9",912,"110.csv","","null","resources/maskTrios/BT1B.jpg","null","",NA,NA,NA,NA,""
"image-keyboard-response",100,156168,"0.0-3.29-2.29","kn4dk4y9l3l9kc9",912,"110.csv","","null","resources/images/coin2.png","null","",NA,NA,NA,NA,""
"image-keyboard-response",101,156448,"0.0-3.30-0.30","kn4dk4y9l3l9kc9",912,"110.csv","","280","resources/trios/L2T2A1.jpg","38","restless",0.7,0.5,0.7,0.537085079913781,"false"
"image-keyboard-response",102,156851,"0.0-3.30-1.30","kn4dk4y9l3l9kc9",912,"110.csv","","null","resources/maskTrios/BT2B.jpg","null","",NA,NA,NA,NA,""
"image-keyboard-response",103,158055,"0.0-3.30-2.30","kn4dk4y9l3l9kc9",912,"110.csv","","null","resources/images/fishbone.png","null","",NA,NA,NA,NA,""
"image-keyboard-response",104,158354,"0.0-3.31-0.31","kn4dk4y9l3l9kc9",912,"110.csv","","299","resources/trios/L2T1A3.jpg","39","restless",0.8,0.5,0.7,0.530329136477105,"true"
"image-keyboard-response",105,158761,"0.0-3.31-1.31","kn4dk4y9l3l9kc9",912,"110.csv","","null","resources/maskTrios/BBA3.jpg","null","",NA,NA,NA,NA,""
"image-keyboard-response",106,159964,"0.0-3.31-2.31","kn4dk4y9l3l9kc9",912,"110.csv","","null","resources/images/coin2.png","null","",NA,NA,NA,NA,""
"image-keyboard-response",107,160225,"0.0-3.32-0.32","kn4dk4y9l3l9kc9",912,"110.csv","","261","resources/trios/L4T1A1.jpg","39","restless",0.8,0.5,0.7,0.61587519679411,"true"
"image-keyboard-response",108,160627,"0.0-3.32-1.32","kn4dk4y9l3l9kc9",912,"110.csv","","null","resources/maskTrios/BBA1.jpg","null","",NA,NA,NA,NA,""
"image-keyboard-response",109,161831,"0.0-3.32-2.32","kn4dk4y9l3l9kc9",912,"110.csv","","null","resources/images/coin2.png","null","",NA,NA,NA,NA,""
"image-keyboard-response",110,162143,"0.0-3.33-0.33","kn4dk4y9l3l9kc9",912,"110.csv","","311","resources/trios/L2T1A1.jpg","39","restless",0.8,0.5,0.7,0.759265364387494,"false"
"image-keyboard-response",111,162547,"0.0-3.33-1.33","kn4dk4y9l3l9kc9",912,"110.csv","","null","resources/maskTrios/BBA1.jpg","null","",NA,NA,NA,NA,""
"image-keyboard-response",112,163751,"0.0-3.33-2.33","kn4dk4y9l3l9kc9",912,"110.csv","","null","resources/images/fishbone.png","null","",NA,NA,NA,NA,""
"image-keyboard-response",113,164017,"0.0-3.34-0.34","kn4dk4y9l3l9kc9",912,"110.csv","","264","resources/trios/L4T1A3.jpg","37","restless",0.8,0.5,0.7,0.102131260098155,"true"
"image-keyboard-response",114,164421,"0.0-3.34-1.34","kn4dk4y9l3l9kc9",912,"110.csv","","null","resources/maskTrios/L4BB.jpg","null","",NA,NA,NA,NA,""
"image-keyboard-response",115,165625,"0.0-3.34-2.34","kn4dk4y9l3l9kc9",912,"110.csv","","null","resources/images/coin2.png","null","",NA,NA,NA,NA,""
"image-keyboard-response",116,166282,"0.0-3.35-0.35","kn4dk4y9l3l9kc9",912,"110.csv","","657","resources/trios/L4T2A3.jpg","37","restless",0.7,0.5,0.7,0.797528624555995,"false"
"image-keyboard-response",117,166684,"0.0-3.35-1.35","kn4dk4y9l3l9kc9",912,"110.csv","","null","resources/maskTrios/L4BB.jpg","null","",NA,NA,NA,NA,""
"image-keyboard-response",118,167890,"0.0-3.35-2.35","kn4dk4y9l3l9kc9",912,"110.csv","","null","resources/images/fishbone.png","null","",NA,NA,NA,NA,""
"image-keyboard-response",119,168143,"0.0-3.36-0.36","kn4dk4y9l3l9kc9",912,"110.csv","","253","resources/trios/L2T1A1.jpg","38","restless",0.7,0.5,0.6,0.148798008400487,"true"
"image-keyboard-response",120,168549,"0.0-3.36-1.36","kn4dk4y9l3l9kc9",912,"110.csv","","null","resources/maskTrios/BT1B.jpg","null","",NA,NA,NA,NA,""
"image-keyboard-response",121,169752,"0.0-3.36-2.36","kn4dk4y9l3l9kc9",912,"110.csv","","null","resources/images/coin2.png","null","",NA,NA,NA,NA,""
"image-keyboard-response",122,170152,"0.0-3.37-0.37","kn4dk4y9l3l9kc9",912,"110.csv","","398","resources/trios/L4T1A1.jpg","38","restless",0.7,0.5,0.6,0.21669931312489,"true"
"image-keyboard-response",123,170556,"0.0-3.37-1.37","kn4dk4y9l3l9kc9",912,"110.csv","","null","resources/maskTrios/BT1B.jpg","null","",NA,NA,NA,NA,""
"image-keyboard-response",124,171761,"0.0-3.37-2.37","kn4dk4y9l3l9kc9",912,"110.csv","","null","resources/images/coin2.png","null","",NA,NA,NA,NA,""
"image-keyboard-response",125,172174,"0.0-3.38-0.38","kn4dk4y9l3l9kc9",912,"110.csv","","411","resources/trios/L2T1A3.jpg","38","restless",0.7,0.5,0.6,0.315564757473509,"true"
"image-keyboard-response",126,172579,"0.0-3.38-1.38","kn4dk4y9l3l9kc9",912,"110.csv","","null","resources/maskTrios/BT1B.jpg","null","",NA,NA,NA,NA,""
"image-keyboard-response",127,173784,"0.0-3.38-2.38","kn4dk4y9l3l9kc9",912,"110.csv","","null","resources/images/coin2.png","null","",NA,NA,NA,NA,""
"image-keyboard-response",128,174119,"0.0-3.39-0.39","kn4dk4y9l3l9kc9",912,"110.csv","","335","resources/trios/L2T1A1.jpg","38","restless",0.7,0.5,0.6,0.731921835257807,"false"
"image-keyboard-response",129,174524,"0.0-3.39-1.39","kn4dk4y9l3l9kc9",912,"110.csv","","null","resources/maskTrios/BT1B.jpg","null","",NA,NA,NA,NA,""
"image-keyboard-response",130,175731,"0.0-3.39-2.39","kn4dk4y9l3l9kc9",912,"110.csv","","null","resources/images/fishbone.png","null","",NA,NA,NA,NA,""
"image-keyboard-response",131,175987,"0.0-3.40-0.40","kn4dk4y9l3l9kc9",912,"110.csv","","255","resources/trios/L4T1A3.jpg","39","restless",0.7,0.5,0.5,0.183624088956,"true"
"image-keyboard-response",132,176393,"0.0-3.40-1.40","kn4dk4y9l3l9kc9",912,"110.csv","","null","resources/maskTrios/BBA3.jpg","null","",NA,NA,NA,NA,""
"image-keyboard-response",133,177594,"0.0-3.40-2.40","kn4dk4y9l3l9kc9",912,"110.csv","","null","resources/images/coin2.png","null","",NA,NA,NA,NA,""
"image-keyboard-response",134,177956,"0.0-3.41-0.41","kn4dk4y9l3l9kc9",912,"110.csv","","361","resources/trios/L2T1A1.jpg","39","restless",0.7,0.5,0.5,0.201262831829246,"true"
"image-keyboard-response",135,178361,"0.0-3.41-1.41","kn4dk4y9l3l9kc9",912,"110.csv","","null","resources/maskTrios/BBA1.jpg","null","",NA,NA,NA,NA,""
"image-keyboard-response",136,179563,"0.0-3.41-2.41","kn4dk4y9l3l9kc9",912,"110.csv","","null","resources/images/coin2.png","null","",NA,NA,NA,NA,""
"image-keyboard-response",137,179931,"0.0-3.42-0.42","kn4dk4y9l3l9kc9",912,"110.csv","","366","resources/trios/L4T1A3.jpg","39","restless",0.7,0.5,0.5,0.0905503317774929,"true"
"image-keyboard-response",138,180334,"0.0-3.42-1.42","kn4dk4y9l3l9kc9",912,"110.csv","","null","resources/maskTrios/BBA3.jpg","null","",NA,NA,NA,NA,""
"image-keyboard-response",139,181537,"0.0-3.42-2.42","kn4dk4y9l3l9kc9",912,"110.csv","","null","resources/images/coin2.png","null","",NA,NA,NA,NA,""
"image-keyboard-response",140,181912,"0.0-3.43-0.43","kn4dk4y9l3l9kc9",912,"110.csv","","373","resources/trios/L2T2A1.jpg","39","restless",0.7,0.5,0.5,0.873210475939239,"false"
"image-keyboard-response",141,182317,"0.0-3.43-1.43","kn4dk4y9l3l9kc9",912,"110.csv","","null","resources/maskTrios/BBA1.jpg","null","",NA,NA,NA,NA,""
"image-keyboard-response",142,183523,"0.0-3.43-2.43","kn4dk4y9l3l9kc9",912,"110.csv","","null","resources/images/fishbone.png","null","",NA,NA,NA,NA,""
"image-keyboard-response",143,183812,"0.0-3.44-0.44","kn4dk4y9l3l9kc9",912,"110.csv","","287","resources/trios/L2T2A1.jpg","38","restless",0.7,0.5,0.5,0.483925721971694,"true"
"image-keyboard-response",144,184217,"0.0-3.44-1.44","kn4dk4y9l3l9kc9",912,"110.csv","","null","resources/maskTrios/BT2B.jpg","null","",NA,NA,NA,NA,""
"image-keyboard-response",145,185423,"0.0-3.44-2.44","kn4dk4y9l3l9kc9",912,"110.csv","","null","resources/images/coin2.png","null","",NA,NA,NA,NA,""
"image-keyboard-response",146,185928,"0.0-3.45-0.45","kn4dk4y9l3l9kc9",912,"110.csv","","503","resources/trios/L2T1A1.jpg","38","restless",0.7,0.5,0.5,0.644808377324512,"false"
"image-keyboard-response",147,186333,"0.0-3.45-1.45","kn4dk4y9l3l9kc9",912,"110.csv","","null","resources/maskTrios/BT1B.jpg","null","",NA,NA,NA,NA,""
"image-keyboard-response",148,187535,"0.0-3.45-2.45","kn4dk4y9l3l9kc9",912,"110.csv","","null","resources/images/fishbone.png","null","",NA,NA,NA,NA,""
"image-keyboard-response",149,188004,"0.0-3.46-0.46","kn4dk4y9l3l9kc9",912,"110.csv","","468","resources/trios/L4T1A3.jpg","37","restless",0.7,0.5,0.5,0.445334455512099,"true"
"image-keyboard-response",150,188410,"0.0-3.46-1.46","kn4dk4y9l3l9kc9",912,"110.csv","","null","resources/maskTrios/L4BB.jpg","null","",NA,NA,NA,NA,""
"image-keyboard-response",151,189614,"0.0-3.46-2.46","kn4dk4y9l3l9kc9",912,"110.csv","","null","resources/images/coin2.png","null","",NA,NA,NA,NA,""
"image-keyboard-response",152,190114,"0.0-3.47-0.47","kn4dk4y9l3l9kc9",912,"110.csv","","499","resources/trios/L4T1A1.jpg","37","restless",0.7,0.5,0.5,0.74422397842142,"false"
"image-keyboard-response",153,190517,"0.0-3.47-1.47","kn4dk4y9l3l9kc9",912,"110.csv","","null","resources/maskTrios/L4BB.jpg","null","",NA,NA,NA,NA,""
"image-keyboard-response",154,191721,"0.0-3.47-2.47","kn4dk4y9l3l9kc9",912,"110.csv","","null","resources/images/fishbone.png","null","",NA,NA,NA,NA,""
"image-keyboard-response",155,192061,"0.0-3.48-0.48","kn4dk4y9l3l9kc9",912,"110.csv","","338","resources/trios/L4T1A3.jpg","38","restless",0.7,0.5,0.5,0.773138308956226,"false"
"image-keyboard-response",156,192467,"0.0-3.48-1.48","kn4dk4y9l3l9kc9",912,"110.csv","","null","resources/maskTrios/BT1B.jpg","null","",NA,NA,NA,NA,""
"image-keyboard-response",157,193669,"0.0-3.48-2.48","kn4dk4y9l3l9kc9",912,"110.csv","","null","resources/images/fishbone.png","null","",NA,NA,NA,NA,""
"image-keyboard-response",158,193986,"0.0-3.49-0.49","kn4dk4y9l3l9kc9",912,"110.csv","","315","resources/trios/L2T2A1.jpg","39","restless",0.7,0.5,0.5,0.62627787978607,"false"
"image-keyboard-response",159,194392,"0.0-3.49-1.49","kn4dk4y9l3l9kc9",912,"110.csv","","null","resources/maskTrios/BBA1.jpg","null","",NA,NA,NA,NA,""
"image-keyboard-response",160,195598,"0.0-3.49-2.49","kn4dk4y9l3l9kc9",912,"110.csv","","null","resources/images/fishbone.png","null","",NA,NA,NA,NA,""
"image-keyboard-response",161,195855,"0.0-3.50-0.50","kn4dk4y9l3l9kc9",912,"110.csv","","256","resources/trios/L2T1A3.jpg","37","restless",0.8,0.5,0.5,0.876588822730071,"false"
"image-keyboard-response",162,196257,"0.0-3.50-1.50","kn4dk4y9l3l9kc9",912,"110.csv","","null","resources/maskTrios/L2BB.jpg","null","",NA,NA,NA,NA,""
"image-keyboard-response",163,197463,"0.0-3.50-2.50","kn4dk4y9l3l9kc9",912,"110.csv","","null","resources/images/fishbone.png","null","",NA,NA,NA,NA,""
"image-keyboard-response",164,197735,"0.0-3.51-0.51","kn4dk4y9l3l9kc9",912,"110.csv","","270","resources/trios/L2T2A1.jpg","39","restless",0.8,0.6,0.5,0.876907032855206,"false"
"image-keyboard-response",165,198136,"0.0-3.51-1.51","kn4dk4y9l3l9kc9",912,"110.csv","","null","resources/maskTrios/BBA1.jpg","null","",NA,NA,NA,NA,""
"image-keyboard-response",166,199339,"0.0-3.51-2.51","kn4dk4y9l3l9kc9",912,"110.csv","","null","resources/images/fishbone.png","null","",NA,NA,NA,NA,""
"image-keyboard-response",167,199670,"0.0-3.52-0.52","kn4dk4y9l3l9kc9",912,"110.csv","","330","resources/trios/L4T2A3.jpg","38","restless",0.8,0.6,0.5,0.729778927208971,"false"
"image-keyboard-response",168,200074,"0.0-3.52-1.52","kn4dk4y9l3l9kc9",912,"110.csv","","null","resources/maskTrios/BT2B.jpg","null","",NA,NA,NA,NA,""
"image-keyboard-response",169,201277,"0.0-3.52-2.52","kn4dk4y9l3l9kc9",912,"110.csv","","null","resources/images/fishbone.png","null","",NA,NA,NA,NA,""
"image-keyboard-response",170,201566,"0.0-3.53-0.53","kn4dk4y9l3l9kc9",912,"110.csv","","287","resources/trios/L2T1A1.jpg","37","restless",0.7,0.6,0.5,0.0163767555871147,"true"
"image-keyboard-response",171,201966,"0.0-3.53-1.53","kn4dk4y9l3l9kc9",912,"110.csv","","null","resources/maskTrios/L2BB.jpg","null","",NA,NA,NA,NA,""
"image-keyboard-response",172,203173,"0.0-3.53-2.53","kn4dk4y9l3l9kc9",912,"110.csv","","null","resources/images/coin2.png","null","",NA,NA,NA,NA,""
"image-keyboard-response",173,203478,"0.0-3.54-0.54","kn4dk4y9l3l9kc9",912,"110.csv","","304","resources/trios/L2T1A1.jpg","37","restless",0.8,0.6,0.5,0.985729988776833,"false"
"image-keyboard-response",174,203883,"0.0-3.54-1.54","kn4dk4y9l3l9kc9",912,"110.csv","","null","resources/maskTrios/L2BB.jpg","null","",NA,NA,NA,NA,""
"image-keyboard-response",175,205088,"0.0-3.54-2.54","kn4dk4y9l3l9kc9",912,"110.csv","","null","resources/images/fishbone.png","null","",NA,NA,NA,NA,""
"image-keyboard-response",176,205397,"0.0-3.55-0.55","kn4dk4y9l3l9kc9",912,"110.csv","","310","resources/trios/L2T2A3.jpg","38","restless",0.7,0.6,0.5,0.0850002256466078,"true"
"image-keyboard-response",177,205803,"0.0-3.55-1.55","kn4dk4y9l3l9kc9",912,"110.csv","","null","resources/maskTrios/BT2B.jpg","null","",NA,NA,NA,NA,""
"image-keyboard-response",178,207007,"0.0-3.55-2.55","kn4dk4y9l3l9kc9",912,"110.csv","","null","resources/images/coin2.png","null","",NA,NA,NA,NA,""
"image-keyboard-response",179,207099,"0.0-3.56-0.56","kn4dk4y9l3l9kc9",912,"110.csv","","89","resources/trios/L4T1A3.jpg","39","restless",0.7,0.6,0.5,0.032470089953312,"true"
"image-keyboard-response",180,207505,"0.0-3.56-1.56","kn4dk4y9l3l9kc9",912,"110.csv","","null","resources/maskTrios/BBA3.jpg","null","",NA,NA,NA,NA,""
"image-keyboard-response",181,208710,"0.0-3.56-2.56","kn4dk4y9l3l9kc9",912,"110.csv","","null","resources/images/coin2.png","null","",NA,NA,NA,NA,""
"image-keyboard-response",182,209060,"0.0-3.57-0.57","kn4dk4y9l3l9kc9",912,"110.csv","","349","resources/trios/L4T2A1.jpg","39","restless",0.7,0.6,0.5,0.0702599275798209,"true"
"image-keyboard-response",183,209466,"0.0-3.57-1.57","kn4dk4y9l3l9kc9",912,"110.csv","","null","resources/maskTrios/BBA1.jpg","null","",NA,NA,NA,NA,""
"image-keyboard-response",184,210672,"0.0-3.57-2.57","kn4dk4y9l3l9kc9",912,"110.csv","","null","resources/images/coin2.png","null","",NA,NA,NA,NA,""
"image-keyboard-response",185,210932,"0.0-3.58-0.58","kn4dk4y9l3l9kc9",912,"110.csv","","259","resources/trios/L2T2A1.jpg","39","restless",0.7,0.6,0.5,0.571058089717339,"false"
"image-keyboard-response",186,211338,"0.0-3.58-1.58","kn4dk4y9l3l9kc9",912,"110.csv","","null","resources/maskTrios/BBA1.jpg","null","",NA,NA,NA,NA,""
"image-keyboard-response",187,212543,"0.0-3.58-2.58","kn4dk4y9l3l9kc9",912,"110.csv","","null","resources/images/fishbone.png","null","",NA,NA,NA,NA,""
"image-keyboard-response",188,212793,"0.0-3.59-0.59","kn4dk4y9l3l9kc9",912,"110.csv","","249","resources/trios/L2T2A3.jpg","38","restless",0.7,0.6,0.5,0.479104214789252,"true"
"image-keyboard-response",189,213195,"0.0-3.59-1.59","kn4dk4y9l3l9kc9",912,"110.csv","","null","resources/maskTrios/BT2B.jpg","null","",NA,NA,NA,NA,""
"image-keyboard-response",190,214399,"0.0-3.59-2.59","kn4dk4y9l3l9kc9",912,"110.csv","","null","resources/images/coin2.png","null","",NA,NA,NA,NA,""
"image-keyboard-response",191,214623,"0.0-3.60-0.60","kn4dk4y9l3l9kc9",912,"110.csv","","222","resources/trios/L4T2A3.jpg","38","restless",0.7,0.6,0.5,0.0127533880705324,"true"
"image-keyboard-response",192,215026,"0.0-3.60-1.60","kn4dk4y9l3l9kc9",912,"110.csv","","null","resources/maskTrios/BT2B.jpg","null","",NA,NA,NA,NA,""
"image-keyboard-response",193,216228,"0.0-3.60-2.60","kn4dk4y9l3l9kc9",912,"110.csv","","null","resources/images/coin2.png","null","",NA,NA,NA,NA,""
"image-keyboard-response",194,216398,"0.0-3.61-0.61","kn4dk4y9l3l9kc9",912,"110.csv","","169","resources/trios/L4T1A3.jpg","38","restless",0.7,0.6,0.5,0.410173731714108,"true"
"image-keyboard-response",195,216800,"0.0-3.61-1.61","kn4dk4y9l3l9kc9",912,"110.csv","","null","resources/maskTrios/BT1B.jpg","null","",NA,NA,NA,NA,""
"image-keyboard-response",196,218004,"0.0-3.61-2.61","kn4dk4y9l3l9kc9",912,"110.csv","","null","resources/images/coin2.png","null","",NA,NA,NA,NA,""
"image-keyboard-response",197,218403,"0.0-3.62-0.62","kn4dk4y9l3l9kc9",912,"110.csv","","398","resources/trios/L2T1A1.jpg","38","restless",0.7,0.6,0.5,0.660195103480619,"false"
"image-keyboard-response",198,218809,"0.0-3.62-1.62","kn4dk4y9l3l9kc9",912,"110.csv","","null","resources/maskTrios/BT1B.jpg","null","",NA,NA,NA,NA,""
"image-keyboard-response",199,220012,"0.0-3.62-2.62","kn4dk4y9l3l9kc9",912,"110.csv","","null","resources/images/fishbone.png","null","",NA,NA,NA,NA,""
"image-keyboard-response",200,220741,"0.0-3.63-0.63","kn4dk4y9l3l9kc9",912,"110.csv","","728","resources/trios/L4T1A1.jpg","37","restless",0.7,0.6,0.5,0.0420514326914057,"true"
"image-keyboard-response",201,221146,"0.0-3.63-1.63","kn4dk4y9l3l9kc9",912,"110.csv","","null","resources/maskTrios/L4BB.jpg","null","",NA,NA,NA,NA,""
"image-keyboard-response",202,222349,"0.0-3.63-2.63","kn4dk4y9l3l9kc9",912,"110.csv","","null","resources/images/coin2.png","null","",NA,NA,NA,NA,""
"image-keyboard-response",203,222933,"0.0-3.64-0.64","kn4dk4y9l3l9kc9",912,"110.csv","","583","resources/trios/L2T1A1.jpg","37","restless",0.7,0.6,0.5,0.144941730620996,"true"
"image-keyboard-response",204,223338,"0.0-3.64-1.64","kn4dk4y9l3l9kc9",912,"110.csv","","null","resources/maskTrios/L2BB.jpg","null","",NA,NA,NA,NA,""
"image-keyboard-response",205,224543,"0.0-3.64-2.64","kn4dk4y9l3l9kc9",912,"110.csv","","null","resources/images/coin2.png","null","",NA,NA,NA,NA,""
"image-keyboard-response",206,224827,"0.0-3.65-0.65","kn4dk4y9l3l9kc9",912,"110.csv","","282","resources/trios/L4T1A3.jpg","37","restless",0.7,0.6,0.5,0.302604897798814,"true"
"image-keyboard-response",207,225232,"0.0-3.65-1.65","kn4dk4y9l3l9kc9",912,"110.csv","","null","resources/maskTrios/L4BB.jpg","null","",NA,NA,NA,NA,""
"image-keyboard-response",208,226435,"0.0-3.65-2.65","kn4dk4y9l3l9kc9",912,"110.csv","","null","resources/images/coin2.png","null","",NA,NA,NA,NA,""
"image-keyboard-response",209,227076,"0.0-3.66-0.66","kn4dk4y9l3l9kc9",912,"110.csv","","640","resources/trios/L2T2A3.jpg","37","restless",0.7,0.7,0.5,0.185601658386089,"true"
"image-keyboard-response",210,227481,"0.0-3.66-1.66","kn4dk4y9l3l9kc9",912,"110.csv","","null","resources/maskTrios/L2BB.jpg","null","",NA,NA,NA,NA,""
"image-keyboard-response",211,228685,"0.0-3.66-2.66","kn4dk4y9l3l9kc9",912,"110.csv","","null","resources/images/coin2.png","null","",NA,NA,NA,NA,""
"image-keyboard-response",212,229006,"0.0-3.67-0.67","kn4dk4y9l3l9kc9",912,"110.csv","","320","resources/trios/L4T1A1.jpg","37","restless",0.7,0.8,0.5,0.62974153021757,"true"
"image-keyboard-response",213,229410,"0.0-3.67-1.67","kn4dk4y9l3l9kc9",912,"110.csv","","null","resources/maskTrios/L4BB.jpg","null","",NA,NA,NA,NA,""
"image-keyboard-response",214,230616,"0.0-3.67-2.67","kn4dk4y9l3l9kc9",912,"110.csv","","null","resources/images/coin2.png","null","",NA,NA,NA,NA,""
"image-keyboard-response",215,230929,"0.0-3.68-0.68","kn4dk4y9l3l9kc9",912,"110.csv","","312","resources/trios/L2T2A1.jpg","37","restless",0.7,0.8,0.5,0.371434397100505,"true"
"image-keyboard-response",216,231334,"0.0-3.68-1.68","kn4dk4y9l3l9kc9",912,"110.csv","","null","resources/maskTrios/L2BB.jpg","null","",NA,NA,NA,NA,""
"image-keyboard-response",217,232541,"0.0-3.68-2.68","kn4dk4y9l3l9kc9",912,"110.csv","","null","resources/images/coin2.png","null","",NA,NA,NA,NA,""
"image-keyboard-response",218,232819,"0.0-3.69-0.69","kn4dk4y9l3l9kc9",912,"110.csv","","277","resources/trios/L4T1A1.jpg","37","restless",0.6,0.8,0.4,0.551503911825366,"true"
"image-keyboard-response",219,233225,"0.0-3.69-1.69","kn4dk4y9l3l9kc9",912,"110.csv","","null","resources/maskTrios/L4BB.jpg","null","",NA,NA,NA,NA,""
"image-keyboard-response",220,234430,"0.0-3.69-2.69","kn4dk4y9l3l9kc9",912,"110.csv","","null","resources/images/coin2.png","null","",NA,NA,NA,NA,""
"image-keyboard-response",221,234781,"0.0-3.70-0.70","kn4dk4y9l3l9kc9",912,"110.csv","","349","resources/trios/L2T1A1.jpg","37","restless",0.5,0.8,0.4,0.30602914500854,"true"
"image-keyboard-response",222,235182,"0.0-3.70-1.70","kn4dk4y9l3l9kc9",912,"110.csv","","null","resources/maskTrios/L2BB.jpg","null","",NA,NA,NA,NA,""
"image-keyboard-response",223,236386,"0.0-3.70-2.70","kn4dk4y9l3l9kc9",912,"110.csv","","null","resources/images/coin2.png","null","",NA,NA,NA,NA,""
"image-keyboard-response",224,236730,"0.0-3.71-0.71","kn4dk4y9l3l9kc9",912,"110.csv","","343","resources/trios/L2T2A3.jpg","37","restless",0.5,0.8,0.4,0.829967848664895,"false"
"image-keyboard-response",225,237135,"0.0-3.71-1.71","kn4dk4y9l3l9kc9",912,"110.csv","","null","resources/maskTrios/L2BB.jpg","null","",NA,NA,NA,NA,""
"image-keyboard-response",226,238339,"0.0-3.71-2.71","kn4dk4y9l3l9kc9",912,"110.csv","","null","resources/images/fishbone.png","null","",NA,NA,NA,NA,""
"image-keyboard-response",227,238666,"0.0-3.72-0.72","kn4dk4y9l3l9kc9",912,"110.csv","","327","resources/trios/L4T1A3.jpg","38","restless",0.5,0.8,0.4,0.507526657529772,"true"
"image-keyboard-response",228,239072,"0.0-3.72-1.72","kn4dk4y9l3l9kc9",912,"110.csv","","null","resources/maskTrios/BT1B.jpg","null","",NA,NA,NA,NA,""
"image-keyboard-response",229,240275,"0.0-3.72-2.72","kn4dk4y9l3l9kc9",912,"110.csv","","null","resources/images/coin2.png","null","",NA,NA,NA,NA,""
"image-keyboard-response",230,240607,"0.0-3.73-0.73","kn4dk4y9l3l9kc9",912,"110.csv","","329","resources/trios/L2T1A3.jpg","38","restless",0.5,0.8,0.4,0.450177337947401,"true"
"image-keyboard-response",231,241010,"0.0-3.73-1.73","kn4dk4y9l3l9kc9",912,"110.csv","","null","resources/maskTrios/BT1B.jpg","null","",NA,NA,NA,NA,""
"image-keyboard-response",232,242212,"0.0-3.73-2.73","kn4dk4y9l3l9kc9",912,"110.csv","","null","resources/images/coin2.png","null","",NA,NA,NA,NA,""
"image-keyboard-response",233,242361,"0.0-3.74-0.74","kn4dk4y9l3l9kc9",912,"110.csv","","147","resources/trios/L2T2A1.jpg","38","restless",0.5,0.8,0.4,0.638619814229554,"true"
"image-keyboard-response",234,242766,"0.0-3.74-1.74","kn4dk4y9l3l9kc9",912,"110.csv","","null","resources/maskTrios/BT2B.jpg","null","",NA,NA,NA,NA,""
"image-keyboard-response",235,243971,"0.0-3.74-2.74","kn4dk4y9l3l9kc9",912,"110.csv","","null","resources/images/coin2.png","null","",NA,NA,NA,NA,""
"image-keyboard-response",236,244269,"0.0-3.75-0.75","kn4dk4y9l3l9kc9",912,"110.csv","","297","resources/trios/L2T2A1.jpg","38","restless",0.5,0.8,0.4,0.71373974301513,"true"
"image-keyboard-response",237,244670,"0.0-3.75-1.75","kn4dk4y9l3l9kc9",912,"110.csv","","null","resources/maskTrios/BT2B.jpg","null","",NA,NA,NA,NA,""
"image-keyboard-response",238,245876,"0.0-3.75-2.75","kn4dk4y9l3l9kc9",912,"110.csv","","null","resources/images/coin2.png","null","",NA,NA,NA,NA,""
"image-keyboard-response",239,246749,"0.0-3.76-0.76","kn4dk4y9l3l9kc9",912,"110.csv","","872","resources/trios/L2T1A3.jpg","38","restless",0.5,0.9,0.5,0.497939006381128,"true"
"image-keyboard-response",240,247156,"0.0-3.76-1.76","kn4dk4y9l3l9kc9",912,"110.csv","","null","resources/maskTrios/BT1B.jpg","null","",NA,NA,NA,NA,""
"image-keyboard-response",241,248359,"0.0-3.76-2.76","kn4dk4y9l3l9kc9",912,"110.csv","","null","resources/images/coin2.png","null","",NA,NA,NA,NA,""
"image-keyboard-response",242,248938,"0.0-3.77-0.77","kn4dk4y9l3l9kc9",912,"110.csv","","579","resources/trios/L2T2A3.jpg","38","restless",0.5,0.9,0.5,0.712615097554994,"true"
"image-keyboard-response",243,249342,"0.0-3.77-1.77","kn4dk4y9l3l9kc9",912,"110.csv","","null","resources/maskTrios/BT2B.jpg","null","",NA,NA,NA,NA,""
"image-keyboard-response",244,250548,"0.0-3.77-2.77","kn4dk4y9l3l9kc9",912,"110.csv","","null","resources/images/coin2.png","null","",NA,NA,NA,NA,""
"image-keyboard-response",245,250895,"0.0-3.78-0.78","kn4dk4y9l3l9kc9",912,"110.csv","","347","resources/trios/L4T1A1.jpg","38","restless",0.5,0.9,0.5,0.0903274256488416,"true"
"image-keyboard-response",246,251299,"0.0-3.78-1.78","kn4dk4y9l3l9kc9",912,"110.csv","","null","resources/maskTrios/BT1B.jpg","null","",NA,NA,NA,NA,""
"image-keyboard-response",247,252504,"0.0-3.78-2.78","kn4dk4y9l3l9kc9",912,"110.csv","","null","resources/images/coin2.png","null","",NA,NA,NA,NA,""
"image-keyboard-response",248,253047,"0.0-3.79-0.79","kn4dk4y9l3l9kc9",912,"110.csv","","541","resources/trios/L2T2A1.jpg","38","restless",0.5,0.9,0.5,0.17800706798483,"true"
"image-keyboard-response",249,253453,"0.0-3.79-1.79","kn4dk4y9l3l9kc9",912,"110.csv","","null","resources/maskTrios/BT2B.jpg","null","",NA,NA,NA,NA,""
"image-keyboard-response",250,254656,"0.0-3.79-2.79","kn4dk4y9l3l9kc9",912,"110.csv","","null","resources/images/coin2.png","null","",NA,NA,NA,NA,""
"image-keyboard-response",251,254894,"0.0-3.80-0.80","kn4dk4y9l3l9kc9",912,"110.csv","","237","resources/trios/L4T1A1.jpg","38","restless",0.5,0.8,0.5,0.64156663679208,"true"
"image-keyboard-response",252,255299,"0.0-3.80-1.80","kn4dk4y9l3l9kc9",912,"110.csv","","null","resources/maskTrios/BT1B.jpg","null","",NA,NA,NA,NA,""
"image-keyboard-response",253,256502,"0.0-3.80-2.80","kn4dk4y9l3l9kc9",912,"110.csv","","null","resources/images/coin2.png","null","",NA,NA,NA,NA,""
"image-keyboard-response",254,256849,"0.0-3.81-0.81","kn4dk4y9l3l9kc9",912,"110.csv","","346","resources/trios/L2T2A1.jpg","38","restless",0.5,0.8,0.5,0.221191727616401,"true"
"image-keyboard-response",255,257255,"0.0-3.81-1.81","kn4dk4y9l3l9kc9",912,"110.csv","","null","resources/maskTrios/BT2B.jpg","null","",NA,NA,NA,NA,""
"image-keyboard-response",256,258459,"0.0-3.81-2.81","kn4dk4y9l3l9kc9",912,"110.csv","","null","resources/images/coin2.png","null","",NA,NA,NA,NA,""
"image-keyboard-response",257,259004,"0.0-3.82-0.82","kn4dk4y9l3l9kc9",912,"110.csv","","544","resources/trios/L4T2A1.jpg","38","restless",0.5,0.8,0.5,0.646562087673642,"true"
"image-keyboard-response",258,259410,"0.0-3.82-1.82","kn4dk4y9l3l9kc9",912,"110.csv","","null","resources/maskTrios/BT2B.jpg","null","",NA,NA,NA,NA,""
"image-keyboard-response",259,260615,"0.0-3.82-2.82","kn4dk4y9l3l9kc9",912,"110.csv","","null","resources/images/coin2.png","null","",NA,NA,NA,NA,""
"image-keyboard-response",260,262536,"0.0-3.83-0.83","kn4dk4y9l3l9kc9",912,"110.csv","","1920","resources/trios/L4T2A3.jpg","38","restless",0.5,0.9,0.6,0.809656051603759,"true"
"image-keyboard-response",261,262942,"0.0-3.83-1.83","kn4dk4y9l3l9kc9",912,"110.csv","","null","resources/maskTrios/BT2B.jpg","null","",NA,NA,NA,NA,""
"image-keyboard-response",262,264146,"0.0-3.83-2.83","kn4dk4y9l3l9kc9",912,"110.csv","","null","resources/images/coin2.png","null","",NA,NA,NA,NA,""
"image-keyboard-response",263,264832,"0.0-3.84-0.84","kn4dk4y9l3l9kc9",912,"110.csv","","686","resources/trios/L4T1A3.jpg","38","restless",0.5,0.9,0.6,0.78227064773613,"true"
"image-keyboard-response",264,265233,"0.0-3.84-1.84","kn4dk4y9l3l9kc9",912,"110.csv","","null","resources/maskTrios/BT1B.jpg","null","",NA,NA,NA,NA,""
"image-keyboard-response",265,266440,"0.0-3.84-2.84","kn4dk4y9l3l9kc9",912,"110.csv","","null","resources/images/coin2.png","null","",NA,NA,NA,NA,""
"image-keyboard-response",266,268112,"0.0-3.85-0.85","kn4dk4y9l3l9kc9",912,"110.csv","","1671","resources/trios/L4T2A1.jpg","38","restless",0.5,0.9,0.6,0.21603894726502,"true"
"image-keyboard-response",267,268518,"0.0-3.85-1.85","kn4dk4y9l3l9kc9",912,"110.csv","","null","resources/maskTrios/BT2B.jpg","null","",NA,NA,NA,NA,""
"image-keyboard-response",268,269724,"0.0-3.85-2.85","kn4dk4y9l3l9kc9",912,"110.csv","","null","resources/images/coin2.png","null","",NA,NA,NA,NA,""
"image-keyboard-response",269,270664,"0.0-3.86-0.86","kn4dk4y9l3l9kc9",912,"110.csv","","939","resources/trios/L4T1A1.jpg","38","restless",0.5,0.9,0.6,0.88517636038241,"true"
"image-keyboard-response",270,271065,"0.0-3.86-1.86","kn4dk4y9l3l9kc9",912,"110.csv","","null","resources/maskTrios/BT1B.jpg","null","",NA,NA,NA,NA,""
"image-keyboard-response",271,272267,"0.0-3.86-2.86","kn4dk4y9l3l9kc9",912,"110.csv","","null","resources/images/coin2.png","null","",NA,NA,NA,NA,""
"image-keyboard-response",272,273229,"0.0-3.87-0.87","kn4dk4y9l3l9kc9",912,"110.csv","","960","resources/trios/L2T1A3.jpg","38","restless",0.5,0.9,0.6,0.446690771131613,"true"
"image-keyboard-response",273,273631,"0.0-3.87-1.87","kn4dk4y9l3l9kc9",912,"110.csv","","null","resources/maskTrios/BT1B.jpg","null","",NA,NA,NA,NA,""
"image-keyboard-response",274,274838,"0.0-3.87-2.87","kn4dk4y9l3l9kc9",912,"110.csv","","null","resources/images/coin2.png","null","",NA,NA,NA,NA,""
"image-keyboard-response",275,275339,"0.0-3.88-0.88","kn4dk4y9l3l9kc9",912,"110.csv","","501","resources/trios/L4T2A1.jpg","38","restless",0.5,0.9,0.7,0.455643470419977,"true"
"image-keyboard-response",276,275742,"0.0-3.88-1.88","kn4dk4y9l3l9kc9",912,"110.csv","","null","resources/maskTrios/BT2B.jpg","null","",NA,NA,NA,NA,""
"image-keyboard-response",277,276944,"0.0-3.88-2.88","kn4dk4y9l3l9kc9",912,"110.csv","","null","resources/images/coin2.png","null","",NA,NA,NA,NA,""
"image-keyboard-response",278,277227,"0.0-3.89-0.89","kn4dk4y9l3l9kc9",912,"110.csv","","281","resources/trios/L4T1A3.jpg","38","restless",0.5,0.8,0.7,0.765921114763706,"true"
"image-keyboard-response",279,277631,"0.0-3.89-1.89","kn4dk4y9l3l9kc9",912,"110.csv","","null","resources/maskTrios/BT1B.jpg","null","",NA,NA,NA,NA,""
"image-keyboard-response",280,278837,"0.0-3.89-2.89","kn4dk4y9l3l9kc9",912,"110.csv","","null","resources/images/coin2.png","null","",NA,NA,NA,NA,""
"image-keyboard-response",281,279232,"0.0-3.90-0.90","kn4dk4y9l3l9kc9",912,"110.csv","","393","resources/trios/L4T2A1.jpg","38","restless",0.4,0.8,0.7,0.425591386190254,"true"
"image-keyboard-response",282,279636,"0.0-3.90-1.90","kn4dk4y9l3l9kc9",912,"110.csv","","null","resources/maskTrios/BT2B.jpg","null","",NA,NA,NA,NA,""
"image-keyboard-response",283,280841,"0.0-3.90-2.90","kn4dk4y9l3l9kc9",912,"110.csv","","null","resources/images/coin2.png","null","",NA,NA,NA,NA,""
"image-keyboard-response",284,281178,"0.0-3.91-0.91","kn4dk4y9l3l9kc9",912,"110.csv","","336","resources/trios/L4T2A3.jpg","38","restless",0.4,0.8,0.7,0.434341751302634,"true"
"image-keyboard-response",285,281583,"0.0-3.91-1.91","kn4dk4y9l3l9kc9",912,"110.csv","","null","resources/maskTrios/BT2B.jpg","null","",NA,NA,NA,NA,""
"image-keyboard-response",286,282788,"0.0-3.91-2.91","kn4dk4y9l3l9kc9",912,"110.csv","","null","resources/images/coin2.png","null","",NA,NA,NA,NA,""
"image-keyboard-response",287,283006,"0.0-3.92-0.92","kn4dk4y9l3l9kc9",912,"110.csv","","215","resources/trios/L2T1A3.jpg","38","restless",0.4,0.7,0.7,0.78972384156422,"false"
"image-keyboard-response",288,283408,"0.0-3.92-1.92","kn4dk4y9l3l9kc9",912,"110.csv","","null","resources/maskTrios/BT1B.jpg","null","",NA,NA,NA,NA,""
"image-keyboard-response",289,284614,"0.0-3.92-2.92","kn4dk4y9l3l9kc9",912,"110.csv","","null","resources/images/fishbone.png","null","",NA,NA,NA,NA,""
"image-keyboard-response",290,285079,"0.0-3.93-0.93","kn4dk4y9l3l9kc9",912,"110.csv","","463","resources/trios/L4T1A3.jpg","39","restless",0.4,0.7,0.7,0.768477656882045,"false"
"image-keyboard-response",291,285482,"0.0-3.93-1.93","kn4dk4y9l3l9kc9",912,"110.csv","","null","resources/maskTrios/BBA3.jpg","null","",NA,NA,NA,NA,""
"image-keyboard-response",292,286688,"0.0-3.93-2.93","kn4dk4y9l3l9kc9",912,"110.csv","","null","resources/images/fishbone.png","null","",NA,NA,NA,NA,""
"image-keyboard-response",293,287004,"0.0-3.94-0.94","kn4dk4y9l3l9kc9",912,"110.csv","","315","resources/trios/L2T2A1.jpg","37","restless",0.4,0.7,0.7,0.428513130325684,"false"
"image-keyboard-response",294,287410,"0.0-3.94-1.94","kn4dk4y9l3l9kc9",912,"110.csv","","null","resources/maskTrios/L2BB.jpg","null","",NA,NA,NA,NA,""
"image-keyboard-response",295,288614,"0.0-3.94-2.94","kn4dk4y9l3l9kc9",912,"110.csv","","null","resources/images/fishbone.png","null","",NA,NA,NA,NA,""
"image-keyboard-response",296,288878,"0.0-3.95-0.95","kn4dk4y9l3l9kc9",912,"110.csv","","261","resources/trios/L2T1A3.jpg","38","restless",0.4,0.7,0.7,0.518861588078001,"true"
"image-keyboard-response",297,289283,"0.0-3.95-1.95","kn4dk4y9l3l9kc9",912,"110.csv","","null","resources/maskTrios/BT1B.jpg","null","",NA,NA,NA,NA,""
"image-keyboard-response",298,290488,"0.0-3.95-2.95","kn4dk4y9l3l9kc9",912,"110.csv","","null","resources/images/coin2.png","null","",NA,NA,NA,NA,""
"image-keyboard-response",299,290767,"0.0-3.96-0.96","kn4dk4y9l3l9kc9",912,"110.csv","","279","resources/trios/L2T2A1.jpg","38","restless",0.4,0.7,0.7,0.661996559645933,"true"
"image-keyboard-response",300,291174,"0.0-3.96-1.96","kn4dk4y9l3l9kc9",912,"110.csv","","null","resources/maskTrios/BT2B.jpg","null","",NA,NA,NA,NA,""
"image-keyboard-response",301,292380,"0.0-3.96-2.96","kn4dk4y9l3l9kc9",912,"110.csv","","null","resources/images/coin2.png","null","",NA,NA,NA,NA,""
"image-keyboard-response",302,292527,"0.0-3.97-0.97","kn4dk4y9l3l9kc9",912,"110.csv","","145","resources/trios/L4T2A1.jpg","38","restless",0.4,0.7,0.7,0.464838093448031,"true"
"image-keyboard-response",303,292931,"0.0-3.97-1.97","kn4dk4y9l3l9kc9",912,"110.csv","","null","resources/maskTrios/BT2B.jpg","null","",NA,NA,NA,NA,""
"image-keyboard-response",304,294137,"0.0-3.97-2.97","kn4dk4y9l3l9kc9",912,"110.csv","","null","resources/images/coin2.png","null","",NA,NA,NA,NA,""
"image-keyboard-response",305,294408,"0.0-3.98-0.98","kn4dk4y9l3l9kc9",912,"110.csv","","269","resources/trios/L4T2A1.jpg","38","restless",0.4,0.7,0.7,0.103546448476866,"true"
"image-keyboard-response",306,294812,"0.0-3.98-1.98","kn4dk4y9l3l9kc9",912,"110.csv","","null","resources/maskTrios/BT2B.jpg","null","",NA,NA,NA,NA,""
"image-keyboard-response",307,296014,"0.0-3.98-2.98","kn4dk4y9l3l9kc9",912,"110.csv","","null","resources/images/coin2.png","null","",NA,NA,NA,NA,""
"image-keyboard-response",308,296299,"0.0-3.99-0.99","kn4dk4y9l3l9kc9",912,"110.csv","","284","resources/trios/L2T2A3.jpg","38","restless",0.4,0.7,0.7,0.0158514012705671,"true"
"image-keyboard-response",309,296705,"0.0-3.99-1.99","kn4dk4y9l3l9kc9",912,"110.csv","","null","resources/maskTrios/BT2B.jpg","null","",NA,NA,NA,NA,""
"image-keyboard-response",310,297910,"0.0-3.99-2.99","kn4dk4y9l3l9kc9",912,"110.csv","","null","resources/images/coin2.png","null","",NA,NA,NA,NA,""
"image-keyboard-response",311,298225,"0.0-3.100-0.100","kn4dk4y9l3l9kc9",912,"110.csv","","314","resources/trios/L2T2A1.jpg","38","restless",0.4,0.7,0.7,0.533709707306709,"true"
"image-keyboard-response",312,298631,"0.0-3.100-1.100","kn4dk4y9l3l9kc9",912,"110.csv","","null","resources/maskTrios/BT2B.jpg","null","",NA,NA,NA,NA,""
"image-keyboard-response",313,299836,"0.0-3.100-2.100","kn4dk4y9l3l9kc9",912,"110.csv","","null","resources/images/coin2.png","null","",NA,NA,NA,NA,""
"image-keyboard-response",314,300169,"0.0-3.101-0.101","kn4dk4y9l3l9kc9",912,"110.csv","","332","resources/trios/L4T1A3.jpg","38","restless",0.4,0.7,0.7,0.341075266949905,"true"
"image-keyboard-response",315,300575,"0.0-3.101-1.101","kn4dk4y9l3l9kc9",912,"110.csv","","null","resources/maskTrios/BT1B.jpg","null","",NA,NA,NA,NA,""
"image-keyboard-response",316,301781,"0.0-3.101-2.101","kn4dk4y9l3l9kc9",912,"110.csv","","null","resources/images/coin2.png","null","",NA,NA,NA,NA,""
"image-keyboard-response",317,302066,"0.0-3.102-0.102","kn4dk4y9l3l9kc9",912,"110.csv","","284","resources/trios/L4T1A3.jpg","38","restless",0.4,0.6,0.6,0.241821792408697,"true"
"image-keyboard-response",318,302472,"0.0-3.102-1.102","kn4dk4y9l3l9kc9",912,"110.csv","","null","resources/maskTrios/BT1B.jpg","null","",NA,NA,NA,NA,""
"image-keyboard-response",319,303675,"0.0-3.102-2.102","kn4dk4y9l3l9kc9",912,"110.csv","","null","resources/images/coin2.png","null","",NA,NA,NA,NA,""
"image-keyboard-response",320,304055,"0.0-3.103-0.103","kn4dk4y9l3l9kc9",912,"110.csv","","379","resources/trios/L4T2A3.jpg","38","restless",0.4,0.6,0.6,0.558428524478745,"true"
"image-keyboard-response",321,304457,"0.0-3.103-1.103","kn4dk4y9l3l9kc9",912,"110.csv","","null","resources/maskTrios/BT2B.jpg","null","",NA,NA,NA,NA,""
"image-keyboard-response",322,305660,"0.0-3.103-2.103","kn4dk4y9l3l9kc9",912,"110.csv","","null","resources/images/coin2.png","null","",NA,NA,NA,NA,""
"image-keyboard-response",323,306004,"0.0-3.104-0.104","kn4dk4y9l3l9kc9",912,"110.csv","","341","resources/trios/L4T1A3.jpg","38","restless",0.4,0.6,0.7,0.741617574366995,"false"
"image-keyboard-response",324,306405,"0.0-3.104-1.104","kn4dk4y9l3l9kc9",912,"110.csv","","null","resources/maskTrios/BT1B.jpg","null","",NA,NA,NA,NA,""
"image-keyboard-response",325,307608,"0.0-3.104-2.104","kn4dk4y9l3l9kc9",912,"110.csv","","null","resources/images/fishbone.png","null","",NA,NA,NA,NA,""
"image-keyboard-response",326,307862,"0.0-3.105-0.105","kn4dk4y9l3l9kc9",912,"110.csv","","253","resources/trios/L2T2A1.jpg","39","restless",0.4,0.6,0.7,0.874731238349814,"false"
"image-keyboard-response",327,308264,"0.0-3.105-1.105","kn4dk4y9l3l9kc9",912,"110.csv","","null","resources/maskTrios/BBA1.jpg","null","",NA,NA,NA,NA,""
"image-keyboard-response",328,309470,"0.0-3.105-2.105","kn4dk4y9l3l9kc9",912,"110.csv","","null","resources/images/fishbone.png","null","",NA,NA,NA,NA,""
"image-keyboard-response",329,310015,"0.0-3.106-0.106","kn4dk4y9l3l9kc9",912,"110.csv","","544","resources/trios/L4T2A1.jpg","37","restless",0.4,0.6,0.7,0.467007381752546,"false"
"image-keyboard-response",330,310422,"0.0-3.106-1.106","kn4dk4y9l3l9kc9",912,"110.csv","","null","resources/maskTrios/L4BB.jpg","null","",NA,NA,NA,NA,""
"image-keyboard-response",331,311624,"0.0-3.106-2.106","kn4dk4y9l3l9kc9",912,"110.csv","","null","resources/images/fishbone.png","null","",NA,NA,NA,NA,""
"image-keyboard-response",332,312072,"0.0-3.107-0.107","kn4dk4y9l3l9kc9",912,"110.csv","","448","resources/trios/L2T2A3.jpg","39","restless",0.4,0.6,0.7,0.176571119272886,"true"
"image-keyboard-response",333,312477,"0.0-3.107-1.107","kn4dk4y9l3l9kc9",912,"110.csv","","null","resources/maskTrios/BBA3.jpg","null","",NA,NA,NA,NA,""
"image-keyboard-response",334,313684,"0.0-3.107-2.107","kn4dk4y9l3l9kc9",912,"110.csv","","null","resources/images/coin2.png","null","",NA,NA,NA,NA,""
"image-keyboard-response",335,314057,"0.0-3.108-0.108","kn4dk4y9l3l9kc9",912,"110.csv","","373","resources/trios/L2T1A1.jpg","38","restless",0.4,0.6,0.6,0.633468315429945,"false"
"image-keyboard-response",336,314460,"0.0-3.108-1.108","kn4dk4y9l3l9kc9",912,"110.csv","","null","resources/maskTrios/BT1B.jpg","null","",NA,NA,NA,NA,""
"image-keyboard-response",337,315663,"0.0-3.108-2.108","kn4dk4y9l3l9kc9",912,"110.csv","","null","resources/images/fishbone.png","null","",NA,NA,NA,NA,""
"image-keyboard-response",338,315879,"0.0-3.109-0.109","kn4dk4y9l3l9kc9",912,"110.csv","","214","resources/trios/L4T2A1.jpg","39","restless",0.4,0.5,0.6,0.216920955293075,"true"
"image-keyboard-response",339,316280,"0.0-3.109-1.109","kn4dk4y9l3l9kc9",912,"110.csv","","null","resources/maskTrios/BBA1.jpg","null","",NA,NA,NA,NA,""
"image-keyboard-response",340,317487,"0.0-3.109-2.109","kn4dk4y9l3l9kc9",912,"110.csv","","null","resources/images/coin2.png","null","",NA,NA,NA,NA,""
"image-keyboard-response",341,317771,"0.0-3.110-0.110","kn4dk4y9l3l9kc9",912,"110.csv","","283","resources/trios/L2T1A1.jpg","39","restless",0.4,0.5,0.6,0.831798929077837,"false"
"image-keyboard-response",342,318177,"0.0-3.110-1.110","kn4dk4y9l3l9kc9",912,"110.csv","","null","resources/maskTrios/BBA1.jpg","null","",NA,NA,NA,NA,""
"image-keyboard-response",343,319380,"0.0-3.110-2.110","kn4dk4y9l3l9kc9",912,"110.csv","","null","resources/images/fishbone.png","null","",NA,NA,NA,NA,""
"image-keyboard-response",344,319709,"0.0-3.111-0.111","kn4dk4y9l3l9kc9",912,"110.csv","","328","resources/trios/L2T2A3.jpg","38","restless",0.4,0.5,0.6,0.882162555447093,"false"
"image-keyboard-response",345,320114,"0.0-3.111-1.111","kn4dk4y9l3l9kc9",912,"110.csv","","null","resources/maskTrios/BT2B.jpg","null","",NA,NA,NA,NA,""
"image-keyboard-response",346,321314,"0.0-3.111-2.111","kn4dk4y9l3l9kc9",912,"110.csv","","null","resources/images/fishbone.png","null","",NA,NA,NA,NA,""
"image-keyboard-response",347,321607,"0.0-3.112-0.112","kn4dk4y9l3l9kc9",912,"110.csv","","292","resources/trios/L4T1A1.jpg","37","restless",0.3,0.6,0.6,0.351014019615085,"false"
"image-keyboard-response",348,322013,"0.0-3.112-1.112","kn4dk4y9l3l9kc9",912,"110.csv","","null","resources/maskTrios/L4BB.jpg","null","",NA,NA,NA,NA,""
"image-keyboard-response",349,323215,"0.0-3.112-2.112","kn4dk4y9l3l9kc9",912,"110.csv","","null","resources/images/fishbone.png","null","",NA,NA,NA,NA,""
"image-keyboard-response",350,323562,"0.0-3.113-0.113","kn4dk4y9l3l9kc9",912,"110.csv","","346","resources/trios/L2T2A1.jpg","38","restless",0.3,0.6,0.6,0.256979670533401,"true"
"image-keyboard-response",351,323967,"0.0-3.113-1.113","kn4dk4y9l3l9kc9",912,"110.csv","","null","resources/maskTrios/BT2B.jpg","null","",NA,NA,NA,NA,""
"image-keyboard-response",352,325168,"0.0-3.113-2.113","kn4dk4y9l3l9kc9",912,"110.csv","","null","resources/images/coin2.png","null","",NA,NA,NA,NA,""
"image-keyboard-response",353,325294,"0.0-3.114-0.114","kn4dk4y9l3l9kc9",912,"110.csv","","126","resources/trios/L2T1A1.jpg","38","restless",0.3,0.6,0.6,0.822948012069558,"false"
"image-keyboard-response",354,325700,"0.0-3.114-1.114","kn4dk4y9l3l9kc9",912,"110.csv","","null","resources/maskTrios/BT1B.jpg","null","",NA,NA,NA,NA,""
"image-keyboard-response",355,326905,"0.0-3.114-2.114","kn4dk4y9l3l9kc9",912,"110.csv","","null","resources/images/fishbone.png","null","",NA,NA,NA,NA,""
"image-keyboard-response",356,327678,"0.0-3.115-0.115","kn4dk4y9l3l9kc9",912,"110.csv","","771","resources/trios/L4T2A1.jpg","39","restless",0.3,0.6,0.6,0.469730976506605,"true"
"image-keyboard-response",357,328084,"0.0-3.115-1.115","kn4dk4y9l3l9kc9",912,"110.csv","","null","resources/maskTrios/BBA1.jpg","null","",NA,NA,NA,NA,""
"image-keyboard-response",358,329287,"0.0-3.115-2.115","kn4dk4y9l3l9kc9",912,"110.csv","","null","resources/images/coin2.png","null","",NA,NA,NA,NA,""
"image-keyboard-response",359,329955,"0.0-3.116-0.116","kn4dk4y9l3l9kc9",912,"110.csv","","668","resources/trios/L4T1A1.jpg","39","restless",0.3,0.5,0.6,0.981830679598898,"false"
"image-keyboard-response",360,330361,"0.0-3.116-1.116","kn4dk4y9l3l9kc9",912,"110.csv","","null","resources/maskTrios/BBA1.jpg","null","",NA,NA,NA,NA,""
"image-keyboard-response",361,331563,"0.0-3.116-2.116","kn4dk4y9l3l9kc9",912,"110.csv","","null","resources/images/fishbone.png","null","",NA,NA,NA,NA,""
"image-keyboard-response",362,333958,"0.0-3.117-0.117","kn4dk4y9l3l9kc9",912,"110.csv","","2394","resources/trios/L2T2A3.jpg","38","restless",0.3,0.5,0.6,0.0351440630227524,"true"
"image-keyboard-response",363,334363,"0.0-3.117-1.117","kn4dk4y9l3l9kc9",912,"110.csv","","null","resources/maskTrios/BT2B.jpg","null","",NA,NA,NA,NA,""
"image-keyboard-response",364,335569,"0.0-3.117-2.117","kn4dk4y9l3l9kc9",912,"110.csv","","null","resources/images/coin2.png","null","",NA,NA,NA,NA,""
"image-keyboard-response",365,335946,"0.0-3.118-0.118","kn4dk4y9l3l9kc9",912,"110.csv","","375","resources/trios/L4T2A1.jpg","38","restless",0.3,0.5,0.6,0.95614928306397,"false"
"image-keyboard-response",366,336351,"0.0-3.118-1.118","kn4dk4y9l3l9kc9",912,"110.csv","","null","resources/maskTrios/BT2B.jpg","null","",NA,NA,NA,NA,""
"image-keyboard-response",367,337556,"0.0-3.118-2.118","kn4dk4y9l3l9kc9",912,"110.csv","","null","resources/images/fishbone.png","null","",NA,NA,NA,NA,""
"image-keyboard-response",368,337934,"0.0-3.119-0.119","kn4dk4y9l3l9kc9",912,"110.csv","","376","resources/trios/L4T1A3.jpg","37","restless",0.2,0.5,0.6,0.966144614389911,"false"
"image-keyboard-response",369,338340,"0.0-3.119-1.119","kn4dk4y9l3l9kc9",912,"110.csv","","null","resources/maskTrios/L4BB.jpg","null","",NA,NA,NA,NA,""
"image-keyboard-response",370,339546,"0.0-3.119-2.119","kn4dk4y9l3l9kc9",912,"110.csv","","null","resources/images/fishbone.png","null","",NA,NA,NA,NA,""
"image-keyboard-response",371,339825,"0.0-3.120-0.120","kn4dk4y9l3l9kc9",912,"110.csv","","278","resources/trios/L4T2A3.jpg","38","restless",0.2,0.5,0.6,0.609976487850794,"false"
"image-keyboard-response",372,340229,"0.0-3.120-1.120","kn4dk4y9l3l9kc9",912,"110.csv","","null","resources/maskTrios/BT2B.jpg","null","",NA,NA,NA,NA,""
"image-keyboard-response",373,341435,"0.0-3.120-2.120","kn4dk4y9l3l9kc9",912,"110.csv","","null","resources/images/fishbone.png","null","",NA,NA,NA,NA,""
"image-keyboard-response",374,341730,"0.0-3.121-0.121","kn4dk4y9l3l9kc9",912,"110.csv","","295","resources/trios/L2T1A3.jpg","39","restless",0.2,0.4,0.6,0.326118724175712,"true"
"image-keyboard-response",375,342136,"0.0-3.121-1.121","kn4dk4y9l3l9kc9",912,"110.csv","","null","resources/maskTrios/BBA3.jpg","null","",NA,NA,NA,NA,""
"image-keyboard-response",376,343340,"0.0-3.121-2.121","kn4dk4y9l3l9kc9",912,"110.csv","","null","resources/images/coin2.png","null","",NA,NA,NA,NA,""
"image-keyboard-response",377,343694,"0.0-3.122-0.122","kn4dk4y9l3l9kc9",912,"110.csv","","353","resources/trios/L2T2A3.jpg","39","restless",0.2,0.4,0.6,0.529548433767239,"true"
"image-keyboard-response",378,344096,"0.0-3.122-1.122","kn4dk4y9l3l9kc9",912,"110.csv","","null","resources/maskTrios/BBA3.jpg","null","",NA,NA,NA,NA,""
"image-keyboard-response",379,345300,"0.0-3.122-2.122","kn4dk4y9l3l9kc9",912,"110.csv","","null","resources/images/coin2.png","null","",NA,NA,NA,NA,""
"image-keyboard-response",380,346233,"0.0-3.123-0.123","kn4dk4y9l3l9kc9",912,"110.csv","","930","resources/trios/L4T1A3.jpg","39","restless",0.2,0.4,0.6,0.123406905606713,"true"
"image-keyboard-response",381,346638,"0.0-3.123-1.123","kn4dk4y9l3l9kc9",912,"110.csv","","null","resources/maskTrios/BBA3.jpg","null","",NA,NA,NA,NA,""
"image-keyboard-response",382,347839,"0.0-3.123-2.123","kn4dk4y9l3l9kc9",912,"110.csv","","null","resources/images/coin2.png","null","",NA,NA,NA,NA,""
"image-keyboard-response",383,348973,"0.0-3.124-0.124","kn4dk4y9l3l9kc9",912,"110.csv","","1133","resources/trios/L2T2A1.jpg","39","restless",0.2,0.4,0.6,0.681170418268422,"false"
"image-keyboard-response",384,349379,"0.0-3.124-1.124","kn4dk4y9l3l9kc9",912,"110.csv","","null","resources/maskTrios/BBA1.jpg","null","",NA,NA,NA,NA,""
"image-keyboard-response",385,350583,"0.0-3.124-2.124","kn4dk4y9l3l9kc9",912,"110.csv","","null","resources/images/fishbone.png","null","",NA,NA,NA,NA,""
"image-keyboard-response",386,350589,"0.0-3.125-0.125","kn4dk4y9l3l9kc9",912,"110.csv","","6","resources/trios/L4T2A3.jpg","37","restless",0.2,0.4,0.6,0.731591951979514,"false"
"image-keyboard-response",387,350994,"0.0-3.125-1.125","kn4dk4y9l3l9kc9",912,"110.csv","","null","resources/maskTrios/L4BB.jpg","null","",NA,NA,NA,NA,""
"image-keyboard-response",388,352200,"0.0-3.125-2.125","kn4dk4y9l3l9kc9",912,"110.csv","","null","resources/images/fishbone.png","null","",NA,NA,NA,NA,""
"image-keyboard-response",389,352267,"0.0-3.126-0.126","kn4dk4y9l3l9kc9",912,"110.csv","","65","resources/trios/L2T1A3.jpg","38","restless",0.2,0.4,0.6,0.206499921319081,"true"
"image-keyboard-response",390,352673,"0.0-3.126-1.126","kn4dk4y9l3l9kc9",912,"110.csv","","null","resources/maskTrios/BT1B.jpg","null","",NA,NA,NA,NA,""
"image-keyboard-response",391,353877,"0.0-3.126-2.126","kn4dk4y9l3l9kc9",912,"110.csv","","null","resources/images/coin2.png","null","",NA,NA,NA,NA,""
"image-keyboard-response",392,354212,"0.0-3.127-0.127","kn4dk4y9l3l9kc9",912,"110.csv","","335","resources/trios/L2T1A1.jpg","38","restless",0.2,0.4,0.6,0.7652737900707,"false"
"image-keyboard-response",393,354615,"0.0-3.127-1.127","kn4dk4y9l3l9kc9",912,"110.csv","","null","resources/maskTrios/BT1B.jpg","null","",NA,NA,NA,NA,""
"image-keyboard-response",394,355819,"0.0-3.127-2.127","kn4dk4y9l3l9kc9",912,"110.csv","","null","resources/images/fishbone.png","null","",NA,NA,NA,NA,""
"image-keyboard-response",395,357053,"0.0-3.128-0.128","kn4dk4y9l3l9kc9",912,"110.csv","","1233","resources/trios/L4T1A3.jpg","37","restless",0.2,0.4,0.6,0.602745265579758,"false"
"image-keyboard-response",396,357456,"0.0-3.128-1.128","kn4dk4y9l3l9kc9",912,"110.csv","","null","resources/maskTrios/L4BB.jpg","null","",NA,NA,NA,NA,""
"image-keyboard-response",397,358659,"0.0-3.128-2.128","kn4dk4y9l3l9kc9",912,"110.csv","","null","resources/images/fishbone.png","null","",NA,NA,NA,NA,""
"image-keyboard-response",398,358994,"0.0-3.129-0.129","kn4dk4y9l3l9kc9",912,"110.csv","","334","resources/trios/L4T1A1.jpg","38","restless",0.2,0.4,0.6,0.124813830640511,"true"
"image-keyboard-response",399,359398,"0.0-3.129-1.129","kn4dk4y9l3l9kc9",912,"110.csv","","null","resources/maskTrios/BT1B.jpg","null","",NA,NA,NA,NA,""
"image-keyboard-response",400,360602,"0.0-3.129-2.129","kn4dk4y9l3l9kc9",912,"110.csv","","null","resources/images/coin2.png","null","",NA,NA,NA,NA,""
"image-keyboard-response",401,360796,"0.0-3.130-0.130","kn4dk4y9l3l9kc9",912,"110.csv","","193","resources/trios/L2T1A3.jpg","38","restless",0.2,0.4,0.5,0.86940544882867,"false"
"image-keyboard-response",402,361202,"0.0-3.130-1.130","kn4dk4y9l3l9kc9",912,"110.csv","","null","resources/maskTrios/BT1B.jpg","null","",NA,NA,NA,NA,""
"image-keyboard-response",403,362407,"0.0-3.130-2.130","kn4dk4y9l3l9kc9",912,"110.csv","","null","resources/images/fishbone.png","null","",NA,NA,NA,NA,""
"image-keyboard-response",404,363169,"0.0-3.131-0.131","kn4dk4y9l3l9kc9",912,"110.csv","","761","resources/trios/L2T2A1.jpg","39","restless",0.2,0.4,0.4,0.315860115102206,"true"
"image-keyboard-response",405,363573,"0.0-3.131-1.131","kn4dk4y9l3l9kc9",912,"110.csv","","null","resources/maskTrios/BBA1.jpg","null","",NA,NA,NA,NA,""
"image-keyboard-response",406,364779,"0.0-3.131-2.131","kn4dk4y9l3l9kc9",912,"110.csv","","null","resources/images/coin2.png","null","",NA,NA,NA,NA,""
"image-keyboard-response",407,365336,"0.0-3.132-0.132","kn4dk4y9l3l9kc9",912,"110.csv","","556","resources/trios/L2T1A3.jpg","39","restless",0.2,0.3,0.4,0.623175653221531,"false"
"image-keyboard-response",408,365742,"0.0-3.132-1.132","kn4dk4y9l3l9kc9",912,"110.csv","","null","resources/maskTrios/BBA3.jpg","null","",NA,NA,NA,NA,""
"image-keyboard-response",409,366945,"0.0-3.132-2.132","kn4dk4y9l3l9kc9",912,"110.csv","","null","resources/images/fishbone.png","null","",NA,NA,NA,NA,""
"image-keyboard-response",410,367213,"0.0-3.133-0.133","kn4dk4y9l3l9kc9",912,"110.csv","","266","resources/trios/L2T2A3.jpg","38","restless",0.2,0.3,0.4,0.697581396595121,"false"
"image-keyboard-response",411,367619,"0.0-3.133-1.133","kn4dk4y9l3l9kc9",912,"110.csv","","null","resources/maskTrios/BT2B.jpg","null","",NA,NA,NA,NA,""
"image-keyboard-response",412,368822,"0.0-3.133-2.133","kn4dk4y9l3l9kc9",912,"110.csv","","null","resources/images/fishbone.png","null","",NA,NA,NA,NA,""
"image-keyboard-response",413,371349,"0.0-3.134-0.134","kn4dk4y9l3l9kc9",912,"110.csv","","2524","resources/trios/L4T1A1.jpg","38","restless",0.2,0.3,0.4,0.642289242671702,"false"
"image-keyboard-response",414,371755,"0.0-3.134-1.134","kn4dk4y9l3l9kc9",912,"110.csv","","null","resources/maskTrios/BT1B.jpg","null","",NA,NA,NA,NA,""
"image-keyboard-response",415,372957,"0.0-3.134-2.134","kn4dk4y9l3l9kc9",912,"110.csv","","null","resources/images/fishbone.png","null","",NA,NA,NA,NA,""
"image-keyboard-response",416,374629,"0.0-3.135-0.135","kn4dk4y9l3l9kc9",912,"110.csv","","1671","resources/trios/L2T2A1.jpg","39","restless",0.3,0.3,0.4,0.920262096181749,"false"
"image-keyboard-response",417,375035,"0.0-3.135-1.135","kn4dk4y9l3l9kc9",912,"110.csv","","null","resources/maskTrios/BBA1.jpg","null","",NA,NA,NA,NA,""
"image-keyboard-response",418,376238,"0.0-3.135-2.135","kn4dk4y9l3l9kc9",912,"110.csv","","null","resources/images/fishbone.png","null","",NA,NA,NA,NA,""
"image-keyboard-response",419,376787,"0.0-3.136-0.136","kn4dk4y9l3l9kc9",912,"110.csv","","548","resources/trios/L2T2A3.jpg","37","restless",0.3,0.3,0.4,0.741036372897195,"false"
"image-keyboard-response",420,377192,"0.0-3.136-1.136","kn4dk4y9l3l9kc9",912,"110.csv","","null","resources/maskTrios/L2BB.jpg","null","",NA,NA,NA,NA,""
"image-keyboard-response",421,378398,"0.0-3.136-2.136","kn4dk4y9l3l9kc9",912,"110.csv","","null","resources/images/fishbone.png","null","",NA,NA,NA,NA,""
"image-keyboard-response",422,379587,"0.0-3.137-0.137","kn4dk4y9l3l9kc9",912,"110.csv","","1188","resources/trios/L4T1A3.jpg","38","restless",0.3,0.3,0.4,0.246076895517498,"true"
"image-keyboard-response",423,379992,"0.0-3.137-1.137","kn4dk4y9l3l9kc9",912,"110.csv","","null","resources/maskTrios/BT1B.jpg","null","",NA,NA,NA,NA,""
"image-keyboard-response",424,381199,"0.0-3.137-2.137","kn4dk4y9l3l9kc9",912,"110.csv","","null","resources/images/coin2.png","null","",NA,NA,NA,NA,""
"image-keyboard-response",425,383738,"0.0-3.138-0.138","kn4dk4y9l3l9kc9",912,"110.csv","","2537","resources/trios/L2T1A3.jpg","38","restless",0.3,0.3,0.5,0.381244438036703,"false"
"image-keyboard-response",426,384139,"0.0-3.138-1.138","kn4dk4y9l3l9kc9",912,"110.csv","","null","resources/maskTrios/BT1B.jpg","null","",NA,NA,NA,NA,""
"image-keyboard-response",427,385345,"0.0-3.138-2.138","kn4dk4y9l3l9kc9",912,"110.csv","","null","resources/images/fishbone.png","null","",NA,NA,NA,NA,""
"image-keyboard-response",428,385429,"0.0-3.139-0.139","kn4dk4y9l3l9kc9",912,"110.csv","","84","resources/trios/L4T1A3.jpg","39","restless",0.3,0.3,0.6,0.336141538629424,"true"
"image-keyboard-response",429,385832,"0.0-3.139-1.139","kn4dk4y9l3l9kc9",912,"110.csv","","null","resources/maskTrios/BBA3.jpg","null","",NA,NA,NA,NA,""
"image-keyboard-response",430,387039,"0.0-3.139-2.139","kn4dk4y9l3l9kc9",912,"110.csv","","null","resources/images/coin2.png","null","",NA,NA,NA,NA,""
"image-keyboard-response",431,387709,"0.0-3.140-0.140","kn4dk4y9l3l9kc9",912,"110.csv","","669","resources/trios/L2T1A3.jpg","39","restless",0.3,0.3,0.6,0.824760900341012,"false"
"image-keyboard-response",432,388114,"0.0-3.140-1.140","kn4dk4y9l3l9kc9",912,"110.csv","","null","resources/maskTrios/BBA3.jpg","null","",NA,NA,NA,NA,""
"image-keyboard-response",433,389315,"0.0-3.140-2.140","kn4dk4y9l3l9kc9",912,"110.csv","","null","resources/images/fishbone.png","null","",NA,NA,NA,NA,""
"image-keyboard-response",434,389726,"0.0-3.141-0.141","kn4dk4y9l3l9kc9",912,"110.csv","","409","resources/trios/L2T2A3.jpg","38","restless",0.3,0.3,0.6,0.779148378525282,"false"
"image-keyboard-response",435,390128,"0.0-3.141-1.141","kn4dk4y9l3l9kc9",912,"110.csv","","null","resources/maskTrios/BT2B.jpg","null","",NA,NA,NA,NA,""
"image-keyboard-response",436,391335,"0.0-3.141-2.141","kn4dk4y9l3l9kc9",912,"110.csv","","null","resources/images/fishbone.png","null","",NA,NA,NA,NA,""
"image-keyboard-response",437,392308,"0.0-3.142-0.142","kn4dk4y9l3l9kc9",912,"110.csv","","972","resources/trios/L4T2A1.jpg","37","restless",0.3,0.3,0.7,0.715740204425548,"false"
"image-keyboard-response",438,392712,"0.0-3.142-1.142","kn4dk4y9l3l9kc9",912,"110.csv","","null","resources/maskTrios/L4BB.jpg","null","",NA,NA,NA,NA,""
"image-keyboard-response",439,393917,"0.0-3.142-2.142","kn4dk4y9l3l9kc9",912,"110.csv","","null","resources/images/fishbone.png","null","",NA,NA,NA,NA,""
"image-keyboard-response",440,394222,"0.0-3.143-0.143","kn4dk4y9l3l9kc9",912,"110.csv","","303","resources/trios/L4T2A3.jpg","38","restless",0.3,0.3,0.8,0.341015852674031,"false"
"image-keyboard-response",441,394629,"0.0-3.143-1.143","kn4dk4y9l3l9kc9",912,"110.csv","","null","resources/maskTrios/BT2B.jpg","null","",NA,NA,NA,NA,""
"image-keyboard-response",442,395831,"0.0-3.143-2.143","kn4dk4y9l3l9kc9",912,"110.csv","","null","resources/images/fishbone.png","null","",NA,NA,NA,NA,""
"image-keyboard-response",443,396275,"0.0-3.144-0.144","kn4dk4y9l3l9kc9",912,"110.csv","","442","resources/trios/L4T2A1.jpg","39","restless",0.3,0.3,0.8,0.943764849508126,"false"
"image-keyboard-response",444,396681,"0.0-3.144-1.144","kn4dk4y9l3l9kc9",912,"110.csv","","null","resources/maskTrios/BBA1.jpg","null","",NA,NA,NA,NA,""
"image-keyboard-response",445,397884,"0.0-3.144-2.144","kn4dk4y9l3l9kc9",912,"110.csv","","null","resources/images/fishbone.png","null","",NA,NA,NA,NA,""
"image-keyboard-response",446,398189,"0.0-3.145-0.145","kn4dk4y9l3l9kc9",912,"110.csv","","305","resources/trios/L4T1A3.jpg","37","restless",0.3,0.3,0.8,0.966434771816754,"false"
"image-keyboard-response",447,398595,"0.0-3.145-1.145","kn4dk4y9l3l9kc9",912,"110.csv","","null","resources/maskTrios/L4BB.jpg","null","",NA,NA,NA,NA,""
"image-keyboard-response",448,399801,"0.0-3.145-2.145","kn4dk4y9l3l9kc9",912,"110.csv","","null","resources/images/fishbone.png","null","",NA,NA,NA,NA,""
"image-keyboard-response",449,401770,"0.0-3.146-0.146","kn4dk4y9l3l9kc9",912,"110.csv","","1968","resources/trios/L4T2A1.jpg","38","restless",0.2,0.3,0.8,0.853044000170812,"false"
"image-keyboard-response",450,402176,"0.0-3.146-1.146","kn4dk4y9l3l9kc9",912,"110.csv","","null","resources/maskTrios/BT2B.jpg","null","",NA,NA,NA,NA,""
"image-keyboard-response",451,403382,"0.0-3.146-2.146","kn4dk4y9l3l9kc9",912,"110.csv","","null","resources/images/fishbone.png","null","",NA,NA,NA,NA,""
"image-keyboard-response",452,403800,"0.0-3.147-0.147","kn4dk4y9l3l9kc9",912,"110.csv","","416","resources/trios/L2T1A3.jpg","39","restless",0.2,0.3,0.7,0.205855418314537,"true"
"image-keyboard-response",453,404205,"0.0-3.147-1.147","kn4dk4y9l3l9kc9",912,"110.csv","","null","resources/maskTrios/BBA3.jpg","null","",NA,NA,NA,NA,""
"image-keyboard-response",454,405410,"0.0-3.147-2.147","kn4dk4y9l3l9kc9",912,"110.csv","","null","resources/images/coin2.png","null","",NA,NA,NA,NA,""
"image-keyboard-response",455,405699,"0.0-3.148-0.148","kn4dk4y9l3l9kc9",912,"110.csv","","288","resources/trios/L4T2A1.jpg","39","restless",0.2,0.3,0.7,0.278537180071212,"true"
"image-keyboard-response",456,406105,"0.0-3.148-1.148","kn4dk4y9l3l9kc9",912,"110.csv","","null","resources/maskTrios/BBA1.jpg","null","",NA,NA,NA,NA,""
"image-keyboard-response",457,407310,"0.0-3.148-2.148","kn4dk4y9l3l9kc9",912,"110.csv","","null","resources/images/coin2.png","null","",NA,NA,NA,NA,""
"image-keyboard-response",458,407604,"0.0-3.149-0.149","kn4dk4y9l3l9kc9",912,"110.csv","","293","resources/trios/L2T1A1.jpg","39","restless",0.1,0.3,0.7,0.482454250775943,"true"
"image-keyboard-response",459,408007,"0.0-3.149-1.149","kn4dk4y9l3l9kc9",912,"110.csv","","null","resources/maskTrios/BBA1.jpg","null","",NA,NA,NA,NA,""
"image-keyboard-response",460,409211,"0.0-3.149-2.149","kn4dk4y9l3l9kc9",912,"110.csv","","null","resources/images/coin2.png","null","",NA,NA,NA,NA,""
"image-keyboard-response",461,409941,"0.0-3.150-0.150","kn4dk4y9l3l9kc9",912,"110.csv","","728","resources/trios/L2T1A3.jpg","39","restless",0.1,0.3,0.7,0.725355845935433,"false"
"image-keyboard-response",462,410344,"0.0-3.150-1.150","kn4dk4y9l3l9kc9",912,"110.csv","","null","resources/maskTrios/BBA3.jpg","null","",NA,NA,NA,NA,""
"image-keyboard-response",463,411550,"0.0-3.150-2.150","kn4dk4y9l3l9kc9",912,"110.csv","","null","resources/images/fishbone.png","null","",NA,NA,NA,NA,""
"image-keyboard-response",464,411966,"0.0-3.151-0.151","kn4dk4y9l3l9kc9",912,"110.csv","","415","resources/trios/L4T2A1.jpg","38","restless",0.1,0.3,0.7,0.386608775035932,"false"
"image-keyboard-response",465,412372,"0.0-3.151-1.151","kn4dk4y9l3l9kc9",912,"110.csv","","null","resources/maskTrios/BT2B.jpg","null","",NA,NA,NA,NA,""
"image-keyboard-response",466,413574,"0.0-3.151-2.151","kn4dk4y9l3l9kc9",912,"110.csv","","null","resources/images/fishbone.png","null","",NA,NA,NA,NA,""
"image-keyboard-response",467,414276,"0.0-3.152-0.152","kn4dk4y9l3l9kc9",912,"110.csv","","700","resources/trios/L4T1A3.jpg","37","restless",0.1,0.3,0.7,0.533925854205032,"false"
"image-keyboard-response",468,414683,"0.0-3.152-1.152","kn4dk4y9l3l9kc9",912,"110.csv","","null","resources/maskTrios/L4BB.jpg","null","",NA,NA,NA,NA,""
"image-keyboard-response",469,415888,"0.0-3.152-2.152","kn4dk4y9l3l9kc9",912,"110.csv","","null","resources/images/fishbone.png","null","",NA,NA,NA,NA,""
"image-keyboard-response",470,416169,"0.0-3.153-0.153","kn4dk4y9l3l9kc9",912,"110.csv","","279","resources/trios/L4T2A3.jpg","38","restless",0.1,0.3,0.7,0.771089437254403,"false"
"image-keyboard-response",471,416572,"0.0-3.153-1.153","kn4dk4y9l3l9kc9",912,"110.csv","","null","resources/maskTrios/BT2B.jpg","null","",NA,NA,NA,NA,""
"image-keyboard-response",472,417778,"0.0-3.153-2.153","kn4dk4y9l3l9kc9",912,"110.csv","","null","resources/images/fishbone.png","null","",NA,NA,NA,NA,""
"image-keyboard-response",473,418058,"0.0-3.154-0.154","kn4dk4y9l3l9kc9",912,"110.csv","","279","resources/trios/L4T2A1.jpg","39","restless",0.1,0.3,0.6,0.00543663233506808,"true"
"image-keyboard-response",474,418464,"0.0-3.154-1.154","kn4dk4y9l3l9kc9",912,"110.csv","","null","resources/maskTrios/BBA1.jpg","null","",NA,NA,NA,NA,""
"image-keyboard-response",475,419667,"0.0-3.154-2.154","kn4dk4y9l3l9kc9",912,"110.csv","","null","resources/images/coin2.png","null","",NA,NA,NA,NA,""
"image-keyboard-response",476,420039,"0.0-3.155-0.155","kn4dk4y9l3l9kc9",912,"110.csv","","370","resources/trios/L2T1A3.jpg","39","restless",0.1,0.3,0.7,0.152917746248789,"true"
"image-keyboard-response",477,420444,"0.0-3.155-1.155","kn4dk4y9l3l9kc9",912,"110.csv","","null","resources/maskTrios/BBA3.jpg","null","",NA,NA,NA,NA,""
"image-keyboard-response",478,421648,"0.0-3.155-2.155","kn4dk4y9l3l9kc9",912,"110.csv","","null","resources/images/coin2.png","null","",NA,NA,NA,NA,""
"image-keyboard-response",479,422009,"0.0-3.156-0.156","kn4dk4y9l3l9kc9",912,"110.csv","","359","resources/trios/L4T2A3.jpg","39","restless",0.1,0.3,0.8,0.917756873961789,"false"
"image-keyboard-response",480,422415,"0.0-3.156-1.156","kn4dk4y9l3l9kc9",912,"110.csv","","null","resources/maskTrios/BBA3.jpg","null","",NA,NA,NA,NA,""
"image-keyboard-response",481,423621,"0.0-3.156-2.156","kn4dk4y9l3l9kc9",912,"110.csv","","null","resources/images/fishbone.png","null","",NA,NA,NA,NA,""
"image-keyboard-response",482,423805,"0.0-3.157-0.157","kn4dk4y9l3l9kc9",912,"110.csv","","183","resources/trios/L4T2A3.jpg","37","restless",0.1,0.3,0.8,0.510416188634172,"false"
"image-keyboard-response",483,424211,"0.0-3.157-1.157","kn4dk4y9l3l9kc9",912,"110.csv","","null","resources/maskTrios/L4BB.jpg","null","",NA,NA,NA,NA,""
"image-keyboard-response",484,425415,"0.0-3.157-2.157","kn4dk4y9l3l9kc9",912,"110.csv","","null","resources/images/fishbone.png","null","",NA,NA,NA,NA,""
"image-keyboard-response",485,426010,"0.0-3.158-0.158","kn4dk4y9l3l9kc9",912,"110.csv","","593","resources/trios/L2T2A3.jpg","38","restless",0.1,0.3,0.8,0.591058230864964,"false"
"image-keyboard-response",486,426415,"0.0-3.158-1.158","kn4dk4y9l3l9kc9",912,"110.csv","","null","resources/maskTrios/BT2B.jpg","null","",NA,NA,NA,NA,""
"image-keyboard-response",487,427618,"0.0-3.158-2.158","kn4dk4y9l3l9kc9",912,"110.csv","","null","resources/images/fishbone.png","null","",NA,NA,NA,NA,""
"image-keyboard-response",488,427977,"0.0-3.159-0.159","kn4dk4y9l3l9kc9",912,"110.csv","","358","resources/trios/L4T2A1.jpg","39","restless",0.1,0.3,0.8,0.474034518834965,"true"
"image-keyboard-response",489,428382,"0.0-3.159-1.159","kn4dk4y9l3l9kc9",912,"110.csv","","null","resources/maskTrios/BBA1.jpg","null","",NA,NA,NA,NA,""
"image-keyboard-response",490,429588,"0.0-3.159-2.159","kn4dk4y9l3l9kc9",912,"110.csv","","null","resources/images/coin2.png","null","",NA,NA,NA,NA,""
"image-keyboard-response",491,429893,"0.0-3.160-0.160","kn4dk4y9l3l9kc9",912,"110.csv","","304","resources/trios/L4T2A1.jpg","39","restless",0.1,0.3,0.7,0.482486984263652,"true"
"image-keyboard-response",492,430297,"0.0-3.160-1.160","kn4dk4y9l3l9kc9",912,"110.csv","","null","resources/maskTrios/BBA1.jpg","null","",NA,NA,NA,NA,""
"image-keyboard-response",493,431503,"0.0-3.160-2.160","kn4dk4y9l3l9kc9",912,"110.csv","","null","resources/images/coin2.png","null","",NA,NA,NA,NA,""
"image-keyboard-response",494,431926,"0.0-3.161-0.161","kn4dk4y9l3l9kc9",912,"110.csv","","421","resources/trios/L4T1A1.jpg","39","restless",0.1,0.3,0.7,0.796353034201697,"false"
"image-keyboard-response",495,432332,"0.0-3.161-1.161","kn4dk4y9l3l9kc9",912,"110.csv","","null","resources/maskTrios/BBA1.jpg","null","",NA,NA,NA,NA,""
"image-keyboard-response",496,433538,"0.0-3.161-2.161","kn4dk4y9l3l9kc9",912,"110.csv","","null","resources/images/fishbone.png","null","",NA,NA,NA,NA,""
"image-keyboard-response",497,437604,"0.0-3.162-0.162","kn4dk4y9l3l9kc9",912,"110.csv","","4065","resources/trios/L4T1A1.jpg","38","restless",0.1,0.3,0.7,0.224930099864348,"true"
"image-keyboard-response",498,438009,"0.0-3.162-1.162","kn4dk4y9l3l9kc9",912,"110.csv","","null","resources/maskTrios/BT1B.jpg","null","",NA,NA,NA,NA,""
"image-keyboard-response",499,439211,"0.0-3.162-2.162","kn4dk4y9l3l9kc9",912,"110.csv","","null","resources/images/coin2.png","null","",NA,NA,NA,NA,""
"image-keyboard-response",500,439583,"0.0-3.163-0.163","kn4dk4y9l3l9kc9",912,"110.csv","","372","resources/trios/L2T2A3.jpg","38","restless",0.1,0.3,0.7,0.77959460344802,"false"
"image-keyboard-response",501,439987,"0.0-3.163-1.163","kn4dk4y9l3l9kc9",912,"110.csv","","null","resources/maskTrios/BT2B.jpg","null","",NA,NA,NA,NA,""
"image-keyboard-response",502,441194,"0.0-3.163-2.163","kn4dk4y9l3l9kc9",912,"110.csv","","null","resources/images/fishbone.png","null","",NA,NA,NA,NA,""
"image-keyboard-response",503,441506,"0.0-3.164-0.164","kn4dk4y9l3l9kc9",912,"110.csv","","312","resources/trios/L4T2A1.jpg","37","restless",0.1,0.3,0.7,0.906251027439763,"false"
"image-keyboard-response",504,441910,"0.0-3.164-1.164","kn4dk4y9l3l9kc9",912,"110.csv","","null","resources/maskTrios/L4BB.jpg","null","",NA,NA,NA,NA,""
"image-keyboard-response",505,443115,"0.0-3.164-2.164","kn4dk4y9l3l9kc9",912,"110.csv","","null","resources/images/fishbone.png","null","",NA,NA,NA,NA,""
"image-keyboard-response",506,443459,"0.0-3.165-0.165","kn4dk4y9l3l9kc9",912,"110.csv","","342","resources/trios/L4T1A3.jpg","38","restless",0.1,0.3,0.7,0.271755692814205,"true"
"image-keyboard-response",507,443865,"0.0-3.165-1.165","kn4dk4y9l3l9kc9",912,"110.csv","","null","resources/maskTrios/BT1B.jpg","null","",NA,NA,NA,NA,""
"image-keyboard-response",508,445070,"0.0-3.165-2.165","kn4dk4y9l3l9kc9",912,"110.csv","","null","resources/images/coin2.png","null","",NA,NA,NA,NA,""
"image-keyboard-response",509,445706,"0.0-3.166-0.166","kn4dk4y9l3l9kc9",912,"110.csv","","635","resources/trios/L2T2A1.jpg","38","restless",0.1,0.3,0.7,0.454553754459693,"false"
"image-keyboard-response",510,446110,"0.0-3.166-1.166","kn4dk4y9l3l9kc9",912,"110.csv","","null","resources/maskTrios/BT2B.jpg","null","",NA,NA,NA,NA,""
"image-keyboard-response",511,447314,"0.0-3.166-2.166","kn4dk4y9l3l9kc9",912,"110.csv","","null","resources/images/fishbone.png","null","",NA,NA,NA,NA,""
"image-keyboard-response",512,447856,"0.0-3.167-0.167","kn4dk4y9l3l9kc9",912,"110.csv","","540","resources/trios/L4T1A1.jpg","39","restless",0.1,0.3,0.7,0.782992947831698,"false"
"image-keyboard-response",513,448260,"0.0-3.167-1.167","kn4dk4y9l3l9kc9",912,"110.csv","","null","resources/maskTrios/BBA1.jpg","null","",NA,NA,NA,NA,""
"image-keyboard-response",514,449466,"0.0-3.167-2.167","kn4dk4y9l3l9kc9",912,"110.csv","","null","resources/images/fishbone.png","null","",NA,NA,NA,NA,""
"image-keyboard-response",515,449739,"0.0-3.168-0.168","kn4dk4y9l3l9kc9",912,"110.csv","","272","resources/trios/L4T1A3.jpg","37","restless",0.1,0.3,0.7,0.169173524491319,"false"
"image-keyboard-response",516,450143,"0.0-3.168-1.168","kn4dk4y9l3l9kc9",912,"110.csv","","null","resources/maskTrios/L4BB.jpg","null","",NA,NA,NA,NA,""
"image-keyboard-response",517,451348,"0.0-3.168-2.168","kn4dk4y9l3l9kc9",912,"110.csv","","null","resources/images/fishbone.png","null","",NA,NA,NA,NA,""
"image-keyboard-response",518,453026,"0.0-3.169-0.169","kn4dk4y9l3l9kc9",912,"110.csv","","1677","resources/trios/L4T1A3.jpg","38","restless",0.1,0.3,0.7,0.219440780934435,"true"
"image-keyboard-response",519,453429,"0.0-3.169-1.169","kn4dk4y9l3l9kc9",912,"110.csv","","null","resources/maskTrios/BT1B.jpg","null","",NA,NA,NA,NA,""
"image-keyboard-response",520,454630,"0.0-3.169-2.169","kn4dk4y9l3l9kc9",912,"110.csv","","null","resources/images/coin2.png","null","",NA,NA,NA,NA,""
"image-keyboard-response",521,455406,"0.0-3.170-0.170","kn4dk4y9l3l9kc9",912,"110.csv","","774","resources/trios/L4T1A1.jpg","38","restless",0.1,0.3,0.7,0.563665732572778,"false"
"image-keyboard-response",522,455810,"0.0-3.170-1.170","kn4dk4y9l3l9kc9",912,"110.csv","","null","resources/maskTrios/BT1B.jpg","null","",NA,NA,NA,NA,""
"image-keyboard-response",523,457011,"0.0-3.170-2.170","kn4dk4y9l3l9kc9",912,"110.csv","","null","resources/images/fishbone.png","null","",NA,NA,NA,NA,""
"image-keyboard-response",524,457860,"0.0-3.171-0.171","kn4dk4y9l3l9kc9",912,"110.csv","","847","resources/trios/L4T2A3.jpg","39","restless",0.2,0.3,0.7,0.574410660986583,"true"
"image-keyboard-response",525,458264,"0.0-3.171-1.171","kn4dk4y9l3l9kc9",912,"110.csv","","null","resources/maskTrios/BBA3.jpg","null","",NA,NA,NA,NA,""
"image-keyboard-response",526,459465,"0.0-3.171-2.171","kn4dk4y9l3l9kc9",912,"110.csv","","null","resources/images/coin2.png","null","",NA,NA,NA,NA,""
"image-keyboard-response",527,460976,"0.0-3.172-0.172","kn4dk4y9l3l9kc9",912,"110.csv","","1509","resources/trios/L2T2A1.jpg","39","restless",0.2,0.3,0.7,0.262620711330794,"true"
"image-keyboard-response",528,461382,"0.0-3.172-1.172","kn4dk4y9l3l9kc9",912,"110.csv","","null","resources/maskTrios/BBA1.jpg","null","",NA,NA,NA,NA,""
"image-keyboard-response",529,462587,"0.0-3.172-2.172","kn4dk4y9l3l9kc9",912,"110.csv","","null","resources/images/coin2.png","null","",NA,NA,NA,NA,""
"image-keyboard-response",530,463149,"0.0-3.173-0.173","kn4dk4y9l3l9kc9",912,"110.csv","","562","resources/trios/L4T1A1.jpg","39","restless",0.2,0.3,0.6,0.426608914290002,"true"
"image-keyboard-response",531,463553,"0.0-3.173-1.173","kn4dk4y9l3l9kc9",912,"110.csv","","null","resources/maskTrios/BBA1.jpg","null","",NA,NA,NA,NA,""
"image-keyboard-response",532,464760,"0.0-3.173-2.173","kn4dk4y9l3l9kc9",912,"110.csv","","null","resources/images/coin2.png","null","",NA,NA,NA,NA,""
"image-keyboard-response",533,465430,"0.0-3.174-0.174","kn4dk4y9l3l9kc9",912,"110.csv","","670","resources/trios/L4T1A1.jpg","39","restless",0.2,0.3,0.6,0.264293710186536,"true"
"image-keyboard-response",534,465836,"0.0-3.174-1.174","kn4dk4y9l3l9kc9",912,"110.csv","","null","resources/maskTrios/BBA1.jpg","null","",NA,NA,NA,NA,""
"image-keyboard-response",535,467038,"0.0-3.174-2.174","kn4dk4y9l3l9kc9",912,"110.csv","","null","resources/images/coin2.png","null","",NA,NA,NA,NA,""
"image-keyboard-response",536,467961,"0.0-3.175-0.175","kn4dk4y9l3l9kc9",912,"110.csv","","922","resources/trios/L4T2A1.jpg","39","restless",0.2,0.3,0.6,0.245610399075854,"true"
"image-keyboard-response",537,468365,"0.0-3.175-1.175","kn4dk4y9l3l9kc9",912,"110.csv","","null","resources/maskTrios/BBA1.jpg","null","",NA,NA,NA,NA,""
"image-keyboard-response",538,469571,"0.0-3.175-2.175","kn4dk4y9l3l9kc9",912,"110.csv","","null","resources/images/coin2.png","null","",NA,NA,NA,NA,""
"image-keyboard-response",539,469881,"0.0-3.176-0.176","kn4dk4y9l3l9kc9",912,"110.csv","","309","resources/trios/L4T1A1.jpg","39","restless",0.2,0.3,0.6,0.0279326498891814,"true"
"image-keyboard-response",540,470287,"0.0-3.176-1.176","kn4dk4y9l3l9kc9",912,"110.csv","","null","resources/maskTrios/BBA1.jpg","null","",NA,NA,NA,NA,""
"image-keyboard-response",541,471492,"0.0-3.176-2.176","kn4dk4y9l3l9kc9",912,"110.csv","","null","resources/images/coin2.png","null","",NA,NA,NA,NA,""
"image-keyboard-response",542,471862,"0.0-3.177-0.177","kn4dk4y9l3l9kc9",912,"110.csv","","369","resources/trios/L4T2A3.jpg","39","restless",0.2,0.3,0.6,0.787366547476363,"false"
"image-keyboard-response",543,472267,"0.0-3.177-1.177","kn4dk4y9l3l9kc9",912,"110.csv","","null","resources/maskTrios/BBA3.jpg","null","",NA,NA,NA,NA,""
"image-keyboard-response",544,473473,"0.0-3.177-2.177","kn4dk4y9l3l9kc9",912,"110.csv","","null","resources/images/fishbone.png","null","",NA,NA,NA,NA,""
"image-keyboard-response",545,473748,"0.0-3.178-0.178","kn4dk4y9l3l9kc9",912,"110.csv","","275","resources/trios/L2T1A1.jpg","38","restless",0.2,0.4,0.6,0.0213521968591056,"true"
"image-keyboard-response",546,474153,"0.0-3.178-1.178","kn4dk4y9l3l9kc9",912,"110.csv","","null","resources/maskTrios/BT1B.jpg","null","",NA,NA,NA,NA,""
"image-keyboard-response",547,475359,"0.0-3.178-2.178","kn4dk4y9l3l9kc9",912,"110.csv","","null","resources/images/coin2.png","null","",NA,NA,NA,NA,""
"image-keyboard-response",548,475809,"0.0-3.179-0.179","kn4dk4y9l3l9kc9",912,"110.csv","","450","resources/trios/L2T1A1.jpg","38","restless",0.3,0.5,0.6,0.195287900614918,"true"
"image-keyboard-response",549,476215,"0.0-3.179-1.179","kn4dk4y9l3l9kc9",912,"110.csv","","null","resources/maskTrios/BT1B.jpg","null","",NA,NA,NA,NA,""
"image-keyboard-response",550,477419,"0.0-3.179-2.179","kn4dk4y9l3l9kc9",912,"110.csv","","null","resources/images/coin2.png","null","",NA,NA,NA,NA,""
"image-keyboard-response",551,477814,"0.0-3.180-0.180","kn4dk4y9l3l9kc9",912,"110.csv","","393","resources/trios/L4T2A3.jpg","38","restless",0.3,0.5,0.6,0.154926516817389,"true"
"image-keyboard-response",552,478220,"0.0-3.180-1.180","kn4dk4y9l3l9kc9",912,"110.csv","","null","resources/maskTrios/BT2B.jpg","null","",NA,NA,NA,NA,""
"image-keyboard-response",553,479425,"0.0-3.180-2.180","kn4dk4y9l3l9kc9",912,"110.csv","","null","resources/images/coin2.png","null","",NA,NA,NA,NA,""
"image-keyboard-response",554,479829,"0.0-3.181-0.181","kn4dk4y9l3l9kc9",912,"110.csv","","401","resources/trios/L4T1A3.jpg","38","restless",0.3,0.5,0.6,0.99264084836753,"false"
"image-keyboard-response",555,480231,"0.0-3.181-1.181","kn4dk4y9l3l9kc9",912,"110.csv","","null","resources/maskTrios/BT1B.jpg","null","",NA,NA,NA,NA,""
"image-keyboard-response",556,481436,"0.0-3.181-2.181","kn4dk4y9l3l9kc9",912,"110.csv","","null","resources/images/fishbone.png","null","",NA,NA,NA,NA,""
"image-keyboard-response",557,481996,"0.0-3.182-0.182","kn4dk4y9l3l9kc9",912,"110.csv","","558","resources/trios/L2T1A1.jpg","37","restless",0.4,0.6,0.6,0.92767419968382,"false"
"image-keyboard-response",558,482402,"0.0-3.182-1.182","kn4dk4y9l3l9kc9",912,"110.csv","","null","resources/maskTrios/L2BB.jpg","null","",NA,NA,NA,NA,""
"image-keyboard-response",559,483607,"0.0-3.182-2.182","kn4dk4y9l3l9kc9",912,"110.csv","","null","resources/images/fishbone.png","null","",NA,NA,NA,NA,""
"image-keyboard-response",560,483902,"0.0-3.183-0.183","kn4dk4y9l3l9kc9",912,"110.csv","","293","resources/trios/L2T2A3.jpg","38","restless",0.4,0.6,0.6,0.367352444412569,"true"
"image-keyboard-response",561,484308,"0.0-3.183-1.183","kn4dk4y9l3l9kc9",912,"110.csv","","null","resources/maskTrios/BT2B.jpg","null","",NA,NA,NA,NA,""
"image-keyboard-response",562,485512,"0.0-3.183-2.183","kn4dk4y9l3l9kc9",912,"110.csv","","null","resources/images/coin2.png","null","",NA,NA,NA,NA,""
"image-keyboard-response",563,485984,"0.0-3.184-0.184","kn4dk4y9l3l9kc9",912,"110.csv","","470","resources/trios/L2T1A1.jpg","38","restless",0.4,0.6,0.6,0.939349570731884,"false"
"image-keyboard-response",564,486386,"0.0-3.184-1.184","kn4dk4y9l3l9kc9",912,"110.csv","","null","resources/maskTrios/BT1B.jpg","null","",NA,NA,NA,NA,""
"image-keyboard-response",565,487591,"0.0-3.184-2.184","kn4dk4y9l3l9kc9",912,"110.csv","","null","resources/images/fishbone.png","null","",NA,NA,NA,NA,""
"image-keyboard-response",566,487790,"0.0-3.185-0.185","kn4dk4y9l3l9kc9",912,"110.csv","","198","resources/trios/L2T1A1.jpg","39","restless",0.4,0.6,0.6,0.739702308325379,"false"
"image-keyboard-response",567,488194,"0.0-3.185-1.185","kn4dk4y9l3l9kc9",912,"110.csv","","null","resources/maskTrios/BBA1.jpg","null","",NA,NA,NA,NA,""
"image-keyboard-response",568,489398,"0.0-3.185-2.185","kn4dk4y9l3l9kc9",912,"110.csv","","null","resources/images/fishbone.png","null","",NA,NA,NA,NA,""
"image-keyboard-response",569,489404,"0.0-3.186-0.186","kn4dk4y9l3l9kc9",912,"110.csv","","6","resources/trios/L2T2A1.jpg","37","restless",0.4,0.6,0.6,0.1172465664577,"true"
"image-keyboard-response",570,489809,"0.0-3.186-1.186","kn4dk4y9l3l9kc9",912,"110.csv","","null","resources/maskTrios/L2BB.jpg","null","",NA,NA,NA,NA,""
"image-keyboard-response",571,491015,"0.0-3.186-2.186","kn4dk4y9l3l9kc9",912,"110.csv","","null","resources/images/coin2.png","null","",NA,NA,NA,NA,""
"image-keyboard-response",572,493238,"0.0-3.187-0.187","kn4dk4y9l3l9kc9",912,"110.csv","","2221","resources/trios/L4T2A3.jpg","37","restless",0.4,0.6,0.6,0.834056251107126,"false"
"image-keyboard-response",573,493642,"0.0-3.187-1.187","kn4dk4y9l3l9kc9",912,"110.csv","","null","resources/maskTrios/L4BB.jpg","null","",NA,NA,NA,NA,""
"image-keyboard-response",574,494844,"0.0-3.187-2.187","kn4dk4y9l3l9kc9",912,"110.csv","","null","resources/images/fishbone.png","null","",NA,NA,NA,NA,""
"image-keyboard-response",575,496054,"0.0-3.188-0.188","kn4dk4y9l3l9kc9",912,"110.csv","","1209","resources/trios/L2T1A1.jpg","38","restless",0.4,0.6,0.6,0.190808297019453,"true"
"image-keyboard-response",576,496459,"0.0-3.188-1.188","kn4dk4y9l3l9kc9",912,"110.csv","","null","resources/maskTrios/BT1B.jpg","null","",NA,NA,NA,NA,""
"image-keyboard-response",577,497664,"0.0-3.188-2.188","kn4dk4y9l3l9kc9",912,"110.csv","","null","resources/images/coin2.png","null","",NA,NA,NA,NA,""
"image-keyboard-response",578,498097,"0.0-3.189-0.189","kn4dk4y9l3l9kc9",912,"110.csv","","431","resources/trios/L2T1A1.jpg","38","restless",0.4,0.6,0.6,0.70494106712433,"false"
"image-keyboard-response",579,498500,"0.0-3.189-1.189","kn4dk4y9l3l9kc9",912,"110.csv","","null","resources/maskTrios/BT1B.jpg","null","",NA,NA,NA,NA,""
"image-keyboard-response",580,499702,"0.0-3.189-2.189","kn4dk4y9l3l9kc9",912,"110.csv","","null","resources/images/fishbone.png","null","",NA,NA,NA,NA,""
"image-keyboard-response",581,499990,"0.0-3.190-0.190","kn4dk4y9l3l9kc9",912,"110.csv","","287","resources/trios/L4T2A3.jpg","39","restless",0.4,0.6,0.6,0.137541237631349,"true"
"image-keyboard-response",582,500396,"0.0-3.190-1.190","kn4dk4y9l3l9kc9",912,"110.csv","","null","resources/maskTrios/BBA3.jpg","null","",NA,NA,NA,NA,""
"image-keyboard-response",583,501602,"0.0-3.190-2.190","kn4dk4y9l3l9kc9",912,"110.csv","","null","resources/images/coin2.png","null","",NA,NA,NA,NA,""
"image-keyboard-response",584,501901,"0.0-3.191-0.191","kn4dk4y9l3l9kc9",912,"110.csv","","298","resources/trios/L2T2A1.jpg","39","restless",0.4,0.6,0.6,0.0306551314236805,"true"
"image-keyboard-response",585,502302,"0.0-3.191-1.191","kn4dk4y9l3l9kc9",912,"110.csv","","null","resources/maskTrios/BBA1.jpg","null","",NA,NA,NA,NA,""
"image-keyboard-response",586,503508,"0.0-3.191-2.191","kn4dk4y9l3l9kc9",912,"110.csv","","null","resources/images/coin2.png","null","",NA,NA,NA,NA,""
"image-keyboard-response",587,504330,"0.0-3.192-0.192","kn4dk4y9l3l9kc9",912,"110.csv","","821","resources/trios/L2T1A3.jpg","39","restless",0.4,0.6,0.6,0.676078163809199,"false"
"image-keyboard-response",588,504737,"0.0-3.192-1.192","kn4dk4y9l3l9kc9",912,"110.csv","","null","resources/maskTrios/BBA3.jpg","null","",NA,NA,NA,NA,""
"image-keyboard-response",589,505942,"0.0-3.192-2.192","kn4dk4y9l3l9kc9",912,"110.csv","","null","resources/images/fishbone.png","null","",NA,NA,NA,NA,""
"image-keyboard-response",590,506917,"0.0-3.193-0.193","kn4dk4y9l3l9kc9",912,"110.csv","","973","resources/trios/L2T1A1.jpg","38","restless",0.4,0.6,0.6,0.451367943904918,"true"
"image-keyboard-response",591,507321,"0.0-3.193-1.193","kn4dk4y9l3l9kc9",912,"110.csv","","null","resources/maskTrios/BT1B.jpg","null","",NA,NA,NA,NA,""
"image-keyboard-response",592,508525,"0.0-3.193-2.193","kn4dk4y9l3l9kc9",912,"110.csv","","null","resources/images/coin2.png","null","",NA,NA,NA,NA,""
"image-keyboard-response",593,509178,"0.0-3.194-0.194","kn4dk4y9l3l9kc9",912,"110.csv","","652","resources/trios/L4T2A1.jpg","38","restless",0.4,0.6,0.6,0.536131067940489,"true"
"image-keyboard-response",594,509584,"0.0-3.194-1.194","kn4dk4y9l3l9kc9",912,"110.csv","","null","resources/maskTrios/BT2B.jpg","null","",NA,NA,NA,NA,""
"image-keyboard-response",595,510785,"0.0-3.194-2.194","kn4dk4y9l3l9kc9",912,"110.csv","","null","resources/images/coin2.png","null","",NA,NA,NA,NA,""
"image-keyboard-response",596,512148,"0.0-3.195-0.195","kn4dk4y9l3l9kc9",912,"110.csv","","1361","resources/trios/L4T1A3.jpg","38","restless",0.4,0.6,0.6,0.415914972470807,"true"
"image-keyboard-response",597,512552,"0.0-3.195-1.195","kn4dk4y9l3l9kc9",912,"110.csv","","null","resources/maskTrios/BT1B.jpg","null","",NA,NA,NA,NA,""
"image-keyboard-response",598,513754,"0.0-3.195-2.195","kn4dk4y9l3l9kc9",912,"110.csv","","null","resources/images/coin2.png","null","",NA,NA,NA,NA,""
"image-keyboard-response",599,514162,"0.0-3.196-0.196","kn4dk4y9l3l9kc9",912,"110.csv","","406","resources/trios/L2T2A1.jpg","38","restless",0.4,0.7,0.5,0.907942200340078,"false"
"image-keyboard-response",600,514569,"0.0-3.196-1.196","kn4dk4y9l3l9kc9",912,"110.csv","","null","resources/maskTrios/BT2B.jpg","null","",NA,NA,NA,NA,""
"image-keyboard-response",601,515775,"0.0-3.196-2.196","kn4dk4y9l3l9kc9",912,"110.csv","","null","resources/images/fishbone.png","null","",NA,NA,NA,NA,""
"image-keyboard-response",602,516060,"0.0-3.197-0.197","kn4dk4y9l3l9kc9",912,"110.csv","","284","resources/trios/L4T1A3.jpg","37","restless",0.4,0.7,0.5,0.631161639681664,"false"
"image-keyboard-response",603,516461,"0.0-3.197-1.197","kn4dk4y9l3l9kc9",912,"110.csv","","null","resources/maskTrios/L4BB.jpg","null","",NA,NA,NA,NA,""
"image-keyboard-response",604,517668,"0.0-3.197-2.197","kn4dk4y9l3l9kc9",912,"110.csv","","null","resources/images/fishbone.png","null","",NA,NA,NA,NA,""
"image-keyboard-response",605,518029,"0.0-3.198-0.198","kn4dk4y9l3l9kc9",912,"110.csv","","360","resources/trios/L2T1A3.jpg","38","restless",0.5,0.7,0.5,0.74531291914212,"false"
"image-keyboard-response",606,518435,"0.0-3.198-1.198","kn4dk4y9l3l9kc9",912,"110.csv","","null","resources/maskTrios/BT1B.jpg","null","",NA,NA,NA,NA,""
"image-keyboard-response",607,519641,"0.0-3.198-2.198","kn4dk4y9l3l9kc9",912,"110.csv","","null","resources/images/fishbone.png","null","",NA,NA,NA,NA,""
"image-keyboard-response",608,519939,"0.0-3.199-0.199","kn4dk4y9l3l9kc9",912,"110.csv","","297","resources/trios/L4T2A3.jpg","39","restless",0.5,0.7,0.5,0.330393562078188,"true"
"image-keyboard-response",609,520345,"0.0-3.199-1.199","kn4dk4y9l3l9kc9",912,"110.csv","","null","resources/maskTrios/BBA3.jpg","null","",NA,NA,NA,NA,""
"image-keyboard-response",610,521552,"0.0-3.199-2.199","kn4dk4y9l3l9kc9",912,"110.csv","","null","resources/images/coin2.png","null","",NA,NA,NA,NA,""
"image-keyboard-response",611,522084,"0.0-3.200-0.200","kn4dk4y9l3l9kc9",912,"110.csv","","531","resources/trios/L4T1A1.jpg","39","restless",0.5,0.7,0.5,0.942923516353139,"false"
"image-keyboard-response",612,522489,"0.0-3.200-1.200","kn4dk4y9l3l9kc9",912,"110.csv","","null","resources/maskTrios/BBA1.jpg","null","",NA,NA,NA,NA,""
"image-keyboard-response",613,523691,"0.0-3.200-2.200","kn4dk4y9l3l9kc9",912,"110.csv","","null","resources/images/fishbone.png","null","",NA,NA,NA,NA,""
"image-keyboard-response",614,524162,"0.0-3.201-0.201","kn4dk4y9l3l9kc9",912,"110.csv","","470","resources/trios/L4T1A3.jpg","38","restless",0.5,0.7,0.4,0.066592037196919,"true"
"image-keyboard-response",615,524568,"0.0-3.201-1.201","kn4dk4y9l3l9kc9",912,"110.csv","","null","resources/maskTrios/BT1B.jpg","null","",NA,NA,NA,NA,""
"image-keyboard-response",616,525773,"0.0-3.201-2.201","kn4dk4y9l3l9kc9",912,"110.csv","","null","resources/images/coin2.png","null","",NA,NA,NA,NA,""
"image-keyboard-response",617,526167,"0.0-3.202-0.202","kn4dk4y9l3l9kc9",912,"110.csv","","393","resources/trios/L4T1A3.jpg","38","restless",0.5,0.7,0.5,0.745687387429869,"false"
"image-keyboard-response",618,526573,"0.0-3.202-1.202","kn4dk4y9l3l9kc9",912,"110.csv","","null","resources/maskTrios/BT1B.jpg","null","",NA,NA,NA,NA,""
"image-keyboard-response",619,527779,"0.0-3.202-2.202","kn4dk4y9l3l9kc9",912,"110.csv","","null","resources/images/fishbone.png","null","",NA,NA,NA,NA,""
"image-keyboard-response",620,528160,"0.0-3.203-0.203","kn4dk4y9l3l9kc9",912,"110.csv","","379","resources/trios/L2T1A1.jpg","37","restless",0.5,0.8,0.4,0.975428035946007,"false"
