"trial_type","trial_index","time_elapsed","internal_node_id","subject","participantCode","walkNumber","success","rt","stimulus","key_press","test_part","leftProb","midProb","rightProb","generatedNum","correct"
"pavlovia",0,1439,"0.0-0.0","lp3fnxyaf0rkkfa",876,"186.csv","","","","","",NA,NA,NA,NA,""
"fullscreen",1,5529,"0.0-1.0","lp3fnxyaf0rkkfa",876,"186.csv","true","","","","",NA,NA,NA,NA,""
"html-keyboard-response",2,13079,"0.0-2.0-0.0","lp3fnxyaf0rkkfa",876,"186.csv","","7548.800000071526","<p><font size='6'>Arrrgh!</p></font><p>Can you be the best pirate? Try to find lots of gold! But beware, some islands have more gold than others, and over time, the island with the most gold may change. Can YOU figure it out? </p><font size='6'>GOOD LUCK, CAPTAIN!!!</font><p>Press any key to begin</p>","78","",NA,NA,NA,NA,""
"image-keyboard-response",3,16105,"0.0-2.0-1.0","lp3fnxyaf0rkkfa",876,"186.csv","","null","resources/image_sets/111.png","null","",NA,NA,NA,NA,""
"image-keyboard-response",4,40844,"0.0-2.0-2.0","lp3fnxyaf0rkkfa",876,"186.csv","","24737.099999904633","resources/image_sets/left_highlight.png","37","",NA,NA,NA,NA,""
"image-keyboard-response",5,45131,"0.0-2.0-3.0","lp3fnxyaf0rkkfa",876,"186.csv","","4283.600000023842","resources/image_sets/mid_highlight.png","38","",NA,NA,NA,NA,""
"image-keyboard-response",6,46080,"0.0-2.0-4.0","lp3fnxyaf0rkkfa",876,"186.csv","","947.7000000476837","resources/image_sets/right_highlight.png","39","",NA,NA,NA,NA,""
"image-keyboard-response",7,47485,"0.0-2.0-5.0","lp3fnxyaf0rkkfa",876,"186.csv","","1404","resources/image_sets/111.png","13","",NA,NA,NA,NA,""
"image-keyboard-response",8,48387,"0.0-2.0-6.0","lp3fnxyaf0rkkfa",876,"186.csv","","900.8999999761581","resources/images/coin2.png","13","",NA,NA,NA,NA,""
"image-keyboard-response",9,49010,"0.0-2.0-7.0","lp3fnxyaf0rkkfa",876,"186.csv","","622","resources/images/fishbone.png","13","",NA,NA,NA,NA,""
"html-keyboard-response",10,49609,"0.0-2.0-8.0","lp3fnxyaf0rkkfa",876,"186.csv","","598.3000000715256","<p>Your first journey will be a long one, but you will get a well deserved break at the end</p><p>After the break you will have four more journeys, but each will be much shorter than the first, and you will have breaks in between each</p><p>Press Enter to begin</p>","13","",NA,NA,NA,NA,""
"image-keyboard-response",11,52817,"0.0-3.0-0.0","lp3fnxyaf0rkkfa",876,"186.csv","","3206.600000023842","resources/trios/L2T2A3.jpg","37","restless",0.7,0.9,0.3,0.242469942296467,"true"
"image-keyboard-response",12,53237,"0.0-3.0-1.0","lp3fnxyaf0rkkfa",876,"186.csv","","null","resources/maskTrios/L2BB.jpg","null","",NA,NA,NA,NA,""
"image-keyboard-response",13,54451,"0.0-3.0-2.0","lp3fnxyaf0rkkfa",876,"186.csv","","null","resources/images/coin2.png","null","",NA,NA,NA,NA,""
"image-keyboard-response",14,55808,"0.0-3.1-0.1","lp3fnxyaf0rkkfa",876,"186.csv","","1354.5","resources/trios/L1T4A1.jpg","37","restless",0.8,0.9,0.3,0.285960925466057,"true"
"image-keyboard-response",15,56216,"0.0-3.1-1.1","lp3fnxyaf0rkkfa",876,"186.csv","","null","resources/maskTrios/L1BB.jpg","null","",NA,NA,NA,NA,""
"image-keyboard-response",16,57430,"0.0-3.1-2.1","lp3fnxyaf0rkkfa",876,"186.csv","","null","resources/images/coin2.png","null","",NA,NA,NA,NA,""
"image-keyboard-response",17,61240,"0.0-3.2-0.2","lp3fnxyaf0rkkfa",876,"186.csv","","3807.899999976158","resources/trios/L2T2A1.jpg","38","restless",0.8,0.9,0.3,0.96133912873587,"false"
"image-keyboard-response",18,61653,"0.0-3.2-1.2","lp3fnxyaf0rkkfa",876,"186.csv","","null","resources/maskTrios/BT2B.jpg","null","",NA,NA,NA,NA,""
"image-keyboard-response",19,62872,"0.0-3.2-2.2","lp3fnxyaf0rkkfa",876,"186.csv","","null","resources/images/fishbone.png","null","",NA,NA,NA,NA,""
"image-keyboard-response",20,64468,"0.0-3.3-0.3","lp3fnxyaf0rkkfa",876,"186.csv","","1594.6000000238419","resources/trios/L2T2A3.jpg","37","restless",0.8,0.9,0.3,0.0252912611177485,"true"
"image-keyboard-response",21,64879,"0.0-3.3-1.3","lp3fnxyaf0rkkfa",876,"186.csv","","null","resources/maskTrios/L2BB.jpg","null","",NA,NA,NA,NA,""
"image-keyboard-response",22,66098,"0.0-3.3-2.3","lp3fnxyaf0rkkfa",876,"186.csv","","null","resources/images/coin2.png","null","",NA,NA,NA,NA,""
"image-keyboard-response",23,67408,"0.0-3.4-0.4","lp3fnxyaf0rkkfa",876,"186.csv","","1307.8999999761581","resources/trios/L2T2A3.jpg","37","restless",0.8,0.9,0.3,0.520646098981427,"true"
"image-keyboard-response",24,67817,"0.0-3.4-1.4","lp3fnxyaf0rkkfa",876,"186.csv","","null","resources/maskTrios/L2BB.jpg","null","",NA,NA,NA,NA,""
"image-keyboard-response",25,69045,"0.0-3.4-2.4","lp3fnxyaf0rkkfa",876,"186.csv","","null","resources/images/coin2.png","null","",NA,NA,NA,NA,""
"image-keyboard-response",26,70352,"0.0-3.5-0.5","lp3fnxyaf0rkkfa",876,"186.csv","","1305.7999999523163","resources/trios/L1T2A1.jpg","37","restless",0.8,0.8,0.3,0.448226666574074,"true"
"image-keyboard-response",27,70763,"0.0-3.5-1.5","lp3fnxyaf0rkkfa",876,"186.csv","","null","resources/maskTrios/L1BB.jpg","null","",NA,NA,NA,NA,""
"image-keyboard-response",28,71982,"0.0-3.5-2.5","lp3fnxyaf0rkkfa",876,"186.csv","","null","resources/images/coin2.png","null","",NA,NA,NA,NA,""
"image-keyboard-response",29,72565,"0.0-3.6-0.6","lp3fnxyaf0rkkfa",876,"186.csv","","581","resources/trios/L2T4A3.jpg","37","restless",0.8,0.7,0.3,0.789031078859874,"true"
"image-keyboard-response",30,72984,"0.0-3.6-1.6","lp3fnxyaf0rkkfa",876,"186.csv","","null","resources/maskTrios/L2BB.jpg","null","",NA,NA,NA,NA,""
"image-keyboard-response",31,74202,"0.0-3.6-2.6","lp3fnxyaf0rkkfa",876,"186.csv","","null","resources/images/coin2.png","null","",NA,NA,NA,NA,""
"image-keyboard-response",32,74758,"0.0-3.7-0.7","lp3fnxyaf0rkkfa",876,"186.csv","","554.5","resources/trios/L2T4A3.jpg","37","restless",0.8,0.7,0.3,0.959907291264711,"false"
"image-keyboard-response",33,75174,"0.0-3.7-1.7","lp3fnxyaf0rkkfa",876,"186.csv","","null","resources/maskTrios/L2BB.jpg","null","",NA,NA,NA,NA,""
"image-keyboard-response",34,76404,"0.0-3.7-2.7","lp3fnxyaf0rkkfa",876,"186.csv","","null","resources/images/fishbone.png","null","",NA,NA,NA,NA,""
"image-keyboard-response",35,77195,"0.0-3.8-0.8","lp3fnxyaf0rkkfa",876,"186.csv","","788.7000000476837","resources/trios/L2T4A3.jpg","37","restless",0.9,0.7,0.3,0.772490257143265,"true"
"image-keyboard-response",36,77612,"0.0-3.8-1.8","lp3fnxyaf0rkkfa",876,"186.csv","","null","resources/maskTrios/L2BB.jpg","null","",NA,NA,NA,NA,""
"image-keyboard-response",37,78826,"0.0-3.8-2.8","lp3fnxyaf0rkkfa",876,"186.csv","","null","resources/images/coin2.png","null","",NA,NA,NA,NA,""
"image-keyboard-response",38,79764,"0.0-3.9-0.9","lp3fnxyaf0rkkfa",876,"186.csv","","936","resources/trios/L1T2A1.jpg","37","restless",0.9,0.6,0.4,0.953761110569964,"false"
"image-keyboard-response",39,80186,"0.0-3.9-1.9","lp3fnxyaf0rkkfa",876,"186.csv","","null","resources/maskTrios/L1BB.jpg","null","",NA,NA,NA,NA,""
"image-keyboard-response",40,81404,"0.0-3.9-2.9","lp3fnxyaf0rkkfa",876,"186.csv","","null","resources/images/fishbone.png","null","",NA,NA,NA,NA,""
"image-keyboard-response",41,83046,"0.0-3.10-0.10","lp3fnxyaf0rkkfa",876,"186.csv","","1639","resources/trios/L1T4A1.jpg","37","restless",0.9,0.6,0.4,0.143981417999884,"true"
"image-keyboard-response",42,83457,"0.0-3.10-1.10","lp3fnxyaf0rkkfa",876,"186.csv","","null","resources/maskTrios/L1BB.jpg","null","",NA,NA,NA,NA,""
"image-keyboard-response",43,84668,"0.0-3.10-2.10","lp3fnxyaf0rkkfa",876,"186.csv","","null","resources/images/coin2.png","null","",NA,NA,NA,NA,""
"image-keyboard-response",44,85227,"0.0-3.11-0.11","lp3fnxyaf0rkkfa",876,"186.csv","","557.6000000238419","resources/trios/L1T4A3.jpg","37","restless",0.9,0.5,0.4,0.0230190121620333,"true"
"image-keyboard-response",45,85648,"0.0-3.11-1.11","lp3fnxyaf0rkkfa",876,"186.csv","","null","resources/maskTrios/L1BB.jpg","null","",NA,NA,NA,NA,""
"image-keyboard-response",46,86867,"0.0-3.11-2.11","lp3fnxyaf0rkkfa",876,"186.csv","","null","resources/images/coin2.png","null","",NA,NA,NA,NA,""
"image-keyboard-response",47,87283,"0.0-3.12-0.12","lp3fnxyaf0rkkfa",876,"186.csv","","412.8000000715256","resources/trios/L1T2A1.jpg","37","restless",0.9,0.5,0.4,0.394636541997431,"true"
"image-keyboard-response",48,87700,"0.0-3.12-1.12","lp3fnxyaf0rkkfa",876,"186.csv","","null","resources/maskTrios/L1BB.jpg","null","",NA,NA,NA,NA,""
"image-keyboard-response",49,88912,"0.0-3.12-2.12","lp3fnxyaf0rkkfa",876,"186.csv","","null","resources/images/coin2.png","null","",NA,NA,NA,NA,""
"image-keyboard-response",50,90632,"0.0-3.13-0.13","lp3fnxyaf0rkkfa",876,"186.csv","","1718","resources/trios/L1T4A3.jpg","37","restless",0.9,0.5,0.4,0.952223877999041,"false"
"image-keyboard-response",51,91045,"0.0-3.13-1.13","lp3fnxyaf0rkkfa",876,"186.csv","","null","resources/maskTrios/L1BB.jpg","null","",NA,NA,NA,NA,""
"image-keyboard-response",52,92263,"0.0-3.13-2.13","lp3fnxyaf0rkkfa",876,"186.csv","","null","resources/images/fishbone.png","null","",NA,NA,NA,NA,""
"image-keyboard-response",53,92689,"0.0-3.14-0.14","lp3fnxyaf0rkkfa",876,"186.csv","","423.3000000715256","resources/trios/L2T4A1.jpg","37","restless",0.9,0.5,0.4,0.714490497881466,"true"
"image-keyboard-response",54,93106,"0.0-3.14-1.14","lp3fnxyaf0rkkfa",876,"186.csv","","null","resources/maskTrios/L2BB.jpg","null","",NA,NA,NA,NA,""
"image-keyboard-response",55,94325,"0.0-3.14-2.14","lp3fnxyaf0rkkfa",876,"186.csv","","null","resources/images/coin2.png","null","",NA,NA,NA,NA,""
"image-keyboard-response",56,94809,"0.0-3.15-0.15","lp3fnxyaf0rkkfa",876,"186.csv","","482.7000000476837","resources/trios/L2T4A3.jpg","37","restless",0.9,0.5,0.4,0.753683170966184,"true"
"image-keyboard-response",57,95228,"0.0-3.15-1.15","lp3fnxyaf0rkkfa",876,"186.csv","","null","resources/maskTrios/L2BB.jpg","null","",NA,NA,NA,NA,""
"image-keyboard-response",58,96447,"0.0-3.15-2.15","lp3fnxyaf0rkkfa",876,"186.csv","","null","resources/images/coin2.png","null","",NA,NA,NA,NA,""
"image-keyboard-response",59,99105,"0.0-3.16-0.16","lp3fnxyaf0rkkfa",876,"186.csv","","2655.5","resources/trios/L2T2A3.jpg","37","restless",0.8,0.5,0.4,0.372553475718585,"true"
"image-keyboard-response",60,99523,"0.0-3.16-1.16","lp3fnxyaf0rkkfa",876,"186.csv","","null","resources/maskTrios/L2BB.jpg","null","",NA,NA,NA,NA,""
"image-keyboard-response",61,100727,"0.0-3.16-2.16","lp3fnxyaf0rkkfa",876,"186.csv","","null","resources/images/coin2.png","null","",NA,NA,NA,NA,""
"image-keyboard-response",62,101246,"0.0-3.17-0.17","lp3fnxyaf0rkkfa",876,"186.csv","","516.8999999761581","resources/trios/L1T4A3.jpg","37","restless",0.8,0.5,0.4,0.179602878889449,"true"
"image-keyboard-response",63,101660,"0.0-3.17-1.17","lp3fnxyaf0rkkfa",876,"186.csv","","null","resources/maskTrios/L1BB.jpg","null","",NA,NA,NA,NA,""
"image-keyboard-response",64,102879,"0.0-3.17-2.17","lp3fnxyaf0rkkfa",876,"186.csv","","null","resources/images/coin2.png","null","",NA,NA,NA,NA,""
"image-keyboard-response",65,103830,"0.0-3.18-0.18","lp3fnxyaf0rkkfa",876,"186.csv","","947.6000000238419","resources/trios/L1T4A1.jpg","37","restless",0.8,0.5,0.4,0.606126643220059,"true"
"image-keyboard-response",66,104251,"0.0-3.18-1.18","lp3fnxyaf0rkkfa",876,"186.csv","","null","resources/maskTrios/L1BB.jpg","null","",NA,NA,NA,NA,""
"image-keyboard-response",67,105470,"0.0-3.18-2.18","lp3fnxyaf0rkkfa",876,"186.csv","","null","resources/images/coin2.png","null","",NA,NA,NA,NA,""
"image-keyboard-response",68,105923,"0.0-3.19-0.19","lp3fnxyaf0rkkfa",876,"186.csv","","450.2000000476837","resources/trios/L1T2A1.jpg","37","restless",0.8,0.5,0.4,0.360716217035852,"true"
"image-keyboard-response",69,106341,"0.0-3.19-1.19","lp3fnxyaf0rkkfa",876,"186.csv","","null","resources/maskTrios/L1BB.jpg","null","",NA,NA,NA,NA,""
"image-keyboard-response",70,107560,"0.0-3.19-2.19","lp3fnxyaf0rkkfa",876,"186.csv","","null","resources/images/coin2.png","null","",NA,NA,NA,NA,""
"image-keyboard-response",71,109545,"0.0-3.20-0.20","lp3fnxyaf0rkkfa",876,"186.csv","","1983.4000000953674","resources/trios/L2T4A1.jpg","37","restless",0.8,0.5,0.4,0.928266656190982,"false"
"image-keyboard-response",72,109951,"0.0-3.20-1.20","lp3fnxyaf0rkkfa",876,"186.csv","","null","resources/maskTrios/L2BB.jpg","null","",NA,NA,NA,NA,""
"image-keyboard-response",73,111169,"0.0-3.20-2.20","lp3fnxyaf0rkkfa",876,"186.csv","","null","resources/images/fishbone.png","null","",NA,NA,NA,NA,""
"image-keyboard-response",74,111567,"0.0-3.21-0.21","lp3fnxyaf0rkkfa",876,"186.csv","","397.2000000476837","resources/trios/L1T2A1.jpg","37","restless",0.8,0.4,0.4,0.799577365306381,"true"
"image-keyboard-response",75,111987,"0.0-3.21-1.21","lp3fnxyaf0rkkfa",876,"186.csv","","null","resources/maskTrios/L1BB.jpg","null","",NA,NA,NA,NA,""
"image-keyboard-response",76,113201,"0.0-3.21-2.21","lp3fnxyaf0rkkfa",876,"186.csv","","null","resources/images/coin2.png","null","",NA,NA,NA,NA,""
"image-keyboard-response",77,114036,"0.0-3.22-0.22","lp3fnxyaf0rkkfa",876,"186.csv","","832.2999999523163","resources/trios/L2T4A3.jpg","37","restless",0.8,0.4,0.4,0.771525119914718,"true"
"image-keyboard-response",78,114451,"0.0-3.22-1.22","lp3fnxyaf0rkkfa",876,"186.csv","","null","resources/maskTrios/L2BB.jpg","null","",NA,NA,NA,NA,""
"image-keyboard-response",79,115663,"0.0-3.22-2.22","lp3fnxyaf0rkkfa",876,"186.csv","","null","resources/images/coin2.png","null","",NA,NA,NA,NA,""
"image-keyboard-response",80,116385,"0.0-3.23-0.23","lp3fnxyaf0rkkfa",876,"186.csv","","720.5999999046326","resources/trios/L1T2A3.jpg","37","restless",0.8,0.4,0.4,0.105489464469872,"true"
"image-keyboard-response",81,116811,"0.0-3.23-1.23","lp3fnxyaf0rkkfa",876,"186.csv","","null","resources/maskTrios/L1BB.jpg","null","",NA,NA,NA,NA,""
"image-keyboard-response",82,118030,"0.0-3.23-2.23","lp3fnxyaf0rkkfa",876,"186.csv","","null","resources/images/coin2.png","null","",NA,NA,NA,NA,""
"image-keyboard-response",83,120708,"0.0-3.24-0.24","lp3fnxyaf0rkkfa",876,"186.csv","","2676.1999999284744","resources/trios/L2T2A1.jpg","37","restless",0.8,0.4,0.4,0.889554773204759,"false"
"image-keyboard-response",84,121123,"0.0-3.24-1.24","lp3fnxyaf0rkkfa",876,"186.csv","","null","resources/maskTrios/L2BB.jpg","null","",NA,NA,NA,NA,""
"image-keyboard-response",85,122342,"0.0-3.24-2.24","lp3fnxyaf0rkkfa",876,"186.csv","","null","resources/images/fishbone.png","null","",NA,NA,NA,NA,""
"image-keyboard-response",86,122969,"0.0-3.25-0.25","lp3fnxyaf0rkkfa",876,"186.csv","","624.3999999761581","resources/trios/L1T4A1.jpg","37","restless",0.7,0.4,0.4,0.70589842904785,"false"
"image-keyboard-response",87,123382,"0.0-3.25-1.25","lp3fnxyaf0rkkfa",876,"186.csv","","null","resources/maskTrios/L1BB.jpg","null","",NA,NA,NA,NA,""
"image-keyboard-response",88,124601,"0.0-3.25-2.25","lp3fnxyaf0rkkfa",876,"186.csv","","null","resources/images/fishbone.png","null","",NA,NA,NA,NA,""
"image-keyboard-response",89,124974,"0.0-3.26-0.26","lp3fnxyaf0rkkfa",876,"186.csv","","372.2000000476837","resources/trios/L1T2A1.jpg","37","restless",0.7,0.4,0.4,0.830389781367609,"false"
"image-keyboard-response",90,125388,"0.0-3.26-1.26","lp3fnxyaf0rkkfa",876,"186.csv","","null","resources/maskTrios/L1BB.jpg","null","",NA,NA,NA,NA,""
"image-keyboard-response",91,126607,"0.0-3.26-2.26","lp3fnxyaf0rkkfa",876,"186.csv","","null","resources/images/fishbone.png","null","",NA,NA,NA,NA,""
"image-keyboard-response",92,127608,"0.0-3.27-0.27","lp3fnxyaf0rkkfa",876,"186.csv","","1012.3999999761581","resources/trios/L1T4A3.jpg","38","restless",0.7,0.4,0.4,0.99751322085906,"false"
"image-keyboard-response",93,128028,"0.0-3.27-1.27","lp3fnxyaf0rkkfa",876,"186.csv","","null","resources/maskTrios/BT4B.jpg","null","",NA,NA,NA,NA,""
"image-keyboard-response",94,129247,"0.0-3.27-2.27","lp3fnxyaf0rkkfa",876,"186.csv","","null","resources/images/fishbone.png","null","",NA,NA,NA,NA,""
"image-keyboard-response",95,129748,"0.0-3.28-0.28","lp3fnxyaf0rkkfa",876,"186.csv","","498.89999997615814","resources/trios/L1T4A1.jpg","38","restless",0.7,0.4,0.4,0.667899386789299,"false"
"image-keyboard-response",96,130157,"0.0-3.28-1.28","lp3fnxyaf0rkkfa",876,"186.csv","","null","resources/maskTrios/BT4B.jpg","null","",NA,NA,NA,NA,""
"image-keyboard-response",97,131374,"0.0-3.28-2.28","lp3fnxyaf0rkkfa",876,"186.csv","","null","resources/images/fishbone.png","null","",NA,NA,NA,NA,""
"image-keyboard-response",98,131856,"0.0-3.29-0.29","lp3fnxyaf0rkkfa",876,"186.csv","","479.89999997615814","resources/trios/L1T4A3.jpg","37","restless",0.7,0.4,0.4,0.649168647087775,"true"
"image-keyboard-response",99,132271,"0.0-3.29-1.29","lp3fnxyaf0rkkfa",876,"186.csv","","null","resources/maskTrios/L1BB.jpg","null","",NA,NA,NA,NA,""
"image-keyboard-response",100,133496,"0.0-3.29-2.29","lp3fnxyaf0rkkfa",876,"186.csv","","null","resources/images/coin2.png","null","",NA,NA,NA,NA,""
"image-keyboard-response",101,134324,"0.0-3.30-0.30","lp3fnxyaf0rkkfa",876,"186.csv","","825.3000000715256","resources/trios/L1T2A1.jpg","37","restless",0.7,0.4,0.4,0.282390813778348,"true"
"image-keyboard-response",102,134732,"0.0-3.30-1.30","lp3fnxyaf0rkkfa",876,"186.csv","","null","resources/maskTrios/L1BB.jpg","null","",NA,NA,NA,NA,""
"image-keyboard-response",103,135948,"0.0-3.30-2.30","lp3fnxyaf0rkkfa",876,"186.csv","","null","resources/images/coin2.png","null","",NA,NA,NA,NA,""
"image-keyboard-response",104,140481,"0.0-3.31-0.31","lp3fnxyaf0rkkfa",876,"186.csv","","4531.600000023842","resources/trios/L1T4A3.jpg","37","restless",0.7,0.4,0.4,0.559255315522277,"true"
"image-keyboard-response",105,140891,"0.0-3.31-1.31","lp3fnxyaf0rkkfa",876,"186.csv","","null","resources/maskTrios/L1BB.jpg","null","",NA,NA,NA,NA,""
"image-keyboard-response",106,142118,"0.0-3.31-2.31","lp3fnxyaf0rkkfa",876,"186.csv","","null","resources/images/coin2.png","null","",NA,NA,NA,NA,""
"image-keyboard-response",107,142811,"0.0-3.32-0.32","lp3fnxyaf0rkkfa",876,"186.csv","","690.2999999523163","resources/trios/L1T2A3.jpg","37","restless",0.7,0.5,0.4,0.881405411302599,"false"
"image-keyboard-response",108,143221,"0.0-3.32-1.32","lp3fnxyaf0rkkfa",876,"186.csv","","null","resources/maskTrios/L1BB.jpg","null","",NA,NA,NA,NA,""
"image-keyboard-response",109,144438,"0.0-3.32-2.32","lp3fnxyaf0rkkfa",876,"186.csv","","null","resources/images/fishbone.png","null","",NA,NA,NA,NA,""
"image-keyboard-response",110,144873,"0.0-3.33-0.33","lp3fnxyaf0rkkfa",876,"186.csv","","434.40000009536743","resources/trios/L1T4A3.jpg","37","restless",0.7,0.5,0.4,0.0575718533857335,"true"
"image-keyboard-response",111,145281,"0.0-3.33-1.33","lp3fnxyaf0rkkfa",876,"186.csv","","null","resources/maskTrios/L1BB.jpg","null","",NA,NA,NA,NA,""
"image-keyboard-response",112,146500,"0.0-3.33-2.33","lp3fnxyaf0rkkfa",876,"186.csv","","null","resources/images/coin2.png","null","",NA,NA,NA,NA,""
"image-keyboard-response",113,147382,"0.0-3.34-0.34","lp3fnxyaf0rkkfa",876,"186.csv","","879.5999999046326","resources/trios/L2T2A1.jpg","37","restless",0.7,0.5,0.4,0.649312740755343,"true"
"image-keyboard-response",114,147794,"0.0-3.34-1.34","lp3fnxyaf0rkkfa",876,"186.csv","","null","resources/maskTrios/L2BB.jpg","null","",NA,NA,NA,NA,""
"image-keyboard-response",115,149014,"0.0-3.34-2.34","lp3fnxyaf0rkkfa",876,"186.csv","","null","resources/images/coin2.png","null","",NA,NA,NA,NA,""
"image-keyboard-response",116,149554,"0.0-3.35-0.35","lp3fnxyaf0rkkfa",876,"186.csv","","537.7000000476837","resources/trios/L1T2A1.jpg","37","restless",0.7,0.6,0.4,0.254216047320931,"true"
"image-keyboard-response",117,149969,"0.0-3.35-1.35","lp3fnxyaf0rkkfa",876,"186.csv","","null","resources/maskTrios/L1BB.jpg","null","",NA,NA,NA,NA,""
"image-keyboard-response",118,151188,"0.0-3.35-2.35","lp3fnxyaf0rkkfa",876,"186.csv","","null","resources/images/coin2.png","null","",NA,NA,NA,NA,""
"image-keyboard-response",119,151585,"0.0-3.36-0.36","lp3fnxyaf0rkkfa",876,"186.csv","","394.39999997615814","resources/trios/L1T2A3.jpg","37","restless",0.7,0.7,0.5,0.528100108595897,"true"
"image-keyboard-response",120,152006,"0.0-3.36-1.36","lp3fnxyaf0rkkfa",876,"186.csv","","null","resources/maskTrios/L1BB.jpg","null","",NA,NA,NA,NA,""
"image-keyboard-response",121,153219,"0.0-3.36-2.36","lp3fnxyaf0rkkfa",876,"186.csv","","null","resources/images/coin2.png","null","",NA,NA,NA,NA,""
"image-keyboard-response",122,154149,"0.0-3.37-0.37","lp3fnxyaf0rkkfa",876,"186.csv","","928.5","resources/trios/L2T4A3.jpg","37","restless",0.8,0.7,0.5,0.0255388360445932,"true"
"image-keyboard-response",123,154565,"0.0-3.37-1.37","lp3fnxyaf0rkkfa",876,"186.csv","","null","resources/maskTrios/L2BB.jpg","null","",NA,NA,NA,NA,""
"image-keyboard-response",124,155769,"0.0-3.37-2.37","lp3fnxyaf0rkkfa",876,"186.csv","","null","resources/images/coin2.png","null","",NA,NA,NA,NA,""
"image-keyboard-response",125,156259,"0.0-3.38-0.38","lp3fnxyaf0rkkfa",876,"186.csv","","488.2000000476837","resources/trios/L1T2A3.jpg","37","restless",0.8,0.7,0.5,0.0725693746351848,"true"
"image-keyboard-response",126,156671,"0.0-3.38-1.38","lp3fnxyaf0rkkfa",876,"186.csv","","null","resources/maskTrios/L1BB.jpg","null","",NA,NA,NA,NA,""
"image-keyboard-response",127,157891,"0.0-3.38-2.38","lp3fnxyaf0rkkfa",876,"186.csv","","null","resources/images/coin2.png","null","",NA,NA,NA,NA,""
"image-keyboard-response",128,158504,"0.0-3.39-0.39","lp3fnxyaf0rkkfa",876,"186.csv","","611.2000000476837","resources/trios/L2T4A1.jpg","37","restless",0.8,0.7,0.5,0.230371925529643,"true"
"image-keyboard-response",129,158907,"0.0-3.39-1.39","lp3fnxyaf0rkkfa",876,"186.csv","","null","resources/maskTrios/L2BB.jpg","null","",NA,NA,NA,NA,""
"image-keyboard-response",130,160126,"0.0-3.39-2.39","lp3fnxyaf0rkkfa",876,"186.csv","","null","resources/images/coin2.png","null","",NA,NA,NA,NA,""
"image-keyboard-response",131,161427,"0.0-3.40-0.40","lp3fnxyaf0rkkfa",876,"186.csv","","1300.3999999761581","resources/trios/L2T4A1.jpg","37","restless",0.9,0.7,0.6,0.235537401797184,"true"
"image-keyboard-response",132,161844,"0.0-3.40-1.40","lp3fnxyaf0rkkfa",876,"186.csv","","null","resources/maskTrios/L2BB.jpg","null","",NA,NA,NA,NA,""
"image-keyboard-response",133,163073,"0.0-3.40-2.40","lp3fnxyaf0rkkfa",876,"186.csv","","null","resources/images/coin2.png","null","",NA,NA,NA,NA,""
"image-keyboard-response",134,163455,"0.0-3.41-0.41","lp3fnxyaf0rkkfa",876,"186.csv","","380.59999990463257","resources/trios/L1T2A3.jpg","37","restless",0.9,0.7,0.6,0.744170734044924,"true"
"image-keyboard-response",135,163876,"0.0-3.41-1.41","lp3fnxyaf0rkkfa",876,"186.csv","","null","resources/maskTrios/L1BB.jpg","null","",NA,NA,NA,NA,""
"image-keyboard-response",136,165095,"0.0-3.41-2.41","lp3fnxyaf0rkkfa",876,"186.csv","","null","resources/images/coin2.png","null","",NA,NA,NA,NA,""
"image-keyboard-response",137,165529,"0.0-3.42-0.42","lp3fnxyaf0rkkfa",876,"186.csv","","432.2999999523163","resources/trios/L1T2A3.jpg","37","restless",0.9,0.7,0.6,0.746740700605443,"true"
"image-keyboard-response",138,165943,"0.0-3.42-1.42","lp3fnxyaf0rkkfa",876,"186.csv","","null","resources/maskTrios/L1BB.jpg","null","",NA,NA,NA,NA,""
"image-keyboard-response",139,167163,"0.0-3.42-2.42","lp3fnxyaf0rkkfa",876,"186.csv","","null","resources/images/coin2.png","null","",NA,NA,NA,NA,""
"image-keyboard-response",140,167754,"0.0-3.43-0.43","lp3fnxyaf0rkkfa",876,"186.csv","","589.3000000715256","resources/trios/L2T4A3.jpg","37","restless",0.9,0.7,0.6,0.804031094506816,"true"
"image-keyboard-response",141,168189,"0.0-3.43-1.43","lp3fnxyaf0rkkfa",876,"186.csv","","null","resources/maskTrios/L2BB.jpg","null","",NA,NA,NA,NA,""
"image-keyboard-response",142,169393,"0.0-3.43-2.43","lp3fnxyaf0rkkfa",876,"186.csv","","null","resources/images/coin2.png","null","",NA,NA,NA,NA,""
"image-keyboard-response",143,169877,"0.0-3.44-0.44","lp3fnxyaf0rkkfa",876,"186.csv","","482.5","resources/trios/L1T4A3.jpg","37","restless",0.9,0.7,0.6,0.773843080350097,"true"
"image-keyboard-response",144,170296,"0.0-3.44-1.44","lp3fnxyaf0rkkfa",876,"186.csv","","null","resources/maskTrios/L1BB.jpg","null","",NA,NA,NA,NA,""
"image-keyboard-response",145,171515,"0.0-3.44-2.44","lp3fnxyaf0rkkfa",876,"186.csv","","null","resources/images/coin2.png","null","",NA,NA,NA,NA,""
"image-keyboard-response",146,172046,"0.0-3.45-0.45","lp3fnxyaf0rkkfa",876,"186.csv","","529.8000000715256","resources/trios/L1T2A1.jpg","37","restless",0.9,0.7,0.7,0.987420560806864,"false"
"image-keyboard-response",147,172456,"0.0-3.45-1.45","lp3fnxyaf0rkkfa",876,"186.csv","","null","resources/maskTrios/L1BB.jpg","null","",NA,NA,NA,NA,""
"image-keyboard-response",148,173667,"0.0-3.45-2.45","lp3fnxyaf0rkkfa",876,"186.csv","","null","resources/images/fishbone.png","null","",NA,NA,NA,NA,""
"image-keyboard-response",149,174439,"0.0-3.46-0.46","lp3fnxyaf0rkkfa",876,"186.csv","","770","resources/trios/L1T4A1.jpg","37","restless",0.9,0.7,0.7,0.59270143981318,"true"
"image-keyboard-response",150,174860,"0.0-3.46-1.46","lp3fnxyaf0rkkfa",876,"186.csv","","null","resources/maskTrios/L1BB.jpg","null","",NA,NA,NA,NA,""
"image-keyboard-response",151,176079,"0.0-3.46-2.46","lp3fnxyaf0rkkfa",876,"186.csv","","null","resources/images/coin2.png","null","",NA,NA,NA,NA,""
"image-keyboard-response",152,176690,"0.0-3.47-0.47","lp3fnxyaf0rkkfa",876,"186.csv","","608.7999999523163","resources/trios/L2T4A1.jpg","37","restless",0.9,0.7,0.7,0.657476640387362,"true"
"image-keyboard-response",153,177115,"0.0-3.47-1.47","lp3fnxyaf0rkkfa",876,"186.csv","","null","resources/maskTrios/L2BB.jpg","null","",NA,NA,NA,NA,""
"image-keyboard-response",154,178329,"0.0-3.47-2.47","lp3fnxyaf0rkkfa",876,"186.csv","","null","resources/images/coin2.png","null","",NA,NA,NA,NA,""
"image-keyboard-response",155,178824,"0.0-3.48-0.48","lp3fnxyaf0rkkfa",876,"186.csv","","494.1999999284744","resources/trios/L2T4A1.jpg","37","restless",0.9,0.7,0.7,0.58006213519606,"true"
"image-keyboard-response",156,179235,"0.0-3.48-1.48","lp3fnxyaf0rkkfa",876,"186.csv","","null","resources/maskTrios/L2BB.jpg","null","",NA,NA,NA,NA,""
"image-keyboard-response",157,180454,"0.0-3.48-2.48","lp3fnxyaf0rkkfa",876,"186.csv","","null","resources/images/coin2.png","null","",NA,NA,NA,NA,""
"image-keyboard-response",158,181370,"0.0-3.49-0.49","lp3fnxyaf0rkkfa",876,"186.csv","","913.8000000715256","resources/trios/L2T4A3.jpg","37","restless",0.9,0.7,0.7,0.102667245080494,"true"
"image-keyboard-response",159,181797,"0.0-3.49-1.49","lp3fnxyaf0rkkfa",876,"186.csv","","null","resources/maskTrios/L2BB.jpg","null","",NA,NA,NA,NA,""
"image-keyboard-response",160,183008,"0.0-3.49-2.49","lp3fnxyaf0rkkfa",876,"186.csv","","null","resources/images/coin2.png","null","",NA,NA,NA,NA,""
"image-keyboard-response",161,183296,"0.0-3.50-0.50","lp3fnxyaf0rkkfa",876,"186.csv","","286.2000000476837","resources/trios/L1T4A1.jpg","37","restless",0.8,0.7,0.7,0.0462508736895835,"true"
"image-keyboard-response",162,183707,"0.0-3.50-1.50","lp3fnxyaf0rkkfa",876,"186.csv","","null","resources/maskTrios/L1BB.jpg","null","",NA,NA,NA,NA,""
"image-keyboard-response",163,184932,"0.0-3.50-2.50","lp3fnxyaf0rkkfa",876,"186.csv","","null","resources/images/coin2.png","null","",NA,NA,NA,NA,""
"image-keyboard-response",164,185368,"0.0-3.51-0.51","lp3fnxyaf0rkkfa",876,"186.csv","","433.7000000476837","resources/trios/L1T4A1.jpg","37","restless",0.8,0.7,0.7,0.758616412838154,"true"
"image-keyboard-response",165,185782,"0.0-3.51-1.51","lp3fnxyaf0rkkfa",876,"186.csv","","null","resources/maskTrios/L1BB.jpg","null","",NA,NA,NA,NA,""
"image-keyboard-response",166,187000,"0.0-3.51-2.51","lp3fnxyaf0rkkfa",876,"186.csv","","null","resources/images/coin2.png","null","",NA,NA,NA,NA,""
"image-keyboard-response",167,187351,"0.0-3.52-0.52","lp3fnxyaf0rkkfa",876,"186.csv","","350.40000009536743","resources/trios/L1T2A3.jpg","37","restless",0.8,0.7,0.8,0.252893832491144,"true"
"image-keyboard-response",168,187783,"0.0-3.52-1.52","lp3fnxyaf0rkkfa",876,"186.csv","","null","resources/maskTrios/L1BB.jpg","null","",NA,NA,NA,NA,""
"image-keyboard-response",169,188997,"0.0-3.52-2.52","lp3fnxyaf0rkkfa",876,"186.csv","","null","resources/images/coin2.png","null","",NA,NA,NA,NA,""
"image-keyboard-response",170,190280,"0.0-3.53-0.53","lp3fnxyaf0rkkfa",876,"186.csv","","1278.9000000953674","resources/trios/L2T4A1.jpg","37","restless",0.8,0.7,0.8,0.070204462130929,"true"
"image-keyboard-response",171,190691,"0.0-3.53-1.53","lp3fnxyaf0rkkfa",876,"186.csv","","null","resources/maskTrios/L2BB.jpg","null","",NA,NA,NA,NA,""
"image-keyboard-response",172,191909,"0.0-3.53-2.53","lp3fnxyaf0rkkfa",876,"186.csv","","null","resources/images/coin2.png","null","",NA,NA,NA,NA,""
"image-keyboard-response",173,192221,"0.0-3.54-0.54","lp3fnxyaf0rkkfa",876,"186.csv","","309.3000000715256","resources/trios/L2T4A1.jpg","37","restless",0.8,0.7,0.8,0.813717145700815,"false"
"image-keyboard-response",174,192641,"0.0-3.54-1.54","lp3fnxyaf0rkkfa",876,"186.csv","","null","resources/maskTrios/L2BB.jpg","null","",NA,NA,NA,NA,""
"image-keyboard-response",175,193847,"0.0-3.54-2.54","lp3fnxyaf0rkkfa",876,"186.csv","","null","resources/images/fishbone.png","null","",NA,NA,NA,NA,""
"image-keyboard-response",176,195361,"0.0-3.55-0.55","lp3fnxyaf0rkkfa",876,"186.csv","","1512.5","resources/trios/L1T2A3.jpg","38","restless",0.9,0.7,0.8,0.150011885191857,"true"
"image-keyboard-response",177,195789,"0.0-3.55-1.55","lp3fnxyaf0rkkfa",876,"186.csv","","null","resources/maskTrios/BT2B.jpg","null","",NA,NA,NA,NA,""
"image-keyboard-response",178,197008,"0.0-3.55-2.55","lp3fnxyaf0rkkfa",876,"186.csv","","null","resources/images/coin2.png","null","",NA,NA,NA,NA,""
"image-keyboard-response",179,199510,"0.0-3.56-0.56","lp3fnxyaf0rkkfa",876,"186.csv","","2498.399999976158","resources/trios/L1T4A3.jpg","37","restless",0.9,0.7,0.8,0.907890982226868,"false"
"image-keyboard-response",180,199919,"0.0-3.56-1.56","lp3fnxyaf0rkkfa",876,"186.csv","","null","resources/maskTrios/L1BB.jpg","null","",NA,NA,NA,NA,""
"image-keyboard-response",181,201135,"0.0-3.56-2.56","lp3fnxyaf0rkkfa",876,"186.csv","","null","resources/images/fishbone.png","null","",NA,NA,NA,NA,""
"image-keyboard-response",182,202567,"0.0-3.57-0.57","lp3fnxyaf0rkkfa",876,"186.csv","","1431.1000000238419","resources/trios/L2T2A3.jpg","37","restless",0.8,0.6,0.8,0.721146082408533,"true"
"image-keyboard-response",183,202987,"0.0-3.57-1.57","lp3fnxyaf0rkkfa",876,"186.csv","","null","resources/maskTrios/L2BB.jpg","null","",NA,NA,NA,NA,""
"image-keyboard-response",184,204198,"0.0-3.57-2.57","lp3fnxyaf0rkkfa",876,"186.csv","","null","resources/images/coin2.png","null","",NA,NA,NA,NA,""
"image-keyboard-response",185,205902,"0.0-3.58-0.58","lp3fnxyaf0rkkfa",876,"186.csv","","1700.9000000953674","resources/trios/L2T4A3.jpg","37","restless",0.8,0.6,0.8,0.596644872046303,"true"
"image-keyboard-response",186,206318,"0.0-3.58-1.58","lp3fnxyaf0rkkfa",876,"186.csv","","null","resources/maskTrios/L2BB.jpg","null","",NA,NA,NA,NA,""
"image-keyboard-response",187,207538,"0.0-3.58-2.58","lp3fnxyaf0rkkfa",876,"186.csv","","null","resources/images/coin2.png","null","",NA,NA,NA,NA,""
"image-keyboard-response",188,208006,"0.0-3.59-0.59","lp3fnxyaf0rkkfa",876,"186.csv","","466.2000000476837","resources/trios/L2T4A1.jpg","37","restless",0.8,0.6,0.8,0.992298307223954,"false"
"image-keyboard-response",189,208425,"0.0-3.59-1.59","lp3fnxyaf0rkkfa",876,"186.csv","","null","resources/maskTrios/L2BB.jpg","null","",NA,NA,NA,NA,""
"image-keyboard-response",190,209643,"0.0-3.59-2.59","lp3fnxyaf0rkkfa",876,"186.csv","","null","resources/images/fishbone.png","null","",NA,NA,NA,NA,""
"image-keyboard-response",191,210058,"0.0-3.60-0.60","lp3fnxyaf0rkkfa",876,"186.csv","","413.3000000715256","resources/trios/L1T4A1.jpg","38","restless",0.8,0.6,0.8,0.0387988704859037,"true"
"image-keyboard-response",192,210461,"0.0-3.60-1.60","lp3fnxyaf0rkkfa",876,"186.csv","","null","resources/maskTrios/BT4B.jpg","null","",NA,NA,NA,NA,""
"image-keyboard-response",193,211679,"0.0-3.60-2.60","lp3fnxyaf0rkkfa",876,"186.csv","","null","resources/images/coin2.png","null","",NA,NA,NA,NA,""
"image-keyboard-response",194,212031,"0.0-3.61-0.61","lp3fnxyaf0rkkfa",876,"186.csv","","351.10000002384186","resources/trios/L2T4A3.jpg","38","restless",0.8,0.6,0.8,0.192135441925479,"true"
"image-keyboard-response",195,212450,"0.0-3.61-1.61","lp3fnxyaf0rkkfa",876,"186.csv","","null","resources/maskTrios/BT4B.jpg","null","",NA,NA,NA,NA,""
"image-keyboard-response",196,213654,"0.0-3.61-2.61","lp3fnxyaf0rkkfa",876,"186.csv","","null","resources/images/coin2.png","null","",NA,NA,NA,NA,""
"image-keyboard-response",197,215048,"0.0-3.62-0.62","lp3fnxyaf0rkkfa",876,"186.csv","","1391.8000000715256","resources/trios/L1T2A3.jpg","37","restless",0.7,0.6,0.8,0.562375276666499,"true"
"image-keyboard-response",198,215457,"0.0-3.62-1.62","lp3fnxyaf0rkkfa",876,"186.csv","","null","resources/maskTrios/L1BB.jpg","null","",NA,NA,NA,NA,""
"image-keyboard-response",199,216669,"0.0-3.62-2.62","lp3fnxyaf0rkkfa",876,"186.csv","","null","resources/images/coin2.png","null","",NA,NA,NA,NA,""
"image-keyboard-response",200,219083,"0.0-3.63-0.63","lp3fnxyaf0rkkfa",876,"186.csv","","2411.5","resources/trios/L2T2A3.jpg","37","restless",0.7,0.5,0.8,0.984976404508598,"false"
"image-keyboard-response",201,219498,"0.0-3.63-1.63","lp3fnxyaf0rkkfa",876,"186.csv","","null","resources/maskTrios/L2BB.jpg","null","",NA,NA,NA,NA,""
"image-keyboard-response",202,220701,"0.0-3.63-2.63","lp3fnxyaf0rkkfa",876,"186.csv","","null","resources/images/fishbone.png","null","",NA,NA,NA,NA,""
"image-keyboard-response",203,221347,"0.0-3.64-0.64","lp3fnxyaf0rkkfa",876,"186.csv","","645.3999999761581","resources/trios/L1T2A3.jpg","38","restless",0.6,0.5,0.8,0.320239155720355,"true"
"image-keyboard-response",204,221756,"0.0-3.64-1.64","lp3fnxyaf0rkkfa",876,"186.csv","","null","resources/maskTrios/BT2B.jpg","null","",NA,NA,NA,NA,""
"image-keyboard-response",205,222974,"0.0-3.64-2.64","lp3fnxyaf0rkkfa",876,"186.csv","","null","resources/images/coin2.png","null","",NA,NA,NA,NA,""
"image-keyboard-response",206,224092,"0.0-3.65-0.65","lp3fnxyaf0rkkfa",876,"186.csv","","1115.5","resources/trios/L1T4A1.jpg","37","restless",0.6,0.5,0.8,0.485809481822491,"true"
"image-keyboard-response",207,224509,"0.0-3.65-1.65","lp3fnxyaf0rkkfa",876,"186.csv","","null","resources/maskTrios/L1BB.jpg","null","",NA,NA,NA,NA,""
"image-keyboard-response",208,225732,"0.0-3.65-2.65","lp3fnxyaf0rkkfa",876,"186.csv","","null","resources/images/coin2.png","null","",NA,NA,NA,NA,""
"image-keyboard-response",209,226253,"0.0-3.66-0.66","lp3fnxyaf0rkkfa",876,"186.csv","","518.8999999761581","resources/trios/L1T2A1.jpg","37","restless",0.6,0.5,0.8,0.634460316963952,"false"
"image-keyboard-response",210,226667,"0.0-3.66-1.66","lp3fnxyaf0rkkfa",876,"186.csv","","null","resources/maskTrios/L1BB.jpg","null","",NA,NA,NA,NA,""
"image-keyboard-response",211,227886,"0.0-3.66-2.66","lp3fnxyaf0rkkfa",876,"186.csv","","null","resources/images/fishbone.png","null","",NA,NA,NA,NA,""
"image-keyboard-response",212,228721,"0.0-3.67-0.67","lp3fnxyaf0rkkfa",876,"186.csv","","833.3999999761581","resources/trios/L1T4A1.jpg","37","restless",0.5,0.5,0.7,0.799172880767904,"false"
"image-keyboard-response",213,229138,"0.0-3.67-1.67","lp3fnxyaf0rkkfa",876,"186.csv","","null","resources/maskTrios/L1BB.jpg","null","",NA,NA,NA,NA,""
"image-keyboard-response",214,230354,"0.0-3.67-2.67","lp3fnxyaf0rkkfa",876,"186.csv","","null","resources/images/fishbone.png","null","",NA,NA,NA,NA,""
"image-keyboard-response",215,230695,"0.0-3.68-0.68","lp3fnxyaf0rkkfa",876,"186.csv","","339.7999999523163","resources/trios/L2T4A3.jpg","38","restless",0.5,0.4,0.6,0.434287960919256,"false"
"image-keyboard-response",216,231109,"0.0-3.68-1.68","lp3fnxyaf0rkkfa",876,"186.csv","","null","resources/maskTrios/BT4B.jpg","null","",NA,NA,NA,NA,""
"image-keyboard-response",217,232325,"0.0-3.68-2.68","lp3fnxyaf0rkkfa",876,"186.csv","","null","resources/images/fishbone.png","null","",NA,NA,NA,NA,""
"image-keyboard-response",218,232595,"0.0-3.69-0.69","lp3fnxyaf0rkkfa",876,"186.csv","","268.39999997615814","resources/trios/L1T4A3.jpg","37","restless",0.5,0.4,0.6,0.446425241567224,"true"
"image-keyboard-response",219,233014,"0.0-3.69-1.69","lp3fnxyaf0rkkfa",876,"186.csv","","null","resources/maskTrios/L1BB.jpg","null","",NA,NA,NA,NA,""
"image-keyboard-response",220,234231,"0.0-3.69-2.69","lp3fnxyaf0rkkfa",876,"186.csv","","null","resources/images/coin2.png","null","",NA,NA,NA,NA,""
"image-keyboard-response",221,234768,"0.0-3.70-0.70","lp3fnxyaf0rkkfa",876,"186.csv","","534.1999999284744","resources/trios/L1T2A1.jpg","37","restless",0.5,0.4,0.6,0.694946275212491,"false"
"image-keyboard-response",222,235185,"0.0-3.70-1.70","lp3fnxyaf0rkkfa",876,"186.csv","","null","resources/maskTrios/L1BB.jpg","null","",NA,NA,NA,NA,""
"image-keyboard-response",223,236389,"0.0-3.70-2.70","lp3fnxyaf0rkkfa",876,"186.csv","","null","resources/images/fishbone.png","null","",NA,NA,NA,NA,""
"image-keyboard-response",224,236646,"0.0-3.71-0.71","lp3fnxyaf0rkkfa",876,"186.csv","","254.60000002384186","resources/trios/L2T2A3.jpg","38","restless",0.5,0.4,0.6,0.598494846609954,"false"
"image-keyboard-response",225,237068,"0.0-3.71-1.71","lp3fnxyaf0rkkfa",876,"186.csv","","null","resources/maskTrios/BT2B.jpg","null","",NA,NA,NA,NA,""
"image-keyboard-response",226,238287,"0.0-3.71-2.71","lp3fnxyaf0rkkfa",876,"186.csv","","null","resources/images/fishbone.png","null","",NA,NA,NA,NA,""
"image-keyboard-response",227,238385,"0.0-3.72-0.72","lp3fnxyaf0rkkfa",876,"186.csv","","96.10000002384186","resources/trios/L2T4A1.jpg","37","restless",0.5,0.4,0.6,0.89637345618643,"false"
"image-keyboard-response",228,238789,"0.0-3.72-1.72","lp3fnxyaf0rkkfa",876,"186.csv","","null","resources/maskTrios/L2BB.jpg","null","",NA,NA,NA,NA,""
"image-keyboard-response",229,239998,"0.0-3.72-2.72","lp3fnxyaf0rkkfa",876,"186.csv","","null","resources/images/fishbone.png","null","",NA,NA,NA,NA,""
"image-keyboard-response",230,240459,"0.0-3.73-0.73","lp3fnxyaf0rkkfa",876,"186.csv","","458.10000002384186","resources/trios/L2T2A3.jpg","39","restless",0.5,0.4,0.7,0.189466392219767,"true"
"image-keyboard-response",231,240872,"0.0-3.73-1.73","lp3fnxyaf0rkkfa",876,"186.csv","","null","resources/maskTrios/BBA3.jpg","null","",NA,NA,NA,NA,""
"image-keyboard-response",232,242103,"0.0-3.73-2.73","lp3fnxyaf0rkkfa",876,"186.csv","","null","resources/images/coin2.png","null","",NA,NA,NA,NA,""
"image-keyboard-response",233,242728,"0.0-3.74-0.74","lp3fnxyaf0rkkfa",876,"186.csv","","623.8000000715256","resources/trios/L1T2A3.jpg","39","restless",0.5,0.4,0.7,0.760625588066043,"false"
"image-keyboard-response",234,243137,"0.0-3.74-1.74","lp3fnxyaf0rkkfa",876,"186.csv","","null","resources/maskTrios/BBA3.jpg","null","",NA,NA,NA,NA,""
"image-keyboard-response",235,244357,"0.0-3.74-2.74","lp3fnxyaf0rkkfa",876,"186.csv","","null","resources/images/fishbone.png","null","",NA,NA,NA,NA,""
"image-keyboard-response",236,244568,"0.0-3.75-0.75","lp3fnxyaf0rkkfa",876,"186.csv","","209.5","resources/trios/L2T2A1.jpg","38","restless",0.5,0.4,0.7,0.436997178447793,"false"
"image-keyboard-response",237,244981,"0.0-3.75-1.75","lp3fnxyaf0rkkfa",876,"186.csv","","null","resources/maskTrios/BT2B.jpg","null","",NA,NA,NA,NA,""
"image-keyboard-response",238,246191,"0.0-3.75-2.75","lp3fnxyaf0rkkfa",876,"186.csv","","null","resources/images/fishbone.png","null","",NA,NA,NA,NA,""
"image-keyboard-response",239,246352,"0.0-3.76-0.76","lp3fnxyaf0rkkfa",876,"186.csv","","158.70000004768372","resources/trios/L1T2A1.jpg","37","restless",0.5,0.4,0.7,0.556377035334888,"false"
"image-keyboard-response",240,246761,"0.0-3.76-1.76","lp3fnxyaf0rkkfa",876,"186.csv","","null","resources/maskTrios/L1BB.jpg","null","",NA,NA,NA,NA,""
"image-keyboard-response",241,247982,"0.0-3.76-2.76","lp3fnxyaf0rkkfa",876,"186.csv","","null","resources/images/fishbone.png","null","",NA,NA,NA,NA,""
"image-keyboard-response",242,248052,"0.0-3.77-0.77","lp3fnxyaf0rkkfa",876,"186.csv","","68","resources/trios/L1T2A1.jpg","38","restless",0.5,0.4,0.6,0.291130172118372,"true"
"image-keyboard-response",243,248466,"0.0-3.77-1.77","lp3fnxyaf0rkkfa",876,"186.csv","","null","resources/maskTrios/BT2B.jpg","null","",NA,NA,NA,NA,""
"image-keyboard-response",244,249684,"0.0-3.77-2.77","lp3fnxyaf0rkkfa",876,"186.csv","","null","resources/images/coin2.png","null","",NA,NA,NA,NA,""
"image-keyboard-response",245,250345,"0.0-3.78-0.78","lp3fnxyaf0rkkfa",876,"186.csv","","660.5999999046326","resources/trios/L2T2A1.jpg","37","restless",0.5,0.4,0.6,0.456032337485658,"true"
"image-keyboard-response",246,250756,"0.0-3.78-1.78","lp3fnxyaf0rkkfa",876,"186.csv","","null","resources/maskTrios/L2BB.jpg","null","",NA,NA,NA,NA,""
"image-keyboard-response",247,251975,"0.0-3.78-2.78","lp3fnxyaf0rkkfa",876,"186.csv","","null","resources/images/coin2.png","null","",NA,NA,NA,NA,""
"image-keyboard-response",248,253314,"0.0-3.79-0.79","lp3fnxyaf0rkkfa",876,"186.csv","","1336.6999999284744","resources/trios/L2T2A3.jpg","37","restless",0.5,0.4,0.6,0.18363306908018,"true"
"image-keyboard-response",249,253733,"0.0-3.79-1.79","lp3fnxyaf0rkkfa",876,"186.csv","","null","resources/maskTrios/L2BB.jpg","null","",NA,NA,NA,NA,""
"image-keyboard-response",250,254966,"0.0-3.79-2.79","lp3fnxyaf0rkkfa",876,"186.csv","","null","resources/images/coin2.png","null","",NA,NA,NA,NA,""
"image-keyboard-response",251,255573,"0.0-3.80-0.80","lp3fnxyaf0rkkfa",876,"186.csv","","604","resources/trios/L2T4A3.jpg","37","restless",0.4,0.4,0.7,0.168596957560069,"true"
"image-keyboard-response",252,255982,"0.0-3.80-1.80","lp3fnxyaf0rkkfa",876,"186.csv","","null","resources/maskTrios/L2BB.jpg","null","",NA,NA,NA,NA,""
"image-keyboard-response",253,257200,"0.0-3.80-2.80","lp3fnxyaf0rkkfa",876,"186.csv","","null","resources/images/coin2.png","null","",NA,NA,NA,NA,""
"image-keyboard-response",254,257519,"0.0-3.81-0.81","lp3fnxyaf0rkkfa",876,"186.csv","","317.6999999284744","resources/trios/L1T4A1.jpg","37","restless",0.4,0.4,0.7,0.573531241709828,"false"
"image-keyboard-response",255,257935,"0.0-3.81-1.81","lp3fnxyaf0rkkfa",876,"186.csv","","null","resources/maskTrios/L1BB.jpg","null","",NA,NA,NA,NA,""
"image-keyboard-response",256,259148,"0.0-3.81-2.81","lp3fnxyaf0rkkfa",876,"186.csv","","null","resources/images/fishbone.png","null","",NA,NA,NA,NA,""
"image-keyboard-response",257,260969,"0.0-3.82-0.82","lp3fnxyaf0rkkfa",876,"186.csv","","1819.3000000715256","resources/trios/L1T2A3.jpg","38","restless",0.4,0.4,0.7,0.088519645756562,"true"
"image-keyboard-response",258,261385,"0.0-3.82-1.82","lp3fnxyaf0rkkfa",876,"186.csv","","null","resources/maskTrios/BT2B.jpg","null","",NA,NA,NA,NA,""
"image-keyboard-response",259,262604,"0.0-3.82-2.82","lp3fnxyaf0rkkfa",876,"186.csv","","null","resources/images/coin2.png","null","",NA,NA,NA,NA,""
"image-keyboard-response",260,263391,"0.0-3.83-0.83","lp3fnxyaf0rkkfa",876,"186.csv","","784.7000000476837","resources/trios/L2T4A1.jpg","37","restless",0.4,0.4,0.7,0.0492894620799229,"true"
"image-keyboard-response",261,263806,"0.0-3.83-1.83","lp3fnxyaf0rkkfa",876,"186.csv","","null","resources/maskTrios/L2BB.jpg","null","",NA,NA,NA,NA,""
"image-keyboard-response",262,265025,"0.0-3.83-2.83","lp3fnxyaf0rkkfa",876,"186.csv","","null","resources/images/coin2.png","null","",NA,NA,NA,NA,""
"image-keyboard-response",263,266053,"0.0-3.84-0.84","lp3fnxyaf0rkkfa",876,"186.csv","","1025.1000000238419","resources/trios/L1T4A1.jpg","37","restless",0.4,0.4,0.7,0.141436443138265,"true"
"image-keyboard-response",264,266467,"0.0-3.84-1.84","lp3fnxyaf0rkkfa",876,"186.csv","","null","resources/maskTrios/L1BB.jpg","null","",NA,NA,NA,NA,""
"image-keyboard-response",265,267686,"0.0-3.84-2.84","lp3fnxyaf0rkkfa",876,"186.csv","","null","resources/images/coin2.png","null","",NA,NA,NA,NA,""
"image-keyboard-response",266,268901,"0.0-3.85-0.85","lp3fnxyaf0rkkfa",876,"186.csv","","1213","resources/trios/L2T2A1.jpg","38","restless",0.4,0.4,0.7,0.76209345741654,"false"
"image-keyboard-response",267,269310,"0.0-3.85-1.85","lp3fnxyaf0rkkfa",876,"186.csv","","null","resources/maskTrios/BT2B.jpg","null","",NA,NA,NA,NA,""
"image-keyboard-response",268,270529,"0.0-3.85-2.85","lp3fnxyaf0rkkfa",876,"186.csv","","null","resources/images/fishbone.png","null","",NA,NA,NA,NA,""
"image-keyboard-response",269,270965,"0.0-3.86-0.86","lp3fnxyaf0rkkfa",876,"186.csv","","434.5","resources/trios/L2T2A3.jpg","37","restless",0.5,0.4,0.7,0.521662695969898,"false"
"image-keyboard-response",270,271380,"0.0-3.86-1.86","lp3fnxyaf0rkkfa",876,"186.csv","","null","resources/maskTrios/L2BB.jpg","null","",NA,NA,NA,NA,""
"image-keyboard-response",271,272599,"0.0-3.86-2.86","lp3fnxyaf0rkkfa",876,"186.csv","","null","resources/images/fishbone.png","null","",NA,NA,NA,NA,""
"image-keyboard-response",272,273214,"0.0-3.87-0.87","lp3fnxyaf0rkkfa",876,"186.csv","","612.3999999761581","resources/trios/L2T2A3.jpg","38","restless",0.4,0.4,0.7,0.944117186758218,"false"
"image-keyboard-response",273,273633,"0.0-3.87-1.87","lp3fnxyaf0rkkfa",876,"186.csv","","null","resources/maskTrios/BT2B.jpg","null","",NA,NA,NA,NA,""
"image-keyboard-response",274,274857,"0.0-3.87-2.87","lp3fnxyaf0rkkfa",876,"186.csv","","null","resources/images/fishbone.png","null","",NA,NA,NA,NA,""
"image-keyboard-response",275,274970,"0.0-3.88-0.88","lp3fnxyaf0rkkfa",876,"186.csv","","110","resources/trios/L1T2A3.jpg","37","restless",0.4,0.4,0.7,0.431057156838113,"false"
"image-keyboard-response",276,275392,"0.0-3.88-1.88","lp3fnxyaf0rkkfa",876,"186.csv","","null","resources/maskTrios/L1BB.jpg","null","",NA,NA,NA,NA,""
"image-keyboard-response",277,276596,"0.0-3.88-2.88","lp3fnxyaf0rkkfa",876,"186.csv","","null","resources/images/fishbone.png","null","",NA,NA,NA,NA,""
"image-keyboard-response",278,277507,"0.0-3.89-0.89","lp3fnxyaf0rkkfa",876,"186.csv","","909.5999999046326","resources/trios/L1T4A3.jpg","38","restless",0.4,0.4,0.8,0.366719053229307,"true"
"image-keyboard-response",279,277930,"0.0-3.89-1.89","lp3fnxyaf0rkkfa",876,"186.csv","","null","resources/maskTrios/BT4B.jpg","null","",NA,NA,NA,NA,""
"image-keyboard-response",280,279154,"0.0-3.89-2.89","lp3fnxyaf0rkkfa",876,"186.csv","","null","resources/images/coin2.png","null","",NA,NA,NA,NA,""
"image-keyboard-response",281,279588,"0.0-3.90-0.90","lp3fnxyaf0rkkfa",876,"186.csv","","433.6999999284744","resources/trios/L1T4A1.jpg","38","restless",0.4,0.4,0.8,0.927564835810327,"false"
"image-keyboard-response",282,280004,"0.0-3.90-1.90","lp3fnxyaf0rkkfa",876,"186.csv","","null","resources/maskTrios/BT4B.jpg","null","",NA,NA,NA,NA,""
"image-keyboard-response",283,281223,"0.0-3.90-2.90","lp3fnxyaf0rkkfa",876,"186.csv","","null","resources/images/fishbone.png","null","",NA,NA,NA,NA,""
"image-keyboard-response",284,281503,"0.0-3.91-0.91","lp3fnxyaf0rkkfa",876,"186.csv","","277.39999997615814","resources/trios/L1T4A3.jpg","37","restless",0.4,0.4,0.8,0.407870986425603,"false"
"image-keyboard-response",285,281918,"0.0-3.91-1.91","lp3fnxyaf0rkkfa",876,"186.csv","","null","resources/maskTrios/L1BB.jpg","null","",NA,NA,NA,NA,""
"image-keyboard-response",286,283128,"0.0-3.91-2.91","lp3fnxyaf0rkkfa",876,"186.csv","","null","resources/images/fishbone.png","null","",NA,NA,NA,NA,""
"image-keyboard-response",287,283368,"0.0-3.92-0.92","lp3fnxyaf0rkkfa",876,"186.csv","","237.29999995231628","resources/trios/L1T4A3.jpg","38","restless",0.4,0.4,0.8,0.640096135830659,"false"
"image-keyboard-response",288,283777,"0.0-3.92-1.92","lp3fnxyaf0rkkfa",876,"186.csv","","null","resources/maskTrios/BT4B.jpg","null","",NA,NA,NA,NA,""
"image-keyboard-response",289,284995,"0.0-3.92-2.92","lp3fnxyaf0rkkfa",876,"186.csv","","null","resources/images/fishbone.png","null","",NA,NA,NA,NA,""
"image-keyboard-response",290,286286,"0.0-3.93-0.93","lp3fnxyaf0rkkfa",876,"186.csv","","1289","resources/trios/L1T2A3.jpg","38","restless",0.3,0.4,0.8,0.170731370422097,"true"
"image-keyboard-response",291,286700,"0.0-3.93-1.93","lp3fnxyaf0rkkfa",876,"186.csv","","null","resources/maskTrios/BT2B.jpg","null","",NA,NA,NA,NA,""
"image-keyboard-response",292,287926,"0.0-3.93-2.93","lp3fnxyaf0rkkfa",876,"186.csv","","null","resources/images/coin2.png","null","",NA,NA,NA,NA,""
"image-keyboard-response",293,289592,"0.0-3.94-0.94","lp3fnxyaf0rkkfa",876,"186.csv","","1664.3000000715256","resources/trios/L1T2A3.jpg","38","restless",0.2,0.4,0.8,0.157698997494182,"true"
"image-keyboard-response",294,289997,"0.0-3.94-1.94","lp3fnxyaf0rkkfa",876,"186.csv","","null","resources/maskTrios/BT2B.jpg","null","",NA,NA,NA,NA,""
"image-keyboard-response",295,291216,"0.0-3.94-2.94","lp3fnxyaf0rkkfa",876,"186.csv","","null","resources/images/coin2.png","null","",NA,NA,NA,NA,""
"image-keyboard-response",296,291863,"0.0-3.95-0.95","lp3fnxyaf0rkkfa",876,"186.csv","","645","resources/trios/L1T4A3.jpg","37","restless",0.2,0.4,0.8,0.53602825280868,"false"
"image-keyboard-response",297,292279,"0.0-3.95-1.95","lp3fnxyaf0rkkfa",876,"186.csv","","null","resources/maskTrios/L1BB.jpg","null","",NA,NA,NA,NA,""
"image-keyboard-response",298,293488,"0.0-3.95-2.95","lp3fnxyaf0rkkfa",876,"186.csv","","null","resources/images/fishbone.png","null","",NA,NA,NA,NA,""
"image-keyboard-response",299,293706,"0.0-3.96-0.96","lp3fnxyaf0rkkfa",876,"186.csv","","215.29999995231628","resources/trios/L1T2A1.jpg","38","restless",0.2,0.4,0.9,0.115093188197378,"true"
"image-keyboard-response",300,294120,"0.0-3.96-1.96","lp3fnxyaf0rkkfa",876,"186.csv","","null","resources/maskTrios/BT2B.jpg","null","",NA,NA,NA,NA,""
"image-keyboard-response",301,295346,"0.0-3.96-2.96","lp3fnxyaf0rkkfa",876,"186.csv","","null","resources/images/coin2.png","null","",NA,NA,NA,NA,""
"image-keyboard-response",302,296101,"0.0-3.97-0.97","lp3fnxyaf0rkkfa",876,"186.csv","","753.1999999284744","resources/trios/L1T4A3.jpg","37","restless",0.2,0.4,0.9,0.285324932083456,"false"
"image-keyboard-response",303,296510,"0.0-3.97-1.97","lp3fnxyaf0rkkfa",876,"186.csv","","null","resources/maskTrios/L1BB.jpg","null","",NA,NA,NA,NA,""
"image-keyboard-response",304,297716,"0.0-3.97-2.97","lp3fnxyaf0rkkfa",876,"186.csv","","null","resources/images/fishbone.png","null","",NA,NA,NA,NA,""
"image-keyboard-response",305,297743,"0.0-3.98-0.98","lp3fnxyaf0rkkfa",876,"186.csv","","24.299999952316284","resources/trios/L1T2A3.jpg","38","restless",0.2,0.4,0.9,0.478021642652728,"false"
"image-keyboard-response",306,298151,"0.0-3.98-1.98","lp3fnxyaf0rkkfa",876,"186.csv","","null","resources/maskTrios/BT2B.jpg","null","",NA,NA,NA,NA,""
"image-keyboard-response",307,299371,"0.0-3.98-2.98","lp3fnxyaf0rkkfa",876,"186.csv","","null","resources/images/fishbone.png","null","",NA,NA,NA,NA,""
"image-keyboard-response",308,299633,"0.0-3.99-0.99","lp3fnxyaf0rkkfa",876,"186.csv","","259","resources/trios/L2T2A1.jpg","38","restless",0.2,0.4,0.9,0.0182662972423859,"true"
"image-keyboard-response",309,300044,"0.0-3.99-1.99","lp3fnxyaf0rkkfa",876,"186.csv","","null","resources/maskTrios/BT2B.jpg","null","",NA,NA,NA,NA,""
"image-keyboard-response",310,301261,"0.0-3.99-2.99","lp3fnxyaf0rkkfa",876,"186.csv","","null","resources/images/coin2.png","null","",NA,NA,NA,NA,""
"image-keyboard-response",311,301558,"0.0-3.100-0.100","lp3fnxyaf0rkkfa",876,"186.csv","","294.5","resources/trios/L1T2A3.jpg","38","restless",0.2,0.5,0.9,0.877532114424612,"false"
"image-keyboard-response",312,301979,"0.0-3.100-1.100","lp3fnxyaf0rkkfa",876,"186.csv","","null","resources/maskTrios/BT2B.jpg","null","",NA,NA,NA,NA,""
"image-keyboard-response",313,303183,"0.0-3.100-2.100","lp3fnxyaf0rkkfa",876,"186.csv","","null","resources/images/fishbone.png","null","",NA,NA,NA,NA,""
"image-keyboard-response",314,303605,"0.0-3.101-0.101","lp3fnxyaf0rkkfa",876,"186.csv","","420.2000000476837","resources/trios/L1T4A1.jpg","37","restless",0.2,0.5,0.9,0.010648916328466,"true"
"image-keyboard-response",315,304013,"0.0-3.101-1.101","lp3fnxyaf0rkkfa",876,"186.csv","","null","resources/maskTrios/L1BB.jpg","null","",NA,NA,NA,NA,""
"image-keyboard-response",316,305232,"0.0-3.101-2.101","lp3fnxyaf0rkkfa",876,"186.csv","","null","resources/images/coin2.png","null","",NA,NA,NA,NA,""
"image-keyboard-response",317,305443,"0.0-3.102-0.102","lp3fnxyaf0rkkfa",876,"186.csv","","208.89999997615814","resources/trios/L2T4A3.jpg","37","restless",0.2,0.5,0.8,0.293157756556858,"false"
"image-keyboard-response",318,305850,"0.0-3.102-1.102","lp3fnxyaf0rkkfa",876,"186.csv","","null","resources/maskTrios/L2BB.jpg","null","",NA,NA,NA,NA,""
"image-keyboard-response",319,307070,"0.0-3.102-2.102","lp3fnxyaf0rkkfa",876,"186.csv","","null","resources/images/fishbone.png","null","",NA,NA,NA,NA,""
"image-keyboard-response",320,307203,"0.0-3.103-0.103","lp3fnxyaf0rkkfa",876,"186.csv","","130.5","resources/trios/L2T2A3.jpg","38","restless",0.2,0.5,0.9,0.98499836193135,"false"
"image-keyboard-response",321,307624,"0.0-3.103-1.103","lp3fnxyaf0rkkfa",876,"186.csv","","null","resources/maskTrios/BT2B.jpg","null","",NA,NA,NA,NA,""
"image-keyboard-response",322,308841,"0.0-3.103-2.103","lp3fnxyaf0rkkfa",876,"186.csv","","null","resources/images/fishbone.png","null","",NA,NA,NA,NA,""
"image-keyboard-response",323,309056,"0.0-3.104-0.104","lp3fnxyaf0rkkfa",876,"186.csv","","213.5","resources/trios/L2T2A3.jpg","38","restless",0.2,0.5,0.9,0.825140081957968,"false"
"image-keyboard-response",324,309482,"0.0-3.104-1.104","lp3fnxyaf0rkkfa",876,"186.csv","","null","resources/maskTrios/BT2B.jpg","null","",NA,NA,NA,NA,""
"image-keyboard-response",325,310686,"0.0-3.104-2.104","lp3fnxyaf0rkkfa",876,"186.csv","","null","resources/images/fishbone.png","null","",NA,NA,NA,NA,""
"image-keyboard-response",326,310904,"0.0-3.105-0.105","lp3fnxyaf0rkkfa",876,"186.csv","","215.59999990463257","resources/trios/L2T2A1.jpg","37","restless",0.2,0.5,0.9,0.398949032371321,"false"
"image-keyboard-response",327,311310,"0.0-3.105-1.105","lp3fnxyaf0rkkfa",876,"186.csv","","null","resources/maskTrios/L2BB.jpg","null","",NA,NA,NA,NA,""
"image-keyboard-response",328,312523,"0.0-3.105-2.105","lp3fnxyaf0rkkfa",876,"186.csv","","null","resources/images/fishbone.png","null","",NA,NA,NA,NA,""
"image-keyboard-response",329,312798,"0.0-3.106-0.106","lp3fnxyaf0rkkfa",876,"186.csv","","274","resources/trios/L1T2A1.jpg","39","restless",0.2,0.5,0.9,0.503271324445279,"true"
"image-keyboard-response",330,313217,"0.0-3.106-1.106","lp3fnxyaf0rkkfa",876,"186.csv","","null","resources/maskTrios/BBA1.jpg","null","",NA,NA,NA,NA,""
"image-keyboard-response",331,314426,"0.0-3.106-2.106","lp3fnxyaf0rkkfa",876,"186.csv","","null","resources/images/coin2.png","null","",NA,NA,NA,NA,""
"image-keyboard-response",332,316268,"0.0-3.107-0.107","lp3fnxyaf0rkkfa",876,"186.csv","","1839.1999999284744","resources/trios/L2T2A3.jpg","37","restless",0.2,0.5,0.8,0.221703665372572,"false"
"image-keyboard-response",333,316679,"0.0-3.107-1.107","lp3fnxyaf0rkkfa",876,"186.csv","","null","resources/maskTrios/L2BB.jpg","null","",NA,NA,NA,NA,""
"image-keyboard-response",334,317906,"0.0-3.107-2.107","lp3fnxyaf0rkkfa",876,"186.csv","","null","resources/images/fishbone.png","null","",NA,NA,NA,NA,""
"image-keyboard-response",335,319052,"0.0-3.108-0.108","lp3fnxyaf0rkkfa",876,"186.csv","","1143.9000000953674","resources/trios/L2T2A3.jpg","38","restless",0.2,0.5,0.8,0.218795005671562,"true"
"image-keyboard-response",336,319471,"0.0-3.108-1.108","lp3fnxyaf0rkkfa",876,"186.csv","","null","resources/maskTrios/BT2B.jpg","null","",NA,NA,NA,NA,""
"image-keyboard-response",337,320685,"0.0-3.108-2.108","lp3fnxyaf0rkkfa",876,"186.csv","","null","resources/images/coin2.png","null","",NA,NA,NA,NA,""
"image-keyboard-response",338,322015,"0.0-3.109-0.109","lp3fnxyaf0rkkfa",876,"186.csv","","1327","resources/trios/L1T4A3.jpg","37","restless",0.2,0.5,0.8,0.656472540275512,"false"
"image-keyboard-response",339,322435,"0.0-3.109-1.109","lp3fnxyaf0rkkfa",876,"186.csv","","null","resources/maskTrios/L1BB.jpg","null","",NA,NA,NA,NA,""
"image-keyboard-response",340,323654,"0.0-3.109-2.109","lp3fnxyaf0rkkfa",876,"186.csv","","null","resources/images/fishbone.png","null","",NA,NA,NA,NA,""
"image-keyboard-response",341,323877,"0.0-3.110-0.110","lp3fnxyaf0rkkfa",876,"186.csv","","221.40000009536743","resources/trios/L2T2A1.jpg","38","restless",0.2,0.5,0.8,0.805233462541859,"false"
"image-keyboard-response",342,324295,"0.0-3.110-1.110","lp3fnxyaf0rkkfa",876,"186.csv","","null","resources/maskTrios/BT2B.jpg","null","",NA,NA,NA,NA,""
"image-keyboard-response",343,325513,"0.0-3.110-2.110","lp3fnxyaf0rkkfa",876,"186.csv","","null","resources/images/fishbone.png","null","",NA,NA,NA,NA,""
"image-keyboard-response",344,325741,"0.0-3.111-0.111","lp3fnxyaf0rkkfa",876,"186.csv","","226","resources/trios/L1T2A1.jpg","38","restless",0.2,0.5,0.8,0.770341067878935,"false"
"image-keyboard-response",345,326154,"0.0-3.111-1.111","lp3fnxyaf0rkkfa",876,"186.csv","","null","resources/maskTrios/BT2B.jpg","null","",NA,NA,NA,NA,""
"image-keyboard-response",346,327357,"0.0-3.111-2.111","lp3fnxyaf0rkkfa",876,"186.csv","","null","resources/images/fishbone.png","null","",NA,NA,NA,NA,""
"image-keyboard-response",347,328293,"0.0-3.112-0.112","lp3fnxyaf0rkkfa",876,"186.csv","","934.5","resources/trios/L2T2A1.jpg","37","restless",0.3,0.5,0.8,0.149919194351387,"true"
"image-keyboard-response",348,328702,"0.0-3.112-1.112","lp3fnxyaf0rkkfa",876,"186.csv","","null","resources/maskTrios/L2BB.jpg","null","",NA,NA,NA,NA,""
"image-keyboard-response",349,329909,"0.0-3.112-2.112","lp3fnxyaf0rkkfa",876,"186.csv","","null","resources/images/coin2.png","null","",NA,NA,NA,NA,""
"image-keyboard-response",350,333122,"0.0-3.113-0.113","lp3fnxyaf0rkkfa",876,"186.csv","","3210.2000000476837","resources/trios/L1T2A3.jpg","37","restless",0.3,0.5,0.8,0.448281916898803,"false"
"image-keyboard-response",351,333529,"0.0-3.113-1.113","lp3fnxyaf0rkkfa",876,"186.csv","","null","resources/maskTrios/L1BB.jpg","null","",NA,NA,NA,NA,""
"image-keyboard-response",352,334745,"0.0-3.113-2.113","lp3fnxyaf0rkkfa",876,"186.csv","","null","resources/images/fishbone.png","null","",NA,NA,NA,NA,""
"image-keyboard-response",353,334985,"0.0-3.114-0.114","lp3fnxyaf0rkkfa",876,"186.csv","","238.90000009536743","resources/trios/L1T2A1.jpg","38","restless",0.3,0.5,0.8,0.215781984549487,"true"
"image-keyboard-response",354,335404,"0.0-3.114-1.114","lp3fnxyaf0rkkfa",876,"186.csv","","null","resources/maskTrios/BT2B.jpg","null","",NA,NA,NA,NA,""
"image-keyboard-response",355,336623,"0.0-3.114-2.114","lp3fnxyaf0rkkfa",876,"186.csv","","null","resources/images/coin2.png","null","",NA,NA,NA,NA,""
"image-keyboard-response",356,337140,"0.0-3.115-0.115","lp3fnxyaf0rkkfa",876,"186.csv","","515.1999999284744","resources/trios/L1T2A1.jpg","38","restless",0.3,0.5,0.8,0.465572050420017,"true"
"image-keyboard-response",357,337560,"0.0-3.115-1.115","lp3fnxyaf0rkkfa",876,"186.csv","","null","resources/maskTrios/BT2B.jpg","null","",NA,NA,NA,NA,""
"image-keyboard-response",358,338769,"0.0-3.115-2.115","lp3fnxyaf0rkkfa",876,"186.csv","","null","resources/images/coin2.png","null","",NA,NA,NA,NA,""
"image-keyboard-response",359,339855,"0.0-3.116-0.116","lp3fnxyaf0rkkfa",876,"186.csv","","1083.9000000953674","resources/trios/L1T2A3.jpg","37","restless",0.3,0.5,0.8,0.134573660976397,"true"
"image-keyboard-response",360,340273,"0.0-3.116-1.116","lp3fnxyaf0rkkfa",876,"186.csv","","null","resources/maskTrios/L1BB.jpg","null","",NA,NA,NA,NA,""
"image-keyboard-response",361,341483,"0.0-3.116-2.116","lp3fnxyaf0rkkfa",876,"186.csv","","null","resources/images/coin2.png","null","",NA,NA,NA,NA,""
"image-keyboard-response",362,342516,"0.0-3.117-0.117","lp3fnxyaf0rkkfa",876,"186.csv","","1032","resources/trios/L2T4A1.jpg","38","restless",0.3,0.4,0.8,0.92924394761301,"false"
"image-keyboard-response",363,342936,"0.0-3.117-1.117","lp3fnxyaf0rkkfa",876,"186.csv","","null","resources/maskTrios/BT4B.jpg","null","",NA,NA,NA,NA,""
"image-keyboard-response",364,344154,"0.0-3.117-2.117","lp3fnxyaf0rkkfa",876,"186.csv","","null","resources/images/fishbone.png","null","",NA,NA,NA,NA,""
"image-keyboard-response",365,344881,"0.0-3.118-0.118","lp3fnxyaf0rkkfa",876,"186.csv","","724.8000000715256","resources/trios/L2T2A1.jpg","37","restless",0.3,0.4,0.8,0.301046142401956,"false"
"image-keyboard-response",366,345300,"0.0-3.118-1.118","lp3fnxyaf0rkkfa",876,"186.csv","","null","resources/maskTrios/L2BB.jpg","null","",NA,NA,NA,NA,""
"image-keyboard-response",367,346513,"0.0-3.118-2.118","lp3fnxyaf0rkkfa",876,"186.csv","","null","resources/images/fishbone.png","null","",NA,NA,NA,NA,""
"image-keyboard-response",368,347013,"0.0-3.119-0.119","lp3fnxyaf0rkkfa",876,"186.csv","","496.89999997615814","resources/trios/L2T2A1.jpg","38","restless",0.3,0.4,0.8,0.658779782069265,"false"
"image-keyboard-response",369,347435,"0.0-3.119-1.119","lp3fnxyaf0rkkfa",876,"186.csv","","null","resources/maskTrios/BT2B.jpg","null","",NA,NA,NA,NA,""
"image-keyboard-response",370,348639,"0.0-3.119-2.119","lp3fnxyaf0rkkfa",876,"186.csv","","null","resources/images/fishbone.png","null","",NA,NA,NA,NA,""
"image-keyboard-response",371,349404,"0.0-3.120-0.120","lp3fnxyaf0rkkfa",876,"186.csv","","762.5","resources/trios/L1T2A3.jpg","38","restless",0.3,0.4,0.8,0.305599916351112,"true"
"image-keyboard-response",372,349828,"0.0-3.120-1.120","lp3fnxyaf0rkkfa",876,"186.csv","","null","resources/maskTrios/BT2B.jpg","null","",NA,NA,NA,NA,""
"image-keyboard-response",373,351047,"0.0-3.120-2.120","lp3fnxyaf0rkkfa",876,"186.csv","","null","resources/images/coin2.png","null","",NA,NA,NA,NA,""
"image-keyboard-response",374,351556,"0.0-3.121-0.121","lp3fnxyaf0rkkfa",876,"186.csv","","506.10000002384186","resources/trios/L2T2A3.jpg","38","restless",0.3,0.4,0.8,0.721979078186953,"false"
"image-keyboard-response",375,351986,"0.0-3.121-1.121","lp3fnxyaf0rkkfa",876,"186.csv","","null","resources/maskTrios/BT2B.jpg","null","",NA,NA,NA,NA,""
"image-keyboard-response",376,353204,"0.0-3.121-2.121","lp3fnxyaf0rkkfa",876,"186.csv","","null","resources/images/fishbone.png","null","",NA,NA,NA,NA,""
"image-keyboard-response",377,354647,"0.0-3.122-0.122","lp3fnxyaf0rkkfa",876,"186.csv","","1440.4000000953674","resources/trios/L2T4A3.jpg","38","restless",0.3,0.4,0.9,0.548870671516152,"false"
"image-keyboard-response",378,355055,"0.0-3.122-1.122","lp3fnxyaf0rkkfa",876,"186.csv","","null","resources/maskTrios/BT4B.jpg","null","",NA,NA,NA,NA,""
"image-keyboard-response",379,356263,"0.0-3.122-2.122","lp3fnxyaf0rkkfa",876,"186.csv","","null","resources/images/fishbone.png","null","",NA,NA,NA,NA,""
"image-keyboard-response",380,356767,"0.0-3.123-0.123","lp3fnxyaf0rkkfa",876,"186.csv","","501.39999997615814","resources/trios/L2T2A3.jpg","37","restless",0.3,0.4,0.9,0.471289691702636,"false"
"image-keyboard-response",381,357199,"0.0-3.123-1.123","lp3fnxyaf0rkkfa",876,"186.csv","","null","resources/maskTrios/L2BB.jpg","null","",NA,NA,NA,NA,""
"image-keyboard-response",382,358420,"0.0-3.123-2.123","lp3fnxyaf0rkkfa",876,"186.csv","","null","resources/images/fishbone.png","null","",NA,NA,NA,NA,""
"image-keyboard-response",383,358632,"0.0-3.124-0.124","lp3fnxyaf0rkkfa",876,"186.csv","","210.60000002384186","resources/trios/L1T4A3.jpg","38","restless",0.3,0.4,0.9,0.68354148176447,"false"
"image-keyboard-response",384,359050,"0.0-3.124-1.124","lp3fnxyaf0rkkfa",876,"186.csv","","null","resources/maskTrios/BT4B.jpg","null","",NA,NA,NA,NA,""
"image-keyboard-response",385,360253,"0.0-3.124-2.124","lp3fnxyaf0rkkfa",876,"186.csv","","null","resources/images/fishbone.png","null","",NA,NA,NA,NA,""
"image-keyboard-response",386,360539,"0.0-3.125-0.125","lp3fnxyaf0rkkfa",876,"186.csv","","283.5","resources/trios/L2T2A1.jpg","38","restless",0.3,0.4,0.9,0.599011608720454,"false"
"image-keyboard-response",387,360953,"0.0-3.125-1.125","lp3fnxyaf0rkkfa",876,"186.csv","","null","resources/maskTrios/BT2B.jpg","null","",NA,NA,NA,NA,""
"image-keyboard-response",388,362173,"0.0-3.125-2.125","lp3fnxyaf0rkkfa",876,"186.csv","","null","resources/images/fishbone.png","null","",NA,NA,NA,NA,""
"image-keyboard-response",389,363009,"0.0-3.126-0.126","lp3fnxyaf0rkkfa",876,"186.csv","","834.1999999284744","resources/trios/L2T4A1.jpg","37","restless",0.4,0.4,0.9,0.0504751732426645,"true"
"image-keyboard-response",390,363420,"0.0-3.126-1.126","lp3fnxyaf0rkkfa",876,"186.csv","","null","resources/maskTrios/L2BB.jpg","null","",NA,NA,NA,NA,""
"image-keyboard-response",391,364632,"0.0-3.126-2.126","lp3fnxyaf0rkkfa",876,"186.csv","","null","resources/images/coin2.png","null","",NA,NA,NA,NA,""
"image-keyboard-response",392,365065,"0.0-3.127-0.127","lp3fnxyaf0rkkfa",876,"186.csv","","430.60000002384186","resources/trios/L1T2A1.jpg","37","restless",0.4,0.4,0.9,0.223847395836877,"true"
"image-keyboard-response",393,365483,"0.0-3.127-1.127","lp3fnxyaf0rkkfa",876,"186.csv","","null","resources/maskTrios/L1BB.jpg","null","",NA,NA,NA,NA,""
"image-keyboard-response",394,366698,"0.0-3.127-2.127","lp3fnxyaf0rkkfa",876,"186.csv","","null","resources/images/coin2.png","null","",NA,NA,NA,NA,""
"image-keyboard-response",395,367034,"0.0-3.128-0.128","lp3fnxyaf0rkkfa",876,"186.csv","","333","resources/trios/L1T2A1.jpg","37","restless",0.4,0.4,0.9,0.762213449682177,"false"
"image-keyboard-response",396,367451,"0.0-3.128-1.128","lp3fnxyaf0rkkfa",876,"186.csv","","null","resources/maskTrios/L1BB.jpg","null","",NA,NA,NA,NA,""
"image-keyboard-response",397,368658,"0.0-3.128-2.128","lp3fnxyaf0rkkfa",876,"186.csv","","null","resources/images/fishbone.png","null","",NA,NA,NA,NA,""
"image-keyboard-response",398,368796,"0.0-3.129-0.129","lp3fnxyaf0rkkfa",876,"186.csv","","135.70000004768372","resources/trios/L2T4A1.jpg","38","restless",0.4,0.3,0.9,0.757025827309278,"false"
"image-keyboard-response",399,369217,"0.0-3.129-1.129","lp3fnxyaf0rkkfa",876,"186.csv","","null","resources/maskTrios/BT4B.jpg","null","",NA,NA,NA,NA,""
"image-keyboard-response",400,370431,"0.0-3.129-2.129","lp3fnxyaf0rkkfa",876,"186.csv","","null","resources/images/fishbone.png","null","",NA,NA,NA,NA,""
"image-keyboard-response",401,371151,"0.0-3.130-0.130","lp3fnxyaf0rkkfa",876,"186.csv","","717.5999999046326","resources/trios/L1T2A1.jpg","38","restless",0.4,0.3,0.9,0.588757331448935,"false"
"image-keyboard-response",402,371560,"0.0-3.130-1.130","lp3fnxyaf0rkkfa",876,"186.csv","","null","resources/maskTrios/BT2B.jpg","null","",NA,NA,NA,NA,""
"image-keyboard-response",403,372767,"0.0-3.130-2.130","lp3fnxyaf0rkkfa",876,"186.csv","","null","resources/images/fishbone.png","null","",NA,NA,NA,NA,""
"image-keyboard-response",404,373488,"0.0-3.131-0.131","lp3fnxyaf0rkkfa",876,"186.csv","","720.2000000476837","resources/trios/L2T4A3.jpg","37","restless",0.4,0.3,0.9,0.521093462190547,"false"
"image-keyboard-response",405,373904,"0.0-3.131-1.131","lp3fnxyaf0rkkfa",876,"186.csv","","null","resources/maskTrios/L2BB.jpg","null","",NA,NA,NA,NA,""
"image-keyboard-response",406,375123,"0.0-3.131-2.131","lp3fnxyaf0rkkfa",876,"186.csv","","null","resources/images/fishbone.png","null","",NA,NA,NA,NA,""
"image-keyboard-response",407,375827,"0.0-3.132-0.132","lp3fnxyaf0rkkfa",876,"186.csv","","702.3999999761581","resources/trios/L2T2A1.jpg","38","restless",0.4,0.3,0.9,0.48900261656663,"false"
"image-keyboard-response",408,376248,"0.0-3.132-1.132","lp3fnxyaf0rkkfa",876,"186.csv","","null","resources/maskTrios/BT2B.jpg","null","",NA,NA,NA,NA,""
"image-keyboard-response",409,377461,"0.0-3.132-2.132","lp3fnxyaf0rkkfa",876,"186.csv","","null","resources/images/fishbone.png","null","",NA,NA,NA,NA,""
"image-keyboard-response",410,377775,"0.0-3.133-0.133","lp3fnxyaf0rkkfa",876,"186.csv","","311.2999999523163","resources/trios/L2T4A3.jpg","37","restless",0.4,0.3,0.9,0.745567809821792,"false"
"image-keyboard-response",411,378186,"0.0-3.133-1.133","lp3fnxyaf0rkkfa",876,"186.csv","","null","resources/maskTrios/L2BB.jpg","null","",NA,NA,NA,NA,""
"image-keyboard-response",412,379398,"0.0-3.133-2.133","lp3fnxyaf0rkkfa",876,"186.csv","","null","resources/images/fishbone.png","null","",NA,NA,NA,NA,""
"image-keyboard-response",413,379542,"0.0-3.134-0.134","lp3fnxyaf0rkkfa",876,"186.csv","","142.39999997615814","resources/trios/L1T2A3.jpg","38","restless",0.4,0.3,0.9,0.517485166913443,"false"
"image-keyboard-response",414,379951,"0.0-3.134-1.134","lp3fnxyaf0rkkfa",876,"186.csv","","null","resources/maskTrios/BT2B.jpg","null","",NA,NA,NA,NA,""
"image-keyboard-response",415,381170,"0.0-3.134-2.134","lp3fnxyaf0rkkfa",876,"186.csv","","null","resources/images/fishbone.png","null","",NA,NA,NA,NA,""
"image-keyboard-response",416,381426,"0.0-3.135-0.135","lp3fnxyaf0rkkfa",876,"186.csv","","253.79999995231628","resources/trios/L2T4A1.jpg","39","restless",0.4,0.3,0.9,0.541983484323332,"true"
"image-keyboard-response",417,381842,"0.0-3.135-1.135","lp3fnxyaf0rkkfa",876,"186.csv","","null","resources/maskTrios/BBA1.jpg","null","",NA,NA,NA,NA,""
"image-keyboard-response",418,383061,"0.0-3.135-2.135","lp3fnxyaf0rkkfa",876,"186.csv","","null","resources/images/coin2.png","null","",NA,NA,NA,NA,""
"image-keyboard-response",419,384583,"0.0-3.136-0.136","lp3fnxyaf0rkkfa",876,"186.csv","","1520.7999999523163","resources/trios/L1T4A3.jpg","38","restless",0.3,0.3,0.9,0.778303390858032,"false"
"image-keyboard-response",420,384997,"0.0-3.136-1.136","lp3fnxyaf0rkkfa",876,"186.csv","","null","resources/maskTrios/BT4B.jpg","null","",NA,NA,NA,NA,""
"image-keyboard-response",421,386210,"0.0-3.136-2.136","lp3fnxyaf0rkkfa",876,"186.csv","","null","resources/images/fishbone.png","null","",NA,NA,NA,NA,""
"image-keyboard-response",422,386732,"0.0-3.137-0.137","lp3fnxyaf0rkkfa",876,"186.csv","","520.2000000476837","resources/trios/L2T2A3.jpg","37","restless",0.3,0.2,0.9,0.18133275883445,"true"
"image-keyboard-response",423,387152,"0.0-3.137-1.137","lp3fnxyaf0rkkfa",876,"186.csv","","null","resources/maskTrios/L2BB.jpg","null","",NA,NA,NA,NA,""
"image-keyboard-response",424,388358,"0.0-3.137-2.137","lp3fnxyaf0rkkfa",876,"186.csv","","null","resources/images/coin2.png","null","",NA,NA,NA,NA,""
"image-keyboard-response",425,389116,"0.0-3.138-0.138","lp3fnxyaf0rkkfa",876,"186.csv","","756.3999999761581","resources/trios/L1T2A1.jpg","39","restless",0.3,0.2,0.9,0.518443298877414,"true"
"image-keyboard-response",426,389535,"0.0-3.138-1.138","lp3fnxyaf0rkkfa",876,"186.csv","","null","resources/maskTrios/BBA1.jpg","null","",NA,NA,NA,NA,""
"image-keyboard-response",427,390743,"0.0-3.138-2.138","lp3fnxyaf0rkkfa",876,"186.csv","","null","resources/images/coin2.png","null","",NA,NA,NA,NA,""
"image-keyboard-response",428,392182,"0.0-3.139-0.139","lp3fnxyaf0rkkfa",876,"186.csv","","1436.1000000238419","resources/trios/L2T2A3.jpg","38","restless",0.3,0.2,0.9,0.387679862474275,"false"
"image-keyboard-response",429,392602,"0.0-3.139-1.139","lp3fnxyaf0rkkfa",876,"186.csv","","null","resources/maskTrios/BT2B.jpg","null","",NA,NA,NA,NA,""
"image-keyboard-response",430,393804,"0.0-3.139-2.139","lp3fnxyaf0rkkfa",876,"186.csv","","null","resources/images/fishbone.png","null","",NA,NA,NA,NA,""
"image-keyboard-response",431,394561,"0.0-3.140-0.140","lp3fnxyaf0rkkfa",876,"186.csv","","754.6000000238419","resources/trios/L1T2A1.jpg","37","restless",0.3,0.2,0.9,0.365277892491812,"false"
"image-keyboard-response",432,394966,"0.0-3.140-1.140","lp3fnxyaf0rkkfa",876,"186.csv","","null","resources/maskTrios/L1BB.jpg","null","",NA,NA,NA,NA,""
"image-keyboard-response",433,396194,"0.0-3.140-2.140","lp3fnxyaf0rkkfa",876,"186.csv","","null","resources/images/fishbone.png","null","",NA,NA,NA,NA,""
"image-keyboard-response",434,397370,"0.0-3.141-0.141","lp3fnxyaf0rkkfa",876,"186.csv","","1173.7999999523163","resources/trios/L2T2A3.jpg","38","restless",0.3,0.2,0.9,0.635850245780295,"false"
"image-keyboard-response",435,397776,"0.0-3.141-1.141","lp3fnxyaf0rkkfa",876,"186.csv","","null","resources/maskTrios/BT2B.jpg","null","",NA,NA,NA,NA,""
"image-keyboard-response",436,398982,"0.0-3.141-2.141","lp3fnxyaf0rkkfa",876,"186.csv","","null","resources/images/fishbone.png","null","",NA,NA,NA,NA,""
"image-keyboard-response",437,399427,"0.0-3.142-0.142","lp3fnxyaf0rkkfa",876,"186.csv","","443.59999990463257","resources/trios/L1T4A3.jpg","37","restless",0.2,0.2,0.9,0.957074526813973,"false"
"image-keyboard-response",438,399853,"0.0-3.142-1.142","lp3fnxyaf0rkkfa",876,"186.csv","","null","resources/maskTrios/L1BB.jpg","null","",NA,NA,NA,NA,""
"image-keyboard-response",439,401071,"0.0-3.142-2.142","lp3fnxyaf0rkkfa",876,"186.csv","","null","resources/images/fishbone.png","null","",NA,NA,NA,NA,""
"image-keyboard-response",440,401641,"0.0-3.143-0.143","lp3fnxyaf0rkkfa",876,"186.csv","","568.6000000238419","resources/trios/L2T2A3.jpg","38","restless",0.2,0.2,0.8,0.467595458867701,"false"
"image-keyboard-response",441,402046,"0.0-3.143-1.143","lp3fnxyaf0rkkfa",876,"186.csv","","null","resources/maskTrios/BT2B.jpg","null","",NA,NA,NA,NA,""
"image-keyboard-response",442,403264,"0.0-3.143-2.143","lp3fnxyaf0rkkfa",876,"186.csv","","null","resources/images/fishbone.png","null","",NA,NA,NA,NA,""
"image-keyboard-response",443,403487,"0.0-3.144-0.144","lp3fnxyaf0rkkfa",876,"186.csv","","221.69999992847443","resources/trios/L2T2A3.jpg","37","restless",0.2,0.2,0.8,0.814751295341532,"false"
"image-keyboard-response",444,403917,"0.0-3.144-1.144","lp3fnxyaf0rkkfa",876,"186.csv","","null","resources/maskTrios/L2BB.jpg","null","",NA,NA,NA,NA,""
"image-keyboard-response",445,405136,"0.0-3.144-2.144","lp3fnxyaf0rkkfa",876,"186.csv","","null","resources/images/fishbone.png","null","",NA,NA,NA,NA,""
"image-keyboard-response",446,405738,"0.0-3.145-0.145","lp3fnxyaf0rkkfa",876,"186.csv","","599.0999999046326","resources/trios/L2T2A3.jpg","39","restless",0.2,0.2,0.8,0.0708947513685556,"true"
"image-keyboard-response",447,406154,"0.0-3.145-1.145","lp3fnxyaf0rkkfa",876,"186.csv","","null","resources/maskTrios/BBA3.jpg","null","",NA,NA,NA,NA,""
"image-keyboard-response",448,407357,"0.0-3.145-2.145","lp3fnxyaf0rkkfa",876,"186.csv","","null","resources/images/coin2.png","null","",NA,NA,NA,NA,""
"image-keyboard-response",449,408049,"0.0-3.146-0.146","lp3fnxyaf0rkkfa",876,"186.csv","","691.2999999523163","resources/trios/L2T2A1.jpg","39","restless",0.2,0.3,0.8,0.964551961626083,"false"
"image-keyboard-response",450,408466,"0.0-3.146-1.146","lp3fnxyaf0rkkfa",876,"186.csv","","null","resources/maskTrios/BBA1.jpg","null","",NA,NA,NA,NA,""
"image-keyboard-response",451,409670,"0.0-3.146-2.146","lp3fnxyaf0rkkfa",876,"186.csv","","null","resources/images/fishbone.png","null","",NA,NA,NA,NA,""
"image-keyboard-response",452,409865,"0.0-3.147-0.147","lp3fnxyaf0rkkfa",876,"186.csv","","192.40000009536743","resources/trios/L2T2A1.jpg","38","restless",0.2,0.4,0.7,0.717383374989927,"false"
"image-keyboard-response",453,410279,"0.0-3.147-1.147","lp3fnxyaf0rkkfa",876,"186.csv","","null","resources/maskTrios/BT2B.jpg","null","",NA,NA,NA,NA,""
"image-keyboard-response",454,411498,"0.0-3.147-2.147","lp3fnxyaf0rkkfa",876,"186.csv","","null","resources/images/fishbone.png","null","",NA,NA,NA,NA,""
"image-keyboard-response",455,411699,"0.0-3.148-0.148","lp3fnxyaf0rkkfa",876,"186.csv","","199.70000004768372","resources/trios/L1T4A3.jpg","37","restless",0.2,0.4,0.7,0.496463601572982,"false"
"image-keyboard-response",456,412137,"0.0-3.148-1.148","lp3fnxyaf0rkkfa",876,"186.csv","","null","resources/maskTrios/L1BB.jpg","null","",NA,NA,NA,NA,""
"image-keyboard-response",457,413342,"0.0-3.148-2.148","lp3fnxyaf0rkkfa",876,"186.csv","","null","resources/images/fishbone.png","null","",NA,NA,NA,NA,""
"image-keyboard-response",458,413560,"0.0-3.149-0.149","lp3fnxyaf0rkkfa",876,"186.csv","","215.70000004768372","resources/trios/L2T4A1.jpg","38","restless",0.2,0.5,0.7,0.552550914045557,"false"
"image-keyboard-response",459,413972,"0.0-3.149-1.149","lp3fnxyaf0rkkfa",876,"186.csv","","null","resources/maskTrios/BT4B.jpg","null","",NA,NA,NA,NA,""
"image-keyboard-response",460,415186,"0.0-3.149-2.149","lp3fnxyaf0rkkfa",876,"186.csv","","null","resources/images/fishbone.png","null","",NA,NA,NA,NA,""
"image-keyboard-response",461,415221,"0.0-3.150-0.150","lp3fnxyaf0rkkfa",876,"186.csv","","32.5","resources/trios/L1T2A1.jpg","37","restless",0.2,0.5,0.7,0.181910579061437,"true"
"image-keyboard-response",462,415622,"0.0-3.150-1.150","lp3fnxyaf0rkkfa",876,"186.csv","","null","resources/maskTrios/L1BB.jpg","null","",NA,NA,NA,NA,""
"image-keyboard-response",463,416842,"0.0-3.150-2.150","lp3fnxyaf0rkkfa",876,"186.csv","","null","resources/images/coin2.png","null","",NA,NA,NA,NA,""
"image-keyboard-response",464,417452,"0.0-3.151-0.151","lp3fnxyaf0rkkfa",876,"186.csv","","607.4000000953674","resources/trios/L1T2A1.jpg","37","restless",0.2,0.6,0.7,0.493410645539897,"false"
"image-keyboard-response",465,417872,"0.0-3.151-1.151","lp3fnxyaf0rkkfa",876,"186.csv","","null","resources/maskTrios/L1BB.jpg","null","",NA,NA,NA,NA,""
"image-keyboard-response",466,419079,"0.0-3.151-2.151","lp3fnxyaf0rkkfa",876,"186.csv","","null","resources/images/fishbone.png","null","",NA,NA,NA,NA,""
"image-keyboard-response",467,419652,"0.0-3.152-0.152","lp3fnxyaf0rkkfa",876,"186.csv","","571.2999999523163","resources/trios/L2T4A1.jpg","38","restless",0.2,0.6,0.7,0.846479219439604,"false"
"image-keyboard-response",468,420071,"0.0-3.152-1.152","lp3fnxyaf0rkkfa",876,"186.csv","","null","resources/maskTrios/BT4B.jpg","null","",NA,NA,NA,NA,""
"image-keyboard-response",469,421292,"0.0-3.152-2.152","lp3fnxyaf0rkkfa",876,"186.csv","","null","resources/images/fishbone.png","null","",NA,NA,NA,NA,""
"image-keyboard-response",470,421795,"0.0-3.153-0.153","lp3fnxyaf0rkkfa",876,"186.csv","","501.8000000715256","resources/trios/L1T4A3.jpg","37","restless",0.2,0.6,0.7,0.819614089070206,"false"
"image-keyboard-response",471,422209,"0.0-3.153-1.153","lp3fnxyaf0rkkfa",876,"186.csv","","null","resources/maskTrios/L1BB.jpg","null","",NA,NA,NA,NA,""
"image-keyboard-response",472,423420,"0.0-3.153-2.153","lp3fnxyaf0rkkfa",876,"186.csv","","null","resources/images/fishbone.png","null","",NA,NA,NA,NA,""
"image-keyboard-response",473,424133,"0.0-3.154-0.154","lp3fnxyaf0rkkfa",876,"186.csv","","710.5","resources/trios/L1T4A1.jpg","38","restless",0.1,0.6,0.7,0.514880198127173,"true"
"image-keyboard-response",474,424545,"0.0-3.154-1.154","lp3fnxyaf0rkkfa",876,"186.csv","","null","resources/maskTrios/BT4B.jpg","null","",NA,NA,NA,NA,""
"image-keyboard-response",475,425764,"0.0-3.154-2.154","lp3fnxyaf0rkkfa",876,"186.csv","","null","resources/images/coin2.png","null","",NA,NA,NA,NA,""
"image-keyboard-response",476,427094,"0.0-3.155-0.155","lp3fnxyaf0rkkfa",876,"186.csv","","1329.3999999761581","resources/trios/L2T4A3.jpg","38","restless",0.1,0.6,0.7,0.203282891634488,"true"
"image-keyboard-response",477,427513,"0.0-3.155-1.155","lp3fnxyaf0rkkfa",876,"186.csv","","null","resources/maskTrios/BT4B.jpg","null","",NA,NA,NA,NA,""
"image-keyboard-response",478,428732,"0.0-3.155-2.155","lp3fnxyaf0rkkfa",876,"186.csv","","null","resources/images/coin2.png","null","",NA,NA,NA,NA,""
"image-keyboard-response",479,429968,"0.0-3.156-0.156","lp3fnxyaf0rkkfa",876,"186.csv","","1235.3000000715256","resources/trios/L2T2A1.jpg","37","restless",0.1,0.5,0.7,0.799477374508504,"false"
"image-keyboard-response",480,430372,"0.0-3.156-1.156","lp3fnxyaf0rkkfa",876,"186.csv","","null","resources/maskTrios/L2BB.jpg","null","",NA,NA,NA,NA,""
"image-keyboard-response",481,431598,"0.0-3.156-2.156","lp3fnxyaf0rkkfa",876,"186.csv","","null","resources/images/fishbone.png","null","",NA,NA,NA,NA,""
"image-keyboard-response",482,431828,"0.0-3.157-0.157","lp3fnxyaf0rkkfa",876,"186.csv","","226.79999995231628","resources/trios/L1T2A1.jpg","38","restless",0.1,0.5,0.7,0.510106739172054,"false"
"image-keyboard-response",483,432246,"0.0-3.157-1.157","lp3fnxyaf0rkkfa",876,"186.csv","","null","resources/maskTrios/BT2B.jpg","null","",NA,NA,NA,NA,""
"image-keyboard-response",484,433465,"0.0-3.157-2.157","lp3fnxyaf0rkkfa",876,"186.csv","","null","resources/images/fishbone.png","null","",NA,NA,NA,NA,""
"image-keyboard-response",485,433602,"0.0-3.158-0.158","lp3fnxyaf0rkkfa",876,"186.csv","","134","resources/trios/L1T2A3.jpg","38","restless",0.1,0.5,0.7,0.959114245059719,"false"
"image-keyboard-response",486,434004,"0.0-3.158-1.158","lp3fnxyaf0rkkfa",876,"186.csv","","null","resources/maskTrios/BT2B.jpg","null","",NA,NA,NA,NA,""
"image-keyboard-response",487,435216,"0.0-3.158-2.158","lp3fnxyaf0rkkfa",876,"186.csv","","null","resources/images/fishbone.png","null","",NA,NA,NA,NA,""
"image-keyboard-response",488,435478,"0.0-3.159-0.159","lp3fnxyaf0rkkfa",876,"186.csv","","259.7000000476837","resources/trios/L2T2A1.jpg","38","restless",0.1,0.5,0.8,0.132266100343214,"true"
"image-keyboard-response",489,435887,"0.0-3.159-1.159","lp3fnxyaf0rkkfa",876,"186.csv","","null","resources/maskTrios/BT2B.jpg","null","",NA,NA,NA,NA,""
"image-keyboard-response",490,437112,"0.0-3.159-2.159","lp3fnxyaf0rkkfa",876,"186.csv","","null","resources/images/coin2.png","null","",NA,NA,NA,NA,""
"image-keyboard-response",491,440045,"0.0-3.160-0.160","lp3fnxyaf0rkkfa",876,"186.csv","","2931.7000000476837","resources/trios/L1T4A3.jpg","38","restless",0.1,0.5,0.7,0.187839902835749,"true"
"image-keyboard-response",492,440454,"0.0-3.160-1.160","lp3fnxyaf0rkkfa",876,"186.csv","","null","resources/maskTrios/BT4B.jpg","null","",NA,NA,NA,NA,""
"image-keyboard-response",493,441673,"0.0-3.160-2.160","lp3fnxyaf0rkkfa",876,"186.csv","","null","resources/images/coin2.png","null","",NA,NA,NA,NA,""
"image-keyboard-response",494,442631,"0.0-3.161-0.161","lp3fnxyaf0rkkfa",876,"186.csv","","955.6999999284744","resources/trios/L1T4A3.jpg","39","restless",0.1,0.5,0.6,0.310298935998252,"true"
"image-keyboard-response",495,443046,"0.0-3.161-1.161","lp3fnxyaf0rkkfa",876,"186.csv","","null","resources/maskTrios/BBA3.jpg","null","",NA,NA,NA,NA,""
"image-keyboard-response",496,444263,"0.0-3.161-2.161","lp3fnxyaf0rkkfa",876,"186.csv","","null","resources/images/coin2.png","null","",NA,NA,NA,NA,""
"image-keyboard-response",497,445030,"0.0-3.162-0.162","lp3fnxyaf0rkkfa",876,"186.csv","","764.9000000953674","resources/trios/L1T2A1.jpg","39","restless",0.1,0.5,0.6,0.378919606595696,"true"
"image-keyboard-response",498,445450,"0.0-3.162-1.162","lp3fnxyaf0rkkfa",876,"186.csv","","null","resources/maskTrios/BBA1.jpg","null","",NA,NA,NA,NA,""
"image-keyboard-response",499,446654,"0.0-3.162-2.162","lp3fnxyaf0rkkfa",876,"186.csv","","null","resources/images/coin2.png","null","",NA,NA,NA,NA,""
"image-keyboard-response",500,447572,"0.0-3.163-0.163","lp3fnxyaf0rkkfa",876,"186.csv","","916.0999999046326","resources/trios/L2T2A3.jpg","37","restless",0.1,0.6,0.6,0.609180739968908,"false"
"image-keyboard-response",501,447988,"0.0-3.163-1.163","lp3fnxyaf0rkkfa",876,"186.csv","","null","resources/maskTrios/L2BB.jpg","null","",NA,NA,NA,NA,""
"image-keyboard-response",502,449200,"0.0-3.163-2.163","lp3fnxyaf0rkkfa",876,"186.csv","","null","resources/images/fishbone.png","null","",NA,NA,NA,NA,""
"image-keyboard-response",503,449388,"0.0-3.164-0.164","lp3fnxyaf0rkkfa",876,"186.csv","","187.10000002384186","resources/trios/L1T4A3.jpg","38","restless",0.1,0.6,0.6,0.237092607131982,"true"
"image-keyboard-response",504,449807,"0.0-3.164-1.164","lp3fnxyaf0rkkfa",876,"186.csv","","null","resources/maskTrios/BT4B.jpg","null","",NA,NA,NA,NA,""
"image-keyboard-response",505,451027,"0.0-3.164-2.164","lp3fnxyaf0rkkfa",876,"186.csv","","null","resources/images/coin2.png","null","",NA,NA,NA,NA,""
"image-keyboard-response",506,451115,"0.0-3.165-0.165","lp3fnxyaf0rkkfa",876,"186.csv","","85.29999995231628","resources/trios/L2T2A1.jpg","38","restless",0.1,0.6,0.6,0.815519847491687,"false"
"image-keyboard-response",507,451528,"0.0-3.165-1.165","lp3fnxyaf0rkkfa",876,"186.csv","","null","resources/maskTrios/BT2B.jpg","null","",NA,NA,NA,NA,""
"image-keyboard-response",508,452747,"0.0-3.165-2.165","lp3fnxyaf0rkkfa",876,"186.csv","","null","resources/images/fishbone.png","null","",NA,NA,NA,NA,""
"image-keyboard-response",509,452812,"0.0-3.166-0.166","lp3fnxyaf0rkkfa",876,"186.csv","","61.800000071525574","resources/trios/L1T4A1.jpg","38","restless",0.1,0.6,0.6,0.506098051038637,"true"
"image-keyboard-response",510,453231,"0.0-3.166-1.166","lp3fnxyaf0rkkfa",876,"186.csv","","null","resources/maskTrios/BT4B.jpg","null","",NA,NA,NA,NA,""
"image-keyboard-response",511,454451,"0.0-3.166-2.166","lp3fnxyaf0rkkfa",876,"186.csv","","null","resources/images/coin2.png","null","",NA,NA,NA,NA,""
"image-keyboard-response",512,454460,"0.0-3.167-0.167","lp3fnxyaf0rkkfa",876,"186.csv","","6","resources/trios/L1T2A3.jpg","38","restless",0.1,0.5,0.6,0.506196865882639,"false"
"image-keyboard-response",513,454875,"0.0-3.167-1.167","lp3fnxyaf0rkkfa",876,"186.csv","","null","resources/maskTrios/BT2B.jpg","null","",NA,NA,NA,NA,""
"image-keyboard-response",514,456092,"0.0-3.167-2.167","lp3fnxyaf0rkkfa",876,"186.csv","","null","resources/images/fishbone.png","null","",NA,NA,NA,NA,""
"image-keyboard-response",515,456938,"0.0-3.168-0.168","lp3fnxyaf0rkkfa",876,"186.csv","","844.3000000715256","resources/trios/L1T2A3.jpg","37","restless",0.2,0.5,0.6,0.985268881163694,"false"
"image-keyboard-response",516,457365,"0.0-3.168-1.168","lp3fnxyaf0rkkfa",876,"186.csv","","null","resources/maskTrios/L1BB.jpg","null","",NA,NA,NA,NA,""
"image-keyboard-response",517,458581,"0.0-3.168-2.168","lp3fnxyaf0rkkfa",876,"186.csv","","null","resources/images/fishbone.png","null","",NA,NA,NA,NA,""
"image-keyboard-response",518,458670,"0.0-3.169-0.169","lp3fnxyaf0rkkfa",876,"186.csv","","85.70000004768372","resources/trios/L2T2A1.jpg","38","restless",0.2,0.5,0.6,0.654591794710796,"false"
"image-keyboard-response",519,459086,"0.0-3.169-1.169","lp3fnxyaf0rkkfa",876,"186.csv","","null","resources/maskTrios/BT2B.jpg","null","",NA,NA,NA,NA,""
"image-keyboard-response",520,460295,"0.0-3.169-2.169","lp3fnxyaf0rkkfa",876,"186.csv","","null","resources/images/fishbone.png","null","",NA,NA,NA,NA,""
"image-keyboard-response",521,460319,"0.0-3.170-0.170","lp3fnxyaf0rkkfa",876,"186.csv","","21.300000071525574","resources/trios/L1T4A1.jpg","38","restless",0.2,0.5,0.6,0.706616930786379,"false"
"image-keyboard-response",522,460733,"0.0-3.170-1.170","lp3fnxyaf0rkkfa",876,"186.csv","","null","resources/maskTrios/BT4B.jpg","null","",NA,NA,NA,NA,""
"image-keyboard-response",523,461951,"0.0-3.170-2.170","lp3fnxyaf0rkkfa",876,"186.csv","","null","resources/images/fishbone.png","null","",NA,NA,NA,NA,""
"image-keyboard-response",524,461995,"0.0-3.171-0.171","lp3fnxyaf0rkkfa",876,"186.csv","","41.799999952316284","resources/trios/L2T4A3.jpg","39","restless",0.2,0.5,0.6,0.0804282963474059,"true"
"image-keyboard-response",525,462410,"0.0-3.171-1.171","lp3fnxyaf0rkkfa",876,"186.csv","","null","resources/maskTrios/BBA3.jpg","null","",NA,NA,NA,NA,""
"image-keyboard-response",526,463629,"0.0-3.171-2.171","lp3fnxyaf0rkkfa",876,"186.csv","","null","resources/images/coin2.png","null","",NA,NA,NA,NA,""
"image-keyboard-response",527,464159,"0.0-3.172-0.172","lp3fnxyaf0rkkfa",876,"186.csv","","527.6999999284744","resources/trios/L2T2A3.jpg","39","restless",0.2,0.5,0.6,0.533404958575396,"true"
"image-keyboard-response",528,464585,"0.0-3.172-1.172","lp3fnxyaf0rkkfa",876,"186.csv","","null","resources/maskTrios/BBA3.jpg","null","",NA,NA,NA,NA,""
"image-keyboard-response",529,465803,"0.0-3.172-2.172","lp3fnxyaf0rkkfa",876,"186.csv","","null","resources/images/coin2.png","null","",NA,NA,NA,NA,""
"image-keyboard-response",530,466126,"0.0-3.173-0.173","lp3fnxyaf0rkkfa",876,"186.csv","","320.3000000715256","resources/trios/L1T2A3.jpg","39","restless",0.2,0.5,0.6,0.530525931624683,"true"
"image-keyboard-response",531,466544,"0.0-3.173-1.173","lp3fnxyaf0rkkfa",876,"186.csv","","null","resources/maskTrios/BBA3.jpg","null","",NA,NA,NA,NA,""
"image-keyboard-response",532,467763,"0.0-3.173-2.173","lp3fnxyaf0rkkfa",876,"186.csv","","null","resources/images/coin2.png","null","",NA,NA,NA,NA,""
"image-keyboard-response",533,468135,"0.0-3.174-0.174","lp3fnxyaf0rkkfa",876,"186.csv","","370.2999999523163","resources/trios/L2T4A1.jpg","39","restless",0.2,0.5,0.6,0.113562635751515,"true"
"image-keyboard-response",534,468544,"0.0-3.174-1.174","lp3fnxyaf0rkkfa",876,"186.csv","","null","resources/maskTrios/BBA1.jpg","null","",NA,NA,NA,NA,""
"image-keyboard-response",535,469764,"0.0-3.174-2.174","lp3fnxyaf0rkkfa",876,"186.csv","","null","resources/images/coin2.png","null","",NA,NA,NA,NA,""
"image-keyboard-response",536,470250,"0.0-3.175-0.175","lp3fnxyaf0rkkfa",876,"186.csv","","482.5","resources/trios/L2T2A1.jpg","39","restless",0.2,0.5,0.6,0.305741659665301,"true"
"image-keyboard-response",537,470654,"0.0-3.175-1.175","lp3fnxyaf0rkkfa",876,"186.csv","","null","resources/maskTrios/BBA1.jpg","null","",NA,NA,NA,NA,""
"image-keyboard-response",538,471872,"0.0-3.175-2.175","lp3fnxyaf0rkkfa",876,"186.csv","","null","resources/images/coin2.png","null","",NA,NA,NA,NA,""
"image-keyboard-response",539,472803,"0.0-3.176-0.176","lp3fnxyaf0rkkfa",876,"186.csv","","928.8999999761581","resources/trios/L2T2A3.jpg","39","restless",0.2,0.5,0.6,0.711799790725404,"false"
"image-keyboard-response",540,473216,"0.0-3.176-1.176","lp3fnxyaf0rkkfa",876,"186.csv","","null","resources/maskTrios/BBA3.jpg","null","",NA,NA,NA,NA,""
"image-keyboard-response",541,474435,"0.0-3.176-2.176","lp3fnxyaf0rkkfa",876,"186.csv","","null","resources/images/fishbone.png","null","",NA,NA,NA,NA,""
"image-keyboard-response",542,474652,"0.0-3.177-0.177","lp3fnxyaf0rkkfa",876,"186.csv","","215.5","resources/trios/L1T4A1.jpg","38","restless",0.1,0.5,0.6,0.35185414704533,"true"
"image-keyboard-response",543,475076,"0.0-3.177-1.177","lp3fnxyaf0rkkfa",876,"186.csv","","null","resources/maskTrios/BT4B.jpg","null","",NA,NA,NA,NA,""
"image-keyboard-response",544,476289,"0.0-3.177-2.177","lp3fnxyaf0rkkfa",876,"186.csv","","null","resources/images/coin2.png","null","",NA,NA,NA,NA,""
"image-keyboard-response",545,476485,"0.0-3.178-0.178","lp3fnxyaf0rkkfa",876,"186.csv","","194.90000009536743","resources/trios/L2T2A1.jpg","38","restless",0.2,0.5,0.6,0.891411551361907,"false"
"image-keyboard-response",546,476897,"0.0-3.178-1.178","lp3fnxyaf0rkkfa",876,"186.csv","","null","resources/maskTrios/BT2B.jpg","null","",NA,NA,NA,NA,""
"image-keyboard-response",547,478115,"0.0-3.178-2.178","lp3fnxyaf0rkkfa",876,"186.csv","","null","resources/images/fishbone.png","null","",NA,NA,NA,NA,""
"image-keyboard-response",548,478145,"0.0-3.179-0.179","lp3fnxyaf0rkkfa",876,"186.csv","","28.100000023841858","resources/trios/L1T4A3.jpg","37","restless",0.2,0.5,0.6,0.560780781911106,"false"
"image-keyboard-response",549,478563,"0.0-3.179-1.179","lp3fnxyaf0rkkfa",876,"186.csv","","null","resources/maskTrios/L1BB.jpg","null","",NA,NA,NA,NA,""
"image-keyboard-response",550,479794,"0.0-3.179-2.179","lp3fnxyaf0rkkfa",876,"186.csv","","null","resources/images/fishbone.png","null","",NA,NA,NA,NA,""
"image-keyboard-response",551,479992,"0.0-3.180-0.180","lp3fnxyaf0rkkfa",876,"186.csv","","194.89999997615814","resources/trios/L2T4A1.jpg","38","restless",0.2,0.5,0.6,0.669072619325061,"false"
"image-keyboard-response",552,480399,"0.0-3.180-1.180","lp3fnxyaf0rkkfa",876,"186.csv","","null","resources/maskTrios/BT4B.jpg","null","",NA,NA,NA,NA,""
"image-keyboard-response",553,481618,"0.0-3.180-2.180","lp3fnxyaf0rkkfa",876,"186.csv","","null","resources/images/fishbone.png","null","",NA,NA,NA,NA,""
"image-keyboard-response",554,481775,"0.0-3.181-0.181","lp3fnxyaf0rkkfa",876,"186.csv","","156","resources/trios/L1T2A1.jpg","39","restless",0.2,0.5,0.6,0.653385185592924,"false"
"image-keyboard-response",555,482185,"0.0-3.181-1.181","lp3fnxyaf0rkkfa",876,"186.csv","","null","resources/maskTrios/BBA1.jpg","null","",NA,NA,NA,NA,""
"image-keyboard-response",556,483391,"0.0-3.181-2.181","lp3fnxyaf0rkkfa",876,"186.csv","","null","resources/images/fishbone.png","null","",NA,NA,NA,NA,""
"image-keyboard-response",557,483476,"0.0-3.182-0.182","lp3fnxyaf0rkkfa",876,"186.csv","","83.19999992847443","resources/trios/L1T4A3.jpg","37","restless",0.2,0.5,0.6,0.380119631296469,"false"
"image-keyboard-response",558,483893,"0.0-3.182-1.182","lp3fnxyaf0rkkfa",876,"186.csv","","null","resources/maskTrios/L1BB.jpg","null","",NA,NA,NA,NA,""
"image-keyboard-response",559,485108,"0.0-3.182-2.182","lp3fnxyaf0rkkfa",876,"186.csv","","null","resources/images/fishbone.png","null","",NA,NA,NA,NA,""
"image-keyboard-response",560,486041,"0.0-3.183-0.183","lp3fnxyaf0rkkfa",876,"186.csv","","930.6000000238419","resources/trios/L1T4A1.jpg","38","restless",0.2,0.5,0.6,0.132837191646293,"true"
"image-keyboard-response",561,486450,"0.0-3.183-1.183","lp3fnxyaf0rkkfa",876,"186.csv","","null","resources/maskTrios/BT4B.jpg","null","",NA,NA,NA,NA,""
"image-keyboard-response",562,487670,"0.0-3.183-2.183","lp3fnxyaf0rkkfa",876,"186.csv","","null","resources/images/coin2.png","null","",NA,NA,NA,NA,""
"image-keyboard-response",563,488022,"0.0-3.184-0.184","lp3fnxyaf0rkkfa",876,"186.csv","","350.10000002384186","resources/trios/L1T4A3.jpg","38","restless",0.2,0.5,0.6,0.368160150114023,"true"
"image-keyboard-response",564,488439,"0.0-3.184-1.184","lp3fnxyaf0rkkfa",876,"186.csv","","null","resources/maskTrios/BT4B.jpg","null","",NA,NA,NA,NA,""
"image-keyboard-response",565,489659,"0.0-3.184-2.184","lp3fnxyaf0rkkfa",876,"186.csv","","null","resources/images/coin2.png","null","",NA,NA,NA,NA,""
"image-keyboard-response",566,489989,"0.0-3.185-0.185","lp3fnxyaf0rkkfa",876,"186.csv","","328.2000000476837","resources/trios/L1T2A1.jpg","38","restless",0.2,0.5,0.6,0.00621395294646065,"true"
"image-keyboard-response",567,490409,"0.0-3.185-1.185","lp3fnxyaf0rkkfa",876,"186.csv","","null","resources/maskTrios/BT2B.jpg","null","",NA,NA,NA,NA,""
"image-keyboard-response",568,491623,"0.0-3.185-2.185","lp3fnxyaf0rkkfa",876,"186.csv","","null","resources/images/coin2.png","null","",NA,NA,NA,NA,""
"image-keyboard-response",569,492588,"0.0-3.186-0.186","lp3fnxyaf0rkkfa",876,"186.csv","","962.5","resources/trios/L1T4A3.jpg","37","restless",0.2,0.5,0.6,0.541427474506626,"false"
"image-keyboard-response",570,493000,"0.0-3.186-1.186","lp3fnxyaf0rkkfa",876,"186.csv","","null","resources/maskTrios/L1BB.jpg","null","",NA,NA,NA,NA,""
"image-keyboard-response",571,494233,"0.0-3.186-2.186","lp3fnxyaf0rkkfa",876,"186.csv","","null","resources/images/fishbone.png","null","",NA,NA,NA,NA,""
"image-keyboard-response",572,494501,"0.0-3.187-0.187","lp3fnxyaf0rkkfa",876,"186.csv","","265.7999999523163","resources/trios/L1T2A1.jpg","38","restless",0.2,0.5,0.6,0.394942373296282,"true"
"image-keyboard-response",573,494920,"0.0-3.187-1.187","lp3fnxyaf0rkkfa",876,"186.csv","","null","resources/maskTrios/BT2B.jpg","null","",NA,NA,NA,NA,""
"image-keyboard-response",574,496139,"0.0-3.187-2.187","lp3fnxyaf0rkkfa",876,"186.csv","","null","resources/images/coin2.png","null","",NA,NA,NA,NA,""
"image-keyboard-response",575,496488,"0.0-3.188-0.188","lp3fnxyaf0rkkfa",876,"186.csv","","347.40000009536743","resources/trios/L2T2A1.jpg","38","restless",0.2,0.5,0.6,0.560268918208901,"false"
"image-keyboard-response",576,496894,"0.0-3.188-1.188","lp3fnxyaf0rkkfa",876,"186.csv","","null","resources/maskTrios/BT2B.jpg","null","",NA,NA,NA,NA,""
"image-keyboard-response",577,498107,"0.0-3.188-2.188","lp3fnxyaf0rkkfa",876,"186.csv","","null","resources/images/fishbone.png","null","",NA,NA,NA,NA,""
"image-keyboard-response",578,498151,"0.0-3.189-0.189","lp3fnxyaf0rkkfa",876,"186.csv","","41.5","resources/trios/L1T2A3.jpg","39","restless",0.2,0.5,0.5,0.0121154254096369,"true"
"image-keyboard-response",579,498567,"0.0-3.189-1.189","lp3fnxyaf0rkkfa",876,"186.csv","","null","resources/maskTrios/BBA3.jpg","null","",NA,NA,NA,NA,""
"image-keyboard-response",580,499786,"0.0-3.189-2.189","lp3fnxyaf0rkkfa",876,"186.csv","","null","resources/images/coin2.png","null","",NA,NA,NA,NA,""
"image-keyboard-response",581,500139,"0.0-3.190-0.190","lp3fnxyaf0rkkfa",876,"186.csv","","350","resources/trios/L2T2A1.jpg","37","restless",0.2,0.5,0.5,0.296280490373763,"false"
"image-keyboard-response",582,500551,"0.0-3.190-1.190","lp3fnxyaf0rkkfa",876,"186.csv","","null","resources/maskTrios/L2BB.jpg","null","",NA,NA,NA,NA,""
"image-keyboard-response",583,501776,"0.0-3.190-2.190","lp3fnxyaf0rkkfa",876,"186.csv","","null","resources/images/fishbone.png","null","",NA,NA,NA,NA,""
"image-keyboard-response",584,501987,"0.0-3.191-0.191","lp3fnxyaf0rkkfa",876,"186.csv","","208.70000004768372","resources/trios/L2T4A1.jpg","39","restless",0.3,0.5,0.5,0.366019475041441,"true"
"image-keyboard-response",585,502405,"0.0-3.191-1.191","lp3fnxyaf0rkkfa",876,"186.csv","","null","resources/maskTrios/BBA1.jpg","null","",NA,NA,NA,NA,""
"image-keyboard-response",586,503628,"0.0-3.191-2.191","lp3fnxyaf0rkkfa",876,"186.csv","","null","resources/images/coin2.png","null","",NA,NA,NA,NA,""
"image-keyboard-response",587,503873,"0.0-3.192-0.192","lp3fnxyaf0rkkfa",876,"186.csv","","244.10000002384186","resources/trios/L1T4A3.jpg","38","restless",0.3,0.5,0.5,0.396186645054887,"true"
"image-keyboard-response",588,504294,"0.0-3.192-1.192","lp3fnxyaf0rkkfa",876,"186.csv","","null","resources/maskTrios/BT4B.jpg","null","",NA,NA,NA,NA,""
"image-keyboard-response",589,505529,"0.0-3.192-2.192","lp3fnxyaf0rkkfa",876,"186.csv","","null","resources/images/coin2.png","null","",NA,NA,NA,NA,""
"image-keyboard-response",590,505952,"0.0-3.193-0.193","lp3fnxyaf0rkkfa",876,"186.csv","","421.1999999284744","resources/trios/L2T4A1.jpg","38","restless",0.3,0.5,0.5,0.628300456752477,"false"
"image-keyboard-response",591,506357,"0.0-3.193-1.193","lp3fnxyaf0rkkfa",876,"186.csv","","null","resources/maskTrios/BT4B.jpg","null","",NA,NA,NA,NA,""
"image-keyboard-response",592,507576,"0.0-3.193-2.193","lp3fnxyaf0rkkfa",876,"186.csv","","null","resources/images/fishbone.png","null","",NA,NA,NA,NA,""
"image-keyboard-response",593,507674,"0.0-3.194-0.194","lp3fnxyaf0rkkfa",876,"186.csv","","96.10000002384186","resources/trios/L2T4A1.jpg","39","restless",0.3,0.5,0.5,0.88621600545674,"false"
"image-keyboard-response",594,508092,"0.0-3.194-1.194","lp3fnxyaf0rkkfa",876,"186.csv","","null","resources/maskTrios/BBA1.jpg","null","",NA,NA,NA,NA,""
"image-keyboard-response",595,509311,"0.0-3.194-2.194","lp3fnxyaf0rkkfa",876,"186.csv","","null","resources/images/fishbone.png","null","",NA,NA,NA,NA,""
"image-keyboard-response",596,509408,"0.0-3.195-0.195","lp3fnxyaf0rkkfa",876,"186.csv","","94.20000004768372","resources/trios/L1T2A1.jpg","37","restless",0.3,0.5,0.5,0.862341763153289,"false"
"image-keyboard-response",597,509842,"0.0-3.195-1.195","lp3fnxyaf0rkkfa",876,"186.csv","","null","resources/maskTrios/L1BB.jpg","null","",NA,NA,NA,NA,""
"image-keyboard-response",598,511045,"0.0-3.195-2.195","lp3fnxyaf0rkkfa",876,"186.csv","","null","resources/images/fishbone.png","null","",NA,NA,NA,NA,""
"image-keyboard-response",599,511494,"0.0-3.196-0.196","lp3fnxyaf0rkkfa",876,"186.csv","","446.10000002384186","resources/trios/L1T2A1.jpg","38","restless",0.3,0.5,0.5,0.454370561545028,"true"
"image-keyboard-response",600,511905,"0.0-3.196-1.196","lp3fnxyaf0rkkfa",876,"186.csv","","null","resources/maskTrios/BT2B.jpg","null","",NA,NA,NA,NA,""
"image-keyboard-response",601,513123,"0.0-3.196-2.196","lp3fnxyaf0rkkfa",876,"186.csv","","null","resources/images/coin2.png","null","",NA,NA,NA,NA,""
"image-keyboard-response",602,513588,"0.0-3.197-0.197","lp3fnxyaf0rkkfa",876,"186.csv","","463.10000002384186","resources/trios/L2T4A1.jpg","39","restless",0.3,0.4,0.5,0.178659402834661,"true"
"image-keyboard-response",603,514009,"0.0-3.197-1.197","lp3fnxyaf0rkkfa",876,"186.csv","","null","resources/maskTrios/BBA1.jpg","null","",NA,NA,NA,NA,""
"image-keyboard-response",604,515217,"0.0-3.197-2.197","lp3fnxyaf0rkkfa",876,"186.csv","","null","resources/images/coin2.png","null","",NA,NA,NA,NA,""
"image-keyboard-response",605,515635,"0.0-3.198-0.198","lp3fnxyaf0rkkfa",876,"186.csv","","415.8000000715256","resources/trios/L1T4A3.jpg","39","restless",0.3,0.4,0.5,0.20465091865893,"true"
"image-keyboard-response",606,516045,"0.0-3.198-1.198","lp3fnxyaf0rkkfa",876,"186.csv","","null","resources/maskTrios/BBA3.jpg","null","",NA,NA,NA,NA,""
