"trial_type","trial_index","time_elapsed","internal_node_id","subject","participantCode","walkNumber","success","rt","stimulus","key_press","test_part","leftProb","midProb","rightProb","generatedNum","correct"
"pavlovia",0,1607,"0.0-0.0","3d1hrrxekr97ue2",55,"57.csv","","","","","",NA,NA,NA,NA,""
"fullscreen",1,5603,"0.0-1.0","3d1hrrxekr97ue2",55,"57.csv","true","","","","",NA,NA,NA,NA,""
"html-keyboard-response",2,11898,"0.0-2.0-0.0","3d1hrrxekr97ue2",55,"57.csv","","6294.300000011921","<p><font size='6'>Arrrgh!</p></font><p>Can you be the best pirate? Try to find lots of gold! But beware, some islands have more gold than others, and over time, the island with the most gold may change. Can YOU figure it out? </p><font size='6'>GOOD LUCK, CAPTAIN!!!</font><p>Press any key to begin</p>","32","",NA,NA,NA,NA,""
"image-keyboard-response",3,14905,"0.0-2.0-1.0","3d1hrrxekr97ue2",55,"57.csv","","null","resources/image_sets/111.png","null","",NA,NA,NA,NA,""
"image-keyboard-response",4,22464,"0.0-2.0-2.0","3d1hrrxekr97ue2",55,"57.csv","","7557.799999982119","resources/image_sets/left_highlight.png","37","",NA,NA,NA,NA,""
"image-keyboard-response",5,25200,"0.0-2.0-3.0","3d1hrrxekr97ue2",55,"57.csv","","2734.5","resources/image_sets/mid_highlight.png","38","",NA,NA,NA,NA,""
"image-keyboard-response",6,27917,"0.0-2.0-4.0","3d1hrrxekr97ue2",55,"57.csv","","2716.5","resources/image_sets/right_highlight.png","39","",NA,NA,NA,NA,""
"image-keyboard-response",7,34521,"0.0-2.0-5.0","3d1hrrxekr97ue2",55,"57.csv","","6603.5999999940395","resources/image_sets/111.png","13","",NA,NA,NA,NA,""
"image-keyboard-response",8,37636,"0.0-2.0-6.0","3d1hrrxekr97ue2",55,"57.csv","","3113.7000000178814","resources/images/coin2.png","13","",NA,NA,NA,NA,""
"image-keyboard-response",9,39812,"0.0-2.0-7.0","3d1hrrxekr97ue2",55,"57.csv","","2175.4000000059605","resources/images/fishbone.png","13","",NA,NA,NA,NA,""
"html-keyboard-response",10,56867,"0.0-2.0-8.0","3d1hrrxekr97ue2",55,"57.csv","","17053.90000000596","<p>Your first journey will be a long one, but you will get a well deserved break at the end</p><p>After the break you will have four more journeys, but each will be much shorter than the first, and you will have breaks in between each</p><p>Press Enter to begin</p>","13","",NA,NA,NA,NA,""
"image-keyboard-response",11,58774,"0.0-3.0-0.0","3d1hrrxekr97ue2",55,"57.csv","","1904.300000011921","resources/trios/L1T1A1.jpg","37","restless",0.9,0.7,0.3,0.28378837667125,"true"
"image-keyboard-response",12,59180,"0.0-3.0-1.0","3d1hrrxekr97ue2",55,"57.csv","","null","resources/maskTrios/L1BB.jpg","null","",NA,NA,NA,NA,""
"image-keyboard-response",13,60387,"0.0-3.0-2.0","3d1hrrxekr97ue2",55,"57.csv","","null","resources/images/coin2.png","null","",NA,NA,NA,NA,""
"image-keyboard-response",14,61841,"0.0-3.1-0.1","3d1hrrxekr97ue2",55,"57.csv","","1451.8999999761581","resources/trios/L4T1A1.jpg","39","restless",0.8,0.7,0.3,0.261373153569845,"true"
"image-keyboard-response",15,62247,"0.0-3.1-1.1","3d1hrrxekr97ue2",55,"57.csv","","null","resources/maskTrios/BBA1.jpg","null","",NA,NA,NA,NA,""
"image-keyboard-response",16,63451,"0.0-3.1-2.1","3d1hrrxekr97ue2",55,"57.csv","","null","resources/images/coin2.png","null","",NA,NA,NA,NA,""
"image-keyboard-response",17,64560,"0.0-3.2-0.2","3d1hrrxekr97ue2",55,"57.csv","","1107.699999988079","resources/trios/L4T2A1.jpg","39","restless",0.8,0.7,0.3,0.0565739766978619,"true"
"image-keyboard-response",18,64966,"0.0-3.2-1.2","3d1hrrxekr97ue2",55,"57.csv","","null","resources/maskTrios/BBA1.jpg","null","",NA,NA,NA,NA,""
"image-keyboard-response",19,66172,"0.0-3.2-2.2","3d1hrrxekr97ue2",55,"57.csv","","null","resources/images/coin2.png","null","",NA,NA,NA,NA,""
"image-keyboard-response",20,67007,"0.0-3.3-0.3","3d1hrrxekr97ue2",55,"57.csv","","833","resources/trios/L1T1A3.jpg","37","restless",0.8,0.7,0.3,0.85934633670959,"false"
"image-keyboard-response",21,67409,"0.0-3.3-1.3","3d1hrrxekr97ue2",55,"57.csv","","null","resources/maskTrios/L1BB.jpg","null","",NA,NA,NA,NA,""
"image-keyboard-response",22,68611,"0.0-3.3-2.3","3d1hrrxekr97ue2",55,"57.csv","","null","resources/images/fishbone.png","null","",NA,NA,NA,NA,""
"image-keyboard-response",23,69382,"0.0-3.4-0.4","3d1hrrxekr97ue2",55,"57.csv","","769.8999999761581","resources/trios/L1T2A1.jpg","39","restless",0.8,0.7,0.3,0.791460538977942,"false"
"image-keyboard-response",24,69788,"0.0-3.4-1.4","3d1hrrxekr97ue2",55,"57.csv","","null","resources/maskTrios/BBA1.jpg","null","",NA,NA,NA,NA,""
"image-keyboard-response",25,70994,"0.0-3.4-2.4","3d1hrrxekr97ue2",55,"57.csv","","null","resources/images/fishbone.png","null","",NA,NA,NA,NA,""
"image-keyboard-response",26,72313,"0.0-3.5-0.5","3d1hrrxekr97ue2",55,"57.csv","","1317.800000011921","resources/trios/L1T1A1.jpg","38","restless",0.8,0.7,0.3,0.409579372617032,"true"
"image-keyboard-response",27,72720,"0.0-3.5-1.5","3d1hrrxekr97ue2",55,"57.csv","","null","resources/maskTrios/BT1B.jpg","null","",NA,NA,NA,NA,""
"image-keyboard-response",28,73922,"0.0-3.5-2.5","3d1hrrxekr97ue2",55,"57.csv","","null","resources/images/coin2.png","null","",NA,NA,NA,NA,""
"image-keyboard-response",29,74894,"0.0-3.6-0.6","3d1hrrxekr97ue2",55,"57.csv","","971.4000000059605","resources/trios/L4T2A1.jpg","37","restless",0.8,0.7,0.3,0.37014836465497,"true"
"image-keyboard-response",30,75301,"0.0-3.6-1.6","3d1hrrxekr97ue2",55,"57.csv","","null","resources/maskTrios/L4BB.jpg","null","",NA,NA,NA,NA,""
"image-keyboard-response",31,76504,"0.0-3.6-2.6","3d1hrrxekr97ue2",55,"57.csv","","null","resources/images/coin2.png","null","",NA,NA,NA,NA,""
"image-keyboard-response",32,77282,"0.0-3.7-0.7","3d1hrrxekr97ue2",55,"57.csv","","777.3000000119209","resources/trios/L4T1A3.jpg","39","restless",0.8,0.7,0.3,0.147542799098934,"true"
"image-keyboard-response",33,77688,"0.0-3.7-1.7","3d1hrrxekr97ue2",55,"57.csv","","null","resources/maskTrios/BBA3.jpg","null","",NA,NA,NA,NA,""
"image-keyboard-response",34,78894,"0.0-3.7-2.7","3d1hrrxekr97ue2",55,"57.csv","","null","resources/images/coin2.png","null","",NA,NA,NA,NA,""
"image-keyboard-response",35,80013,"0.0-3.8-0.8","3d1hrrxekr97ue2",55,"57.csv","","1117","resources/trios/L4T2A1.jpg","38","restless",0.8,0.7,0.4,0.253400301417016,"true"
"image-keyboard-response",36,80419,"0.0-3.8-1.8","3d1hrrxekr97ue2",55,"57.csv","","null","resources/maskTrios/BT2B.jpg","null","",NA,NA,NA,NA,""
"image-keyboard-response",37,81624,"0.0-3.8-2.8","3d1hrrxekr97ue2",55,"57.csv","","null","resources/images/coin2.png","null","",NA,NA,NA,NA,""
"image-keyboard-response",38,82855,"0.0-3.9-0.9","3d1hrrxekr97ue2",55,"57.csv","","1230.5","resources/trios/L4T2A1.jpg","38","restless",0.8,0.7,0.4,0.398894263847632,"true"
"image-keyboard-response",39,83262,"0.0-3.9-1.9","3d1hrrxekr97ue2",55,"57.csv","","null","resources/maskTrios/BT2B.jpg","null","",NA,NA,NA,NA,""
"image-keyboard-response",40,84468,"0.0-3.9-2.9","3d1hrrxekr97ue2",55,"57.csv","","null","resources/images/coin2.png","null","",NA,NA,NA,NA,""
"image-keyboard-response",41,85349,"0.0-3.10-0.10","3d1hrrxekr97ue2",55,"57.csv","","879.7999999821186","resources/trios/L4T2A1.jpg","38","restless",0.8,0.7,0.3,0.377592054445115,"true"
"image-keyboard-response",42,85752,"0.0-3.10-1.10","3d1hrrxekr97ue2",55,"57.csv","","null","resources/maskTrios/BT2B.jpg","null","",NA,NA,NA,NA,""
"image-keyboard-response",43,86956,"0.0-3.10-2.10","3d1hrrxekr97ue2",55,"57.csv","","null","resources/images/coin2.png","null","",NA,NA,NA,NA,""
"image-keyboard-response",44,88309,"0.0-3.11-0.11","3d1hrrxekr97ue2",55,"57.csv","","1351.5999999940395","resources/trios/L1T1A3.jpg","37","restless",0.8,0.8,0.3,0.401052745306627,"true"
"image-keyboard-response",45,88712,"0.0-3.11-1.11","3d1hrrxekr97ue2",55,"57.csv","","null","resources/maskTrios/L1BB.jpg","null","",NA,NA,NA,NA,""
"image-keyboard-response",46,89919,"0.0-3.11-2.11","3d1hrrxekr97ue2",55,"57.csv","","null","resources/images/coin2.png","null","",NA,NA,NA,NA,""
"image-keyboard-response",47,90649,"0.0-3.12-0.12","3d1hrrxekr97ue2",55,"57.csv","","729.2999999821186","resources/trios/L4T2A1.jpg","38","restless",0.8,0.8,0.4,0.37633510894553,"true"
"image-keyboard-response",48,91051,"0.0-3.12-1.12","3d1hrrxekr97ue2",55,"57.csv","","null","resources/maskTrios/BT2B.jpg","null","",NA,NA,NA,NA,""
"image-keyboard-response",49,92254,"0.0-3.12-2.12","3d1hrrxekr97ue2",55,"57.csv","","null","resources/images/coin2.png","null","",NA,NA,NA,NA,""
"image-keyboard-response",50,94281,"0.0-3.13-0.13","3d1hrrxekr97ue2",55,"57.csv","","2026","resources/trios/L4T2A3.jpg","38","restless",0.7,0.7,0.4,0.754149094348371,"false"
"image-keyboard-response",51,94683,"0.0-3.13-1.13","3d1hrrxekr97ue2",55,"57.csv","","null","resources/maskTrios/BT2B.jpg","null","",NA,NA,NA,NA,""
"image-keyboard-response",52,95890,"0.0-3.13-2.13","3d1hrrxekr97ue2",55,"57.csv","","null","resources/images/fishbone.png","null","",NA,NA,NA,NA,""
"image-keyboard-response",53,97473,"0.0-3.14-0.14","3d1hrrxekr97ue2",55,"57.csv","","1581.9000000059605","resources/trios/L1T2A3.jpg","37","restless",0.7,0.6,0.4,0.631461796080219,"true"
"image-keyboard-response",54,97875,"0.0-3.14-1.14","3d1hrrxekr97ue2",55,"57.csv","","null","resources/maskTrios/L1BB.jpg","null","",NA,NA,NA,NA,""
"image-keyboard-response",55,99081,"0.0-3.14-2.14","3d1hrrxekr97ue2",55,"57.csv","","null","resources/images/coin2.png","null","",NA,NA,NA,NA,""
"image-keyboard-response",56,100455,"0.0-3.15-0.15","3d1hrrxekr97ue2",55,"57.csv","","1372.7000000178814","resources/trios/L1T1A3.jpg","37","restless",0.6,0.6,0.4,0.811563637310788,"false"
"image-keyboard-response",57,100861,"0.0-3.15-1.15","3d1hrrxekr97ue2",55,"57.csv","","null","resources/maskTrios/L1BB.jpg","null","",NA,NA,NA,NA,""
"image-keyboard-response",58,102067,"0.0-3.15-2.15","3d1hrrxekr97ue2",55,"57.csv","","null","resources/images/fishbone.png","null","",NA,NA,NA,NA,""
"image-keyboard-response",59,102945,"0.0-3.16-0.16","3d1hrrxekr97ue2",55,"57.csv","","876.1000000238419","resources/trios/L4T1A1.jpg","38","restless",0.6,0.6,0.4,0.211749914306968,"true"
"image-keyboard-response",60,103351,"0.0-3.16-1.16","3d1hrrxekr97ue2",55,"57.csv","","null","resources/maskTrios/BT1B.jpg","null","",NA,NA,NA,NA,""
"image-keyboard-response",61,104557,"0.0-3.16-2.16","3d1hrrxekr97ue2",55,"57.csv","","null","resources/images/coin2.png","null","",NA,NA,NA,NA,""
"image-keyboard-response",62,105211,"0.0-3.17-0.17","3d1hrrxekr97ue2",55,"57.csv","","652.7999999821186","resources/trios/L1T2A1.jpg","38","restless",0.6,0.6,0.4,0.177637360142555,"true"
"image-keyboard-response",63,105617,"0.0-3.17-1.17","3d1hrrxekr97ue2",55,"57.csv","","null","resources/maskTrios/BT2B.jpg","null","",NA,NA,NA,NA,""
"image-keyboard-response",64,106823,"0.0-3.17-2.17","3d1hrrxekr97ue2",55,"57.csv","","null","resources/images/coin2.png","null","",NA,NA,NA,NA,""
"image-keyboard-response",65,108184,"0.0-3.18-0.18","3d1hrrxekr97ue2",55,"57.csv","","1358.5999999940395","resources/trios/L1T2A3.jpg","38","restless",0.6,0.5,0.4,0.242779735620114,"true"
"image-keyboard-response",66,108586,"0.0-3.18-1.18","3d1hrrxekr97ue2",55,"57.csv","","null","resources/maskTrios/BT2B.jpg","null","",NA,NA,NA,NA,""
"image-keyboard-response",67,109792,"0.0-3.18-2.18","3d1hrrxekr97ue2",55,"57.csv","","null","resources/images/coin2.png","null","",NA,NA,NA,NA,""
"image-keyboard-response",68,110489,"0.0-3.19-0.19","3d1hrrxekr97ue2",55,"57.csv","","695.4000000059605","resources/trios/L1T1A3.jpg","37","restless",0.6,0.5,0.4,0.152317447732792,"true"
"image-keyboard-response",69,110895,"0.0-3.19-1.19","3d1hrrxekr97ue2",55,"57.csv","","null","resources/maskTrios/L1BB.jpg","null","",NA,NA,NA,NA,""
"image-keyboard-response",70,112101,"0.0-3.19-2.19","3d1hrrxekr97ue2",55,"57.csv","","null","resources/images/coin2.png","null","",NA,NA,NA,NA,""
"image-keyboard-response",71,113230,"0.0-3.20-0.20","3d1hrrxekr97ue2",55,"57.csv","","1126.9000000059605","resources/trios/L1T1A1.jpg","38","restless",0.6,0.5,0.4,0.49305117548173,"true"
"image-keyboard-response",72,113636,"0.0-3.20-1.20","3d1hrrxekr97ue2",55,"57.csv","","null","resources/maskTrios/BT1B.jpg","null","",NA,NA,NA,NA,""
"image-keyboard-response",73,114838,"0.0-3.20-2.20","3d1hrrxekr97ue2",55,"57.csv","","null","resources/images/coin2.png","null","",NA,NA,NA,NA,""
"image-keyboard-response",74,115534,"0.0-3.21-0.21","3d1hrrxekr97ue2",55,"57.csv","","694.2000000178814","resources/trios/L4T1A3.jpg","37","restless",0.6,0.5,0.4,0.705093862772369,"false"
"image-keyboard-response",75,115940,"0.0-3.21-1.21","3d1hrrxekr97ue2",55,"57.csv","","null","resources/maskTrios/L4BB.jpg","null","",NA,NA,NA,NA,""
"image-keyboard-response",76,117142,"0.0-3.21-2.21","3d1hrrxekr97ue2",55,"57.csv","","null","resources/images/fishbone.png","null","",NA,NA,NA,NA,""
"image-keyboard-response",77,117668,"0.0-3.22-0.22","3d1hrrxekr97ue2",55,"57.csv","","524.7000000178814","resources/trios/L4T2A3.jpg","38","restless",0.6,0.5,0.4,0.976457805153604,"false"
"image-keyboard-response",78,118071,"0.0-3.22-1.22","3d1hrrxekr97ue2",55,"57.csv","","null","resources/maskTrios/BT2B.jpg","null","",NA,NA,NA,NA,""
"image-keyboard-response",79,119277,"0.0-3.22-2.22","3d1hrrxekr97ue2",55,"57.csv","","null","resources/images/fishbone.png","null","",NA,NA,NA,NA,""
"image-keyboard-response",80,119975,"0.0-3.23-0.23","3d1hrrxekr97ue2",55,"57.csv","","696.2999999821186","resources/trios/L4T1A3.jpg","39","restless",0.5,0.5,0.4,0.701452444816806,"false"
"image-keyboard-response",81,120381,"0.0-3.23-1.23","3d1hrrxekr97ue2",55,"57.csv","","null","resources/maskTrios/BBA3.jpg","null","",NA,NA,NA,NA,""
"image-keyboard-response",82,121587,"0.0-3.23-2.23","3d1hrrxekr97ue2",55,"57.csv","","null","resources/images/fishbone.png","null","",NA,NA,NA,NA,""
"image-keyboard-response",83,122381,"0.0-3.24-0.24","3d1hrrxekr97ue2",55,"57.csv","","793.0999999940395","resources/trios/L1T1A1.jpg","37","restless",0.5,0.5,0.4,0.958676355478213,"false"
"image-keyboard-response",84,122787,"0.0-3.24-1.24","3d1hrrxekr97ue2",55,"57.csv","","null","resources/maskTrios/L1BB.jpg","null","",NA,NA,NA,NA,""
"image-keyboard-response",85,123993,"0.0-3.24-2.24","3d1hrrxekr97ue2",55,"57.csv","","null","resources/images/fishbone.png","null","",NA,NA,NA,NA,""
"image-keyboard-response",86,124443,"0.0-3.25-0.25","3d1hrrxekr97ue2",55,"57.csv","","448.5","resources/trios/L1T1A1.jpg","38","restless",0.5,0.5,0.4,0.261818511143461,"true"
"image-keyboard-response",87,124849,"0.0-3.25-1.25","3d1hrrxekr97ue2",55,"57.csv","","null","resources/maskTrios/BT1B.jpg","null","",NA,NA,NA,NA,""
"image-keyboard-response",88,126055,"0.0-3.25-2.25","3d1hrrxekr97ue2",55,"57.csv","","null","resources/images/coin2.png","null","",NA,NA,NA,NA,""
"image-keyboard-response",89,126449,"0.0-3.26-0.26","3d1hrrxekr97ue2",55,"57.csv","","392.5","resources/trios/L1T2A1.jpg","38","restless",0.5,0.5,0.4,0.989435978077864,"false"
"image-keyboard-response",90,126851,"0.0-3.26-1.26","3d1hrrxekr97ue2",55,"57.csv","","null","resources/maskTrios/BT2B.jpg","null","",NA,NA,NA,NA,""
"image-keyboard-response",91,128057,"0.0-3.26-2.26","3d1hrrxekr97ue2",55,"57.csv","","null","resources/images/fishbone.png","null","",NA,NA,NA,NA,""
"image-keyboard-response",92,128718,"0.0-3.27-0.27","3d1hrrxekr97ue2",55,"57.csv","","659.7000000178814","resources/trios/L4T1A3.jpg","37","restless",0.5,0.5,0.4,0.000197674419212035,"true"
"image-keyboard-response",93,129119,"0.0-3.27-1.27","3d1hrrxekr97ue2",55,"57.csv","","null","resources/maskTrios/L4BB.jpg","null","",NA,NA,NA,NA,""
"image-keyboard-response",94,130320,"0.0-3.27-2.27","3d1hrrxekr97ue2",55,"57.csv","","null","resources/images/coin2.png","null","",NA,NA,NA,NA,""
"image-keyboard-response",95,130888,"0.0-3.28-0.28","3d1hrrxekr97ue2",55,"57.csv","","566.5","resources/trios/L1T1A1.jpg","37","restless",0.5,0.5,0.4,0.500822543049112,"false"
"image-keyboard-response",96,131292,"0.0-3.28-1.28","3d1hrrxekr97ue2",55,"57.csv","","null","resources/maskTrios/L1BB.jpg","null","",NA,NA,NA,NA,""
"image-keyboard-response",97,132493,"0.0-3.28-2.28","3d1hrrxekr97ue2",55,"57.csv","","null","resources/images/fishbone.png","null","",NA,NA,NA,NA,""
"image-keyboard-response",98,132885,"0.0-3.29-0.29","3d1hrrxekr97ue2",55,"57.csv","","389.59999999403954","resources/trios/L1T2A3.jpg","39","restless",0.5,0.5,0.4,0.233753164883476,"true"
"image-keyboard-response",99,133288,"0.0-3.29-1.29","3d1hrrxekr97ue2",55,"57.csv","","null","resources/maskTrios/BBA3.jpg","null","",NA,NA,NA,NA,""
"image-keyboard-response",100,134495,"0.0-3.29-2.29","3d1hrrxekr97ue2",55,"57.csv","","null","resources/images/coin2.png","null","",NA,NA,NA,NA,""
"image-keyboard-response",101,135920,"0.0-3.30-0.30","3d1hrrxekr97ue2",55,"57.csv","","1424","resources/trios/L1T2A3.jpg","38","restless",0.5,0.5,0.4,0.0862690426618784,"true"
"image-keyboard-response",102,136326,"0.0-3.30-1.30","3d1hrrxekr97ue2",55,"57.csv","","null","resources/maskTrios/BT2B.jpg","null","",NA,NA,NA,NA,""
"image-keyboard-response",103,137533,"0.0-3.30-2.30","3d1hrrxekr97ue2",55,"57.csv","","null","resources/images/coin2.png","null","",NA,NA,NA,NA,""
"image-keyboard-response",104,138104,"0.0-3.31-0.31","3d1hrrxekr97ue2",55,"57.csv","","570","resources/trios/L4T2A1.jpg","38","restless",0.5,0.4,0.4,0.745035292749524,"false"
"image-keyboard-response",105,138510,"0.0-3.31-1.31","3d1hrrxekr97ue2",55,"57.csv","","null","resources/maskTrios/BT2B.jpg","null","",NA,NA,NA,NA,""
"image-keyboard-response",106,139716,"0.0-3.31-2.31","3d1hrrxekr97ue2",55,"57.csv","","null","resources/images/fishbone.png","null","",NA,NA,NA,NA,""
"image-keyboard-response",107,140585,"0.0-3.32-0.32","3d1hrrxekr97ue2",55,"57.csv","","867.7999999821186","resources/trios/L4T1A3.jpg","37","restless",0.5,0.4,0.4,0.635802488924593,"false"
"image-keyboard-response",108,140992,"0.0-3.32-1.32","3d1hrrxekr97ue2",55,"57.csv","","null","resources/maskTrios/L4BB.jpg","null","",NA,NA,NA,NA,""
"image-keyboard-response",109,142198,"0.0-3.32-2.32","3d1hrrxekr97ue2",55,"57.csv","","null","resources/images/fishbone.png","null","",NA,NA,NA,NA,""
"image-keyboard-response",110,144425,"0.0-3.33-0.33","3d1hrrxekr97ue2",55,"57.csv","","2225.9000000059605","resources/trios/L4T2A1.jpg","39","restless",0.5,0.4,0.4,0.4850612170845,"false"
"image-keyboard-response",111,144827,"0.0-3.33-1.33","3d1hrrxekr97ue2",55,"57.csv","","null","resources/maskTrios/BBA1.jpg","null","",NA,NA,NA,NA,""
"image-keyboard-response",112,146033,"0.0-3.33-2.33","3d1hrrxekr97ue2",55,"57.csv","","null","resources/images/fishbone.png","null","",NA,NA,NA,NA,""
"image-keyboard-response",113,146165,"0.0-3.34-0.34","3d1hrrxekr97ue2",55,"57.csv","","131","resources/trios/L4T1A1.jpg","37","restless",0.5,0.4,0.5,0.127946818385592,"true"
"image-keyboard-response",114,146569,"0.0-3.34-1.34","3d1hrrxekr97ue2",55,"57.csv","","null","resources/maskTrios/L4BB.jpg","null","",NA,NA,NA,NA,""
"image-keyboard-response",115,147776,"0.0-3.34-2.34","3d1hrrxekr97ue2",55,"57.csv","","null","resources/images/coin2.png","null","",NA,NA,NA,NA,""
"image-keyboard-response",116,149054,"0.0-3.35-0.35","3d1hrrxekr97ue2",55,"57.csv","","1277.199999988079","resources/trios/L4T2A1.jpg","37","restless",0.5,0.4,0.4,0.583547724364997,"false"
"image-keyboard-response",117,149459,"0.0-3.35-1.35","3d1hrrxekr97ue2",55,"57.csv","","null","resources/maskTrios/L4BB.jpg","null","",NA,NA,NA,NA,""
"image-keyboard-response",118,150663,"0.0-3.35-2.35","3d1hrrxekr97ue2",55,"57.csv","","null","resources/images/fishbone.png","null","",NA,NA,NA,NA,""
"image-keyboard-response",119,151423,"0.0-3.36-0.36","3d1hrrxekr97ue2",55,"57.csv","","758.9000000059605","resources/trios/L4T2A3.jpg","38","restless",0.5,0.4,0.4,0.488845279370244,"false"
"image-keyboard-response",120,151829,"0.0-3.36-1.36","3d1hrrxekr97ue2",55,"57.csv","","null","resources/maskTrios/BT2B.jpg","null","",NA,NA,NA,NA,""
"image-keyboard-response",121,153032,"0.0-3.36-2.36","3d1hrrxekr97ue2",55,"57.csv","","null","resources/images/fishbone.png","null","",NA,NA,NA,NA,""
"image-keyboard-response",122,153308,"0.0-3.37-0.37","3d1hrrxekr97ue2",55,"57.csv","","274.19999998807907","resources/trios/L1T2A3.jpg","39","restless",0.5,0.4,0.4,0.374322435530347,"true"
"image-keyboard-response",123,153714,"0.0-3.37-1.37","3d1hrrxekr97ue2",55,"57.csv","","null","resources/maskTrios/BBA3.jpg","null","",NA,NA,NA,NA,""
"image-keyboard-response",124,154917,"0.0-3.37-2.37","3d1hrrxekr97ue2",55,"57.csv","","null","resources/images/coin2.png","null","",NA,NA,NA,NA,""
"image-keyboard-response",125,155454,"0.0-3.38-0.38","3d1hrrxekr97ue2",55,"57.csv","","535.2999999821186","resources/trios/L1T2A1.jpg","37","restless",0.5,0.3,0.4,0.565695642661553,"false"
"image-keyboard-response",126,155855,"0.0-3.38-1.38","3d1hrrxekr97ue2",55,"57.csv","","null","resources/maskTrios/L1BB.jpg","null","",NA,NA,NA,NA,""
"image-keyboard-response",127,157061,"0.0-3.38-2.38","3d1hrrxekr97ue2",55,"57.csv","","null","resources/images/fishbone.png","null","",NA,NA,NA,NA,""
"image-keyboard-response",128,157453,"0.0-3.39-0.39","3d1hrrxekr97ue2",55,"57.csv","","390","resources/trios/L4T2A3.jpg","38","restless",0.5,0.3,0.4,0.741106823759798,"false"
"image-keyboard-response",129,157859,"0.0-3.39-1.39","3d1hrrxekr97ue2",55,"57.csv","","null","resources/maskTrios/BT2B.jpg","null","",NA,NA,NA,NA,""
"image-keyboard-response",130,159062,"0.0-3.39-2.39","3d1hrrxekr97ue2",55,"57.csv","","null","resources/images/fishbone.png","null","",NA,NA,NA,NA,""
"image-keyboard-response",131,159350,"0.0-3.40-0.40","3d1hrrxekr97ue2",55,"57.csv","","286.69999998807907","resources/trios/L1T1A1.jpg","38","restless",0.5,0.3,0.4,0.0492034956069392,"true"
"image-keyboard-response",132,159756,"0.0-3.40-1.40","3d1hrrxekr97ue2",55,"57.csv","","null","resources/maskTrios/BT1B.jpg","null","",NA,NA,NA,NA,""
"image-keyboard-response",133,160962,"0.0-3.40-2.40","3d1hrrxekr97ue2",55,"57.csv","","null","resources/images/coin2.png","null","",NA,NA,NA,NA,""
"image-keyboard-response",134,161449,"0.0-3.41-0.41","3d1hrrxekr97ue2",55,"57.csv","","485.69999998807907","resources/trios/L4T2A1.jpg","38","restless",0.5,0.3,0.4,0.302905318487818,"false"
"image-keyboard-response",135,161850,"0.0-3.41-1.41","3d1hrrxekr97ue2",55,"57.csv","","null","resources/maskTrios/BT2B.jpg","null","",NA,NA,NA,NA,""
"image-keyboard-response",136,163057,"0.0-3.41-2.41","3d1hrrxekr97ue2",55,"57.csv","","null","resources/images/fishbone.png","null","",NA,NA,NA,NA,""
"image-keyboard-response",137,163397,"0.0-3.42-0.42","3d1hrrxekr97ue2",55,"57.csv","","338.5","resources/trios/L1T2A1.jpg","39","restless",0.5,0.3,0.4,0.0126234878368179,"true"
"image-keyboard-response",138,163803,"0.0-3.42-1.42","3d1hrrxekr97ue2",55,"57.csv","","null","resources/maskTrios/BBA1.jpg","null","",NA,NA,NA,NA,""
"image-keyboard-response",139,165009,"0.0-3.42-2.42","3d1hrrxekr97ue2",55,"57.csv","","null","resources/images/coin2.png","null","",NA,NA,NA,NA,""
"image-keyboard-response",140,165683,"0.0-3.43-0.43","3d1hrrxekr97ue2",55,"57.csv","","672.7000000178814","resources/trios/L1T1A1.jpg","37","restless",0.5,0.3,0.4,0.501172059932219,"false"
"image-keyboard-response",141,166089,"0.0-3.43-1.43","3d1hrrxekr97ue2",55,"57.csv","","null","resources/maskTrios/L1BB.jpg","null","",NA,NA,NA,NA,""
"image-keyboard-response",142,167296,"0.0-3.43-2.43","3d1hrrxekr97ue2",55,"57.csv","","null","resources/images/fishbone.png","null","",NA,NA,NA,NA,""
"image-keyboard-response",143,167800,"0.0-3.44-0.44","3d1hrrxekr97ue2",55,"57.csv","","502.80000001192093","resources/trios/L4T2A1.jpg","39","restless",0.5,0.3,0.4,0.696450655393806,"false"
"image-keyboard-response",144,168206,"0.0-3.44-1.44","3d1hrrxekr97ue2",55,"57.csv","","null","resources/maskTrios/BBA1.jpg","null","",NA,NA,NA,NA,""
"image-keyboard-response",145,169407,"0.0-3.44-2.44","3d1hrrxekr97ue2",55,"57.csv","","null","resources/images/fishbone.png","null","",NA,NA,NA,NA,""
"image-keyboard-response",146,169708,"0.0-3.45-0.45","3d1hrrxekr97ue2",55,"57.csv","","299.89999997615814","resources/trios/L4T2A1.jpg","38","restless",0.5,0.3,0.4,0.403403210299075,"false"
"image-keyboard-response",147,170114,"0.0-3.45-1.45","3d1hrrxekr97ue2",55,"57.csv","","null","resources/maskTrios/BT2B.jpg","null","",NA,NA,NA,NA,""
"image-keyboard-response",148,171321,"0.0-3.45-2.45","3d1hrrxekr97ue2",55,"57.csv","","null","resources/images/fishbone.png","null","",NA,NA,NA,NA,""
"image-keyboard-response",149,171915,"0.0-3.46-0.46","3d1hrrxekr97ue2",55,"57.csv","","593.0999999940395","resources/trios/L4T1A1.jpg","37","restless",0.5,0.3,0.4,0.628125812917394,"false"
"image-keyboard-response",150,172321,"0.0-3.46-1.46","3d1hrrxekr97ue2",55,"57.csv","","null","resources/maskTrios/L4BB.jpg","null","",NA,NA,NA,NA,""
"image-keyboard-response",151,173523,"0.0-3.46-2.46","3d1hrrxekr97ue2",55,"57.csv","","null","resources/images/fishbone.png","null","",NA,NA,NA,NA,""
"image-keyboard-response",152,174078,"0.0-3.47-0.47","3d1hrrxekr97ue2",55,"57.csv","","554","resources/trios/L1T2A1.jpg","37","restless",0.5,0.3,0.4,0.121227325782697,"true"
"image-keyboard-response",153,174483,"0.0-3.47-1.47","3d1hrrxekr97ue2",55,"57.csv","","null","resources/maskTrios/L1BB.jpg","null","",NA,NA,NA,NA,""
"image-keyboard-response",154,175689,"0.0-3.47-2.47","3d1hrrxekr97ue2",55,"57.csv","","null","resources/images/coin2.png","null","",NA,NA,NA,NA,""
"image-keyboard-response",155,176034,"0.0-3.48-0.48","3d1hrrxekr97ue2",55,"57.csv","","343.7000000178814","resources/trios/L4T2A1.jpg","39","restless",0.5,0.3,0.4,0.837065981416205,"false"
"image-keyboard-response",156,176440,"0.0-3.48-1.48","3d1hrrxekr97ue2",55,"57.csv","","null","resources/maskTrios/BBA1.jpg","null","",NA,NA,NA,NA,""
"image-keyboard-response",157,177646,"0.0-3.48-2.48","3d1hrrxekr97ue2",55,"57.csv","","null","resources/images/fishbone.png","null","",NA,NA,NA,NA,""
"image-keyboard-response",158,177898,"0.0-3.49-0.49","3d1hrrxekr97ue2",55,"57.csv","","249.60000002384186","resources/trios/L4T1A3.jpg","38","restless",0.6,0.3,0.4,0.650315244121811,"false"
"image-keyboard-response",159,178303,"0.0-3.49-1.49","3d1hrrxekr97ue2",55,"57.csv","","null","resources/maskTrios/BT1B.jpg","null","",NA,NA,NA,NA,""
"image-keyboard-response",160,179509,"0.0-3.49-2.49","3d1hrrxekr97ue2",55,"57.csv","","null","resources/images/fishbone.png","null","",NA,NA,NA,NA,""
"image-keyboard-response",161,179731,"0.0-3.50-0.50","3d1hrrxekr97ue2",55,"57.csv","","220.7999999821186","resources/trios/L4T2A1.jpg","37","restless",0.6,0.3,0.4,0.480120599218613,"true"
"image-keyboard-response",162,180136,"0.0-3.50-1.50","3d1hrrxekr97ue2",55,"57.csv","","null","resources/maskTrios/L4BB.jpg","null","",NA,NA,NA,NA,""
"image-keyboard-response",163,181342,"0.0-3.50-2.50","3d1hrrxekr97ue2",55,"57.csv","","null","resources/images/coin2.png","null","",NA,NA,NA,NA,""
"image-keyboard-response",164,181673,"0.0-3.51-0.51","3d1hrrxekr97ue2",55,"57.csv","","329.19999998807907","resources/trios/L1T2A3.jpg","37","restless",0.6,0.4,0.3,0.431869153379568,"true"
"image-keyboard-response",165,182079,"0.0-3.51-1.51","3d1hrrxekr97ue2",55,"57.csv","","null","resources/maskTrios/L1BB.jpg","null","",NA,NA,NA,NA,""
"image-keyboard-response",166,183280,"0.0-3.51-2.51","3d1hrrxekr97ue2",55,"57.csv","","null","resources/images/coin2.png","null","",NA,NA,NA,NA,""
"image-keyboard-response",167,183794,"0.0-3.52-0.52","3d1hrrxekr97ue2",55,"57.csv","","512.4000000059605","resources/trios/L4T1A1.jpg","37","restless",0.7,0.4,0.3,0.983204252896467,"false"
"image-keyboard-response",168,184200,"0.0-3.52-1.52","3d1hrrxekr97ue2",55,"57.csv","","null","resources/maskTrios/L4BB.jpg","null","",NA,NA,NA,NA,""
"image-keyboard-response",169,185407,"0.0-3.52-2.52","3d1hrrxekr97ue2",55,"57.csv","","null","resources/images/fishbone.png","null","",NA,NA,NA,NA,""
"image-keyboard-response",170,185829,"0.0-3.53-0.53","3d1hrrxekr97ue2",55,"57.csv","","421","resources/trios/L4T2A1.jpg","38","restless",0.7,0.4,0.3,0.34795106666703,"true"
"image-keyboard-response",171,186230,"0.0-3.53-1.53","3d1hrrxekr97ue2",55,"57.csv","","null","resources/maskTrios/BT2B.jpg","null","",NA,NA,NA,NA,""
"image-keyboard-response",172,187432,"0.0-3.53-2.53","3d1hrrxekr97ue2",55,"57.csv","","null","resources/images/coin2.png","null","",NA,NA,NA,NA,""
"image-keyboard-response",173,187750,"0.0-3.54-0.54","3d1hrrxekr97ue2",55,"57.csv","","316.59999999403954","resources/trios/L1T1A3.jpg","38","restless",0.7,0.4,0.3,0.935109134136229,"false"
"image-keyboard-response",174,188156,"0.0-3.54-1.54","3d1hrrxekr97ue2",55,"57.csv","","null","resources/maskTrios/BT1B.jpg","null","",NA,NA,NA,NA,""
"image-keyboard-response",175,189362,"0.0-3.54-2.54","3d1hrrxekr97ue2",55,"57.csv","","null","resources/images/fishbone.png","null","",NA,NA,NA,NA,""
"image-keyboard-response",176,189449,"0.0-3.55-0.55","3d1hrrxekr97ue2",55,"57.csv","","85.5","resources/trios/L1T1A1.jpg","39","restless",0.7,0.4,0.3,0.478490227912464,"false"
"image-keyboard-response",177,189855,"0.0-3.55-1.55","3d1hrrxekr97ue2",55,"57.csv","","null","resources/maskTrios/BBA1.jpg","null","",NA,NA,NA,NA,""
"image-keyboard-response",178,191062,"0.0-3.55-2.55","3d1hrrxekr97ue2",55,"57.csv","","null","resources/images/fishbone.png","null","",NA,NA,NA,NA,""
"image-keyboard-response",179,191268,"0.0-3.56-0.56","3d1hrrxekr97ue2",55,"57.csv","","204.90000000596046","resources/trios/L1T1A1.jpg","37","restless",0.7,0.5,0.3,0.978225933112528,"false"
"image-keyboard-response",180,191674,"0.0-3.56-1.56","3d1hrrxekr97ue2",55,"57.csv","","null","resources/maskTrios/L1BB.jpg","null","",NA,NA,NA,NA,""
"image-keyboard-response",181,192876,"0.0-3.56-2.56","3d1hrrxekr97ue2",55,"57.csv","","null","resources/images/fishbone.png","null","",NA,NA,NA,NA,""
"image-keyboard-response",182,193360,"0.0-3.57-0.57","3d1hrrxekr97ue2",55,"57.csv","","483","resources/trios/L4T2A1.jpg","38","restless",0.7,0.5,0.2,0.335813652780114,"true"
"image-keyboard-response",183,193763,"0.0-3.57-1.57","3d1hrrxekr97ue2",55,"57.csv","","null","resources/maskTrios/BT2B.jpg","null","",NA,NA,NA,NA,""
"image-keyboard-response",184,194965,"0.0-3.57-2.57","3d1hrrxekr97ue2",55,"57.csv","","null","resources/images/coin2.png","null","",NA,NA,NA,NA,""
"image-keyboard-response",185,195269,"0.0-3.58-0.58","3d1hrrxekr97ue2",55,"57.csv","","303.10000002384186","resources/trios/L1T2A3.jpg","38","restless",0.7,0.5,0.2,0.467464939330732,"true"
"image-keyboard-response",186,195675,"0.0-3.58-1.58","3d1hrrxekr97ue2",55,"57.csv","","null","resources/maskTrios/BT2B.jpg","null","",NA,NA,NA,NA,""
"image-keyboard-response",187,196878,"0.0-3.58-2.58","3d1hrrxekr97ue2",55,"57.csv","","null","resources/images/coin2.png","null","",NA,NA,NA,NA,""
"image-keyboard-response",188,197781,"0.0-3.59-0.59","3d1hrrxekr97ue2",55,"57.csv","","902","resources/trios/L1T1A1.jpg","37","restless",0.7,0.5,0.2,0.292399686624545,"true"
"image-keyboard-response",189,198187,"0.0-3.59-1.59","3d1hrrxekr97ue2",55,"57.csv","","null","resources/maskTrios/L1BB.jpg","null","",NA,NA,NA,NA,""
"image-keyboard-response",190,199390,"0.0-3.59-2.59","3d1hrrxekr97ue2",55,"57.csv","","null","resources/images/coin2.png","null","",NA,NA,NA,NA,""
"image-keyboard-response",191,199840,"0.0-3.60-0.60","3d1hrrxekr97ue2",55,"57.csv","","449.40000000596046","resources/trios/L1T2A1.jpg","38","restless",0.7,0.5,0.2,0.56184398954412,"false"
"image-keyboard-response",192,200241,"0.0-3.60-1.60","3d1hrrxekr97ue2",55,"57.csv","","null","resources/maskTrios/BT2B.jpg","null","",NA,NA,NA,NA,""
"image-keyboard-response",193,201442,"0.0-3.60-2.60","3d1hrrxekr97ue2",55,"57.csv","","null","resources/images/fishbone.png","null","",NA,NA,NA,NA,""
"image-keyboard-response",194,201728,"0.0-3.61-0.61","3d1hrrxekr97ue2",55,"57.csv","","284.80000001192093","resources/trios/L1T2A1.jpg","37","restless",0.7,0.6,0.2,0.675156131195574,"true"
"image-keyboard-response",195,202131,"0.0-3.61-1.61","3d1hrrxekr97ue2",55,"57.csv","","null","resources/maskTrios/L1BB.jpg","null","",NA,NA,NA,NA,""
"image-keyboard-response",196,203337,"0.0-3.61-2.61","3d1hrrxekr97ue2",55,"57.csv","","null","resources/images/coin2.png","null","",NA,NA,NA,NA,""
"image-keyboard-response",197,203616,"0.0-3.62-0.62","3d1hrrxekr97ue2",55,"57.csv","","277.90000000596046","resources/trios/L4T1A3.jpg","37","restless",0.7,0.6,0.2,0.221380979110408,"true"
"image-keyboard-response",198,204020,"0.0-3.62-1.62","3d1hrrxekr97ue2",55,"57.csv","","null","resources/maskTrios/L4BB.jpg","null","",NA,NA,NA,NA,""
"image-keyboard-response",199,205226,"0.0-3.62-2.62","3d1hrrxekr97ue2",55,"57.csv","","null","resources/images/coin2.png","null","",NA,NA,NA,NA,""
"image-keyboard-response",200,205601,"0.0-3.63-0.63","3d1hrrxekr97ue2",55,"57.csv","","373.2000000178814","resources/trios/L4T2A1.jpg","37","restless",0.7,0.6,0.2,0.0816274421834033,"true"
"image-keyboard-response",201,206002,"0.0-3.63-1.63","3d1hrrxekr97ue2",55,"57.csv","","null","resources/maskTrios/L4BB.jpg","null","",NA,NA,NA,NA,""
"image-keyboard-response",202,207207,"0.0-3.63-2.63","3d1hrrxekr97ue2",55,"57.csv","","null","resources/images/coin2.png","null","",NA,NA,NA,NA,""
"image-keyboard-response",203,208157,"0.0-3.64-0.64","3d1hrrxekr97ue2",55,"57.csv","","947.5999999940395","resources/trios/L1T1A3.jpg","37","restless",0.7,0.6,0.2,0.242485212371967,"true"
"image-keyboard-response",204,208563,"0.0-3.64-1.64","3d1hrrxekr97ue2",55,"57.csv","","null","resources/maskTrios/L1BB.jpg","null","",NA,NA,NA,NA,""
"image-keyboard-response",205,209769,"0.0-3.64-2.64","3d1hrrxekr97ue2",55,"57.csv","","null","resources/images/coin2.png","null","",NA,NA,NA,NA,""
"image-keyboard-response",206,210108,"0.0-3.65-0.65","3d1hrrxekr97ue2",55,"57.csv","","337.5","resources/trios/L1T1A1.jpg","37","restless",0.7,0.6,0.2,0.111012857466295,"true"
"image-keyboard-response",207,210514,"0.0-3.65-1.65","3d1hrrxekr97ue2",55,"57.csv","","null","resources/maskTrios/L1BB.jpg","null","",NA,NA,NA,NA,""
"image-keyboard-response",208,211720,"0.0-3.65-2.65","3d1hrrxekr97ue2",55,"57.csv","","null","resources/images/coin2.png","null","",NA,NA,NA,NA,""
"image-keyboard-response",209,212057,"0.0-3.66-0.66","3d1hrrxekr97ue2",55,"57.csv","","335.2000000178814","resources/trios/L1T2A1.jpg","37","restless",0.7,0.6,0.2,0.19409144974807,"true"
"image-keyboard-response",210,212463,"0.0-3.66-1.66","3d1hrrxekr97ue2",55,"57.csv","","null","resources/maskTrios/L1BB.jpg","null","",NA,NA,NA,NA,""
"image-keyboard-response",211,213667,"0.0-3.66-2.66","3d1hrrxekr97ue2",55,"57.csv","","null","resources/images/coin2.png","null","",NA,NA,NA,NA,""
"image-keyboard-response",212,214033,"0.0-3.67-0.67","3d1hrrxekr97ue2",55,"57.csv","","364.5","resources/trios/L1T2A3.jpg","37","restless",0.7,0.6,0.2,0.96073851702274,"false"
"image-keyboard-response",213,214437,"0.0-3.67-1.67","3d1hrrxekr97ue2",55,"57.csv","","null","resources/maskTrios/L1BB.jpg","null","",NA,NA,NA,NA,""
"image-keyboard-response",214,215642,"0.0-3.67-2.67","3d1hrrxekr97ue2",55,"57.csv","","null","resources/images/fishbone.png","null","",NA,NA,NA,NA,""
"image-keyboard-response",215,215919,"0.0-3.68-0.68","3d1hrrxekr97ue2",55,"57.csv","","275.69999998807907","resources/trios/L1T1A3.jpg","38","restless",0.7,0.6,0.2,0.913101359489457,"false"
"image-keyboard-response",216,216325,"0.0-3.68-1.68","3d1hrrxekr97ue2",55,"57.csv","","null","resources/maskTrios/BT1B.jpg","null","",NA,NA,NA,NA,""
"image-keyboard-response",217,217531,"0.0-3.68-2.68","3d1hrrxekr97ue2",55,"57.csv","","null","resources/images/fishbone.png","null","",NA,NA,NA,NA,""
"image-keyboard-response",218,218269,"0.0-3.69-0.69","3d1hrrxekr97ue2",55,"57.csv","","736.5","resources/trios/L4T1A3.jpg","37","restless",0.7,0.6,0.2,0.402645392562174,"true"
"image-keyboard-response",219,218675,"0.0-3.69-1.69","3d1hrrxekr97ue2",55,"57.csv","","null","resources/maskTrios/L4BB.jpg","null","",NA,NA,NA,NA,""
"image-keyboard-response",220,219881,"0.0-3.69-2.69","3d1hrrxekr97ue2",55,"57.csv","","null","resources/images/coin2.png","null","",NA,NA,NA,NA,""
"image-keyboard-response",221,220265,"0.0-3.70-0.70","3d1hrrxekr97ue2",55,"57.csv","","381.7999999821186","resources/trios/L4T2A3.jpg","37","restless",0.6,0.6,0.3,0.27338358497521,"true"
"image-keyboard-response",222,220668,"0.0-3.70-1.70","3d1hrrxekr97ue2",55,"57.csv","","null","resources/maskTrios/L4BB.jpg","null","",NA,NA,NA,NA,""
"image-keyboard-response",223,221874,"0.0-3.70-2.70","3d1hrrxekr97ue2",55,"57.csv","","null","resources/images/coin2.png","null","",NA,NA,NA,NA,""
"image-keyboard-response",224,222175,"0.0-3.71-0.71","3d1hrrxekr97ue2",55,"57.csv","","299.90000000596046","resources/trios/L1T2A1.jpg","37","restless",0.6,0.6,0.3,0.642485708407884,"false"
"image-keyboard-response",225,222581,"0.0-3.71-1.71","3d1hrrxekr97ue2",55,"57.csv","","null","resources/maskTrios/L1BB.jpg","null","",NA,NA,NA,NA,""
"image-keyboard-response",226,223787,"0.0-3.71-2.71","3d1hrrxekr97ue2",55,"57.csv","","null","resources/images/fishbone.png","null","",NA,NA,NA,NA,""
"image-keyboard-response",227,224427,"0.0-3.72-0.72","3d1hrrxekr97ue2",55,"57.csv","","638.1999999880791","resources/trios/L4T2A1.jpg","38","restless",0.6,0.6,0.3,0.536840621603861,"true"
"image-keyboard-response",228,224831,"0.0-3.72-1.72","3d1hrrxekr97ue2",55,"57.csv","","null","resources/maskTrios/BT2B.jpg","null","",NA,NA,NA,NA,""
"image-keyboard-response",229,226037,"0.0-3.72-2.72","3d1hrrxekr97ue2",55,"57.csv","","null","resources/images/coin2.png","null","",NA,NA,NA,NA,""
"image-keyboard-response",230,226404,"0.0-3.73-0.73","3d1hrrxekr97ue2",55,"57.csv","","364.80000001192093","resources/trios/L4T2A3.jpg","38","restless",0.6,0.6,0.3,0.656576840038191,"false"
"image-keyboard-response",231,226810,"0.0-3.73-1.73","3d1hrrxekr97ue2",55,"57.csv","","null","resources/maskTrios/BT2B.jpg","null","",NA,NA,NA,NA,""
"image-keyboard-response",232,228016,"0.0-3.73-2.73","3d1hrrxekr97ue2",55,"57.csv","","null","resources/images/fishbone.png","null","",NA,NA,NA,NA,""
"image-keyboard-response",233,228605,"0.0-3.74-0.74","3d1hrrxekr97ue2",55,"57.csv","","587","resources/trios/L4T2A3.jpg","37","restless",0.6,0.6,0.3,0.249539855538034,"true"
"image-keyboard-response",234,229011,"0.0-3.74-1.74","3d1hrrxekr97ue2",55,"57.csv","","null","resources/maskTrios/L4BB.jpg","null","",NA,NA,NA,NA,""
"image-keyboard-response",235,230217,"0.0-3.74-2.74","3d1hrrxekr97ue2",55,"57.csv","","null","resources/images/coin2.png","null","",NA,NA,NA,NA,""
"image-keyboard-response",236,230593,"0.0-3.75-0.75","3d1hrrxekr97ue2",55,"57.csv","","375","resources/trios/L1T2A1.jpg","38","restless",0.6,0.6,0.3,0.00339341407921134,"true"
"image-keyboard-response",237,230999,"0.0-3.75-1.75","3d1hrrxekr97ue2",55,"57.csv","","null","resources/maskTrios/BT2B.jpg","null","",NA,NA,NA,NA,""
"image-keyboard-response",238,232206,"0.0-3.75-2.75","3d1hrrxekr97ue2",55,"57.csv","","null","resources/images/coin2.png","null","",NA,NA,NA,NA,""
"image-keyboard-response",239,232416,"0.0-3.76-0.76","3d1hrrxekr97ue2",55,"57.csv","","208.30000001192093","resources/trios/L4T2A1.jpg","37","restless",0.6,0.6,0.3,0.741660478469379,"false"
"image-keyboard-response",240,232818,"0.0-3.76-1.76","3d1hrrxekr97ue2",55,"57.csv","","null","resources/maskTrios/L4BB.jpg","null","",NA,NA,NA,NA,""
"image-keyboard-response",241,234023,"0.0-3.76-2.76","3d1hrrxekr97ue2",55,"57.csv","","null","resources/images/fishbone.png","null","",NA,NA,NA,NA,""
"image-keyboard-response",242,234560,"0.0-3.77-0.77","3d1hrrxekr97ue2",55,"57.csv","","535.5","resources/trios/L1T1A1.jpg","38","restless",0.6,0.6,0.3,0.750254879301085,"false"
"image-keyboard-response",243,234964,"0.0-3.77-1.77","3d1hrrxekr97ue2",55,"57.csv","","null","resources/maskTrios/BT1B.jpg","null","",NA,NA,NA,NA,""
"image-keyboard-response",244,236170,"0.0-3.77-2.77","3d1hrrxekr97ue2",55,"57.csv","","null","resources/images/fishbone.png","null","",NA,NA,NA,NA,""
"image-keyboard-response",245,236600,"0.0-3.78-0.78","3d1hrrxekr97ue2",55,"57.csv","","429","resources/trios/L4T1A3.jpg","37","restless",0.6,0.6,0.3,0.856657841047508,"false"
"image-keyboard-response",246,237006,"0.0-3.78-1.78","3d1hrrxekr97ue2",55,"57.csv","","null","resources/maskTrios/L4BB.jpg","null","",NA,NA,NA,NA,""
"image-keyboard-response",247,238212,"0.0-3.78-2.78","3d1hrrxekr97ue2",55,"57.csv","","null","resources/images/fishbone.png","null","",NA,NA,NA,NA,""
"image-keyboard-response",248,238965,"0.0-3.79-0.79","3d1hrrxekr97ue2",55,"57.csv","","751.6999999880791","resources/trios/L1T1A3.jpg","37","restless",0.6,0.6,0.3,0.572108752760297,"true"
"image-keyboard-response",249,239367,"0.0-3.79-1.79","3d1hrrxekr97ue2",55,"57.csv","","null","resources/maskTrios/L1BB.jpg","null","",NA,NA,NA,NA,""
"image-keyboard-response",250,240568,"0.0-3.79-2.79","3d1hrrxekr97ue2",55,"57.csv","","null","resources/images/coin2.png","null","",NA,NA,NA,NA,""
"image-keyboard-response",251,241108,"0.0-3.80-0.80","3d1hrrxekr97ue2",55,"57.csv","","538.5","resources/trios/L4T1A3.jpg","37","restless",0.6,0.6,0.4,0.897765008612086,"false"
"image-keyboard-response",252,241514,"0.0-3.80-1.80","3d1hrrxekr97ue2",55,"57.csv","","null","resources/maskTrios/L4BB.jpg","null","",NA,NA,NA,NA,""
"image-keyboard-response",253,242720,"0.0-3.80-2.80","3d1hrrxekr97ue2",55,"57.csv","","null","resources/images/fishbone.png","null","",NA,NA,NA,NA,""
"image-keyboard-response",254,242803,"0.0-3.81-0.81","3d1hrrxekr97ue2",55,"57.csv","","80.90000000596046","resources/trios/L1T2A3.jpg","38","restless",0.6,0.6,0.4,0.134523963734435,"true"
"image-keyboard-response",255,243205,"0.0-3.81-1.81","3d1hrrxekr97ue2",55,"57.csv","","null","resources/maskTrios/BT2B.jpg","null","",NA,NA,NA,NA,""
"image-keyboard-response",256,244410,"0.0-3.81-2.81","3d1hrrxekr97ue2",55,"57.csv","","null","resources/images/coin2.png","null","",NA,NA,NA,NA,""
"image-keyboard-response",257,244867,"0.0-3.82-0.82","3d1hrrxekr97ue2",55,"57.csv","","455.59999999403954","resources/trios/L4T2A3.jpg","37","restless",0.6,0.6,0.4,0.501232653369143,"true"
"image-keyboard-response",258,245273,"0.0-3.82-1.82","3d1hrrxekr97ue2",55,"57.csv","","null","resources/maskTrios/L4BB.jpg","null","",NA,NA,NA,NA,""
"image-keyboard-response",259,246479,"0.0-3.82-2.82","3d1hrrxekr97ue2",55,"57.csv","","null","resources/images/coin2.png","null","",NA,NA,NA,NA,""
"image-keyboard-response",260,247272,"0.0-3.83-0.83","3d1hrrxekr97ue2",55,"57.csv","","792","resources/trios/L1T1A3.jpg","37","restless",0.6,0.5,0.4,0.117055870762781,"true"
"image-keyboard-response",261,247678,"0.0-3.83-1.83","3d1hrrxekr97ue2",55,"57.csv","","null","resources/maskTrios/L1BB.jpg","null","",NA,NA,NA,NA,""
"image-keyboard-response",262,248880,"0.0-3.83-2.83","3d1hrrxekr97ue2",55,"57.csv","","null","resources/images/coin2.png","null","",NA,NA,NA,NA,""
"image-keyboard-response",263,249368,"0.0-3.84-0.84","3d1hrrxekr97ue2",55,"57.csv","","485.69999998807907","resources/trios/L1T1A3.jpg","38","restless",0.6,0.5,0.4,0.0478806815941826,"true"
"image-keyboard-response",264,249772,"0.0-3.84-1.84","3d1hrrxekr97ue2",55,"57.csv","","null","resources/maskTrios/BT1B.jpg","null","",NA,NA,NA,NA,""
"image-keyboard-response",265,250978,"0.0-3.84-2.84","3d1hrrxekr97ue2",55,"57.csv","","null","resources/images/coin2.png","null","",NA,NA,NA,NA,""
"image-keyboard-response",266,251087,"0.0-3.85-0.85","3d1hrrxekr97ue2",55,"57.csv","","107.80000001192093","resources/trios/L1T1A1.jpg","38","restless",0.6,0.6,0.4,0.269909283080422,"true"
"image-keyboard-response",267,251489,"0.0-3.85-1.85","3d1hrrxekr97ue2",55,"57.csv","","null","resources/maskTrios/BT1B.jpg","null","",NA,NA,NA,NA,""
"image-keyboard-response",268,252691,"0.0-3.85-2.85","3d1hrrxekr97ue2",55,"57.csv","","null","resources/images/coin2.png","null","",NA,NA,NA,NA,""
"image-keyboard-response",269,252715,"0.0-3.86-0.86","3d1hrrxekr97ue2",55,"57.csv","","21.900000005960464","resources/trios/L4T2A1.jpg","37","restless",0.6,0.6,0.4,0.511505771218602,"true"
"image-keyboard-response",270,253121,"0.0-3.86-1.86","3d1hrrxekr97ue2",55,"57.csv","","null","resources/maskTrios/L4BB.jpg","null","",NA,NA,NA,NA,""
"image-keyboard-response",271,254323,"0.0-3.86-2.86","3d1hrrxekr97ue2",55,"57.csv","","null","resources/images/coin2.png","null","",NA,NA,NA,NA,""
"image-keyboard-response",272,254683,"0.0-3.87-0.87","3d1hrrxekr97ue2",55,"57.csv","","359.40000000596046","resources/trios/L1T1A1.jpg","38","restless",0.6,0.6,0.4,0.784802336855512,"false"
"image-keyboard-response",273,255089,"0.0-3.87-1.87","3d1hrrxekr97ue2",55,"57.csv","","null","resources/maskTrios/BT1B.jpg","null","",NA,NA,NA,NA,""
"image-keyboard-response",274,256295,"0.0-3.87-2.87","3d1hrrxekr97ue2",55,"57.csv","","null","resources/images/fishbone.png","null","",NA,NA,NA,NA,""
"image-keyboard-response",275,256369,"0.0-3.88-0.88","3d1hrrxekr97ue2",55,"57.csv","","72","resources/trios/L1T2A3.jpg","37","restless",0.6,0.6,0.4,0.0429302274527803,"true"
"image-keyboard-response",276,256771,"0.0-3.88-1.88","3d1hrrxekr97ue2",55,"57.csv","","null","resources/maskTrios/L1BB.jpg","null","",NA,NA,NA,NA,""
"image-keyboard-response",277,257972,"0.0-3.88-2.88","3d1hrrxekr97ue2",55,"57.csv","","null","resources/images/coin2.png","null","",NA,NA,NA,NA,""
"image-keyboard-response",278,258057,"0.0-3.89-0.89","3d1hrrxekr97ue2",55,"57.csv","","83.19999998807907","resources/trios/L4T1A1.jpg","37","restless",0.6,0.6,0.4,0.401741807604504,"true"
"image-keyboard-response",279,258459,"0.0-3.89-1.89","3d1hrrxekr97ue2",55,"57.csv","","null","resources/maskTrios/L4BB.jpg","null","",NA,NA,NA,NA,""
"image-keyboard-response",280,259662,"0.0-3.89-2.89","3d1hrrxekr97ue2",55,"57.csv","","null","resources/images/coin2.png","null","",NA,NA,NA,NA,""
"image-keyboard-response",281,260003,"0.0-3.90-0.90","3d1hrrxekr97ue2",55,"57.csv","","338.7000000178814","resources/trios/L1T2A1.jpg","37","restless",0.6,0.6,0.4,0.863370251543978,"false"
"image-keyboard-response",282,260404,"0.0-3.90-1.90","3d1hrrxekr97ue2",55,"57.csv","","null","resources/maskTrios/L1BB.jpg","null","",NA,NA,NA,NA,""
"image-keyboard-response",283,261609,"0.0-3.90-2.90","3d1hrrxekr97ue2",55,"57.csv","","null","resources/images/fishbone.png","null","",NA,NA,NA,NA,""
"image-keyboard-response",284,261753,"0.0-3.91-0.91","3d1hrrxekr97ue2",55,"57.csv","","142.5","resources/trios/L1T1A3.jpg","38","restless",0.6,0.6,0.4,0.0505263346201852,"true"
"image-keyboard-response",285,262159,"0.0-3.91-1.91","3d1hrrxekr97ue2",55,"57.csv","","null","resources/maskTrios/BT1B.jpg","null","",NA,NA,NA,NA,""
"image-keyboard-response",286,263363,"0.0-3.91-2.91","3d1hrrxekr97ue2",55,"57.csv","","null","resources/images/coin2.png","null","",NA,NA,NA,NA,""
"image-keyboard-response",287,263397,"0.0-3.92-0.92","3d1hrrxekr97ue2",55,"57.csv","","32","resources/trios/L4T1A1.jpg","38","restless",0.6,0.6,0.4,0.275891032595018,"true"
"image-keyboard-response",288,263800,"0.0-3.92-1.92","3d1hrrxekr97ue2",55,"57.csv","","null","resources/maskTrios/BT1B.jpg","null","",NA,NA,NA,NA,""
"image-keyboard-response",289,265002,"0.0-3.92-2.92","3d1hrrxekr97ue2",55,"57.csv","","null","resources/images/coin2.png","null","",NA,NA,NA,NA,""
"image-keyboard-response",290,265159,"0.0-3.93-0.93","3d1hrrxekr97ue2",55,"57.csv","","154.89999997615814","resources/trios/L4T1A3.jpg","38","restless",0.6,0.6,0.4,0.302745800388927,"true"
"image-keyboard-response",291,265565,"0.0-3.93-1.93","3d1hrrxekr97ue2",55,"57.csv","","null","resources/maskTrios/BT1B.jpg","null","",NA,NA,NA,NA,""
"image-keyboard-response",292,266766,"0.0-3.93-2.93","3d1hrrxekr97ue2",55,"57.csv","","null","resources/images/coin2.png","null","",NA,NA,NA,NA,""
"image-keyboard-response",293,266862,"0.0-3.94-0.94","3d1hrrxekr97ue2",55,"57.csv","","95.10000002384186","resources/trios/L4T2A3.jpg","38","restless",0.6,0.6,0.4,0.452882130682014,"true"
"image-keyboard-response",294,267268,"0.0-3.94-1.94","3d1hrrxekr97ue2",55,"57.csv","","null","resources/maskTrios/BT2B.jpg","null","",NA,NA,NA,NA,""
"image-keyboard-response",295,268469,"0.0-3.94-2.94","3d1hrrxekr97ue2",55,"57.csv","","null","resources/images/coin2.png","null","",NA,NA,NA,NA,""
"image-keyboard-response",296,268553,"0.0-3.95-0.95","3d1hrrxekr97ue2",55,"57.csv","","82.09999999403954","resources/trios/L4T2A3.jpg","38","restless",0.6,0.6,0.4,0.414333045966508,"true"
"image-keyboard-response",297,268954,"0.0-3.95-1.95","3d1hrrxekr97ue2",55,"57.csv","","null","resources/maskTrios/BT2B.jpg","null","",NA,NA,NA,NA,""
"image-keyboard-response",298,270157,"0.0-3.95-2.95","3d1hrrxekr97ue2",55,"57.csv","","null","resources/images/coin2.png","null","",NA,NA,NA,NA,""
"image-keyboard-response",299,270287,"0.0-3.96-0.96","3d1hrrxekr97ue2",55,"57.csv","","128.09999999403954","resources/trios/L4T1A3.jpg","38","restless",0.6,0.6,0.4,0.383305051187968,"true"
"image-keyboard-response",300,270693,"0.0-3.96-1.96","3d1hrrxekr97ue2",55,"57.csv","","null","resources/maskTrios/BT1B.jpg","null","",NA,NA,NA,NA,""
"image-keyboard-response",301,271897,"0.0-3.96-2.96","3d1hrrxekr97ue2",55,"57.csv","","null","resources/images/coin2.png","null","",NA,NA,NA,NA,""
"image-keyboard-response",302,272040,"0.0-3.97-0.97","3d1hrrxekr97ue2",55,"57.csv","","141.5","resources/trios/L1T1A1.jpg","38","restless",0.5,0.6,0.4,0.976066342158088,"false"
"image-keyboard-response",303,272441,"0.0-3.97-1.97","3d1hrrxekr97ue2",55,"57.csv","","null","resources/maskTrios/BT1B.jpg","null","",NA,NA,NA,NA,""
"image-keyboard-response",304,273648,"0.0-3.97-2.97","3d1hrrxekr97ue2",55,"57.csv","","null","resources/images/fishbone.png","null","",NA,NA,NA,NA,""
"image-keyboard-response",305,273986,"0.0-3.98-0.98","3d1hrrxekr97ue2",55,"57.csv","","336.7000000178814","resources/trios/L1T1A3.jpg","39","restless",0.5,0.6,0.4,0.869910059958114,"false"
"image-keyboard-response",306,274387,"0.0-3.98-1.98","3d1hrrxekr97ue2",55,"57.csv","","null","resources/maskTrios/BBA3.jpg","null","",NA,NA,NA,NA,""
"image-keyboard-response",307,275590,"0.0-3.98-2.98","3d1hrrxekr97ue2",55,"57.csv","","null","resources/images/fishbone.png","null","",NA,NA,NA,NA,""
"image-keyboard-response",308,275622,"0.0-3.99-0.99","3d1hrrxekr97ue2",55,"57.csv","","30.799999982118607","resources/trios/L4T2A3.jpg","37","restless",0.5,0.6,0.4,0.69897948658974,"false"
"image-keyboard-response",309,276026,"0.0-3.99-1.99","3d1hrrxekr97ue2",55,"57.csv","","null","resources/maskTrios/L4BB.jpg","null","",NA,NA,NA,NA,""
"image-keyboard-response",310,277229,"0.0-3.99-2.99","3d1hrrxekr97ue2",55,"57.csv","","null","resources/images/fishbone.png","null","",NA,NA,NA,NA,""
"image-keyboard-response",311,277335,"0.0-3.100-0.100","3d1hrrxekr97ue2",55,"57.csv","","104","resources/trios/L4T2A3.jpg","38","restless",0.5,0.6,0.4,0.0939994049339123,"true"
"image-keyboard-response",312,277739,"0.0-3.100-1.100","3d1hrrxekr97ue2",55,"57.csv","","null","resources/maskTrios/BT2B.jpg","null","",NA,NA,NA,NA,""
"image-keyboard-response",313,278940,"0.0-3.100-2.100","3d1hrrxekr97ue2",55,"57.csv","","null","resources/images/coin2.png","null","",NA,NA,NA,NA,""
"image-keyboard-response",314,278973,"0.0-3.101-0.101","3d1hrrxekr97ue2",55,"57.csv","","32.30000001192093","resources/trios/L1T2A1.jpg","38","restless",0.5,0.7,0.4,0.428090615417058,"true"
"image-keyboard-response",315,279377,"0.0-3.101-1.101","3d1hrrxekr97ue2",55,"57.csv","","null","resources/maskTrios/BT2B.jpg","null","",NA,NA,NA,NA,""
"image-keyboard-response",316,280599,"0.0-3.101-2.101","3d1hrrxekr97ue2",55,"57.csv","","null","resources/images/coin2.png","null","",NA,NA,NA,NA,""
"image-keyboard-response",317,280984,"0.0-3.102-0.102","3d1hrrxekr97ue2",55,"57.csv","","383.90000000596046","resources/trios/L1T2A1.jpg","38","restless",0.5,0.7,0.4,0.633587465157434,"true"
"image-keyboard-response",318,281391,"0.0-3.102-1.102","3d1hrrxekr97ue2",55,"57.csv","","null","resources/maskTrios/BT2B.jpg","null","",NA,NA,NA,NA,""
"image-keyboard-response",319,282592,"0.0-3.102-2.102","3d1hrrxekr97ue2",55,"57.csv","","null","resources/images/coin2.png","null","",NA,NA,NA,NA,""
"image-keyboard-response",320,282990,"0.0-3.103-0.103","3d1hrrxekr97ue2",55,"57.csv","","396.40000000596046","resources/trios/L4T2A1.jpg","38","restless",0.6,0.7,0.4,0.648773401869847,"true"
"image-keyboard-response",321,283392,"0.0-3.103-1.103","3d1hrrxekr97ue2",55,"57.csv","","null","resources/maskTrios/BT2B.jpg","null","",NA,NA,NA,NA,""
"image-keyboard-response",322,284597,"0.0-3.103-2.103","3d1hrrxekr97ue2",55,"57.csv","","null","resources/images/coin2.png","null","",NA,NA,NA,NA,""
"image-keyboard-response",323,284919,"0.0-3.104-0.104","3d1hrrxekr97ue2",55,"57.csv","","321.5","resources/trios/L1T2A1.jpg","38","restless",0.6,0.7,0.4,0.888531850948455,"false"
"image-keyboard-response",324,285322,"0.0-3.104-1.104","3d1hrrxekr97ue2",55,"57.csv","","null","resources/maskTrios/BT2B.jpg","null","",NA,NA,NA,NA,""
"image-keyboard-response",325,286528,"0.0-3.104-2.104","3d1hrrxekr97ue2",55,"57.csv","","null","resources/images/fishbone.png","null","",NA,NA,NA,NA,""
"image-keyboard-response",326,286732,"0.0-3.105-0.105","3d1hrrxekr97ue2",55,"57.csv","","202.5","resources/trios/L4T2A1.jpg","38","restless",0.6,0.7,0.4,0.374653230237834,"true"
"image-keyboard-response",327,287137,"0.0-3.105-1.105","3d1hrrxekr97ue2",55,"57.csv","","null","resources/maskTrios/BT2B.jpg","null","",NA,NA,NA,NA,""
"image-keyboard-response",328,288343,"0.0-3.105-2.105","3d1hrrxekr97ue2",55,"57.csv","","null","resources/images/coin2.png","null","",NA,NA,NA,NA,""
"image-keyboard-response",329,288579,"0.0-3.106-0.106","3d1hrrxekr97ue2",55,"57.csv","","234.7999999821186","resources/trios/L4T1A1.jpg","38","restless",0.6,0.7,0.4,0.889894169050744,"false"
"image-keyboard-response",330,288985,"0.0-3.106-1.106","3d1hrrxekr97ue2",55,"57.csv","","null","resources/maskTrios/BT1B.jpg","null","",NA,NA,NA,NA,""
"image-keyboard-response",331,290192,"0.0-3.106-2.106","3d1hrrxekr97ue2",55,"57.csv","","null","resources/images/fishbone.png","null","",NA,NA,NA,NA,""
"image-keyboard-response",332,290627,"0.0-3.107-0.107","3d1hrrxekr97ue2",55,"57.csv","","434.19999998807907","resources/trios/L4T2A3.jpg","37","restless",0.6,0.7,0.4,0.755044785212608,"false"
"image-keyboard-response",333,291028,"0.0-3.107-1.107","3d1hrrxekr97ue2",55,"57.csv","","null","resources/maskTrios/L4BB.jpg","null","",NA,NA,NA,NA,""
"image-keyboard-response",334,292232,"0.0-3.107-2.107","3d1hrrxekr97ue2",55,"57.csv","","null","resources/images/fishbone.png","null","",NA,NA,NA,NA,""
"image-keyboard-response",335,292533,"0.0-3.108-0.108","3d1hrrxekr97ue2",55,"57.csv","","299.5","resources/trios/L1T2A3.jpg","38","restless",0.6,0.7,0.4,0.12585353514196,"true"
"image-keyboard-response",336,292939,"0.0-3.108-1.108","3d1hrrxekr97ue2",55,"57.csv","","null","resources/maskTrios/BT2B.jpg","null","",NA,NA,NA,NA,""
"image-keyboard-response",337,294141,"0.0-3.108-2.108","3d1hrrxekr97ue2",55,"57.csv","","null","resources/images/coin2.png","null","",NA,NA,NA,NA,""
"image-keyboard-response",338,294396,"0.0-3.109-0.109","3d1hrrxekr97ue2",55,"57.csv","","253.60000002384186","resources/trios/L4T2A3.jpg","38","restless",0.6,0.7,0.5,0.83409732131241,"false"
"image-keyboard-response",339,294799,"0.0-3.109-1.109","3d1hrrxekr97ue2",55,"57.csv","","null","resources/maskTrios/BT2B.jpg","null","",NA,NA,NA,NA,""
"image-keyboard-response",340,296005,"0.0-3.109-2.109","3d1hrrxekr97ue2",55,"57.csv","","null","resources/images/fishbone.png","null","",NA,NA,NA,NA,""
"image-keyboard-response",341,296534,"0.0-3.110-0.110","3d1hrrxekr97ue2",55,"57.csv","","527.6999999880791","resources/trios/L4T2A1.jpg","39","restless",0.6,0.7,0.5,0.520358199271444,"false"
"image-keyboard-response",342,296938,"0.0-3.110-1.110","3d1hrrxekr97ue2",55,"57.csv","","null","resources/maskTrios/BBA1.jpg","null","",NA,NA,NA,NA,""
"image-keyboard-response",343,298139,"0.0-3.110-2.110","3d1hrrxekr97ue2",55,"57.csv","","null","resources/images/fishbone.png","null","",NA,NA,NA,NA,""
"image-keyboard-response",344,298434,"0.0-3.111-0.111","3d1hrrxekr97ue2",55,"57.csv","","293.40000000596046","resources/trios/L4T2A1.jpg","37","restless",0.6,0.7,0.5,0.0569988654523719,"true"
"image-keyboard-response",345,298840,"0.0-3.111-1.111","3d1hrrxekr97ue2",55,"57.csv","","null","resources/maskTrios/L4BB.jpg","null","",NA,NA,NA,NA,""
"image-keyboard-response",346,300041,"0.0-3.111-2.111","3d1hrrxekr97ue2",55,"57.csv","","null","resources/images/coin2.png","null","",NA,NA,NA,NA,""
"image-keyboard-response",347,300442,"0.0-3.112-0.112","3d1hrrxekr97ue2",55,"57.csv","","398.7999999821186","resources/trios/L1T1A3.jpg","38","restless",0.6,0.7,0.5,0.581117840050494,"true"
"image-keyboard-response",348,300848,"0.0-3.112-1.112","3d1hrrxekr97ue2",55,"57.csv","","null","resources/maskTrios/BT1B.jpg","null","",NA,NA,NA,NA,""
"image-keyboard-response",349,302050,"0.0-3.112-2.112","3d1hrrxekr97ue2",55,"57.csv","","null","resources/images/coin2.png","null","",NA,NA,NA,NA,""
"image-keyboard-response",350,302571,"0.0-3.113-0.113","3d1hrrxekr97ue2",55,"57.csv","","520.4000000059605","resources/trios/L1T1A3.jpg","38","restless",0.6,0.7,0.5,0.851475968525363,"false"
"image-keyboard-response",351,302977,"0.0-3.113-1.113","3d1hrrxekr97ue2",55,"57.csv","","null","resources/maskTrios/BT1B.jpg","null","",NA,NA,NA,NA,""
"image-keyboard-response",352,304183,"0.0-3.113-2.113","3d1hrrxekr97ue2",55,"57.csv","","null","resources/images/fishbone.png","null","",NA,NA,NA,NA,""
"image-keyboard-response",353,304524,"0.0-3.114-0.114","3d1hrrxekr97ue2",55,"57.csv","","339.89999997615814","resources/trios/L1T2A3.jpg","37","restless",0.6,0.7,0.4,0.133484954224101,"true"
"image-keyboard-response",354,304930,"0.0-3.114-1.114","3d1hrrxekr97ue2",55,"57.csv","","null","resources/maskTrios/L1BB.jpg","null","",NA,NA,NA,NA,""
"image-keyboard-response",355,306136,"0.0-3.114-2.114","3d1hrrxekr97ue2",55,"57.csv","","null","resources/images/coin2.png","null","",NA,NA,NA,NA,""
"image-keyboard-response",356,306493,"0.0-3.115-0.115","3d1hrrxekr97ue2",55,"57.csv","","355.69999998807907","resources/trios/L4T2A1.jpg","37","restless",0.6,0.7,0.4,0.00684089311697411,"true"
"image-keyboard-response",357,306899,"0.0-3.115-1.115","3d1hrrxekr97ue2",55,"57.csv","","null","resources/maskTrios/L4BB.jpg","null","",NA,NA,NA,NA,""
"image-keyboard-response",358,308104,"0.0-3.115-2.115","3d1hrrxekr97ue2",55,"57.csv","","null","resources/images/coin2.png","null","",NA,NA,NA,NA,""
"image-keyboard-response",359,308598,"0.0-3.116-0.116","3d1hrrxekr97ue2",55,"57.csv","","492.59999999403954","resources/trios/L4T2A3.jpg","37","restless",0.6,0.7,0.4,0.707799816228841,"false"
"image-keyboard-response",360,309002,"0.0-3.116-1.116","3d1hrrxekr97ue2",55,"57.csv","","null","resources/maskTrios/L4BB.jpg","null","",NA,NA,NA,NA,""
"image-keyboard-response",361,310208,"0.0-3.116-2.116","3d1hrrxekr97ue2",55,"57.csv","","null","resources/images/fishbone.png","null","",NA,NA,NA,NA,""
"image-keyboard-response",362,310472,"0.0-3.117-0.117","3d1hrrxekr97ue2",55,"57.csv","","263","resources/trios/L1T2A1.jpg","39","restless",0.5,0.7,0.4,0.408983704329098,"false"
"image-keyboard-response",363,310876,"0.0-3.117-1.117","3d1hrrxekr97ue2",55,"57.csv","","null","resources/maskTrios/BBA1.jpg","null","",NA,NA,NA,NA,""
"image-keyboard-response",364,312079,"0.0-3.117-2.117","3d1hrrxekr97ue2",55,"57.csv","","null","resources/images/fishbone.png","null","",NA,NA,NA,NA,""
"image-keyboard-response",365,312553,"0.0-3.118-0.118","3d1hrrxekr97ue2",55,"57.csv","","473.59999999403954","resources/trios/L1T2A1.jpg","38","restless",0.5,0.7,0.4,0.47019472156298,"true"
"image-keyboard-response",366,312959,"0.0-3.118-1.118","3d1hrrxekr97ue2",55,"57.csv","","null","resources/maskTrios/BT2B.jpg","null","",NA,NA,NA,NA,""
"image-keyboard-response",367,314165,"0.0-3.118-2.118","3d1hrrxekr97ue2",55,"57.csv","","null","resources/images/coin2.png","null","",NA,NA,NA,NA,""
"image-keyboard-response",368,314456,"0.0-3.119-0.119","3d1hrrxekr97ue2",55,"57.csv","","289.90000000596046","resources/trios/L4T1A3.jpg","38","restless",0.5,0.7,0.4,0.689898015342965,"true"
"image-keyboard-response",369,314862,"0.0-3.119-1.119","3d1hrrxekr97ue2",55,"57.csv","","null","resources/maskTrios/BT1B.jpg","null","",NA,NA,NA,NA,""
"image-keyboard-response",370,316069,"0.0-3.119-2.119","3d1hrrxekr97ue2",55,"57.csv","","null","resources/images/coin2.png","null","",NA,NA,NA,NA,""
"image-keyboard-response",371,316357,"0.0-3.120-0.120","3d1hrrxekr97ue2",55,"57.csv","","286.80000001192093","resources/trios/L4T2A1.jpg","38","restless",0.5,0.7,0.4,0.111196641523101,"true"
"image-keyboard-response",372,316763,"0.0-3.120-1.120","3d1hrrxekr97ue2",55,"57.csv","","null","resources/maskTrios/BT2B.jpg","null","",NA,NA,NA,NA,""
"image-keyboard-response",373,317965,"0.0-3.120-2.120","3d1hrrxekr97ue2",55,"57.csv","","null","resources/images/coin2.png","null","",NA,NA,NA,NA,""
"image-keyboard-response",374,318292,"0.0-3.121-0.121","3d1hrrxekr97ue2",55,"57.csv","","325.5","resources/trios/L4T1A3.jpg","38","restless",0.5,0.7,0.4,0.641737160071108,"true"
"image-keyboard-response",375,318698,"0.0-3.121-1.121","3d1hrrxekr97ue2",55,"57.csv","","null","resources/maskTrios/BT1B.jpg","null","",NA,NA,NA,NA,""
"image-keyboard-response",376,319904,"0.0-3.121-2.121","3d1hrrxekr97ue2",55,"57.csv","","null","resources/images/coin2.png","null","",NA,NA,NA,NA,""
"image-keyboard-response",377,320162,"0.0-3.122-0.122","3d1hrrxekr97ue2",55,"57.csv","","256.40000000596046","resources/trios/L4T2A1.jpg","38","restless",0.5,0.7,0.4,0.312896411012239,"true"
"image-keyboard-response",378,320568,"0.0-3.122-1.122","3d1hrrxekr97ue2",55,"57.csv","","null","resources/maskTrios/BT2B.jpg","null","",NA,NA,NA,NA,""
"image-keyboard-response",379,321772,"0.0-3.122-2.122","3d1hrrxekr97ue2",55,"57.csv","","null","resources/images/coin2.png","null","",NA,NA,NA,NA,""
"image-keyboard-response",380,322086,"0.0-3.123-0.123","3d1hrrxekr97ue2",55,"57.csv","","312.19999998807907","resources/trios/L1T1A3.jpg","38","restless",0.5,0.7,0.4,0.639891355083645,"true"
"image-keyboard-response",381,322492,"0.0-3.123-1.123","3d1hrrxekr97ue2",55,"57.csv","","null","resources/maskTrios/BT1B.jpg","null","",NA,NA,NA,NA,""
"image-keyboard-response",382,323694,"0.0-3.123-2.123","3d1hrrxekr97ue2",55,"57.csv","","null","resources/images/coin2.png","null","",NA,NA,NA,NA,""
"image-keyboard-response",383,324017,"0.0-3.124-0.124","3d1hrrxekr97ue2",55,"57.csv","","321.5","resources/trios/L1T2A1.jpg","38","restless",0.4,0.7,0.4,0.877047589669592,"false"
"image-keyboard-response",384,324423,"0.0-3.124-1.124","3d1hrrxekr97ue2",55,"57.csv","","null","resources/maskTrios/BT2B.jpg","null","",NA,NA,NA,NA,""
"image-keyboard-response",385,325625,"0.0-3.124-2.124","3d1hrrxekr97ue2",55,"57.csv","","null","resources/images/fishbone.png","null","",NA,NA,NA,NA,""
"image-keyboard-response",386,326147,"0.0-3.125-0.125","3d1hrrxekr97ue2",55,"57.csv","","520.5","resources/trios/L1T2A3.jpg","37","restless",0.4,0.7,0.4,0.374934868823133,"true"
"image-keyboard-response",387,326553,"0.0-3.125-1.125","3d1hrrxekr97ue2",55,"57.csv","","null","resources/maskTrios/L1BB.jpg","null","",NA,NA,NA,NA,""
"image-keyboard-response",388,327756,"0.0-3.125-2.125","3d1hrrxekr97ue2",55,"57.csv","","null","resources/images/coin2.png","null","",NA,NA,NA,NA,""
"image-keyboard-response",389,328249,"0.0-3.126-0.126","3d1hrrxekr97ue2",55,"57.csv","","491.09999999403954","resources/trios/L4T2A1.jpg","37","restless",0.4,0.7,0.5,0.764339712560685,"false"
"image-keyboard-response",390,328655,"0.0-3.126-1.126","3d1hrrxekr97ue2",55,"57.csv","","null","resources/maskTrios/L4BB.jpg","null","",NA,NA,NA,NA,""
"image-keyboard-response",391,329861,"0.0-3.126-2.126","3d1hrrxekr97ue2",55,"57.csv","","null","resources/images/fishbone.png","null","",NA,NA,NA,NA,""
"image-keyboard-response",392,329997,"0.0-3.127-0.127","3d1hrrxekr97ue2",55,"57.csv","","134.80000001192093","resources/trios/L1T1A1.jpg","38","restless",0.4,0.7,0.5,0.733973869589577,"false"
"image-keyboard-response",393,330399,"0.0-3.127-1.127","3d1hrrxekr97ue2",55,"57.csv","","null","resources/maskTrios/BT1B.jpg","null","",NA,NA,NA,NA,""
"image-keyboard-response",394,331605,"0.0-3.127-2.127","3d1hrrxekr97ue2",55,"57.csv","","null","resources/images/fishbone.png","null","",NA,NA,NA,NA,""
"image-keyboard-response",395,331869,"0.0-3.128-0.128","3d1hrrxekr97ue2",55,"57.csv","","262.30000001192093","resources/trios/L1T2A1.jpg","38","restless",0.4,0.7,0.5,0.684408443324375,"true"
"image-keyboard-response",396,332275,"0.0-3.128-1.128","3d1hrrxekr97ue2",55,"57.csv","","null","resources/maskTrios/BT2B.jpg","null","",NA,NA,NA,NA,""
"image-keyboard-response",397,333482,"0.0-3.128-2.128","3d1hrrxekr97ue2",55,"57.csv","","null","resources/images/coin2.png","null","",NA,NA,NA,NA,""
"image-keyboard-response",398,333855,"0.0-3.129-0.129","3d1hrrxekr97ue2",55,"57.csv","","372.2000000178814","resources/trios/L1T1A1.jpg","38","restless",0.4,0.7,0.5,0.666944317123137,"true"
"image-keyboard-response",399,334261,"0.0-3.129-1.129","3d1hrrxekr97ue2",55,"57.csv","","null","resources/maskTrios/BT1B.jpg","null","",NA,NA,NA,NA,""
"image-keyboard-response",400,335467,"0.0-3.129-2.129","3d1hrrxekr97ue2",55,"57.csv","","null","resources/images/coin2.png","null","",NA,NA,NA,NA,""
"image-keyboard-response",401,335812,"0.0-3.130-0.130","3d1hrrxekr97ue2",55,"57.csv","","342.7999999821186","resources/trios/L1T1A1.jpg","38","restless",0.4,0.7,0.5,0.116387695936994,"true"
"image-keyboard-response",402,336218,"0.0-3.130-1.130","3d1hrrxekr97ue2",55,"57.csv","","null","resources/maskTrios/BT1B.jpg","null","",NA,NA,NA,NA,""
"image-keyboard-response",403,337424,"0.0-3.130-2.130","3d1hrrxekr97ue2",55,"57.csv","","null","resources/images/coin2.png","null","",NA,NA,NA,NA,""
"image-keyboard-response",404,337858,"0.0-3.131-0.131","3d1hrrxekr97ue2",55,"57.csv","","432.2000000178814","resources/trios/L4T1A1.jpg","38","restless",0.5,0.7,0.5,0.823316234830501,"false"
"image-keyboard-response",405,338264,"0.0-3.131-1.131","3d1hrrxekr97ue2",55,"57.csv","","null","resources/maskTrios/BT1B.jpg","null","",NA,NA,NA,NA,""
"image-keyboard-response",406,339470,"0.0-3.131-2.131","3d1hrrxekr97ue2",55,"57.csv","","null","resources/images/fishbone.png","null","",NA,NA,NA,NA,""
"image-keyboard-response",407,339751,"0.0-3.132-0.132","3d1hrrxekr97ue2",55,"57.csv","","279.30000001192093","resources/trios/L1T1A1.jpg","39","restless",0.5,0.7,0.5,0.503698253555935,"false"
"image-keyboard-response",408,340155,"0.0-3.132-1.132","3d1hrrxekr97ue2",55,"57.csv","","null","resources/maskTrios/BBA1.jpg","null","",NA,NA,NA,NA,""
"image-keyboard-response",409,341359,"0.0-3.132-2.132","3d1hrrxekr97ue2",55,"57.csv","","null","resources/images/fishbone.png","null","",NA,NA,NA,NA,""
"image-keyboard-response",410,341727,"0.0-3.133-0.133","3d1hrrxekr97ue2",55,"57.csv","","367.7999999821186","resources/trios/L1T2A3.jpg","37","restless",0.5,0.8,0.5,0.641489407318714,"false"
"image-keyboard-response",411,342133,"0.0-3.133-1.133","3d1hrrxekr97ue2",55,"57.csv","","null","resources/maskTrios/L1BB.jpg","null","",NA,NA,NA,NA,""
"image-keyboard-response",412,343336,"0.0-3.133-2.133","3d1hrrxekr97ue2",55,"57.csv","","null","resources/images/fishbone.png","null","",NA,NA,NA,NA,""
"image-keyboard-response",413,344193,"0.0-3.134-0.134","3d1hrrxekr97ue2",55,"57.csv","","854.5999999940395","resources/trios/L1T2A1.jpg","38","restless",0.5,0.8,0.5,0.782836947280986,"true"
"image-keyboard-response",414,344599,"0.0-3.134-1.134","3d1hrrxekr97ue2",55,"57.csv","","null","resources/maskTrios/BT2B.jpg","null","",NA,NA,NA,NA,""
"image-keyboard-response",415,345801,"0.0-3.134-2.134","3d1hrrxekr97ue2",55,"57.csv","","null","resources/images/coin2.png","null","",NA,NA,NA,NA,""
"image-keyboard-response",416,346393,"0.0-3.135-0.135","3d1hrrxekr97ue2",55,"57.csv","","590.5999999940395","resources/trios/L1T2A1.jpg","38","restless",0.5,0.8,0.5,0.397254174102171,"true"
"image-keyboard-response",417,346799,"0.0-3.135-1.135","3d1hrrxekr97ue2",55,"57.csv","","null","resources/maskTrios/BT2B.jpg","null","",NA,NA,NA,NA,""
"image-keyboard-response",418,348006,"0.0-3.135-2.135","3d1hrrxekr97ue2",55,"57.csv","","null","resources/images/coin2.png","null","",NA,NA,NA,NA,""
"image-keyboard-response",419,348530,"0.0-3.136-0.136","3d1hrrxekr97ue2",55,"57.csv","","522.4000000059605","resources/trios/L1T2A1.jpg","38","restless",0.5,0.8,0.5,0.676723837310192,"true"
"image-keyboard-response",420,348936,"0.0-3.136-1.136","3d1hrrxekr97ue2",55,"57.csv","","null","resources/maskTrios/BT2B.jpg","null","",NA,NA,NA,NA,""
"image-keyboard-response",421,350141,"0.0-3.136-2.136","3d1hrrxekr97ue2",55,"57.csv","","null","resources/images/coin2.png","null","",NA,NA,NA,NA,""
"image-keyboard-response",422,350573,"0.0-3.137-0.137","3d1hrrxekr97ue2",55,"57.csv","","431.09999999403954","resources/trios/L1T1A1.jpg","38","restless",0.6,0.8,0.5,0.403405750601213,"true"
"image-keyboard-response",423,350980,"0.0-3.137-1.137","3d1hrrxekr97ue2",55,"57.csv","","null","resources/maskTrios/BT1B.jpg","null","",NA,NA,NA,NA,""
"image-keyboard-response",424,352186,"0.0-3.137-2.137","3d1hrrxekr97ue2",55,"57.csv","","null","resources/images/coin2.png","null","",NA,NA,NA,NA,""
"image-keyboard-response",425,352446,"0.0-3.138-0.138","3d1hrrxekr97ue2",55,"57.csv","","257.90000000596046","resources/trios/L1T2A1.jpg","38","restless",0.6,0.8,0.5,0.17425911825719,"true"
"image-keyboard-response",426,352846,"0.0-3.138-1.138","3d1hrrxekr97ue2",55,"57.csv","","null","resources/maskTrios/BT2B.jpg","null","",NA,NA,NA,NA,""
"image-keyboard-response",427,354053,"0.0-3.138-2.138","3d1hrrxekr97ue2",55,"57.csv","","null","resources/images/coin2.png","null","",NA,NA,NA,NA,""
"image-keyboard-response",428,354433,"0.0-3.139-0.139","3d1hrrxekr97ue2",55,"57.csv","","378.59999999403954","resources/trios/L4T2A3.jpg","38","restless",0.6,0.8,0.5,0.905250345639913,"false"
"image-keyboard-response",429,354834,"0.0-3.139-1.139","3d1hrrxekr97ue2",55,"57.csv","","null","resources/maskTrios/BT2B.jpg","null","",NA,NA,NA,NA,""
"image-keyboard-response",430,356040,"0.0-3.139-2.139","3d1hrrxekr97ue2",55,"57.csv","","null","resources/images/fishbone.png","null","",NA,NA,NA,NA,""
"image-keyboard-response",431,356521,"0.0-3.140-0.140","3d1hrrxekr97ue2",55,"57.csv","","479.69999998807907","resources/trios/L1T1A3.jpg","37","restless",0.6,0.8,0.5,0.0512780820598686,"true"
"image-keyboard-response",432,356924,"0.0-3.140-1.140","3d1hrrxekr97ue2",55,"57.csv","","null","resources/maskTrios/L1BB.jpg","null","",NA,NA,NA,NA,""
"image-keyboard-response",433,358130,"0.0-3.140-2.140","3d1hrrxekr97ue2",55,"57.csv","","null","resources/images/coin2.png","null","",NA,NA,NA,NA,""
"image-keyboard-response",434,370548,"0.0-3.141-0.141","3d1hrrxekr97ue2",55,"57.csv","","12416.200000017881","resources/trios/L1T2A3.jpg","39","restless",0.6,0.8,0.5,0.0942474644212556,"true"
"image-keyboard-response",435,370953,"0.0-3.141-1.141","3d1hrrxekr97ue2",55,"57.csv","","null","resources/maskTrios/BBA3.jpg","null","",NA,NA,NA,NA,""
"image-keyboard-response",436,372157,"0.0-3.141-2.141","3d1hrrxekr97ue2",55,"57.csv","","null","resources/images/coin2.png","null","",NA,NA,NA,NA,""
"image-keyboard-response",437,372472,"0.0-3.142-0.142","3d1hrrxekr97ue2",55,"57.csv","","313.2000000178814","resources/trios/L1T1A3.jpg","37","restless",0.6,0.8,0.5,0.466026325556141,"true"
"image-keyboard-response",438,372878,"0.0-3.142-1.142","3d1hrrxekr97ue2",55,"57.csv","","null","resources/maskTrios/L1BB.jpg","null","",NA,NA,NA,NA,""
"image-keyboard-response",439,374082,"0.0-3.142-2.142","3d1hrrxekr97ue2",55,"57.csv","","null","resources/images/coin2.png","null","",NA,NA,NA,NA,""
"image-keyboard-response",440,374322,"0.0-3.143-0.143","3d1hrrxekr97ue2",55,"57.csv","","238.2000000178814","resources/trios/L1T2A1.jpg","37","restless",0.6,0.7,0.5,0.917893370129725,"false"
"image-keyboard-response",441,374728,"0.0-3.143-1.143","3d1hrrxekr97ue2",55,"57.csv","","null","resources/maskTrios/L1BB.jpg","null","",NA,NA,NA,NA,""
"image-keyboard-response",442,375934,"0.0-3.143-2.143","3d1hrrxekr97ue2",55,"57.csv","","null","resources/images/fishbone.png","null","",NA,NA,NA,NA,""
"image-keyboard-response",443,376229,"0.0-3.144-0.144","3d1hrrxekr97ue2",55,"57.csv","","294.59999999403954","resources/trios/L4T2A3.jpg","38","restless",0.5,0.7,0.5,0.753775324715796,"false"
"image-keyboard-response",444,376634,"0.0-3.144-1.144","3d1hrrxekr97ue2",55,"57.csv","","null","resources/maskTrios/BT2B.jpg","null","",NA,NA,NA,NA,""
"image-keyboard-response",445,377840,"0.0-3.144-2.144","3d1hrrxekr97ue2",55,"57.csv","","null","resources/images/fishbone.png","null","",NA,NA,NA,NA,""
"image-keyboard-response",446,377883,"0.0-3.145-0.145","3d1hrrxekr97ue2",55,"57.csv","","41.400000005960464","resources/trios/L1T1A1.jpg","37","restless",0.5,0.7,0.5,0.0661336931613639,"true"
"image-keyboard-response",447,378286,"0.0-3.145-1.145","3d1hrrxekr97ue2",55,"57.csv","","null","resources/maskTrios/L1BB.jpg","null","",NA,NA,NA,NA,""
"image-keyboard-response",448,379492,"0.0-3.145-2.145","3d1hrrxekr97ue2",55,"57.csv","","null","resources/images/coin2.png","null","",NA,NA,NA,NA,""
"image-keyboard-response",449,379875,"0.0-3.146-0.146","3d1hrrxekr97ue2",55,"57.csv","","381.59999999403954","resources/trios/L4T2A3.jpg","37","restless",0.5,0.7,0.6,0.0404902202407151,"true"
"image-keyboard-response",450,380277,"0.0-3.146-1.146","3d1hrrxekr97ue2",55,"57.csv","","null","resources/maskTrios/L4BB.jpg","null","",NA,NA,NA,NA,""
"image-keyboard-response",451,381484,"0.0-3.146-2.146","3d1hrrxekr97ue2",55,"57.csv","","null","resources/images/coin2.png","null","",NA,NA,NA,NA,""
"image-keyboard-response",452,382062,"0.0-3.147-0.147","3d1hrrxekr97ue2",55,"57.csv","","576.2999999821186","resources/trios/L1T2A3.jpg","37","restless",0.5,0.7,0.6,0.088480597243493,"true"
"image-keyboard-response",453,382467,"0.0-3.147-1.147","3d1hrrxekr97ue2",55,"57.csv","","null","resources/maskTrios/L1BB.jpg","null","",NA,NA,NA,NA,""
"image-keyboard-response",454,383673,"0.0-3.147-2.147","3d1hrrxekr97ue2",55,"57.csv","","null","resources/images/coin2.png","null","",NA,NA,NA,NA,""
"image-keyboard-response",455,384267,"0.0-3.148-0.148","3d1hrrxekr97ue2",55,"57.csv","","592.4000000059605","resources/trios/L4T2A3.jpg","37","restless",0.5,0.7,0.6,0.493260751654764,"true"
"image-keyboard-response",456,384674,"0.0-3.148-1.148","3d1hrrxekr97ue2",55,"57.csv","","null","resources/maskTrios/L4BB.jpg","null","",NA,NA,NA,NA,""
"image-keyboard-response",457,385880,"0.0-3.148-2.148","3d1hrrxekr97ue2",55,"57.csv","","null","resources/images/coin2.png","null","",NA,NA,NA,NA,""
"image-keyboard-response",458,386327,"0.0-3.149-0.149","3d1hrrxekr97ue2",55,"57.csv","","445.90000000596046","resources/trios/L4T2A1.jpg","37","restless",0.5,0.7,0.6,0.439156732902224,"true"
"image-keyboard-response",459,386733,"0.0-3.149-1.149","3d1hrrxekr97ue2",55,"57.csv","","null","resources/maskTrios/L4BB.jpg","null","",NA,NA,NA,NA,""
"image-keyboard-response",460,387940,"0.0-3.149-2.149","3d1hrrxekr97ue2",55,"57.csv","","null","resources/images/coin2.png","null","",NA,NA,NA,NA,""
"image-keyboard-response",461,388486,"0.0-3.150-0.150","3d1hrrxekr97ue2",55,"57.csv","","545.0999999940395","resources/trios/L1T2A1.jpg","37","restless",0.5,0.7,0.6,0.377931621932103,"true"
"image-keyboard-response",462,388889,"0.0-3.150-1.150","3d1hrrxekr97ue2",55,"57.csv","","null","resources/maskTrios/L1BB.jpg","null","",NA,NA,NA,NA,""
"image-keyboard-response",463,390090,"0.0-3.150-2.150","3d1hrrxekr97ue2",55,"57.csv","","null","resources/images/coin2.png","null","",NA,NA,NA,NA,""
"image-keyboard-response",464,390657,"0.0-3.151-0.151","3d1hrrxekr97ue2",55,"57.csv","","565.9000000059605","resources/trios/L4T2A1.jpg","37","restless",0.5,0.7,0.6,0.138196584799395,"true"
"image-keyboard-response",465,391063,"0.0-3.151-1.151","3d1hrrxekr97ue2",55,"57.csv","","null","resources/maskTrios/L4BB.jpg","null","",NA,NA,NA,NA,""
"image-keyboard-response",466,392266,"0.0-3.151-2.151","3d1hrrxekr97ue2",55,"57.csv","","null","resources/images/coin2.png","null","",NA,NA,NA,NA,""
"image-keyboard-response",467,392600,"0.0-3.152-0.152","3d1hrrxekr97ue2",55,"57.csv","","333","resources/trios/L1T2A3.jpg","37","restless",0.5,0.7,0.6,0.286173036771322,"true"
"image-keyboard-response",468,393006,"0.0-3.152-1.152","3d1hrrxekr97ue2",55,"57.csv","","null","resources/maskTrios/L1BB.jpg","null","",NA,NA,NA,NA,""
"image-keyboard-response",469,394212,"0.0-3.152-2.152","3d1hrrxekr97ue2",55,"57.csv","","null","resources/images/coin2.png","null","",NA,NA,NA,NA,""
"image-keyboard-response",470,394776,"0.0-3.153-0.153","3d1hrrxekr97ue2",55,"57.csv","","563.0999999940395","resources/trios/L1T2A1.jpg","37","restless",0.5,0.7,0.5,0.680055239998533,"false"
"image-keyboard-response",471,395181,"0.0-3.153-1.153","3d1hrrxekr97ue2",55,"57.csv","","null","resources/maskTrios/L1BB.jpg","null","",NA,NA,NA,NA,""
"image-keyboard-response",472,396387,"0.0-3.153-2.153","3d1hrrxekr97ue2",55,"57.csv","","null","resources/images/fishbone.png","null","",NA,NA,NA,NA,""
"image-keyboard-response",473,396996,"0.0-3.154-0.154","3d1hrrxekr97ue2",55,"57.csv","","607.2999999821186","resources/trios/L4T2A3.jpg","37","restless",0.5,0.7,0.5,0.347301180317529,"true"
"image-keyboard-response",474,397398,"0.0-3.154-1.154","3d1hrrxekr97ue2",55,"57.csv","","null","resources/maskTrios/L4BB.jpg","null","",NA,NA,NA,NA,""
"image-keyboard-response",475,398601,"0.0-3.154-2.154","3d1hrrxekr97ue2",55,"57.csv","","null","resources/images/coin2.png","null","",NA,NA,NA,NA,""
"image-keyboard-response",476,399240,"0.0-3.155-0.155","3d1hrrxekr97ue2",55,"57.csv","","637.7999999821186","resources/trios/L4T1A3.jpg","37","restless",0.5,0.7,0.5,0.904446660034833,"false"
"image-keyboard-response",477,399641,"0.0-3.155-1.155","3d1hrrxekr97ue2",55,"57.csv","","null","resources/maskTrios/L4BB.jpg","null","",NA,NA,NA,NA,""
"image-keyboard-response",478,400846,"0.0-3.155-2.155","3d1hrrxekr97ue2",55,"57.csv","","null","resources/images/fishbone.png","null","",NA,NA,NA,NA,""
"image-keyboard-response",479,401160,"0.0-3.156-0.156","3d1hrrxekr97ue2",55,"57.csv","","312.09999999403954","resources/trios/L1T2A3.jpg","38","restless",0.5,0.6,0.5,0.0927851183469279,"true"
"image-keyboard-response",480,401566,"0.0-3.156-1.156","3d1hrrxekr97ue2",55,"57.csv","","null","resources/maskTrios/BT2B.jpg","null","",NA,NA,NA,NA,""
"image-keyboard-response",481,402770,"0.0-3.156-2.156","3d1hrrxekr97ue2",55,"57.csv","","null","resources/images/coin2.png","null","",NA,NA,NA,NA,""
"image-keyboard-response",482,403104,"0.0-3.157-0.157","3d1hrrxekr97ue2",55,"57.csv","","332.5","resources/trios/L4T1A1.jpg","38","restless",0.5,0.6,0.6,0.578720385557821,"true"
"image-keyboard-response",483,403508,"0.0-3.157-1.157","3d1hrrxekr97ue2",55,"57.csv","","null","resources/maskTrios/BT1B.jpg","null","",NA,NA,NA,NA,""
"image-keyboard-response",484,404713,"0.0-3.157-2.157","3d1hrrxekr97ue2",55,"57.csv","","null","resources/images/coin2.png","null","",NA,NA,NA,NA,""
"image-keyboard-response",485,405028,"0.0-3.158-0.158","3d1hrrxekr97ue2",55,"57.csv","","314.90000000596046","resources/trios/L4T2A1.jpg","38","restless",0.6,0.6,0.6,0.222649349134183,"true"
"image-keyboard-response",486,405432,"0.0-3.158-1.158","3d1hrrxekr97ue2",55,"57.csv","","null","resources/maskTrios/BT2B.jpg","null","",NA,NA,NA,NA,""
"image-keyboard-response",487,406633,"0.0-3.158-2.158","3d1hrrxekr97ue2",55,"57.csv","","null","resources/images/coin2.png","null","",NA,NA,NA,NA,""
"image-keyboard-response",488,406941,"0.0-3.159-0.159","3d1hrrxekr97ue2",55,"57.csv","","306.7999999821186","resources/trios/L4T1A3.jpg","38","restless",0.6,0.7,0.6,0.629110255451788,"true"
"image-keyboard-response",489,407347,"0.0-3.159-1.159","3d1hrrxekr97ue2",55,"57.csv","","null","resources/maskTrios/BT1B.jpg","null","",NA,NA,NA,NA,""
"image-keyboard-response",490,408549,"0.0-3.159-2.159","3d1hrrxekr97ue2",55,"57.csv","","null","resources/images/coin2.png","null","",NA,NA,NA,NA,""
"image-keyboard-response",491,409374,"0.0-3.160-0.160","3d1hrrxekr97ue2",55,"57.csv","","823.6999999880791","resources/trios/L1T2A3.jpg","38","restless",0.6,0.7,0.6,0.874153660076033,"false"
"image-keyboard-response",492,409778,"0.0-3.160-1.160","3d1hrrxekr97ue2",55,"57.csv","","null","resources/maskTrios/BT2B.jpg","null","",NA,NA,NA,NA,""
"image-keyboard-response",493,410981,"0.0-3.160-2.160","3d1hrrxekr97ue2",55,"57.csv","","null","resources/images/fishbone.png","null","",NA,NA,NA,NA,""
"image-keyboard-response",494,411353,"0.0-3.161-0.161","3d1hrrxekr97ue2",55,"57.csv","","371.09999999403954","resources/trios/L4T1A1.jpg","37","restless",0.6,0.6,0.6,0.595329611530269,"true"
"image-keyboard-response",495,411759,"0.0-3.161-1.161","3d1hrrxekr97ue2",55,"57.csv","","null","resources/maskTrios/L4BB.jpg","null","",NA,NA,NA,NA,""
"image-keyboard-response",496,412966,"0.0-3.161-2.161","3d1hrrxekr97ue2",55,"57.csv","","null","resources/images/coin2.png","null","",NA,NA,NA,NA,""
"image-keyboard-response",497,413483,"0.0-3.162-0.162","3d1hrrxekr97ue2",55,"57.csv","","516.3000000119209","resources/trios/L4T1A3.jpg","37","restless",0.6,0.6,0.6,0.759681296363502,"false"
"image-keyboard-response",498,413886,"0.0-3.162-1.162","3d1hrrxekr97ue2",55,"57.csv","","null","resources/maskTrios/L4BB.jpg","null","",NA,NA,NA,NA,""
"image-keyboard-response",499,415089,"0.0-3.162-2.162","3d1hrrxekr97ue2",55,"57.csv","","null","resources/images/fishbone.png","null","",NA,NA,NA,NA,""
"image-keyboard-response",500,415433,"0.0-3.163-0.163","3d1hrrxekr97ue2",55,"57.csv","","343","resources/trios/L1T1A1.jpg","38","restless",0.6,0.6,0.7,0.982976595721058,"false"
"image-keyboard-response",501,415839,"0.0-3.163-1.163","3d1hrrxekr97ue2",55,"57.csv","","null","resources/maskTrios/BT1B.jpg","null","",NA,NA,NA,NA,""
"image-keyboard-response",502,417045,"0.0-3.163-2.163","3d1hrrxekr97ue2",55,"57.csv","","null","resources/images/fishbone.png","null","",NA,NA,NA,NA,""
"image-keyboard-response",503,417484,"0.0-3.164-0.164","3d1hrrxekr97ue2",55,"57.csv","","438.2000000178814","resources/trios/L1T1A3.jpg","39","restless",0.6,0.6,0.7,0.203810047754817,"true"
"image-keyboard-response",504,417887,"0.0-3.164-1.164","3d1hrrxekr97ue2",55,"57.csv","","null","resources/maskTrios/BBA3.jpg","null","",NA,NA,NA,NA,""
"image-keyboard-response",505,419089,"0.0-3.164-2.164","3d1hrrxekr97ue2",55,"57.csv","","null","resources/images/coin2.png","null","",NA,NA,NA,NA,""
"image-keyboard-response",506,419400,"0.0-3.165-0.165","3d1hrrxekr97ue2",55,"57.csv","","310.09999999403954","resources/trios/L4T1A3.jpg","39","restless",0.6,0.7,0.7,0.775826602369948,"false"
"image-keyboard-response",507,419801,"0.0-3.165-1.165","3d1hrrxekr97ue2",55,"57.csv","","null","resources/maskTrios/BBA3.jpg","null","",NA,NA,NA,NA,""
"image-keyboard-response",508,421003,"0.0-3.165-2.165","3d1hrrxekr97ue2",55,"57.csv","","null","resources/images/fishbone.png","null","",NA,NA,NA,NA,""
"image-keyboard-response",509,421070,"0.0-3.166-0.166","3d1hrrxekr97ue2",55,"57.csv","","66.7000000178814","resources/trios/L4T1A1.jpg","38","restless",0.5,0.7,0.7,0.798382512815152,"false"
"image-keyboard-response",510,421490,"0.0-3.166-1.166","3d1hrrxekr97ue2",55,"57.csv","","null","resources/maskTrios/BT1B.jpg","null","",NA,NA,NA,NA,""
"image-keyboard-response",511,422691,"0.0-3.166-2.166","3d1hrrxekr97ue2",55,"57.csv","","null","resources/images/fishbone.png","null","",NA,NA,NA,NA,""
"image-keyboard-response",512,422728,"0.0-3.167-0.167","3d1hrrxekr97ue2",55,"57.csv","","35.30000001192093","resources/trios/L4T2A3.jpg","37","restless",0.5,0.7,0.7,0.833677597731503,"false"
"image-keyboard-response",513,423129,"0.0-3.167-1.167","3d1hrrxekr97ue2",55,"57.csv","","null","resources/maskTrios/L4BB.jpg","null","",NA,NA,NA,NA,""
"image-keyboard-response",514,424333,"0.0-3.167-2.167","3d1hrrxekr97ue2",55,"57.csv","","null","resources/images/fishbone.png","null","",NA,NA,NA,NA,""
"image-keyboard-response",515,424857,"0.0-3.168-0.168","3d1hrrxekr97ue2",55,"57.csv","","523.3000000119209","resources/trios/L4T2A3.jpg","38","restless",0.5,0.7,0.7,0.849932138595205,"false"
"image-keyboard-response",516,425260,"0.0-3.168-1.168","3d1hrrxekr97ue2",55,"57.csv","","null","resources/maskTrios/BT2B.jpg","null","",NA,NA,NA,NA,""
"image-keyboard-response",517,426462,"0.0-3.168-2.168","3d1hrrxekr97ue2",55,"57.csv","","null","resources/images/fishbone.png","null","",NA,NA,NA,NA,""
"image-keyboard-response",518,426722,"0.0-3.169-0.169","3d1hrrxekr97ue2",55,"57.csv","","259.09999999403954","resources/trios/L4T2A3.jpg","38","restless",0.4,0.7,0.7,0.284544949046551,"true"
"image-keyboard-response",519,427124,"0.0-3.169-1.169","3d1hrrxekr97ue2",55,"57.csv","","null","resources/maskTrios/BT2B.jpg","null","",NA,NA,NA,NA,""
"image-keyboard-response",520,428325,"0.0-3.169-2.169","3d1hrrxekr97ue2",55,"57.csv","","null","resources/images/coin2.png","null","",NA,NA,NA,NA,""
"image-keyboard-response",521,428617,"0.0-3.170-0.170","3d1hrrxekr97ue2",55,"57.csv","","290.39999997615814","resources/trios/L4T1A1.jpg","38","restless",0.4,0.7,0.7,0.366543041686181,"true"
"image-keyboard-response",522,429018,"0.0-3.170-1.170","3d1hrrxekr97ue2",55,"57.csv","","null","resources/maskTrios/BT1B.jpg","null","",NA,NA,NA,NA,""
"image-keyboard-response",523,430220,"0.0-3.170-2.170","3d1hrrxekr97ue2",55,"57.csv","","null","resources/images/coin2.png","null","",NA,NA,NA,NA,""
"image-keyboard-response",524,430369,"0.0-3.171-0.171","3d1hrrxekr97ue2",55,"57.csv","","148.2999999821186","resources/trios/L1T2A3.jpg","38","restless",0.4,0.7,0.7,0.810534667658945,"false"
"image-keyboard-response",525,430774,"0.0-3.171-1.171","3d1hrrxekr97ue2",55,"57.csv","","null","resources/maskTrios/BT2B.jpg","null","",NA,NA,NA,NA,""
"image-keyboard-response",526,431975,"0.0-3.171-2.171","3d1hrrxekr97ue2",55,"57.csv","","null","resources/images/fishbone.png","null","",NA,NA,NA,NA,""
"image-keyboard-response",527,432309,"0.0-3.172-0.172","3d1hrrxekr97ue2",55,"57.csv","","333","resources/trios/L4T2A1.jpg","38","restless",0.4,0.7,0.7,0.927025269687558,"false"
"image-keyboard-response",528,432713,"0.0-3.172-1.172","3d1hrrxekr97ue2",55,"57.csv","","null","resources/maskTrios/BT2B.jpg","null","",NA,NA,NA,NA,""
"image-keyboard-response",529,433915,"0.0-3.172-2.172","3d1hrrxekr97ue2",55,"57.csv","","null","resources/images/fishbone.png","null","",NA,NA,NA,NA,""
"image-keyboard-response",530,434019,"0.0-3.173-0.173","3d1hrrxekr97ue2",55,"57.csv","","103.09999999403954","resources/trios/L4T2A3.jpg","38","restless",0.3,0.6,0.7,0.770407633510777,"false"
"image-keyboard-response",531,434422,"0.0-3.173-1.173","3d1hrrxekr97ue2",55,"57.csv","","null","resources/maskTrios/BT2B.jpg","null","",NA,NA,NA,NA,""
"image-keyboard-response",532,435623,"0.0-3.173-2.173","3d1hrrxekr97ue2",55,"57.csv","","null","resources/images/fishbone.png","null","",NA,NA,NA,NA,""
"image-keyboard-response",533,436071,"0.0-3.174-0.174","3d1hrrxekr97ue2",55,"57.csv","","447","resources/trios/L1T2A3.jpg","37","restless",0.3,0.5,0.7,0.610594067366,"false"
"image-keyboard-response",534,436472,"0.0-3.174-1.174","3d1hrrxekr97ue2",55,"57.csv","","null","resources/maskTrios/L1BB.jpg","null","",NA,NA,NA,NA,""
"image-keyboard-response",535,437677,"0.0-3.174-2.174","3d1hrrxekr97ue2",55,"57.csv","","null","resources/images/fishbone.png","null","",NA,NA,NA,NA,""
"image-keyboard-response",536,437920,"0.0-3.175-0.175","3d1hrrxekr97ue2",55,"57.csv","","241.69999998807907","resources/trios/L4T2A3.jpg","37","restless",0.2,0.5,0.7,0.0733976394914364,"true"
"image-keyboard-response",537,438324,"0.0-3.175-1.175","3d1hrrxekr97ue2",55,"57.csv","","null","resources/maskTrios/L4BB.jpg","null","",NA,NA,NA,NA,""
"image-keyboard-response",538,439525,"0.0-3.175-2.175","3d1hrrxekr97ue2",55,"57.csv","","null","resources/images/coin2.png","null","",NA,NA,NA,NA,""
"image-keyboard-response",539,439879,"0.0-3.176-0.176","3d1hrrxekr97ue2",55,"57.csv","","353.40000000596046","resources/trios/L1T1A1.jpg","37","restless",0.2,0.5,0.7,0.0491988004969854,"true"
"image-keyboard-response",540,440280,"0.0-3.176-1.176","3d1hrrxekr97ue2",55,"57.csv","","null","resources/maskTrios/L1BB.jpg","null","",NA,NA,NA,NA,""
"image-keyboard-response",541,441482,"0.0-3.176-2.176","3d1hrrxekr97ue2",55,"57.csv","","null","resources/images/coin2.png","null","",NA,NA,NA,NA,""
"image-keyboard-response",542,441882,"0.0-3.177-0.177","3d1hrrxekr97ue2",55,"57.csv","","399.5","resources/trios/L4T1A1.jpg","37","restless",0.2,0.5,0.7,0.424553813331054,"false"
"image-keyboard-response",543,442284,"0.0-3.177-1.177","3d1hrrxekr97ue2",55,"57.csv","","null","resources/maskTrios/L4BB.jpg","null","",NA,NA,NA,NA,""
"image-keyboard-response",544,443485,"0.0-3.177-2.177","3d1hrrxekr97ue2",55,"57.csv","","null","resources/images/fishbone.png","null","",NA,NA,NA,NA,""
"image-keyboard-response",545,443854,"0.0-3.178-0.178","3d1hrrxekr97ue2",55,"57.csv","","367.59999999403954","resources/trios/L4T1A3.jpg","38","restless",0.2,0.5,0.7,0.775626467109487,"false"
"image-keyboard-response",546,444258,"0.0-3.178-1.178","3d1hrrxekr97ue2",55,"57.csv","","null","resources/maskTrios/BT1B.jpg","null","",NA,NA,NA,NA,""
"image-keyboard-response",547,445460,"0.0-3.178-2.178","3d1hrrxekr97ue2",55,"57.csv","","null","resources/images/fishbone.png","null","",NA,NA,NA,NA,""
"image-keyboard-response",548,445868,"0.0-3.179-0.179","3d1hrrxekr97ue2",55,"57.csv","","407.80000001192093","resources/trios/L1T1A1.jpg","37","restless",0.2,0.5,0.7,0.0735575833251523,"true"
"image-keyboard-response",549,446273,"0.0-3.179-1.179","3d1hrrxekr97ue2",55,"57.csv","","null","resources/maskTrios/L1BB.jpg","null","",NA,NA,NA,NA,""
"image-keyboard-response",550,447474,"0.0-3.179-2.179","3d1hrrxekr97ue2",55,"57.csv","","null","resources/images/coin2.png","null","",NA,NA,NA,NA,""
"image-keyboard-response",551,447627,"0.0-3.180-0.180","3d1hrrxekr97ue2",55,"57.csv","","151.60000002384186","resources/trios/L1T2A3.jpg","37","restless",0.1,0.5,0.7,0.244532344539729,"false"
"image-keyboard-response",552,448028,"0.0-3.180-1.180","3d1hrrxekr97ue2",55,"57.csv","","null","resources/maskTrios/L1BB.jpg","null","",NA,NA,NA,NA,""
"image-keyboard-response",553,449229,"0.0-3.180-2.180","3d1hrrxekr97ue2",55,"57.csv","","null","resources/images/fishbone.png","null","",NA,NA,NA,NA,""
"image-keyboard-response",554,449468,"0.0-3.181-0.181","3d1hrrxekr97ue2",55,"57.csv","","238.09999999403954","resources/trios/L4T1A1.jpg","39","restless",0.1,0.5,0.7,0.188169826736153,"true"
"image-keyboard-response",555,449872,"0.0-3.181-1.181","3d1hrrxekr97ue2",55,"57.csv","","null","resources/maskTrios/BBA1.jpg","null","",NA,NA,NA,NA,""
"image-keyboard-response",556,451073,"0.0-3.181-2.181","3d1hrrxekr97ue2",55,"57.csv","","null","resources/images/coin2.png","null","",NA,NA,NA,NA,""
"image-keyboard-response",557,451457,"0.0-3.182-0.182","3d1hrrxekr97ue2",55,"57.csv","","382.7000000178814","resources/trios/L1T2A3.jpg","39","restless",0.1,0.5,0.7,0.257846652074144,"true"
"image-keyboard-response",558,451860,"0.0-3.182-1.182","3d1hrrxekr97ue2",55,"57.csv","","null","resources/maskTrios/BBA3.jpg","null","",NA,NA,NA,NA,""
"image-keyboard-response",559,453061,"0.0-3.182-2.182","3d1hrrxekr97ue2",55,"57.csv","","null","resources/images/coin2.png","null","",NA,NA,NA,NA,""
"image-keyboard-response",560,453312,"0.0-3.183-0.183","3d1hrrxekr97ue2",55,"57.csv","","249.89999997615814","resources/trios/L1T1A1.jpg","39","restless",0.1,0.6,0.7,0.924754594261612,"false"
"image-keyboard-response",561,453713,"0.0-3.183-1.183","3d1hrrxekr97ue2",55,"57.csv","","null","resources/maskTrios/BBA1.jpg","null","",NA,NA,NA,NA,""
"image-keyboard-response",562,454914,"0.0-3.183-2.183","3d1hrrxekr97ue2",55,"57.csv","","null","resources/images/fishbone.png","null","",NA,NA,NA,NA,""
"image-keyboard-response",563,455212,"0.0-3.184-0.184","3d1hrrxekr97ue2",55,"57.csv","","295.80000001192093","resources/trios/L1T2A1.jpg","37","restless",0.1,0.6,0.7,0.403865187476179,"false"
"image-keyboard-response",564,455614,"0.0-3.184-1.184","3d1hrrxekr97ue2",55,"57.csv","","null","resources/maskTrios/L1BB.jpg","null","",NA,NA,NA,NA,""
"image-keyboard-response",565,456820,"0.0-3.184-2.184","3d1hrrxekr97ue2",55,"57.csv","","null","resources/images/fishbone.png","null","",NA,NA,NA,NA,""
"image-keyboard-response",566,456846,"0.0-3.185-0.185","3d1hrrxekr97ue2",55,"57.csv","","24.599999994039536","resources/trios/L4T1A1.jpg","37","restless",0.1,0.6,0.7,0.0109074751885316,"true"
"image-keyboard-response",567,457250,"0.0-3.185-1.185","3d1hrrxekr97ue2",55,"57.csv","","null","resources/maskTrios/L4BB.jpg","null","",NA,NA,NA,NA,""
"image-keyboard-response",568,458454,"0.0-3.185-2.185","3d1hrrxekr97ue2",55,"57.csv","","null","resources/images/coin2.png","null","",NA,NA,NA,NA,""
"image-keyboard-response",569,458877,"0.0-3.186-0.186","3d1hrrxekr97ue2",55,"57.csv","","422.09999999403954","resources/trios/L1T2A1.jpg","38","restless",0.1,0.6,0.7,0.264594969676827,"true"
"image-keyboard-response",570,459278,"0.0-3.186-1.186","3d1hrrxekr97ue2",55,"57.csv","","null","resources/maskTrios/BT2B.jpg","null","",NA,NA,NA,NA,""
"image-keyboard-response",571,460479,"0.0-3.186-2.186","3d1hrrxekr97ue2",55,"57.csv","","null","resources/images/coin2.png","null","",NA,NA,NA,NA,""
"image-keyboard-response",572,461000,"0.0-3.187-0.187","3d1hrrxekr97ue2",55,"57.csv","","519.7999999821186","resources/trios/L4T1A3.jpg","38","restless",0.1,0.6,0.7,0.528408415705613,"true"
"image-keyboard-response",573,461406,"0.0-3.187-1.187","3d1hrrxekr97ue2",55,"57.csv","","null","resources/maskTrios/BT1B.jpg","null","",NA,NA,NA,NA,""
"image-keyboard-response",574,462612,"0.0-3.187-2.187","3d1hrrxekr97ue2",55,"57.csv","","null","resources/images/coin2.png","null","",NA,NA,NA,NA,""
"image-keyboard-response",575,462970,"0.0-3.188-0.188","3d1hrrxekr97ue2",55,"57.csv","","355.39999997615814","resources/trios/L4T2A1.jpg","38","restless",0.1,0.6,0.7,0.373649649406252,"true"
"image-keyboard-response",576,463374,"0.0-3.188-1.188","3d1hrrxekr97ue2",55,"57.csv","","null","resources/maskTrios/BT2B.jpg","null","",NA,NA,NA,NA,""
"image-keyboard-response",577,464575,"0.0-3.188-2.188","3d1hrrxekr97ue2",55,"57.csv","","null","resources/images/coin2.png","null","",NA,NA,NA,NA,""
"image-keyboard-response",578,464817,"0.0-3.189-0.189","3d1hrrxekr97ue2",55,"57.csv","","240.7000000178814","resources/trios/L4T1A1.jpg","38","restless",0.1,0.5,0.7,0.484783262198414,"true"
"image-keyboard-response",579,465219,"0.0-3.189-1.189","3d1hrrxekr97ue2",55,"57.csv","","null","resources/maskTrios/BT1B.jpg","null","",NA,NA,NA,NA,""
"image-keyboard-response",580,466420,"0.0-3.189-2.189","3d1hrrxekr97ue2",55,"57.csv","","null","resources/images/coin2.png","null","",NA,NA,NA,NA,""
"image-keyboard-response",581,467693,"0.0-3.190-0.190","3d1hrrxekr97ue2",55,"57.csv","","1272.0999999940395","resources/trios/L4T2A1.jpg","38","restless",0.1,0.4,0.7,0.88817085515943,"false"
"image-keyboard-response",582,468095,"0.0-3.190-1.190","3d1hrrxekr97ue2",55,"57.csv","","null","resources/maskTrios/BT2B.jpg","null","",NA,NA,NA,NA,""
"image-keyboard-response",583,469297,"0.0-3.190-2.190","3d1hrrxekr97ue2",55,"57.csv","","null","resources/images/fishbone.png","null","",NA,NA,NA,NA,""
"image-keyboard-response",584,472260,"0.0-3.191-0.191","3d1hrrxekr97ue2",55,"57.csv","","2962.2999999821186","resources/trios/L1T2A1.jpg","37","restless",0.1,0.4,0.7,0.101893648078057,"false"
"image-keyboard-response",585,472661,"0.0-3.191-1.191","3d1hrrxekr97ue2",55,"57.csv","","null","resources/maskTrios/L1BB.jpg","null","",NA,NA,NA,NA,""
"image-keyboard-response",586,473863,"0.0-3.191-2.191","3d1hrrxekr97ue2",55,"57.csv","","null","resources/images/fishbone.png","null","",NA,NA,NA,NA,""
"image-keyboard-response",587,474277,"0.0-3.192-0.192","3d1hrrxekr97ue2",55,"57.csv","","412.40000000596046","resources/trios/L1T2A1.jpg","39","restless",0.2,0.4,0.7,0.277841737845197,"true"
"image-keyboard-response",588,474680,"0.0-3.192-1.192","3d1hrrxekr97ue2",55,"57.csv","","null","resources/maskTrios/BBA1.jpg","null","",NA,NA,NA,NA,""
"image-keyboard-response",589,475881,"0.0-3.192-2.192","3d1hrrxekr97ue2",55,"57.csv","","null","resources/images/coin2.png","null","",NA,NA,NA,NA,""
"image-keyboard-response",590,476149,"0.0-3.193-0.193","3d1hrrxekr97ue2",55,"57.csv","","266.7000000178814","resources/trios/L1T1A3.jpg","38","restless",0.2,0.4,0.7,0.0898705756032054,"true"
"image-keyboard-response",591,476551,"0.0-3.193-1.193","3d1hrrxekr97ue2",55,"57.csv","","null","resources/maskTrios/BT1B.jpg","null","",NA,NA,NA,NA,""
"image-keyboard-response",592,477753,"0.0-3.193-2.193","3d1hrrxekr97ue2",55,"57.csv","","null","resources/images/coin2.png","null","",NA,NA,NA,NA,""
"image-keyboard-response",593,477912,"0.0-3.194-0.194","3d1hrrxekr97ue2",55,"57.csv","","157.59999999403954","resources/trios/L1T1A3.jpg","37","restless",0.2,0.4,0.7,0.794870803863406,"false"
"image-keyboard-response",594,478313,"0.0-3.194-1.194","3d1hrrxekr97ue2",55,"57.csv","","null","resources/maskTrios/L1BB.jpg","null","",NA,NA,NA,NA,""
"image-keyboard-response",595,479515,"0.0-3.194-2.194","3d1hrrxekr97ue2",55,"57.csv","","null","resources/images/fishbone.png","null","",NA,NA,NA,NA,""
"image-keyboard-response",596,479567,"0.0-3.195-0.195","3d1hrrxekr97ue2",55,"57.csv","","51.29999998211861","resources/trios/L4T2A3.jpg","38","restless",0.3,0.4,0.7,0.434453034824605,"false"
"image-keyboard-response",597,479969,"0.0-3.195-1.195","3d1hrrxekr97ue2",55,"57.csv","","null","resources/maskTrios/BT2B.jpg","null","",NA,NA,NA,NA,""
"image-keyboard-response",598,481171,"0.0-3.195-2.195","3d1hrrxekr97ue2",55,"57.csv","","null","resources/images/fishbone.png","null","",NA,NA,NA,NA,""
"image-keyboard-response",599,483467,"0.0-3.196-0.196","3d1hrrxekr97ue2",55,"57.csv","","2295.100000023842","resources/trios/L4T2A3.jpg","38","restless",0.3,0.4,0.7,0.513846337386554,"false"
"image-keyboard-response",600,483868,"0.0-3.196-1.196","3d1hrrxekr97ue2",55,"57.csv","","null","resources/maskTrios/BT2B.jpg","null","",NA,NA,NA,NA,""
"image-keyboard-response",601,485069,"0.0-3.196-2.196","3d1hrrxekr97ue2",55,"57.csv","","null","resources/images/fishbone.png","null","",NA,NA,NA,NA,""
"image-keyboard-response",602,485539,"0.0-3.197-0.197","3d1hrrxekr97ue2",55,"57.csv","","468.90000000596046","resources/trios/L4T1A1.jpg","38","restless",0.3,0.4,0.7,0.405796766954881,"false"
"image-keyboard-response",603,485940,"0.0-3.197-1.197","3d1hrrxekr97ue2",55,"57.csv","","null","resources/maskTrios/BT1B.jpg","null","",NA,NA,NA,NA,""
"image-keyboard-response",604,487141,"0.0-3.197-2.197","3d1hrrxekr97ue2",55,"57.csv","","null","resources/images/fishbone.png","null","",NA,NA,NA,NA,""
"image-keyboard-response",605,487602,"0.0-3.198-0.198","3d1hrrxekr97ue2",55,"57.csv","","459.90000000596046","resources/trios/L1T1A1.jpg","38","restless",0.3,0.4,0.7,0.516246982111532,"false"
"image-keyboard-response",606,488008,"0.0-3.198-1.198","3d1hrrxekr97ue2",55,"57.csv","","null","resources/maskTrios/BT1B.jpg","null","",NA,NA,NA,NA,""
"image-keyboard-response",607,489214,"0.0-3.198-2.198","3d1hrrxekr97ue2",55,"57.csv","","null","resources/images/fishbone.png","null","",NA,NA,NA,NA,""
"image-keyboard-response",608,489648,"0.0-3.199-0.199","3d1hrrxekr97ue2",55,"57.csv","","432.69999998807907","resources/trios/L1T1A3.jpg","37","restless",0.3,0.4,0.7,0.832541122710021,"false"
"image-keyboard-response",609,490049,"0.0-3.199-1.199","3d1hrrxekr97ue2",55,"57.csv","","null","resources/maskTrios/L1BB.jpg","null","",NA,NA,NA,NA,""
"image-keyboard-response",610,491251,"0.0-3.199-2.199","3d1hrrxekr97ue2",55,"57.csv","","null","resources/images/fishbone.png","null","",NA,NA,NA,NA,""
"image-keyboard-response",611,491557,"0.0-3.200-0.200","3d1hrrxekr97ue2",55,"57.csv","","305.5","resources/trios/L4T2A1.jpg","38","restless",0.3,0.4,0.7,0.878743951820699,"false"
"image-keyboard-response",612,491964,"0.0-3.200-1.200","3d1hrrxekr97ue2",55,"57.csv","","null","resources/maskTrios/BT2B.jpg","null","",NA,NA,NA,NA,""
"image-keyboard-response",613,493165,"0.0-3.200-2.200","3d1hrrxekr97ue2",55,"57.csv","","null","resources/images/fishbone.png","null","",NA,NA,NA,NA,""
