"trial_type","trial_index","time_elapsed","internal_node_id","subject","walkNumber","success","rt","stimulus","key_press","test_part","leftProb","midProb","rightProb","generatedNum","correct"
"pavlovia",0,1262,"0.0-0.0","sf4fy4760pt2965","7.csv","","","","","",NA,NA,NA,NA,""
"fullscreen",1,4237,"0.0-1.0","sf4fy4760pt2965","7.csv","true","","","","",NA,NA,NA,NA,""
"html-keyboard-response",2,7988,"0.0-2.0-0.0","sf4fy4760pt2965","7.csv","","3749","<p><font size='6'>Arrrgh!</p></font><p>Can you be the best pirate? Try to find lots of gold! But beware, some islands have more gold than others, and over time, the island with the most gold may change. Can YOU figure it out? </p><font size='6'>GOOD LUCK, CAPTAIN!!!</font><p>Press any key to begin</p>","32","",NA,NA,NA,NA,""
"image-keyboard-response",3,10993,"0.0-2.0-1.0","sf4fy4760pt2965","7.csv","","null","resources/image_sets/111.png","null","",NA,NA,NA,NA,""
"image-keyboard-response",4,22485,"0.0-2.0-2.0","sf4fy4760pt2965","7.csv","","11490","resources/image_sets/left_highlight.png","37","",NA,NA,NA,NA,""
"image-keyboard-response",5,28151,"0.0-2.0-3.0","sf4fy4760pt2965","7.csv","","5664","resources/image_sets/mid_highlight.png","38","",NA,NA,NA,NA,""
"image-keyboard-response",6,30860,"0.0-2.0-4.0","sf4fy4760pt2965","7.csv","","2707.0000000000073","resources/image_sets/right_highlight.png","39","",NA,NA,NA,NA,""
"image-keyboard-response",7,51501,"0.0-2.0-5.0","sf4fy4760pt2965","7.csv","","20637.999999999993","resources/image_sets/111.png","13","",NA,NA,NA,NA,""
"image-keyboard-response",8,56335,"0.0-2.0-6.0","sf4fy4760pt2965","7.csv","","4832","resources/images/coin2.png","13","",NA,NA,NA,NA,""
"image-keyboard-response",9,58036,"0.0-2.0-7.0","sf4fy4760pt2965","7.csv","","1698.9999999999927","resources/images/fishbone.png","13","",NA,NA,NA,NA,""
"html-keyboard-response",10,60414,"0.0-2.0-8.0","sf4fy4760pt2965","7.csv","","2376","<p>Your first journey will be a long one, but you will get a well deserved break at the end</p><p>After the break you will have four more journeys, but each will be much shorter than the first, and you will have breaks in between each</p><p>Press Enter to begin</p>","13","",NA,NA,NA,NA,""
"image-keyboard-response",11,62202,"0.0-3.0-0.0","sf4fy4760pt2965","7.csv","","1786","resources/trios/L1T2A1.jpg","39","restless",0.9,0.3,0.7,0.545503201074133,"true"
"image-keyboard-response",12,62608,"0.0-3.0-1.0","sf4fy4760pt2965","7.csv","","null","resources/maskTrios/BBA1.jpg","null","",NA,NA,NA,NA,""
"image-keyboard-response",13,63812,"0.0-3.0-2.0","sf4fy4760pt2965","7.csv","","null","resources/images/coin2.png","null","",NA,NA,NA,NA,""
"image-keyboard-response",14,66695,"0.0-3.1-0.1","sf4fy4760pt2965","7.csv","","2880","resources/trios/L2T4A1.jpg","39","restless",0.9,0.3,0.7,0.90405248390389,"false"
"image-keyboard-response",15,67099,"0.0-3.1-1.1","sf4fy4760pt2965","7.csv","","null","resources/maskTrios/BBA1.jpg","null","",NA,NA,NA,NA,""
"image-keyboard-response",16,68301,"0.0-3.1-2.1","sf4fy4760pt2965","7.csv","","null","resources/images/fishbone.png","null","",NA,NA,NA,NA,""
"image-keyboard-response",17,76244,"0.0-3.2-0.2","sf4fy4760pt2965","7.csv","","7941","resources/trios/L2T4A1.jpg","37","restless",0.8,0.3,0.7,0.508861531469577,"true"
"image-keyboard-response",18,76648,"0.0-3.2-1.2","sf4fy4760pt2965","7.csv","","null","resources/maskTrios/L2BB.jpg","null","",NA,NA,NA,NA,""
"image-keyboard-response",19,77851,"0.0-3.2-2.2","sf4fy4760pt2965","7.csv","","null","resources/images/coin2.png","null","",NA,NA,NA,NA,""
"image-keyboard-response",20,81496,"0.0-3.3-0.3","sf4fy4760pt2965","7.csv","","3643","resources/trios/L2T2A1.jpg","38","restless",0.8,0.3,0.7,0.635426946417064,"false"
"image-keyboard-response",21,81899,"0.0-3.3-1.3","sf4fy4760pt2965","7.csv","","null","resources/maskTrios/BT2B.jpg","null","",NA,NA,NA,NA,""
"image-keyboard-response",22,83102,"0.0-3.3-2.3","sf4fy4760pt2965","7.csv","","null","resources/images/fishbone.png","null","",NA,NA,NA,NA,""
"image-keyboard-response",23,84085,"0.0-3.4-0.4","sf4fy4760pt2965","7.csv","","980","resources/trios/L1T4A2.jpg","37","restless",0.7,0.3,0.7,0.995398654060874,"false"
"image-keyboard-response",24,84488,"0.0-3.4-1.4","sf4fy4760pt2965","7.csv","","null","resources/maskTrios/L1BB.jpg","null","",NA,NA,NA,NA,""
"image-keyboard-response",25,85690,"0.0-3.4-2.4","sf4fy4760pt2965","7.csv","","null","resources/images/fishbone.png","null","",NA,NA,NA,NA,""
"image-keyboard-response",26,86282,"0.0-3.5-0.5","sf4fy4760pt2965","7.csv","","590","resources/trios/L2T2A2.jpg","39","restless",0.6,0.3,0.7,0.395838015042533,"true"
"image-keyboard-response",27,86685,"0.0-3.5-1.5","sf4fy4760pt2965","7.csv","","null","resources/maskTrios/BBA2.jpg","null","",NA,NA,NA,NA,""
"image-keyboard-response",28,87888,"0.0-3.5-2.5","sf4fy4760pt2965","7.csv","","null","resources/images/coin2.png","null","",NA,NA,NA,NA,""
"image-keyboard-response",29,88776,"0.0-3.6-0.6","sf4fy4760pt2965","7.csv","","885","resources/trios/L2T2A2.jpg","39","restless",0.6,0.3,0.7,0.232593395073756,"true"
"image-keyboard-response",30,89179,"0.0-3.6-1.6","sf4fy4760pt2965","7.csv","","null","resources/maskTrios/BBA2.jpg","null","",NA,NA,NA,NA,""
"image-keyboard-response",31,90383,"0.0-3.6-2.6","sf4fy4760pt2965","7.csv","","null","resources/images/coin2.png","null","",NA,NA,NA,NA,""
"image-keyboard-response",32,91199,"0.0-3.7-0.7","sf4fy4760pt2965","7.csv","","814","resources/trios/L2T2A1.jpg","39","restless",0.6,0.3,0.7,0.109975216158755,"true"
"image-keyboard-response",33,91602,"0.0-3.7-1.7","sf4fy4760pt2965","7.csv","","null","resources/maskTrios/BBA1.jpg","null","",NA,NA,NA,NA,""
"image-keyboard-response",34,92805,"0.0-3.7-2.7","sf4fy4760pt2965","7.csv","","null","resources/images/coin2.png","null","",NA,NA,NA,NA,""
"image-keyboard-response",35,93544,"0.0-3.8-0.8","sf4fy4760pt2965","7.csv","","736","resources/trios/L1T2A2.jpg","39","restless",0.6,0.3,0.7,0.358491949095211,"true"
"image-keyboard-response",36,93947,"0.0-3.8-1.8","sf4fy4760pt2965","7.csv","","null","resources/maskTrios/BBA2.jpg","null","",NA,NA,NA,NA,""
"image-keyboard-response",37,95148,"0.0-3.8-2.8","sf4fy4760pt2965","7.csv","","null","resources/images/coin2.png","null","",NA,NA,NA,NA,""
"image-keyboard-response",38,95652,"0.0-3.9-0.9","sf4fy4760pt2965","7.csv","","501","resources/trios/L2T2A2.jpg","39","restless",0.5,0.3,0.7,0.60721603037701,"true"
"image-keyboard-response",39,96055,"0.0-3.9-1.9","sf4fy4760pt2965","7.csv","","null","resources/maskTrios/BBA2.jpg","null","",NA,NA,NA,NA,""
"image-keyboard-response",40,97258,"0.0-3.9-2.9","sf4fy4760pt2965","7.csv","","null","resources/images/coin2.png","null","",NA,NA,NA,NA,""
"image-keyboard-response",41,97880,"0.0-3.10-0.10","sf4fy4760pt2965","7.csv","","619","resources/trios/L2T4A2.jpg","39","restless",0.5,0.3,0.7,0.615678702263573,"true"
"image-keyboard-response",42,98283,"0.0-3.10-1.10","sf4fy4760pt2965","7.csv","","null","resources/maskTrios/BBA2.jpg","null","",NA,NA,NA,NA,""
"image-keyboard-response",43,99486,"0.0-3.10-2.10","sf4fy4760pt2965","7.csv","","null","resources/images/coin2.png","null","",NA,NA,NA,NA,""
"image-keyboard-response",44,99968,"0.0-3.11-0.11","sf4fy4760pt2965","7.csv","","480","resources/trios/L2T4A2.jpg","39","restless",0.5,0.3,0.7,0.867121649372301,"false"
"image-keyboard-response",45,100371,"0.0-3.11-1.11","sf4fy4760pt2965","7.csv","","null","resources/maskTrios/BBA2.jpg","null","",NA,NA,NA,NA,""
"image-keyboard-response",46,101573,"0.0-3.11-2.11","sf4fy4760pt2965","7.csv","","null","resources/images/fishbone.png","null","",NA,NA,NA,NA,""
"image-keyboard-response",47,102979,"0.0-3.12-0.12","sf4fy4760pt2965","7.csv","","1404","resources/trios/L1T2A2.jpg","37","restless",0.5,0.3,0.7,0.0567498882773534,"true"
"image-keyboard-response",48,103383,"0.0-3.12-1.12","sf4fy4760pt2965","7.csv","","null","resources/maskTrios/L1BB.jpg","null","",NA,NA,NA,NA,""
"image-keyboard-response",49,104585,"0.0-3.12-2.12","sf4fy4760pt2965","7.csv","","null","resources/images/coin2.png","null","",NA,NA,NA,NA,""
"image-keyboard-response",50,105057,"0.0-3.13-0.13","sf4fy4760pt2965","7.csv","","469","resources/trios/L1T2A1.jpg","37","restless",0.5,0.3,0.7,0.97319202674616,"false"
"image-keyboard-response",51,105460,"0.0-3.13-1.13","sf4fy4760pt2965","7.csv","","null","resources/maskTrios/L1BB.jpg","null","",NA,NA,NA,NA,""
"image-keyboard-response",52,106663,"0.0-3.13-2.13","sf4fy4760pt2965","7.csv","","null","resources/images/fishbone.png","null","",NA,NA,NA,NA,""
"image-keyboard-response",53,110003,"0.0-3.14-0.14","sf4fy4760pt2965","7.csv","","3337.0000000000146","resources/trios/L1T2A2.jpg","38","restless",0.5,0.3,0.7,0.755154190090864,"false"
"image-keyboard-response",54,110406,"0.0-3.14-1.14","sf4fy4760pt2965","7.csv","","null","resources/maskTrios/BT2B.jpg","null","",NA,NA,NA,NA,""
"image-keyboard-response",55,111609,"0.0-3.14-2.14","sf4fy4760pt2965","7.csv","","null","resources/images/fishbone.png","null","",NA,NA,NA,NA,""
"image-keyboard-response",56,112189,"0.0-3.15-0.15","sf4fy4760pt2965","7.csv","","578","resources/trios/L1T4A1.jpg","39","restless",0.5,0.3,0.7,0.198637703412173,"true"
"image-keyboard-response",57,112592,"0.0-3.15-1.15","sf4fy4760pt2965","7.csv","","null","resources/maskTrios/BBA1.jpg","null","",NA,NA,NA,NA,""
"image-keyboard-response",58,113795,"0.0-3.15-2.15","sf4fy4760pt2965","7.csv","","null","resources/images/coin2.png","null","",NA,NA,NA,NA,""
"image-keyboard-response",59,114208,"0.0-3.16-0.16","sf4fy4760pt2965","7.csv","","411","resources/trios/L1T4A1.jpg","39","restless",0.5,0.3,0.7,0.258424104426265,"true"
"image-keyboard-response",60,114612,"0.0-3.16-1.16","sf4fy4760pt2965","7.csv","","null","resources/maskTrios/BBA1.jpg","null","",NA,NA,NA,NA,""
"image-keyboard-response",61,115815,"0.0-3.16-2.16","sf4fy4760pt2965","7.csv","","null","resources/images/coin2.png","null","",NA,NA,NA,NA,""
"image-keyboard-response",62,116373,"0.0-3.17-0.17","sf4fy4760pt2965","7.csv","","556","resources/trios/L2T2A2.jpg","39","restless",0.5,0.3,0.7,0.700458833362553,"false"
"image-keyboard-response",63,116776,"0.0-3.17-1.17","sf4fy4760pt2965","7.csv","","null","resources/maskTrios/BBA2.jpg","null","",NA,NA,NA,NA,""
"image-keyboard-response",64,117979,"0.0-3.17-2.17","sf4fy4760pt2965","7.csv","","null","resources/images/fishbone.png","null","",NA,NA,NA,NA,""
"image-keyboard-response",65,119981,"0.0-3.18-0.18","sf4fy4760pt2965","7.csv","","2000","resources/trios/L2T2A1.jpg","37","restless",0.6,0.3,0.7,0.426555287245464,"true"
"image-keyboard-response",66,120384,"0.0-3.18-1.18","sf4fy4760pt2965","7.csv","","null","resources/maskTrios/L2BB.jpg","null","",NA,NA,NA,NA,""
"image-keyboard-response",67,121587,"0.0-3.18-2.18","sf4fy4760pt2965","7.csv","","null","resources/images/coin2.png","null","",NA,NA,NA,NA,""
"image-keyboard-response",68,123002,"0.0-3.19-0.19","sf4fy4760pt2965","7.csv","","1413.9999999999854","resources/trios/L1T4A1.jpg","39","restless",0.6,0.3,0.7,0.881397793772622,"false"
"image-keyboard-response",69,123406,"0.0-3.19-1.19","sf4fy4760pt2965","7.csv","","null","resources/maskTrios/BBA1.jpg","null","",NA,NA,NA,NA,""
"image-keyboard-response",70,124609,"0.0-3.19-2.19","sf4fy4760pt2965","7.csv","","null","resources/images/fishbone.png","null","",NA,NA,NA,NA,""
"image-keyboard-response",71,125171,"0.0-3.20-0.20","sf4fy4760pt2965","7.csv","","560","resources/trios/L2T2A1.jpg","37","restless",0.6,0.3,0.7,0.422848413619791,"true"
"image-keyboard-response",72,125575,"0.0-3.20-1.20","sf4fy4760pt2965","7.csv","","null","resources/maskTrios/L2BB.jpg","null","",NA,NA,NA,NA,""
"image-keyboard-response",73,126778,"0.0-3.20-2.20","sf4fy4760pt2965","7.csv","","null","resources/images/coin2.png","null","",NA,NA,NA,NA,""
"image-keyboard-response",74,127216,"0.0-3.21-0.21","sf4fy4760pt2965","7.csv","","435.9999999999709","resources/trios/L2T4A2.jpg","37","restless",0.6,0.3,0.7,0.788985043181341,"false"
"image-keyboard-response",75,127619,"0.0-3.21-1.21","sf4fy4760pt2965","7.csv","","null","resources/maskTrios/L2BB.jpg","null","",NA,NA,NA,NA,""
"image-keyboard-response",76,128822,"0.0-3.21-2.21","sf4fy4760pt2965","7.csv","","null","resources/images/fishbone.png","null","",NA,NA,NA,NA,""
"image-keyboard-response",77,129926,"0.0-3.22-0.22","sf4fy4760pt2965","7.csv","","1101","resources/trios/L1T2A2.jpg","38","restless",0.5,0.3,0.7,0.568456602565864,"false"
"image-keyboard-response",78,130330,"0.0-3.22-1.22","sf4fy4760pt2965","7.csv","","null","resources/maskTrios/BT2B.jpg","null","",NA,NA,NA,NA,""
"image-keyboard-response",79,131532,"0.0-3.22-2.22","sf4fy4760pt2965","7.csv","","null","resources/images/fishbone.png","null","",NA,NA,NA,NA,""
"image-keyboard-response",80,132032,"0.0-3.23-0.23","sf4fy4760pt2965","7.csv","","497","resources/trios/L1T2A2.jpg","39","restless",0.5,0.3,0.6,0.0501602141776547,"true"
"image-keyboard-response",81,132435,"0.0-3.23-1.23","sf4fy4760pt2965","7.csv","","null","resources/maskTrios/BBA2.jpg","null","",NA,NA,NA,NA,""
"image-keyboard-response",82,133638,"0.0-3.23-2.23","sf4fy4760pt2965","7.csv","","null","resources/images/coin2.png","null","",NA,NA,NA,NA,""
"image-keyboard-response",83,134031,"0.0-3.24-0.24","sf4fy4760pt2965","7.csv","","390","resources/trios/L2T4A1.jpg","39","restless",0.5,0.3,0.6,0.539388948371966,"true"
"image-keyboard-response",84,134434,"0.0-3.24-1.24","sf4fy4760pt2965","7.csv","","null","resources/maskTrios/BBA1.jpg","null","",NA,NA,NA,NA,""
"image-keyboard-response",85,135637,"0.0-3.24-2.24","sf4fy4760pt2965","7.csv","","null","resources/images/coin2.png","null","",NA,NA,NA,NA,""
"image-keyboard-response",86,136024,"0.0-3.25-0.25","sf4fy4760pt2965","7.csv","","386","resources/trios/L2T2A2.jpg","39","restless",0.5,0.3,0.6,0.22332449191065,"true"
"image-keyboard-response",87,136427,"0.0-3.25-1.25","sf4fy4760pt2965","7.csv","","null","resources/maskTrios/BBA2.jpg","null","",NA,NA,NA,NA,""
"image-keyboard-response",88,137630,"0.0-3.25-2.25","sf4fy4760pt2965","7.csv","","null","resources/images/coin2.png","null","",NA,NA,NA,NA,""
"image-keyboard-response",89,138162,"0.0-3.26-0.26","sf4fy4760pt2965","7.csv","","530","resources/trios/L1T2A2.jpg","39","restless",0.5,0.3,0.6,0.96062185700501,"false"
"image-keyboard-response",90,138566,"0.0-3.26-1.26","sf4fy4760pt2965","7.csv","","null","resources/maskTrios/BBA2.jpg","null","",NA,NA,NA,NA,""
"image-keyboard-response",91,139769,"0.0-3.26-2.26","sf4fy4760pt2965","7.csv","","null","resources/images/fishbone.png","null","",NA,NA,NA,NA,""
"image-keyboard-response",92,140298,"0.0-3.27-0.27","sf4fy4760pt2965","7.csv","","527","resources/trios/L2T2A1.jpg","37","restless",0.5,0.3,0.6,0.960074207435649,"false"
"image-keyboard-response",93,140702,"0.0-3.27-1.27","sf4fy4760pt2965","7.csv","","null","resources/maskTrios/L2BB.jpg","null","",NA,NA,NA,NA,""
"image-keyboard-response",94,141905,"0.0-3.27-2.27","sf4fy4760pt2965","7.csv","","null","resources/images/fishbone.png","null","",NA,NA,NA,NA,""
"image-keyboard-response",95,142378,"0.0-3.28-0.28","sf4fy4760pt2965","7.csv","","471","resources/trios/L2T4A2.jpg","38","restless",0.5,0.3,0.6,0.961888386166577,"false"
"image-keyboard-response",96,142781,"0.0-3.28-1.28","sf4fy4760pt2965","7.csv","","null","resources/maskTrios/BT4B.jpg","null","",NA,NA,NA,NA,""
"image-keyboard-response",97,143984,"0.0-3.28-2.28","sf4fy4760pt2965","7.csv","","null","resources/images/fishbone.png","null","",NA,NA,NA,NA,""
"image-keyboard-response",98,144445,"0.0-3.29-0.29","sf4fy4760pt2965","7.csv","","458","resources/trios/L2T4A2.jpg","39","restless",0.5,0.3,0.6,0.862240517391652,"false"
"image-keyboard-response",99,144848,"0.0-3.29-1.29","sf4fy4760pt2965","7.csv","","null","resources/maskTrios/BBA2.jpg","null","",NA,NA,NA,NA,""
"image-keyboard-response",100,146050,"0.0-3.29-2.29","sf4fy4760pt2965","7.csv","","null","resources/images/fishbone.png","null","",NA,NA,NA,NA,""
"image-keyboard-response",101,147160,"0.0-3.30-0.30","sf4fy4760pt2965","7.csv","","1107","resources/trios/L2T4A2.jpg","39","restless",0.5,0.3,0.6,0.759047204049932,"false"
"image-keyboard-response",102,147563,"0.0-3.30-1.30","sf4fy4760pt2965","7.csv","","null","resources/maskTrios/BBA2.jpg","null","",NA,NA,NA,NA,""
"image-keyboard-response",103,148766,"0.0-3.30-2.30","sf4fy4760pt2965","7.csv","","null","resources/images/fishbone.png","null","",NA,NA,NA,NA,""
"image-keyboard-response",104,149146,"0.0-3.31-0.31","sf4fy4760pt2965","7.csv","","377","resources/trios/L1T4A2.jpg","38","restless",0.5,0.3,0.6,0.427116878959931,"false"
"image-keyboard-response",105,149549,"0.0-3.31-1.31","sf4fy4760pt2965","7.csv","","null","resources/maskTrios/BT4B.jpg","null","",NA,NA,NA,NA,""
"image-keyboard-response",106,150751,"0.0-3.31-2.31","sf4fy4760pt2965","7.csv","","null","resources/images/fishbone.png","null","",NA,NA,NA,NA,""
"image-keyboard-response",107,151153,"0.0-3.32-0.32","sf4fy4760pt2965","7.csv","","400","resources/trios/L2T4A2.jpg","37","restless",0.5,0.3,0.6,0.419959924489817,"true"
"image-keyboard-response",108,151556,"0.0-3.32-1.32","sf4fy4760pt2965","7.csv","","null","resources/maskTrios/L2BB.jpg","null","",NA,NA,NA,NA,""
"image-keyboard-response",109,152759,"0.0-3.32-2.32","sf4fy4760pt2965","7.csv","","null","resources/images/coin2.png","null","",NA,NA,NA,NA,""
"image-keyboard-response",110,153990,"0.0-3.33-0.33","sf4fy4760pt2965","7.csv","","1230","resources/trios/L2T4A1.jpg","37","restless",0.6,0.3,0.6,0.803605745152741,"false"
"image-keyboard-response",111,154392,"0.0-3.33-1.33","sf4fy4760pt2965","7.csv","","null","resources/maskTrios/L2BB.jpg","null","",NA,NA,NA,NA,""
"image-keyboard-response",112,155595,"0.0-3.33-2.33","sf4fy4760pt2965","7.csv","","null","resources/images/fishbone.png","null","",NA,NA,NA,NA,""
"image-keyboard-response",113,156036,"0.0-3.34-0.34","sf4fy4760pt2965","7.csv","","438.0000000000291","resources/trios/L1T2A1.jpg","39","restless",0.7,0.3,0.6,0.53823774647873,"true"
"image-keyboard-response",114,156439,"0.0-3.34-1.34","sf4fy4760pt2965","7.csv","","null","resources/maskTrios/BBA1.jpg","null","",NA,NA,NA,NA,""
"image-keyboard-response",115,157642,"0.0-3.34-2.34","sf4fy4760pt2965","7.csv","","null","resources/images/coin2.png","null","",NA,NA,NA,NA,""
"image-keyboard-response",116,157972,"0.0-3.35-0.35","sf4fy4760pt2965","7.csv","","328","resources/trios/L2T4A2.jpg","39","restless",0.7,0.3,0.6,0.721831645473465,"false"
"image-keyboard-response",117,158375,"0.0-3.35-1.35","sf4fy4760pt2965","7.csv","","null","resources/maskTrios/BBA2.jpg","null","",NA,NA,NA,NA,""
"image-keyboard-response",118,159578,"0.0-3.35-2.35","sf4fy4760pt2965","7.csv","","null","resources/images/fishbone.png","null","",NA,NA,NA,NA,""
"image-keyboard-response",119,160375,"0.0-3.36-0.36","sf4fy4760pt2965","7.csv","","795","resources/trios/L1T2A1.jpg","38","restless",0.7,0.3,0.6,0.723868926429591,"false"
"image-keyboard-response",120,160778,"0.0-3.36-1.36","sf4fy4760pt2965","7.csv","","null","resources/maskTrios/BT2B.jpg","null","",NA,NA,NA,NA,""
"image-keyboard-response",121,161981,"0.0-3.36-2.36","sf4fy4760pt2965","7.csv","","null","resources/images/fishbone.png","null","",NA,NA,NA,NA,""
"image-keyboard-response",122,162394,"0.0-3.37-0.37","sf4fy4760pt2965","7.csv","","412","resources/trios/L2T2A1.jpg","37","restless",0.7,0.3,0.6,0.722882462889985,"false"
"image-keyboard-response",123,162798,"0.0-3.37-1.37","sf4fy4760pt2965","7.csv","","null","resources/maskTrios/L2BB.jpg","null","",NA,NA,NA,NA,""
"image-keyboard-response",124,164001,"0.0-3.37-2.37","sf4fy4760pt2965","7.csv","","null","resources/images/fishbone.png","null","",NA,NA,NA,NA,""
"image-keyboard-response",125,164035,"0.0-3.38-0.38","sf4fy4760pt2965","7.csv","","33","resources/trios/L2T2A1.jpg","39","restless",0.7,0.3,0.7,0.877185507361215,"false"
"image-keyboard-response",126,164437,"0.0-3.38-1.38","sf4fy4760pt2965","7.csv","","null","resources/maskTrios/BBA1.jpg","null","",NA,NA,NA,NA,""
"image-keyboard-response",127,165639,"0.0-3.38-2.38","sf4fy4760pt2965","7.csv","","null","resources/images/fishbone.png","null","",NA,NA,NA,NA,""
"image-keyboard-response",128,165938,"0.0-3.39-0.39","sf4fy4760pt2965","7.csv","","297","resources/trios/L2T2A2.jpg","38","restless",0.7,0.3,0.7,0.269566331478735,"true"
"image-keyboard-response",129,166341,"0.0-3.39-1.39","sf4fy4760pt2965","7.csv","","null","resources/maskTrios/BT2B.jpg","null","",NA,NA,NA,NA,""
"image-keyboard-response",130,167544,"0.0-3.39-2.39","sf4fy4760pt2965","7.csv","","null","resources/images/coin2.png","null","",NA,NA,NA,NA,""
"image-keyboard-response",131,167965,"0.0-3.40-0.40","sf4fy4760pt2965","7.csv","","420","resources/trios/L2T2A2.jpg","38","restless",0.8,0.3,0.7,0.734982038856467,"false"
"image-keyboard-response",132,168369,"0.0-3.40-1.40","sf4fy4760pt2965","7.csv","","null","resources/maskTrios/BT2B.jpg","null","",NA,NA,NA,NA,""
"image-keyboard-response",133,169571,"0.0-3.40-2.40","sf4fy4760pt2965","7.csv","","null","resources/images/fishbone.png","null","",NA,NA,NA,NA,""
"image-keyboard-response",134,169781,"0.0-3.41-0.41","sf4fy4760pt2965","7.csv","","208","resources/trios/L2T4A2.jpg","39","restless",0.8,0.3,0.7,0.33370303292976,"true"
"image-keyboard-response",135,170184,"0.0-3.41-1.41","sf4fy4760pt2965","7.csv","","null","resources/maskTrios/BBA2.jpg","null","",NA,NA,NA,NA,""
"image-keyboard-response",136,171387,"0.0-3.41-2.41","sf4fy4760pt2965","7.csv","","null","resources/images/coin2.png","null","",NA,NA,NA,NA,""
"image-keyboard-response",137,171748,"0.0-3.42-0.42","sf4fy4760pt2965","7.csv","","358","resources/trios/L1T4A1.jpg","39","restless",0.8,0.3,0.7,0.884887828106095,"false"
"image-keyboard-response",138,172151,"0.0-3.42-1.42","sf4fy4760pt2965","7.csv","","null","resources/maskTrios/BBA1.jpg","null","",NA,NA,NA,NA,""
"image-keyboard-response",139,173353,"0.0-3.42-2.42","sf4fy4760pt2965","7.csv","","null","resources/images/fishbone.png","null","",NA,NA,NA,NA,""
"image-keyboard-response",140,173619,"0.0-3.43-0.43","sf4fy4760pt2965","7.csv","","264","resources/trios/L2T2A2.jpg","37","restless",0.8,0.3,0.7,0.806855483224533,"false"
"image-keyboard-response",141,174023,"0.0-3.43-1.43","sf4fy4760pt2965","7.csv","","null","resources/maskTrios/L2BB.jpg","null","",NA,NA,NA,NA,""
"image-keyboard-response",142,175226,"0.0-3.43-2.43","sf4fy4760pt2965","7.csv","","null","resources/images/fishbone.png","null","",NA,NA,NA,NA,""
"image-keyboard-response",143,175409,"0.0-3.44-0.44","sf4fy4760pt2965","7.csv","","180","resources/trios/L1T4A1.jpg","38","restless",0.8,0.2,0.7,0.346685029164383,"false"
"image-keyboard-response",144,175812,"0.0-3.44-1.44","sf4fy4760pt2965","7.csv","","null","resources/maskTrios/BT4B.jpg","null","",NA,NA,NA,NA,""
"image-keyboard-response",145,177015,"0.0-3.44-2.44","sf4fy4760pt2965","7.csv","","null","resources/images/fishbone.png","null","",NA,NA,NA,NA,""
"image-keyboard-response",146,177613,"0.0-3.45-0.45","sf4fy4760pt2965","7.csv","","596","resources/trios/L2T2A1.jpg","37","restless",0.8,0.2,0.8,0.994739940706892,"false"
"image-keyboard-response",147,178016,"0.0-3.45-1.45","sf4fy4760pt2965","7.csv","","null","resources/maskTrios/L2BB.jpg","null","",NA,NA,NA,NA,""
"image-keyboard-response",148,179219,"0.0-3.45-2.45","sf4fy4760pt2965","7.csv","","null","resources/images/fishbone.png","null","",NA,NA,NA,NA,""
"image-keyboard-response",149,179596,"0.0-3.46-0.46","sf4fy4760pt2965","7.csv","","375","resources/trios/L2T4A2.jpg","39","restless",0.8,0.3,0.8,0.166119108470284,"true"
"image-keyboard-response",150,179999,"0.0-3.46-1.46","sf4fy4760pt2965","7.csv","","null","resources/maskTrios/BBA2.jpg","null","",NA,NA,NA,NA,""
"image-keyboard-response",151,181203,"0.0-3.46-2.46","sf4fy4760pt2965","7.csv","","null","resources/images/coin2.png","null","",NA,NA,NA,NA,""
"image-keyboard-response",152,182347,"0.0-3.47-0.47","sf4fy4760pt2965","7.csv","","1142","resources/trios/L2T2A2.jpg","39","restless",0.8,0.3,0.8,0.289740176438124,"true"
"image-keyboard-response",153,182749,"0.0-3.47-1.47","sf4fy4760pt2965","7.csv","","null","resources/maskTrios/BBA2.jpg","null","",NA,NA,NA,NA,""
"image-keyboard-response",154,183956,"0.0-3.47-2.47","sf4fy4760pt2965","7.csv","","null","resources/images/coin2.png","null","",NA,NA,NA,NA,""
"image-keyboard-response",155,184459,"0.0-3.48-0.48","sf4fy4760pt2965","7.csv","","498","resources/trios/L1T2A2.jpg","39","restless",0.8,0.3,0.8,0.570797964725838,"true"
"image-keyboard-response",156,184863,"0.0-3.48-1.48","sf4fy4760pt2965","7.csv","","null","resources/maskTrios/BBA2.jpg","null","",NA,NA,NA,NA,""
"image-keyboard-response",157,186066,"0.0-3.48-2.48","sf4fy4760pt2965","7.csv","","null","resources/images/coin2.png","null","",NA,NA,NA,NA,""
"image-keyboard-response",158,187670,"0.0-3.49-0.49","sf4fy4760pt2965","7.csv","","1602","resources/trios/L2T4A1.jpg","38","restless",0.8,0.3,0.8,0.364357794302453,"false"
"image-keyboard-response",159,188073,"0.0-3.49-1.49","sf4fy4760pt2965","7.csv","","null","resources/maskTrios/BT4B.jpg","null","",NA,NA,NA,NA,""
"image-keyboard-response",160,189276,"0.0-3.49-2.49","sf4fy4760pt2965","7.csv","","null","resources/images/fishbone.png","null","",NA,NA,NA,NA,""
"image-keyboard-response",161,190485,"0.0-3.50-0.50","sf4fy4760pt2965","7.csv","","1206.999999999971","resources/trios/L2T2A1.jpg","37","restless",0.8,0.3,0.8,0.989294487517623,"false"
"image-keyboard-response",162,190889,"0.0-3.50-1.50","sf4fy4760pt2965","7.csv","","null","resources/maskTrios/L2BB.jpg","null","",NA,NA,NA,NA,""
"image-keyboard-response",163,192091,"0.0-3.50-2.50","sf4fy4760pt2965","7.csv","","null","resources/images/fishbone.png","null","",NA,NA,NA,NA,""
"image-keyboard-response",164,192516,"0.0-3.51-0.51","sf4fy4760pt2965","7.csv","","423","resources/trios/L1T4A1.jpg","39","restless",0.8,0.3,0.8,0.712450443725147,"true"
"image-keyboard-response",165,192919,"0.0-3.51-1.51","sf4fy4760pt2965","7.csv","","null","resources/maskTrios/BBA1.jpg","null","",NA,NA,NA,NA,""
"image-keyboard-response",166,194122,"0.0-3.51-2.51","sf4fy4760pt2965","7.csv","","null","resources/images/coin2.png","null","",NA,NA,NA,NA,""
"image-keyboard-response",167,194533,"0.0-3.52-0.52","sf4fy4760pt2965","7.csv","","408","resources/trios/L2T2A1.jpg","39","restless",0.8,0.3,0.8,0.416221848570185,"true"
"image-keyboard-response",168,194936,"0.0-3.52-1.52","sf4fy4760pt2965","7.csv","","null","resources/maskTrios/BBA1.jpg","null","",NA,NA,NA,NA,""
"image-keyboard-response",169,196139,"0.0-3.52-2.52","sf4fy4760pt2965","7.csv","","null","resources/images/coin2.png","null","",NA,NA,NA,NA,""
"image-keyboard-response",170,196555,"0.0-3.53-0.53","sf4fy4760pt2965","7.csv","","414","resources/trios/L2T4A1.jpg","39","restless",0.7,0.3,0.8,0.81579640492204,"false"
"image-keyboard-response",171,196958,"0.0-3.53-1.53","sf4fy4760pt2965","7.csv","","null","resources/maskTrios/BBA1.jpg","null","",NA,NA,NA,NA,""
"image-keyboard-response",172,198160,"0.0-3.53-2.53","sf4fy4760pt2965","7.csv","","null","resources/images/fishbone.png","null","",NA,NA,NA,NA,""
"image-keyboard-response",173,198689,"0.0-3.54-0.54","sf4fy4760pt2965","7.csv","","524","resources/trios/L1T2A2.jpg","38","restless",0.7,0.3,0.8,0.943002784060705,"false"
"image-keyboard-response",174,199092,"0.0-3.54-1.54","sf4fy4760pt2965","7.csv","","null","resources/maskTrios/BT2B.jpg","null","",NA,NA,NA,NA,""
"image-keyboard-response",175,200295,"0.0-3.54-2.54","sf4fy4760pt2965","7.csv","","null","resources/images/fishbone.png","null","",NA,NA,NA,NA,""
"image-keyboard-response",176,200755,"0.0-3.55-0.55","sf4fy4760pt2965","7.csv","","457","resources/trios/L1T2A1.jpg","39","restless",0.7,0.3,0.8,0.375665569423842,"true"
"image-keyboard-response",177,201158,"0.0-3.55-1.55","sf4fy4760pt2965","7.csv","","null","resources/maskTrios/BBA1.jpg","null","",NA,NA,NA,NA,""
"image-keyboard-response",178,202361,"0.0-3.55-2.55","sf4fy4760pt2965","7.csv","","null","resources/images/coin2.png","null","",NA,NA,NA,NA,""
"image-keyboard-response",179,203780,"0.0-3.56-0.56","sf4fy4760pt2965","7.csv","","1417","resources/trios/L1T2A1.jpg","39","restless",0.7,0.3,0.8,0.121649182704074,"true"
"image-keyboard-response",180,204184,"0.0-3.56-1.56","sf4fy4760pt2965","7.csv","","null","resources/maskTrios/BBA1.jpg","null","",NA,NA,NA,NA,""
"image-keyboard-response",181,205387,"0.0-3.56-2.56","sf4fy4760pt2965","7.csv","","null","resources/images/coin2.png","null","",NA,NA,NA,NA,""
"image-keyboard-response",182,205812,"0.0-3.57-0.57","sf4fy4760pt2965","7.csv","","423","resources/trios/L2T2A2.jpg","39","restless",0.7,0.3,0.8,0.977770026730588,"false"
"image-keyboard-response",183,206215,"0.0-3.57-1.57","sf4fy4760pt2965","7.csv","","null","resources/maskTrios/BBA2.jpg","null","",NA,NA,NA,NA,""
"image-keyboard-response",184,207418,"0.0-3.57-2.57","sf4fy4760pt2965","7.csv","","null","resources/images/fishbone.png","null","",NA,NA,NA,NA,""
"image-keyboard-response",185,208133,"0.0-3.58-0.58","sf4fy4760pt2965","7.csv","","713","resources/trios/L2T2A1.jpg","38","restless",0.6,0.3,0.8,0.928392840850577,"false"
"image-keyboard-response",186,208537,"0.0-3.58-1.58","sf4fy4760pt2965","7.csv","","null","resources/maskTrios/BT2B.jpg","null","",NA,NA,NA,NA,""
"image-keyboard-response",187,209739,"0.0-3.58-2.58","sf4fy4760pt2965","7.csv","","null","resources/images/fishbone.png","null","",NA,NA,NA,NA,""
"image-keyboard-response",188,209918,"0.0-3.59-0.59","sf4fy4760pt2965","7.csv","","176","resources/trios/L2T2A1.jpg","39","restless",0.6,0.3,0.8,0.51537288220646,"true"
"image-keyboard-response",189,210321,"0.0-3.59-1.59","sf4fy4760pt2965","7.csv","","null","resources/maskTrios/BBA1.jpg","null","",NA,NA,NA,NA,""
"image-keyboard-response",190,211524,"0.0-3.59-2.59","sf4fy4760pt2965","7.csv","","null","resources/images/coin2.png","null","",NA,NA,NA,NA,""
"image-keyboard-response",191,211981,"0.0-3.60-0.60","sf4fy4760pt2965","7.csv","","455.0000000000291","resources/trios/L2T2A2.jpg","39","restless",0.5,0.3,0.8,0.522695060468061,"true"
"image-keyboard-response",192,212383,"0.0-3.60-1.60","sf4fy4760pt2965","7.csv","","null","resources/maskTrios/BBA2.jpg","null","",NA,NA,NA,NA,""
"image-keyboard-response",193,213586,"0.0-3.60-2.60","sf4fy4760pt2965","7.csv","","null","resources/images/coin2.png","null","",NA,NA,NA,NA,""
"image-keyboard-response",194,213982,"0.0-3.61-0.61","sf4fy4760pt2965","7.csv","","394.9999999999709","resources/trios/L1T4A2.jpg","39","restless",0.4,0.4,0.8,0.446387858761775,"true"
"image-keyboard-response",195,214386,"0.0-3.61-1.61","sf4fy4760pt2965","7.csv","","null","resources/maskTrios/BBA2.jpg","null","",NA,NA,NA,NA,""
"image-keyboard-response",196,215589,"0.0-3.61-2.61","sf4fy4760pt2965","7.csv","","null","resources/images/coin2.png","null","",NA,NA,NA,NA,""
"image-keyboard-response",197,215953,"0.0-3.62-0.62","sf4fy4760pt2965","7.csv","","362","resources/trios/L1T4A1.jpg","39","restless",0.4,0.4,0.8,0.665314122066843,"true"
"image-keyboard-response",198,216357,"0.0-3.62-1.62","sf4fy4760pt2965","7.csv","","null","resources/maskTrios/BBA1.jpg","null","",NA,NA,NA,NA,""
"image-keyboard-response",199,217560,"0.0-3.62-2.62","sf4fy4760pt2965","7.csv","","null","resources/images/coin2.png","null","",NA,NA,NA,NA,""
"image-keyboard-response",200,218002,"0.0-3.63-0.63","sf4fy4760pt2965","7.csv","","440","resources/trios/L2T2A1.jpg","39","restless",0.4,0.3,0.8,0.376632005625287,"true"
"image-keyboard-response",201,218405,"0.0-3.63-1.63","sf4fy4760pt2965","7.csv","","null","resources/maskTrios/BBA1.jpg","null","",NA,NA,NA,NA,""
"image-keyboard-response",202,219607,"0.0-3.63-2.63","sf4fy4760pt2965","7.csv","","null","resources/images/coin2.png","null","",NA,NA,NA,NA,""
"image-keyboard-response",203,219995,"0.0-3.64-0.64","sf4fy4760pt2965","7.csv","","385","resources/trios/L1T4A1.jpg","39","restless",0.4,0.3,0.9,0.406331527750717,"true"
"image-keyboard-response",204,220398,"0.0-3.64-1.64","sf4fy4760pt2965","7.csv","","null","resources/maskTrios/BBA1.jpg","null","",NA,NA,NA,NA,""
"image-keyboard-response",205,221601,"0.0-3.64-2.64","sf4fy4760pt2965","7.csv","","null","resources/images/coin2.png","null","",NA,NA,NA,NA,""
"image-keyboard-response",206,221934,"0.0-3.65-0.65","sf4fy4760pt2965","7.csv","","330","resources/trios/L2T4A2.jpg","39","restless",0.4,0.3,0.9,0.579661601426622,"true"
"image-keyboard-response",207,222337,"0.0-3.65-1.65","sf4fy4760pt2965","7.csv","","null","resources/maskTrios/BBA2.jpg","null","",NA,NA,NA,NA,""
"image-keyboard-response",208,223540,"0.0-3.65-2.65","sf4fy4760pt2965","7.csv","","null","resources/images/coin2.png","null","",NA,NA,NA,NA,""
"image-keyboard-response",209,223925,"0.0-3.66-0.66","sf4fy4760pt2965","7.csv","","382","resources/trios/L2T2A1.jpg","39","restless",0.4,0.3,0.9,0.25347957037624,"true"
"image-keyboard-response",210,224330,"0.0-3.66-1.66","sf4fy4760pt2965","7.csv","","null","resources/maskTrios/BBA1.jpg","null","",NA,NA,NA,NA,""
"image-keyboard-response",211,225533,"0.0-3.66-2.66","sf4fy4760pt2965","7.csv","","null","resources/images/coin2.png","null","",NA,NA,NA,NA,""
"image-keyboard-response",212,225896,"0.0-3.67-0.67","sf4fy4760pt2965","7.csv","","361.0000000000291","resources/trios/L1T4A1.jpg","39","restless",0.3,0.3,0.8,0.712217870458934,"true"
"image-keyboard-response",213,226299,"0.0-3.67-1.67","sf4fy4760pt2965","7.csv","","null","resources/maskTrios/BBA1.jpg","null","",NA,NA,NA,NA,""
"image-keyboard-response",214,227501,"0.0-3.67-2.67","sf4fy4760pt2965","7.csv","","null","resources/images/coin2.png","null","",NA,NA,NA,NA,""
"image-keyboard-response",215,227798,"0.0-3.68-0.68","sf4fy4760pt2965","7.csv","","292","resources/trios/L1T2A2.jpg","39","restless",0.3,0.3,0.8,0.849822623986984,"false"
"image-keyboard-response",216,228202,"0.0-3.68-1.68","sf4fy4760pt2965","7.csv","","null","resources/maskTrios/BBA2.jpg","null","",NA,NA,NA,NA,""
"image-keyboard-response",217,229405,"0.0-3.68-2.68","sf4fy4760pt2965","7.csv","","null","resources/images/fishbone.png","null","",NA,NA,NA,NA,""
"image-keyboard-response",218,230201,"0.0-3.69-0.69","sf4fy4760pt2965","7.csv","","795","resources/trios/L1T2A1.jpg","37","restless",0.3,0.4,0.9,0.339807324055032,"false"
"image-keyboard-response",219,230605,"0.0-3.69-1.69","sf4fy4760pt2965","7.csv","","null","resources/maskTrios/L1BB.jpg","null","",NA,NA,NA,NA,""
"image-keyboard-response",220,231806,"0.0-3.69-2.69","sf4fy4760pt2965","7.csv","","null","resources/images/fishbone.png","null","",NA,NA,NA,NA,""
"image-keyboard-response",221,232195,"0.0-3.70-0.70","sf4fy4760pt2965","7.csv","","386.0000000000291","resources/trios/L2T2A1.jpg","38","restless",0.3,0.4,0.9,0.859671295392313,"false"
"image-keyboard-response",222,232598,"0.0-3.70-1.70","sf4fy4760pt2965","7.csv","","null","resources/maskTrios/BT2B.jpg","null","",NA,NA,NA,NA,""
"image-keyboard-response",223,233801,"0.0-3.70-2.70","sf4fy4760pt2965","7.csv","","null","resources/images/fishbone.png","null","",NA,NA,NA,NA,""
"image-keyboard-response",224,234253,"0.0-3.71-0.71","sf4fy4760pt2965","7.csv","","449","resources/trios/L1T4A2.jpg","39","restless",0.3,0.4,0.9,0.953224930901585,"false"
"image-keyboard-response",225,234656,"0.0-3.71-1.71","sf4fy4760pt2965","7.csv","","null","resources/maskTrios/BBA2.jpg","null","",NA,NA,NA,NA,""
"image-keyboard-response",226,235858,"0.0-3.71-2.71","sf4fy4760pt2965","7.csv","","null","resources/images/fishbone.png","null","",NA,NA,NA,NA,""
"image-keyboard-response",227,236242,"0.0-3.72-0.72","sf4fy4760pt2965","7.csv","","382.0000000000291","resources/trios/L2T4A2.jpg","38","restless",0.3,0.4,0.9,0.130249827651888,"true"
"image-keyboard-response",228,236645,"0.0-3.72-1.72","sf4fy4760pt2965","7.csv","","null","resources/maskTrios/BT4B.jpg","null","",NA,NA,NA,NA,""
"image-keyboard-response",229,237848,"0.0-3.72-2.72","sf4fy4760pt2965","7.csv","","null","resources/images/coin2.png","null","",NA,NA,NA,NA,""
"image-keyboard-response",230,238406,"0.0-3.73-0.73","sf4fy4760pt2965","7.csv","","556","resources/trios/L1T4A1.jpg","39","restless",0.3,0.4,0.9,0.130203209288841,"true"
"image-keyboard-response",231,238809,"0.0-3.73-1.73","sf4fy4760pt2965","7.csv","","null","resources/maskTrios/BBA1.jpg","null","",NA,NA,NA,NA,""
"image-keyboard-response",232,240014,"0.0-3.73-2.73","sf4fy4760pt2965","7.csv","","null","resources/images/coin2.png","null","",NA,NA,NA,NA,""
"image-keyboard-response",233,240364,"0.0-3.74-0.74","sf4fy4760pt2965","7.csv","","347.9999999999709","resources/trios/L2T2A1.jpg","39","restless",0.2,0.4,0.9,0.00307377591062663,"true"
"image-keyboard-response",234,240768,"0.0-3.74-1.74","sf4fy4760pt2965","7.csv","","null","resources/maskTrios/BBA1.jpg","null","",NA,NA,NA,NA,""
"image-keyboard-response",235,241970,"0.0-3.74-2.74","sf4fy4760pt2965","7.csv","","null","resources/images/coin2.png","null","",NA,NA,NA,NA,""
"image-keyboard-response",236,242371,"0.0-3.75-0.75","sf4fy4760pt2965","7.csv","","399","resources/trios/L2T4A2.jpg","39","restless",0.2,0.3,0.9,0.675617405291202,"true"
"image-keyboard-response",237,242774,"0.0-3.75-1.75","sf4fy4760pt2965","7.csv","","null","resources/maskTrios/BBA2.jpg","null","",NA,NA,NA,NA,""
"image-keyboard-response",238,243977,"0.0-3.75-2.75","sf4fy4760pt2965","7.csv","","null","resources/images/coin2.png","null","",NA,NA,NA,NA,""
"image-keyboard-response",239,244367,"0.0-3.76-0.76","sf4fy4760pt2965","7.csv","","387","resources/trios/L1T4A2.jpg","39","restless",0.2,0.3,0.9,0.947639169844811,"false"
"image-keyboard-response",240,244770,"0.0-3.76-1.76","sf4fy4760pt2965","7.csv","","null","resources/maskTrios/BBA2.jpg","null","",NA,NA,NA,NA,""
"image-keyboard-response",241,245973,"0.0-3.76-2.76","sf4fy4760pt2965","7.csv","","null","resources/images/fishbone.png","null","",NA,NA,NA,NA,""
"image-keyboard-response",242,246672,"0.0-3.77-0.77","sf4fy4760pt2965","7.csv","","697","resources/trios/L2T4A2.jpg","37","restless",0.2,0.3,0.8,0.282383460527974,"false"
"image-keyboard-response",243,247075,"0.0-3.77-1.77","sf4fy4760pt2965","7.csv","","null","resources/maskTrios/L2BB.jpg","null","",NA,NA,NA,NA,""
"image-keyboard-response",244,248278,"0.0-3.77-2.77","sf4fy4760pt2965","7.csv","","null","resources/images/fishbone.png","null","",NA,NA,NA,NA,""
"image-keyboard-response",245,248372,"0.0-3.78-0.78","sf4fy4760pt2965","7.csv","","92","resources/trios/L1T2A1.jpg","38","restless",0.1,0.3,0.8,0.547049009757149,"false"
"image-keyboard-response",246,248775,"0.0-3.78-1.78","sf4fy4760pt2965","7.csv","","null","resources/maskTrios/BT2B.jpg","null","",NA,NA,NA,NA,""
"image-keyboard-response",247,249978,"0.0-3.78-2.78","sf4fy4760pt2965","7.csv","","null","resources/images/fishbone.png","null","",NA,NA,NA,NA,""
"image-keyboard-response",248,250556,"0.0-3.79-0.79","sf4fy4760pt2965","7.csv","","574.9999999999709","resources/trios/L1T4A1.jpg","39","restless",0.1,0.3,0.8,0.940676275740487,"false"
"image-keyboard-response",249,250960,"0.0-3.79-1.79","sf4fy4760pt2965","7.csv","","null","resources/maskTrios/BBA1.jpg","null","",NA,NA,NA,NA,""
"image-keyboard-response",250,252162,"0.0-3.79-2.79","sf4fy4760pt2965","7.csv","","null","resources/images/fishbone.png","null","",NA,NA,NA,NA,""
"image-keyboard-response",251,252398,"0.0-3.80-0.80","sf4fy4760pt2965","7.csv","","233","resources/trios/L2T4A2.jpg","38","restless",0.1,0.3,0.8,0.454553925892365,"false"
"image-keyboard-response",252,252802,"0.0-3.80-1.80","sf4fy4760pt2965","7.csv","","null","resources/maskTrios/BT4B.jpg","null","",NA,NA,NA,NA,""
"image-keyboard-response",253,254004,"0.0-3.80-2.80","sf4fy4760pt2965","7.csv","","null","resources/images/fishbone.png","null","",NA,NA,NA,NA,""
"image-keyboard-response",254,254192,"0.0-3.81-0.81","sf4fy4760pt2965","7.csv","","184.9999999999418","resources/trios/L2T2A1.jpg","39","restless",0.1,0.4,0.7,0.725261121257034,"false"
"image-keyboard-response",255,254595,"0.0-3.81-1.81","sf4fy4760pt2965","7.csv","","null","resources/maskTrios/BBA1.jpg","null","",NA,NA,NA,NA,""
"image-keyboard-response",256,255797,"0.0-3.81-2.81","sf4fy4760pt2965","7.csv","","null","resources/images/fishbone.png","null","",NA,NA,NA,NA,""
"image-keyboard-response",257,256262,"0.0-3.82-0.82","sf4fy4760pt2965","7.csv","","463","resources/trios/L1T4A1.jpg","39","restless",0.1,0.4,0.7,0.423599239740418,"true"
"image-keyboard-response",258,256666,"0.0-3.82-1.82","sf4fy4760pt2965","7.csv","","null","resources/maskTrios/BBA1.jpg","null","",NA,NA,NA,NA,""
"image-keyboard-response",259,257869,"0.0-3.82-2.82","sf4fy4760pt2965","7.csv","","null","resources/images/coin2.png","null","",NA,NA,NA,NA,""
"image-keyboard-response",260,258177,"0.0-3.83-0.83","sf4fy4760pt2965","7.csv","","307.9999999999418","resources/trios/L1T4A1.jpg","39","restless",0.1,0.4,0.7,0.564626214412959,"true"
"image-keyboard-response",261,258580,"0.0-3.83-1.83","sf4fy4760pt2965","7.csv","","null","resources/maskTrios/BBA1.jpg","null","",NA,NA,NA,NA,""
"image-keyboard-response",262,259783,"0.0-3.83-2.83","sf4fy4760pt2965","7.csv","","null","resources/images/coin2.png","null","",NA,NA,NA,NA,""
"image-keyboard-response",263,259993,"0.0-3.84-0.84","sf4fy4760pt2965","7.csv","","208","resources/trios/L1T4A1.jpg","39","restless",0.1,0.3,0.7,0.947421191179931,"false"
"image-keyboard-response",264,260396,"0.0-3.84-1.84","sf4fy4760pt2965","7.csv","","null","resources/maskTrios/BBA1.jpg","null","",NA,NA,NA,NA,""
"image-keyboard-response",265,261599,"0.0-3.84-2.84","sf4fy4760pt2965","7.csv","","null","resources/images/fishbone.png","null","",NA,NA,NA,NA,""
"image-keyboard-response",266,262166,"0.0-3.85-0.85","sf4fy4760pt2965","7.csv","","566","resources/trios/L2T4A2.jpg","37","restless",0.1,0.4,0.7,0.25409152952852,"false"
"image-keyboard-response",267,262570,"0.0-3.85-1.85","sf4fy4760pt2965","7.csv","","null","resources/maskTrios/L2BB.jpg","null","",NA,NA,NA,NA,""
"image-keyboard-response",268,263772,"0.0-3.85-2.85","sf4fy4760pt2965","7.csv","","null","resources/images/fishbone.png","null","",NA,NA,NA,NA,""
"image-keyboard-response",269,264687,"0.0-3.86-0.86","sf4fy4760pt2965","7.csv","","912","resources/trios/L1T4A1.jpg","39","restless",0.1,0.4,0.7,0.0648430868577378,"true"
"image-keyboard-response",270,265090,"0.0-3.86-1.86","sf4fy4760pt2965","7.csv","","null","resources/maskTrios/BBA1.jpg","null","",NA,NA,NA,NA,""
"image-keyboard-response",271,266293,"0.0-3.86-2.86","sf4fy4760pt2965","7.csv","","null","resources/images/coin2.png","null","",NA,NA,NA,NA,""
"image-keyboard-response",272,266692,"0.0-3.87-0.87","sf4fy4760pt2965","7.csv","","396","resources/trios/L2T2A2.jpg","39","restless",0.1,0.4,0.7,0.754297801290454,"false"
"image-keyboard-response",273,267098,"0.0-3.87-1.87","sf4fy4760pt2965","7.csv","","null","resources/maskTrios/BBA2.jpg","null","",NA,NA,NA,NA,""
"image-keyboard-response",274,268300,"0.0-3.87-2.87","sf4fy4760pt2965","7.csv","","null","resources/images/fishbone.png","null","",NA,NA,NA,NA,""
"image-keyboard-response",275,268839,"0.0-3.88-0.88","sf4fy4760pt2965","7.csv","","534","resources/trios/L2T4A1.jpg","38","restless",0.2,0.4,0.7,0.147697406112821,"true"
"image-keyboard-response",276,269243,"0.0-3.88-1.88","sf4fy4760pt2965","7.csv","","null","resources/maskTrios/BT4B.jpg","null","",NA,NA,NA,NA,""
"image-keyboard-response",277,270445,"0.0-3.88-2.88","sf4fy4760pt2965","7.csv","","null","resources/images/coin2.png","null","",NA,NA,NA,NA,""
"image-keyboard-response",278,270961,"0.0-3.89-0.89","sf4fy4760pt2965","7.csv","","513","resources/trios/L1T4A1.jpg","38","restless",0.2,0.4,0.7,0.868885993239936,"false"
"image-keyboard-response",279,271364,"0.0-3.89-1.89","sf4fy4760pt2965","7.csv","","null","resources/maskTrios/BT4B.jpg","null","",NA,NA,NA,NA,""
"image-keyboard-response",280,272567,"0.0-3.89-2.89","sf4fy4760pt2965","7.csv","","null","resources/images/fishbone.png","null","",NA,NA,NA,NA,""
"image-keyboard-response",281,272952,"0.0-3.90-0.90","sf4fy4760pt2965","7.csv","","383","resources/trios/L1T2A1.jpg","39","restless",0.2,0.4,0.7,0.906225523309045,"false"
"image-keyboard-response",282,273355,"0.0-3.90-1.90","sf4fy4760pt2965","7.csv","","null","resources/maskTrios/BBA1.jpg","null","",NA,NA,NA,NA,""
"image-keyboard-response",283,274557,"0.0-3.90-2.90","sf4fy4760pt2965","7.csv","","null","resources/images/fishbone.png","null","",NA,NA,NA,NA,""
"image-keyboard-response",284,275611,"0.0-3.91-0.91","sf4fy4760pt2965","7.csv","","1051.9999999999418","resources/trios/L2T2A1.jpg","37","restless",0.2,0.4,0.7,0.307992257418316,"false"
"image-keyboard-response",285,276015,"0.0-3.91-1.91","sf4fy4760pt2965","7.csv","","null","resources/maskTrios/L2BB.jpg","null","",NA,NA,NA,NA,""
"image-keyboard-response",286,277217,"0.0-3.91-2.91","sf4fy4760pt2965","7.csv","","null","resources/images/fishbone.png","null","",NA,NA,NA,NA,""
"image-keyboard-response",287,277313,"0.0-3.92-0.92","sf4fy4760pt2965","7.csv","","93","resources/trios/L1T2A1.jpg","38","restless",0.2,0.4,0.7,0.634146637517444,"false"
"image-keyboard-response",288,277716,"0.0-3.92-1.92","sf4fy4760pt2965","7.csv","","null","resources/maskTrios/BT2B.jpg","null","",NA,NA,NA,NA,""
"image-keyboard-response",289,278921,"0.0-3.92-2.92","sf4fy4760pt2965","7.csv","","null","resources/images/fishbone.png","null","",NA,NA,NA,NA,""
"image-keyboard-response",290,278951,"0.0-3.93-0.93","sf4fy4760pt2965","7.csv","","28","resources/trios/L2T2A2.jpg","39","restless",0.2,0.5,0.8,0.3601388062783,"true"
"image-keyboard-response",291,279354,"0.0-3.93-1.93","sf4fy4760pt2965","7.csv","","null","resources/maskTrios/BBA2.jpg","null","",NA,NA,NA,NA,""
"image-keyboard-response",292,280556,"0.0-3.93-2.93","sf4fy4760pt2965","7.csv","","null","resources/images/coin2.png","null","",NA,NA,NA,NA,""
"image-keyboard-response",293,280734,"0.0-3.94-0.94","sf4fy4760pt2965","7.csv","","176","resources/trios/L2T2A2.jpg","39","restless",0.2,0.5,0.8,0.927813885568577,"false"
"image-keyboard-response",294,281137,"0.0-3.94-1.94","sf4fy4760pt2965","7.csv","","null","resources/maskTrios/BBA2.jpg","null","",NA,NA,NA,NA,""
"image-keyboard-response",295,282340,"0.0-3.94-2.94","sf4fy4760pt2965","7.csv","","null","resources/images/fishbone.png","null","",NA,NA,NA,NA,""
"image-keyboard-response",296,282722,"0.0-3.95-0.95","sf4fy4760pt2965","7.csv","","380","resources/trios/L1T2A2.jpg","38","restless",0.2,0.5,0.8,0.151704519698553,"true"
"image-keyboard-response",297,283125,"0.0-3.95-1.95","sf4fy4760pt2965","7.csv","","null","resources/maskTrios/BT2B.jpg","null","",NA,NA,NA,NA,""
"image-keyboard-response",298,284328,"0.0-3.95-2.95","sf4fy4760pt2965","7.csv","","null","resources/images/coin2.png","null","",NA,NA,NA,NA,""
"image-keyboard-response",299,284804,"0.0-3.96-0.96","sf4fy4760pt2965","7.csv","","474","resources/trios/L2T4A2.jpg","38","restless",0.2,0.5,0.8,0.684012154080902,"false"
"image-keyboard-response",300,285208,"0.0-3.96-1.96","sf4fy4760pt2965","7.csv","","null","resources/maskTrios/BT4B.jpg","null","",NA,NA,NA,NA,""
"image-keyboard-response",301,286411,"0.0-3.96-2.96","sf4fy4760pt2965","7.csv","","null","resources/images/fishbone.png","null","",NA,NA,NA,NA,""
"image-keyboard-response",302,286909,"0.0-3.97-0.97","sf4fy4760pt2965","7.csv","","496","resources/trios/L1T4A1.jpg","39","restless",0.2,0.5,0.8,0.580531903594736,"true"
"image-keyboard-response",303,287310,"0.0-3.97-1.97","sf4fy4760pt2965","7.csv","","null","resources/maskTrios/BBA1.jpg","null","",NA,NA,NA,NA,""
"image-keyboard-response",304,288513,"0.0-3.97-2.97","sf4fy4760pt2965","7.csv","","null","resources/images/coin2.png","null","",NA,NA,NA,NA,""
"image-keyboard-response",305,288873,"0.0-3.98-0.98","sf4fy4760pt2965","7.csv","","357","resources/trios/L1T2A1.jpg","39","restless",0.2,0.5,0.8,0.302765952982066,"true"
"image-keyboard-response",306,289276,"0.0-3.98-1.98","sf4fy4760pt2965","7.csv","","null","resources/maskTrios/BBA1.jpg","null","",NA,NA,NA,NA,""
"image-keyboard-response",307,290479,"0.0-3.98-2.98","sf4fy4760pt2965","7.csv","","null","resources/images/coin2.png","null","",NA,NA,NA,NA,""
"image-keyboard-response",308,290849,"0.0-3.99-0.99","sf4fy4760pt2965","7.csv","","366.9999999999418","resources/trios/L1T4A1.jpg","39","restless",0.2,0.5,0.8,0.341671374334505,"true"
"image-keyboard-response",309,291252,"0.0-3.99-1.99","sf4fy4760pt2965","7.csv","","null","resources/maskTrios/BBA1.jpg","null","",NA,NA,NA,NA,""
"image-keyboard-response",310,292456,"0.0-3.99-2.99","sf4fy4760pt2965","7.csv","","null","resources/images/coin2.png","null","",NA,NA,NA,NA,""
"image-keyboard-response",311,292861,"0.0-3.100-0.100","sf4fy4760pt2965","7.csv","","402.9999999999418","resources/trios/L1T4A1.jpg","39","restless",0.2,0.5,0.8,0.31076145391385,"true"
"image-keyboard-response",312,293264,"0.0-3.100-1.100","sf4fy4760pt2965","7.csv","","null","resources/maskTrios/BBA1.jpg","null","",NA,NA,NA,NA,""
"image-keyboard-response",313,294468,"0.0-3.100-2.100","sf4fy4760pt2965","7.csv","","null","resources/images/coin2.png","null","",NA,NA,NA,NA,""
"image-keyboard-response",314,294861,"0.0-3.101-0.101","sf4fy4760pt2965","7.csv","","390.9999999999418","resources/trios/L1T2A2.jpg","39","restless",0.2,0.5,0.8,0.505792998180508,"true"
"image-keyboard-response",315,295265,"0.0-3.101-1.101","sf4fy4760pt2965","7.csv","","null","resources/maskTrios/BBA2.jpg","null","",NA,NA,NA,NA,""
"image-keyboard-response",316,296468,"0.0-3.101-2.101","sf4fy4760pt2965","7.csv","","null","resources/images/coin2.png","null","",NA,NA,NA,NA,""
"image-keyboard-response",317,297364,"0.0-3.102-0.102","sf4fy4760pt2965","7.csv","","893.9999999999418","resources/trios/L1T4A1.jpg","39","restless",0.2,0.5,0.8,0.224916677868929,"true"
"image-keyboard-response",318,297769,"0.0-3.102-1.102","sf4fy4760pt2965","7.csv","","null","resources/maskTrios/BBA1.jpg","null","",NA,NA,NA,NA,""
"image-keyboard-response",319,298972,"0.0-3.102-2.102","sf4fy4760pt2965","7.csv","","null","resources/images/coin2.png","null","",NA,NA,NA,NA,""
"image-keyboard-response",320,299359,"0.0-3.103-0.103","sf4fy4760pt2965","7.csv","","381","resources/trios/L1T4A1.jpg","39","restless",0.2,0.5,0.8,0.446865272393172,"true"
"image-keyboard-response",321,299762,"0.0-3.103-1.103","sf4fy4760pt2965","7.csv","","null","resources/maskTrios/BBA1.jpg","null","",NA,NA,NA,NA,""
"image-keyboard-response",322,300965,"0.0-3.103-2.103","sf4fy4760pt2965","7.csv","","null","resources/images/coin2.png","null","",NA,NA,NA,NA,""
"image-keyboard-response",323,301912,"0.0-3.104-0.104","sf4fy4760pt2965","7.csv","","945","resources/trios/L2T4A1.jpg","39","restless",0.2,0.5,0.8,0.0539012182077724,"true"
"image-keyboard-response",324,302316,"0.0-3.104-1.104","sf4fy4760pt2965","7.csv","","null","resources/maskTrios/BBA1.jpg","null","",NA,NA,NA,NA,""
"image-keyboard-response",325,303519,"0.0-3.104-2.104","sf4fy4760pt2965","7.csv","","null","resources/images/coin2.png","null","",NA,NA,NA,NA,""
"image-keyboard-response",326,304226,"0.0-3.105-0.105","sf4fy4760pt2965","7.csv","","705","resources/trios/L1T2A2.jpg","39","restless",0.2,0.5,0.7,0.940102830221825,"false"
"image-keyboard-response",327,304629,"0.0-3.105-1.105","sf4fy4760pt2965","7.csv","","null","resources/maskTrios/BBA2.jpg","null","",NA,NA,NA,NA,""
"image-keyboard-response",328,305832,"0.0-3.105-2.105","sf4fy4760pt2965","7.csv","","null","resources/images/fishbone.png","null","",NA,NA,NA,NA,""
"image-keyboard-response",329,306605,"0.0-3.106-0.106","sf4fy4760pt2965","7.csv","","771","resources/trios/L1T4A1.jpg","38","restless",0.3,0.5,0.6,0.671941651664198,"false"
"image-keyboard-response",330,307008,"0.0-3.106-1.106","sf4fy4760pt2965","7.csv","","null","resources/maskTrios/BT4B.jpg","null","",NA,NA,NA,NA,""
"image-keyboard-response",331,308213,"0.0-3.106-2.106","sf4fy4760pt2965","7.csv","","null","resources/images/fishbone.png","null","",NA,NA,NA,NA,""
"image-keyboard-response",332,308281,"0.0-3.107-0.107","sf4fy4760pt2965","7.csv","","65","resources/trios/L1T4A1.jpg","39","restless",0.3,0.5,0.6,0.657150421998119,"false"
"image-keyboard-response",333,308683,"0.0-3.107-1.107","sf4fy4760pt2965","7.csv","","null","resources/maskTrios/BBA1.jpg","null","",NA,NA,NA,NA,""
"image-keyboard-response",334,309885,"0.0-3.107-2.107","sf4fy4760pt2965","7.csv","","null","resources/images/fishbone.png","null","",NA,NA,NA,NA,""
"image-keyboard-response",335,309970,"0.0-3.108-0.108","sf4fy4760pt2965","7.csv","","82.00000000005821","resources/trios/L2T2A2.jpg","39","restless",0.3,0.5,0.6,0.167061998539907,"true"
"image-keyboard-response",336,310373,"0.0-3.108-1.108","sf4fy4760pt2965","7.csv","","null","resources/maskTrios/BBA2.jpg","null","",NA,NA,NA,NA,""
"image-keyboard-response",337,311576,"0.0-3.108-2.108","sf4fy4760pt2965","7.csv","","null","resources/images/coin2.png","null","",NA,NA,NA,NA,""
"image-keyboard-response",338,312372,"0.0-3.109-0.109","sf4fy4760pt2965","7.csv","","794","resources/trios/L1T4A2.jpg","39","restless",0.3,0.5,0.6,0.531648873299651,"true"
"image-keyboard-response",339,312776,"0.0-3.109-1.109","sf4fy4760pt2965","7.csv","","null","resources/maskTrios/BBA2.jpg","null","",NA,NA,NA,NA,""
"image-keyboard-response",340,313980,"0.0-3.109-2.109","sf4fy4760pt2965","7.csv","","null","resources/images/coin2.png","null","",NA,NA,NA,NA,""
"image-keyboard-response",341,314504,"0.0-3.110-0.110","sf4fy4760pt2965","7.csv","","522.9999999999418","resources/trios/L2T2A1.jpg","39","restless",0.3,0.5,0.6,0.181853089458699,"true"
"image-keyboard-response",342,314907,"0.0-3.110-1.110","sf4fy4760pt2965","7.csv","","null","resources/maskTrios/BBA1.jpg","null","",NA,NA,NA,NA,""
"image-keyboard-response",343,316110,"0.0-3.110-2.110","sf4fy4760pt2965","7.csv","","null","resources/images/coin2.png","null","",NA,NA,NA,NA,""
"image-keyboard-response",344,316514,"0.0-3.111-0.111","sf4fy4760pt2965","7.csv","","403","resources/trios/L1T2A2.jpg","39","restless",0.3,0.6,0.6,0.137283305587251,"true"
"image-keyboard-response",345,316916,"0.0-3.111-1.111","sf4fy4760pt2965","7.csv","","null","resources/maskTrios/BBA2.jpg","null","",NA,NA,NA,NA,""
"image-keyboard-response",346,318119,"0.0-3.111-2.111","sf4fy4760pt2965","7.csv","","null","resources/images/coin2.png","null","",NA,NA,NA,NA,""
"image-keyboard-response",347,318492,"0.0-3.112-0.112","sf4fy4760pt2965","7.csv","","370","resources/trios/L1T2A2.jpg","39","restless",0.4,0.6,0.6,0.78518404510574,"false"
"image-keyboard-response",348,318897,"0.0-3.112-1.112","sf4fy4760pt2965","7.csv","","null","resources/maskTrios/BBA2.jpg","null","",NA,NA,NA,NA,""
"image-keyboard-response",349,320100,"0.0-3.112-2.112","sf4fy4760pt2965","7.csv","","null","resources/images/fishbone.png","null","",NA,NA,NA,NA,""
"image-keyboard-response",350,320387,"0.0-3.113-0.113","sf4fy4760pt2965","7.csv","","284","resources/trios/L2T2A1.jpg","39","restless",0.4,0.7,0.6,0.321619670185517,"true"
"image-keyboard-response",351,320790,"0.0-3.113-1.113","sf4fy4760pt2965","7.csv","","null","resources/maskTrios/BBA1.jpg","null","",NA,NA,NA,NA,""
"image-keyboard-response",352,321993,"0.0-3.113-2.113","sf4fy4760pt2965","7.csv","","null","resources/images/coin2.png","null","",NA,NA,NA,NA,""
"image-keyboard-response",353,322579,"0.0-3.114-0.114","sf4fy4760pt2965","7.csv","","581","resources/trios/L2T2A1.jpg","39","restless",0.4,0.7,0.6,0.0430428719375953,"true"
"image-keyboard-response",354,322983,"0.0-3.114-1.114","sf4fy4760pt2965","7.csv","","null","resources/maskTrios/BBA1.jpg","null","",NA,NA,NA,NA,""
"image-keyboard-response",355,324186,"0.0-3.114-2.114","sf4fy4760pt2965","7.csv","","null","resources/images/coin2.png","null","",NA,NA,NA,NA,""
"image-keyboard-response",356,324782,"0.0-3.115-0.115","sf4fy4760pt2965","7.csv","","594","resources/trios/L2T4A1.jpg","39","restless",0.4,0.6,0.6,0.570362458658613,"true"
"image-keyboard-response",357,325185,"0.0-3.115-1.115","sf4fy4760pt2965","7.csv","","null","resources/maskTrios/BBA1.jpg","null","",NA,NA,NA,NA,""
"image-keyboard-response",358,326388,"0.0-3.115-2.115","sf4fy4760pt2965","7.csv","","null","resources/images/coin2.png","null","",NA,NA,NA,NA,""
"image-keyboard-response",359,326902,"0.0-3.116-0.116","sf4fy4760pt2965","7.csv","","512","resources/trios/L1T4A1.jpg","39","restless",0.4,0.6,0.6,0.8534152039755,"false"
"image-keyboard-response",360,327304,"0.0-3.116-1.116","sf4fy4760pt2965","7.csv","","null","resources/maskTrios/BBA1.jpg","null","",NA,NA,NA,NA,""
"image-keyboard-response",361,328507,"0.0-3.116-2.116","sf4fy4760pt2965","7.csv","","null","resources/images/fishbone.png","null","",NA,NA,NA,NA,""
"image-keyboard-response",362,329117,"0.0-3.117-0.117","sf4fy4760pt2965","7.csv","","608","resources/trios/L1T2A2.jpg","39","restless",0.4,0.6,0.6,0.779697447088481,"false"
"image-keyboard-response",363,329521,"0.0-3.117-1.117","sf4fy4760pt2965","7.csv","","null","resources/maskTrios/BBA2.jpg","null","",NA,NA,NA,NA,""
"image-keyboard-response",364,330723,"0.0-3.117-2.117","sf4fy4760pt2965","7.csv","","null","resources/images/fishbone.png","null","",NA,NA,NA,NA,""
"image-keyboard-response",365,331205,"0.0-3.118-0.118","sf4fy4760pt2965","7.csv","","478","resources/trios/L1T2A2.jpg","39","restless",0.4,0.6,0.6,0.474325072902742,"true"
"image-keyboard-response",366,331609,"0.0-3.118-1.118","sf4fy4760pt2965","7.csv","","null","resources/maskTrios/BBA2.jpg","null","",NA,NA,NA,NA,""
"image-keyboard-response",367,332811,"0.0-3.118-2.118","sf4fy4760pt2965","7.csv","","null","resources/images/coin2.png","null","",NA,NA,NA,NA,""
"image-keyboard-response",368,333211,"0.0-3.119-0.119","sf4fy4760pt2965","7.csv","","398","resources/trios/L2T4A1.jpg","39","restless",0.4,0.6,0.6,0.756220940797037,"false"
"image-keyboard-response",369,333614,"0.0-3.119-1.119","sf4fy4760pt2965","7.csv","","null","resources/maskTrios/BBA1.jpg","null","",NA,NA,NA,NA,""
"image-keyboard-response",370,334817,"0.0-3.119-2.119","sf4fy4760pt2965","7.csv","","null","resources/images/fishbone.png","null","",NA,NA,NA,NA,""
"image-keyboard-response",371,335269,"0.0-3.120-0.120","sf4fy4760pt2965","7.csv","","450","resources/trios/L2T4A2.jpg","39","restless",0.4,0.6,0.6,0.135206671608504,"true"
"image-keyboard-response",372,335672,"0.0-3.120-1.120","sf4fy4760pt2965","7.csv","","null","resources/maskTrios/BBA2.jpg","null","",NA,NA,NA,NA,""
"image-keyboard-response",373,336875,"0.0-3.120-2.120","sf4fy4760pt2965","7.csv","","null","resources/images/coin2.png","null","",NA,NA,NA,NA,""
"image-keyboard-response",374,337261,"0.0-3.121-0.121","sf4fy4760pt2965","7.csv","","384","resources/trios/L2T4A1.jpg","39","restless",0.4,0.6,0.6,0.571756077619524,"true"
"image-keyboard-response",375,337667,"0.0-3.121-1.121","sf4fy4760pt2965","7.csv","","null","resources/maskTrios/BBA1.jpg","null","",NA,NA,NA,NA,""
"image-keyboard-response",376,338870,"0.0-3.121-2.121","sf4fy4760pt2965","7.csv","","null","resources/images/coin2.png","null","",NA,NA,NA,NA,""
"image-keyboard-response",377,339242,"0.0-3.122-0.122","sf4fy4760pt2965","7.csv","","369","resources/trios/L1T4A1.jpg","39","restless",0.5,0.6,0.6,0.0478904737926326,"true"
"image-keyboard-response",378,339645,"0.0-3.122-1.122","sf4fy4760pt2965","7.csv","","null","resources/maskTrios/BBA1.jpg","null","",NA,NA,NA,NA,""
"image-keyboard-response",379,340848,"0.0-3.122-2.122","sf4fy4760pt2965","7.csv","","null","resources/images/coin2.png","null","",NA,NA,NA,NA,""
"image-keyboard-response",380,341262,"0.0-3.123-0.123","sf4fy4760pt2965","7.csv","","411","resources/trios/L2T4A1.jpg","39","restless",0.5,0.6,0.6,0.464045436280655,"true"
"image-keyboard-response",381,341665,"0.0-3.123-1.123","sf4fy4760pt2965","7.csv","","null","resources/maskTrios/BBA1.jpg","null","",NA,NA,NA,NA,""
"image-keyboard-response",382,342868,"0.0-3.123-2.123","sf4fy4760pt2965","7.csv","","null","resources/images/coin2.png","null","",NA,NA,NA,NA,""
"image-keyboard-response",383,343235,"0.0-3.124-0.124","sf4fy4760pt2965","7.csv","","366","resources/trios/L2T4A2.jpg","39","restless",0.5,0.6,0.6,0.592090693802042,"true"
"image-keyboard-response",384,343639,"0.0-3.124-1.124","sf4fy4760pt2965","7.csv","","null","resources/maskTrios/BBA2.jpg","null","",NA,NA,NA,NA,""
"image-keyboard-response",385,344844,"0.0-3.124-2.124","sf4fy4760pt2965","7.csv","","null","resources/images/coin2.png","null","",NA,NA,NA,NA,""
"image-keyboard-response",386,345232,"0.0-3.125-0.125","sf4fy4760pt2965","7.csv","","385","resources/trios/L2T4A2.jpg","39","restless",0.6,0.6,0.6,0.0190468656077791,"true"
"image-keyboard-response",387,345635,"0.0-3.125-1.125","sf4fy4760pt2965","7.csv","","null","resources/maskTrios/BBA2.jpg","null","",NA,NA,NA,NA,""
"image-keyboard-response",388,346839,"0.0-3.125-2.125","sf4fy4760pt2965","7.csv","","null","resources/images/coin2.png","null","",NA,NA,NA,NA,""
"image-keyboard-response",389,347194,"0.0-3.126-0.126","sf4fy4760pt2965","7.csv","","354.0000000000582","resources/trios/L1T2A2.jpg","39","restless",0.6,0.6,0.6,0.854598559262302,"false"
"image-keyboard-response",390,347600,"0.0-3.126-1.126","sf4fy4760pt2965","7.csv","","null","resources/maskTrios/BBA2.jpg","null","",NA,NA,NA,NA,""
"image-keyboard-response",391,348803,"0.0-3.126-2.126","sf4fy4760pt2965","7.csv","","null","resources/images/fishbone.png","null","",NA,NA,NA,NA,""
"image-keyboard-response",392,349189,"0.0-3.127-0.127","sf4fy4760pt2965","7.csv","","383","resources/trios/L2T4A1.jpg","39","restless",0.6,0.6,0.6,0.826081791883434,"false"
"image-keyboard-response",393,349592,"0.0-3.127-1.127","sf4fy4760pt2965","7.csv","","null","resources/maskTrios/BBA1.jpg","null","",NA,NA,NA,NA,""
"image-keyboard-response",394,350795,"0.0-3.127-2.127","sf4fy4760pt2965","7.csv","","null","resources/images/fishbone.png","null","",NA,NA,NA,NA,""
"image-keyboard-response",395,351160,"0.0-3.128-0.128","sf4fy4760pt2965","7.csv","","363","resources/trios/L1T2A2.jpg","39","restless",0.6,0.6,0.6,0.991818768518517,"false"
"image-keyboard-response",396,351563,"0.0-3.128-1.128","sf4fy4760pt2965","7.csv","","null","resources/maskTrios/BBA2.jpg","null","",NA,NA,NA,NA,""
"image-keyboard-response",397,352766,"0.0-3.128-2.128","sf4fy4760pt2965","7.csv","","null","resources/images/fishbone.png","null","",NA,NA,NA,NA,""
"image-keyboard-response",398,353243,"0.0-3.129-0.129","sf4fy4760pt2965","7.csv","","475","resources/trios/L2T4A2.jpg","39","restless",0.7,0.6,0.6,0.195565465773226,"true"
"image-keyboard-response",399,353645,"0.0-3.129-1.129","sf4fy4760pt2965","7.csv","","null","resources/maskTrios/BBA2.jpg","null","",NA,NA,NA,NA,""
"image-keyboard-response",400,354848,"0.0-3.129-2.129","sf4fy4760pt2965","7.csv","","null","resources/images/coin2.png","null","",NA,NA,NA,NA,""
"image-keyboard-response",401,355242,"0.0-3.130-0.130","sf4fy4760pt2965","7.csv","","391","resources/trios/L2T2A1.jpg","39","restless",0.7,0.6,0.6,0.570401394444637,"true"
"image-keyboard-response",402,355645,"0.0-3.130-1.130","sf4fy4760pt2965","7.csv","","null","resources/maskTrios/BBA1.jpg","null","",NA,NA,NA,NA,""
"image-keyboard-response",403,356850,"0.0-3.130-2.130","sf4fy4760pt2965","7.csv","","null","resources/images/coin2.png","null","",NA,NA,NA,NA,""
"image-keyboard-response",404,357202,"0.0-3.131-0.131","sf4fy4760pt2965","7.csv","","350","resources/trios/L1T2A2.jpg","39","restless",0.7,0.7,0.5,0.901239066400138,"false"
"image-keyboard-response",405,357606,"0.0-3.131-1.131","sf4fy4760pt2965","7.csv","","null","resources/maskTrios/BBA2.jpg","null","",NA,NA,NA,NA,""
"image-keyboard-response",406,358809,"0.0-3.131-2.131","sf4fy4760pt2965","7.csv","","null","resources/images/fishbone.png","null","",NA,NA,NA,NA,""
"image-keyboard-response",407,359176,"0.0-3.132-0.132","sf4fy4760pt2965","7.csv","","365","resources/trios/L2T4A2.jpg","39","restless",0.7,0.7,0.5,0.671124864647343,"false"
"image-keyboard-response",408,359580,"0.0-3.132-1.132","sf4fy4760pt2965","7.csv","","null","resources/maskTrios/BBA2.jpg","null","",NA,NA,NA,NA,""
"image-keyboard-response",409,360782,"0.0-3.132-2.132","sf4fy4760pt2965","7.csv","","null","resources/images/fishbone.png","null","",NA,NA,NA,NA,""
"image-keyboard-response",410,361161,"0.0-3.133-0.133","sf4fy4760pt2965","7.csv","","375","resources/trios/L1T4A2.jpg","39","restless",0.7,0.7,0.5,0.193096222695603,"true"
"image-keyboard-response",411,361564,"0.0-3.133-1.133","sf4fy4760pt2965","7.csv","","null","resources/maskTrios/BBA2.jpg","null","",NA,NA,NA,NA,""
"image-keyboard-response",412,362767,"0.0-3.133-2.133","sf4fy4760pt2965","7.csv","","null","resources/images/coin2.png","null","",NA,NA,NA,NA,""
"image-keyboard-response",413,363157,"0.0-3.134-0.134","sf4fy4760pt2965","7.csv","","388","resources/trios/L1T4A1.jpg","39","restless",0.7,0.7,0.5,0.88248673549298,"false"
"image-keyboard-response",414,363563,"0.0-3.134-1.134","sf4fy4760pt2965","7.csv","","null","resources/maskTrios/BBA1.jpg","null","",NA,NA,NA,NA,""
"image-keyboard-response",415,364766,"0.0-3.134-2.134","sf4fy4760pt2965","7.csv","","null","resources/images/fishbone.png","null","",NA,NA,NA,NA,""
"image-keyboard-response",416,365034,"0.0-3.135-0.135","sf4fy4760pt2965","7.csv","","265","resources/trios/L1T2A1.jpg","39","restless",0.7,0.7,0.5,0.197555518410291,"true"
"image-keyboard-response",417,365437,"0.0-3.135-1.135","sf4fy4760pt2965","7.csv","","null","resources/maskTrios/BBA1.jpg","null","",NA,NA,NA,NA,""
"image-keyboard-response",418,366641,"0.0-3.135-2.135","sf4fy4760pt2965","7.csv","","null","resources/images/coin2.png","null","",NA,NA,NA,NA,""
"image-keyboard-response",419,366952,"0.0-3.136-0.136","sf4fy4760pt2965","7.csv","","308.0000000000582","resources/trios/L1T4A2.jpg","39","restless",0.8,0.7,0.5,0.0181916185224154,"true"
"image-keyboard-response",420,367355,"0.0-3.136-1.136","sf4fy4760pt2965","7.csv","","null","resources/maskTrios/BBA2.jpg","null","",NA,NA,NA,NA,""
"image-keyboard-response",421,368558,"0.0-3.136-2.136","sf4fy4760pt2965","7.csv","","null","resources/images/coin2.png","null","",NA,NA,NA,NA,""
"image-keyboard-response",422,368803,"0.0-3.137-0.137","sf4fy4760pt2965","7.csv","","242","resources/trios/L2T4A2.jpg","39","restless",0.8,0.7,0.5,0.422010037210172,"true"
"image-keyboard-response",423,369206,"0.0-3.137-1.137","sf4fy4760pt2965","7.csv","","null","resources/maskTrios/BBA2.jpg","null","",NA,NA,NA,NA,""
"image-keyboard-response",424,370410,"0.0-3.137-2.137","sf4fy4760pt2965","7.csv","","null","resources/images/coin2.png","null","",NA,NA,NA,NA,""
"image-keyboard-response",425,370740,"0.0-3.138-0.138","sf4fy4760pt2965","7.csv","","326","resources/trios/L2T2A2.jpg","39","restless",0.8,0.7,0.5,0.979417315819505,"false"
"image-keyboard-response",426,371144,"0.0-3.138-1.138","sf4fy4760pt2965","7.csv","","null","resources/maskTrios/BBA2.jpg","null","",NA,NA,NA,NA,""
"image-keyboard-response",427,372346,"0.0-3.138-2.138","sf4fy4760pt2965","7.csv","","null","resources/images/fishbone.png","null","",NA,NA,NA,NA,""
"image-keyboard-response",428,372681,"0.0-3.139-0.139","sf4fy4760pt2965","7.csv","","329","resources/trios/L1T2A2.jpg","39","restless",0.8,0.8,0.5,0.0190889911564303,"true"
"image-keyboard-response",429,373084,"0.0-3.139-1.139","sf4fy4760pt2965","7.csv","","null","resources/maskTrios/BBA2.jpg","null","",NA,NA,NA,NA,""
"image-keyboard-response",430,374287,"0.0-3.139-2.139","sf4fy4760pt2965","7.csv","","null","resources/images/coin2.png","null","",NA,NA,NA,NA,""
"image-keyboard-response",431,374388,"0.0-3.140-0.140","sf4fy4760pt2965","7.csv","","97.99999999994179","resources/trios/L1T4A2.jpg","39","restless",0.8,0.8,0.5,0.889904255391808,"false"
"image-keyboard-response",432,374791,"0.0-3.140-1.140","sf4fy4760pt2965","7.csv","","null","resources/maskTrios/BBA2.jpg","null","",NA,NA,NA,NA,""
"image-keyboard-response",433,375993,"0.0-3.140-2.140","sf4fy4760pt2965","7.csv","","null","resources/images/fishbone.png","null","",NA,NA,NA,NA,""
"image-keyboard-response",434,376325,"0.0-3.141-0.141","sf4fy4760pt2965","7.csv","","331.0000000000582","resources/trios/L2T2A1.jpg","39","restless",0.8,0.8,0.5,0.0635658997996665,"true"
"image-keyboard-response",435,376728,"0.0-3.141-1.141","sf4fy4760pt2965","7.csv","","null","resources/maskTrios/BBA1.jpg","null","",NA,NA,NA,NA,""
"image-keyboard-response",436,377931,"0.0-3.141-2.141","sf4fy4760pt2965","7.csv","","null","resources/images/coin2.png","null","",NA,NA,NA,NA,""
"image-keyboard-response",437,378315,"0.0-3.142-0.142","sf4fy4760pt2965","7.csv","","382","resources/trios/L2T2A2.jpg","39","restless",0.7,0.8,0.5,0.181730182539765,"true"
"image-keyboard-response",438,378720,"0.0-3.142-1.142","sf4fy4760pt2965","7.csv","","null","resources/maskTrios/BBA2.jpg","null","",NA,NA,NA,NA,""
"image-keyboard-response",439,379923,"0.0-3.142-2.142","sf4fy4760pt2965","7.csv","","null","resources/images/coin2.png","null","",NA,NA,NA,NA,""
"image-keyboard-response",440,380353,"0.0-3.143-0.143","sf4fy4760pt2965","7.csv","","427","resources/trios/L1T4A1.jpg","39","restless",0.7,0.8,0.5,0.883156582523118,"false"
"image-keyboard-response",441,380756,"0.0-3.143-1.143","sf4fy4760pt2965","7.csv","","null","resources/maskTrios/BBA1.jpg","null","",NA,NA,NA,NA,""
"image-keyboard-response",442,381958,"0.0-3.143-2.143","sf4fy4760pt2965","7.csv","","null","resources/images/fishbone.png","null","",NA,NA,NA,NA,""
"image-keyboard-response",443,382244,"0.0-3.144-0.144","sf4fy4760pt2965","7.csv","","283","resources/trios/L1T4A2.jpg","39","restless",0.7,0.8,0.5,0.0506120515542997,"true"
"image-keyboard-response",444,382647,"0.0-3.144-1.144","sf4fy4760pt2965","7.csv","","null","resources/maskTrios/BBA2.jpg","null","",NA,NA,NA,NA,""
"image-keyboard-response",445,383850,"0.0-3.144-2.144","sf4fy4760pt2965","7.csv","","null","resources/images/coin2.png","null","",NA,NA,NA,NA,""
"image-keyboard-response",446,384039,"0.0-3.145-0.145","sf4fy4760pt2965","7.csv","","186","resources/trios/L2T2A1.jpg","39","restless",0.7,0.8,0.5,0.775852244272655,"false"
"image-keyboard-response",447,384441,"0.0-3.145-1.145","sf4fy4760pt2965","7.csv","","null","resources/maskTrios/BBA1.jpg","null","",NA,NA,NA,NA,""
"image-keyboard-response",448,385643,"0.0-3.145-2.145","sf4fy4760pt2965","7.csv","","null","resources/images/fishbone.png","null","",NA,NA,NA,NA,""
"image-keyboard-response",449,385838,"0.0-3.146-0.146","sf4fy4760pt2965","7.csv","","192.0000000000582","resources/trios/L2T2A2.jpg","39","restless",0.7,0.9,0.5,0.605406845925087,"false"
"image-keyboard-response",450,386241,"0.0-3.146-1.146","sf4fy4760pt2965","7.csv","","null","resources/maskTrios/BBA2.jpg","null","",NA,NA,NA,NA,""
"image-keyboard-response",451,387444,"0.0-3.146-2.146","sf4fy4760pt2965","7.csv","","null","resources/images/fishbone.png","null","",NA,NA,NA,NA,""
"image-keyboard-response",452,387458,"0.0-3.147-0.147","sf4fy4760pt2965","7.csv","","13","resources/trios/L2T4A2.jpg","39","restless",0.7,0.9,0.5,0.965912689043592,"false"
"image-keyboard-response",453,387861,"0.0-3.147-1.147","sf4fy4760pt2965","7.csv","","null","resources/maskTrios/BBA2.jpg","null","",NA,NA,NA,NA,""
"image-keyboard-response",454,389064,"0.0-3.147-2.147","sf4fy4760pt2965","7.csv","","null","resources/images/fishbone.png","null","",NA,NA,NA,NA,""
"image-keyboard-response",455,389434,"0.0-3.148-0.148","sf4fy4760pt2965","7.csv","","368","resources/trios/L2T2A2.jpg","39","restless",0.7,0.9,0.5,0.407268458845901,"true"
"image-keyboard-response",456,389837,"0.0-3.148-1.148","sf4fy4760pt2965","7.csv","","null","resources/maskTrios/BBA2.jpg","null","",NA,NA,NA,NA,""
"image-keyboard-response",457,391040,"0.0-3.148-2.148","sf4fy4760pt2965","7.csv","","null","resources/images/coin2.png","null","",NA,NA,NA,NA,""
"image-keyboard-response",458,391542,"0.0-3.149-0.149","sf4fy4760pt2965","7.csv","","496.9999999999418","resources/trios/L1T2A1.jpg","39","restless",0.7,0.9,0.5,0.0765998076404801,"true"
"image-keyboard-response",459,391945,"0.0-3.149-1.149","sf4fy4760pt2965","7.csv","","null","resources/maskTrios/BBA1.jpg","null","",NA,NA,NA,NA,""
"image-keyboard-response",460,393149,"0.0-3.149-2.149","sf4fy4760pt2965","7.csv","","null","resources/images/coin2.png","null","",NA,NA,NA,NA,""
"image-keyboard-response",461,393286,"0.0-3.150-0.150","sf4fy4760pt2965","7.csv","","135","resources/trios/L2T4A1.jpg","39","restless",0.7,0.9,0.5,0.905186453233925,"false"
"image-keyboard-response",462,393689,"0.0-3.150-1.150","sf4fy4760pt2965","7.csv","","null","resources/maskTrios/BBA1.jpg","null","",NA,NA,NA,NA,""
"image-keyboard-response",463,394892,"0.0-3.150-2.150","sf4fy4760pt2965","7.csv","","null","resources/images/fishbone.png","null","",NA,NA,NA,NA,""
"image-keyboard-response",464,395250,"0.0-3.151-0.151","sf4fy4760pt2965","7.csv","","355","resources/trios/L1T4A2.jpg","39","restless",0.7,0.9,0.5,0.809742879434439,"false"
"image-keyboard-response",465,395654,"0.0-3.151-1.151","sf4fy4760pt2965","7.csv","","null","resources/maskTrios/BBA2.jpg","null","",NA,NA,NA,NA,""
"image-keyboard-response",466,396857,"0.0-3.151-2.151","sf4fy4760pt2965","7.csv","","null","resources/images/fishbone.png","null","",NA,NA,NA,NA,""
"image-keyboard-response",467,397367,"0.0-3.152-0.152","sf4fy4760pt2965","7.csv","","507.0000000000582","resources/trios/L2T2A1.jpg","39","restless",0.7,0.9,0.5,0.824784401373828,"false"
"image-keyboard-response",468,397770,"0.0-3.152-1.152","sf4fy4760pt2965","7.csv","","null","resources/maskTrios/BBA1.jpg","null","",NA,NA,NA,NA,""
"image-keyboard-response",469,398973,"0.0-3.152-2.152","sf4fy4760pt2965","7.csv","","null","resources/images/fishbone.png","null","",NA,NA,NA,NA,""
"image-keyboard-response",470,398998,"0.0-3.153-0.153","sf4fy4760pt2965","7.csv","","23","resources/trios/L2T2A1.jpg","39","restless",0.7,0.9,0.5,0.839006510871142,"false"
"image-keyboard-response",471,399401,"0.0-3.153-1.153","sf4fy4760pt2965","7.csv","","null","resources/maskTrios/BBA1.jpg","null","",NA,NA,NA,NA,""
"image-keyboard-response",472,400602,"0.0-3.153-2.153","sf4fy4760pt2965","7.csv","","null","resources/images/fishbone.png","null","",NA,NA,NA,NA,""
"image-keyboard-response",473,400814,"0.0-3.154-0.154","sf4fy4760pt2965","7.csv","","206.0000000000582","resources/trios/L1T2A1.jpg","39","restless",0.7,0.9,0.5,0.0892756622347527,"true"
"image-keyboard-response",474,401217,"0.0-3.154-1.154","sf4fy4760pt2965","7.csv","","null","resources/maskTrios/BBA1.jpg","null","",NA,NA,NA,NA,""
"image-keyboard-response",475,402419,"0.0-3.154-2.154","sf4fy4760pt2965","7.csv","","null","resources/images/coin2.png","null","",NA,NA,NA,NA,""
"image-keyboard-response",476,402668,"0.0-3.155-0.155","sf4fy4760pt2965","7.csv","","247","resources/trios/L1T2A1.jpg","39","restless",0.7,0.9,0.6,0.635382119722913,"false"
"image-keyboard-response",477,403071,"0.0-3.155-1.155","sf4fy4760pt2965","7.csv","","null","resources/maskTrios/BBA1.jpg","null","",NA,NA,NA,NA,""
"image-keyboard-response",478,404274,"0.0-3.155-2.155","sf4fy4760pt2965","7.csv","","null","resources/images/fishbone.png","null","",NA,NA,NA,NA,""
"image-keyboard-response",479,404326,"0.0-3.156-0.156","sf4fy4760pt2965","7.csv","","49.00000000005821","resources/trios/L2T4A2.jpg","39","restless",0.6,0.9,0.5,0.616506730064697,"false"
"image-keyboard-response",480,404729,"0.0-3.156-1.156","sf4fy4760pt2965","7.csv","","null","resources/maskTrios/BBA2.jpg","null","",NA,NA,NA,NA,""
"image-keyboard-response",481,405931,"0.0-3.156-2.156","sf4fy4760pt2965","7.csv","","null","resources/images/fishbone.png","null","",NA,NA,NA,NA,""
"image-keyboard-response",482,407692,"0.0-3.157-0.157","sf4fy4760pt2965","7.csv","","1759","resources/trios/L1T4A1.jpg","39","restless",0.6,0.9,0.5,0.184906606968042,"true"
"image-keyboard-response",483,408095,"0.0-3.157-1.157","sf4fy4760pt2965","7.csv","","null","resources/maskTrios/BBA1.jpg","null","",NA,NA,NA,NA,""
"image-keyboard-response",484,409298,"0.0-3.157-2.157","sf4fy4760pt2965","7.csv","","null","resources/images/coin2.png","null","",NA,NA,NA,NA,""
"image-keyboard-response",485,409653,"0.0-3.158-0.158","sf4fy4760pt2965","7.csv","","351","resources/trios/L2T4A2.jpg","39","restless",0.6,0.9,0.5,0.967976432353573,"false"
"image-keyboard-response",486,410057,"0.0-3.158-1.158","sf4fy4760pt2965","7.csv","","null","resources/maskTrios/BBA2.jpg","null","",NA,NA,NA,NA,""
"image-keyboard-response",487,411260,"0.0-3.158-2.158","sf4fy4760pt2965","7.csv","","null","resources/images/fishbone.png","null","",NA,NA,NA,NA,""
"image-keyboard-response",488,411620,"0.0-3.159-0.159","sf4fy4760pt2965","7.csv","","357","resources/trios/L2T2A1.jpg","39","restless",0.6,0.9,0.5,0.430480527601446,"true"
"image-keyboard-response",489,412024,"0.0-3.159-1.159","sf4fy4760pt2965","7.csv","","null","resources/maskTrios/BBA1.jpg","null","",NA,NA,NA,NA,""
"image-keyboard-response",490,413227,"0.0-3.159-2.159","sf4fy4760pt2965","7.csv","","null","resources/images/coin2.png","null","",NA,NA,NA,NA,""
"image-keyboard-response",491,413551,"0.0-3.160-0.160","sf4fy4760pt2965","7.csv","","322","resources/trios/L1T4A1.jpg","39","restless",0.6,0.9,0.5,0.118839746418207,"true"
"image-keyboard-response",492,413955,"0.0-3.160-1.160","sf4fy4760pt2965","7.csv","","null","resources/maskTrios/BBA1.jpg","null","",NA,NA,NA,NA,""
"image-keyboard-response",493,415158,"0.0-3.160-2.160","sf4fy4760pt2965","7.csv","","null","resources/images/coin2.png","null","",NA,NA,NA,NA,""
"image-keyboard-response",494,415526,"0.0-3.161-0.161","sf4fy4760pt2965","7.csv","","366","resources/trios/L2T4A1.jpg","39","restless",0.5,0.8,0.5,0.908675114577806,"false"
"image-keyboard-response",495,415930,"0.0-3.161-1.161","sf4fy4760pt2965","7.csv","","null","resources/maskTrios/BBA1.jpg","null","",NA,NA,NA,NA,""
"image-keyboard-response",496,417135,"0.0-3.161-2.161","sf4fy4760pt2965","7.csv","","null","resources/images/fishbone.png","null","",NA,NA,NA,NA,""
"image-keyboard-response",497,417585,"0.0-3.162-0.162","sf4fy4760pt2965","7.csv","","447","resources/trios/L1T2A2.jpg","39","restless",0.5,0.8,0.5,0.525604590996029,"false"
"image-keyboard-response",498,417988,"0.0-3.162-1.162","sf4fy4760pt2965","7.csv","","null","resources/maskTrios/BBA2.jpg","null","",NA,NA,NA,NA,""
"image-keyboard-response",499,419191,"0.0-3.162-2.162","sf4fy4760pt2965","7.csv","","null","resources/images/fishbone.png","null","",NA,NA,NA,NA,""
"image-keyboard-response",500,419569,"0.0-3.163-0.163","sf4fy4760pt2965","7.csv","","375.9999999999418","resources/trios/L1T4A1.jpg","39","restless",0.5,0.8,0.5,0.931846809598515,"false"
"image-keyboard-response",501,419972,"0.0-3.163-1.163","sf4fy4760pt2965","7.csv","","null","resources/maskTrios/BBA1.jpg","null","",NA,NA,NA,NA,""
"image-keyboard-response",502,421176,"0.0-3.163-2.163","sf4fy4760pt2965","7.csv","","null","resources/images/fishbone.png","null","",NA,NA,NA,NA,""
"image-keyboard-response",503,421528,"0.0-3.164-0.164","sf4fy4760pt2965","7.csv","","349.0000000000582","resources/trios/L2T4A2.jpg","39","restless",0.4,0.8,0.5,0.373182149824305,"true"
"image-keyboard-response",504,421931,"0.0-3.164-1.164","sf4fy4760pt2965","7.csv","","null","resources/maskTrios/BBA2.jpg","null","",NA,NA,NA,NA,""
"image-keyboard-response",505,423134,"0.0-3.164-2.164","sf4fy4760pt2965","7.csv","","null","resources/images/coin2.png","null","",NA,NA,NA,NA,""
"image-keyboard-response",506,423592,"0.0-3.165-0.165","sf4fy4760pt2965","7.csv","","455.0000000000582","resources/trios/L2T2A2.jpg","39","restless",0.4,0.8,0.4,0.685399161211066,"false"
"image-keyboard-response",507,423996,"0.0-3.165-1.165","sf4fy4760pt2965","7.csv","","null","resources/maskTrios/BBA2.jpg","null","",NA,NA,NA,NA,""
"image-keyboard-response",508,425199,"0.0-3.165-2.165","sf4fy4760pt2965","7.csv","","null","resources/images/fishbone.png","null","",NA,NA,NA,NA,""
"image-keyboard-response",509,425552,"0.0-3.166-0.166","sf4fy4760pt2965","7.csv","","350","resources/trios/L2T2A2.jpg","39","restless",0.4,0.8,0.4,0.355460194699867,"true"
"image-keyboard-response",510,425955,"0.0-3.166-1.166","sf4fy4760pt2965","7.csv","","null","resources/maskTrios/BBA2.jpg","null","",NA,NA,NA,NA,""
"image-keyboard-response",511,427158,"0.0-3.166-2.166","sf4fy4760pt2965","7.csv","","null","resources/images/coin2.png","null","",NA,NA,NA,NA,""
"image-keyboard-response",512,427412,"0.0-3.167-0.167","sf4fy4760pt2965","7.csv","","251","resources/trios/L2T2A1.jpg","39","restless",0.4,0.8,0.4,0.799213817362858,"false"
"image-keyboard-response",513,427817,"0.0-3.167-1.167","sf4fy4760pt2965","7.csv","","null","resources/maskTrios/BBA1.jpg","null","",NA,NA,NA,NA,""
"image-keyboard-response",514,429020,"0.0-3.167-2.167","sf4fy4760pt2965","7.csv","","null","resources/images/fishbone.png","null","",NA,NA,NA,NA,""
"image-keyboard-response",515,429181,"0.0-3.168-0.168","sf4fy4760pt2965","7.csv","","158.0000000000582","resources/trios/L2T2A2.jpg","39","restless",0.4,0.8,0.4,0.464065656348463,"false"
"image-keyboard-response",516,429584,"0.0-3.168-1.168","sf4fy4760pt2965","7.csv","","null","resources/maskTrios/BBA2.jpg","null","",NA,NA,NA,NA,""
"image-keyboard-response",517,430787,"0.0-3.168-2.168","sf4fy4760pt2965","7.csv","","null","resources/images/fishbone.png","null","",NA,NA,NA,NA,""
"image-keyboard-response",518,431126,"0.0-3.169-0.169","sf4fy4760pt2965","7.csv","","336","resources/trios/L2T2A2.jpg","39","restless",0.4,0.8,0.4,0.282499835867368,"true"
"image-keyboard-response",519,431529,"0.0-3.169-1.169","sf4fy4760pt2965","7.csv","","null","resources/maskTrios/BBA2.jpg","null","",NA,NA,NA,NA,""
"image-keyboard-response",520,432736,"0.0-3.169-2.169","sf4fy4760pt2965","7.csv","","null","resources/images/coin2.png","null","",NA,NA,NA,NA,""
"image-keyboard-response",521,433054,"0.0-3.170-0.170","sf4fy4760pt2965","7.csv","","315","resources/trios/L1T4A2.jpg","39","restless",0.4,0.8,0.4,0.876651049528945,"false"
"image-keyboard-response",522,433458,"0.0-3.170-1.170","sf4fy4760pt2965","7.csv","","null","resources/maskTrios/BBA2.jpg","null","",NA,NA,NA,NA,""
"image-keyboard-response",523,434661,"0.0-3.170-2.170","sf4fy4760pt2965","7.csv","","null","resources/images/fishbone.png","null","",NA,NA,NA,NA,""
"image-keyboard-response",524,434959,"0.0-3.171-0.171","sf4fy4760pt2965","7.csv","","294.9999999999418","resources/trios/L1T2A1.jpg","39","restless",0.4,0.8,0.4,0.36617760485699,"true"
"image-keyboard-response",525,435363,"0.0-3.171-1.171","sf4fy4760pt2965","7.csv","","null","resources/maskTrios/BBA1.jpg","null","",NA,NA,NA,NA,""
"image-keyboard-response",526,436566,"0.0-3.171-2.171","sf4fy4760pt2965","7.csv","","null","resources/images/coin2.png","null","",NA,NA,NA,NA,""
"image-keyboard-response",527,436807,"0.0-3.172-0.172","sf4fy4760pt2965","7.csv","","237","resources/trios/L2T2A2.jpg","39","restless",0.4,0.8,0.4,0.831686518608434,"false"
"image-keyboard-response",528,437210,"0.0-3.172-1.172","sf4fy4760pt2965","7.csv","","null","resources/maskTrios/BBA2.jpg","null","",NA,NA,NA,NA,""
"image-keyboard-response",529,438413,"0.0-3.172-2.172","sf4fy4760pt2965","7.csv","","null","resources/images/fishbone.png","null","",NA,NA,NA,NA,""
"image-keyboard-response",530,438606,"0.0-3.173-0.173","sf4fy4760pt2965","7.csv","","191","resources/trios/L2T2A2.jpg","39","restless",0.4,0.8,0.4,0.53523162890863,"false"
"image-keyboard-response",531,439009,"0.0-3.173-1.173","sf4fy4760pt2965","7.csv","","null","resources/maskTrios/BBA2.jpg","null","",NA,NA,NA,NA,""
"image-keyboard-response",532,440212,"0.0-3.173-2.173","sf4fy4760pt2965","7.csv","","null","resources/images/fishbone.png","null","",NA,NA,NA,NA,""
"image-keyboard-response",533,440561,"0.0-3.174-0.174","sf4fy4760pt2965","7.csv","","346","resources/trios/L2T4A2.jpg","39","restless",0.4,0.8,0.4,0.0269093218246051,"true"
"image-keyboard-response",534,440964,"0.0-3.174-1.174","sf4fy4760pt2965","7.csv","","null","resources/maskTrios/BBA2.jpg","null","",NA,NA,NA,NA,""
"image-keyboard-response",535,442167,"0.0-3.174-2.174","sf4fy4760pt2965","7.csv","","null","resources/images/coin2.png","null","",NA,NA,NA,NA,""
"image-keyboard-response",536,442485,"0.0-3.175-0.175","sf4fy4760pt2965","7.csv","","315","resources/trios/L1T2A2.jpg","39","restless",0.3,0.8,0.4,0.883117853929305,"false"
"image-keyboard-response",537,442888,"0.0-3.175-1.175","sf4fy4760pt2965","7.csv","","null","resources/maskTrios/BBA2.jpg","null","",NA,NA,NA,NA,""
"image-keyboard-response",538,444091,"0.0-3.175-2.175","sf4fy4760pt2965","7.csv","","null","resources/images/fishbone.png","null","",NA,NA,NA,NA,""
"image-keyboard-response",539,444423,"0.0-3.176-0.176","sf4fy4760pt2965","7.csv","","327","resources/trios/L1T2A2.jpg","39","restless",0.3,0.8,0.4,0.717813872303505,"false"
"image-keyboard-response",540,444827,"0.0-3.176-1.176","sf4fy4760pt2965","7.csv","","null","resources/maskTrios/BBA2.jpg","null","",NA,NA,NA,NA,""
"image-keyboard-response",541,446030,"0.0-3.176-2.176","sf4fy4760pt2965","7.csv","","null","resources/images/fishbone.png","null","",NA,NA,NA,NA,""
"image-keyboard-response",542,446343,"0.0-3.177-0.177","sf4fy4760pt2965","7.csv","","311","resources/trios/L1T2A1.jpg","39","restless",0.3,0.8,0.4,0.653076149670532,"false"
"image-keyboard-response",543,446747,"0.0-3.177-1.177","sf4fy4760pt2965","7.csv","","null","resources/maskTrios/BBA1.jpg","null","",NA,NA,NA,NA,""
"image-keyboard-response",544,447950,"0.0-3.177-2.177","sf4fy4760pt2965","7.csv","","null","resources/images/fishbone.png","null","",NA,NA,NA,NA,""
"image-keyboard-response",545,448289,"0.0-3.178-0.178","sf4fy4760pt2965","7.csv","","338","resources/trios/L2T4A1.jpg","39","restless",0.3,0.8,0.4,0.621609059499462,"false"
"image-keyboard-response",546,448693,"0.0-3.178-1.178","sf4fy4760pt2965","7.csv","","null","resources/maskTrios/BBA1.jpg","null","",NA,NA,NA,NA,""
"image-keyboard-response",547,449896,"0.0-3.178-2.178","sf4fy4760pt2965","7.csv","","null","resources/images/fishbone.png","null","",NA,NA,NA,NA,""
"image-keyboard-response",548,450227,"0.0-3.179-0.179","sf4fy4760pt2965","7.csv","","328","resources/trios/L2T2A1.jpg","39","restless",0.3,0.8,0.5,0.362577301645247,"true"
"image-keyboard-response",549,450630,"0.0-3.179-1.179","sf4fy4760pt2965","7.csv","","null","resources/maskTrios/BBA1.jpg","null","",NA,NA,NA,NA,""
"image-keyboard-response",550,451833,"0.0-3.179-2.179","sf4fy4760pt2965","7.csv","","null","resources/images/coin2.png","null","",NA,NA,NA,NA,""
"image-keyboard-response",551,452198,"0.0-3.180-0.180","sf4fy4760pt2965","7.csv","","363","resources/trios/L1T4A1.jpg","39","restless",0.3,0.8,0.6,0.848646474270903,"false"
"image-keyboard-response",552,452601,"0.0-3.180-1.180","sf4fy4760pt2965","7.csv","","null","resources/maskTrios/BBA1.jpg","null","",NA,NA,NA,NA,""
"image-keyboard-response",553,453804,"0.0-3.180-2.180","sf4fy4760pt2965","7.csv","","null","resources/images/fishbone.png","null","",NA,NA,NA,NA,""
"image-keyboard-response",554,453991,"0.0-3.181-0.181","sf4fy4760pt2965","7.csv","","185","resources/trios/L1T4A1.jpg","39","restless",0.3,0.8,0.6,0.836179896066835,"false"
"image-keyboard-response",555,454394,"0.0-3.181-1.181","sf4fy4760pt2965","7.csv","","null","resources/maskTrios/BBA1.jpg","null","",NA,NA,NA,NA,""
"image-keyboard-response",556,455597,"0.0-3.181-2.181","sf4fy4760pt2965","7.csv","","null","resources/images/fishbone.png","null","",NA,NA,NA,NA,""
"image-keyboard-response",557,455966,"0.0-3.182-0.182","sf4fy4760pt2965","7.csv","","367.0000000000582","resources/trios/L2T2A1.jpg","39","restless",0.3,0.8,0.6,0.597643193308816,"true"
"image-keyboard-response",558,456370,"0.0-3.182-1.182","sf4fy4760pt2965","7.csv","","null","resources/maskTrios/BBA1.jpg","null","",NA,NA,NA,NA,""
"image-keyboard-response",559,457573,"0.0-3.182-2.182","sf4fy4760pt2965","7.csv","","null","resources/images/coin2.png","null","",NA,NA,NA,NA,""
"image-keyboard-response",560,457926,"0.0-3.183-0.183","sf4fy4760pt2965","7.csv","","349","resources/trios/L2T2A2.jpg","39","restless",0.3,0.8,0.6,0.232944629871056,"true"
"image-keyboard-response",561,458330,"0.0-3.183-1.183","sf4fy4760pt2965","7.csv","","null","resources/maskTrios/BBA2.jpg","null","",NA,NA,NA,NA,""
"image-keyboard-response",562,459533,"0.0-3.183-2.183","sf4fy4760pt2965","7.csv","","null","resources/images/coin2.png","null","",NA,NA,NA,NA,""
"image-keyboard-response",563,459894,"0.0-3.184-0.184","sf4fy4760pt2965","7.csv","","359","resources/trios/L1T4A2.jpg","39","restless",0.4,0.8,0.6,0.697485040910413,"false"
"image-keyboard-response",564,460297,"0.0-3.184-1.184","sf4fy4760pt2965","7.csv","","null","resources/maskTrios/BBA2.jpg","null","",NA,NA,NA,NA,""
"image-keyboard-response",565,461500,"0.0-3.184-2.184","sf4fy4760pt2965","7.csv","","null","resources/images/fishbone.png","null","",NA,NA,NA,NA,""
"image-keyboard-response",566,461868,"0.0-3.185-0.185","sf4fy4760pt2965","7.csv","","365.9999999999418","resources/trios/L1T4A1.jpg","39","restless",0.4,0.8,0.6,0.287026414115206,"true"
"image-keyboard-response",567,462272,"0.0-3.185-1.185","sf4fy4760pt2965","7.csv","","null","resources/maskTrios/BBA1.jpg","null","",NA,NA,NA,NA,""
"image-keyboard-response",568,463475,"0.0-3.185-2.185","sf4fy4760pt2965","7.csv","","null","resources/images/coin2.png","null","",NA,NA,NA,NA,""
"image-keyboard-response",569,463801,"0.0-3.186-0.186","sf4fy4760pt2965","7.csv","","322","resources/trios/L2T4A1.jpg","39","restless",0.4,0.8,0.6,0.507757122788134,"true"
"image-keyboard-response",570,464204,"0.0-3.186-1.186","sf4fy4760pt2965","7.csv","","null","resources/maskTrios/BBA1.jpg","null","",NA,NA,NA,NA,""
"image-keyboard-response",571,465407,"0.0-3.186-2.186","sf4fy4760pt2965","7.csv","","null","resources/images/coin2.png","null","",NA,NA,NA,NA,""
"image-keyboard-response",572,465788,"0.0-3.187-0.187","sf4fy4760pt2965","7.csv","","378.0000000000582","resources/trios/L2T2A2.jpg","39","restless",0.4,0.8,0.6,0.528016614785124,"true"
"image-keyboard-response",573,466190,"0.0-3.187-1.187","sf4fy4760pt2965","7.csv","","null","resources/maskTrios/BBA2.jpg","null","",NA,NA,NA,NA,""
"image-keyboard-response",574,467392,"0.0-3.187-2.187","sf4fy4760pt2965","7.csv","","null","resources/images/coin2.png","null","",NA,NA,NA,NA,""
"image-keyboard-response",575,467795,"0.0-3.188-0.188","sf4fy4760pt2965","7.csv","","400","resources/trios/L2T2A2.jpg","39","restless",0.4,0.8,0.6,0.581685505896544,"true"
"image-keyboard-response",576,468199,"0.0-3.188-1.188","sf4fy4760pt2965","7.csv","","null","resources/maskTrios/BBA2.jpg","null","",NA,NA,NA,NA,""
"image-keyboard-response",577,469401,"0.0-3.188-2.188","sf4fy4760pt2965","7.csv","","null","resources/images/coin2.png","null","",NA,NA,NA,NA,""
"image-keyboard-response",578,469827,"0.0-3.189-0.189","sf4fy4760pt2965","7.csv","","424","resources/trios/L2T4A2.jpg","39","restless",0.5,0.8,0.6,0.892621299540838,"false"
"image-keyboard-response",579,470230,"0.0-3.189-1.189","sf4fy4760pt2965","7.csv","","null","resources/maskTrios/BBA2.jpg","null","",NA,NA,NA,NA,""
"image-keyboard-response",580,471433,"0.0-3.189-2.189","sf4fy4760pt2965","7.csv","","null","resources/images/fishbone.png","null","",NA,NA,NA,NA,""
"image-keyboard-response",581,471843,"0.0-3.190-0.190","sf4fy4760pt2965","7.csv","","405.9999999999418","resources/trios/L2T4A2.jpg","39","restless",0.5,0.8,0.6,0.79242599137409,"false"
"image-keyboard-response",582,472246,"0.0-3.190-1.190","sf4fy4760pt2965","7.csv","","null","resources/maskTrios/BBA2.jpg","null","",NA,NA,NA,NA,""
"image-keyboard-response",583,473449,"0.0-3.190-2.190","sf4fy4760pt2965","7.csv","","null","resources/images/fishbone.png","null","",NA,NA,NA,NA,""
"image-keyboard-response",584,473610,"0.0-3.191-0.191","sf4fy4760pt2965","7.csv","","158.0000000000582","resources/trios/L1T2A2.jpg","39","restless",0.5,0.7,0.6,0.250695533260772,"true"
"image-keyboard-response",585,474013,"0.0-3.191-1.191","sf4fy4760pt2965","7.csv","","null","resources/maskTrios/BBA2.jpg","null","",NA,NA,NA,NA,""
"image-keyboard-response",586,475217,"0.0-3.191-2.191","sf4fy4760pt2965","7.csv","","null","resources/images/coin2.png","null","",NA,NA,NA,NA,""
"image-keyboard-response",587,475606,"0.0-3.192-0.192","sf4fy4760pt2965","7.csv","","387","resources/trios/L2T4A2.jpg","39","restless",0.5,0.7,0.6,0.0270743135457508,"true"
"image-keyboard-response",588,476009,"0.0-3.192-1.192","sf4fy4760pt2965","7.csv","","null","resources/maskTrios/BBA2.jpg","null","",NA,NA,NA,NA,""
"image-keyboard-response",589,477211,"0.0-3.192-2.192","sf4fy4760pt2965","7.csv","","null","resources/images/coin2.png","null","",NA,NA,NA,NA,""
"image-keyboard-response",590,477583,"0.0-3.193-0.193","sf4fy4760pt2965","7.csv","","369","resources/trios/L1T4A1.jpg","39","restless",0.5,0.7,0.6,0.812217009144584,"false"
"image-keyboard-response",591,477985,"0.0-3.193-1.193","sf4fy4760pt2965","7.csv","","null","resources/maskTrios/BBA1.jpg","null","",NA,NA,NA,NA,""
"image-keyboard-response",592,479188,"0.0-3.193-2.193","sf4fy4760pt2965","7.csv","","null","resources/images/fishbone.png","null","",NA,NA,NA,NA,""
"image-keyboard-response",593,479448,"0.0-3.194-0.194","sf4fy4760pt2965","7.csv","","259.0000000000582","resources/trios/L2T2A2.jpg","39","restless",0.5,0.7,0.5,0.586530209598197,"false"
"image-keyboard-response",594,479852,"0.0-3.194-1.194","sf4fy4760pt2965","7.csv","","null","resources/maskTrios/BBA2.jpg","null","",NA,NA,NA,NA,""
"image-keyboard-response",595,481054,"0.0-3.194-2.194","sf4fy4760pt2965","7.csv","","null","resources/images/fishbone.png","null","",NA,NA,NA,NA,""
"image-keyboard-response",596,481336,"0.0-3.195-0.195","sf4fy4760pt2965","7.csv","","279.0000000000582","resources/trios/L1T2A1.jpg","39","restless",0.6,0.7,0.5,0.604422489063903,"false"
"image-keyboard-response",597,481741,"0.0-3.195-1.195","sf4fy4760pt2965","7.csv","","null","resources/maskTrios/BBA1.jpg","null","",NA,NA,NA,NA,""
"image-keyboard-response",598,482943,"0.0-3.195-2.195","sf4fy4760pt2965","7.csv","","null","resources/images/fishbone.png","null","",NA,NA,NA,NA,""
"image-keyboard-response",599,483289,"0.0-3.196-0.196","sf4fy4760pt2965","7.csv","","344","resources/trios/L2T4A1.jpg","39","restless",0.6,0.7,0.5,0.98448158406318,"false"
"image-keyboard-response",600,483692,"0.0-3.196-1.196","sf4fy4760pt2965","7.csv","","null","resources/maskTrios/BBA1.jpg","null","",NA,NA,NA,NA,""
"image-keyboard-response",601,484894,"0.0-3.196-2.196","sf4fy4760pt2965","7.csv","","null","resources/images/fishbone.png","null","",NA,NA,NA,NA,""
"image-keyboard-response",602,485202,"0.0-3.197-0.197","sf4fy4760pt2965","7.csv","","305","resources/trios/L2T2A1.jpg","39","restless",0.6,0.7,0.5,0.795067135580496,"false"
"image-keyboard-response",603,485605,"0.0-3.197-1.197","sf4fy4760pt2965","7.csv","","null","resources/maskTrios/BBA1.jpg","null","",NA,NA,NA,NA,""
"image-keyboard-response",604,486808,"0.0-3.197-2.197","sf4fy4760pt2965","7.csv","","null","resources/images/fishbone.png","null","",NA,NA,NA,NA,""
"image-keyboard-response",605,487087,"0.0-3.198-0.198","sf4fy4760pt2965","7.csv","","277","resources/trios/L1T2A1.jpg","39","restless",0.6,0.7,0.5,0.794019384019363,"false"
"image-keyboard-response",606,487490,"0.0-3.198-1.198","sf4fy4760pt2965","7.csv","","null","resources/maskTrios/BBA1.jpg","null","",NA,NA,NA,NA,""
"image-keyboard-response",607,488693,"0.0-3.198-2.198","sf4fy4760pt2965","7.csv","","null","resources/images/fishbone.png","null","",NA,NA,NA,NA,""
"image-keyboard-response",608,488825,"0.0-3.199-0.199","sf4fy4760pt2965","7.csv","","130","resources/trios/L1T4A1.jpg","39","restless",0.6,0.7,0.5,0.24561123792135,"true"
"image-keyboard-response",609,489228,"0.0-3.199-1.199","sf4fy4760pt2965","7.csv","","null","resources/maskTrios/BBA1.jpg","null","",NA,NA,NA,NA,""
"image-keyboard-response",610,490432,"0.0-3.199-2.199","sf4fy4760pt2965","7.csv","","null","resources/images/coin2.png","null","",NA,NA,NA,NA,""
"image-keyboard-response",611,490937,"0.0-3.200-0.200","sf4fy4760pt2965","7.csv","","502.0000000000582","resources/trios/L2T2A1.jpg","39","restless",0.7,0.7,0.5,0.38218467995327,"true"
"image-keyboard-response",612,491340,"0.0-3.200-1.200","sf4fy4760pt2965","7.csv","","null","resources/maskTrios/BBA1.jpg","null","",NA,NA,NA,NA,""
"image-keyboard-response",613,492543,"0.0-3.200-2.200","sf4fy4760pt2965","7.csv","","null","resources/images/coin2.png","null","",NA,NA,NA,NA,""
"image-keyboard-response",614,492886,"0.0-3.201-0.201","sf4fy4760pt2965","7.csv","","340","resources/trios/L2T2A1.jpg","39","restless",0.6,0.7,0.5,0.856808734253889,"false"
"image-keyboard-response",615,493289,"0.0-3.201-1.201","sf4fy4760pt2965","7.csv","","null","resources/maskTrios/BBA1.jpg","null","",NA,NA,NA,NA,""
"image-keyboard-response",616,494492,"0.0-3.201-2.201","sf4fy4760pt2965","7.csv","","null","resources/images/fishbone.png","null","",NA,NA,NA,NA,""
"image-keyboard-response",617,494578,"0.0-3.202-0.202","sf4fy4760pt2965","7.csv","","84.00000000005821","resources/trios/L1T4A1.jpg","39","restless",0.6,0.7,0.5,0.0485738168932197,"true"
"image-keyboard-response",618,494981,"0.0-3.202-1.202","sf4fy4760pt2965","7.csv","","null","resources/maskTrios/BBA1.jpg","null","",NA,NA,NA,NA,""
"image-keyboard-response",619,496184,"0.0-3.202-2.202","sf4fy4760pt2965","7.csv","","null","resources/images/coin2.png","null","",NA,NA,NA,NA,""
"image-keyboard-response",620,496346,"0.0-3.203-0.203","sf4fy4760pt2965","7.csv","","158.9999999999418","resources/trios/L2T4A2.jpg","39","restless",0.6,0.7,0.5,0.00914106661598912,"true"
"image-keyboard-response",621,496750,"0.0-3.203-1.203","sf4fy4760pt2965","7.csv","","null","resources/maskTrios/BBA2.jpg","null","",NA,NA,NA,NA,""
"image-keyboard-response",622,497953,"0.0-3.203-2.203","sf4fy4760pt2965","7.csv","","null","resources/images/coin2.png","null","",NA,NA,NA,NA,""
"image-keyboard-response",623,498122,"0.0-3.204-0.204","sf4fy4760pt2965","7.csv","","166","resources/trios/L2T4A2.jpg","39","restless",0.5,0.7,0.5,0.972552274858807,"false"
"image-keyboard-response",624,498525,"0.0-3.204-1.204","sf4fy4760pt2965","7.csv","","null","resources/maskTrios/BBA2.jpg","null","",NA,NA,NA,NA,""
"image-keyboard-response",625,499728,"0.0-3.204-2.204","sf4fy4760pt2965","7.csv","","null","resources/images/fishbone.png","null","",NA,NA,NA,NA,""
"image-keyboard-response",626,499762,"0.0-3.205-0.205","sf4fy4760pt2965","7.csv","","32","resources/trios/L1T2A2.jpg","39","restless",0.5,0.7,0.4,0.415047073476716,"false"
"image-keyboard-response",627,500164,"0.0-3.205-1.205","sf4fy4760pt2965","7.csv","","null","resources/maskTrios/BBA2.jpg","null","",NA,NA,NA,NA,""
"image-keyboard-response",628,501367,"0.0-3.205-2.205","sf4fy4760pt2965","7.csv","","null","resources/images/fishbone.png","null","",NA,NA,NA,NA,""
"image-keyboard-response",629,501492,"0.0-3.206-0.206","sf4fy4760pt2965","7.csv","","120","resources/trios/L1T4A2.jpg","39","restless",0.5,0.7,0.4,0.0967383443062768,"true"
"image-keyboard-response",630,501895,"0.0-3.206-1.206","sf4fy4760pt2965","7.csv","","null","resources/maskTrios/BBA2.jpg","null","",NA,NA,NA,NA,""
"image-keyboard-response",631,503098,"0.0-3.206-2.206","sf4fy4760pt2965","7.csv","","null","resources/images/coin2.png","null","",NA,NA,NA,NA,""
"image-keyboard-response",632,503276,"0.0-3.207-0.207","sf4fy4760pt2965","7.csv","","174.0000000000582","resources/trios/L1T4A1.jpg","39","restless",0.5,0.7,0.4,0.497085144162762,"false"
"image-keyboard-response",633,503679,"0.0-3.207-1.207","sf4fy4760pt2965","7.csv","","null","resources/maskTrios/BBA1.jpg","null","",NA,NA,NA,NA,""
"image-keyboard-response",634,504882,"0.0-3.207-2.207","sf4fy4760pt2965","7.csv","","null","resources/images/fishbone.png","null","",NA,NA,NA,NA,""
"image-keyboard-response",635,505367,"0.0-3.208-0.208","sf4fy4760pt2965","7.csv","","482.9999999999418","resources/trios/L1T4A1.jpg","39","restless",0.5,0.7,0.4,0.18192177980282,"true"
"image-keyboard-response",636,505770,"0.0-3.208-1.208","sf4fy4760pt2965","7.csv","","null","resources/maskTrios/BBA1.jpg","null","",NA,NA,NA,NA,""
"image-keyboard-response",637,506974,"0.0-3.208-2.208","sf4fy4760pt2965","7.csv","","null","resources/images/coin2.png","null","",NA,NA,NA,NA,""
"image-keyboard-response",638,507256,"0.0-3.209-0.209","sf4fy4760pt2965","7.csv","","279","resources/trios/L1T2A2.jpg","39","restless",0.5,0.6,0.4,0.059160255811905,"true"
"image-keyboard-response",639,507660,"0.0-3.209-1.209","sf4fy4760pt2965","7.csv","","null","resources/maskTrios/BBA2.jpg","null","",NA,NA,NA,NA,""
"image-keyboard-response",640,508863,"0.0-3.209-2.209","sf4fy4760pt2965","7.csv","","null","resources/images/coin2.png","null","",NA,NA,NA,NA,""
