"trial_type","trial_index","time_elapsed","internal_node_id","subject","participantCode","walkNumber","success","rt","stimulus","key_press","test_part","leftProb","midProb","rightProb","generatedNum","correct"
"pavlovia",0,1085,"0.0-0.0","l5trlggvscjd1a2",597,"70.csv","","","","","",NA,NA,NA,NA,""
"fullscreen",1,5164,"0.0-1.0","l5trlggvscjd1a2",597,"70.csv","true","","","","",NA,NA,NA,NA,""
"html-keyboard-response",2,13399,"0.0-2.0-0.0","l5trlggvscjd1a2",597,"70.csv","","8233.700000047684","<p><font size='6'>Arrrgh!</p></font><p>Can you be the best pirate? Try to find lots of gold! But beware, some islands have more gold than others, and over time, the island with the most gold may change. Can YOU figure it out? </p><font size='6'>GOOD LUCK, CAPTAIN!!!</font><p>Press any key to begin</p>","68","",NA,NA,NA,NA,""
"image-keyboard-response",3,16402,"0.0-2.0-1.0","l5trlggvscjd1a2",597,"70.csv","","null","resources/image_sets/111.png","null","",NA,NA,NA,NA,""
"image-keyboard-response",4,36277,"0.0-2.0-2.0","l5trlggvscjd1a2",597,"70.csv","","19873.80000001192","resources/image_sets/left_highlight.png","37","",NA,NA,NA,NA,""
"image-keyboard-response",5,47090,"0.0-2.0-3.0","l5trlggvscjd1a2",597,"70.csv","","10810.800000011921","resources/image_sets/mid_highlight.png","38","",NA,NA,NA,NA,""
"image-keyboard-response",6,51500,"0.0-2.0-4.0","l5trlggvscjd1a2",597,"70.csv","","4408.300000011921","resources/image_sets/right_highlight.png","39","",NA,NA,NA,NA,""
"image-keyboard-response",7,57407,"0.0-2.0-5.0","l5trlggvscjd1a2",597,"70.csv","","5781","resources/image_sets/111.png","13","",NA,NA,NA,NA,""
"image-keyboard-response",8,60913,"0.0-2.0-6.0","l5trlggvscjd1a2",597,"70.csv","","3497.300000011921","resources/images/coin2.png","13","",NA,NA,NA,NA,""
"image-keyboard-response",9,63232,"0.0-2.0-7.0","l5trlggvscjd1a2",597,"70.csv","","2318.100000023842","resources/images/fishbone.png","13","",NA,NA,NA,NA,""
"html-keyboard-response",10,70090,"0.0-2.0-8.0","l5trlggvscjd1a2",597,"70.csv","","6856.399999976158","<p>Your first journey will be a long one, but you will get a well deserved break at the end</p><p>After the break you will have four more journeys, but each will be much shorter than the first, and you will have breaks in between each</p><p>Press Enter to begin</p>","13","",NA,NA,NA,NA,""
"image-keyboard-response",11,71475,"0.0-3.0-0.0","l5trlggvscjd1a2",597,"70.csv","","1384.9000000357628","resources/trios/L1T1A3.jpg","38","restless",0.9,0.7,0.3,0.945211754650743,"false"
"image-keyboard-response",12,71878,"0.0-3.0-1.0","l5trlggvscjd1a2",597,"70.csv","","null","resources/maskTrios/BT1B.jpg","null","",NA,NA,NA,NA,""
"image-keyboard-response",13,73082,"0.0-3.0-2.0","l5trlggvscjd1a2",597,"70.csv","","null","resources/images/fishbone.png","null","",NA,NA,NA,NA,""
"image-keyboard-response",14,76065,"0.0-3.1-0.1","l5trlggvscjd1a2",597,"70.csv","","2981.199999988079","resources/trios/L4T1A2.jpg","37","restless",0.8,0.7,0.3,0.927644601639334,"false"
"image-keyboard-response",15,76471,"0.0-3.1-1.1","l5trlggvscjd1a2",597,"70.csv","","null","resources/maskTrios/L4BB.jpg","null","",NA,NA,NA,NA,""
"image-keyboard-response",16,77677,"0.0-3.1-2.1","l5trlggvscjd1a2",597,"70.csv","","null","resources/images/fishbone.png","null","",NA,NA,NA,NA,""
"image-keyboard-response",17,79553,"0.0-3.2-0.2","l5trlggvscjd1a2",597,"70.csv","","1874.1000000238419","resources/trios/L1T2A2.jpg","38","restless",0.8,0.6,0.3,0.662841374076775,"false"
"image-keyboard-response",18,79959,"0.0-3.2-1.2","l5trlggvscjd1a2",597,"70.csv","","null","resources/maskTrios/BT2B.jpg","null","",NA,NA,NA,NA,""
"image-keyboard-response",19,81162,"0.0-3.2-2.2","l5trlggvscjd1a2",597,"70.csv","","null","resources/images/fishbone.png","null","",NA,NA,NA,NA,""
"image-keyboard-response",20,83651,"0.0-3.3-0.3","l5trlggvscjd1a2",597,"70.csv","","2487.900000035763","resources/trios/L1T1A3.jpg","38","restless",0.8,0.6,0.3,0.227440208432353,"true"
"image-keyboard-response",21,84057,"0.0-3.3-1.3","l5trlggvscjd1a2",597,"70.csv","","null","resources/maskTrios/BT1B.jpg","null","",NA,NA,NA,NA,""
"image-keyboard-response",22,85262,"0.0-3.3-2.3","l5trlggvscjd1a2",597,"70.csv","","null","resources/images/coin2.png","null","",NA,NA,NA,NA,""
"image-keyboard-response",23,88101,"0.0-3.4-0.4","l5trlggvscjd1a2",597,"70.csv","","2837.899999976158","resources/trios/L4T1A2.jpg","37","restless",0.8,0.6,0.3,0.318910311598776,"true"
"image-keyboard-response",24,88507,"0.0-3.4-1.4","l5trlggvscjd1a2",597,"70.csv","","null","resources/maskTrios/L4BB.jpg","null","",NA,NA,NA,NA,""
"image-keyboard-response",25,89711,"0.0-3.4-2.4","l5trlggvscjd1a2",597,"70.csv","","null","resources/images/coin2.png","null","",NA,NA,NA,NA,""
"image-keyboard-response",26,90970,"0.0-3.5-0.5","l5trlggvscjd1a2",597,"70.csv","","1257.699999988079","resources/trios/L1T2A2.jpg","38","restless",0.8,0.6,0.3,0.18369190317489,"true"
"image-keyboard-response",27,91375,"0.0-3.5-1.5","l5trlggvscjd1a2",597,"70.csv","","null","resources/maskTrios/BT2B.jpg","null","",NA,NA,NA,NA,""
"image-keyboard-response",28,92579,"0.0-3.5-2.5","l5trlggvscjd1a2",597,"70.csv","","null","resources/images/coin2.png","null","",NA,NA,NA,NA,""
"image-keyboard-response",29,94747,"0.0-3.6-0.6","l5trlggvscjd1a2",597,"70.csv","","2167.400000035763","resources/trios/L4T2A2.jpg","38","restless",0.8,0.5,0.3,0.331050976416274,"true"
"image-keyboard-response",30,95154,"0.0-3.6-1.6","l5trlggvscjd1a2",597,"70.csv","","null","resources/maskTrios/BT2B.jpg","null","",NA,NA,NA,NA,""
"image-keyboard-response",31,96355,"0.0-3.6-2.6","l5trlggvscjd1a2",597,"70.csv","","null","resources/images/coin2.png","null","",NA,NA,NA,NA,""
"image-keyboard-response",32,97024,"0.0-3.7-0.7","l5trlggvscjd1a2",597,"70.csv","","668","resources/trios/L1T2A2.jpg","38","restless",0.8,0.5,0.3,0.756718233843422,"false"
"image-keyboard-response",33,97430,"0.0-3.7-1.7","l5trlggvscjd1a2",597,"70.csv","","null","resources/maskTrios/BT2B.jpg","null","",NA,NA,NA,NA,""
"image-keyboard-response",34,98637,"0.0-3.7-2.7","l5trlggvscjd1a2",597,"70.csv","","null","resources/images/fishbone.png","null","",NA,NA,NA,NA,""
"image-keyboard-response",35,100735,"0.0-3.8-0.8","l5trlggvscjd1a2",597,"70.csv","","2097.100000023842","resources/trios/L4T1A3.jpg","39","restless",0.8,0.5,0.3,0.377282191542527,"false"
"image-keyboard-response",36,101141,"0.0-3.8-1.8","l5trlggvscjd1a2",597,"70.csv","","null","resources/maskTrios/BBA3.jpg","null","",NA,NA,NA,NA,""
"image-keyboard-response",37,102345,"0.0-3.8-2.8","l5trlggvscjd1a2",597,"70.csv","","null","resources/images/fishbone.png","null","",NA,NA,NA,NA,""
"image-keyboard-response",38,103345,"0.0-3.9-0.9","l5trlggvscjd1a2",597,"70.csv","","999.2000000476837","resources/trios/L4T2A3.jpg","38","restless",0.8,0.5,0.3,0.0962102278899875,"true"
"image-keyboard-response",39,103746,"0.0-3.9-1.9","l5trlggvscjd1a2",597,"70.csv","","null","resources/maskTrios/BT2B.jpg","null","",NA,NA,NA,NA,""
"image-keyboard-response",40,104952,"0.0-3.9-2.9","l5trlggvscjd1a2",597,"70.csv","","null","resources/images/coin2.png","null","",NA,NA,NA,NA,""
"image-keyboard-response",41,105545,"0.0-3.10-0.10","l5trlggvscjd1a2",597,"70.csv","","591.7000000476837","resources/trios/L1T2A3.jpg","38","restless",0.8,0.5,0.3,0.458623230424758,"true"
"image-keyboard-response",42,105946,"0.0-3.10-1.10","l5trlggvscjd1a2",597,"70.csv","","null","resources/maskTrios/BT2B.jpg","null","",NA,NA,NA,NA,""
"image-keyboard-response",43,107152,"0.0-3.10-2.10","l5trlggvscjd1a2",597,"70.csv","","null","resources/images/coin2.png","null","",NA,NA,NA,NA,""
"image-keyboard-response",44,107779,"0.0-3.11-0.11","l5trlggvscjd1a2",597,"70.csv","","625.6999999880791","resources/trios/L4T1A3.jpg","37","restless",0.8,0.5,0.3,0.562509325430006,"true"
"image-keyboard-response",45,108186,"0.0-3.11-1.11","l5trlggvscjd1a2",597,"70.csv","","null","resources/maskTrios/L4BB.jpg","null","",NA,NA,NA,NA,""
"image-keyboard-response",46,109393,"0.0-3.11-2.11","l5trlggvscjd1a2",597,"70.csv","","null","resources/images/coin2.png","null","",NA,NA,NA,NA,""
"image-keyboard-response",47,110573,"0.0-3.12-0.12","l5trlggvscjd1a2",597,"70.csv","","1179.199999988079","resources/trios/L4T1A2.jpg","38","restless",0.8,0.5,0.3,0.554347625285262,"false"
"image-keyboard-response",48,110978,"0.0-3.12-1.12","l5trlggvscjd1a2",597,"70.csv","","null","resources/maskTrios/BT1B.jpg","null","",NA,NA,NA,NA,""
"image-keyboard-response",49,112185,"0.0-3.12-2.12","l5trlggvscjd1a2",597,"70.csv","","null","resources/images/fishbone.png","null","",NA,NA,NA,NA,""
"image-keyboard-response",50,113098,"0.0-3.13-0.13","l5trlggvscjd1a2",597,"70.csv","","912","resources/trios/L1T2A2.jpg","38","restless",0.8,0.5,0.3,0.509898563340748,"false"
"image-keyboard-response",51,113501,"0.0-3.13-1.13","l5trlggvscjd1a2",597,"70.csv","","null","resources/maskTrios/BT2B.jpg","null","",NA,NA,NA,NA,""
"image-keyboard-response",52,114704,"0.0-3.13-2.13","l5trlggvscjd1a2",597,"70.csv","","null","resources/images/fishbone.png","null","",NA,NA,NA,NA,""
"image-keyboard-response",53,115378,"0.0-3.14-0.14","l5trlggvscjd1a2",597,"70.csv","","672.5","resources/trios/L1T2A2.jpg","38","restless",0.8,0.5,0.3,0.90713314632034,"false"
"image-keyboard-response",54,115779,"0.0-3.14-1.14","l5trlggvscjd1a2",597,"70.csv","","null","resources/maskTrios/BT2B.jpg","null","",NA,NA,NA,NA,""
"image-keyboard-response",55,116985,"0.0-3.14-2.14","l5trlggvscjd1a2",597,"70.csv","","null","resources/images/fishbone.png","null","",NA,NA,NA,NA,""
"image-keyboard-response",56,117761,"0.0-3.15-0.15","l5trlggvscjd1a2",597,"70.csv","","774.6000000238419","resources/trios/L1T1A3.jpg","38","restless",0.8,0.5,0.3,0.770760232255073,"false"
"image-keyboard-response",57,118162,"0.0-3.15-1.15","l5trlggvscjd1a2",597,"70.csv","","null","resources/maskTrios/BT1B.jpg","null","",NA,NA,NA,NA,""
"image-keyboard-response",58,119369,"0.0-3.15-2.15","l5trlggvscjd1a2",597,"70.csv","","null","resources/images/fishbone.png","null","",NA,NA,NA,NA,""
"image-keyboard-response",59,120508,"0.0-3.16-0.16","l5trlggvscjd1a2",597,"70.csv","","1138.5999999642372","resources/trios/L1T2A2.jpg","38","restless",0.8,0.5,0.3,0.0294976099488202,"true"
"image-keyboard-response",60,120912,"0.0-3.16-1.16","l5trlggvscjd1a2",597,"70.csv","","null","resources/maskTrios/BT2B.jpg","null","",NA,NA,NA,NA,""
"image-keyboard-response",61,122119,"0.0-3.16-2.16","l5trlggvscjd1a2",597,"70.csv","","null","resources/images/coin2.png","null","",NA,NA,NA,NA,""
"image-keyboard-response",62,123038,"0.0-3.17-0.17","l5trlggvscjd1a2",597,"70.csv","","917.2999999523163","resources/trios/L1T2A3.jpg","38","restless",0.8,0.5,0.3,0.846522421258816,"false"
"image-keyboard-response",63,123444,"0.0-3.17-1.17","l5trlggvscjd1a2",597,"70.csv","","null","resources/maskTrios/BT2B.jpg","null","",NA,NA,NA,NA,""
"image-keyboard-response",64,124645,"0.0-3.17-2.17","l5trlggvscjd1a2",597,"70.csv","","null","resources/images/fishbone.png","null","",NA,NA,NA,NA,""
"image-keyboard-response",65,126013,"0.0-3.18-0.18","l5trlggvscjd1a2",597,"70.csv","","1366.699999988079","resources/trios/L1T1A3.jpg","37","restless",0.7,0.5,0.3,0.474157444147757,"true"
"image-keyboard-response",66,126420,"0.0-3.18-1.18","l5trlggvscjd1a2",597,"70.csv","","null","resources/maskTrios/L1BB.jpg","null","",NA,NA,NA,NA,""
"image-keyboard-response",67,127627,"0.0-3.18-2.18","l5trlggvscjd1a2",597,"70.csv","","null","resources/images/coin2.png","null","",NA,NA,NA,NA,""
"image-keyboard-response",68,129109,"0.0-3.19-0.19","l5trlggvscjd1a2",597,"70.csv","","1481.4000000357628","resources/trios/L1T2A2.jpg","38","restless",0.8,0.5,0.3,0.845853997154045,"false"
"image-keyboard-response",69,129512,"0.0-3.19-1.19","l5trlggvscjd1a2",597,"70.csv","","null","resources/maskTrios/BT2B.jpg","null","",NA,NA,NA,NA,""
"image-keyboard-response",70,130718,"0.0-3.19-2.19","l5trlggvscjd1a2",597,"70.csv","","null","resources/images/fishbone.png","null","",NA,NA,NA,NA,""
"image-keyboard-response",71,131164,"0.0-3.20-0.20","l5trlggvscjd1a2",597,"70.csv","","444.80000001192093","resources/trios/L1T2A2.jpg","37","restless",0.8,0.5,0.3,0.308090643557866,"true"
"image-keyboard-response",72,131566,"0.0-3.20-1.20","l5trlggvscjd1a2",597,"70.csv","","null","resources/maskTrios/L1BB.jpg","null","",NA,NA,NA,NA,""
"image-keyboard-response",73,132773,"0.0-3.20-2.20","l5trlggvscjd1a2",597,"70.csv","","null","resources/images/coin2.png","null","",NA,NA,NA,NA,""
"image-keyboard-response",74,133809,"0.0-3.21-0.21","l5trlggvscjd1a2",597,"70.csv","","1034.800000011921","resources/trios/L1T1A2.jpg","38","restless",0.8,0.5,0.3,0.70808059991579,"false"
"image-keyboard-response",75,134212,"0.0-3.21-1.21","l5trlggvscjd1a2",597,"70.csv","","null","resources/maskTrios/BT1B.jpg","null","",NA,NA,NA,NA,""
"image-keyboard-response",76,135419,"0.0-3.21-2.21","l5trlggvscjd1a2",597,"70.csv","","null","resources/images/fishbone.png","null","",NA,NA,NA,NA,""
"image-keyboard-response",77,136126,"0.0-3.22-0.22","l5trlggvscjd1a2",597,"70.csv","","705.6999999880791","resources/trios/L1T1A3.jpg","37","restless",0.7,0.5,0.3,0.914319168205284,"false"
"image-keyboard-response",78,136528,"0.0-3.22-1.22","l5trlggvscjd1a2",597,"70.csv","","null","resources/maskTrios/L1BB.jpg","null","",NA,NA,NA,NA,""
"image-keyboard-response",79,137735,"0.0-3.22-2.22","l5trlggvscjd1a2",597,"70.csv","","null","resources/images/fishbone.png","null","",NA,NA,NA,NA,""
"image-keyboard-response",80,138179,"0.0-3.23-0.23","l5trlggvscjd1a2",597,"70.csv","","442.89999997615814","resources/trios/L1T1A2.jpg","38","restless",0.7,0.5,0.3,0.823933043081645,"false"
"image-keyboard-response",81,138586,"0.0-3.23-1.23","l5trlggvscjd1a2",597,"70.csv","","null","resources/maskTrios/BT1B.jpg","null","",NA,NA,NA,NA,""
"image-keyboard-response",82,139792,"0.0-3.23-2.23","l5trlggvscjd1a2",597,"70.csv","","null","resources/images/fishbone.png","null","",NA,NA,NA,NA,""
"image-keyboard-response",83,140713,"0.0-3.24-0.24","l5trlggvscjd1a2",597,"70.csv","","919.5","resources/trios/L1T2A3.jpg","38","restless",0.7,0.5,0.3,0.214041824148636,"true"
"image-keyboard-response",84,141119,"0.0-3.24-1.24","l5trlggvscjd1a2",597,"70.csv","","null","resources/maskTrios/BT2B.jpg","null","",NA,NA,NA,NA,""
"image-keyboard-response",85,142326,"0.0-3.24-2.24","l5trlggvscjd1a2",597,"70.csv","","null","resources/images/coin2.png","null","",NA,NA,NA,NA,""
"image-keyboard-response",86,143443,"0.0-3.25-0.25","l5trlggvscjd1a2",597,"70.csv","","1115.699999988079","resources/trios/L4T2A2.jpg","38","restless",0.7,0.5,0.3,0.863453898136892,"false"
"image-keyboard-response",87,143846,"0.0-3.25-1.25","l5trlggvscjd1a2",597,"70.csv","","null","resources/maskTrios/BT2B.jpg","null","",NA,NA,NA,NA,""
"image-keyboard-response",88,145052,"0.0-3.25-2.25","l5trlggvscjd1a2",597,"70.csv","","null","resources/images/fishbone.png","null","",NA,NA,NA,NA,""
"image-keyboard-response",89,146221,"0.0-3.26-0.26","l5trlggvscjd1a2",597,"70.csv","","1167.1000000238419","resources/trios/L4T1A3.jpg","37","restless",0.6,0.5,0.2,0.771725744191845,"false"
"image-keyboard-response",90,146622,"0.0-3.26-1.26","l5trlggvscjd1a2",597,"70.csv","","null","resources/maskTrios/L4BB.jpg","null","",NA,NA,NA,NA,""
"image-keyboard-response",91,147828,"0.0-3.26-2.26","l5trlggvscjd1a2",597,"70.csv","","null","resources/images/fishbone.png","null","",NA,NA,NA,NA,""
"image-keyboard-response",92,150134,"0.0-3.27-0.27","l5trlggvscjd1a2",597,"70.csv","","2304.5","resources/trios/L4T1A2.jpg","38","restless",0.6,0.5,0.2,0.961415155430106,"false"
"image-keyboard-response",93,150539,"0.0-3.27-1.27","l5trlggvscjd1a2",597,"70.csv","","null","resources/maskTrios/BT1B.jpg","null","",NA,NA,NA,NA,""
"image-keyboard-response",94,151746,"0.0-3.27-2.27","l5trlggvscjd1a2",597,"70.csv","","null","resources/images/fishbone.png","null","",NA,NA,NA,NA,""
"image-keyboard-response",95,153932,"0.0-3.28-0.28","l5trlggvscjd1a2",597,"70.csv","","2185.099999964237","resources/trios/L1T1A3.jpg","37","restless",0.6,0.5,0.2,0.391921017158376,"true"
"image-keyboard-response",96,154339,"0.0-3.28-1.28","l5trlggvscjd1a2",597,"70.csv","","null","resources/maskTrios/L1BB.jpg","null","",NA,NA,NA,NA,""
"image-keyboard-response",97,155545,"0.0-3.28-2.28","l5trlggvscjd1a2",597,"70.csv","","null","resources/images/coin2.png","null","",NA,NA,NA,NA,""
"image-keyboard-response",98,157634,"0.0-3.29-0.29","l5trlggvscjd1a2",597,"70.csv","","2088.199999988079","resources/trios/L4T1A3.jpg","37","restless",0.6,0.5,0.2,0.529608743950713,"true"
"image-keyboard-response",99,158041,"0.0-3.29-1.29","l5trlggvscjd1a2",597,"70.csv","","null","resources/maskTrios/L4BB.jpg","null","",NA,NA,NA,NA,""
"image-keyboard-response",100,159246,"0.0-3.29-2.29","l5trlggvscjd1a2",597,"70.csv","","null","resources/images/coin2.png","null","",NA,NA,NA,NA,""
"image-keyboard-response",101,160465,"0.0-3.30-0.30","l5trlggvscjd1a2",597,"70.csv","","1217.800000011921","resources/trios/L1T2A3.jpg","38","restless",0.6,0.5,0.2,0.354435189692674,"true"
"image-keyboard-response",102,160871,"0.0-3.30-1.30","l5trlggvscjd1a2",597,"70.csv","","null","resources/maskTrios/BT2B.jpg","null","",NA,NA,NA,NA,""
"image-keyboard-response",103,162073,"0.0-3.30-2.30","l5trlggvscjd1a2",597,"70.csv","","null","resources/images/coin2.png","null","",NA,NA,NA,NA,""
"image-keyboard-response",104,163207,"0.0-3.31-0.31","l5trlggvscjd1a2",597,"70.csv","","1132.699999988079","resources/trios/L1T2A3.jpg","38","restless",0.6,0.5,0.2,0.0747028968853898,"true"
"image-keyboard-response",105,163609,"0.0-3.31-1.31","l5trlggvscjd1a2",597,"70.csv","","null","resources/maskTrios/BT2B.jpg","null","",NA,NA,NA,NA,""
"image-keyboard-response",106,164813,"0.0-3.31-2.31","l5trlggvscjd1a2",597,"70.csv","","null","resources/images/coin2.png","null","",NA,NA,NA,NA,""
"image-keyboard-response",107,165797,"0.0-3.32-0.32","l5trlggvscjd1a2",597,"70.csv","","982.9000000357628","resources/trios/L4T2A2.jpg","37","restless",0.6,0.5,0.2,0.116497952734052,"true"
"image-keyboard-response",108,166203,"0.0-3.32-1.32","l5trlggvscjd1a2",597,"70.csv","","null","resources/maskTrios/L4BB.jpg","null","",NA,NA,NA,NA,""
"image-keyboard-response",109,167406,"0.0-3.32-2.32","l5trlggvscjd1a2",597,"70.csv","","null","resources/images/coin2.png","null","",NA,NA,NA,NA,""
"image-keyboard-response",110,168194,"0.0-3.33-0.33","l5trlggvscjd1a2",597,"70.csv","","786.7000000476837","resources/trios/L4T1A2.jpg","38","restless",0.6,0.5,0.2,0.912654168818398,"false"
"image-keyboard-response",111,168596,"0.0-3.33-1.33","l5trlggvscjd1a2",597,"70.csv","","null","resources/maskTrios/BT1B.jpg","null","",NA,NA,NA,NA,""
"image-keyboard-response",112,169802,"0.0-3.33-2.33","l5trlggvscjd1a2",597,"70.csv","","null","resources/images/fishbone.png","null","",NA,NA,NA,NA,""
"image-keyboard-response",113,171095,"0.0-3.34-0.34","l5trlggvscjd1a2",597,"70.csv","","1291.5999999642372","resources/trios/L4T1A3.jpg","37","restless",0.6,0.5,0.2,0.803349247911913,"false"
"image-keyboard-response",114,171496,"0.0-3.34-1.34","l5trlggvscjd1a2",597,"70.csv","","null","resources/maskTrios/L4BB.jpg","null","",NA,NA,NA,NA,""
"image-keyboard-response",115,172702,"0.0-3.34-2.34","l5trlggvscjd1a2",597,"70.csv","","null","resources/images/fishbone.png","null","",NA,NA,NA,NA,""
"image-keyboard-response",116,173498,"0.0-3.35-0.35","l5trlggvscjd1a2",597,"70.csv","","794.1999999880791","resources/trios/L1T2A3.jpg","38","restless",0.6,0.5,0.2,0.431806881717443,"true"
"image-keyboard-response",117,173902,"0.0-3.35-1.35","l5trlggvscjd1a2",597,"70.csv","","null","resources/maskTrios/BT2B.jpg","null","",NA,NA,NA,NA,""
"image-keyboard-response",118,175103,"0.0-3.35-2.35","l5trlggvscjd1a2",597,"70.csv","","null","resources/images/coin2.png","null","",NA,NA,NA,NA,""
"image-keyboard-response",119,176888,"0.0-3.36-0.36","l5trlggvscjd1a2",597,"70.csv","","1783.800000011921","resources/trios/L1T1A3.jpg","37","restless",0.6,0.5,0.2,0.340837767882027,"true"
"image-keyboard-response",120,177291,"0.0-3.36-1.36","l5trlggvscjd1a2",597,"70.csv","","null","resources/maskTrios/L1BB.jpg","null","",NA,NA,NA,NA,""
"image-keyboard-response",121,178497,"0.0-3.36-2.36","l5trlggvscjd1a2",597,"70.csv","","null","resources/images/coin2.png","null","",NA,NA,NA,NA,""
"image-keyboard-response",122,180069,"0.0-3.37-0.37","l5trlggvscjd1a2",597,"70.csv","","1570.800000011921","resources/trios/L1T2A2.jpg","38","restless",0.5,0.6,0.2,0.489184631985432,"true"
"image-keyboard-response",123,180475,"0.0-3.37-1.37","l5trlggvscjd1a2",597,"70.csv","","null","resources/maskTrios/BT2B.jpg","null","",NA,NA,NA,NA,""
"image-keyboard-response",124,181680,"0.0-3.37-2.37","l5trlggvscjd1a2",597,"70.csv","","null","resources/images/coin2.png","null","",NA,NA,NA,NA,""
"image-keyboard-response",125,182794,"0.0-3.38-0.38","l5trlggvscjd1a2",597,"70.csv","","1113.0999999642372","resources/trios/L1T1A3.jpg","37","restless",0.5,0.6,0.2,0.642086926669385,"false"
"image-keyboard-response",126,183197,"0.0-3.38-1.38","l5trlggvscjd1a2",597,"70.csv","","null","resources/maskTrios/L1BB.jpg","null","",NA,NA,NA,NA,""
"image-keyboard-response",127,184399,"0.0-3.38-2.38","l5trlggvscjd1a2",597,"70.csv","","null","resources/images/fishbone.png","null","",NA,NA,NA,NA,""
"image-keyboard-response",128,185629,"0.0-3.39-0.39","l5trlggvscjd1a2",597,"70.csv","","1229.6000000238419","resources/trios/L1T1A2.jpg","38","restless",0.5,0.6,0.2,0.968613878604653,"false"
"image-keyboard-response",129,186035,"0.0-3.39-1.39","l5trlggvscjd1a2",597,"70.csv","","null","resources/maskTrios/BT1B.jpg","null","",NA,NA,NA,NA,""
"image-keyboard-response",130,187242,"0.0-3.39-2.39","l5trlggvscjd1a2",597,"70.csv","","null","resources/images/fishbone.png","null","",NA,NA,NA,NA,""
"image-keyboard-response",131,188884,"0.0-3.40-0.40","l5trlggvscjd1a2",597,"70.csv","","1640.699999988079","resources/trios/L1T1A2.jpg","38","restless",0.5,0.6,0.2,0.0348081123320785,"true"
"image-keyboard-response",132,189290,"0.0-3.40-1.40","l5trlggvscjd1a2",597,"70.csv","","null","resources/maskTrios/BT1B.jpg","null","",NA,NA,NA,NA,""
"image-keyboard-response",133,190496,"0.0-3.40-2.40","l5trlggvscjd1a2",597,"70.csv","","null","resources/images/coin2.png","null","",NA,NA,NA,NA,""
"image-keyboard-response",134,191197,"0.0-3.41-0.41","l5trlggvscjd1a2",597,"70.csv","","699.5","resources/trios/L1T2A3.jpg","38","restless",0.5,0.6,0.2,0.153639336847162,"true"
"image-keyboard-response",135,191603,"0.0-3.41-1.41","l5trlggvscjd1a2",597,"70.csv","","null","resources/maskTrios/BT2B.jpg","null","",NA,NA,NA,NA,""
"image-keyboard-response",136,192810,"0.0-3.41-2.41","l5trlggvscjd1a2",597,"70.csv","","null","resources/images/coin2.png","null","",NA,NA,NA,NA,""
"image-keyboard-response",137,193306,"0.0-3.42-0.42","l5trlggvscjd1a2",597,"70.csv","","495.60000002384186","resources/trios/L4T2A3.jpg","38","restless",0.4,0.6,0.2,0.25486910197462,"true"
"image-keyboard-response",138,193708,"0.0-3.42-1.42","l5trlggvscjd1a2",597,"70.csv","","null","resources/maskTrios/BT2B.jpg","null","",NA,NA,NA,NA,""
"image-keyboard-response",139,194914,"0.0-3.42-2.42","l5trlggvscjd1a2",597,"70.csv","","null","resources/images/coin2.png","null","",NA,NA,NA,NA,""
"image-keyboard-response",140,196046,"0.0-3.43-0.43","l5trlggvscjd1a2",597,"70.csv","","1131.0999999642372","resources/trios/L1T2A2.jpg","37","restless",0.4,0.6,0.2,0.0560905233783804,"true"
"image-keyboard-response",141,196447,"0.0-3.43-1.43","l5trlggvscjd1a2",597,"70.csv","","null","resources/maskTrios/L1BB.jpg","null","",NA,NA,NA,NA,""
"image-keyboard-response",142,197651,"0.0-3.43-2.43","l5trlggvscjd1a2",597,"70.csv","","null","resources/images/coin2.png","null","",NA,NA,NA,NA,""
"image-keyboard-response",143,198875,"0.0-3.44-0.44","l5trlggvscjd1a2",597,"70.csv","","1222.699999988079","resources/trios/L4T1A2.jpg","37","restless",0.4,0.6,0.2,0.662107750117713,"false"
"image-keyboard-response",144,199280,"0.0-3.44-1.44","l5trlggvscjd1a2",597,"70.csv","","null","resources/maskTrios/L4BB.jpg","null","",NA,NA,NA,NA,""
"image-keyboard-response",145,200487,"0.0-3.44-2.44","l5trlggvscjd1a2",597,"70.csv","","null","resources/images/fishbone.png","null","",NA,NA,NA,NA,""
"image-keyboard-response",146,201227,"0.0-3.45-0.45","l5trlggvscjd1a2",597,"70.csv","","738.6999999880791","resources/trios/L4T2A2.jpg","39","restless",0.4,0.7,0.2,0.986329183422503,"false"
"image-keyboard-response",147,201630,"0.0-3.45-1.45","l5trlggvscjd1a2",597,"70.csv","","null","resources/maskTrios/BBA2.jpg","null","",NA,NA,NA,NA,""
"image-keyboard-response",148,202836,"0.0-3.45-2.45","l5trlggvscjd1a2",597,"70.csv","","null","resources/images/fishbone.png","null","",NA,NA,NA,NA,""
"image-keyboard-response",149,203984,"0.0-3.46-0.46","l5trlggvscjd1a2",597,"70.csv","","1146.0999999642372","resources/trios/L1T1A2.jpg","37","restless",0.4,0.6,0.3,0.58589781184894,"false"
"image-keyboard-response",150,204390,"0.0-3.46-1.46","l5trlggvscjd1a2",597,"70.csv","","null","resources/maskTrios/L1BB.jpg","null","",NA,NA,NA,NA,""
"image-keyboard-response",151,205596,"0.0-3.46-2.46","l5trlggvscjd1a2",597,"70.csv","","null","resources/images/fishbone.png","null","",NA,NA,NA,NA,""
"image-keyboard-response",152,206002,"0.0-3.47-0.47","l5trlggvscjd1a2",597,"70.csv","","404","resources/trios/L1T1A2.jpg","38","restless",0.4,0.6,0.3,0.672856129142366,"false"
"image-keyboard-response",153,206408,"0.0-3.47-1.47","l5trlggvscjd1a2",597,"70.csv","","null","resources/maskTrios/BT1B.jpg","null","",NA,NA,NA,NA,""
"image-keyboard-response",154,207610,"0.0-3.47-2.47","l5trlggvscjd1a2",597,"70.csv","","null","resources/images/fishbone.png","null","",NA,NA,NA,NA,""
"image-keyboard-response",155,208407,"0.0-3.48-0.48","l5trlggvscjd1a2",597,"70.csv","","796.1999999880791","resources/trios/L4T2A2.jpg","38","restless",0.4,0.6,0.3,0.102844246021995,"true"
"image-keyboard-response",156,208814,"0.0-3.48-1.48","l5trlggvscjd1a2",597,"70.csv","","null","resources/maskTrios/BT2B.jpg","null","",NA,NA,NA,NA,""
"image-keyboard-response",157,210020,"0.0-3.48-2.48","l5trlggvscjd1a2",597,"70.csv","","null","resources/images/coin2.png","null","",NA,NA,NA,NA,""
"image-keyboard-response",158,212707,"0.0-3.49-0.49","l5trlggvscjd1a2",597,"70.csv","","2685.199999988079","resources/trios/L1T1A2.jpg","39","restless",0.4,0.6,0.3,0.13003090410619,"true"
"image-keyboard-response",159,213113,"0.0-3.49-1.49","l5trlggvscjd1a2",597,"70.csv","","null","resources/maskTrios/BBA2.jpg","null","",NA,NA,NA,NA,""
"image-keyboard-response",160,214320,"0.0-3.49-2.49","l5trlggvscjd1a2",597,"70.csv","","null","resources/images/coin2.png","null","",NA,NA,NA,NA,""
"image-keyboard-response",161,216456,"0.0-3.50-0.50","l5trlggvscjd1a2",597,"70.csv","","2135.199999988079","resources/trios/L1T2A2.jpg","38","restless",0.4,0.5,0.3,0.505221082105606,"false"
"image-keyboard-response",162,216860,"0.0-3.50-1.50","l5trlggvscjd1a2",597,"70.csv","","null","resources/maskTrios/BT2B.jpg","null","",NA,NA,NA,NA,""
"image-keyboard-response",163,218064,"0.0-3.50-2.50","l5trlggvscjd1a2",597,"70.csv","","null","resources/images/fishbone.png","null","",NA,NA,NA,NA,""
"image-keyboard-response",164,219510,"0.0-3.51-0.51","l5trlggvscjd1a2",597,"70.csv","","1444.7000000476837","resources/trios/L1T2A3.jpg","38","restless",0.4,0.5,0.3,0.396346916189042,"true"
"image-keyboard-response",165,219914,"0.0-3.51-1.51","l5trlggvscjd1a2",597,"70.csv","","null","resources/maskTrios/BT2B.jpg","null","",NA,NA,NA,NA,""
"image-keyboard-response",166,221120,"0.0-3.51-2.51","l5trlggvscjd1a2",597,"70.csv","","null","resources/images/coin2.png","null","",NA,NA,NA,NA,""
"image-keyboard-response",167,222416,"0.0-3.52-0.52","l5trlggvscjd1a2",597,"70.csv","","1294.300000011921","resources/trios/L1T1A2.jpg","37","restless",0.4,0.6,0.3,0.268437975565973,"true"
"image-keyboard-response",168,222822,"0.0-3.52-1.52","l5trlggvscjd1a2",597,"70.csv","","null","resources/maskTrios/L1BB.jpg","null","",NA,NA,NA,NA,""
"image-keyboard-response",169,224029,"0.0-3.52-2.52","l5trlggvscjd1a2",597,"70.csv","","null","resources/images/coin2.png","null","",NA,NA,NA,NA,""
"image-keyboard-response",170,225100,"0.0-3.53-0.53","l5trlggvscjd1a2",597,"70.csv","","1069.7999999523163","resources/trios/L1T2A2.jpg","38","restless",0.4,0.6,0.3,0.193472062789553,"true"
"image-keyboard-response",171,225506,"0.0-3.53-1.53","l5trlggvscjd1a2",597,"70.csv","","null","resources/maskTrios/BT2B.jpg","null","",NA,NA,NA,NA,""
"image-keyboard-response",172,226713,"0.0-3.53-2.53","l5trlggvscjd1a2",597,"70.csv","","null","resources/images/coin2.png","null","",NA,NA,NA,NA,""
"image-keyboard-response",173,227437,"0.0-3.54-0.54","l5trlggvscjd1a2",597,"70.csv","","722.5","resources/trios/L1T2A3.jpg","38","restless",0.4,0.6,0.3,0.773364654434738,"false"
"image-keyboard-response",174,227843,"0.0-3.54-1.54","l5trlggvscjd1a2",597,"70.csv","","null","resources/maskTrios/BT2B.jpg","null","",NA,NA,NA,NA,""
"image-keyboard-response",175,229047,"0.0-3.54-2.54","l5trlggvscjd1a2",597,"70.csv","","null","resources/images/fishbone.png","null","",NA,NA,NA,NA,""
"image-keyboard-response",176,230020,"0.0-3.55-0.55","l5trlggvscjd1a2",597,"70.csv","","970.8999999761581","resources/trios/L1T1A2.jpg","39","restless",0.4,0.6,0.3,0.0185587005709678,"true"
"image-keyboard-response",177,230426,"0.0-3.55-1.55","l5trlggvscjd1a2",597,"70.csv","","null","resources/maskTrios/BBA2.jpg","null","",NA,NA,NA,NA,""
"image-keyboard-response",178,231630,"0.0-3.55-2.55","l5trlggvscjd1a2",597,"70.csv","","null","resources/images/coin2.png","null","",NA,NA,NA,NA,""
"image-keyboard-response",179,232295,"0.0-3.56-0.56","l5trlggvscjd1a2",597,"70.csv","","663.2000000476837","resources/trios/L1T1A2.jpg","37","restless",0.4,0.6,0.3,0.839107840642129,"false"
"image-keyboard-response",180,232697,"0.0-3.56-1.56","l5trlggvscjd1a2",597,"70.csv","","null","resources/maskTrios/L1BB.jpg","null","",NA,NA,NA,NA,""
"image-keyboard-response",181,233903,"0.0-3.56-2.56","l5trlggvscjd1a2",597,"70.csv","","null","resources/images/fishbone.png","null","",NA,NA,NA,NA,""
"image-keyboard-response",182,234358,"0.0-3.57-0.57","l5trlggvscjd1a2",597,"70.csv","","453","resources/trios/L4T1A2.jpg","38","restless",0.4,0.6,0.3,0.578405227769899,"true"
"image-keyboard-response",183,234764,"0.0-3.57-1.57","l5trlggvscjd1a2",597,"70.csv","","null","resources/maskTrios/BT1B.jpg","null","",NA,NA,NA,NA,""
"image-keyboard-response",184,235971,"0.0-3.57-2.57","l5trlggvscjd1a2",597,"70.csv","","null","resources/images/coin2.png","null","",NA,NA,NA,NA,""
"image-keyboard-response",185,236616,"0.0-3.58-0.58","l5trlggvscjd1a2",597,"70.csv","","643.5999999642372","resources/trios/L1T1A2.jpg","38","restless",0.4,0.6,0.3,0.626643581749374,"false"
"image-keyboard-response",186,237022,"0.0-3.58-1.58","l5trlggvscjd1a2",597,"70.csv","","null","resources/maskTrios/BT1B.jpg","null","",NA,NA,NA,NA,""
"image-keyboard-response",187,238228,"0.0-3.58-2.58","l5trlggvscjd1a2",597,"70.csv","","null","resources/images/fishbone.png","null","",NA,NA,NA,NA,""
"image-keyboard-response",188,239094,"0.0-3.59-0.59","l5trlggvscjd1a2",597,"70.csv","","864.8000000119209","resources/trios/L1T2A2.jpg","38","restless",0.4,0.6,0.3,0.405632247972651,"true"
"image-keyboard-response",189,239498,"0.0-3.59-1.59","l5trlggvscjd1a2",597,"70.csv","","null","resources/maskTrios/BT2B.jpg","null","",NA,NA,NA,NA,""
"image-keyboard-response",190,240704,"0.0-3.59-2.59","l5trlggvscjd1a2",597,"70.csv","","null","resources/images/coin2.png","null","",NA,NA,NA,NA,""
"image-keyboard-response",191,241552,"0.0-3.60-0.60","l5trlggvscjd1a2",597,"70.csv","","845.8999999761581","resources/trios/L4T1A2.jpg","37","restless",0.5,0.6,0.3,0.871426137205315,"false"
"image-keyboard-response",192,241958,"0.0-3.60-1.60","l5trlggvscjd1a2",597,"70.csv","","null","resources/maskTrios/L4BB.jpg","null","",NA,NA,NA,NA,""
"image-keyboard-response",193,243164,"0.0-3.60-2.60","l5trlggvscjd1a2",597,"70.csv","","null","resources/images/fishbone.png","null","",NA,NA,NA,NA,""
"image-keyboard-response",194,244368,"0.0-3.61-0.61","l5trlggvscjd1a2",597,"70.csv","","1202.6000000238419","resources/trios/L1T2A3.jpg","38","restless",0.6,0.6,0.2,0.639149114834592,"false"
"image-keyboard-response",195,244770,"0.0-3.61-1.61","l5trlggvscjd1a2",597,"70.csv","","null","resources/maskTrios/BT2B.jpg","null","",NA,NA,NA,NA,""
"image-keyboard-response",196,245977,"0.0-3.61-2.61","l5trlggvscjd1a2",597,"70.csv","","null","resources/images/fishbone.png","null","",NA,NA,NA,NA,""
"image-keyboard-response",197,247735,"0.0-3.62-0.62","l5trlggvscjd1a2",597,"70.csv","","1757","resources/trios/L4T1A3.jpg","37","restless",0.7,0.6,0.2,0.962150646299889,"false"
"image-keyboard-response",198,248142,"0.0-3.62-1.62","l5trlggvscjd1a2",597,"70.csv","","null","resources/maskTrios/L4BB.jpg","null","",NA,NA,NA,NA,""
"image-keyboard-response",199,249348,"0.0-3.62-2.62","l5trlggvscjd1a2",597,"70.csv","","null","resources/images/fishbone.png","null","",NA,NA,NA,NA,""
"image-keyboard-response",200,250008,"0.0-3.63-0.63","l5trlggvscjd1a2",597,"70.csv","","659.8000000119209","resources/trios/L1T1A3.jpg","39","restless",0.7,0.6,0.2,0.850905587163828,"false"
"image-keyboard-response",201,250414,"0.0-3.63-1.63","l5trlggvscjd1a2",597,"70.csv","","null","resources/maskTrios/BBA3.jpg","null","",NA,NA,NA,NA,""
"image-keyboard-response",202,251620,"0.0-3.63-2.63","l5trlggvscjd1a2",597,"70.csv","","null","resources/images/fishbone.png","null","",NA,NA,NA,NA,""
"image-keyboard-response",203,252003,"0.0-3.64-0.64","l5trlggvscjd1a2",597,"70.csv","","381.30000001192093","resources/trios/L1T1A3.jpg","38","restless",0.7,0.6,0.2,0.970447357679237,"false"
"image-keyboard-response",204,252409,"0.0-3.64-1.64","l5trlggvscjd1a2",597,"70.csv","","null","resources/maskTrios/BT1B.jpg","null","",NA,NA,NA,NA,""
"image-keyboard-response",205,253614,"0.0-3.64-2.64","l5trlggvscjd1a2",597,"70.csv","","null","resources/images/fishbone.png","null","",NA,NA,NA,NA,""
"image-keyboard-response",206,254802,"0.0-3.65-0.65","l5trlggvscjd1a2",597,"70.csv","","1186.699999988079","resources/trios/L4T2A3.jpg","38","restless",0.7,0.6,0.2,0.0353805289382858,"true"
"image-keyboard-response",207,255208,"0.0-3.65-1.65","l5trlggvscjd1a2",597,"70.csv","","null","resources/maskTrios/BT2B.jpg","null","",NA,NA,NA,NA,""
"image-keyboard-response",208,256414,"0.0-3.65-2.65","l5trlggvscjd1a2",597,"70.csv","","null","resources/images/coin2.png","null","",NA,NA,NA,NA,""
"image-keyboard-response",209,258237,"0.0-3.66-0.66","l5trlggvscjd1a2",597,"70.csv","","1821.800000011921","resources/trios/L1T1A3.jpg","39","restless",0.7,0.6,0.2,0.813460415359759,"false"
"image-keyboard-response",210,258639,"0.0-3.66-1.66","l5trlggvscjd1a2",597,"70.csv","","null","resources/maskTrios/BBA3.jpg","null","",NA,NA,NA,NA,""
"image-keyboard-response",211,259840,"0.0-3.66-2.66","l5trlggvscjd1a2",597,"70.csv","","null","resources/images/fishbone.png","null","",NA,NA,NA,NA,""
"image-keyboard-response",212,261123,"0.0-3.67-0.67","l5trlggvscjd1a2",597,"70.csv","","1281.0999999642372","resources/trios/L1T1A2.jpg","38","restless",0.7,0.6,0.3,0.759910399984602,"false"
"image-keyboard-response",213,261524,"0.0-3.67-1.67","l5trlggvscjd1a2",597,"70.csv","","null","resources/maskTrios/BT1B.jpg","null","",NA,NA,NA,NA,""
"image-keyboard-response",214,262731,"0.0-3.67-2.67","l5trlggvscjd1a2",597,"70.csv","","null","resources/images/fishbone.png","null","",NA,NA,NA,NA,""
"image-keyboard-response",215,263166,"0.0-3.68-0.68","l5trlggvscjd1a2",597,"70.csv","","434","resources/trios/L1T2A2.jpg","37","restless",0.7,0.6,0.3,0.0460737854026243,"true"
"image-keyboard-response",216,263572,"0.0-3.68-1.68","l5trlggvscjd1a2",597,"70.csv","","null","resources/maskTrios/L1BB.jpg","null","",NA,NA,NA,NA,""
"image-keyboard-response",217,264779,"0.0-3.68-2.68","l5trlggvscjd1a2",597,"70.csv","","null","resources/images/coin2.png","null","",NA,NA,NA,NA,""
"image-keyboard-response",218,266542,"0.0-3.69-0.69","l5trlggvscjd1a2",597,"70.csv","","1761.199999988079","resources/trios/L1T1A3.jpg","39","restless",0.7,0.6,0.3,0.907985887868627,"false"
"image-keyboard-response",219,266948,"0.0-3.69-1.69","l5trlggvscjd1a2",597,"70.csv","","null","resources/maskTrios/BBA3.jpg","null","",NA,NA,NA,NA,""
"image-keyboard-response",220,268154,"0.0-3.69-2.69","l5trlggvscjd1a2",597,"70.csv","","null","resources/images/fishbone.png","null","",NA,NA,NA,NA,""
"image-keyboard-response",221,268930,"0.0-3.70-0.70","l5trlggvscjd1a2",597,"70.csv","","774.6999999880791","resources/trios/L4T2A3.jpg","38","restless",0.7,0.6,0.3,0.362250224411665,"true"
"image-keyboard-response",222,269331,"0.0-3.70-1.70","l5trlggvscjd1a2",597,"70.csv","","null","resources/maskTrios/BT2B.jpg","null","",NA,NA,NA,NA,""
"image-keyboard-response",223,270535,"0.0-3.70-2.70","l5trlggvscjd1a2",597,"70.csv","","null","resources/images/coin2.png","null","",NA,NA,NA,NA,""
"image-keyboard-response",224,271127,"0.0-3.71-0.71","l5trlggvscjd1a2",597,"70.csv","","590.1999999880791","resources/trios/L1T2A3.jpg","38","restless",0.8,0.6,0.3,0.320274592880002,"true"
"image-keyboard-response",225,271529,"0.0-3.71-1.71","l5trlggvscjd1a2",597,"70.csv","","null","resources/maskTrios/BT2B.jpg","null","",NA,NA,NA,NA,""
"image-keyboard-response",226,272731,"0.0-3.71-2.71","l5trlggvscjd1a2",597,"70.csv","","null","resources/images/coin2.png","null","",NA,NA,NA,NA,""
"image-keyboard-response",227,273716,"0.0-3.72-0.72","l5trlggvscjd1a2",597,"70.csv","","984.1000000238419","resources/trios/L4T1A2.jpg","37","restless",0.7,0.6,0.3,0.0512854734646131,"true"
"image-keyboard-response",228,274122,"0.0-3.72-1.72","l5trlggvscjd1a2",597,"70.csv","","null","resources/maskTrios/L4BB.jpg","null","",NA,NA,NA,NA,""
"image-keyboard-response",229,275328,"0.0-3.72-2.72","l5trlggvscjd1a2",597,"70.csv","","null","resources/images/coin2.png","null","",NA,NA,NA,NA,""
"image-keyboard-response",230,276616,"0.0-3.73-0.73","l5trlggvscjd1a2",597,"70.csv","","1286","resources/trios/L4T1A3.jpg","37","restless",0.8,0.6,0.3,0.836031921159061,"false"
"image-keyboard-response",231,277022,"0.0-3.73-1.73","l5trlggvscjd1a2",597,"70.csv","","null","resources/maskTrios/L4BB.jpg","null","",NA,NA,NA,NA,""
"image-keyboard-response",232,278229,"0.0-3.73-2.73","l5trlggvscjd1a2",597,"70.csv","","null","resources/images/fishbone.png","null","",NA,NA,NA,NA,""
"image-keyboard-response",233,281873,"0.0-3.74-0.74","l5trlggvscjd1a2",597,"70.csv","","3642.400000035763","resources/trios/L1T1A2.jpg","39","restless",0.8,0.6,0.3,0.802422931359924,"false"
"image-keyboard-response",234,282279,"0.0-3.74-1.74","l5trlggvscjd1a2",597,"70.csv","","null","resources/maskTrios/BBA2.jpg","null","",NA,NA,NA,NA,""
"image-keyboard-response",235,283482,"0.0-3.74-2.74","l5trlggvscjd1a2",597,"70.csv","","null","resources/images/fishbone.png","null","",NA,NA,NA,NA,""
"image-keyboard-response",236,284208,"0.0-3.75-0.75","l5trlggvscjd1a2",597,"70.csv","","724.8999999761581","resources/trios/L4T2A3.jpg","38","restless",0.8,0.6,0.4,0.655369632754844,"false"
"image-keyboard-response",237,284610,"0.0-3.75-1.75","l5trlggvscjd1a2",597,"70.csv","","null","resources/maskTrios/BT2B.jpg","null","",NA,NA,NA,NA,""
"image-keyboard-response",238,285815,"0.0-3.75-2.75","l5trlggvscjd1a2",597,"70.csv","","null","resources/images/fishbone.png","null","",NA,NA,NA,NA,""
"image-keyboard-response",239,286840,"0.0-3.76-0.76","l5trlggvscjd1a2",597,"70.csv","","1024.3999999761581","resources/trios/L4T1A2.jpg","37","restless",0.8,0.6,0.4,0.235649167601918,"true"
"image-keyboard-response",240,287247,"0.0-3.76-1.76","l5trlggvscjd1a2",597,"70.csv","","null","resources/maskTrios/L4BB.jpg","null","",NA,NA,NA,NA,""
"image-keyboard-response",241,288454,"0.0-3.76-2.76","l5trlggvscjd1a2",597,"70.csv","","null","resources/images/coin2.png","null","",NA,NA,NA,NA,""
"image-keyboard-response",242,289840,"0.0-3.77-0.77","l5trlggvscjd1a2",597,"70.csv","","1384.5","resources/trios/L4T1A3.jpg","37","restless",0.8,0.6,0.4,0.9905070166208,"false"
"image-keyboard-response",243,290247,"0.0-3.77-1.77","l5trlggvscjd1a2",597,"70.csv","","null","resources/maskTrios/L4BB.jpg","null","",NA,NA,NA,NA,""
"image-keyboard-response",244,291448,"0.0-3.77-2.77","l5trlggvscjd1a2",597,"70.csv","","null","resources/images/fishbone.png","null","",NA,NA,NA,NA,""
"image-keyboard-response",245,292861,"0.0-3.78-0.78","l5trlggvscjd1a2",597,"70.csv","","1411.300000011921","resources/trios/L1T2A3.jpg","38","restless",0.7,0.6,0.3,0.815321460829594,"false"
"image-keyboard-response",246,293265,"0.0-3.78-1.78","l5trlggvscjd1a2",597,"70.csv","","null","resources/maskTrios/BT2B.jpg","null","",NA,NA,NA,NA,""
"image-keyboard-response",247,294472,"0.0-3.78-2.78","l5trlggvscjd1a2",597,"70.csv","","null","resources/images/fishbone.png","null","",NA,NA,NA,NA,""
"image-keyboard-response",248,295713,"0.0-3.79-0.79","l5trlggvscjd1a2",597,"70.csv","","1240","resources/trios/L1T2A3.jpg","38","restless",0.7,0.6,0.3,0.980806371958614,"false"
"image-keyboard-response",249,296115,"0.0-3.79-1.79","l5trlggvscjd1a2",597,"70.csv","","null","resources/maskTrios/BT2B.jpg","null","",NA,NA,NA,NA,""
"image-keyboard-response",250,297321,"0.0-3.79-2.79","l5trlggvscjd1a2",597,"70.csv","","null","resources/images/fishbone.png","null","",NA,NA,NA,NA,""
"image-keyboard-response",251,298991,"0.0-3.80-0.80","l5trlggvscjd1a2",597,"70.csv","","1668.6000000238419","resources/trios/L1T1A2.jpg","37","restless",0.7,0.7,0.3,0.0906307192338589,"true"
"image-keyboard-response",252,299393,"0.0-3.80-1.80","l5trlggvscjd1a2",597,"70.csv","","null","resources/maskTrios/L1BB.jpg","null","",NA,NA,NA,NA,""
"image-keyboard-response",253,300599,"0.0-3.80-2.80","l5trlggvscjd1a2",597,"70.csv","","null","resources/images/coin2.png","null","",NA,NA,NA,NA,""
"image-keyboard-response",254,301899,"0.0-3.81-0.81","l5trlggvscjd1a2",597,"70.csv","","1299.6000000238419","resources/trios/L1T2A2.jpg","37","restless",0.7,0.7,0.3,0.0198174888446216,"true"
"image-keyboard-response",255,302301,"0.0-3.81-1.81","l5trlggvscjd1a2",597,"70.csv","","null","resources/maskTrios/L1BB.jpg","null","",NA,NA,NA,NA,""
"image-keyboard-response",256,303507,"0.0-3.81-2.81","l5trlggvscjd1a2",597,"70.csv","","null","resources/images/coin2.png","null","",NA,NA,NA,NA,""
"image-keyboard-response",257,304939,"0.0-3.82-0.82","l5trlggvscjd1a2",597,"70.csv","","1431.4000000357628","resources/trios/L1T2A3.jpg","39","restless",0.7,0.7,0.3,0.655060255646625,"false"
"image-keyboard-response",258,305345,"0.0-3.82-1.82","l5trlggvscjd1a2",597,"70.csv","","null","resources/maskTrios/BBA3.jpg","null","",NA,NA,NA,NA,""
"image-keyboard-response",259,306549,"0.0-3.82-2.82","l5trlggvscjd1a2",597,"70.csv","","null","resources/images/fishbone.png","null","",NA,NA,NA,NA,""
"image-keyboard-response",260,307420,"0.0-3.83-0.83","l5trlggvscjd1a2",597,"70.csv","","870.5","resources/trios/L4T1A2.jpg","38","restless",0.7,0.7,0.3,0.789559315916719,"false"
"image-keyboard-response",261,307825,"0.0-3.83-1.83","l5trlggvscjd1a2",597,"70.csv","","null","resources/maskTrios/BT1B.jpg","null","",NA,NA,NA,NA,""
"image-keyboard-response",262,309032,"0.0-3.83-2.83","l5trlggvscjd1a2",597,"70.csv","","null","resources/images/fishbone.png","null","",NA,NA,NA,NA,""
"image-keyboard-response",263,309543,"0.0-3.84-0.84","l5trlggvscjd1a2",597,"70.csv","","510.69999998807907","resources/trios/L1T1A2.jpg","37","restless",0.7,0.7,0.3,0.00278572184303605,"true"
"image-keyboard-response",264,309948,"0.0-3.84-1.84","l5trlggvscjd1a2",597,"70.csv","","null","resources/maskTrios/L1BB.jpg","null","",NA,NA,NA,NA,""
"image-keyboard-response",265,311155,"0.0-3.84-2.84","l5trlggvscjd1a2",597,"70.csv","","null","resources/images/coin2.png","null","",NA,NA,NA,NA,""
"image-keyboard-response",266,312188,"0.0-3.85-0.85","l5trlggvscjd1a2",597,"70.csv","","1031.5","resources/trios/L1T2A2.jpg","38","restless",0.7,0.7,0.3,0.459640295220557,"true"
"image-keyboard-response",267,312590,"0.0-3.85-1.85","l5trlggvscjd1a2",597,"70.csv","","null","resources/maskTrios/BT2B.jpg","null","",NA,NA,NA,NA,""
"image-keyboard-response",268,313797,"0.0-3.85-2.85","l5trlggvscjd1a2",597,"70.csv","","null","resources/images/coin2.png","null","",NA,NA,NA,NA,""
"image-keyboard-response",269,314463,"0.0-3.86-0.86","l5trlggvscjd1a2",597,"70.csv","","664.8000000119209","resources/trios/L4T2A3.jpg","38","restless",0.6,0.7,0.3,0.905248175713918,"false"
"image-keyboard-response",270,314865,"0.0-3.86-1.86","l5trlggvscjd1a2",597,"70.csv","","null","resources/maskTrios/BT2B.jpg","null","",NA,NA,NA,NA,""
"image-keyboard-response",271,316067,"0.0-3.86-2.86","l5trlggvscjd1a2",597,"70.csv","","null","resources/images/fishbone.png","null","",NA,NA,NA,NA,""
"image-keyboard-response",272,317404,"0.0-3.87-0.87","l5trlggvscjd1a2",597,"70.csv","","1336","resources/trios/L1T1A3.jpg","37","restless",0.6,0.7,0.2,0.0946125683877372,"true"
"image-keyboard-response",273,317810,"0.0-3.87-1.87","l5trlggvscjd1a2",597,"70.csv","","null","resources/maskTrios/L1BB.jpg","null","",NA,NA,NA,NA,""
"image-keyboard-response",274,319016,"0.0-3.87-2.87","l5trlggvscjd1a2",597,"70.csv","","null","resources/images/coin2.png","null","",NA,NA,NA,NA,""
"image-keyboard-response",275,320943,"0.0-3.88-0.88","l5trlggvscjd1a2",597,"70.csv","","1926.300000011921","resources/trios/L4T1A3.jpg","37","restless",0.6,0.8,0.2,0.695588406097189,"false"
"image-keyboard-response",276,321349,"0.0-3.88-1.88","l5trlggvscjd1a2",597,"70.csv","","null","resources/maskTrios/L4BB.jpg","null","",NA,NA,NA,NA,""
"image-keyboard-response",277,322555,"0.0-3.88-2.88","l5trlggvscjd1a2",597,"70.csv","","null","resources/images/fishbone.png","null","",NA,NA,NA,NA,""
"image-keyboard-response",278,323246,"0.0-3.89-0.89","l5trlggvscjd1a2",597,"70.csv","","690","resources/trios/L4T1A3.jpg","39","restless",0.6,0.8,0.2,0.695393892390707,"false"
"image-keyboard-response",279,323649,"0.0-3.89-1.89","l5trlggvscjd1a2",597,"70.csv","","null","resources/maskTrios/BBA3.jpg","null","",NA,NA,NA,NA,""
"image-keyboard-response",280,324855,"0.0-3.89-2.89","l5trlggvscjd1a2",597,"70.csv","","null","resources/images/fishbone.png","null","",NA,NA,NA,NA,""
"image-keyboard-response",281,325479,"0.0-3.90-0.90","l5trlggvscjd1a2",597,"70.csv","","622.2000000476837","resources/trios/L4T2A3.jpg","38","restless",0.6,0.8,0.2,0.589387857503093,"true"
"image-keyboard-response",282,325882,"0.0-3.90-1.90","l5trlggvscjd1a2",597,"70.csv","","null","resources/maskTrios/BT2B.jpg","null","",NA,NA,NA,NA,""
"image-keyboard-response",283,327089,"0.0-3.90-2.90","l5trlggvscjd1a2",597,"70.csv","","null","resources/images/coin2.png","null","",NA,NA,NA,NA,""
"image-keyboard-response",284,329037,"0.0-3.91-0.91","l5trlggvscjd1a2",597,"70.csv","","1946.7000000476837","resources/trios/L1T1A3.jpg","39","restless",0.6,0.9,0.2,0.741930301529599,"false"
"image-keyboard-response",285,329443,"0.0-3.91-1.91","l5trlggvscjd1a2",597,"70.csv","","null","resources/maskTrios/BBA3.jpg","null","",NA,NA,NA,NA,""
"image-keyboard-response",286,330649,"0.0-3.91-2.91","l5trlggvscjd1a2",597,"70.csv","","null","resources/images/fishbone.png","null","",NA,NA,NA,NA,""
"image-keyboard-response",287,331422,"0.0-3.92-0.92","l5trlggvscjd1a2",597,"70.csv","","772.1999999880791","resources/trios/L1T2A3.jpg","37","restless",0.6,0.8,0.2,0.952361854274349,"false"
"image-keyboard-response",288,331828,"0.0-3.92-1.92","l5trlggvscjd1a2",597,"70.csv","","null","resources/maskTrios/L1BB.jpg","null","",NA,NA,NA,NA,""
"image-keyboard-response",289,333032,"0.0-3.92-2.92","l5trlggvscjd1a2",597,"70.csv","","null","resources/images/fishbone.png","null","",NA,NA,NA,NA,""
"image-keyboard-response",290,334193,"0.0-3.93-0.93","l5trlggvscjd1a2",597,"70.csv","","1159.5","resources/trios/L1T1A2.jpg","37","restless",0.6,0.8,0.2,0.693316834585131,"false"
"image-keyboard-response",291,334599,"0.0-3.93-1.93","l5trlggvscjd1a2",597,"70.csv","","null","resources/maskTrios/L1BB.jpg","null","",NA,NA,NA,NA,""
"image-keyboard-response",292,335801,"0.0-3.93-2.93","l5trlggvscjd1a2",597,"70.csv","","null","resources/images/fishbone.png","null","",NA,NA,NA,NA,""
"image-keyboard-response",293,336965,"0.0-3.94-0.94","l5trlggvscjd1a2",597,"70.csv","","1162.3999999761581","resources/trios/L4T1A2.jpg","38","restless",0.5,0.7,0.2,0.424656056023267,"true"
"image-keyboard-response",294,337371,"0.0-3.94-1.94","l5trlggvscjd1a2",597,"70.csv","","null","resources/maskTrios/BT1B.jpg","null","",NA,NA,NA,NA,""
"image-keyboard-response",295,338577,"0.0-3.94-2.94","l5trlggvscjd1a2",597,"70.csv","","null","resources/images/coin2.png","null","",NA,NA,NA,NA,""
"image-keyboard-response",296,339562,"0.0-3.95-0.95","l5trlggvscjd1a2",597,"70.csv","","983.0999999642372","resources/trios/L4T1A2.jpg","39","restless",0.5,0.6,0.2,0.762911589058693,"false"
"image-keyboard-response",297,339966,"0.0-3.95-1.95","l5trlggvscjd1a2",597,"70.csv","","null","resources/maskTrios/BBA2.jpg","null","",NA,NA,NA,NA,""
"image-keyboard-response",298,341172,"0.0-3.95-2.95","l5trlggvscjd1a2",597,"70.csv","","null","resources/images/fishbone.png","null","",NA,NA,NA,NA,""
"image-keyboard-response",299,341770,"0.0-3.96-0.96","l5trlggvscjd1a2",597,"70.csv","","596.2999999523163","resources/trios/L1T2A2.jpg","38","restless",0.5,0.6,0.1,0.685317437531472,"false"
"image-keyboard-response",300,342176,"0.0-3.96-1.96","l5trlggvscjd1a2",597,"70.csv","","null","resources/maskTrios/BT2B.jpg","null","",NA,NA,NA,NA,""
"image-keyboard-response",301,343383,"0.0-3.96-2.96","l5trlggvscjd1a2",597,"70.csv","","null","resources/images/fishbone.png","null","",NA,NA,NA,NA,""
"image-keyboard-response",302,344461,"0.0-3.97-0.97","l5trlggvscjd1a2",597,"70.csv","","1076.8999999761581","resources/trios/L4T2A3.jpg","38","restless",0.5,0.6,0.1,0.240771067311305,"true"
"image-keyboard-response",303,344866,"0.0-3.97-1.97","l5trlggvscjd1a2",597,"70.csv","","null","resources/maskTrios/BT2B.jpg","null","",NA,NA,NA,NA,""
"image-keyboard-response",304,346072,"0.0-3.97-2.97","l5trlggvscjd1a2",597,"70.csv","","null","resources/images/coin2.png","null","",NA,NA,NA,NA,""
"image-keyboard-response",305,348125,"0.0-3.98-0.98","l5trlggvscjd1a2",597,"70.csv","","2051.300000011921","resources/trios/L4T1A2.jpg","37","restless",0.5,0.6,0.1,0.277528229603685,"true"
"image-keyboard-response",306,348527,"0.0-3.98-1.98","l5trlggvscjd1a2",597,"70.csv","","null","resources/maskTrios/L4BB.jpg","null","",NA,NA,NA,NA,""
"image-keyboard-response",307,349733,"0.0-3.98-2.98","l5trlggvscjd1a2",597,"70.csv","","null","resources/images/coin2.png","null","",NA,NA,NA,NA,""
"image-keyboard-response",308,351254,"0.0-3.99-0.99","l5trlggvscjd1a2",597,"70.csv","","1520.5","resources/trios/L1T1A2.jpg","38","restless",0.5,0.6,0.1,0.17516684865087,"true"
"image-keyboard-response",309,351661,"0.0-3.99-1.99","l5trlggvscjd1a2",597,"70.csv","","null","resources/maskTrios/BT1B.jpg","null","",NA,NA,NA,NA,""
"image-keyboard-response",310,352866,"0.0-3.99-2.99","l5trlggvscjd1a2",597,"70.csv","","null","resources/images/coin2.png","null","",NA,NA,NA,NA,""
"image-keyboard-response",311,356143,"0.0-3.100-0.100","l5trlggvscjd1a2",597,"70.csv","","3276","resources/trios/L4T1A3.jpg","37","restless",0.5,0.6,0.1,0.195127577039059,"true"
"image-keyboard-response",312,356546,"0.0-3.100-1.100","l5trlggvscjd1a2",597,"70.csv","","null","resources/maskTrios/L4BB.jpg","null","",NA,NA,NA,NA,""
"image-keyboard-response",313,357749,"0.0-3.100-2.100","l5trlggvscjd1a2",597,"70.csv","","null","resources/images/coin2.png","null","",NA,NA,NA,NA,""
"image-keyboard-response",314,359528,"0.0-3.101-0.101","l5trlggvscjd1a2",597,"70.csv","","1777.3999999761581","resources/trios/L1T2A2.jpg","38","restless",0.5,0.6,0.2,0.279291312176056,"true"
"image-keyboard-response",315,359933,"0.0-3.101-1.101","l5trlggvscjd1a2",597,"70.csv","","null","resources/maskTrios/BT2B.jpg","null","",NA,NA,NA,NA,""
"image-keyboard-response",316,361140,"0.0-3.101-2.101","l5trlggvscjd1a2",597,"70.csv","","null","resources/images/coin2.png","null","",NA,NA,NA,NA,""
"image-keyboard-response",317,364694,"0.0-3.102-0.102","l5trlggvscjd1a2",597,"70.csv","","3553.599999964237","resources/trios/L4T1A3.jpg","37","restless",0.5,0.6,0.2,0.780306966670914,"false"
"image-keyboard-response",318,365100,"0.0-3.102-1.102","l5trlggvscjd1a2",597,"70.csv","","null","resources/maskTrios/L4BB.jpg","null","",NA,NA,NA,NA,""
"image-keyboard-response",319,366301,"0.0-3.102-2.102","l5trlggvscjd1a2",597,"70.csv","","null","resources/images/fishbone.png","null","",NA,NA,NA,NA,""
"image-keyboard-response",320,368151,"0.0-3.103-0.103","l5trlggvscjd1a2",597,"70.csv","","1849.199999988079","resources/trios/L1T2A3.jpg","38","restless",0.5,0.6,0.2,0.800917035070981,"false"
"image-keyboard-response",321,368555,"0.0-3.103-1.103","l5trlggvscjd1a2",597,"70.csv","","null","resources/maskTrios/BT2B.jpg","null","",NA,NA,NA,NA,""
"image-keyboard-response",322,369761,"0.0-3.103-2.103","l5trlggvscjd1a2",597,"70.csv","","null","resources/images/fishbone.png","null","",NA,NA,NA,NA,""
"image-keyboard-response",323,372870,"0.0-3.104-0.104","l5trlggvscjd1a2",597,"70.csv","","3107.5","resources/trios/L4T1A3.jpg","37","restless",0.4,0.6,0.3,0.186905400956574,"true"
"image-keyboard-response",324,373276,"0.0-3.104-1.104","l5trlggvscjd1a2",597,"70.csv","","null","resources/maskTrios/L4BB.jpg","null","",NA,NA,NA,NA,""
"image-keyboard-response",325,374479,"0.0-3.104-2.104","l5trlggvscjd1a2",597,"70.csv","","null","resources/images/coin2.png","null","",NA,NA,NA,NA,""
"image-keyboard-response",326,375975,"0.0-3.105-0.105","l5trlggvscjd1a2",597,"70.csv","","1495","resources/trios/L4T1A2.jpg","39","restless",0.4,0.6,0.3,0.487183651503783,"false"
"image-keyboard-response",327,376381,"0.0-3.105-1.105","l5trlggvscjd1a2",597,"70.csv","","null","resources/maskTrios/BBA2.jpg","null","",NA,NA,NA,NA,""
"image-keyboard-response",328,377583,"0.0-3.105-2.105","l5trlggvscjd1a2",597,"70.csv","","null","resources/images/fishbone.png","null","",NA,NA,NA,NA,""
"image-keyboard-response",329,379082,"0.0-3.106-0.106","l5trlggvscjd1a2",597,"70.csv","","1497.5999999642372","resources/trios/L1T2A2.jpg","38","restless",0.5,0.6,0.3,0.0387570020850085,"true"
"image-keyboard-response",330,379483,"0.0-3.106-1.106","l5trlggvscjd1a2",597,"70.csv","","null","resources/maskTrios/BT2B.jpg","null","",NA,NA,NA,NA,""
"image-keyboard-response",331,380690,"0.0-3.106-2.106","l5trlggvscjd1a2",597,"70.csv","","null","resources/images/coin2.png","null","",NA,NA,NA,NA,""
"image-keyboard-response",332,381946,"0.0-3.107-0.107","l5trlggvscjd1a2",597,"70.csv","","1255.2999999523163","resources/trios/L1T1A2.jpg","37","restless",0.5,0.6,0.3,0.220039763432669,"true"
"image-keyboard-response",333,382349,"0.0-3.107-1.107","l5trlggvscjd1a2",597,"70.csv","","null","resources/maskTrios/L1BB.jpg","null","",NA,NA,NA,NA,""
"image-keyboard-response",334,383556,"0.0-3.107-2.107","l5trlggvscjd1a2",597,"70.csv","","null","resources/images/coin2.png","null","",NA,NA,NA,NA,""
"image-keyboard-response",335,385331,"0.0-3.108-0.108","l5trlggvscjd1a2",597,"70.csv","","1774.5","resources/trios/L4T2A2.jpg","38","restless",0.5,0.6,0.3,0.858991424594386,"false"
"image-keyboard-response",336,385733,"0.0-3.108-1.108","l5trlggvscjd1a2",597,"70.csv","","null","resources/maskTrios/BT2B.jpg","null","",NA,NA,NA,NA,""
"image-keyboard-response",337,386939,"0.0-3.108-2.108","l5trlggvscjd1a2",597,"70.csv","","null","resources/images/fishbone.png","null","",NA,NA,NA,NA,""
"image-keyboard-response",338,388851,"0.0-3.109-0.109","l5trlggvscjd1a2",597,"70.csv","","1910.7000000476837","resources/trios/L4T1A2.jpg","37","restless",0.5,0.6,0.3,0.123289724883648,"true"
"image-keyboard-response",339,389257,"0.0-3.109-1.109","l5trlggvscjd1a2",597,"70.csv","","null","resources/maskTrios/L4BB.jpg","null","",NA,NA,NA,NA,""
"image-keyboard-response",340,390464,"0.0-3.109-2.109","l5trlggvscjd1a2",597,"70.csv","","null","resources/images/coin2.png","null","",NA,NA,NA,NA,""
"image-keyboard-response",341,392021,"0.0-3.110-0.110","l5trlggvscjd1a2",597,"70.csv","","1555.5","resources/trios/L4T1A3.jpg","37","restless",0.4,0.6,0.3,0.492105572769325,"false"
"image-keyboard-response",342,392427,"0.0-3.110-1.110","l5trlggvscjd1a2",597,"70.csv","","null","resources/maskTrios/L4BB.jpg","null","",NA,NA,NA,NA,""
"image-keyboard-response",343,393634,"0.0-3.110-2.110","l5trlggvscjd1a2",597,"70.csv","","null","resources/images/fishbone.png","null","",NA,NA,NA,NA,""
"image-keyboard-response",344,395798,"0.0-3.111-0.111","l5trlggvscjd1a2",597,"70.csv","","2163","resources/trios/L4T1A3.jpg","39","restless",0.5,0.6,0.3,0.341792582142442,"false"
"image-keyboard-response",345,396200,"0.0-3.111-1.111","l5trlggvscjd1a2",597,"70.csv","","null","resources/maskTrios/BBA3.jpg","null","",NA,NA,NA,NA,""
"image-keyboard-response",346,397407,"0.0-3.111-2.111","l5trlggvscjd1a2",597,"70.csv","","null","resources/images/fishbone.png","null","",NA,NA,NA,NA,""
"image-keyboard-response",347,398075,"0.0-3.112-0.112","l5trlggvscjd1a2",597,"70.csv","","667.1999999880791","resources/trios/L1T2A2.jpg","38","restless",0.5,0.6,0.3,0.468132736553835,"true"
"image-keyboard-response",348,398478,"0.0-3.112-1.112","l5trlggvscjd1a2",597,"70.csv","","null","resources/maskTrios/BT2B.jpg","null","",NA,NA,NA,NA,""
"image-keyboard-response",349,399683,"0.0-3.112-2.112","l5trlggvscjd1a2",597,"70.csv","","null","resources/images/coin2.png","null","",NA,NA,NA,NA,""
"image-keyboard-response",350,400810,"0.0-3.113-0.113","l5trlggvscjd1a2",597,"70.csv","","1126.0999999642372","resources/trios/L1T1A2.jpg","37","restless",0.5,0.6,0.3,0.997861020968719,"false"
"image-keyboard-response",351,401217,"0.0-3.113-1.113","l5trlggvscjd1a2",597,"70.csv","","null","resources/maskTrios/L1BB.jpg","null","",NA,NA,NA,NA,""
"image-keyboard-response",352,402423,"0.0-3.113-2.113","l5trlggvscjd1a2",597,"70.csv","","null","resources/images/fishbone.png","null","",NA,NA,NA,NA,""
"image-keyboard-response",353,403752,"0.0-3.114-0.114","l5trlggvscjd1a2",597,"70.csv","","1327.6000000238419","resources/trios/L4T2A3.jpg","38","restless",0.5,0.6,0.3,0.471035967035859,"true"
"image-keyboard-response",354,404158,"0.0-3.114-1.114","l5trlggvscjd1a2",597,"70.csv","","null","resources/maskTrios/BT2B.jpg","null","",NA,NA,NA,NA,""
"image-keyboard-response",355,405365,"0.0-3.114-2.114","l5trlggvscjd1a2",597,"70.csv","","null","resources/images/coin2.png","null","",NA,NA,NA,NA,""
"image-keyboard-response",356,406582,"0.0-3.115-0.115","l5trlggvscjd1a2",597,"70.csv","","1214.5","resources/trios/L1T1A2.jpg","37","restless",0.5,0.6,0.3,0.866110061262194,"false"
"image-keyboard-response",357,406984,"0.0-3.115-1.115","l5trlggvscjd1a2",597,"70.csv","","null","resources/maskTrios/L1BB.jpg","null","",NA,NA,NA,NA,""
"image-keyboard-response",358,408190,"0.0-3.115-2.115","l5trlggvscjd1a2",597,"70.csv","","null","resources/images/fishbone.png","null","",NA,NA,NA,NA,""
"image-keyboard-response",359,409242,"0.0-3.116-0.116","l5trlggvscjd1a2",597,"70.csv","","1050.5","resources/trios/L1T1A2.jpg","39","restless",0.5,0.6,0.3,0.708215826108674,"false"
"image-keyboard-response",360,409648,"0.0-3.116-1.116","l5trlggvscjd1a2",597,"70.csv","","null","resources/maskTrios/BBA2.jpg","null","",NA,NA,NA,NA,""
"image-keyboard-response",361,410850,"0.0-3.116-2.116","l5trlggvscjd1a2",597,"70.csv","","null","resources/images/fishbone.png","null","",NA,NA,NA,NA,""
"image-keyboard-response",362,411294,"0.0-3.117-0.117","l5trlggvscjd1a2",597,"70.csv","","442.89999997615814","resources/trios/L4T1A2.jpg","38","restless",0.5,0.6,0.3,0.245992004507412,"true"
"image-keyboard-response",363,411700,"0.0-3.117-1.117","l5trlggvscjd1a2",597,"70.csv","","null","resources/maskTrios/BT1B.jpg","null","",NA,NA,NA,NA,""
"image-keyboard-response",364,412907,"0.0-3.117-2.117","l5trlggvscjd1a2",597,"70.csv","","null","resources/images/coin2.png","null","",NA,NA,NA,NA,""
"image-keyboard-response",365,413929,"0.0-3.118-0.118","l5trlggvscjd1a2",597,"70.csv","","1020.8000000119209","resources/trios/L1T1A2.jpg","37","restless",0.5,0.6,0.4,0.0455440642707601,"true"
"image-keyboard-response",366,414334,"0.0-3.118-1.118","l5trlggvscjd1a2",597,"70.csv","","null","resources/maskTrios/L1BB.jpg","null","",NA,NA,NA,NA,""
"image-keyboard-response",367,415537,"0.0-3.118-2.118","l5trlggvscjd1a2",597,"70.csv","","null","resources/images/coin2.png","null","",NA,NA,NA,NA,""
"image-keyboard-response",368,421499,"0.0-3.119-0.119","l5trlggvscjd1a2",597,"70.csv","","5960.899999976158","resources/trios/L4T1A3.jpg","38","restless",0.5,0.6,0.4,0.690909313981253,"false"
"image-keyboard-response",369,421901,"0.0-3.119-1.119","l5trlggvscjd1a2",597,"70.csv","","null","resources/maskTrios/BT1B.jpg","null","",NA,NA,NA,NA,""
"image-keyboard-response",370,423107,"0.0-3.119-2.119","l5trlggvscjd1a2",597,"70.csv","","null","resources/images/fishbone.png","null","",NA,NA,NA,NA,""
"image-keyboard-response",371,424387,"0.0-3.120-0.120","l5trlggvscjd1a2",597,"70.csv","","1278.1000000238419","resources/trios/L4T1A2.jpg","37","restless",0.5,0.6,0.4,0.994063225531828,"false"
"image-keyboard-response",372,424793,"0.0-3.120-1.120","l5trlggvscjd1a2",597,"70.csv","","null","resources/maskTrios/L4BB.jpg","null","",NA,NA,NA,NA,""
"image-keyboard-response",373,426000,"0.0-3.120-2.120","l5trlggvscjd1a2",597,"70.csv","","null","resources/images/fishbone.png","null","",NA,NA,NA,NA,""
"image-keyboard-response",374,428927,"0.0-3.121-0.121","l5trlggvscjd1a2",597,"70.csv","","2926.100000023842","resources/trios/L1T1A2.jpg","37","restless",0.5,0.6,0.4,0.699257754350164,"false"
"image-keyboard-response",375,429331,"0.0-3.121-1.121","l5trlggvscjd1a2",597,"70.csv","","null","resources/maskTrios/L1BB.jpg","null","",NA,NA,NA,NA,""
"image-keyboard-response",376,430534,"0.0-3.121-2.121","l5trlggvscjd1a2",597,"70.csv","","null","resources/images/fishbone.png","null","",NA,NA,NA,NA,""
"image-keyboard-response",377,432199,"0.0-3.122-0.122","l5trlggvscjd1a2",597,"70.csv","","1663.300000011921","resources/trios/L4T2A2.jpg","38","restless",0.6,0.6,0.4,0.855892162862152,"false"
"image-keyboard-response",378,432600,"0.0-3.122-1.122","l5trlggvscjd1a2",597,"70.csv","","null","resources/maskTrios/BT2B.jpg","null","",NA,NA,NA,NA,""
"image-keyboard-response",379,433807,"0.0-3.122-2.122","l5trlggvscjd1a2",597,"70.csv","","null","resources/images/fishbone.png","null","",NA,NA,NA,NA,""
"image-keyboard-response",380,435950,"0.0-3.123-0.123","l5trlggvscjd1a2",597,"70.csv","","2141.300000011921","resources/trios/L1T1A3.jpg","39","restless",0.6,0.5,0.4,0.982887801055033,"false"
"image-keyboard-response",381,436351,"0.0-3.123-1.123","l5trlggvscjd1a2",597,"70.csv","","null","resources/maskTrios/BBA3.jpg","null","",NA,NA,NA,NA,""
"image-keyboard-response",382,437557,"0.0-3.123-2.123","l5trlggvscjd1a2",597,"70.csv","","null","resources/images/fishbone.png","null","",NA,NA,NA,NA,""
"image-keyboard-response",383,438000,"0.0-3.124-0.124","l5trlggvscjd1a2",597,"70.csv","","442","resources/trios/L1T1A3.jpg","37","restless",0.6,0.5,0.4,0.957384630493609,"false"
"image-keyboard-response",384,438407,"0.0-3.124-1.124","l5trlggvscjd1a2",597,"70.csv","","null","resources/maskTrios/L1BB.jpg","null","",NA,NA,NA,NA,""
"image-keyboard-response",385,439609,"0.0-3.124-2.124","l5trlggvscjd1a2",597,"70.csv","","null","resources/images/fishbone.png","null","",NA,NA,NA,NA,""
"image-keyboard-response",386,440029,"0.0-3.125-0.125","l5trlggvscjd1a2",597,"70.csv","","418.9000000357628","resources/trios/L4T1A2.jpg","38","restless",0.6,0.5,0.4,0.0704420865352053,"true"
"image-keyboard-response",387,440434,"0.0-3.125-1.125","l5trlggvscjd1a2",597,"70.csv","","null","resources/maskTrios/BT1B.jpg","null","",NA,NA,NA,NA,""
"image-keyboard-response",388,441641,"0.0-3.125-2.125","l5trlggvscjd1a2",597,"70.csv","","null","resources/images/coin2.png","null","",NA,NA,NA,NA,""
"image-keyboard-response",389,443161,"0.0-3.126-0.126","l5trlggvscjd1a2",597,"70.csv","","1519.5","resources/trios/L1T2A2.jpg","38","restless",0.6,0.5,0.4,0.152388218033787,"true"
"image-keyboard-response",390,443567,"0.0-3.126-1.126","l5trlggvscjd1a2",597,"70.csv","","null","resources/maskTrios/BT2B.jpg","null","",NA,NA,NA,NA,""
"image-keyboard-response",391,444774,"0.0-3.126-2.126","l5trlggvscjd1a2",597,"70.csv","","null","resources/images/coin2.png","null","",NA,NA,NA,NA,""
"image-keyboard-response",392,445397,"0.0-3.127-0.127","l5trlggvscjd1a2",597,"70.csv","","622.3000000119209","resources/trios/L4T2A3.jpg","37","restless",0.6,0.5,0.4,0.280806533671044,"true"
"image-keyboard-response",393,445801,"0.0-3.127-1.127","l5trlggvscjd1a2",597,"70.csv","","null","resources/maskTrios/L4BB.jpg","null","",NA,NA,NA,NA,""
"image-keyboard-response",394,447005,"0.0-3.127-2.127","l5trlggvscjd1a2",597,"70.csv","","null","resources/images/coin2.png","null","",NA,NA,NA,NA,""
"image-keyboard-response",395,448063,"0.0-3.128-0.128","l5trlggvscjd1a2",597,"70.csv","","1057.7999999523163","resources/trios/L4T2A3.jpg","37","restless",0.6,0.5,0.4,0.436248506267953,"true"
"image-keyboard-response",396,448468,"0.0-3.128-1.128","l5trlggvscjd1a2",597,"70.csv","","null","resources/maskTrios/L4BB.jpg","null","",NA,NA,NA,NA,""
"image-keyboard-response",397,449669,"0.0-3.128-2.128","l5trlggvscjd1a2",597,"70.csv","","null","resources/images/coin2.png","null","",NA,NA,NA,NA,""
"image-keyboard-response",398,451759,"0.0-3.129-0.129","l5trlggvscjd1a2",597,"70.csv","","2088.399999976158","resources/trios/L1T2A3.jpg","38","restless",0.6,0.5,0.4,0.556398259019147,"false"
"image-keyboard-response",399,452164,"0.0-3.129-1.129","l5trlggvscjd1a2",597,"70.csv","","null","resources/maskTrios/BT2B.jpg","null","",NA,NA,NA,NA,""
"image-keyboard-response",400,453368,"0.0-3.129-2.129","l5trlggvscjd1a2",597,"70.csv","","null","resources/images/fishbone.png","null","",NA,NA,NA,NA,""
"image-keyboard-response",401,454875,"0.0-3.130-0.130","l5trlggvscjd1a2",597,"70.csv","","1505.9000000357628","resources/trios/L1T2A3.jpg","39","restless",0.6,0.5,0.5,0.323503710746795,"true"
"image-keyboard-response",402,455281,"0.0-3.130-1.130","l5trlggvscjd1a2",597,"70.csv","","null","resources/maskTrios/BBA3.jpg","null","",NA,NA,NA,NA,""
"image-keyboard-response",403,456484,"0.0-3.130-2.130","l5trlggvscjd1a2",597,"70.csv","","null","resources/images/coin2.png","null","",NA,NA,NA,NA,""
"image-keyboard-response",404,457919,"0.0-3.131-0.131","l5trlggvscjd1a2",597,"70.csv","","1433.5999999642372","resources/trios/L4T1A3.jpg","37","restless",0.6,0.4,0.5,0.700050373077325,"false"
"image-keyboard-response",405,458325,"0.0-3.131-1.131","l5trlggvscjd1a2",597,"70.csv","","null","resources/maskTrios/L4BB.jpg","null","",NA,NA,NA,NA,""
"image-keyboard-response",406,459530,"0.0-3.131-2.131","l5trlggvscjd1a2",597,"70.csv","","null","resources/images/fishbone.png","null","",NA,NA,NA,NA,""
"image-keyboard-response",407,460966,"0.0-3.132-0.132","l5trlggvscjd1a2",597,"70.csv","","1434.5","resources/trios/L4T2A2.jpg","38","restless",0.6,0.4,0.5,0.447490153793536,"false"
"image-keyboard-response",408,461368,"0.0-3.132-1.132","l5trlggvscjd1a2",597,"70.csv","","null","resources/maskTrios/BT2B.jpg","null","",NA,NA,NA,NA,""
"image-keyboard-response",409,462574,"0.0-3.132-2.132","l5trlggvscjd1a2",597,"70.csv","","null","resources/images/fishbone.png","null","",NA,NA,NA,NA,""
"image-keyboard-response",410,464089,"0.0-3.133-0.133","l5trlggvscjd1a2",597,"70.csv","","1513.699999988079","resources/trios/L4T2A3.jpg","39","restless",0.6,0.4,0.6,0.315364210584419,"true"
"image-keyboard-response",411,464496,"0.0-3.133-1.133","l5trlggvscjd1a2",597,"70.csv","","null","resources/maskTrios/BBA3.jpg","null","",NA,NA,NA,NA,""
"image-keyboard-response",412,465701,"0.0-3.133-2.133","l5trlggvscjd1a2",597,"70.csv","","null","resources/images/coin2.png","null","",NA,NA,NA,NA,""
"image-keyboard-response",413,467853,"0.0-3.134-0.134","l5trlggvscjd1a2",597,"70.csv","","2150.7000000476837","resources/trios/L1T2A2.jpg","38","restless",0.6,0.4,0.7,0.608265870763924,"false"
"image-keyboard-response",414,468255,"0.0-3.134-1.134","l5trlggvscjd1a2",597,"70.csv","","null","resources/maskTrios/BT2B.jpg","null","",NA,NA,NA,NA,""
"image-keyboard-response",415,469462,"0.0-3.134-2.134","l5trlggvscjd1a2",597,"70.csv","","null","resources/images/fishbone.png","null","",NA,NA,NA,NA,""
"image-keyboard-response",416,470950,"0.0-3.135-0.135","l5trlggvscjd1a2",597,"70.csv","","1487.3999999761581","resources/trios/L1T2A2.jpg","38","restless",0.6,0.4,0.7,0.217904276617968,"true"
"image-keyboard-response",417,471355,"0.0-3.135-1.135","l5trlggvscjd1a2",597,"70.csv","","null","resources/maskTrios/BT2B.jpg","null","",NA,NA,NA,NA,""
"image-keyboard-response",418,472562,"0.0-3.135-2.135","l5trlggvscjd1a2",597,"70.csv","","null","resources/images/coin2.png","null","",NA,NA,NA,NA,""
"image-keyboard-response",419,476446,"0.0-3.136-0.136","l5trlggvscjd1a2",597,"70.csv","","3882.5","resources/trios/L1T1A3.jpg","37","restless",0.6,0.3,0.7,0.923699324671426,"false"
"image-keyboard-response",420,476851,"0.0-3.136-1.136","l5trlggvscjd1a2",597,"70.csv","","null","resources/maskTrios/L1BB.jpg","null","",NA,NA,NA,NA,""
"image-keyboard-response",421,478055,"0.0-3.136-2.136","l5trlggvscjd1a2",597,"70.csv","","null","resources/images/fishbone.png","null","",NA,NA,NA,NA,""
"image-keyboard-response",422,478721,"0.0-3.137-0.137","l5trlggvscjd1a2",597,"70.csv","","665.5","resources/trios/L1T2A3.jpg","38","restless",0.6,0.3,0.7,0.532867607121609,"false"
"image-keyboard-response",423,479125,"0.0-3.137-1.137","l5trlggvscjd1a2",597,"70.csv","","null","resources/maskTrios/BT2B.jpg","null","",NA,NA,NA,NA,""
"image-keyboard-response",424,480332,"0.0-3.137-2.137","l5trlggvscjd1a2",597,"70.csv","","null","resources/images/fishbone.png","null","",NA,NA,NA,NA,""
"image-keyboard-response",425,481095,"0.0-3.138-0.138","l5trlggvscjd1a2",597,"70.csv","","762.3000000119209","resources/trios/L1T2A3.jpg","39","restless",0.6,0.3,0.7,0.14608213300758,"true"
"image-keyboard-response",426,481502,"0.0-3.138-1.138","l5trlggvscjd1a2",597,"70.csv","","null","resources/maskTrios/BBA3.jpg","null","",NA,NA,NA,NA,""
"image-keyboard-response",427,482708,"0.0-3.138-2.138","l5trlggvscjd1a2",597,"70.csv","","null","resources/images/coin2.png","null","",NA,NA,NA,NA,""
"image-keyboard-response",428,484206,"0.0-3.139-0.139","l5trlggvscjd1a2",597,"70.csv","","1496.3999999761581","resources/trios/L4T1A3.jpg","37","restless",0.5,0.3,0.7,0.300818051484457,"true"
"image-keyboard-response",429,484610,"0.0-3.139-1.139","l5trlggvscjd1a2",597,"70.csv","","null","resources/maskTrios/L4BB.jpg","null","",NA,NA,NA,NA,""
"image-keyboard-response",430,485817,"0.0-3.139-2.139","l5trlggvscjd1a2",597,"70.csv","","null","resources/images/coin2.png","null","",NA,NA,NA,NA,""
"image-keyboard-response",431,487192,"0.0-3.140-0.140","l5trlggvscjd1a2",597,"70.csv","","1374.0999999642372","resources/trios/L1T2A2.jpg","38","restless",0.5,0.3,0.7,0.35625007522066,"false"
"image-keyboard-response",432,487595,"0.0-3.140-1.140","l5trlggvscjd1a2",597,"70.csv","","null","resources/maskTrios/BT2B.jpg","null","",NA,NA,NA,NA,""
"image-keyboard-response",433,488802,"0.0-3.140-2.140","l5trlggvscjd1a2",597,"70.csv","","null","resources/images/fishbone.png","null","",NA,NA,NA,NA,""
"image-keyboard-response",434,489502,"0.0-3.141-0.141","l5trlggvscjd1a2",597,"70.csv","","698.5999999642372","resources/trios/L4T2A2.jpg","37","restless",0.5,0.4,0.6,0.654779230779589,"false"
"image-keyboard-response",435,489902,"0.0-3.141-1.141","l5trlggvscjd1a2",597,"70.csv","","null","resources/maskTrios/L4BB.jpg","null","",NA,NA,NA,NA,""
"image-keyboard-response",436,491109,"0.0-3.141-2.141","l5trlggvscjd1a2",597,"70.csv","","null","resources/images/fishbone.png","null","",NA,NA,NA,NA,""
"image-keyboard-response",437,492987,"0.0-3.142-0.142","l5trlggvscjd1a2",597,"70.csv","","1876.6000000238419","resources/trios/L4T1A3.jpg","37","restless",0.5,0.4,0.6,0.890079558043551,"false"
"image-keyboard-response",438,493388,"0.0-3.142-1.142","l5trlggvscjd1a2",597,"70.csv","","null","resources/maskTrios/L4BB.jpg","null","",NA,NA,NA,NA,""
"image-keyboard-response",439,494594,"0.0-3.142-2.142","l5trlggvscjd1a2",597,"70.csv","","null","resources/images/fishbone.png","null","",NA,NA,NA,NA,""
"image-keyboard-response",440,495283,"0.0-3.143-0.143","l5trlggvscjd1a2",597,"70.csv","","687.3000000119209","resources/trios/L4T1A3.jpg","39","restless",0.5,0.4,0.6,0.0957762267974738,"true"
"image-keyboard-response",441,495685,"0.0-3.143-1.143","l5trlggvscjd1a2",597,"70.csv","","null","resources/maskTrios/BBA3.jpg","null","",NA,NA,NA,NA,""
"image-keyboard-response",442,496891,"0.0-3.143-2.143","l5trlggvscjd1a2",597,"70.csv","","null","resources/images/coin2.png","null","",NA,NA,NA,NA,""
"image-keyboard-response",443,498214,"0.0-3.144-0.144","l5trlggvscjd1a2",597,"70.csv","","1320.4000000357628","resources/trios/L4T1A2.jpg","37","restless",0.5,0.4,0.7,0.731720602962624,"false"
"image-keyboard-response",444,498618,"0.0-3.144-1.144","l5trlggvscjd1a2",597,"70.csv","","null","resources/maskTrios/L4BB.jpg","null","",NA,NA,NA,NA,""
"image-keyboard-response",445,499825,"0.0-3.144-2.144","l5trlggvscjd1a2",597,"70.csv","","null","resources/images/fishbone.png","null","",NA,NA,NA,NA,""
"image-keyboard-response",446,501301,"0.0-3.145-0.145","l5trlggvscjd1a2",597,"70.csv","","1474.5","resources/trios/L4T1A2.jpg","38","restless",0.5,0.4,0.7,0.101757445946687,"true"
"image-keyboard-response",447,501702,"0.0-3.145-1.145","l5trlggvscjd1a2",597,"70.csv","","null","resources/maskTrios/BT1B.jpg","null","",NA,NA,NA,NA,""
"image-keyboard-response",448,502908,"0.0-3.145-2.145","l5trlggvscjd1a2",597,"70.csv","","null","resources/images/coin2.png","null","",NA,NA,NA,NA,""
"image-keyboard-response",449,504803,"0.0-3.146-0.146","l5trlggvscjd1a2",597,"70.csv","","1893.699999988079","resources/trios/L1T1A3.jpg","39","restless",0.5,0.4,0.7,0.668446887280328,"true"
"image-keyboard-response",450,505210,"0.0-3.146-1.146","l5trlggvscjd1a2",597,"70.csv","","null","resources/maskTrios/BBA3.jpg","null","",NA,NA,NA,NA,""
"image-keyboard-response",451,506416,"0.0-3.146-2.146","l5trlggvscjd1a2",597,"70.csv","","null","resources/images/coin2.png","null","",NA,NA,NA,NA,""
"image-keyboard-response",452,507825,"0.0-3.147-0.147","l5trlggvscjd1a2",597,"70.csv","","1408","resources/trios/L4T1A2.jpg","37","restless",0.5,0.4,0.7,0.199539001325203,"true"
"image-keyboard-response",453,508232,"0.0-3.147-1.147","l5trlggvscjd1a2",597,"70.csv","","null","resources/maskTrios/L4BB.jpg","null","",NA,NA,NA,NA,""
"image-keyboard-response",454,509435,"0.0-3.147-2.147","l5trlggvscjd1a2",597,"70.csv","","null","resources/images/coin2.png","null","",NA,NA,NA,NA,""
"image-keyboard-response",455,514328,"0.0-3.148-0.148","l5trlggvscjd1a2",597,"70.csv","","4891.800000011921","resources/trios/L4T1A2.jpg","37","restless",0.5,0.4,0.7,0.626536916458138,"false"
"image-keyboard-response",456,514735,"0.0-3.148-1.148","l5trlggvscjd1a2",597,"70.csv","","null","resources/maskTrios/L4BB.jpg","null","",NA,NA,NA,NA,""
"image-keyboard-response",457,515941,"0.0-3.148-2.148","l5trlggvscjd1a2",597,"70.csv","","null","resources/images/fishbone.png","null","",NA,NA,NA,NA,""
"image-keyboard-response",458,518522,"0.0-3.149-0.149","l5trlggvscjd1a2",597,"70.csv","","2579.7999999523163","resources/trios/L1T1A3.jpg","38","restless",0.5,0.4,0.7,0.245616295000981,"true"
"image-keyboard-response",459,518929,"0.0-3.149-1.149","l5trlggvscjd1a2",597,"70.csv","","null","resources/maskTrios/BT1B.jpg","null","",NA,NA,NA,NA,""
"image-keyboard-response",460,520134,"0.0-3.149-2.149","l5trlggvscjd1a2",597,"70.csv","","null","resources/images/coin2.png","null","",NA,NA,NA,NA,""
"image-keyboard-response",461,522002,"0.0-3.150-0.150","l5trlggvscjd1a2",597,"70.csv","","1866.199999988079","resources/trios/L4T2A2.jpg","37","restless",0.6,0.4,0.7,0.253958913046827,"true"
"image-keyboard-response",462,522407,"0.0-3.150-1.150","l5trlggvscjd1a2",597,"70.csv","","null","resources/maskTrios/L4BB.jpg","null","",NA,NA,NA,NA,""
"image-keyboard-response",463,523614,"0.0-3.150-2.150","l5trlggvscjd1a2",597,"70.csv","","null","resources/images/coin2.png","null","",NA,NA,NA,NA,""
"image-keyboard-response",464,525528,"0.0-3.151-0.151","l5trlggvscjd1a2",597,"70.csv","","1912.300000011921","resources/trios/L4T2A3.jpg","37","restless",0.6,0.4,0.7,0.28090805851733,"true"
"image-keyboard-response",465,525931,"0.0-3.151-1.151","l5trlggvscjd1a2",597,"70.csv","","null","resources/maskTrios/L4BB.jpg","null","",NA,NA,NA,NA,""
"image-keyboard-response",466,527135,"0.0-3.151-2.151","l5trlggvscjd1a2",597,"70.csv","","null","resources/images/coin2.png","null","",NA,NA,NA,NA,""
"image-keyboard-response",467,529660,"0.0-3.152-0.152","l5trlggvscjd1a2",597,"70.csv","","2524.099999964237","resources/trios/L1T2A3.jpg","38","restless",0.6,0.4,0.7,0.916641196672252,"false"
"image-keyboard-response",468,530067,"0.0-3.152-1.152","l5trlggvscjd1a2",597,"70.csv","","null","resources/maskTrios/BT2B.jpg","null","",NA,NA,NA,NA,""
"image-keyboard-response",469,531268,"0.0-3.152-2.152","l5trlggvscjd1a2",597,"70.csv","","null","resources/images/fishbone.png","null","",NA,NA,NA,NA,""
"image-keyboard-response",470,532184,"0.0-3.153-0.153","l5trlggvscjd1a2",597,"70.csv","","914.7999999523163","resources/trios/L4T2A3.jpg","39","restless",0.6,0.4,0.7,0.688623290579629,"true"
"image-keyboard-response",471,532586,"0.0-3.153-1.153","l5trlggvscjd1a2",597,"70.csv","","null","resources/maskTrios/BBA3.jpg","null","",NA,NA,NA,NA,""
"image-keyboard-response",472,533791,"0.0-3.153-2.153","l5trlggvscjd1a2",597,"70.csv","","null","resources/images/coin2.png","null","",NA,NA,NA,NA,""
"image-keyboard-response",473,535674,"0.0-3.154-0.154","l5trlggvscjd1a2",597,"70.csv","","1882","resources/trios/L1T2A2.jpg","38","restless",0.6,0.4,0.7,0.563723213825656,"false"
"image-keyboard-response",474,536081,"0.0-3.154-1.154","l5trlggvscjd1a2",597,"70.csv","","null","resources/maskTrios/BT2B.jpg","null","",NA,NA,NA,NA,""
"image-keyboard-response",475,537285,"0.0-3.154-2.154","l5trlggvscjd1a2",597,"70.csv","","null","resources/images/fishbone.png","null","",NA,NA,NA,NA,""
"image-keyboard-response",476,541799,"0.0-3.155-0.155","l5trlggvscjd1a2",597,"70.csv","","4511.800000011921","resources/trios/L1T1A2.jpg","38","restless",0.6,0.4,0.7,0.816613221794421,"false"
"image-keyboard-response",477,542203,"0.0-3.155-1.155","l5trlggvscjd1a2",597,"70.csv","","null","resources/maskTrios/BT1B.jpg","null","",NA,NA,NA,NA,""
"image-keyboard-response",478,543409,"0.0-3.155-2.155","l5trlggvscjd1a2",597,"70.csv","","null","resources/images/fishbone.png","null","",NA,NA,NA,NA,""
"image-keyboard-response",479,544082,"0.0-3.156-0.156","l5trlggvscjd1a2",597,"70.csv","","671.0999999642372","resources/trios/L1T1A3.jpg","37","restless",0.6,0.4,0.7,0.471028554328507,"true"
"image-keyboard-response",480,544486,"0.0-3.156-1.156","l5trlggvscjd1a2",597,"70.csv","","null","resources/maskTrios/L1BB.jpg","null","",NA,NA,NA,NA,""
"image-keyboard-response",481,545688,"0.0-3.156-2.156","l5trlggvscjd1a2",597,"70.csv","","null","resources/images/coin2.png","null","",NA,NA,NA,NA,""
"image-keyboard-response",482,546765,"0.0-3.157-0.157","l5trlggvscjd1a2",597,"70.csv","","1076.199999988079","resources/trios/L4T2A2.jpg","37","restless",0.6,0.3,0.7,0.118339045864734,"true"
"image-keyboard-response",483,547169,"0.0-3.157-1.157","l5trlggvscjd1a2",597,"70.csv","","null","resources/maskTrios/L4BB.jpg","null","",NA,NA,NA,NA,""
"image-keyboard-response",484,548376,"0.0-3.157-2.157","l5trlggvscjd1a2",597,"70.csv","","null","resources/images/coin2.png","null","",NA,NA,NA,NA,""
"image-keyboard-response",485,549648,"0.0-3.158-0.158","l5trlggvscjd1a2",597,"70.csv","","1270.800000011921","resources/trios/L4T2A2.jpg","37","restless",0.5,0.3,0.7,0.0863942725651301,"true"
"image-keyboard-response",486,550053,"0.0-3.158-1.158","l5trlggvscjd1a2",597,"70.csv","","null","resources/maskTrios/L4BB.jpg","null","",NA,NA,NA,NA,""
"image-keyboard-response",487,551256,"0.0-3.158-2.158","l5trlggvscjd1a2",597,"70.csv","","null","resources/images/coin2.png","null","",NA,NA,NA,NA,""
"image-keyboard-response",488,552987,"0.0-3.159-0.159","l5trlggvscjd1a2",597,"70.csv","","1729.300000011921","resources/trios/L1T2A3.jpg","39","restless",0.5,0.3,0.7,0.834126688431984,"false"
"image-keyboard-response",489,553393,"0.0-3.159-1.159","l5trlggvscjd1a2",597,"70.csv","","null","resources/maskTrios/BBA3.jpg","null","",NA,NA,NA,NA,""
"image-keyboard-response",490,554597,"0.0-3.159-2.159","l5trlggvscjd1a2",597,"70.csv","","null","resources/images/fishbone.png","null","",NA,NA,NA,NA,""
"image-keyboard-response",491,556175,"0.0-3.160-0.160","l5trlggvscjd1a2",597,"70.csv","","1576.1000000238419","resources/trios/L1T1A2.jpg","38","restless",0.5,0.3,0.7,0.404090022033328,"false"
"image-keyboard-response",492,556576,"0.0-3.160-1.160","l5trlggvscjd1a2",597,"70.csv","","null","resources/maskTrios/BT1B.jpg","null","",NA,NA,NA,NA,""
"image-keyboard-response",493,557777,"0.0-3.160-2.160","l5trlggvscjd1a2",597,"70.csv","","null","resources/images/fishbone.png","null","",NA,NA,NA,NA,""
"image-keyboard-response",494,558586,"0.0-3.161-0.161","l5trlggvscjd1a2",597,"70.csv","","807.3000000119209","resources/trios/L4T2A3.jpg","39","restless",0.5,0.3,0.7,0.843013193263777,"false"
"image-keyboard-response",495,558992,"0.0-3.161-1.161","l5trlggvscjd1a2",597,"70.csv","","null","resources/maskTrios/BBA3.jpg","null","",NA,NA,NA,NA,""
"image-keyboard-response",496,560195,"0.0-3.161-2.161","l5trlggvscjd1a2",597,"70.csv","","null","resources/images/fishbone.png","null","",NA,NA,NA,NA,""
"image-keyboard-response",497,561138,"0.0-3.162-0.162","l5trlggvscjd1a2",597,"70.csv","","941.8000000119209","resources/trios/L4T1A3.jpg","37","restless",0.5,0.3,0.7,0.702835158154623,"false"
"image-keyboard-response",498,561540,"0.0-3.162-1.162","l5trlggvscjd1a2",597,"70.csv","","null","resources/maskTrios/L4BB.jpg","null","",NA,NA,NA,NA,""
"image-keyboard-response",499,562742,"0.0-3.162-2.162","l5trlggvscjd1a2",597,"70.csv","","null","resources/images/fishbone.png","null","",NA,NA,NA,NA,""
"image-keyboard-response",500,564528,"0.0-3.163-0.163","l5trlggvscjd1a2",597,"70.csv","","1783.8999999761581","resources/trios/L1T2A3.jpg","38","restless",0.5,0.3,0.7,0.18826432229591,"true"
"image-keyboard-response",501,564934,"0.0-3.163-1.163","l5trlggvscjd1a2",597,"70.csv","","null","resources/maskTrios/BT2B.jpg","null","",NA,NA,NA,NA,""
"image-keyboard-response",502,566136,"0.0-3.163-2.163","l5trlggvscjd1a2",597,"70.csv","","null","resources/images/coin2.png","null","",NA,NA,NA,NA,""
"image-keyboard-response",503,569270,"0.0-3.164-0.164","l5trlggvscjd1a2",597,"70.csv","","3133.199999988079","resources/trios/L4T1A2.jpg","37","restless",0.5,0.3,0.7,0.826008450310761,"false"
"image-keyboard-response",504,569671,"0.0-3.164-1.164","l5trlggvscjd1a2",597,"70.csv","","null","resources/maskTrios/L4BB.jpg","null","",NA,NA,NA,NA,""
"image-keyboard-response",505,570873,"0.0-3.164-2.164","l5trlggvscjd1a2",597,"70.csv","","null","resources/images/fishbone.png","null","",NA,NA,NA,NA,""
"image-keyboard-response",506,571940,"0.0-3.165-0.165","l5trlggvscjd1a2",597,"70.csv","","1066.199999988079","resources/trios/L4T1A2.jpg","38","restless",0.5,0.3,0.7,0.28212672294661,"true"
"image-keyboard-response",507,572346,"0.0-3.165-1.165","l5trlggvscjd1a2",597,"70.csv","","null","resources/maskTrios/BT1B.jpg","null","",NA,NA,NA,NA,""
"image-keyboard-response",508,573550,"0.0-3.165-2.165","l5trlggvscjd1a2",597,"70.csv","","null","resources/images/coin2.png","null","",NA,NA,NA,NA,""
"image-keyboard-response",509,574761,"0.0-3.166-0.166","l5trlggvscjd1a2",597,"70.csv","","1209.5999999642372","resources/trios/L4T1A2.jpg","37","restless",0.5,0.3,0.7,0.36423109690973,"true"
"image-keyboard-response",510,575167,"0.0-3.166-1.166","l5trlggvscjd1a2",597,"70.csv","","null","resources/maskTrios/L4BB.jpg","null","",NA,NA,NA,NA,""
"image-keyboard-response",511,576370,"0.0-3.166-2.166","l5trlggvscjd1a2",597,"70.csv","","null","resources/images/coin2.png","null","",NA,NA,NA,NA,""
"image-keyboard-response",512,577039,"0.0-3.167-0.167","l5trlggvscjd1a2",597,"70.csv","","667.6999999880791","resources/trios/L4T1A2.jpg","37","restless",0.5,0.3,0.7,0.242040699838711,"true"
"image-keyboard-response",513,577445,"0.0-3.167-1.167","l5trlggvscjd1a2",597,"70.csv","","null","resources/maskTrios/L4BB.jpg","null","",NA,NA,NA,NA,""
"image-keyboard-response",514,578652,"0.0-3.167-2.167","l5trlggvscjd1a2",597,"70.csv","","null","resources/images/coin2.png","null","",NA,NA,NA,NA,""
"image-keyboard-response",515,579648,"0.0-3.168-0.168","l5trlggvscjd1a2",597,"70.csv","","995.1999999880791","resources/trios/L1T2A3.jpg","38","restless",0.5,0.3,0.7,0.996944174047524,"false"
"image-keyboard-response",516,580053,"0.0-3.168-1.168","l5trlggvscjd1a2",597,"70.csv","","null","resources/maskTrios/BT2B.jpg","null","",NA,NA,NA,NA,""
"image-keyboard-response",517,581259,"0.0-3.168-2.168","l5trlggvscjd1a2",597,"70.csv","","null","resources/images/fishbone.png","null","",NA,NA,NA,NA,""
"image-keyboard-response",518,581708,"0.0-3.169-0.169","l5trlggvscjd1a2",597,"70.csv","","448","resources/trios/L4T2A3.jpg","39","restless",0.6,0.3,0.7,0.0357400661738221,"true"
"image-keyboard-response",519,582114,"0.0-3.169-1.169","l5trlggvscjd1a2",597,"70.csv","","null","resources/maskTrios/BBA3.jpg","null","",NA,NA,NA,NA,""
"image-keyboard-response",520,583319,"0.0-3.169-2.169","l5trlggvscjd1a2",597,"70.csv","","null","resources/images/coin2.png","null","",NA,NA,NA,NA,""
"image-keyboard-response",521,583894,"0.0-3.170-0.170","l5trlggvscjd1a2",597,"70.csv","","573.8000000119209","resources/trios/L4T1A3.jpg","37","restless",0.6,0.3,0.7,0.334740111289307,"true"
"image-keyboard-response",522,584298,"0.0-3.170-1.170","l5trlggvscjd1a2",597,"70.csv","","null","resources/maskTrios/L4BB.jpg","null","",NA,NA,NA,NA,""
"image-keyboard-response",523,585503,"0.0-3.170-2.170","l5trlggvscjd1a2",597,"70.csv","","null","resources/images/coin2.png","null","",NA,NA,NA,NA,""
"image-keyboard-response",524,586562,"0.0-3.171-0.171","l5trlggvscjd1a2",597,"70.csv","","1057.4000000357628","resources/trios/L1T2A2.jpg","38","restless",0.6,0.3,0.7,0.181197197809172,"true"
"image-keyboard-response",525,586968,"0.0-3.171-1.171","l5trlggvscjd1a2",597,"70.csv","","null","resources/maskTrios/BT2B.jpg","null","",NA,NA,NA,NA,""
"image-keyboard-response",526,588170,"0.0-3.171-2.171","l5trlggvscjd1a2",597,"70.csv","","null","resources/images/coin2.png","null","",NA,NA,NA,NA,""
"image-keyboard-response",527,590702,"0.0-3.172-0.172","l5trlggvscjd1a2",597,"70.csv","","2530.699999988079","resources/trios/L1T2A2.jpg","38","restless",0.6,0.2,0.7,0.521845652199611,"false"
"image-keyboard-response",528,591103,"0.0-3.172-1.172","l5trlggvscjd1a2",597,"70.csv","","null","resources/maskTrios/BT2B.jpg","null","",NA,NA,NA,NA,""
"image-keyboard-response",529,592310,"0.0-3.172-2.172","l5trlggvscjd1a2",597,"70.csv","","null","resources/images/fishbone.png","null","",NA,NA,NA,NA,""
"image-keyboard-response",530,593589,"0.0-3.173-0.173","l5trlggvscjd1a2",597,"70.csv","","1278","resources/trios/L4T1A2.jpg","37","restless",0.6,0.3,0.6,0.015781339473899,"true"
"image-keyboard-response",531,593996,"0.0-3.173-1.173","l5trlggvscjd1a2",597,"70.csv","","null","resources/maskTrios/L4BB.jpg","null","",NA,NA,NA,NA,""
"image-keyboard-response",532,595203,"0.0-3.173-2.173","l5trlggvscjd1a2",597,"70.csv","","null","resources/images/coin2.png","null","",NA,NA,NA,NA,""
"image-keyboard-response",533,596926,"0.0-3.174-0.174","l5trlggvscjd1a2",597,"70.csv","","1722.300000011921","resources/trios/L1T1A3.jpg","39","restless",0.6,0.3,0.6,0.604730589470559,"false"
"image-keyboard-response",534,597333,"0.0-3.174-1.174","l5trlggvscjd1a2",597,"70.csv","","null","resources/maskTrios/BBA3.jpg","null","",NA,NA,NA,NA,""
"image-keyboard-response",535,598534,"0.0-3.174-2.174","l5trlggvscjd1a2",597,"70.csv","","null","resources/images/fishbone.png","null","",NA,NA,NA,NA,""
"image-keyboard-response",536,599622,"0.0-3.175-0.175","l5trlggvscjd1a2",597,"70.csv","","1087.300000011921","resources/trios/L4T1A2.jpg","38","restless",0.6,0.3,0.6,0.528403873100936,"false"
"image-keyboard-response",537,600029,"0.0-3.175-1.175","l5trlggvscjd1a2",597,"70.csv","","null","resources/maskTrios/BT1B.jpg","null","",NA,NA,NA,NA,""
"image-keyboard-response",538,601235,"0.0-3.175-2.175","l5trlggvscjd1a2",597,"70.csv","","null","resources/images/fishbone.png","null","",NA,NA,NA,NA,""
"image-keyboard-response",539,601766,"0.0-3.176-0.176","l5trlggvscjd1a2",597,"70.csv","","529","resources/trios/L4T1A3.jpg","37","restless",0.5,0.3,0.6,0.895024614372649,"false"
"image-keyboard-response",540,602170,"0.0-3.176-1.176","l5trlggvscjd1a2",597,"70.csv","","null","resources/maskTrios/L4BB.jpg","null","",NA,NA,NA,NA,""
"image-keyboard-response",541,603376,"0.0-3.176-2.176","l5trlggvscjd1a2",597,"70.csv","","null","resources/images/fishbone.png","null","",NA,NA,NA,NA,""
"image-keyboard-response",542,604526,"0.0-3.177-0.177","l5trlggvscjd1a2",597,"70.csv","","1148.9000000357628","resources/trios/L1T1A3.jpg","38","restless",0.5,0.3,0.5,0.00853569948997035,"true"
"image-keyboard-response",543,604933,"0.0-3.177-1.177","l5trlggvscjd1a2",597,"70.csv","","null","resources/maskTrios/BT1B.jpg","null","",NA,NA,NA,NA,""
"image-keyboard-response",544,606137,"0.0-3.177-2.177","l5trlggvscjd1a2",597,"70.csv","","null","resources/images/coin2.png","null","",NA,NA,NA,NA,""
"image-keyboard-response",545,607575,"0.0-3.178-0.178","l5trlggvscjd1a2",597,"70.csv","","1437.5999999642372","resources/trios/L4T2A3.jpg","37","restless",0.5,0.3,0.6,0.896575629286157,"false"
"image-keyboard-response",546,607982,"0.0-3.178-1.178","l5trlggvscjd1a2",597,"70.csv","","null","resources/maskTrios/L4BB.jpg","null","",NA,NA,NA,NA,""
"image-keyboard-response",547,609187,"0.0-3.178-2.178","l5trlggvscjd1a2",597,"70.csv","","null","resources/images/fishbone.png","null","",NA,NA,NA,NA,""
"image-keyboard-response",548,610181,"0.0-3.179-0.179","l5trlggvscjd1a2",597,"70.csv","","993.1999999880791","resources/trios/L4T1A3.jpg","37","restless",0.5,0.3,0.7,0.247442484426363,"true"
"image-keyboard-response",549,610587,"0.0-3.179-1.179","l5trlggvscjd1a2",597,"70.csv","","null","resources/maskTrios/L4BB.jpg","null","",NA,NA,NA,NA,""
"image-keyboard-response",550,611793,"0.0-3.179-2.179","l5trlggvscjd1a2",597,"70.csv","","null","resources/images/coin2.png","null","",NA,NA,NA,NA,""
"image-keyboard-response",551,612850,"0.0-3.180-0.180","l5trlggvscjd1a2",597,"70.csv","","1056.2000000476837","resources/trios/L4T2A2.jpg","38","restless",0.5,0.3,0.7,0.0460205060986776,"true"
"image-keyboard-response",552,613254,"0.0-3.180-1.180","l5trlggvscjd1a2",597,"70.csv","","null","resources/maskTrios/BT2B.jpg","null","",NA,NA,NA,NA,""
"image-keyboard-response",553,614460,"0.0-3.180-2.180","l5trlggvscjd1a2",597,"70.csv","","null","resources/images/coin2.png","null","",NA,NA,NA,NA,""
"image-keyboard-response",554,615327,"0.0-3.181-0.181","l5trlggvscjd1a2",597,"70.csv","","865.8999999761581","resources/trios/L1T1A3.jpg","39","restless",0.5,0.3,0.7,0.377085349312544,"true"
"image-keyboard-response",555,615734,"0.0-3.181-1.181","l5trlggvscjd1a2",597,"70.csv","","null","resources/maskTrios/BBA3.jpg","null","",NA,NA,NA,NA,""
"image-keyboard-response",556,616937,"0.0-3.181-2.181","l5trlggvscjd1a2",597,"70.csv","","null","resources/images/coin2.png","null","",NA,NA,NA,NA,""
"image-keyboard-response",557,618672,"0.0-3.182-0.182","l5trlggvscjd1a2",597,"70.csv","","1734.6000000238419","resources/trios/L4T1A3.jpg","37","restless",0.5,0.3,0.7,0.282367936636597,"true"
"image-keyboard-response",558,619078,"0.0-3.182-1.182","l5trlggvscjd1a2",597,"70.csv","","null","resources/maskTrios/L4BB.jpg","null","",NA,NA,NA,NA,""
"image-keyboard-response",559,620285,"0.0-3.182-2.182","l5trlggvscjd1a2",597,"70.csv","","null","resources/images/coin2.png","null","",NA,NA,NA,NA,""
"image-keyboard-response",560,621764,"0.0-3.183-0.183","l5trlggvscjd1a2",597,"70.csv","","1477.800000011921","resources/trios/L1T2A2.jpg","38","restless",0.5,0.3,0.7,0.963054241598293,"false"
"image-keyboard-response",561,622170,"0.0-3.183-1.183","l5trlggvscjd1a2",597,"70.csv","","null","resources/maskTrios/BT2B.jpg","null","",NA,NA,NA,NA,""
"image-keyboard-response",562,623377,"0.0-3.183-2.183","l5trlggvscjd1a2",597,"70.csv","","null","resources/images/fishbone.png","null","",NA,NA,NA,NA,""
"image-keyboard-response",563,624420,"0.0-3.184-0.184","l5trlggvscjd1a2",597,"70.csv","","1041.7000000476837","resources/trios/L4T2A2.jpg","38","restless",0.5,0.2,0.7,0.0891893355946816,"true"
"image-keyboard-response",564,624827,"0.0-3.184-1.184","l5trlggvscjd1a2",597,"70.csv","","null","resources/maskTrios/BT2B.jpg","null","",NA,NA,NA,NA,""
"image-keyboard-response",565,626033,"0.0-3.184-2.184","l5trlggvscjd1a2",597,"70.csv","","null","resources/images/coin2.png","null","",NA,NA,NA,NA,""
"image-keyboard-response",566,626535,"0.0-3.185-0.185","l5trlggvscjd1a2",597,"70.csv","","500.60000002384186","resources/trios/L4T2A3.jpg","38","restless",0.5,0.3,0.7,0.791897337673638,"false"
"image-keyboard-response",567,626937,"0.0-3.185-1.185","l5trlggvscjd1a2",597,"70.csv","","null","resources/maskTrios/BT2B.jpg","null","",NA,NA,NA,NA,""
"image-keyboard-response",568,628143,"0.0-3.185-2.185","l5trlggvscjd1a2",597,"70.csv","","null","resources/images/fishbone.png","null","",NA,NA,NA,NA,""
"image-keyboard-response",569,629613,"0.0-3.186-0.186","l5trlggvscjd1a2",597,"70.csv","","1468","resources/trios/L1T1A3.jpg","39","restless",0.5,0.3,0.7,0.894171887683667,"false"
"image-keyboard-response",570,630019,"0.0-3.186-1.186","l5trlggvscjd1a2",597,"70.csv","","null","resources/maskTrios/BBA3.jpg","null","",NA,NA,NA,NA,""
"image-keyboard-response",571,631221,"0.0-3.186-2.186","l5trlggvscjd1a2",597,"70.csv","","null","resources/images/fishbone.png","null","",NA,NA,NA,NA,""
"image-keyboard-response",572,632455,"0.0-3.187-0.187","l5trlggvscjd1a2",597,"70.csv","","1233.5","resources/trios/L4T1A3.jpg","37","restless",0.5,0.3,0.7,0.741244621705475,"false"
"image-keyboard-response",573,632862,"0.0-3.187-1.187","l5trlggvscjd1a2",597,"70.csv","","null","resources/maskTrios/L4BB.jpg","null","",NA,NA,NA,NA,""
"image-keyboard-response",574,634069,"0.0-3.187-2.187","l5trlggvscjd1a2",597,"70.csv","","null","resources/images/fishbone.png","null","",NA,NA,NA,NA,""
"image-keyboard-response",575,635688,"0.0-3.188-0.188","l5trlggvscjd1a2",597,"70.csv","","1617.699999988079","resources/trios/L1T1A3.jpg","39","restless",0.5,0.3,0.7,0.857329507148737,"false"
"image-keyboard-response",576,636092,"0.0-3.188-1.188","l5trlggvscjd1a2",597,"70.csv","","null","resources/maskTrios/BBA3.jpg","null","",NA,NA,NA,NA,""
"image-keyboard-response",577,637295,"0.0-3.188-2.188","l5trlggvscjd1a2",597,"70.csv","","null","resources/images/fishbone.png","null","",NA,NA,NA,NA,""
"image-keyboard-response",578,638091,"0.0-3.189-0.189","l5trlggvscjd1a2",597,"70.csv","","795.3000000119209","resources/trios/L4T1A3.jpg","38","restless",0.5,0.3,0.7,0.529706070233176,"false"
"image-keyboard-response",579,638495,"0.0-3.189-1.189","l5trlggvscjd1a2",597,"70.csv","","null","resources/maskTrios/BT1B.jpg","null","",NA,NA,NA,NA,""
"image-keyboard-response",580,639697,"0.0-3.189-2.189","l5trlggvscjd1a2",597,"70.csv","","null","resources/images/fishbone.png","null","",NA,NA,NA,NA,""
"image-keyboard-response",581,640975,"0.0-3.190-0.190","l5trlggvscjd1a2",597,"70.csv","","1276.699999988079","resources/trios/L4T2A2.jpg","38","restless",0.5,0.3,0.7,0.582704751121536,"false"
"image-keyboard-response",582,641381,"0.0-3.190-1.190","l5trlggvscjd1a2",597,"70.csv","","null","resources/maskTrios/BT2B.jpg","null","",NA,NA,NA,NA,""
"image-keyboard-response",583,642587,"0.0-3.190-2.190","l5trlggvscjd1a2",597,"70.csv","","null","resources/images/fishbone.png","null","",NA,NA,NA,NA,""
"image-keyboard-response",584,643857,"0.0-3.191-0.191","l5trlggvscjd1a2",597,"70.csv","","1268.5999999642372","resources/trios/L4T1A2.jpg","37","restless",0.5,0.3,0.7,0.28031756141103,"true"
"image-keyboard-response",585,644258,"0.0-3.191-1.191","l5trlggvscjd1a2",597,"70.csv","","null","resources/maskTrios/L4BB.jpg","null","",NA,NA,NA,NA,""
"image-keyboard-response",586,645465,"0.0-3.191-2.191","l5trlggvscjd1a2",597,"70.csv","","null","resources/images/coin2.png","null","",NA,NA,NA,NA,""
"image-keyboard-response",587,646161,"0.0-3.192-0.192","l5trlggvscjd1a2",597,"70.csv","","694.8000000119209","resources/trios/L1T2A2.jpg","38","restless",0.5,0.3,0.7,0.280432722884183,"true"
"image-keyboard-response",588,646567,"0.0-3.192-1.192","l5trlggvscjd1a2",597,"70.csv","","null","resources/maskTrios/BT2B.jpg","null","",NA,NA,NA,NA,""
"image-keyboard-response",589,647771,"0.0-3.192-2.192","l5trlggvscjd1a2",597,"70.csv","","null","resources/images/coin2.png","null","",NA,NA,NA,NA,""
"image-keyboard-response",590,648797,"0.0-3.193-0.193","l5trlggvscjd1a2",597,"70.csv","","1024.6000000238419","resources/trios/L1T2A3.jpg","39","restless",0.4,0.3,0.7,0.599736193756125,"true"
"image-keyboard-response",591,649200,"0.0-3.193-1.193","l5trlggvscjd1a2",597,"70.csv","","null","resources/maskTrios/BBA3.jpg","null","",NA,NA,NA,NA,""
"image-keyboard-response",592,650404,"0.0-3.193-2.193","l5trlggvscjd1a2",597,"70.csv","","null","resources/images/coin2.png","null","",NA,NA,NA,NA,""
"image-keyboard-response",593,653253,"0.0-3.194-0.194","l5trlggvscjd1a2",597,"70.csv","","2769","resources/trios/L4T2A2.jpg","37","restless",0.4,0.4,0.7,0.418639220702038,"false"
"image-keyboard-response",594,653659,"0.0-3.194-1.194","l5trlggvscjd1a2",597,"70.csv","","null","resources/maskTrios/L4BB.jpg","null","",NA,NA,NA,NA,""
"image-keyboard-response",595,654865,"0.0-3.194-2.194","l5trlggvscjd1a2",597,"70.csv","","null","resources/images/fishbone.png","null","",NA,NA,NA,NA,""
"image-keyboard-response",596,655581,"0.0-3.195-0.195","l5trlggvscjd1a2",597,"70.csv","","714.5","resources/trios/L4T2A2.jpg","38","restless",0.4,0.4,0.7,0.427299812456082,"false"
"image-keyboard-response",597,655983,"0.0-3.195-1.195","l5trlggvscjd1a2",597,"70.csv","","null","resources/maskTrios/BT2B.jpg","null","",NA,NA,NA,NA,""
"image-keyboard-response",598,657188,"0.0-3.195-2.195","l5trlggvscjd1a2",597,"70.csv","","null","resources/images/fishbone.png","null","",NA,NA,NA,NA,""
"image-keyboard-response",599,658804,"0.0-3.196-0.196","l5trlggvscjd1a2",597,"70.csv","","1615","resources/trios/L4T2A2.jpg","38","restless",0.4,0.5,0.7,0.0899153749150026,"true"
"image-keyboard-response",600,659210,"0.0-3.196-1.196","l5trlggvscjd1a2",597,"70.csv","","null","resources/maskTrios/BT2B.jpg","null","",NA,NA,NA,NA,""
"image-keyboard-response",601,660417,"0.0-3.196-2.196","l5trlggvscjd1a2",597,"70.csv","","null","resources/images/coin2.png","null","",NA,NA,NA,NA,""
"image-keyboard-response",602,661398,"0.0-3.197-0.197","l5trlggvscjd1a2",597,"70.csv","","980.1000000238419","resources/trios/L1T1A2.jpg","38","restless",0.3,0.5,0.7,0.938074291082041,"false"
"image-keyboard-response",603,661800,"0.0-3.197-1.197","l5trlggvscjd1a2",597,"70.csv","","null","resources/maskTrios/BT1B.jpg","null","",NA,NA,NA,NA,""
"image-keyboard-response",604,663007,"0.0-3.197-2.197","l5trlggvscjd1a2",597,"70.csv","","null","resources/images/fishbone.png","null","",NA,NA,NA,NA,""
"image-keyboard-response",605,663772,"0.0-3.198-0.198","l5trlggvscjd1a2",597,"70.csv","","764.5","resources/trios/L4T2A3.jpg","39","restless",0.4,0.5,0.7,0.103772934932259,"true"
"image-keyboard-response",606,664179,"0.0-3.198-1.198","l5trlggvscjd1a2",597,"70.csv","","null","resources/maskTrios/BBA3.jpg","null","",NA,NA,NA,NA,""
"image-keyboard-response",607,665384,"0.0-3.198-2.198","l5trlggvscjd1a2",597,"70.csv","","null","resources/images/coin2.png","null","",NA,NA,NA,NA,""
"image-keyboard-response",608,666617,"0.0-3.199-0.199","l5trlggvscjd1a2",597,"70.csv","","1231.8999999761581","resources/trios/L4T1A2.jpg","37","restless",0.4,0.5,0.8,0.251117073941687,"true"
"image-keyboard-response",609,667020,"0.0-3.199-1.199","l5trlggvscjd1a2",597,"70.csv","","null","resources/maskTrios/L4BB.jpg","null","",NA,NA,NA,NA,""
