"trial_type","trial_index","time_elapsed","internal_node_id","subject","participantCode","walkNumber","success","rt","stimulus","key_press","test_part","leftProb","midProb","rightProb","generatedNum","correct"
"pavlovia",0,956,"0.0-0.0","2s6xc6qrdlc0y8b",929,"34.csv","","","","","",NA,NA,NA,NA,""
"fullscreen",1,12018,"0.0-1.0","2s6xc6qrdlc0y8b",929,"34.csv","true","","","","",NA,NA,NA,NA,""
"html-keyboard-response",2,42254,"0.0-2.0-0.0","2s6xc6qrdlc0y8b",929,"34.csv","","30236.40000000596","<p><font size='6'>Arrrgh!</p></font><p>Can you be the best pirate? Try to find lots of gold! But beware, some islands have more gold than others, and over time, the island with the most gold may change. Can YOU figure it out? </p><font size='6'>GOOD LUCK, CAPTAIN!!!</font><p>Press any key to begin</p>","32","",NA,NA,NA,NA,""
"image-keyboard-response",3,45259,"0.0-2.0-1.0","2s6xc6qrdlc0y8b",929,"34.csv","","null","resources/image_sets/111.png","null","",NA,NA,NA,NA,""
"image-keyboard-response",4,51579,"0.0-2.0-2.0","2s6xc6qrdlc0y8b",929,"34.csv","","6319.20000000298","resources/image_sets/left_highlight.png","37","",NA,NA,NA,NA,""
"image-keyboard-response",5,53954,"0.0-2.0-3.0","2s6xc6qrdlc0y8b",929,"34.csv","","2372.7000000029802","resources/image_sets/mid_highlight.png","38","",NA,NA,NA,NA,""
"image-keyboard-response",6,55136,"0.0-2.0-4.0","2s6xc6qrdlc0y8b",929,"34.csv","","1180.9000000059605","resources/image_sets/right_highlight.png","39","",NA,NA,NA,NA,""
"image-keyboard-response",7,60110,"0.0-2.0-5.0","2s6xc6qrdlc0y8b",929,"34.csv","","4973.9000000059605","resources/image_sets/111.png","13","",NA,NA,NA,NA,""
"image-keyboard-response",8,62593,"0.0-2.0-6.0","2s6xc6qrdlc0y8b",929,"34.csv","","2482.2999999970198","resources/images/coin2.png","13","",NA,NA,NA,NA,""
"image-keyboard-response",9,63982,"0.0-2.0-7.0","2s6xc6qrdlc0y8b",929,"34.csv","","1387","resources/images/fishbone.png","13","",NA,NA,NA,NA,""
"html-keyboard-response",10,68504,"0.0-2.0-8.0","2s6xc6qrdlc0y8b",929,"34.csv","","4521.100000008941","<p>Your first journey will be a long one, but you will get a well deserved break at the end</p><p>After the break you will have four more journeys, but each will be much shorter than the first, and you will have breaks in between each</p><p>Press Enter to begin</p>","13","",NA,NA,NA,NA,""
"image-keyboard-response",11,69880,"0.0-3.0-0.0","2s6xc6qrdlc0y8b",929,"34.csv","","1374.7000000029802","resources/trios/L1T4A1.jpg","38","restless",0.3,0.9,0.7,0.4732582779735,"true"
"image-keyboard-response",12,70287,"0.0-3.0-1.0","2s6xc6qrdlc0y8b",929,"34.csv","","null","resources/maskTrios/BT4B.jpg","null","",NA,NA,NA,NA,""
"image-keyboard-response",13,71495,"0.0-3.0-2.0","2s6xc6qrdlc0y8b",929,"34.csv","","null","resources/images/coin2.png","null","",NA,NA,NA,NA,""
"image-keyboard-response",14,72928,"0.0-3.1-0.1","2s6xc6qrdlc0y8b",929,"34.csv","","1431.7999999970198","resources/trios/L1T4A1.jpg","37","restless",0.3,0.9,0.7,0.668059198053638,"false"
"image-keyboard-response",15,73335,"0.0-3.1-1.1","2s6xc6qrdlc0y8b",929,"34.csv","","null","resources/maskTrios/L1BB.jpg","null","",NA,NA,NA,NA,""
"image-keyboard-response",16,74536,"0.0-3.1-2.1","2s6xc6qrdlc0y8b",929,"34.csv","","null","resources/images/fishbone.png","null","",NA,NA,NA,NA,""
"image-keyboard-response",17,75029,"0.0-3.2-0.2","2s6xc6qrdlc0y8b",929,"34.csv","","491.20000000298023","resources/trios/L4T2A2.jpg","39","restless",0.3,0.9,0.7,0.705673407736393,"false"
"image-keyboard-response",18,75436,"0.0-3.2-1.2","2s6xc6qrdlc0y8b",929,"34.csv","","null","resources/maskTrios/BBA2.jpg","null","",NA,NA,NA,NA,""
"image-keyboard-response",19,76642,"0.0-3.2-2.2","2s6xc6qrdlc0y8b",929,"34.csv","","null","resources/images/fishbone.png","null","",NA,NA,NA,NA,""
"image-keyboard-response",20,77251,"0.0-3.3-0.3","2s6xc6qrdlc0y8b",929,"34.csv","","607.8999999910593","resources/trios/L4T4A2.jpg","38","restless",0.4,0.9,0.8,0.330816053423606,"true"
"image-keyboard-response",21,77655,"0.0-3.3-1.3","2s6xc6qrdlc0y8b",929,"34.csv","","null","resources/maskTrios/BT4B.jpg","null","",NA,NA,NA,NA,""
"image-keyboard-response",22,78861,"0.0-3.3-2.3","2s6xc6qrdlc0y8b",929,"34.csv","","null","resources/images/coin2.png","null","",NA,NA,NA,NA,""
"image-keyboard-response",23,79214,"0.0-3.4-0.4","2s6xc6qrdlc0y8b",929,"34.csv","","351.29999999701977","resources/trios/L4T2A1.jpg","38","restless",0.4,0.9,0.8,0.555044112385917,"true"
"image-keyboard-response",24,79617,"0.0-3.4-1.4","2s6xc6qrdlc0y8b",929,"34.csv","","null","resources/maskTrios/BT2B.jpg","null","",NA,NA,NA,NA,""
"image-keyboard-response",25,80823,"0.0-3.4-2.4","2s6xc6qrdlc0y8b",929,"34.csv","","null","resources/images/coin2.png","null","",NA,NA,NA,NA,""
"image-keyboard-response",26,81246,"0.0-3.5-0.5","2s6xc6qrdlc0y8b",929,"34.csv","","421.09999999403954","resources/trios/L1T2A1.jpg","38","restless",0.4,0.9,0.7,0.609745756063935,"true"
"image-keyboard-response",27,81652,"0.0-3.5-1.5","2s6xc6qrdlc0y8b",929,"34.csv","","null","resources/maskTrios/BT2B.jpg","null","",NA,NA,NA,NA,""
"image-keyboard-response",28,82859,"0.0-3.5-2.5","2s6xc6qrdlc0y8b",929,"34.csv","","null","resources/images/coin2.png","null","",NA,NA,NA,NA,""
"image-keyboard-response",29,83496,"0.0-3.6-0.6","2s6xc6qrdlc0y8b",929,"34.csv","","636.5","resources/trios/L4T2A2.jpg","38","restless",0.4,0.9,0.7,0.666067919832807,"true"
"image-keyboard-response",30,83902,"0.0-3.6-1.6","2s6xc6qrdlc0y8b",929,"34.csv","","null","resources/maskTrios/BT2B.jpg","null","",NA,NA,NA,NA,""
"image-keyboard-response",31,85104,"0.0-3.6-2.6","2s6xc6qrdlc0y8b",929,"34.csv","","null","resources/images/coin2.png","null","",NA,NA,NA,NA,""
"image-keyboard-response",32,85406,"0.0-3.7-0.7","2s6xc6qrdlc0y8b",929,"34.csv","","301.30000001192093","resources/trios/L4T4A2.jpg","38","restless",0.4,0.9,0.7,0.503851283134344,"true"
"image-keyboard-response",33,85810,"0.0-3.7-1.7","2s6xc6qrdlc0y8b",929,"34.csv","","null","resources/maskTrios/BT4B.jpg","null","",NA,NA,NA,NA,""
"image-keyboard-response",34,87016,"0.0-3.7-2.7","2s6xc6qrdlc0y8b",929,"34.csv","","null","resources/images/coin2.png","null","",NA,NA,NA,NA,""
"image-keyboard-response",35,87433,"0.0-3.8-0.8","2s6xc6qrdlc0y8b",929,"34.csv","","415.70000000298023","resources/trios/L1T2A2.jpg","38","restless",0.4,0.9,0.7,0.99052529476664,"false"
"image-keyboard-response",36,87839,"0.0-3.8-1.8","2s6xc6qrdlc0y8b",929,"34.csv","","null","resources/maskTrios/BT2B.jpg","null","",NA,NA,NA,NA,""
"image-keyboard-response",37,89041,"0.0-3.8-2.8","2s6xc6qrdlc0y8b",929,"34.csv","","null","resources/images/fishbone.png","null","",NA,NA,NA,NA,""
"image-keyboard-response",38,89324,"0.0-3.9-0.9","2s6xc6qrdlc0y8b",929,"34.csv","","281.8999999910593","resources/trios/L1T4A1.jpg","37","restless",0.4,0.9,0.7,0.732834481341988,"false"
"image-keyboard-response",39,89731,"0.0-3.9-1.9","2s6xc6qrdlc0y8b",929,"34.csv","","null","resources/maskTrios/L1BB.jpg","null","",NA,NA,NA,NA,""
"image-keyboard-response",40,90937,"0.0-3.9-2.9","2s6xc6qrdlc0y8b",929,"34.csv","","null","resources/images/fishbone.png","null","",NA,NA,NA,NA,""
"image-keyboard-response",41,91286,"0.0-3.10-0.10","2s6xc6qrdlc0y8b",929,"34.csv","","348.20000000298023","resources/trios/L4T2A1.jpg","39","restless",0.4,0.9,0.7,0.958773851272555,"false"
"image-keyboard-response",42,91694,"0.0-3.10-1.10","2s6xc6qrdlc0y8b",929,"34.csv","","null","resources/maskTrios/BBA1.jpg","null","",NA,NA,NA,NA,""
"image-keyboard-response",43,92900,"0.0-3.10-2.10","2s6xc6qrdlc0y8b",929,"34.csv","","null","resources/images/fishbone.png","null","",NA,NA,NA,NA,""
"image-keyboard-response",44,93693,"0.0-3.11-0.11","2s6xc6qrdlc0y8b",929,"34.csv","","792.2999999970198","resources/trios/L1T4A2.jpg","39","restless",0.4,0.9,0.7,0.458994247421862,"true"
"image-keyboard-response",45,94100,"0.0-3.11-1.11","2s6xc6qrdlc0y8b",929,"34.csv","","null","resources/maskTrios/BBA2.jpg","null","",NA,NA,NA,NA,""
"image-keyboard-response",46,95307,"0.0-3.11-2.11","2s6xc6qrdlc0y8b",929,"34.csv","","null","resources/images/coin2.png","null","",NA,NA,NA,NA,""
"image-keyboard-response",47,95926,"0.0-3.12-0.12","2s6xc6qrdlc0y8b",929,"34.csv","","618","resources/trios/L1T4A2.jpg","39","restless",0.5,0.9,0.7,0.770447717382633,"false"
"image-keyboard-response",48,96330,"0.0-3.12-1.12","2s6xc6qrdlc0y8b",929,"34.csv","","null","resources/maskTrios/BBA2.jpg","null","",NA,NA,NA,NA,""
"image-keyboard-response",49,97536,"0.0-3.12-2.12","2s6xc6qrdlc0y8b",929,"34.csv","","null","resources/images/fishbone.png","null","",NA,NA,NA,NA,""
"image-keyboard-response",50,98182,"0.0-3.13-0.13","2s6xc6qrdlc0y8b",929,"34.csv","","645.2999999970198","resources/trios/L1T4A2.jpg","37","restless",0.6,0.9,0.7,0.10636920564656,"true"
"image-keyboard-response",51,98589,"0.0-3.13-1.13","2s6xc6qrdlc0y8b",929,"34.csv","","null","resources/maskTrios/L1BB.jpg","null","",NA,NA,NA,NA,""
"image-keyboard-response",52,99795,"0.0-3.13-2.13","2s6xc6qrdlc0y8b",929,"34.csv","","null","resources/images/coin2.png","null","",NA,NA,NA,NA,""
"image-keyboard-response",53,100176,"0.0-3.14-0.14","2s6xc6qrdlc0y8b",929,"34.csv","","380.29999999701977","resources/trios/L4T2A1.jpg","38","restless",0.6,0.9,0.8,0.498826480230577,"true"
"image-keyboard-response",54,100579,"0.0-3.14-1.14","2s6xc6qrdlc0y8b",929,"34.csv","","null","resources/maskTrios/BT2B.jpg","null","",NA,NA,NA,NA,""
"image-keyboard-response",55,101785,"0.0-3.14-2.14","2s6xc6qrdlc0y8b",929,"34.csv","","null","resources/images/coin2.png","null","",NA,NA,NA,NA,""
"image-keyboard-response",56,102031,"0.0-3.15-0.15","2s6xc6qrdlc0y8b",929,"34.csv","","245.3999999910593","resources/trios/L1T2A2.jpg","39","restless",0.7,0.9,0.8,0.672252751077584,"true"
"image-keyboard-response",57,102438,"0.0-3.15-1.15","2s6xc6qrdlc0y8b",929,"34.csv","","null","resources/maskTrios/BBA2.jpg","null","",NA,NA,NA,NA,""
"image-keyboard-response",58,103644,"0.0-3.15-2.15","2s6xc6qrdlc0y8b",929,"34.csv","","null","resources/images/coin2.png","null","",NA,NA,NA,NA,""
"image-keyboard-response",59,104023,"0.0-3.16-0.16","2s6xc6qrdlc0y8b",929,"34.csv","","377.3999999910593","resources/trios/L4T4A1.jpg","37","restless",0.7,0.9,0.8,0.0155482656242572,"true"
"image-keyboard-response",60,104425,"0.0-3.16-1.16","2s6xc6qrdlc0y8b",929,"34.csv","","null","resources/maskTrios/L4BB.jpg","null","",NA,NA,NA,NA,""
"image-keyboard-response",61,105629,"0.0-3.16-2.16","2s6xc6qrdlc0y8b",929,"34.csv","","null","resources/images/coin2.png","null","",NA,NA,NA,NA,""
"image-keyboard-response",62,105892,"0.0-3.17-0.17","2s6xc6qrdlc0y8b",929,"34.csv","","261.6000000089407","resources/trios/L4T2A2.jpg","38","restless",0.7,0.8,0.8,0.231871572959129,"true"
"image-keyboard-response",63,106298,"0.0-3.17-1.17","2s6xc6qrdlc0y8b",929,"34.csv","","null","resources/maskTrios/BT2B.jpg","null","",NA,NA,NA,NA,""
"image-keyboard-response",64,107505,"0.0-3.17-2.17","2s6xc6qrdlc0y8b",929,"34.csv","","null","resources/images/coin2.png","null","",NA,NA,NA,NA,""
"image-keyboard-response",65,107781,"0.0-3.18-0.18","2s6xc6qrdlc0y8b",929,"34.csv","","274.79999999701977","resources/trios/L4T4A2.jpg","39","restless",0.7,0.7,0.8,0.0901335383221222,"true"
"image-keyboard-response",66,108187,"0.0-3.18-1.18","2s6xc6qrdlc0y8b",929,"34.csv","","null","resources/maskTrios/BBA2.jpg","null","",NA,NA,NA,NA,""
"image-keyboard-response",67,109392,"0.0-3.18-2.18","2s6xc6qrdlc0y8b",929,"34.csv","","null","resources/images/coin2.png","null","",NA,NA,NA,NA,""
"image-keyboard-response",68,109720,"0.0-3.19-0.19","2s6xc6qrdlc0y8b",929,"34.csv","","325.79999999701977","resources/trios/L4T4A1.jpg","37","restless",0.7,0.7,0.8,0.427694870697611,"true"
"image-keyboard-response",69,110122,"0.0-3.19-1.19","2s6xc6qrdlc0y8b",929,"34.csv","","null","resources/maskTrios/L4BB.jpg","null","",NA,NA,NA,NA,""
"image-keyboard-response",70,111328,"0.0-3.19-2.19","2s6xc6qrdlc0y8b",929,"34.csv","","null","resources/images/coin2.png","null","",NA,NA,NA,NA,""
"image-keyboard-response",71,111578,"0.0-3.20-0.20","2s6xc6qrdlc0y8b",929,"34.csv","","248.1000000089407","resources/trios/L4T2A2.jpg","38","restless",0.7,0.7,0.8,0.74917440511683,"false"
"image-keyboard-response",72,111979,"0.0-3.20-1.20","2s6xc6qrdlc0y8b",929,"34.csv","","null","resources/maskTrios/BT2B.jpg","null","",NA,NA,NA,NA,""
"image-keyboard-response",73,113185,"0.0-3.20-2.20","2s6xc6qrdlc0y8b",929,"34.csv","","null","resources/images/fishbone.png","null","",NA,NA,NA,NA,""
"image-keyboard-response",74,113776,"0.0-3.21-0.21","2s6xc6qrdlc0y8b",929,"34.csv","","588.5","resources/trios/L4T4A1.jpg","37","restless",0.7,0.7,0.8,0.609492048481777,"true"
"image-keyboard-response",75,114182,"0.0-3.21-1.21","2s6xc6qrdlc0y8b",929,"34.csv","","null","resources/maskTrios/L4BB.jpg","null","",NA,NA,NA,NA,""
"image-keyboard-response",76,115388,"0.0-3.21-2.21","2s6xc6qrdlc0y8b",929,"34.csv","","null","resources/images/coin2.png","null","",NA,NA,NA,NA,""
"image-keyboard-response",77,115698,"0.0-3.22-0.22","2s6xc6qrdlc0y8b",929,"34.csv","","308.59999999403954","resources/trios/L1T2A1.jpg","37","restless",0.6,0.7,0.8,0.548383382410024,"true"
"image-keyboard-response",78,116104,"0.0-3.22-1.22","2s6xc6qrdlc0y8b",929,"34.csv","","null","resources/maskTrios/L1BB.jpg","null","",NA,NA,NA,NA,""
"image-keyboard-response",79,117309,"0.0-3.22-2.22","2s6xc6qrdlc0y8b",929,"34.csv","","null","resources/images/coin2.png","null","",NA,NA,NA,NA,""
"image-keyboard-response",80,117570,"0.0-3.23-0.23","2s6xc6qrdlc0y8b",929,"34.csv","","260.29999999701977","resources/trios/L1T4A1.jpg","37","restless",0.6,0.7,0.8,0.750180265906896,"false"
"image-keyboard-response",81,117974,"0.0-3.23-1.23","2s6xc6qrdlc0y8b",929,"34.csv","","null","resources/maskTrios/L1BB.jpg","null","",NA,NA,NA,NA,""
"image-keyboard-response",82,119180,"0.0-3.23-2.23","2s6xc6qrdlc0y8b",929,"34.csv","","null","resources/images/fishbone.png","null","",NA,NA,NA,NA,""
"image-keyboard-response",83,119453,"0.0-3.24-0.24","2s6xc6qrdlc0y8b",929,"34.csv","","271.59999999403954","resources/trios/L1T4A1.jpg","39","restless",0.6,0.7,0.8,0.940804879427761,"false"
"image-keyboard-response",84,119859,"0.0-3.24-1.24","2s6xc6qrdlc0y8b",929,"34.csv","","null","resources/maskTrios/BBA1.jpg","null","",NA,NA,NA,NA,""
"image-keyboard-response",85,121061,"0.0-3.24-2.24","2s6xc6qrdlc0y8b",929,"34.csv","","null","resources/images/fishbone.png","null","",NA,NA,NA,NA,""
"image-keyboard-response",86,121373,"0.0-3.25-0.25","2s6xc6qrdlc0y8b",929,"34.csv","","310.40000000596046","resources/trios/L4T2A1.jpg","38","restless",0.6,0.7,0.8,0.854677870805485,"false"
"image-keyboard-response",87,121780,"0.0-3.25-1.25","2s6xc6qrdlc0y8b",929,"34.csv","","null","resources/maskTrios/BT2B.jpg","null","",NA,NA,NA,NA,""
"image-keyboard-response",88,122985,"0.0-3.25-2.25","2s6xc6qrdlc0y8b",929,"34.csv","","null","resources/images/fishbone.png","null","",NA,NA,NA,NA,""
"image-keyboard-response",89,123041,"0.0-3.26-0.26","2s6xc6qrdlc0y8b",929,"34.csv","","54.400000005960464","resources/trios/L4T2A1.jpg","39","restless",0.6,0.7,0.8,0.764814334235342,"true"
"image-keyboard-response",90,123447,"0.0-3.26-1.26","2s6xc6qrdlc0y8b",929,"34.csv","","null","resources/maskTrios/BBA1.jpg","null","",NA,NA,NA,NA,""
"image-keyboard-response",91,124653,"0.0-3.26-2.26","2s6xc6qrdlc0y8b",929,"34.csv","","null","resources/images/coin2.png","null","",NA,NA,NA,NA,""
"image-keyboard-response",92,125128,"0.0-3.27-0.27","2s6xc6qrdlc0y8b",929,"34.csv","","473.5","resources/trios/L4T4A2.jpg","38","restless",0.6,0.7,0.8,0.334460650501289,"true"
"image-keyboard-response",93,125534,"0.0-3.27-1.27","2s6xc6qrdlc0y8b",929,"34.csv","","null","resources/maskTrios/BT4B.jpg","null","",NA,NA,NA,NA,""
"image-keyboard-response",94,126740,"0.0-3.27-2.27","2s6xc6qrdlc0y8b",929,"34.csv","","null","resources/images/coin2.png","null","",NA,NA,NA,NA,""
"image-keyboard-response",95,127036,"0.0-3.28-0.28","2s6xc6qrdlc0y8b",929,"34.csv","","294.59999999403954","resources/trios/L1T2A2.jpg","37","restless",0.6,0.7,0.8,0.728222362010002,"false"
"image-keyboard-response",96,127442,"0.0-3.28-1.28","2s6xc6qrdlc0y8b",929,"34.csv","","null","resources/maskTrios/L1BB.jpg","null","",NA,NA,NA,NA,""
"image-keyboard-response",97,128648,"0.0-3.28-2.28","2s6xc6qrdlc0y8b",929,"34.csv","","null","resources/images/fishbone.png","null","",NA,NA,NA,NA,""
"image-keyboard-response",98,129567,"0.0-3.29-0.29","2s6xc6qrdlc0y8b",929,"34.csv","","917.6000000089407","resources/trios/L4T2A1.jpg","38","restless",0.6,0.6,0.9,0.345240988222266,"true"
"image-keyboard-response",99,129974,"0.0-3.29-1.29","2s6xc6qrdlc0y8b",929,"34.csv","","null","resources/maskTrios/BT2B.jpg","null","",NA,NA,NA,NA,""
"image-keyboard-response",100,131182,"0.0-3.29-2.29","2s6xc6qrdlc0y8b",929,"34.csv","","null","resources/images/coin2.png","null","",NA,NA,NA,NA,""
"image-keyboard-response",101,131589,"0.0-3.30-0.30","2s6xc6qrdlc0y8b",929,"34.csv","","406.59999999403954","resources/trios/L1T2A1.jpg","39","restless",0.6,0.6,0.9,0.628942342043398,"true"
"image-keyboard-response",102,131993,"0.0-3.30-1.30","2s6xc6qrdlc0y8b",929,"34.csv","","null","resources/maskTrios/BBA1.jpg","null","",NA,NA,NA,NA,""
"image-keyboard-response",103,133199,"0.0-3.30-2.30","2s6xc6qrdlc0y8b",929,"34.csv","","null","resources/images/coin2.png","null","",NA,NA,NA,NA,""
"image-keyboard-response",104,133462,"0.0-3.31-0.31","2s6xc6qrdlc0y8b",929,"34.csv","","261.20000000298023","resources/trios/L4T2A1.jpg","38","restless",0.6,0.6,0.9,0.27038924115636,"true"
"image-keyboard-response",105,133868,"0.0-3.31-1.31","2s6xc6qrdlc0y8b",929,"34.csv","","null","resources/maskTrios/BT2B.jpg","null","",NA,NA,NA,NA,""
"image-keyboard-response",106,135074,"0.0-3.31-2.31","2s6xc6qrdlc0y8b",929,"34.csv","","null","resources/images/coin2.png","null","",NA,NA,NA,NA,""
"image-keyboard-response",107,135326,"0.0-3.32-0.32","2s6xc6qrdlc0y8b",929,"34.csv","","251.30000001192093","resources/trios/L1T2A2.jpg","39","restless",0.6,0.6,0.8,0.0295955243512669,"true"
"image-keyboard-response",108,135730,"0.0-3.32-1.32","2s6xc6qrdlc0y8b",929,"34.csv","","null","resources/maskTrios/BBA2.jpg","null","",NA,NA,NA,NA,""
"image-keyboard-response",109,136936,"0.0-3.32-2.32","2s6xc6qrdlc0y8b",929,"34.csv","","null","resources/images/coin2.png","null","",NA,NA,NA,NA,""
"image-keyboard-response",110,137185,"0.0-3.33-0.33","2s6xc6qrdlc0y8b",929,"34.csv","","247.79999999701977","resources/trios/L4T4A2.jpg","38","restless",0.7,0.6,0.8,0.662590917291746,"false"
"image-keyboard-response",111,137591,"0.0-3.33-1.33","2s6xc6qrdlc0y8b",929,"34.csv","","null","resources/maskTrios/BT4B.jpg","null","",NA,NA,NA,NA,""
"image-keyboard-response",112,138793,"0.0-3.33-2.33","2s6xc6qrdlc0y8b",929,"34.csv","","null","resources/images/fishbone.png","null","",NA,NA,NA,NA,""
"image-keyboard-response",113,139096,"0.0-3.34-0.34","2s6xc6qrdlc0y8b",929,"34.csv","","301.40000000596046","resources/trios/L4T4A1.jpg","37","restless",0.6,0.6,0.8,0.641037212469597,"false"
"image-keyboard-response",114,139503,"0.0-3.34-1.34","2s6xc6qrdlc0y8b",929,"34.csv","","null","resources/maskTrios/L4BB.jpg","null","",NA,NA,NA,NA,""
"image-keyboard-response",115,140709,"0.0-3.34-2.34","2s6xc6qrdlc0y8b",929,"34.csv","","null","resources/images/fishbone.png","null","",NA,NA,NA,NA,""
"image-keyboard-response",116,140717,"0.0-3.35-0.35","2s6xc6qrdlc0y8b",929,"34.csv","","6.9000000059604645","resources/trios/L1T4A1.jpg","39","restless",0.6,0.5,0.8,0.198066352705822,"true"
"image-keyboard-response",117,141121,"0.0-3.35-1.35","2s6xc6qrdlc0y8b",929,"34.csv","","null","resources/maskTrios/BBA1.jpg","null","",NA,NA,NA,NA,""
"image-keyboard-response",118,142325,"0.0-3.35-2.35","2s6xc6qrdlc0y8b",929,"34.csv","","null","resources/images/coin2.png","null","",NA,NA,NA,NA,""
"image-keyboard-response",119,142561,"0.0-3.36-0.36","2s6xc6qrdlc0y8b",929,"34.csv","","234.09999999403954","resources/trios/L1T2A1.jpg","39","restless",0.6,0.5,0.8,0.950212351986973,"false"
"image-keyboard-response",120,142965,"0.0-3.36-1.36","2s6xc6qrdlc0y8b",929,"34.csv","","null","resources/maskTrios/BBA1.jpg","null","",NA,NA,NA,NA,""
"image-keyboard-response",121,144170,"0.0-3.36-2.36","2s6xc6qrdlc0y8b",929,"34.csv","","null","resources/images/fishbone.png","null","",NA,NA,NA,NA,""
"image-keyboard-response",122,144356,"0.0-3.37-0.37","2s6xc6qrdlc0y8b",929,"34.csv","","184.6000000089407","resources/trios/L4T4A2.jpg","38","restless",0.5,0.5,0.8,0.763703935237157,"false"
"image-keyboard-response",123,144762,"0.0-3.37-1.37","2s6xc6qrdlc0y8b",929,"34.csv","","null","resources/maskTrios/BT4B.jpg","null","",NA,NA,NA,NA,""
"image-keyboard-response",124,145963,"0.0-3.37-2.37","2s6xc6qrdlc0y8b",929,"34.csv","","null","resources/images/fishbone.png","null","",NA,NA,NA,NA,""
"image-keyboard-response",125,146184,"0.0-3.38-0.38","2s6xc6qrdlc0y8b",929,"34.csv","","218.90000000596046","resources/trios/L4T2A1.jpg","37","restless",0.5,0.6,0.7,0.122948336221107,"true"
"image-keyboard-response",126,146590,"0.0-3.38-1.38","2s6xc6qrdlc0y8b",929,"34.csv","","null","resources/maskTrios/L4BB.jpg","null","",NA,NA,NA,NA,""
"image-keyboard-response",127,147797,"0.0-3.38-2.38","2s6xc6qrdlc0y8b",929,"34.csv","","null","resources/images/coin2.png","null","",NA,NA,NA,NA,""
"image-keyboard-response",128,148081,"0.0-3.39-0.39","2s6xc6qrdlc0y8b",929,"34.csv","","284.09999999403954","resources/trios/L1T2A1.jpg","37","restless",0.5,0.6,0.7,0.822881576446318,"false"
"image-keyboard-response",129,148488,"0.0-3.39-1.39","2s6xc6qrdlc0y8b",929,"34.csv","","null","resources/maskTrios/L1BB.jpg","null","",NA,NA,NA,NA,""
"image-keyboard-response",130,149691,"0.0-3.39-2.39","2s6xc6qrdlc0y8b",929,"34.csv","","null","resources/images/fishbone.png","null","",NA,NA,NA,NA,""
"image-keyboard-response",131,149971,"0.0-3.40-0.40","2s6xc6qrdlc0y8b",929,"34.csv","","278.3999999910593","resources/trios/L4T2A2.jpg","38","restless",0.5,0.6,0.7,0.394475486812764,"true"
"image-keyboard-response",132,150378,"0.0-3.40-1.40","2s6xc6qrdlc0y8b",929,"34.csv","","null","resources/maskTrios/BT2B.jpg","null","",NA,NA,NA,NA,""
"image-keyboard-response",133,151584,"0.0-3.40-2.40","2s6xc6qrdlc0y8b",929,"34.csv","","null","resources/images/coin2.png","null","",NA,NA,NA,NA,""
"image-keyboard-response",134,151852,"0.0-3.41-0.41","2s6xc6qrdlc0y8b",929,"34.csv","","267.40000000596046","resources/trios/L1T4A2.jpg","39","restless",0.5,0.6,0.7,0.00155081346748887,"true"
"image-keyboard-response",135,152259,"0.0-3.41-1.41","2s6xc6qrdlc0y8b",929,"34.csv","","null","resources/maskTrios/BBA2.jpg","null","",NA,NA,NA,NA,""
"image-keyboard-response",136,153465,"0.0-3.41-2.41","2s6xc6qrdlc0y8b",929,"34.csv","","null","resources/images/coin2.png","null","",NA,NA,NA,NA,""
"image-keyboard-response",137,153757,"0.0-3.42-0.42","2s6xc6qrdlc0y8b",929,"34.csv","","290.79999999701977","resources/trios/L1T4A1.jpg","37","restless",0.5,0.6,0.8,0.84437331540524,"false"
"image-keyboard-response",138,154164,"0.0-3.42-1.42","2s6xc6qrdlc0y8b",929,"34.csv","","null","resources/maskTrios/L1BB.jpg","null","",NA,NA,NA,NA,""
"image-keyboard-response",139,155369,"0.0-3.42-2.42","2s6xc6qrdlc0y8b",929,"34.csv","","null","resources/images/fishbone.png","null","",NA,NA,NA,NA,""
"image-keyboard-response",140,155472,"0.0-3.43-0.43","2s6xc6qrdlc0y8b",929,"34.csv","","101.1000000089407","resources/trios/L1T2A2.jpg","38","restless",0.5,0.6,0.8,0.563112896191731,"true"
"image-keyboard-response",141,155878,"0.0-3.43-1.43","2s6xc6qrdlc0y8b",929,"34.csv","","null","resources/maskTrios/BT2B.jpg","null","",NA,NA,NA,NA,""
"image-keyboard-response",142,157084,"0.0-3.43-2.43","2s6xc6qrdlc0y8b",929,"34.csv","","null","resources/images/coin2.png","null","",NA,NA,NA,NA,""
"image-keyboard-response",143,157493,"0.0-3.44-0.44","2s6xc6qrdlc0y8b",929,"34.csv","","407.5","resources/trios/L1T4A1.jpg","37","restless",0.5,0.6,0.8,0.407047940229429,"true"
"image-keyboard-response",144,157900,"0.0-3.44-1.44","2s6xc6qrdlc0y8b",929,"34.csv","","null","resources/maskTrios/L1BB.jpg","null","",NA,NA,NA,NA,""
"image-keyboard-response",145,159102,"0.0-3.44-2.44","2s6xc6qrdlc0y8b",929,"34.csv","","null","resources/images/coin2.png","null","",NA,NA,NA,NA,""
"image-keyboard-response",146,159737,"0.0-3.45-0.45","2s6xc6qrdlc0y8b",929,"34.csv","","634.2999999970198","resources/trios/L4T2A1.jpg","38","restless",0.5,0.6,0.8,0.967766311313708,"false"
"image-keyboard-response",147,160140,"0.0-3.45-1.45","2s6xc6qrdlc0y8b",929,"34.csv","","null","resources/maskTrios/BT2B.jpg","null","",NA,NA,NA,NA,""
"image-keyboard-response",148,161346,"0.0-3.45-2.45","2s6xc6qrdlc0y8b",929,"34.csv","","null","resources/images/fishbone.png","null","",NA,NA,NA,NA,""
"image-keyboard-response",149,161665,"0.0-3.46-0.46","2s6xc6qrdlc0y8b",929,"34.csv","","317.70000000298023","resources/trios/L1T4A1.jpg","39","restless",0.5,0.6,0.7,0.580614579813894,"true"
"image-keyboard-response",150,162072,"0.0-3.46-1.46","2s6xc6qrdlc0y8b",929,"34.csv","","null","resources/maskTrios/BBA1.jpg","null","",NA,NA,NA,NA,""
"image-keyboard-response",151,163278,"0.0-3.46-2.46","2s6xc6qrdlc0y8b",929,"34.csv","","null","resources/images/coin2.png","null","",NA,NA,NA,NA,""
"image-keyboard-response",152,163813,"0.0-3.47-0.47","2s6xc6qrdlc0y8b",929,"34.csv","","533.5999999940395","resources/trios/L4T2A1.jpg","37","restless",0.5,0.7,0.7,0.134236580663536,"true"
"image-keyboard-response",153,164219,"0.0-3.47-1.47","2s6xc6qrdlc0y8b",929,"34.csv","","null","resources/maskTrios/L4BB.jpg","null","",NA,NA,NA,NA,""
"image-keyboard-response",154,165425,"0.0-3.47-2.47","2s6xc6qrdlc0y8b",929,"34.csv","","null","resources/images/coin2.png","null","",NA,NA,NA,NA,""
"image-keyboard-response",155,165964,"0.0-3.48-0.48","2s6xc6qrdlc0y8b",929,"34.csv","","536.9000000059605","resources/trios/L4T2A2.jpg","39","restless",0.5,0.7,0.8,0.093511427575296,"true"
"image-keyboard-response",156,166370,"0.0-3.48-1.48","2s6xc6qrdlc0y8b",929,"34.csv","","null","resources/maskTrios/BBA2.jpg","null","",NA,NA,NA,NA,""
"image-keyboard-response",157,167577,"0.0-3.48-2.48","2s6xc6qrdlc0y8b",929,"34.csv","","null","resources/images/coin2.png","null","",NA,NA,NA,NA,""
"image-keyboard-response",158,167979,"0.0-3.49-0.49","2s6xc6qrdlc0y8b",929,"34.csv","","400.6000000089407","resources/trios/L4T2A2.jpg","37","restless",0.4,0.6,0.8,0.287512158603914,"true"
"image-keyboard-response",159,168385,"0.0-3.49-1.49","2s6xc6qrdlc0y8b",929,"34.csv","","null","resources/maskTrios/L4BB.jpg","null","",NA,NA,NA,NA,""
"image-keyboard-response",160,169587,"0.0-3.49-2.49","2s6xc6qrdlc0y8b",929,"34.csv","","null","resources/images/coin2.png","null","",NA,NA,NA,NA,""
"image-keyboard-response",161,169897,"0.0-3.50-0.50","2s6xc6qrdlc0y8b",929,"34.csv","","309.09999999403954","resources/trios/L4T4A1.jpg","39","restless",0.4,0.6,0.8,0.00334712597864795,"true"
"image-keyboard-response",162,170301,"0.0-3.50-1.50","2s6xc6qrdlc0y8b",929,"34.csv","","null","resources/maskTrios/BBA1.jpg","null","",NA,NA,NA,NA,""
"image-keyboard-response",163,171508,"0.0-3.50-2.50","2s6xc6qrdlc0y8b",929,"34.csv","","null","resources/images/coin2.png","null","",NA,NA,NA,NA,""
"image-keyboard-response",164,171791,"0.0-3.51-0.51","2s6xc6qrdlc0y8b",929,"34.csv","","281.69999998807907","resources/trios/L1T2A1.jpg","37","restless",0.4,0.6,0.8,0.694791736278114,"false"
"image-keyboard-response",165,172192,"0.0-3.51-1.51","2s6xc6qrdlc0y8b",929,"34.csv","","null","resources/maskTrios/L1BB.jpg","null","",NA,NA,NA,NA,""
"image-keyboard-response",166,173398,"0.0-3.51-2.51","2s6xc6qrdlc0y8b",929,"34.csv","","null","resources/images/fishbone.png","null","",NA,NA,NA,NA,""
"image-keyboard-response",167,173635,"0.0-3.52-0.52","2s6xc6qrdlc0y8b",929,"34.csv","","235","resources/trios/L4T2A2.jpg","39","restless",0.4,0.6,0.8,0.975927611762741,"false"
"image-keyboard-response",168,174041,"0.0-3.52-1.52","2s6xc6qrdlc0y8b",929,"34.csv","","null","resources/maskTrios/BBA2.jpg","null","",NA,NA,NA,NA,""
"image-keyboard-response",169,175246,"0.0-3.52-2.52","2s6xc6qrdlc0y8b",929,"34.csv","","null","resources/images/fishbone.png","null","",NA,NA,NA,NA,""
"image-keyboard-response",170,175467,"0.0-3.53-0.53","2s6xc6qrdlc0y8b",929,"34.csv","","219.6000000089407","resources/trios/L1T4A1.jpg","38","restless",0.4,0.6,0.8,0.649710205171614,"false"
"image-keyboard-response",171,175873,"0.0-3.53-1.53","2s6xc6qrdlc0y8b",929,"34.csv","","null","resources/maskTrios/BT4B.jpg","null","",NA,NA,NA,NA,""
"image-keyboard-response",172,177079,"0.0-3.53-2.53","2s6xc6qrdlc0y8b",929,"34.csv","","null","resources/images/fishbone.png","null","",NA,NA,NA,NA,""
"image-keyboard-response",173,177421,"0.0-3.54-0.54","2s6xc6qrdlc0y8b",929,"34.csv","","340.1000000089407","resources/trios/L1T2A1.jpg","39","restless",0.4,0.6,0.8,0.995246228112324,"false"
"image-keyboard-response",174,177827,"0.0-3.54-1.54","2s6xc6qrdlc0y8b",929,"34.csv","","null","resources/maskTrios/BBA1.jpg","null","",NA,NA,NA,NA,""
"image-keyboard-response",175,179031,"0.0-3.54-2.54","2s6xc6qrdlc0y8b",929,"34.csv","","null","resources/images/fishbone.png","null","",NA,NA,NA,NA,""
"image-keyboard-response",176,179186,"0.0-3.55-0.55","2s6xc6qrdlc0y8b",929,"34.csv","","154.30000001192093","resources/trios/L1T2A2.jpg","37","restless",0.4,0.6,0.8,0.995270262384358,"false"
"image-keyboard-response",177,179589,"0.0-3.55-1.55","2s6xc6qrdlc0y8b",929,"34.csv","","null","resources/maskTrios/L1BB.jpg","null","",NA,NA,NA,NA,""
"image-keyboard-response",178,180790,"0.0-3.55-2.55","2s6xc6qrdlc0y8b",929,"34.csv","","null","resources/images/fishbone.png","null","",NA,NA,NA,NA,""
"image-keyboard-response",179,181440,"0.0-3.56-0.56","2s6xc6qrdlc0y8b",929,"34.csv","","648","resources/trios/L4T4A2.jpg","38","restless",0.4,0.6,0.8,0.524685824249203,"true"
"image-keyboard-response",180,181846,"0.0-3.56-1.56","2s6xc6qrdlc0y8b",929,"34.csv","","null","resources/maskTrios/BT4B.jpg","null","",NA,NA,NA,NA,""
"image-keyboard-response",181,183052,"0.0-3.56-2.56","2s6xc6qrdlc0y8b",929,"34.csv","","null","resources/images/coin2.png","null","",NA,NA,NA,NA,""
"image-keyboard-response",182,183379,"0.0-3.57-0.57","2s6xc6qrdlc0y8b",929,"34.csv","","325.09999999403954","resources/trios/L1T4A2.jpg","38","restless",0.4,0.7,0.8,0.176026808587286,"true"
"image-keyboard-response",183,183785,"0.0-3.57-1.57","2s6xc6qrdlc0y8b",929,"34.csv","","null","resources/maskTrios/BT4B.jpg","null","",NA,NA,NA,NA,""
"image-keyboard-response",184,184991,"0.0-3.57-2.57","2s6xc6qrdlc0y8b",929,"34.csv","","null","resources/images/coin2.png","null","",NA,NA,NA,NA,""
"image-keyboard-response",185,185323,"0.0-3.58-0.58","2s6xc6qrdlc0y8b",929,"34.csv","","329.79999999701977","resources/trios/L4T2A2.jpg","38","restless",0.4,0.7,0.8,0.443596943200687,"true"
"image-keyboard-response",186,185725,"0.0-3.58-1.58","2s6xc6qrdlc0y8b",929,"34.csv","","null","resources/maskTrios/BT2B.jpg","null","",NA,NA,NA,NA,""
"image-keyboard-response",187,186931,"0.0-3.58-2.58","2s6xc6qrdlc0y8b",929,"34.csv","","null","resources/images/coin2.png","null","",NA,NA,NA,NA,""
"image-keyboard-response",188,187264,"0.0-3.59-0.59","2s6xc6qrdlc0y8b",929,"34.csv","","332.09999999403954","resources/trios/L4T2A1.jpg","38","restless",0.4,0.7,0.8,0.673525271931979,"true"
"image-keyboard-response",189,187671,"0.0-3.59-1.59","2s6xc6qrdlc0y8b",929,"34.csv","","null","resources/maskTrios/BT2B.jpg","null","",NA,NA,NA,NA,""
"image-keyboard-response",190,188877,"0.0-3.59-2.59","2s6xc6qrdlc0y8b",929,"34.csv","","null","resources/images/coin2.png","null","",NA,NA,NA,NA,""
"image-keyboard-response",191,189202,"0.0-3.60-0.60","2s6xc6qrdlc0y8b",929,"34.csv","","323.6000000089407","resources/trios/L4T2A2.jpg","38","restless",0.4,0.6,0.8,0.371878669053066,"true"
"image-keyboard-response",192,189605,"0.0-3.60-1.60","2s6xc6qrdlc0y8b",929,"34.csv","","null","resources/maskTrios/BT2B.jpg","null","",NA,NA,NA,NA,""
"image-keyboard-response",193,190811,"0.0-3.60-2.60","2s6xc6qrdlc0y8b",929,"34.csv","","null","resources/images/coin2.png","null","",NA,NA,NA,NA,""
"image-keyboard-response",194,191083,"0.0-3.61-0.61","2s6xc6qrdlc0y8b",929,"34.csv","","271.29999999701977","resources/trios/L1T4A1.jpg","38","restless",0.4,0.5,0.8,0.251996687592664,"true"
"image-keyboard-response",195,191490,"0.0-3.61-1.61","2s6xc6qrdlc0y8b",929,"34.csv","","null","resources/maskTrios/BT4B.jpg","null","",NA,NA,NA,NA,""
"image-keyboard-response",196,192696,"0.0-3.61-2.61","2s6xc6qrdlc0y8b",929,"34.csv","","null","resources/images/coin2.png","null","",NA,NA,NA,NA,""
"image-keyboard-response",197,192984,"0.0-3.62-0.62","2s6xc6qrdlc0y8b",929,"34.csv","","287","resources/trios/L4T4A2.jpg","38","restless",0.4,0.5,0.9,0.996899061269957,"false"
"image-keyboard-response",198,193391,"0.0-3.62-1.62","2s6xc6qrdlc0y8b",929,"34.csv","","null","resources/maskTrios/BT4B.jpg","null","",NA,NA,NA,NA,""
"image-keyboard-response",199,194596,"0.0-3.62-2.62","2s6xc6qrdlc0y8b",929,"34.csv","","null","resources/images/fishbone.png","null","",NA,NA,NA,NA,""
"image-keyboard-response",200,194807,"0.0-3.63-0.63","2s6xc6qrdlc0y8b",929,"34.csv","","208.79999999701977","resources/trios/L1T4A2.jpg","39","restless",0.4,0.5,0.9,0.933746140748407,"false"
"image-keyboard-response",201,195213,"0.0-3.63-1.63","2s6xc6qrdlc0y8b",929,"34.csv","","null","resources/maskTrios/BBA2.jpg","null","",NA,NA,NA,NA,""
"image-keyboard-response",202,196419,"0.0-3.63-2.63","2s6xc6qrdlc0y8b",929,"34.csv","","null","resources/images/fishbone.png","null","",NA,NA,NA,NA,""
"image-keyboard-response",203,196477,"0.0-3.64-0.64","2s6xc6qrdlc0y8b",929,"34.csv","","57.1000000089407","resources/trios/L4T4A1.jpg","37","restless",0.4,0.5,0.9,0.113092196641161,"true"
"image-keyboard-response",204,196883,"0.0-3.64-1.64","2s6xc6qrdlc0y8b",929,"34.csv","","null","resources/maskTrios/L4BB.jpg","null","",NA,NA,NA,NA,""
"image-keyboard-response",205,198088,"0.0-3.64-2.64","2s6xc6qrdlc0y8b",929,"34.csv","","null","resources/images/coin2.png","null","",NA,NA,NA,NA,""
"image-keyboard-response",206,198320,"0.0-3.65-0.65","2s6xc6qrdlc0y8b",929,"34.csv","","230.5","resources/trios/L1T4A1.jpg","37","restless",0.4,0.4,0.9,0.83197852647513,"false"
"image-keyboard-response",207,198726,"0.0-3.65-1.65","2s6xc6qrdlc0y8b",929,"34.csv","","null","resources/maskTrios/L1BB.jpg","null","",NA,NA,NA,NA,""
"image-keyboard-response",208,199932,"0.0-3.65-2.65","2s6xc6qrdlc0y8b",929,"34.csv","","null","resources/images/fishbone.png","null","",NA,NA,NA,NA,""
"image-keyboard-response",209,200141,"0.0-3.66-0.66","2s6xc6qrdlc0y8b",929,"34.csv","","207.79999999701977","resources/trios/L1T2A1.jpg","39","restless",0.4,0.4,0.9,0.297470892766597,"true"
"image-keyboard-response",210,200548,"0.0-3.66-1.66","2s6xc6qrdlc0y8b",929,"34.csv","","null","resources/maskTrios/BBA1.jpg","null","",NA,NA,NA,NA,""
"image-keyboard-response",211,201751,"0.0-3.66-2.66","2s6xc6qrdlc0y8b",929,"34.csv","","null","resources/images/coin2.png","null","",NA,NA,NA,NA,""
"image-keyboard-response",212,202037,"0.0-3.67-0.67","2s6xc6qrdlc0y8b",929,"34.csv","","285","resources/trios/L4T2A2.jpg","38","restless",0.4,0.4,0.9,0.257563890133556,"true"
"image-keyboard-response",213,202443,"0.0-3.67-1.67","2s6xc6qrdlc0y8b",929,"34.csv","","null","resources/maskTrios/BT2B.jpg","null","",NA,NA,NA,NA,""
"image-keyboard-response",214,203646,"0.0-3.67-2.67","2s6xc6qrdlc0y8b",929,"34.csv","","null","resources/images/coin2.png","null","",NA,NA,NA,NA,""
"image-keyboard-response",215,203932,"0.0-3.68-0.68","2s6xc6qrdlc0y8b",929,"34.csv","","285.20000000298023","resources/trios/L4T2A2.jpg","38","restless",0.4,0.3,0.9,0.656821067788344,"false"
"image-keyboard-response",216,204336,"0.0-3.68-1.68","2s6xc6qrdlc0y8b",929,"34.csv","","null","resources/maskTrios/BT2B.jpg","null","",NA,NA,NA,NA,""
"image-keyboard-response",217,205542,"0.0-3.68-2.68","2s6xc6qrdlc0y8b",929,"34.csv","","null","resources/images/fishbone.png","null","",NA,NA,NA,NA,""
"image-keyboard-response",218,205753,"0.0-3.69-0.69","2s6xc6qrdlc0y8b",929,"34.csv","","209.70000000298023","resources/trios/L1T2A1.jpg","39","restless",0.4,0.3,0.9,0.890759761245355,"true"
"image-keyboard-response",219,206159,"0.0-3.69-1.69","2s6xc6qrdlc0y8b",929,"34.csv","","null","resources/maskTrios/BBA1.jpg","null","",NA,NA,NA,NA,""
"image-keyboard-response",220,207361,"0.0-3.69-2.69","2s6xc6qrdlc0y8b",929,"34.csv","","null","resources/images/coin2.png","null","",NA,NA,NA,NA,""
"image-keyboard-response",221,207648,"0.0-3.70-0.70","2s6xc6qrdlc0y8b",929,"34.csv","","285.90000000596046","resources/trios/L4T2A2.jpg","39","restless",0.4,0.3,0.9,0.776639546120425,"true"
"image-keyboard-response",222,208051,"0.0-3.70-1.70","2s6xc6qrdlc0y8b",929,"34.csv","","null","resources/maskTrios/BBA2.jpg","null","",NA,NA,NA,NA,""
"image-keyboard-response",223,209256,"0.0-3.70-2.70","2s6xc6qrdlc0y8b",929,"34.csv","","null","resources/images/coin2.png","null","",NA,NA,NA,NA,""
"image-keyboard-response",224,209516,"0.0-3.71-0.71","2s6xc6qrdlc0y8b",929,"34.csv","","258.59999999403954","resources/trios/L4T4A2.jpg","39","restless",0.4,0.3,0.9,0.931752201012907,"false"
"image-keyboard-response",225,209923,"0.0-3.71-1.71","2s6xc6qrdlc0y8b",929,"34.csv","","null","resources/maskTrios/BBA2.jpg","null","",NA,NA,NA,NA,""
"image-keyboard-response",226,211128,"0.0-3.71-2.71","2s6xc6qrdlc0y8b",929,"34.csv","","null","resources/images/fishbone.png","null","",NA,NA,NA,NA,""
"image-keyboard-response",227,211381,"0.0-3.72-0.72","2s6xc6qrdlc0y8b",929,"34.csv","","251.09999999403954","resources/trios/L4T4A1.jpg","37","restless",0.4,0.3,0.9,0.855745771928087,"false"
"image-keyboard-response",228,211787,"0.0-3.72-1.72","2s6xc6qrdlc0y8b",929,"34.csv","","null","resources/maskTrios/L4BB.jpg","null","",NA,NA,NA,NA,""
"image-keyboard-response",229,212988,"0.0-3.72-2.72","2s6xc6qrdlc0y8b",929,"34.csv","","null","resources/images/fishbone.png","null","",NA,NA,NA,NA,""
"image-keyboard-response",230,213576,"0.0-3.73-0.73","2s6xc6qrdlc0y8b",929,"34.csv","","586.2999999970198","resources/trios/L1T4A2.jpg","39","restless",0.4,0.3,0.9,0.826809448147777,"true"
"image-keyboard-response",231,213982,"0.0-3.73-1.73","2s6xc6qrdlc0y8b",929,"34.csv","","null","resources/maskTrios/BBA2.jpg","null","",NA,NA,NA,NA,""
"image-keyboard-response",232,215189,"0.0-3.73-2.73","2s6xc6qrdlc0y8b",929,"34.csv","","null","resources/images/coin2.png","null","",NA,NA,NA,NA,""
"image-keyboard-response",233,215517,"0.0-3.74-0.74","2s6xc6qrdlc0y8b",929,"34.csv","","327.3999999910593","resources/trios/L4T2A2.jpg","38","restless",0.5,0.3,0.9,0.920225345917794,"false"
"image-keyboard-response",234,215921,"0.0-3.74-1.74","2s6xc6qrdlc0y8b",929,"34.csv","","null","resources/maskTrios/BT2B.jpg","null","",NA,NA,NA,NA,""
"image-keyboard-response",235,217127,"0.0-3.74-2.74","2s6xc6qrdlc0y8b",929,"34.csv","","null","resources/images/fishbone.png","null","",NA,NA,NA,NA,""
"image-keyboard-response",236,217368,"0.0-3.75-0.75","2s6xc6qrdlc0y8b",929,"34.csv","","239.5","resources/trios/L4T2A1.jpg","37","restless",0.5,0.3,0.9,0.909025396323591,"false"
"image-keyboard-response",237,217774,"0.0-3.75-1.75","2s6xc6qrdlc0y8b",929,"34.csv","","null","resources/maskTrios/L4BB.jpg","null","",NA,NA,NA,NA,""
"image-keyboard-response",238,218980,"0.0-3.75-2.75","2s6xc6qrdlc0y8b",929,"34.csv","","null","resources/images/fishbone.png","null","",NA,NA,NA,NA,""
"image-keyboard-response",239,219574,"0.0-3.76-0.76","2s6xc6qrdlc0y8b",929,"34.csv","","593.2999999970198","resources/trios/L1T4A2.jpg","39","restless",0.4,0.3,0.8,0.522422699523684,"true"
"image-keyboard-response",240,219980,"0.0-3.76-1.76","2s6xc6qrdlc0y8b",929,"34.csv","","null","resources/maskTrios/BBA2.jpg","null","",NA,NA,NA,NA,""
"image-keyboard-response",241,221186,"0.0-3.76-2.76","2s6xc6qrdlc0y8b",929,"34.csv","","null","resources/images/coin2.png","null","",NA,NA,NA,NA,""
"image-keyboard-response",242,221459,"0.0-3.77-0.77","2s6xc6qrdlc0y8b",929,"34.csv","","271.59999999403954","resources/trios/L4T2A1.jpg","39","restless",0.4,0.3,0.8,0.855122670917285,"false"
"image-keyboard-response",243,221863,"0.0-3.77-1.77","2s6xc6qrdlc0y8b",929,"34.csv","","null","resources/maskTrios/BBA1.jpg","null","",NA,NA,NA,NA,""
"image-keyboard-response",244,223069,"0.0-3.77-2.77","2s6xc6qrdlc0y8b",929,"34.csv","","null","resources/images/fishbone.png","null","",NA,NA,NA,NA,""
"image-keyboard-response",245,223344,"0.0-3.78-0.78","2s6xc6qrdlc0y8b",929,"34.csv","","274.20000000298023","resources/trios/L1T4A2.jpg","38","restless",0.4,0.3,0.8,0.426010245527144,"false"
"image-keyboard-response",246,223751,"0.0-3.78-1.78","2s6xc6qrdlc0y8b",929,"34.csv","","null","resources/maskTrios/BT4B.jpg","null","",NA,NA,NA,NA,""
"image-keyboard-response",247,224957,"0.0-3.78-2.78","2s6xc6qrdlc0y8b",929,"34.csv","","null","resources/images/fishbone.png","null","",NA,NA,NA,NA,""
"image-keyboard-response",248,225557,"0.0-3.79-0.79","2s6xc6qrdlc0y8b",929,"34.csv","","598.7999999970198","resources/trios/L4T4A1.jpg","39","restless",0.4,0.3,0.8,0.529604446104034,"true"
"image-keyboard-response",249,225964,"0.0-3.79-1.79","2s6xc6qrdlc0y8b",929,"34.csv","","null","resources/maskTrios/BBA1.jpg","null","",NA,NA,NA,NA,""
"image-keyboard-response",250,227170,"0.0-3.79-2.79","2s6xc6qrdlc0y8b",929,"34.csv","","null","resources/images/coin2.png","null","",NA,NA,NA,NA,""
"image-keyboard-response",251,227449,"0.0-3.80-0.80","2s6xc6qrdlc0y8b",929,"34.csv","","277.90000000596046","resources/trios/L1T4A1.jpg","37","restless",0.4,0.3,0.8,0.506696868781234,"false"
"image-keyboard-response",252,227856,"0.0-3.80-1.80","2s6xc6qrdlc0y8b",929,"34.csv","","null","resources/maskTrios/L1BB.jpg","null","",NA,NA,NA,NA,""
"image-keyboard-response",253,229062,"0.0-3.80-2.80","2s6xc6qrdlc0y8b",929,"34.csv","","null","resources/images/fishbone.png","null","",NA,NA,NA,NA,""
"image-keyboard-response",254,229310,"0.0-3.81-0.81","2s6xc6qrdlc0y8b",929,"34.csv","","246.20000000298023","resources/trios/L1T4A1.jpg","39","restless",0.4,0.3,0.8,0.658166689559129,"true"
"image-keyboard-response",255,229717,"0.0-3.81-1.81","2s6xc6qrdlc0y8b",929,"34.csv","","null","resources/maskTrios/BBA1.jpg","null","",NA,NA,NA,NA,""
"image-keyboard-response",256,230923,"0.0-3.81-2.81","2s6xc6qrdlc0y8b",929,"34.csv","","null","resources/images/coin2.png","null","",NA,NA,NA,NA,""
"image-keyboard-response",257,231169,"0.0-3.82-0.82","2s6xc6qrdlc0y8b",929,"34.csv","","243.70000000298023","resources/trios/L1T4A1.jpg","39","restless",0.4,0.3,0.8,0.846980575405343,"false"
"image-keyboard-response",258,231575,"0.0-3.82-1.82","2s6xc6qrdlc0y8b",929,"34.csv","","null","resources/maskTrios/BBA1.jpg","null","",NA,NA,NA,NA,""
"image-keyboard-response",259,232780,"0.0-3.82-2.82","2s6xc6qrdlc0y8b",929,"34.csv","","null","resources/images/fishbone.png","null","",NA,NA,NA,NA,""
"image-keyboard-response",260,233026,"0.0-3.83-0.83","2s6xc6qrdlc0y8b",929,"34.csv","","245","resources/trios/L4T2A1.jpg","38","restless",0.4,0.4,0.8,0.331986454906397,"true"
"image-keyboard-response",261,233431,"0.0-3.83-1.83","2s6xc6qrdlc0y8b",929,"34.csv","","null","resources/maskTrios/BT2B.jpg","null","",NA,NA,NA,NA,""
"image-keyboard-response",262,234637,"0.0-3.83-2.83","2s6xc6qrdlc0y8b",929,"34.csv","","null","resources/images/coin2.png","null","",NA,NA,NA,NA,""
"image-keyboard-response",263,234967,"0.0-3.84-0.84","2s6xc6qrdlc0y8b",929,"34.csv","","328.29999999701977","resources/trios/L1T2A1.jpg","38","restless",0.4,0.4,0.8,0.215631160869799,"true"
"image-keyboard-response",264,235371,"0.0-3.84-1.84","2s6xc6qrdlc0y8b",929,"34.csv","","null","resources/maskTrios/BT2B.jpg","null","",NA,NA,NA,NA,""
"image-keyboard-response",265,236578,"0.0-3.84-2.84","2s6xc6qrdlc0y8b",929,"34.csv","","null","resources/images/coin2.png","null","",NA,NA,NA,NA,""
"image-keyboard-response",266,236943,"0.0-3.85-0.85","2s6xc6qrdlc0y8b",929,"34.csv","","364.90000000596046","resources/trios/L1T2A1.jpg","38","restless",0.4,0.4,0.8,0.111678013429749,"true"
"image-keyboard-response",267,237349,"0.0-3.85-1.85","2s6xc6qrdlc0y8b",929,"34.csv","","null","resources/maskTrios/BT2B.jpg","null","",NA,NA,NA,NA,""
"image-keyboard-response",268,238555,"0.0-3.85-2.85","2s6xc6qrdlc0y8b",929,"34.csv","","null","resources/images/coin2.png","null","",NA,NA,NA,NA,""
"image-keyboard-response",269,238804,"0.0-3.86-0.86","2s6xc6qrdlc0y8b",929,"34.csv","","247.80000001192093","resources/trios/L1T4A2.jpg","38","restless",0.5,0.4,0.8,0.866658755039449,"false"
"image-keyboard-response",270,239211,"0.0-3.86-1.86","2s6xc6qrdlc0y8b",929,"34.csv","","null","resources/maskTrios/BT4B.jpg","null","",NA,NA,NA,NA,""
"image-keyboard-response",271,240417,"0.0-3.86-2.86","2s6xc6qrdlc0y8b",929,"34.csv","","null","resources/images/fishbone.png","null","",NA,NA,NA,NA,""
"image-keyboard-response",272,240709,"0.0-3.87-0.87","2s6xc6qrdlc0y8b",929,"34.csv","","290.40000000596046","resources/trios/L4T2A1.jpg","37","restless",0.5,0.4,0.8,0.79273494639925,"false"
"image-keyboard-response",273,241115,"0.0-3.87-1.87","2s6xc6qrdlc0y8b",929,"34.csv","","null","resources/maskTrios/L4BB.jpg","null","",NA,NA,NA,NA,""
"image-keyboard-response",274,242317,"0.0-3.87-2.87","2s6xc6qrdlc0y8b",929,"34.csv","","null","resources/images/fishbone.png","null","",NA,NA,NA,NA,""
"image-keyboard-response",275,242624,"0.0-3.88-0.88","2s6xc6qrdlc0y8b",929,"34.csv","","305.80000001192093","resources/trios/L1T2A2.jpg","39","restless",0.6,0.5,0.8,0.476476632511182,"true"
"image-keyboard-response",276,243030,"0.0-3.88-1.88","2s6xc6qrdlc0y8b",929,"34.csv","","null","resources/maskTrios/BBA2.jpg","null","",NA,NA,NA,NA,""
"image-keyboard-response",277,244233,"0.0-3.88-2.88","2s6xc6qrdlc0y8b",929,"34.csv","","null","resources/images/coin2.png","null","",NA,NA,NA,NA,""
"image-keyboard-response",278,244488,"0.0-3.89-0.89","2s6xc6qrdlc0y8b",929,"34.csv","","254.1000000089407","resources/trios/L4T2A2.jpg","39","restless",0.6,0.5,0.8,0.241942505834972,"true"
"image-keyboard-response",279,244892,"0.0-3.89-1.89","2s6xc6qrdlc0y8b",929,"34.csv","","null","resources/maskTrios/BBA2.jpg","null","",NA,NA,NA,NA,""
"image-keyboard-response",280,246099,"0.0-3.89-2.89","2s6xc6qrdlc0y8b",929,"34.csv","","null","resources/images/coin2.png","null","",NA,NA,NA,NA,""
"image-keyboard-response",281,246514,"0.0-3.90-0.90","2s6xc6qrdlc0y8b",929,"34.csv","","413.5","resources/trios/L4T4A1.jpg","39","restless",0.6,0.5,0.8,0.178193673994916,"true"
"image-keyboard-response",282,246920,"0.0-3.90-1.90","2s6xc6qrdlc0y8b",929,"34.csv","","null","resources/maskTrios/BBA1.jpg","null","",NA,NA,NA,NA,""
"image-keyboard-response",283,248126,"0.0-3.90-2.90","2s6xc6qrdlc0y8b",929,"34.csv","","null","resources/images/coin2.png","null","",NA,NA,NA,NA,""
"image-keyboard-response",284,248376,"0.0-3.91-0.91","2s6xc6qrdlc0y8b",929,"34.csv","","248.40000000596046","resources/trios/L1T2A1.jpg","39","restless",0.6,0.5,0.8,0.156077652777683,"true"
"image-keyboard-response",285,248782,"0.0-3.91-1.91","2s6xc6qrdlc0y8b",929,"34.csv","","null","resources/maskTrios/BBA1.jpg","null","",NA,NA,NA,NA,""
"image-keyboard-response",286,249988,"0.0-3.91-2.91","2s6xc6qrdlc0y8b",929,"34.csv","","null","resources/images/coin2.png","null","",NA,NA,NA,NA,""
"image-keyboard-response",287,250202,"0.0-3.92-0.92","2s6xc6qrdlc0y8b",929,"34.csv","","212.79999999701977","resources/trios/L4T2A1.jpg","39","restless",0.6,0.5,0.8,0.43308591643954,"true"
"image-keyboard-response",288,250603,"0.0-3.92-1.92","2s6xc6qrdlc0y8b",929,"34.csv","","null","resources/maskTrios/BBA1.jpg","null","",NA,NA,NA,NA,""
"image-keyboard-response",289,251810,"0.0-3.92-2.92","2s6xc6qrdlc0y8b",929,"34.csv","","null","resources/images/coin2.png","null","",NA,NA,NA,NA,""
"image-keyboard-response",290,251968,"0.0-3.93-0.93","2s6xc6qrdlc0y8b",929,"34.csv","","156.79999999701977","resources/trios/L1T4A1.jpg","39","restless",0.6,0.5,0.8,0.805548645877979,"false"
"image-keyboard-response",291,252374,"0.0-3.93-1.93","2s6xc6qrdlc0y8b",929,"34.csv","","null","resources/maskTrios/BBA1.jpg","null","",NA,NA,NA,NA,""
"image-keyboard-response",292,253580,"0.0-3.93-2.93","2s6xc6qrdlc0y8b",929,"34.csv","","null","resources/images/fishbone.png","null","",NA,NA,NA,NA,""
"image-keyboard-response",293,253790,"0.0-3.94-0.94","2s6xc6qrdlc0y8b",929,"34.csv","","209.5","resources/trios/L4T4A2.jpg","37","restless",0.6,0.5,0.8,0.75479171546126,"false"
"image-keyboard-response",294,254197,"0.0-3.94-1.94","2s6xc6qrdlc0y8b",929,"34.csv","","null","resources/maskTrios/L4BB.jpg","null","",NA,NA,NA,NA,""
"image-keyboard-response",295,255403,"0.0-3.94-2.94","2s6xc6qrdlc0y8b",929,"34.csv","","null","resources/images/fishbone.png","null","",NA,NA,NA,NA,""
"image-keyboard-response",296,255836,"0.0-3.95-0.95","2s6xc6qrdlc0y8b",929,"34.csv","","431.90000000596046","resources/trios/L4T2A1.jpg","38","restless",0.6,0.5,0.8,0.796065764440752,"false"
"image-keyboard-response",297,256242,"0.0-3.95-1.95","2s6xc6qrdlc0y8b",929,"34.csv","","null","resources/maskTrios/BT2B.jpg","null","",NA,NA,NA,NA,""
"image-keyboard-response",298,257448,"0.0-3.95-2.95","2s6xc6qrdlc0y8b",929,"34.csv","","null","resources/images/fishbone.png","null","",NA,NA,NA,NA,""
"image-keyboard-response",299,257693,"0.0-3.96-0.96","2s6xc6qrdlc0y8b",929,"34.csv","","243.6000000089407","resources/trios/L4T4A2.jpg","39","restless",0.6,0.5,0.8,0.938406463195098,"false"
"image-keyboard-response",300,258098,"0.0-3.96-1.96","2s6xc6qrdlc0y8b",929,"34.csv","","null","resources/maskTrios/BBA2.jpg","null","",NA,NA,NA,NA,""
"image-keyboard-response",301,259303,"0.0-3.96-2.96","2s6xc6qrdlc0y8b",929,"34.csv","","null","resources/images/fishbone.png","null","",NA,NA,NA,NA,""
"image-keyboard-response",302,259533,"0.0-3.97-0.97","2s6xc6qrdlc0y8b",929,"34.csv","","228.8999999910593","resources/trios/L1T4A2.jpg","37","restless",0.6,0.4,0.8,0.717926512757043,"false"
"image-keyboard-response",303,259936,"0.0-3.97-1.97","2s6xc6qrdlc0y8b",929,"34.csv","","null","resources/maskTrios/L1BB.jpg","null","",NA,NA,NA,NA,""
"image-keyboard-response",304,261142,"0.0-3.97-2.97","2s6xc6qrdlc0y8b",929,"34.csv","","null","resources/images/fishbone.png","null","",NA,NA,NA,NA,""
"image-keyboard-response",305,261421,"0.0-3.98-0.98","2s6xc6qrdlc0y8b",929,"34.csv","","277.79999999701977","resources/trios/L1T4A1.jpg","37","restless",0.6,0.4,0.8,0.604768072417015,"false"
"image-keyboard-response",306,261827,"0.0-3.98-1.98","2s6xc6qrdlc0y8b",929,"34.csv","","null","resources/maskTrios/L1BB.jpg","null","",NA,NA,NA,NA,""
"image-keyboard-response",307,263031,"0.0-3.98-2.98","2s6xc6qrdlc0y8b",929,"34.csv","","null","resources/images/fishbone.png","null","",NA,NA,NA,NA,""
"image-keyboard-response",308,263305,"0.0-3.99-0.99","2s6xc6qrdlc0y8b",929,"34.csv","","273.20000000298023","resources/trios/L4T2A1.jpg","38","restless",0.5,0.4,0.7,0.497344294406666,"false"
"image-keyboard-response",309,263707,"0.0-3.99-1.99","2s6xc6qrdlc0y8b",929,"34.csv","","null","resources/maskTrios/BT2B.jpg","null","",NA,NA,NA,NA,""
"image-keyboard-response",310,264910,"0.0-3.99-2.99","2s6xc6qrdlc0y8b",929,"34.csv","","null","resources/images/fishbone.png","null","",NA,NA,NA,NA,""
"image-keyboard-response",311,265162,"0.0-3.100-0.100","2s6xc6qrdlc0y8b",929,"34.csv","","250.59999999403954","resources/trios/L1T2A1.jpg","37","restless",0.5,0.4,0.7,0.288435701391205,"true"
"image-keyboard-response",312,265567,"0.0-3.100-1.100","2s6xc6qrdlc0y8b",929,"34.csv","","null","resources/maskTrios/L1BB.jpg","null","",NA,NA,NA,NA,""
"image-keyboard-response",313,266774,"0.0-3.100-2.100","2s6xc6qrdlc0y8b",929,"34.csv","","null","resources/images/coin2.png","null","",NA,NA,NA,NA,""
"image-keyboard-response",314,267034,"0.0-3.101-0.101","2s6xc6qrdlc0y8b",929,"34.csv","","258.79999999701977","resources/trios/L4T2A2.jpg","37","restless",0.5,0.4,0.7,0.888856081209863,"false"
"image-keyboard-response",315,267441,"0.0-3.101-1.101","2s6xc6qrdlc0y8b",929,"34.csv","","null","resources/maskTrios/L4BB.jpg","null","",NA,NA,NA,NA,""
"image-keyboard-response",316,268646,"0.0-3.101-2.101","2s6xc6qrdlc0y8b",929,"34.csv","","null","resources/images/fishbone.png","null","",NA,NA,NA,NA,""
"image-keyboard-response",317,268753,"0.0-3.102-0.102","2s6xc6qrdlc0y8b",929,"34.csv","","104.80000001192093","resources/trios/L1T2A2.jpg","39","restless",0.5,0.4,0.7,0.0225063560843524,"true"
"image-keyboard-response",318,269156,"0.0-3.102-1.102","2s6xc6qrdlc0y8b",929,"34.csv","","null","resources/maskTrios/BBA2.jpg","null","",NA,NA,NA,NA,""
"image-keyboard-response",319,270362,"0.0-3.102-2.102","2s6xc6qrdlc0y8b",929,"34.csv","","null","resources/images/coin2.png","null","",NA,NA,NA,NA,""
"image-keyboard-response",320,270583,"0.0-3.103-0.103","2s6xc6qrdlc0y8b",929,"34.csv","","219.90000000596046","resources/trios/L1T4A2.jpg","39","restless",0.5,0.4,0.7,0.450701134002353,"true"
"image-keyboard-response",321,270988,"0.0-3.103-1.103","2s6xc6qrdlc0y8b",929,"34.csv","","null","resources/maskTrios/BBA2.jpg","null","",NA,NA,NA,NA,""
"image-keyboard-response",322,272190,"0.0-3.103-2.103","2s6xc6qrdlc0y8b",929,"34.csv","","null","resources/images/coin2.png","null","",NA,NA,NA,NA,""
"image-keyboard-response",323,272452,"0.0-3.104-0.104","2s6xc6qrdlc0y8b",929,"34.csv","","260.59999999403954","resources/trios/L4T2A1.jpg","39","restless",0.5,0.4,0.7,0.670186929470164,"true"
"image-keyboard-response",324,272855,"0.0-3.104-1.104","2s6xc6qrdlc0y8b",929,"34.csv","","null","resources/maskTrios/BBA1.jpg","null","",NA,NA,NA,NA,""
"image-keyboard-response",325,274057,"0.0-3.104-2.104","2s6xc6qrdlc0y8b",929,"34.csv","","null","resources/images/coin2.png","null","",NA,NA,NA,NA,""
"image-keyboard-response",326,274316,"0.0-3.105-0.105","2s6xc6qrdlc0y8b",929,"34.csv","","257.09999999403954","resources/trios/L1T4A2.jpg","39","restless",0.5,0.4,0.7,0.938144926331462,"false"
"image-keyboard-response",327,274722,"0.0-3.105-1.105","2s6xc6qrdlc0y8b",929,"34.csv","","null","resources/maskTrios/BBA2.jpg","null","",NA,NA,NA,NA,""
"image-keyboard-response",328,275928,"0.0-3.105-2.105","2s6xc6qrdlc0y8b",929,"34.csv","","null","resources/images/fishbone.png","null","",NA,NA,NA,NA,""
"image-keyboard-response",329,276147,"0.0-3.106-0.106","2s6xc6qrdlc0y8b",929,"34.csv","","217.20000000298023","resources/trios/L4T2A1.jpg","38","restless",0.5,0.4,0.7,0.219257164458108,"true"
"image-keyboard-response",330,276554,"0.0-3.106-1.106","2s6xc6qrdlc0y8b",929,"34.csv","","null","resources/maskTrios/BT2B.jpg","null","",NA,NA,NA,NA,""
"image-keyboard-response",331,277755,"0.0-3.106-2.106","2s6xc6qrdlc0y8b",929,"34.csv","","null","resources/images/coin2.png","null","",NA,NA,NA,NA,""
"image-keyboard-response",332,278039,"0.0-3.107-0.107","2s6xc6qrdlc0y8b",929,"34.csv","","282.40000000596046","resources/trios/L1T4A1.jpg","38","restless",0.5,0.4,0.7,0.32737267979724,"true"
"image-keyboard-response",333,278446,"0.0-3.107-1.107","2s6xc6qrdlc0y8b",929,"34.csv","","null","resources/maskTrios/BT4B.jpg","null","",NA,NA,NA,NA,""
"image-keyboard-response",334,279652,"0.0-3.107-2.107","2s6xc6qrdlc0y8b",929,"34.csv","","null","resources/images/coin2.png","null","",NA,NA,NA,NA,""
"image-keyboard-response",335,279882,"0.0-3.108-0.108","2s6xc6qrdlc0y8b",929,"34.csv","","228.5","resources/trios/L4T4A2.jpg","38","restless",0.5,0.4,0.7,0.654796388106038,"false"
"image-keyboard-response",336,280288,"0.0-3.108-1.108","2s6xc6qrdlc0y8b",929,"34.csv","","null","resources/maskTrios/BT4B.jpg","null","",NA,NA,NA,NA,""
"image-keyboard-response",337,281492,"0.0-3.108-2.108","2s6xc6qrdlc0y8b",929,"34.csv","","null","resources/images/fishbone.png","null","",NA,NA,NA,NA,""
"image-keyboard-response",338,281767,"0.0-3.109-0.109","2s6xc6qrdlc0y8b",929,"34.csv","","273.20000000298023","resources/trios/L4T4A2.jpg","37","restless",0.5,0.4,0.7,0.055729565121581,"true"
"image-keyboard-response",339,282173,"0.0-3.109-1.109","2s6xc6qrdlc0y8b",929,"34.csv","","null","resources/maskTrios/L4BB.jpg","null","",NA,NA,NA,NA,""
"image-keyboard-response",340,283378,"0.0-3.109-2.109","2s6xc6qrdlc0y8b",929,"34.csv","","null","resources/images/coin2.png","null","",NA,NA,NA,NA,""
"image-keyboard-response",341,283658,"0.0-3.110-0.110","2s6xc6qrdlc0y8b",929,"34.csv","","278.40000000596046","resources/trios/L4T2A1.jpg","37","restless",0.5,0.4,0.7,0.586176775959969,"false"
"image-keyboard-response",342,284062,"0.0-3.110-1.110","2s6xc6qrdlc0y8b",929,"34.csv","","null","resources/maskTrios/L4BB.jpg","null","",NA,NA,NA,NA,""
"image-keyboard-response",343,285268,"0.0-3.110-2.110","2s6xc6qrdlc0y8b",929,"34.csv","","null","resources/images/fishbone.png","null","",NA,NA,NA,NA,""
"image-keyboard-response",344,285476,"0.0-3.111-0.111","2s6xc6qrdlc0y8b",929,"34.csv","","207.70000000298023","resources/trios/L4T2A2.jpg","38","restless",0.5,0.4,0.7,0.103873975073207,"true"
"image-keyboard-response",345,285883,"0.0-3.111-1.111","2s6xc6qrdlc0y8b",929,"34.csv","","null","resources/maskTrios/BT2B.jpg","null","",NA,NA,NA,NA,""
"image-keyboard-response",346,287089,"0.0-3.111-2.111","2s6xc6qrdlc0y8b",929,"34.csv","","null","resources/images/coin2.png","null","",NA,NA,NA,NA,""
"image-keyboard-response",347,287619,"0.0-3.112-0.112","2s6xc6qrdlc0y8b",929,"34.csv","","528.8999999910593","resources/trios/L1T4A1.jpg","38","restless",0.5,0.4,0.7,0.453724274467603,"false"
"image-keyboard-response",348,288024,"0.0-3.112-1.112","2s6xc6qrdlc0y8b",929,"34.csv","","null","resources/maskTrios/BT4B.jpg","null","",NA,NA,NA,NA,""
"image-keyboard-response",349,289229,"0.0-3.112-2.112","2s6xc6qrdlc0y8b",929,"34.csv","","null","resources/images/fishbone.png","null","",NA,NA,NA,NA,""
"image-keyboard-response",350,289489,"0.0-3.113-0.113","2s6xc6qrdlc0y8b",929,"34.csv","","258.6000000089407","resources/trios/L1T2A2.jpg","39","restless",0.5,0.4,0.8,0.175910036890726,"true"
"image-keyboard-response",351,289896,"0.0-3.113-1.113","2s6xc6qrdlc0y8b",929,"34.csv","","null","resources/maskTrios/BBA2.jpg","null","",NA,NA,NA,NA,""
"image-keyboard-response",352,291097,"0.0-3.113-2.113","2s6xc6qrdlc0y8b",929,"34.csv","","null","resources/images/coin2.png","null","",NA,NA,NA,NA,""
"image-keyboard-response",353,291464,"0.0-3.114-0.114","2s6xc6qrdlc0y8b",929,"34.csv","","365.59999999403954","resources/trios/L1T2A2.jpg","39","restless",0.5,0.4,0.8,0.864133828206885,"false"
"image-keyboard-response",354,291870,"0.0-3.114-1.114","2s6xc6qrdlc0y8b",929,"34.csv","","null","resources/maskTrios/BBA2.jpg","null","",NA,NA,NA,NA,""
"image-keyboard-response",355,293076,"0.0-3.114-2.114","2s6xc6qrdlc0y8b",929,"34.csv","","null","resources/images/fishbone.png","null","",NA,NA,NA,NA,""
"image-keyboard-response",356,293517,"0.0-3.115-0.115","2s6xc6qrdlc0y8b",929,"34.csv","","440.40000000596046","resources/trios/L1T4A2.jpg","38","restless",0.5,0.3,0.8,0.285346480013416,"true"
"image-keyboard-response",357,293919,"0.0-3.115-1.115","2s6xc6qrdlc0y8b",929,"34.csv","","null","resources/maskTrios/BT4B.jpg","null","",NA,NA,NA,NA,""
"image-keyboard-response",358,295126,"0.0-3.115-2.115","2s6xc6qrdlc0y8b",929,"34.csv","","null","resources/images/coin2.png","null","",NA,NA,NA,NA,""
"image-keyboard-response",359,295417,"0.0-3.116-0.116","2s6xc6qrdlc0y8b",929,"34.csv","","290.3999999910593","resources/trios/L1T4A1.jpg","38","restless",0.5,0.3,0.8,0.0452422257185634,"true"
"image-keyboard-response",360,295819,"0.0-3.116-1.116","2s6xc6qrdlc0y8b",929,"34.csv","","null","resources/maskTrios/BT4B.jpg","null","",NA,NA,NA,NA,""
"image-keyboard-response",361,297025,"0.0-3.116-2.116","2s6xc6qrdlc0y8b",929,"34.csv","","null","resources/images/coin2.png","null","",NA,NA,NA,NA,""
"image-keyboard-response",362,297397,"0.0-3.117-0.117","2s6xc6qrdlc0y8b",929,"34.csv","","370.20000000298023","resources/trios/L1T2A1.jpg","38","restless",0.5,0.3,0.8,0.164564021539602,"true"
"image-keyboard-response",363,297800,"0.0-3.117-1.117","2s6xc6qrdlc0y8b",929,"34.csv","","null","resources/maskTrios/BT2B.jpg","null","",NA,NA,NA,NA,""
"image-keyboard-response",364,299006,"0.0-3.117-2.117","2s6xc6qrdlc0y8b",929,"34.csv","","null","resources/images/coin2.png","null","",NA,NA,NA,NA,""
"image-keyboard-response",365,299909,"0.0-3.118-0.118","2s6xc6qrdlc0y8b",929,"34.csv","","901.7000000029802","resources/trios/L4T2A1.jpg","38","restless",0.5,0.3,0.8,0.0212710554721782,"true"
"image-keyboard-response",366,300311,"0.0-3.118-1.118","2s6xc6qrdlc0y8b",929,"34.csv","","null","resources/maskTrios/BT2B.jpg","null","",NA,NA,NA,NA,""
"image-keyboard-response",367,301517,"0.0-3.118-2.118","2s6xc6qrdlc0y8b",929,"34.csv","","null","resources/images/coin2.png","null","",NA,NA,NA,NA,""
"image-keyboard-response",368,301770,"0.0-3.119-0.119","2s6xc6qrdlc0y8b",929,"34.csv","","251.79999999701977","resources/trios/L4T4A1.jpg","38","restless",0.5,0.3,0.8,0.700717842031576,"false"
"image-keyboard-response",369,302175,"0.0-3.119-1.119","2s6xc6qrdlc0y8b",929,"34.csv","","null","resources/maskTrios/BT4B.jpg","null","",NA,NA,NA,NA,""
"image-keyboard-response",370,303381,"0.0-3.119-2.119","2s6xc6qrdlc0y8b",929,"34.csv","","null","resources/images/fishbone.png","null","",NA,NA,NA,NA,""
"image-keyboard-response",371,304823,"0.0-3.120-0.120","2s6xc6qrdlc0y8b",929,"34.csv","","1441.2000000029802","resources/trios/L1T2A2.jpg","38","restless",0.5,0.3,0.8,0.51297357519368,"false"
"image-keyboard-response",372,305229,"0.0-3.120-1.120","2s6xc6qrdlc0y8b",929,"34.csv","","null","resources/maskTrios/BT2B.jpg","null","",NA,NA,NA,NA,""
"image-keyboard-response",373,306435,"0.0-3.120-2.120","2s6xc6qrdlc0y8b",929,"34.csv","","null","resources/images/fishbone.png","null","",NA,NA,NA,NA,""
"image-keyboard-response",374,306857,"0.0-3.121-0.121","2s6xc6qrdlc0y8b",929,"34.csv","","420.29999999701977","resources/trios/L1T2A1.jpg","37","restless",0.5,0.3,0.8,0.513408565521752,"false"
"image-keyboard-response",375,307263,"0.0-3.121-1.121","2s6xc6qrdlc0y8b",929,"34.csv","","null","resources/maskTrios/L1BB.jpg","null","",NA,NA,NA,NA,""
"image-keyboard-response",376,308469,"0.0-3.121-2.121","2s6xc6qrdlc0y8b",929,"34.csv","","null","resources/images/fishbone.png","null","",NA,NA,NA,NA,""
"image-keyboard-response",377,308540,"0.0-3.122-0.122","2s6xc6qrdlc0y8b",929,"34.csv","","70.1000000089407","resources/trios/L4T2A1.jpg","39","restless",0.6,0.3,0.8,0.16085601388749,"true"
"image-keyboard-response",378,308947,"0.0-3.122-1.122","2s6xc6qrdlc0y8b",929,"34.csv","","null","resources/maskTrios/BBA1.jpg","null","",NA,NA,NA,NA,""
"image-keyboard-response",379,310153,"0.0-3.122-2.122","2s6xc6qrdlc0y8b",929,"34.csv","","null","resources/images/coin2.png","null","",NA,NA,NA,NA,""
"image-keyboard-response",380,310614,"0.0-3.123-0.123","2s6xc6qrdlc0y8b",929,"34.csv","","460.5","resources/trios/L1T4A2.jpg","39","restless",0.6,0.3,0.8,0.308059835106928,"true"
"image-keyboard-response",381,311021,"0.0-3.123-1.123","2s6xc6qrdlc0y8b",929,"34.csv","","null","resources/maskTrios/BBA2.jpg","null","",NA,NA,NA,NA,""
"image-keyboard-response",382,312227,"0.0-3.123-2.123","2s6xc6qrdlc0y8b",929,"34.csv","","null","resources/images/coin2.png","null","",NA,NA,NA,NA,""
"image-keyboard-response",383,312687,"0.0-3.124-0.124","2s6xc6qrdlc0y8b",929,"34.csv","","458.29999999701977","resources/trios/L4T2A1.jpg","39","restless",0.6,0.3,0.8,0.177394246056901,"true"
"image-keyboard-response",384,313093,"0.0-3.124-1.124","2s6xc6qrdlc0y8b",929,"34.csv","","null","resources/maskTrios/BBA1.jpg","null","",NA,NA,NA,NA,""
"image-keyboard-response",385,314299,"0.0-3.124-2.124","2s6xc6qrdlc0y8b",929,"34.csv","","null","resources/images/coin2.png","null","",NA,NA,NA,NA,""
"image-keyboard-response",386,315106,"0.0-3.125-0.125","2s6xc6qrdlc0y8b",929,"34.csv","","805.4000000059605","resources/trios/L4T2A2.jpg","39","restless",0.6,0.3,0.8,0.379335746052159,"true"
"image-keyboard-response",387,315507,"0.0-3.125-1.125","2s6xc6qrdlc0y8b",929,"34.csv","","null","resources/maskTrios/BBA2.jpg","null","",NA,NA,NA,NA,""
"image-keyboard-response",388,316714,"0.0-3.125-2.125","2s6xc6qrdlc0y8b",929,"34.csv","","null","resources/images/coin2.png","null","",NA,NA,NA,NA,""
"image-keyboard-response",389,316907,"0.0-3.126-0.126","2s6xc6qrdlc0y8b",929,"34.csv","","192.29999999701977","resources/trios/L1T4A1.jpg","39","restless",0.5,0.4,0.8,0.879433392388442,"false"
"image-keyboard-response",390,317313,"0.0-3.126-1.126","2s6xc6qrdlc0y8b",929,"34.csv","","null","resources/maskTrios/BBA1.jpg","null","",NA,NA,NA,NA,""
"image-keyboard-response",391,318516,"0.0-3.126-2.126","2s6xc6qrdlc0y8b",929,"34.csv","","null","resources/images/fishbone.png","null","",NA,NA,NA,NA,""
"image-keyboard-response",392,318570,"0.0-3.127-0.127","2s6xc6qrdlc0y8b",929,"34.csv","","52.5","resources/trios/L4T4A1.jpg","38","restless",0.5,0.4,0.8,0.814799527667005,"false"
"image-keyboard-response",393,318976,"0.0-3.127-1.127","2s6xc6qrdlc0y8b",929,"34.csv","","null","resources/maskTrios/BT4B.jpg","null","",NA,NA,NA,NA,""
"image-keyboard-response",394,320182,"0.0-3.127-2.127","2s6xc6qrdlc0y8b",929,"34.csv","","null","resources/images/fishbone.png","null","",NA,NA,NA,NA,""
"image-keyboard-response",395,320569,"0.0-3.128-0.128","2s6xc6qrdlc0y8b",929,"34.csv","","386.20000000298023","resources/trios/L1T4A2.jpg","38","restless",0.5,0.4,0.8,0.60605573994469,"false"
"image-keyboard-response",396,320974,"0.0-3.128-1.128","2s6xc6qrdlc0y8b",929,"34.csv","","null","resources/maskTrios/BT4B.jpg","null","",NA,NA,NA,NA,""
"image-keyboard-response",397,322180,"0.0-3.128-2.128","2s6xc6qrdlc0y8b",929,"34.csv","","null","resources/images/fishbone.png","null","",NA,NA,NA,NA,""
"image-keyboard-response",398,322447,"0.0-3.129-0.129","2s6xc6qrdlc0y8b",929,"34.csv","","265.6000000089407","resources/trios/L1T2A2.jpg","37","restless",0.5,0.4,0.8,0.245987973177837,"true"
"image-keyboard-response",399,322853,"0.0-3.129-1.129","2s6xc6qrdlc0y8b",929,"34.csv","","null","resources/maskTrios/L1BB.jpg","null","",NA,NA,NA,NA,""
"image-keyboard-response",400,324059,"0.0-3.129-2.129","2s6xc6qrdlc0y8b",929,"34.csv","","null","resources/images/coin2.png","null","",NA,NA,NA,NA,""
"image-keyboard-response",401,324620,"0.0-3.130-0.130","2s6xc6qrdlc0y8b",929,"34.csv","","559.3999999910593","resources/trios/L1T2A2.jpg","37","restless",0.5,0.4,0.8,0.796048627273082,"false"
"image-keyboard-response",402,325026,"0.0-3.130-1.130","2s6xc6qrdlc0y8b",929,"34.csv","","null","resources/maskTrios/L1BB.jpg","null","",NA,NA,NA,NA,""
"image-keyboard-response",403,326229,"0.0-3.130-2.130","2s6xc6qrdlc0y8b",929,"34.csv","","null","resources/images/fishbone.png","null","",NA,NA,NA,NA,""
"image-keyboard-response",404,326470,"0.0-3.131-0.131","2s6xc6qrdlc0y8b",929,"34.csv","","239.8999999910593","resources/trios/L4T4A2.jpg","39","restless",0.5,0.4,0.8,0.804617376625324,"false"
"image-keyboard-response",405,326877,"0.0-3.131-1.131","2s6xc6qrdlc0y8b",929,"34.csv","","null","resources/maskTrios/BBA2.jpg","null","",NA,NA,NA,NA,""
"image-keyboard-response",406,328081,"0.0-3.131-2.131","2s6xc6qrdlc0y8b",929,"34.csv","","null","resources/images/fishbone.png","null","",NA,NA,NA,NA,""
"image-keyboard-response",407,328307,"0.0-3.132-0.132","2s6xc6qrdlc0y8b",929,"34.csv","","225.09999999403954","resources/trios/L4T2A2.jpg","37","restless",0.6,0.4,0.8,0.663647884881171,"false"
"image-keyboard-response",408,328713,"0.0-3.132-1.132","2s6xc6qrdlc0y8b",929,"34.csv","","null","resources/maskTrios/L4BB.jpg","null","",NA,NA,NA,NA,""
"image-keyboard-response",409,329919,"0.0-3.132-2.132","2s6xc6qrdlc0y8b",929,"34.csv","","null","resources/images/fishbone.png","null","",NA,NA,NA,NA,""
"image-keyboard-response",410,330147,"0.0-3.133-0.133","2s6xc6qrdlc0y8b",929,"34.csv","","225.80000001192093","resources/trios/L4T2A2.jpg","38","restless",0.6,0.4,0.8,0.3525885862525,"true"
"image-keyboard-response",411,330553,"0.0-3.133-1.133","2s6xc6qrdlc0y8b",929,"34.csv","","null","resources/maskTrios/BT2B.jpg","null","",NA,NA,NA,NA,""
"image-keyboard-response",412,331758,"0.0-3.133-2.133","2s6xc6qrdlc0y8b",929,"34.csv","","null","resources/images/coin2.png","null","",NA,NA,NA,NA,""
"image-keyboard-response",413,332176,"0.0-3.134-0.134","2s6xc6qrdlc0y8b",929,"34.csv","","417","resources/trios/L4T2A1.jpg","38","restless",0.6,0.5,0.7,0.391951866515834,"true"
"image-keyboard-response",414,332583,"0.0-3.134-1.134","2s6xc6qrdlc0y8b",929,"34.csv","","null","resources/maskTrios/BT2B.jpg","null","",NA,NA,NA,NA,""
"image-keyboard-response",415,333786,"0.0-3.134-2.134","2s6xc6qrdlc0y8b",929,"34.csv","","null","resources/images/coin2.png","null","",NA,NA,NA,NA,""
"image-keyboard-response",416,334139,"0.0-3.135-0.135","2s6xc6qrdlc0y8b",929,"34.csv","","351.3999999910593","resources/trios/L1T2A2.jpg","38","restless",0.6,0.5,0.7,0.382825495944473,"true"
"image-keyboard-response",417,334545,"0.0-3.135-1.135","2s6xc6qrdlc0y8b",929,"34.csv","","null","resources/maskTrios/BT2B.jpg","null","",NA,NA,NA,NA,""
"image-keyboard-response",418,335751,"0.0-3.135-2.135","2s6xc6qrdlc0y8b",929,"34.csv","","null","resources/images/coin2.png","null","",NA,NA,NA,NA,""
"image-keyboard-response",419,336615,"0.0-3.136-0.136","2s6xc6qrdlc0y8b",929,"34.csv","","863.4000000059605","resources/trios/L1T4A2.jpg","38","restless",0.6,0.5,0.7,0.703820173617157,"false"
"image-keyboard-response",420,337017,"0.0-3.136-1.136","2s6xc6qrdlc0y8b",929,"34.csv","","null","resources/maskTrios/BT4B.jpg","null","",NA,NA,NA,NA,""
"image-keyboard-response",421,338223,"0.0-3.136-2.136","2s6xc6qrdlc0y8b",929,"34.csv","","null","resources/images/fishbone.png","null","",NA,NA,NA,NA,""
"image-keyboard-response",422,338478,"0.0-3.137-0.137","2s6xc6qrdlc0y8b",929,"34.csv","","253.20000000298023","resources/trios/L4T4A2.jpg","39","restless",0.6,0.5,0.7,0.111535000414002,"true"
"image-keyboard-response",423,338882,"0.0-3.137-1.137","2s6xc6qrdlc0y8b",929,"34.csv","","null","resources/maskTrios/BBA2.jpg","null","",NA,NA,NA,NA,""
"image-keyboard-response",424,340086,"0.0-3.137-2.137","2s6xc6qrdlc0y8b",929,"34.csv","","null","resources/images/coin2.png","null","",NA,NA,NA,NA,""
"image-keyboard-response",425,340253,"0.0-3.138-0.138","2s6xc6qrdlc0y8b",929,"34.csv","","165.3999999910593","resources/trios/L1T2A2.jpg","39","restless",0.6,0.5,0.7,0.95530687281667,"false"
"image-keyboard-response",426,340660,"0.0-3.138-1.138","2s6xc6qrdlc0y8b",929,"34.csv","","null","resources/maskTrios/BBA2.jpg","null","",NA,NA,NA,NA,""
"image-keyboard-response",427,341862,"0.0-3.138-2.138","2s6xc6qrdlc0y8b",929,"34.csv","","null","resources/images/fishbone.png","null","",NA,NA,NA,NA,""
"image-keyboard-response",428,342116,"0.0-3.139-0.139","2s6xc6qrdlc0y8b",929,"34.csv","","253.20000000298023","resources/trios/L4T2A2.jpg","38","restless",0.6,0.5,0.7,0.271683355416784,"true"
"image-keyboard-response",429,342522,"0.0-3.139-1.139","2s6xc6qrdlc0y8b",929,"34.csv","","null","resources/maskTrios/BT2B.jpg","null","",NA,NA,NA,NA,""
"image-keyboard-response",430,343728,"0.0-3.139-2.139","2s6xc6qrdlc0y8b",929,"34.csv","","null","resources/images/coin2.png","null","",NA,NA,NA,NA,""
"image-keyboard-response",431,343975,"0.0-3.140-0.140","2s6xc6qrdlc0y8b",929,"34.csv","","245.29999999701977","resources/trios/L1T2A2.jpg","38","restless",0.6,0.5,0.6,0.545632335871816,"false"
"image-keyboard-response",432,344381,"0.0-3.140-1.140","2s6xc6qrdlc0y8b",929,"34.csv","","null","resources/maskTrios/BT2B.jpg","null","",NA,NA,NA,NA,""
"image-keyboard-response",433,345587,"0.0-3.140-2.140","2s6xc6qrdlc0y8b",929,"34.csv","","null","resources/images/fishbone.png","null","",NA,NA,NA,NA,""
"image-keyboard-response",434,345849,"0.0-3.141-0.141","2s6xc6qrdlc0y8b",929,"34.csv","","260.79999999701977","resources/trios/L4T4A1.jpg","37","restless",0.6,0.5,0.6,0.0816864274876703,"true"
"image-keyboard-response",435,346251,"0.0-3.141-1.141","2s6xc6qrdlc0y8b",929,"34.csv","","null","resources/maskTrios/L4BB.jpg","null","",NA,NA,NA,NA,""
"image-keyboard-response",436,347453,"0.0-3.141-2.141","2s6xc6qrdlc0y8b",929,"34.csv","","null","resources/images/coin2.png","null","",NA,NA,NA,NA,""
"image-keyboard-response",437,347656,"0.0-3.142-0.142","2s6xc6qrdlc0y8b",929,"34.csv","","201.70000000298023","resources/trios/L4T4A2.jpg","37","restless",0.6,0.5,0.6,0.500505960550819,"true"
"image-keyboard-response",438,348061,"0.0-3.142-1.142","2s6xc6qrdlc0y8b",929,"34.csv","","null","resources/maskTrios/L4BB.jpg","null","",NA,NA,NA,NA,""
"image-keyboard-response",439,349267,"0.0-3.142-2.142","2s6xc6qrdlc0y8b",929,"34.csv","","null","resources/images/coin2.png","null","",NA,NA,NA,NA,""
"image-keyboard-response",440,349554,"0.0-3.143-0.143","2s6xc6qrdlc0y8b",929,"34.csv","","285.70000000298023","resources/trios/L1T2A1.jpg","37","restless",0.5,0.5,0.6,0.93296662622367,"false"
"image-keyboard-response",441,349957,"0.0-3.143-1.143","2s6xc6qrdlc0y8b",929,"34.csv","","null","resources/maskTrios/L1BB.jpg","null","",NA,NA,NA,NA,""
"image-keyboard-response",442,351163,"0.0-3.143-2.143","2s6xc6qrdlc0y8b",929,"34.csv","","null","resources/images/fishbone.png","null","",NA,NA,NA,NA,""
"image-keyboard-response",443,351397,"0.0-3.144-0.144","2s6xc6qrdlc0y8b",929,"34.csv","","232.40000000596046","resources/trios/L4T2A2.jpg","39","restless",0.5,0.5,0.6,0.3712806880608,"true"
"image-keyboard-response",444,351801,"0.0-3.144-1.144","2s6xc6qrdlc0y8b",929,"34.csv","","null","resources/maskTrios/BBA2.jpg","null","",NA,NA,NA,NA,""
"image-keyboard-response",445,353007,"0.0-3.144-2.144","2s6xc6qrdlc0y8b",929,"34.csv","","null","resources/images/coin2.png","null","",NA,NA,NA,NA,""
"image-keyboard-response",446,353333,"0.0-3.145-0.145","2s6xc6qrdlc0y8b",929,"34.csv","","324.29999999701977","resources/trios/L4T2A1.jpg","39","restless",0.6,0.5,0.6,0.285013401639703,"true"
"image-keyboard-response",447,353740,"0.0-3.145-1.145","2s6xc6qrdlc0y8b",929,"34.csv","","null","resources/maskTrios/BBA1.jpg","null","",NA,NA,NA,NA,""
"image-keyboard-response",448,354946,"0.0-3.145-2.145","2s6xc6qrdlc0y8b",929,"34.csv","","null","resources/images/coin2.png","null","",NA,NA,NA,NA,""
"image-keyboard-response",449,355245,"0.0-3.146-0.146","2s6xc6qrdlc0y8b",929,"34.csv","","297.20000000298023","resources/trios/L4T4A2.jpg","39","restless",0.6,0.5,0.6,0.986781177839734,"false"
"image-keyboard-response",450,355649,"0.0-3.146-1.146","2s6xc6qrdlc0y8b",929,"34.csv","","null","resources/maskTrios/BBA2.jpg","null","",NA,NA,NA,NA,""
"image-keyboard-response",451,356856,"0.0-3.146-2.146","2s6xc6qrdlc0y8b",929,"34.csv","","null","resources/images/fishbone.png","null","",NA,NA,NA,NA,""
"image-keyboard-response",452,357097,"0.0-3.147-0.147","2s6xc6qrdlc0y8b",929,"34.csv","","240.40000000596046","resources/trios/L4T4A1.jpg","37","restless",0.7,0.5,0.6,0.362795873351525,"true"
"image-keyboard-response",453,357500,"0.0-3.147-1.147","2s6xc6qrdlc0y8b",929,"34.csv","","null","resources/maskTrios/L4BB.jpg","null","",NA,NA,NA,NA,""
"image-keyboard-response",454,358706,"0.0-3.147-2.147","2s6xc6qrdlc0y8b",929,"34.csv","","null","resources/images/coin2.png","null","",NA,NA,NA,NA,""
"image-keyboard-response",455,358962,"0.0-3.148-0.148","2s6xc6qrdlc0y8b",929,"34.csv","","254.59999999403954","resources/trios/L1T2A2.jpg","37","restless",0.7,0.5,0.6,0.262942245948883,"true"
"image-keyboard-response",456,359368,"0.0-3.148-1.148","2s6xc6qrdlc0y8b",929,"34.csv","","null","resources/maskTrios/L1BB.jpg","null","",NA,NA,NA,NA,""
"image-keyboard-response",457,360575,"0.0-3.148-2.148","2s6xc6qrdlc0y8b",929,"34.csv","","null","resources/images/coin2.png","null","",NA,NA,NA,NA,""
"image-keyboard-response",458,360790,"0.0-3.149-0.149","2s6xc6qrdlc0y8b",929,"34.csv","","214.20000000298023","resources/trios/L4T4A2.jpg","37","restless",0.7,0.5,0.6,0.572100766951351,"true"
"image-keyboard-response",459,361197,"0.0-3.149-1.149","2s6xc6qrdlc0y8b",929,"34.csv","","null","resources/maskTrios/L4BB.jpg","null","",NA,NA,NA,NA,""
"image-keyboard-response",460,362403,"0.0-3.149-2.149","2s6xc6qrdlc0y8b",929,"34.csv","","null","resources/images/coin2.png","null","",NA,NA,NA,NA,""
"image-keyboard-response",461,362727,"0.0-3.150-0.150","2s6xc6qrdlc0y8b",929,"34.csv","","323.5","resources/trios/L4T2A1.jpg","37","restless",0.7,0.5,0.6,0.91758988266083,"false"
"image-keyboard-response",462,363131,"0.0-3.150-1.150","2s6xc6qrdlc0y8b",929,"34.csv","","null","resources/maskTrios/L4BB.jpg","null","",NA,NA,NA,NA,""
"image-keyboard-response",463,364338,"0.0-3.150-2.150","2s6xc6qrdlc0y8b",929,"34.csv","","null","resources/images/fishbone.png","null","",NA,NA,NA,NA,""
"image-keyboard-response",464,364658,"0.0-3.151-0.151","2s6xc6qrdlc0y8b",929,"34.csv","","318.90000000596046","resources/trios/L4T4A2.jpg","38","restless",0.7,0.6,0.6,0.689276050916133,"false"
"image-keyboard-response",465,365064,"0.0-3.151-1.151","2s6xc6qrdlc0y8b",929,"34.csv","","null","resources/maskTrios/BT4B.jpg","null","",NA,NA,NA,NA,""
"image-keyboard-response",466,366270,"0.0-3.151-2.151","2s6xc6qrdlc0y8b",929,"34.csv","","null","resources/images/fishbone.png","null","",NA,NA,NA,NA,""
"image-keyboard-response",467,366472,"0.0-3.152-0.152","2s6xc6qrdlc0y8b",929,"34.csv","","200.70000000298023","resources/trios/L1T4A1.jpg","39","restless",0.8,0.6,0.6,0.289999907942453,"true"
"image-keyboard-response",468,366878,"0.0-3.152-1.152","2s6xc6qrdlc0y8b",929,"34.csv","","null","resources/maskTrios/BBA1.jpg","null","",NA,NA,NA,NA,""
"image-keyboard-response",469,368081,"0.0-3.152-2.152","2s6xc6qrdlc0y8b",929,"34.csv","","null","resources/images/coin2.png","null","",NA,NA,NA,NA,""
"image-keyboard-response",470,368378,"0.0-3.153-0.153","2s6xc6qrdlc0y8b",929,"34.csv","","295.40000000596046","resources/trios/L4T4A1.jpg","39","restless",0.8,0.6,0.6,0.611363202290471,"false"
"image-keyboard-response",471,368781,"0.0-3.153-1.153","2s6xc6qrdlc0y8b",929,"34.csv","","null","resources/maskTrios/BBA1.jpg","null","",NA,NA,NA,NA,""
"image-keyboard-response",472,369987,"0.0-3.153-2.153","2s6xc6qrdlc0y8b",929,"34.csv","","null","resources/images/fishbone.png","null","",NA,NA,NA,NA,""
"image-keyboard-response",473,370019,"0.0-3.154-0.154","2s6xc6qrdlc0y8b",929,"34.csv","","30.599999994039536","resources/trios/L4T4A2.jpg","37","restless",0.8,0.6,0.5,0.546214909728306,"true"
"image-keyboard-response",474,370425,"0.0-3.154-1.154","2s6xc6qrdlc0y8b",929,"34.csv","","null","resources/maskTrios/L4BB.jpg","null","",NA,NA,NA,NA,""
"image-keyboard-response",475,371631,"0.0-3.154-2.154","2s6xc6qrdlc0y8b",929,"34.csv","","null","resources/images/coin2.png","null","",NA,NA,NA,NA,""
"image-keyboard-response",476,371888,"0.0-3.155-0.155","2s6xc6qrdlc0y8b",929,"34.csv","","256.09999999403954","resources/trios/L1T4A1.jpg","37","restless",0.8,0.6,0.5,0.321504801252445,"true"
"image-keyboard-response",477,372295,"0.0-3.155-1.155","2s6xc6qrdlc0y8b",929,"34.csv","","null","resources/maskTrios/L1BB.jpg","null","",NA,NA,NA,NA,""
"image-keyboard-response",478,373501,"0.0-3.155-2.155","2s6xc6qrdlc0y8b",929,"34.csv","","null","resources/images/coin2.png","null","",NA,NA,NA,NA,""
"image-keyboard-response",479,373711,"0.0-3.156-0.156","2s6xc6qrdlc0y8b",929,"34.csv","","208.90000000596046","resources/trios/L1T4A2.jpg","37","restless",0.8,0.6,0.5,0.776161887130521,"true"
"image-keyboard-response",480,374113,"0.0-3.156-1.156","2s6xc6qrdlc0y8b",929,"34.csv","","null","resources/maskTrios/L1BB.jpg","null","",NA,NA,NA,NA,""
"image-keyboard-response",481,375319,"0.0-3.156-2.156","2s6xc6qrdlc0y8b",929,"34.csv","","null","resources/images/coin2.png","null","",NA,NA,NA,NA,""
"image-keyboard-response",482,375623,"0.0-3.157-0.157","2s6xc6qrdlc0y8b",929,"34.csv","","302.79999999701977","resources/trios/L4T2A1.jpg","37","restless",0.8,0.5,0.5,0.453507430730683,"true"
"image-keyboard-response",483,376029,"0.0-3.157-1.157","2s6xc6qrdlc0y8b",929,"34.csv","","null","resources/maskTrios/L4BB.jpg","null","",NA,NA,NA,NA,""
"image-keyboard-response",484,377232,"0.0-3.157-2.157","2s6xc6qrdlc0y8b",929,"34.csv","","null","resources/images/coin2.png","null","",NA,NA,NA,NA,""
"image-keyboard-response",485,377542,"0.0-3.158-0.158","2s6xc6qrdlc0y8b",929,"34.csv","","307.8999999910593","resources/trios/L4T4A2.jpg","37","restless",0.8,0.5,0.5,0.36968028215424,"true"
"image-keyboard-response",486,377944,"0.0-3.158-1.158","2s6xc6qrdlc0y8b",929,"34.csv","","null","resources/maskTrios/L4BB.jpg","null","",NA,NA,NA,NA,""
"image-keyboard-response",487,379150,"0.0-3.158-2.158","2s6xc6qrdlc0y8b",929,"34.csv","","null","resources/images/coin2.png","null","",NA,NA,NA,NA,""
"image-keyboard-response",488,379384,"0.0-3.159-0.159","2s6xc6qrdlc0y8b",929,"34.csv","","231.79999999701977","resources/trios/L4T2A1.jpg","37","restless",0.8,0.5,0.5,0.884072669440088,"false"
"image-keyboard-response",489,379789,"0.0-3.159-1.159","2s6xc6qrdlc0y8b",929,"34.csv","","null","resources/maskTrios/L4BB.jpg","null","",NA,NA,NA,NA,""
"image-keyboard-response",490,380995,"0.0-3.159-2.159","2s6xc6qrdlc0y8b",929,"34.csv","","null","resources/images/fishbone.png","null","",NA,NA,NA,NA,""
"image-keyboard-response",491,381233,"0.0-3.160-0.160","2s6xc6qrdlc0y8b",929,"34.csv","","236.70000000298023","resources/trios/L1T4A1.jpg","39","restless",0.8,0.5,0.6,0.678292301686055,"false"
"image-keyboard-response",492,381634,"0.0-3.160-1.160","2s6xc6qrdlc0y8b",929,"34.csv","","null","resources/maskTrios/BBA1.jpg","null","",NA,NA,NA,NA,""
"image-keyboard-response",493,382839,"0.0-3.160-2.160","2s6xc6qrdlc0y8b",929,"34.csv","","null","resources/images/fishbone.png","null","",NA,NA,NA,NA,""
"image-keyboard-response",494,383027,"0.0-3.161-0.161","2s6xc6qrdlc0y8b",929,"34.csv","","185.90000000596046","resources/trios/L1T4A1.jpg","39","restless",0.8,0.5,0.6,0.473749596558187,"true"
"image-keyboard-response",495,383433,"0.0-3.161-1.161","2s6xc6qrdlc0y8b",929,"34.csv","","null","resources/maskTrios/BBA1.jpg","null","",NA,NA,NA,NA,""
"image-keyboard-response",496,384639,"0.0-3.161-2.161","2s6xc6qrdlc0y8b",929,"34.csv","","null","resources/images/coin2.png","null","",NA,NA,NA,NA,""
"image-keyboard-response",497,384975,"0.0-3.162-0.162","2s6xc6qrdlc0y8b",929,"34.csv","","334.80000001192093","resources/trios/L4T4A2.jpg","39","restless",0.8,0.5,0.5,0.748437653801052,"false"
"image-keyboard-response",498,385381,"0.0-3.162-1.162","2s6xc6qrdlc0y8b",929,"34.csv","","null","resources/maskTrios/BBA2.jpg","null","",NA,NA,NA,NA,""
"image-keyboard-response",499,386586,"0.0-3.162-2.162","2s6xc6qrdlc0y8b",929,"34.csv","","null","resources/images/fishbone.png","null","",NA,NA,NA,NA,""
"image-keyboard-response",500,386824,"0.0-3.163-0.163","2s6xc6qrdlc0y8b",929,"34.csv","","236.79999999701977","resources/trios/L1T2A2.jpg","38","restless",0.8,0.6,0.5,0.0951312354452925,"true"
"image-keyboard-response",501,387226,"0.0-3.163-1.163","2s6xc6qrdlc0y8b",929,"34.csv","","null","resources/maskTrios/BT2B.jpg","null","",NA,NA,NA,NA,""
"image-keyboard-response",502,388432,"0.0-3.163-2.163","2s6xc6qrdlc0y8b",929,"34.csv","","null","resources/images/coin2.png","null","",NA,NA,NA,NA,""
"image-keyboard-response",503,388820,"0.0-3.164-0.164","2s6xc6qrdlc0y8b",929,"34.csv","","386.70000000298023","resources/trios/L1T2A1.jpg","38","restless",0.8,0.6,0.5,0.889303065007669,"false"
"image-keyboard-response",504,389224,"0.0-3.164-1.164","2s6xc6qrdlc0y8b",929,"34.csv","","null","resources/maskTrios/BT2B.jpg","null","",NA,NA,NA,NA,""
"image-keyboard-response",505,390428,"0.0-3.164-2.164","2s6xc6qrdlc0y8b",929,"34.csv","","null","resources/images/fishbone.png","null","",NA,NA,NA,NA,""
"image-keyboard-response",506,390699,"0.0-3.165-0.165","2s6xc6qrdlc0y8b",929,"34.csv","","269.3999999910593","resources/trios/L1T4A1.jpg","37","restless",0.8,0.6,0.5,0.753973277257267,"true"
"image-keyboard-response",507,391105,"0.0-3.165-1.165","2s6xc6qrdlc0y8b",929,"34.csv","","null","resources/maskTrios/L1BB.jpg","null","",NA,NA,NA,NA,""
"image-keyboard-response",508,392311,"0.0-3.165-2.165","2s6xc6qrdlc0y8b",929,"34.csv","","null","resources/images/coin2.png","null","",NA,NA,NA,NA,""
"image-keyboard-response",509,392747,"0.0-3.166-0.166","2s6xc6qrdlc0y8b",929,"34.csv","","434.5","resources/trios/L4T4A1.jpg","37","restless",0.8,0.6,0.6,0.635083736452414,"true"
"image-keyboard-response",510,393153,"0.0-3.166-1.166","2s6xc6qrdlc0y8b",929,"34.csv","","null","resources/maskTrios/L4BB.jpg","null","",NA,NA,NA,NA,""
"image-keyboard-response",511,394359,"0.0-3.166-2.166","2s6xc6qrdlc0y8b",929,"34.csv","","null","resources/images/coin2.png","null","",NA,NA,NA,NA,""
"image-keyboard-response",512,394772,"0.0-3.167-0.167","2s6xc6qrdlc0y8b",929,"34.csv","","411.59999999403954","resources/trios/L1T2A1.jpg","37","restless",0.8,0.6,0.6,0.298840618116589,"true"
"image-keyboard-response",513,395178,"0.0-3.167-1.167","2s6xc6qrdlc0y8b",929,"34.csv","","null","resources/maskTrios/L1BB.jpg","null","",NA,NA,NA,NA,""
"image-keyboard-response",514,396381,"0.0-3.167-2.167","2s6xc6qrdlc0y8b",929,"34.csv","","null","resources/images/coin2.png","null","",NA,NA,NA,NA,""
"image-keyboard-response",515,396716,"0.0-3.168-0.168","2s6xc6qrdlc0y8b",929,"34.csv","","333.3999999910593","resources/trios/L1T4A2.jpg","37","restless",0.9,0.7,0.6,0.530337406447039,"true"
"image-keyboard-response",516,397122,"0.0-3.168-1.168","2s6xc6qrdlc0y8b",929,"34.csv","","null","resources/maskTrios/L1BB.jpg","null","",NA,NA,NA,NA,""
"image-keyboard-response",517,398328,"0.0-3.168-2.168","2s6xc6qrdlc0y8b",929,"34.csv","","null","resources/images/coin2.png","null","",NA,NA,NA,NA,""
"image-keyboard-response",518,398823,"0.0-3.169-0.169","2s6xc6qrdlc0y8b",929,"34.csv","","493.29999999701977","resources/trios/L4T4A1.jpg","37","restless",0.9,0.7,0.6,0.117945841212021,"true"
"image-keyboard-response",519,399226,"0.0-3.169-1.169","2s6xc6qrdlc0y8b",929,"34.csv","","null","resources/maskTrios/L4BB.jpg","null","",NA,NA,NA,NA,""
"image-keyboard-response",520,400431,"0.0-3.169-2.169","2s6xc6qrdlc0y8b",929,"34.csv","","null","resources/images/coin2.png","null","",NA,NA,NA,NA,""
"image-keyboard-response",521,400770,"0.0-3.170-0.170","2s6xc6qrdlc0y8b",929,"34.csv","","337.5","resources/trios/L4T4A2.jpg","37","restless",0.9,0.7,0.6,0.827799089115562,"true"
"image-keyboard-response",522,401175,"0.0-3.170-1.170","2s6xc6qrdlc0y8b",929,"34.csv","","null","resources/maskTrios/L4BB.jpg","null","",NA,NA,NA,NA,""
"image-keyboard-response",523,402381,"0.0-3.170-2.170","2s6xc6qrdlc0y8b",929,"34.csv","","null","resources/images/coin2.png","null","",NA,NA,NA,NA,""
"image-keyboard-response",524,403050,"0.0-3.171-0.171","2s6xc6qrdlc0y8b",929,"34.csv","","667.6000000089407","resources/trios/L4T2A2.jpg","37","restless",0.9,0.7,0.5,0.856335587948065,"true"
"image-keyboard-response",525,403457,"0.0-3.171-1.171","2s6xc6qrdlc0y8b",929,"34.csv","","null","resources/maskTrios/L4BB.jpg","null","",NA,NA,NA,NA,""
"image-keyboard-response",526,404663,"0.0-3.171-2.171","2s6xc6qrdlc0y8b",929,"34.csv","","null","resources/images/coin2.png","null","",NA,NA,NA,NA,""
"image-keyboard-response",527,405386,"0.0-3.172-0.172","2s6xc6qrdlc0y8b",929,"34.csv","","721.7000000029802","resources/trios/L1T4A1.jpg","37","restless",0.9,0.7,0.5,0.500381492540551,"true"
"image-keyboard-response",528,405792,"0.0-3.172-1.172","2s6xc6qrdlc0y8b",929,"34.csv","","null","resources/maskTrios/L1BB.jpg","null","",NA,NA,NA,NA,""
"image-keyboard-response",529,406999,"0.0-3.172-2.172","2s6xc6qrdlc0y8b",929,"34.csv","","null","resources/images/coin2.png","null","",NA,NA,NA,NA,""
"image-keyboard-response",530,407850,"0.0-3.173-0.173","2s6xc6qrdlc0y8b",929,"34.csv","","850.8000000119209","resources/trios/L1T2A1.jpg","37","restless",0.9,0.7,0.5,0.478232726386214,"true"
"image-keyboard-response",531,408257,"0.0-3.173-1.173","2s6xc6qrdlc0y8b",929,"34.csv","","null","resources/maskTrios/L1BB.jpg","null","",NA,NA,NA,NA,""
"image-keyboard-response",532,409463,"0.0-3.173-2.173","2s6xc6qrdlc0y8b",929,"34.csv","","null","resources/images/coin2.png","null","",NA,NA,NA,NA,""
"image-keyboard-response",533,410055,"0.0-3.174-0.174","2s6xc6qrdlc0y8b",929,"34.csv","","590.2999999970198","resources/trios/L1T2A2.jpg","37","restless",0.9,0.7,0.5,0.0703608320850788,"true"
"image-keyboard-response",534,410461,"0.0-3.174-1.174","2s6xc6qrdlc0y8b",929,"34.csv","","null","resources/maskTrios/L1BB.jpg","null","",NA,NA,NA,NA,""
"image-keyboard-response",535,411664,"0.0-3.174-2.174","2s6xc6qrdlc0y8b",929,"34.csv","","null","resources/images/coin2.png","null","",NA,NA,NA,NA,""
"image-keyboard-response",536,412003,"0.0-3.175-0.175","2s6xc6qrdlc0y8b",929,"34.csv","","336.90000000596046","resources/trios/L4T2A1.jpg","37","restless",0.9,0.7,0.5,0.646959198864034,"true"
"image-keyboard-response",537,412404,"0.0-3.175-1.175","2s6xc6qrdlc0y8b",929,"34.csv","","null","resources/maskTrios/L4BB.jpg","null","",NA,NA,NA,NA,""
"image-keyboard-response",538,413610,"0.0-3.175-2.175","2s6xc6qrdlc0y8b",929,"34.csv","","null","resources/images/coin2.png","null","",NA,NA,NA,NA,""
"image-keyboard-response",539,413919,"0.0-3.176-0.176","2s6xc6qrdlc0y8b",929,"34.csv","","307","resources/trios/L4T2A1.jpg","37","restless",0.9,0.7,0.5,0.554500761871508,"true"
"image-keyboard-response",540,414325,"0.0-3.176-1.176","2s6xc6qrdlc0y8b",929,"34.csv","","null","resources/maskTrios/L4BB.jpg","null","",NA,NA,NA,NA,""
"image-keyboard-response",541,415531,"0.0-3.176-2.176","2s6xc6qrdlc0y8b",929,"34.csv","","null","resources/images/coin2.png","null","",NA,NA,NA,NA,""
"image-keyboard-response",542,415874,"0.0-3.177-0.177","2s6xc6qrdlc0y8b",929,"34.csv","","341.30000001192093","resources/trios/L1T4A2.jpg","37","restless",0.9,0.7,0.5,0.0458316625197837,"true"
"image-keyboard-response",543,416276,"0.0-3.177-1.177","2s6xc6qrdlc0y8b",929,"34.csv","","null","resources/maskTrios/L1BB.jpg","null","",NA,NA,NA,NA,""
"image-keyboard-response",544,417482,"0.0-3.177-2.177","2s6xc6qrdlc0y8b",929,"34.csv","","null","resources/images/coin2.png","null","",NA,NA,NA,NA,""
"image-keyboard-response",545,417740,"0.0-3.178-0.178","2s6xc6qrdlc0y8b",929,"34.csv","","256","resources/trios/L1T2A1.jpg","37","restless",0.9,0.7,0.4,0.540519316898809,"true"
"image-keyboard-response",546,418146,"0.0-3.178-1.178","2s6xc6qrdlc0y8b",929,"34.csv","","null","resources/maskTrios/L1BB.jpg","null","",NA,NA,NA,NA,""
"image-keyboard-response",547,419350,"0.0-3.178-2.178","2s6xc6qrdlc0y8b",929,"34.csv","","null","resources/images/coin2.png","null","",NA,NA,NA,NA,""
"image-keyboard-response",548,419897,"0.0-3.179-0.179","2s6xc6qrdlc0y8b",929,"34.csv","","544.5999999940395","resources/trios/L4T2A1.jpg","37","restless",0.9,0.7,0.4,0.171856650353616,"true"
"image-keyboard-response",549,420301,"0.0-3.179-1.179","2s6xc6qrdlc0y8b",929,"34.csv","","null","resources/maskTrios/L4BB.jpg","null","",NA,NA,NA,NA,""
"image-keyboard-response",550,421507,"0.0-3.179-2.179","2s6xc6qrdlc0y8b",929,"34.csv","","null","resources/images/coin2.png","null","",NA,NA,NA,NA,""
"image-keyboard-response",551,422252,"0.0-3.180-0.180","2s6xc6qrdlc0y8b",929,"34.csv","","743.7000000029802","resources/trios/L4T4A1.jpg","37","restless",0.9,0.6,0.3,0.112894260835968,"true"
"image-keyboard-response",552,422658,"0.0-3.180-1.180","2s6xc6qrdlc0y8b",929,"34.csv","","null","resources/maskTrios/L4BB.jpg","null","",NA,NA,NA,NA,""
"image-keyboard-response",553,423864,"0.0-3.180-2.180","2s6xc6qrdlc0y8b",929,"34.csv","","null","resources/images/coin2.png","null","",NA,NA,NA,NA,""
"image-keyboard-response",554,424264,"0.0-3.181-0.181","2s6xc6qrdlc0y8b",929,"34.csv","","399.79999999701977","resources/trios/L4T2A2.jpg","37","restless",0.9,0.6,0.3,0.387164830811176,"true"
"image-keyboard-response",555,424668,"0.0-3.181-1.181","2s6xc6qrdlc0y8b",929,"34.csv","","null","resources/maskTrios/L4BB.jpg","null","",NA,NA,NA,NA,""
"image-keyboard-response",556,425874,"0.0-3.181-2.181","2s6xc6qrdlc0y8b",929,"34.csv","","null","resources/images/coin2.png","null","",NA,NA,NA,NA,""
"image-keyboard-response",557,426278,"0.0-3.182-0.182","2s6xc6qrdlc0y8b",929,"34.csv","","402.8999999910593","resources/trios/L4T4A2.jpg","37","restless",0.9,0.6,0.3,0.848375855577128,"true"
"image-keyboard-response",558,426680,"0.0-3.182-1.182","2s6xc6qrdlc0y8b",929,"34.csv","","null","resources/maskTrios/L4BB.jpg","null","",NA,NA,NA,NA,""
"image-keyboard-response",559,427887,"0.0-3.182-2.182","2s6xc6qrdlc0y8b",929,"34.csv","","null","resources/images/coin2.png","null","",NA,NA,NA,NA,""
"image-keyboard-response",560,428286,"0.0-3.183-0.183","2s6xc6qrdlc0y8b",929,"34.csv","","398.20000000298023","resources/trios/L4T2A2.jpg","37","restless",0.9,0.5,0.3,0.560073705255676,"true"
"image-keyboard-response",561,428692,"0.0-3.183-1.183","2s6xc6qrdlc0y8b",929,"34.csv","","null","resources/maskTrios/L4BB.jpg","null","",NA,NA,NA,NA,""
"image-keyboard-response",562,429895,"0.0-3.183-2.183","2s6xc6qrdlc0y8b",929,"34.csv","","null","resources/images/coin2.png","null","",NA,NA,NA,NA,""
"image-keyboard-response",563,430429,"0.0-3.184-0.184","2s6xc6qrdlc0y8b",929,"34.csv","","533.2999999970198","resources/trios/L4T2A2.jpg","37","restless",0.9,0.5,0.3,0.924552677553673,"false"
"image-keyboard-response",564,430835,"0.0-3.184-1.184","2s6xc6qrdlc0y8b",929,"34.csv","","null","resources/maskTrios/L4BB.jpg","null","",NA,NA,NA,NA,""
"image-keyboard-response",565,432041,"0.0-3.184-2.184","2s6xc6qrdlc0y8b",929,"34.csv","","null","resources/images/fishbone.png","null","",NA,NA,NA,NA,""
"image-keyboard-response",566,432398,"0.0-3.185-0.185","2s6xc6qrdlc0y8b",929,"34.csv","","355.30000001192093","resources/trios/L4T2A2.jpg","39","restless",0.9,0.5,0.3,0.900982806362475,"false"
"image-keyboard-response",567,432802,"0.0-3.185-1.185","2s6xc6qrdlc0y8b",929,"34.csv","","null","resources/maskTrios/BBA2.jpg","null","",NA,NA,NA,NA,""
"image-keyboard-response",568,434009,"0.0-3.185-2.185","2s6xc6qrdlc0y8b",929,"34.csv","","null","resources/images/fishbone.png","null","",NA,NA,NA,NA,""
"image-keyboard-response",569,434234,"0.0-3.186-0.186","2s6xc6qrdlc0y8b",929,"34.csv","","224.20000000298023","resources/trios/L4T2A2.jpg","38","restless",0.8,0.5,0.3,0.0705982934065281,"true"
"image-keyboard-response",570,434640,"0.0-3.186-1.186","2s6xc6qrdlc0y8b",929,"34.csv","","null","resources/maskTrios/BT2B.jpg","null","",NA,NA,NA,NA,""
"image-keyboard-response",571,435843,"0.0-3.186-2.186","2s6xc6qrdlc0y8b",929,"34.csv","","null","resources/images/coin2.png","null","",NA,NA,NA,NA,""
"image-keyboard-response",572,436063,"0.0-3.187-0.187","2s6xc6qrdlc0y8b",929,"34.csv","","219.20000000298023","resources/trios/L1T4A1.jpg","38","restless",0.8,0.5,0.3,0.655583950672122,"false"
"image-keyboard-response",573,436467,"0.0-3.187-1.187","2s6xc6qrdlc0y8b",929,"34.csv","","null","resources/maskTrios/BT4B.jpg","null","",NA,NA,NA,NA,""
"image-keyboard-response",574,437673,"0.0-3.187-2.187","2s6xc6qrdlc0y8b",929,"34.csv","","null","resources/images/fishbone.png","null","",NA,NA,NA,NA,""
"image-keyboard-response",575,437951,"0.0-3.188-0.188","2s6xc6qrdlc0y8b",929,"34.csv","","276.69999998807907","resources/trios/L1T2A2.jpg","39","restless",0.8,0.5,0.3,0.338546388781555,"false"
"image-keyboard-response",576,438357,"0.0-3.188-1.188","2s6xc6qrdlc0y8b",929,"34.csv","","null","resources/maskTrios/BBA2.jpg","null","",NA,NA,NA,NA,""
"image-keyboard-response",577,439563,"0.0-3.188-2.188","2s6xc6qrdlc0y8b",929,"34.csv","","null","resources/images/fishbone.png","null","",NA,NA,NA,NA,""
"image-keyboard-response",578,439796,"0.0-3.189-0.189","2s6xc6qrdlc0y8b",929,"34.csv","","231.70000000298023","resources/trios/L4T4A1.jpg","37","restless",0.8,0.4,0.3,0.2263253406886,"true"
"image-keyboard-response",579,440202,"0.0-3.189-1.189","2s6xc6qrdlc0y8b",929,"34.csv","","null","resources/maskTrios/L4BB.jpg","null","",NA,NA,NA,NA,""
"image-keyboard-response",580,441404,"0.0-3.189-2.189","2s6xc6qrdlc0y8b",929,"34.csv","","null","resources/images/coin2.png","null","",NA,NA,NA,NA,""
"image-keyboard-response",581,441457,"0.0-3.190-0.190","2s6xc6qrdlc0y8b",929,"34.csv","","52.20000000298023","resources/trios/L4T2A2.jpg","37","restless",0.7,0.3,0.3,0.988952072711384,"false"
"image-keyboard-response",582,441864,"0.0-3.190-1.190","2s6xc6qrdlc0y8b",929,"34.csv","","null","resources/maskTrios/L4BB.jpg","null","",NA,NA,NA,NA,""
"image-keyboard-response",583,443070,"0.0-3.190-2.190","2s6xc6qrdlc0y8b",929,"34.csv","","null","resources/images/fishbone.png","null","",NA,NA,NA,NA,""
"image-keyboard-response",584,443443,"0.0-3.191-0.191","2s6xc6qrdlc0y8b",929,"34.csv","","371.70000000298023","resources/trios/L4T4A2.jpg","37","restless",0.7,0.3,0.3,0.595378833436486,"true"
"image-keyboard-response",585,443849,"0.0-3.191-1.191","2s6xc6qrdlc0y8b",929,"34.csv","","null","resources/maskTrios/L4BB.jpg","null","",NA,NA,NA,NA,""
"image-keyboard-response",586,445054,"0.0-3.191-2.191","2s6xc6qrdlc0y8b",929,"34.csv","","null","resources/images/coin2.png","null","",NA,NA,NA,NA,""
"image-keyboard-response",587,445378,"0.0-3.192-0.192","2s6xc6qrdlc0y8b",929,"34.csv","","322.20000000298023","resources/trios/L4T2A2.jpg","37","restless",0.7,0.3,0.3,0.876282690811562,"false"
"image-keyboard-response",588,445782,"0.0-3.192-1.192","2s6xc6qrdlc0y8b",929,"34.csv","","null","resources/maskTrios/L4BB.jpg","null","",NA,NA,NA,NA,""
"image-keyboard-response",589,446988,"0.0-3.192-2.192","2s6xc6qrdlc0y8b",929,"34.csv","","null","resources/images/fishbone.png","null","",NA,NA,NA,NA,""
"image-keyboard-response",590,447240,"0.0-3.193-0.193","2s6xc6qrdlc0y8b",929,"34.csv","","250.80000001192093","resources/trios/L4T4A1.jpg","37","restless",0.7,0.3,0.3,0.0271345488746684,"true"
"image-keyboard-response",591,447646,"0.0-3.193-1.193","2s6xc6qrdlc0y8b",929,"34.csv","","null","resources/maskTrios/L4BB.jpg","null","",NA,NA,NA,NA,""
"image-keyboard-response",592,448852,"0.0-3.193-2.193","2s6xc6qrdlc0y8b",929,"34.csv","","null","resources/images/coin2.png","null","",NA,NA,NA,NA,""
"image-keyboard-response",593,449202,"0.0-3.194-0.194","2s6xc6qrdlc0y8b",929,"34.csv","","348.20000000298023","resources/trios/L1T4A1.jpg","37","restless",0.7,0.3,0.3,0.728429408427191,"false"
"image-keyboard-response",594,449608,"0.0-3.194-1.194","2s6xc6qrdlc0y8b",929,"34.csv","","null","resources/maskTrios/L1BB.jpg","null","",NA,NA,NA,NA,""
"image-keyboard-response",595,450814,"0.0-3.194-2.194","2s6xc6qrdlc0y8b",929,"34.csv","","null","resources/images/fishbone.png","null","",NA,NA,NA,NA,""
"image-keyboard-response",596,450941,"0.0-3.195-0.195","2s6xc6qrdlc0y8b",929,"34.csv","","125.59999999403954","resources/trios/L4T2A1.jpg","37","restless",0.7,0.3,0.3,0.157215612070196,"true"
"image-keyboard-response",597,451347,"0.0-3.195-1.195","2s6xc6qrdlc0y8b",929,"34.csv","","null","resources/maskTrios/L4BB.jpg","null","",NA,NA,NA,NA,""
"image-keyboard-response",598,452549,"0.0-3.195-2.195","2s6xc6qrdlc0y8b",929,"34.csv","","null","resources/images/coin2.png","null","",NA,NA,NA,NA,""
"image-keyboard-response",599,452843,"0.0-3.196-0.196","2s6xc6qrdlc0y8b",929,"34.csv","","292.70000000298023","resources/trios/L1T2A2.jpg","37","restless",0.7,0.3,0.3,0.429305713610823,"true"
"image-keyboard-response",600,453250,"0.0-3.196-1.196","2s6xc6qrdlc0y8b",929,"34.csv","","null","resources/maskTrios/L1BB.jpg","null","",NA,NA,NA,NA,""
"image-keyboard-response",601,454455,"0.0-3.196-2.196","2s6xc6qrdlc0y8b",929,"34.csv","","null","resources/images/coin2.png","null","",NA,NA,NA,NA,""
"image-keyboard-response",602,454601,"0.0-3.197-0.197","2s6xc6qrdlc0y8b",929,"34.csv","","144","resources/trios/L1T2A1.jpg","37","restless",0.7,0.3,0.3,0.960322104379049,"false"
"image-keyboard-response",603,455008,"0.0-3.197-1.197","2s6xc6qrdlc0y8b",929,"34.csv","","null","resources/maskTrios/L1BB.jpg","null","",NA,NA,NA,NA,""
"image-keyboard-response",604,456214,"0.0-3.197-2.197","2s6xc6qrdlc0y8b",929,"34.csv","","null","resources/images/fishbone.png","null","",NA,NA,NA,NA,""
"image-keyboard-response",605,456420,"0.0-3.198-0.198","2s6xc6qrdlc0y8b",929,"34.csv","","204.79999999701977","resources/trios/L1T2A2.jpg","38","restless",0.7,0.3,0.3,0.575154005510892,"false"
"image-keyboard-response",606,456826,"0.0-3.198-1.198","2s6xc6qrdlc0y8b",929,"34.csv","","null","resources/maskTrios/BT2B.jpg","null","",NA,NA,NA,NA,""
"image-keyboard-response",607,458032,"0.0-3.198-2.198","2s6xc6qrdlc0y8b",929,"34.csv","","null","resources/images/fishbone.png","null","",NA,NA,NA,NA,""
"image-keyboard-response",608,458274,"0.0-3.199-0.199","2s6xc6qrdlc0y8b",929,"34.csv","","239.59999999403954","resources/trios/L4T4A1.jpg","37","restless",0.6,0.3,0.3,0.842760766163812,"false"
