"trial_type","trial_index","time_elapsed","internal_node_id","subject","participantCode","walkNumber","success","rt","stimulus","key_press","test_part","leftProb","midProb","rightProb","generatedNum","correct"
"pavlovia",0,1608,"0.0-0.0","m6yd0f2ep2kgvp5",173,"194.csv","","","","","",NA,NA,NA,NA,""
"fullscreen",1,5379,"0.0-1.0","m6yd0f2ep2kgvp5",173,"194.csv","true","","","","",NA,NA,NA,NA,""
"html-keyboard-response",2,15171,"0.0-2.0-0.0","m6yd0f2ep2kgvp5",173,"194.csv","","9788.5","<p><font size='6'>Arrrgh!</p></font><p>Can you be the best pirate? Try to find lots of gold! But beware, some islands have more gold than others, and over time, the island with the most gold may change. Can YOU figure it out? </p><font size='6'>GOOD LUCK, CAPTAIN!!!</font><p>Press any key to begin</p>","32","",NA,NA,NA,NA,""
"image-keyboard-response",3,18179,"0.0-2.0-1.0","m6yd0f2ep2kgvp5",173,"194.csv","","null","resources/image_sets/111.png","null","",NA,NA,NA,NA,""
"image-keyboard-response",4,22677,"0.0-2.0-2.0","m6yd0f2ep2kgvp5",173,"194.csv","","4495.5999999940395","resources/image_sets/left_highlight.png","37","",NA,NA,NA,NA,""
"image-keyboard-response",5,28035,"0.0-2.0-3.0","m6yd0f2ep2kgvp5",173,"194.csv","","5355.9000000059605","resources/image_sets/mid_highlight.png","38","",NA,NA,NA,NA,""
"image-keyboard-response",6,30523,"0.0-2.0-4.0","m6yd0f2ep2kgvp5",173,"194.csv","","2486","resources/image_sets/right_highlight.png","39","",NA,NA,NA,NA,""
"image-keyboard-response",7,36595,"0.0-2.0-5.0","m6yd0f2ep2kgvp5",173,"194.csv","","6069.0999999940395","resources/image_sets/111.png","13","",NA,NA,NA,NA,""
"image-keyboard-response",8,38389,"0.0-2.0-6.0","m6yd0f2ep2kgvp5",173,"194.csv","","1791.5999999940395","resources/images/coin2.png","13","",NA,NA,NA,NA,""
"image-keyboard-response",9,40008,"0.0-2.0-7.0","m6yd0f2ep2kgvp5",173,"194.csv","","1617.0999999940395","resources/images/fishbone.png","13","",NA,NA,NA,NA,""
"html-keyboard-response",10,45138,"0.0-2.0-8.0","m6yd0f2ep2kgvp5",173,"194.csv","","5128.699999988079","<p>Your first journey will be a long one, but you will get a well deserved break at the end</p><p>After the break you will have four more journeys, but each will be much shorter than the first, and you will have breaks in between each</p><p>Press Enter to begin</p>","13","",NA,NA,NA,NA,""
"image-keyboard-response",11,50297,"0.0-3.0-0.0","m6yd0f2ep2kgvp5",173,"194.csv","","5156.0999999940395","resources/trios/L4T1A3.jpg","38","restless",0.3,0.9,0.7,0.838464609074903,"true"
"image-keyboard-response",12,50707,"0.0-3.0-1.0","m6yd0f2ep2kgvp5",173,"194.csv","","null","resources/maskTrios/BT1B.jpg","null","",NA,NA,NA,NA,""
"image-keyboard-response",13,51919,"0.0-3.0-2.0","m6yd0f2ep2kgvp5",173,"194.csv","","null","resources/images/coin2.png","null","",NA,NA,NA,NA,""
"image-keyboard-response",14,54396,"0.0-3.1-0.1","m6yd0f2ep2kgvp5",173,"194.csv","","2472.9000000059605","resources/trios/L4T1A3.jpg","38","restless",0.4,0.9,0.7,0.371735610544987,"true"
"image-keyboard-response",15,54803,"0.0-3.1-1.1","m6yd0f2ep2kgvp5",173,"194.csv","","null","resources/maskTrios/BT1B.jpg","null","",NA,NA,NA,NA,""
"image-keyboard-response",16,56007,"0.0-3.1-2.1","m6yd0f2ep2kgvp5",173,"194.csv","","null","resources/images/coin2.png","null","",NA,NA,NA,NA,""
"image-keyboard-response",17,60906,"0.0-3.2-0.2","m6yd0f2ep2kgvp5",173,"194.csv","","4896.199999988079","resources/trios/L4T2A3.jpg","39","restless",0.3,0.9,0.7,0.231823320906596,"true"
"image-keyboard-response",18,61312,"0.0-3.2-1.2","m6yd0f2ep2kgvp5",173,"194.csv","","null","resources/maskTrios/BBA3.jpg","null","",NA,NA,NA,NA,""
"image-keyboard-response",19,62520,"0.0-3.2-2.2","m6yd0f2ep2kgvp5",173,"194.csv","","null","resources/images/coin2.png","null","",NA,NA,NA,NA,""
"image-keyboard-response",20,64202,"0.0-3.3-0.3","m6yd0f2ep2kgvp5",173,"194.csv","","1679.7000000178814","resources/trios/L4T2A2.jpg","37","restless",0.3,0.9,0.7,0.617744215006645,"false"
"image-keyboard-response",21,64612,"0.0-3.3-1.3","m6yd0f2ep2kgvp5",173,"194.csv","","null","resources/maskTrios/L4BB.jpg","null","",NA,NA,NA,NA,""
"image-keyboard-response",22,65819,"0.0-3.3-2.3","m6yd0f2ep2kgvp5",173,"194.csv","","null","resources/images/fishbone.png","null","",NA,NA,NA,NA,""
"image-keyboard-response",23,66699,"0.0-3.4-0.4","m6yd0f2ep2kgvp5",173,"194.csv","","877","resources/trios/L1T1A2.jpg","38","restless",0.3,0.9,0.7,0.0202105011749698,"true"
"image-keyboard-response",24,67107,"0.0-3.4-1.4","m6yd0f2ep2kgvp5",173,"194.csv","","null","resources/maskTrios/BT1B.jpg","null","",NA,NA,NA,NA,""
"image-keyboard-response",25,68315,"0.0-3.4-2.4","m6yd0f2ep2kgvp5",173,"194.csv","","null","resources/images/coin2.png","null","",NA,NA,NA,NA,""
"image-keyboard-response",26,69082,"0.0-3.5-0.5","m6yd0f2ep2kgvp5",173,"194.csv","","764.6000000238419","resources/trios/L4T1A3.jpg","38","restless",0.3,0.9,0.7,0.197025645365653,"true"
"image-keyboard-response",27,69489,"0.0-3.5-1.5","m6yd0f2ep2kgvp5",173,"194.csv","","null","resources/maskTrios/BT1B.jpg","null","",NA,NA,NA,NA,""
"image-keyboard-response",28,70696,"0.0-3.5-2.5","m6yd0f2ep2kgvp5",173,"194.csv","","null","resources/images/coin2.png","null","",NA,NA,NA,NA,""
"image-keyboard-response",29,72181,"0.0-3.6-0.6","m6yd0f2ep2kgvp5",173,"194.csv","","1483.5999999940395","resources/trios/L4T2A3.jpg","39","restless",0.3,0.9,0.7,0.504199293427641,"true"
"image-keyboard-response",30,72589,"0.0-3.6-1.6","m6yd0f2ep2kgvp5",173,"194.csv","","null","resources/maskTrios/BBA3.jpg","null","",NA,NA,NA,NA,""
"image-keyboard-response",31,73797,"0.0-3.6-2.6","m6yd0f2ep2kgvp5",173,"194.csv","","null","resources/images/coin2.png","null","",NA,NA,NA,NA,""
"image-keyboard-response",32,75207,"0.0-3.7-0.7","m6yd0f2ep2kgvp5",173,"194.csv","","1406.699999988079","resources/trios/L1T2A3.jpg","39","restless",0.4,0.9,0.7,0.668366100538054,"true"
"image-keyboard-response",33,75611,"0.0-3.7-1.7","m6yd0f2ep2kgvp5",173,"194.csv","","null","resources/maskTrios/BBA3.jpg","null","",NA,NA,NA,NA,""
"image-keyboard-response",34,76819,"0.0-3.7-2.7","m6yd0f2ep2kgvp5",173,"194.csv","","null","resources/images/coin2.png","null","",NA,NA,NA,NA,""
"image-keyboard-response",35,77740,"0.0-3.8-0.8","m6yd0f2ep2kgvp5",173,"194.csv","","918.1999999880791","resources/trios/L4T2A3.jpg","39","restless",0.4,0.8,0.7,0.955971223701373,"false"
"image-keyboard-response",36,78147,"0.0-3.8-1.8","m6yd0f2ep2kgvp5",173,"194.csv","","null","resources/maskTrios/BBA3.jpg","null","",NA,NA,NA,NA,""
"image-keyboard-response",37,79353,"0.0-3.8-2.8","m6yd0f2ep2kgvp5",173,"194.csv","","null","resources/images/fishbone.png","null","",NA,NA,NA,NA,""
"image-keyboard-response",38,81152,"0.0-3.9-0.9","m6yd0f2ep2kgvp5",173,"194.csv","","1796.0999999940395","resources/trios/L4T2A3.jpg","38","restless",0.4,0.8,0.7,0.566662774087459,"true"
"image-keyboard-response",39,81561,"0.0-3.9-1.9","m6yd0f2ep2kgvp5",173,"194.csv","","null","resources/maskTrios/BT2B.jpg","null","",NA,NA,NA,NA,""
"image-keyboard-response",40,82768,"0.0-3.9-2.9","m6yd0f2ep2kgvp5",173,"194.csv","","null","resources/images/coin2.png","null","",NA,NA,NA,NA,""
"image-keyboard-response",41,83791,"0.0-3.10-0.10","m6yd0f2ep2kgvp5",173,"194.csv","","1020.3000000119209","resources/trios/L4T2A3.jpg","38","restless",0.4,0.8,0.7,0.504693094280518,"true"
"image-keyboard-response",42,84198,"0.0-3.10-1.10","m6yd0f2ep2kgvp5",173,"194.csv","","null","resources/maskTrios/BT2B.jpg","null","",NA,NA,NA,NA,""
"image-keyboard-response",43,85402,"0.0-3.10-2.10","m6yd0f2ep2kgvp5",173,"194.csv","","null","resources/images/coin2.png","null","",NA,NA,NA,NA,""
"image-keyboard-response",44,86163,"0.0-3.11-0.11","m6yd0f2ep2kgvp5",173,"194.csv","","758.3000000119209","resources/trios/L4T1A2.jpg","38","restless",0.4,0.8,0.7,0.954886263322804,"false"
"image-keyboard-response",45,86571,"0.0-3.11-1.11","m6yd0f2ep2kgvp5",173,"194.csv","","null","resources/maskTrios/BT1B.jpg","null","",NA,NA,NA,NA,""
"image-keyboard-response",46,87778,"0.0-3.11-2.11","m6yd0f2ep2kgvp5",173,"194.csv","","null","resources/images/fishbone.png","null","",NA,NA,NA,NA,""
"image-keyboard-response",47,88455,"0.0-3.12-0.12","m6yd0f2ep2kgvp5",173,"194.csv","","674.6999999880791","resources/trios/L4T1A3.jpg","39","restless",0.4,0.8,0.7,0.805336350673772,"false"
"image-keyboard-response",48,88861,"0.0-3.12-1.12","m6yd0f2ep2kgvp5",173,"194.csv","","null","resources/maskTrios/BBA3.jpg","null","",NA,NA,NA,NA,""
"image-keyboard-response",49,90068,"0.0-3.12-2.12","m6yd0f2ep2kgvp5",173,"194.csv","","null","resources/images/fishbone.png","null","",NA,NA,NA,NA,""
"image-keyboard-response",50,90577,"0.0-3.13-0.13","m6yd0f2ep2kgvp5",173,"194.csv","","506.2999999821186","resources/trios/L1T1A3.jpg","37","restless",0.4,0.8,0.7,0.9557809180839,"false"
"image-keyboard-response",51,90985,"0.0-3.13-1.13","m6yd0f2ep2kgvp5",173,"194.csv","","null","resources/maskTrios/L1BB.jpg","null","",NA,NA,NA,NA,""
"image-keyboard-response",52,92193,"0.0-3.13-2.13","m6yd0f2ep2kgvp5",173,"194.csv","","null","resources/images/fishbone.png","null","",NA,NA,NA,NA,""
"image-keyboard-response",53,92814,"0.0-3.14-0.14","m6yd0f2ep2kgvp5",173,"194.csv","","619","resources/trios/L4T2A2.jpg","38","restless",0.4,0.8,0.7,0.743624678289026,"true"
"image-keyboard-response",54,93222,"0.0-3.14-1.14","m6yd0f2ep2kgvp5",173,"194.csv","","null","resources/maskTrios/BT2B.jpg","null","",NA,NA,NA,NA,""
"image-keyboard-response",55,94430,"0.0-3.14-2.14","m6yd0f2ep2kgvp5",173,"194.csv","","null","resources/images/coin2.png","null","",NA,NA,NA,NA,""
"image-keyboard-response",56,95022,"0.0-3.15-0.15","m6yd0f2ep2kgvp5",173,"194.csv","","589.0999999940395","resources/trios/L1T1A3.jpg","38","restless",0.4,0.8,0.7,0.536346727124028,"true"
"image-keyboard-response",57,95427,"0.0-3.15-1.15","m6yd0f2ep2kgvp5",173,"194.csv","","null","resources/maskTrios/BT1B.jpg","null","",NA,NA,NA,NA,""
"image-keyboard-response",58,96630,"0.0-3.15-2.15","m6yd0f2ep2kgvp5",173,"194.csv","","null","resources/images/coin2.png","null","",NA,NA,NA,NA,""
"image-keyboard-response",59,97456,"0.0-3.16-0.16","m6yd0f2ep2kgvp5",173,"194.csv","","822.7000000178814","resources/trios/L4T1A2.jpg","38","restless",0.4,0.8,0.7,0.64836845350068,"true"
"image-keyboard-response",60,97860,"0.0-3.16-1.16","m6yd0f2ep2kgvp5",173,"194.csv","","null","resources/maskTrios/BT1B.jpg","null","",NA,NA,NA,NA,""
"image-keyboard-response",61,99066,"0.0-3.16-2.16","m6yd0f2ep2kgvp5",173,"194.csv","","null","resources/images/coin2.png","null","",NA,NA,NA,NA,""
"image-keyboard-response",62,102169,"0.0-3.17-0.17","m6yd0f2ep2kgvp5",173,"194.csv","","3100.300000011921","resources/trios/L1T2A2.jpg","39","restless",0.3,0.8,0.7,0.172684868251391,"true"
"image-keyboard-response",63,102577,"0.0-3.17-1.17","m6yd0f2ep2kgvp5",173,"194.csv","","null","resources/maskTrios/BBA2.jpg","null","",NA,NA,NA,NA,""
"image-keyboard-response",64,103781,"0.0-3.17-2.17","m6yd0f2ep2kgvp5",173,"194.csv","","null","resources/images/coin2.png","null","",NA,NA,NA,NA,""
"image-keyboard-response",65,104442,"0.0-3.18-0.18","m6yd0f2ep2kgvp5",173,"194.csv","","658.3000000119209","resources/trios/L4T2A3.jpg","39","restless",0.3,0.8,0.7,0.265704261608173,"true"
"image-keyboard-response",66,104850,"0.0-3.18-1.18","m6yd0f2ep2kgvp5",173,"194.csv","","null","resources/maskTrios/BBA3.jpg","null","",NA,NA,NA,NA,""
"image-keyboard-response",67,106058,"0.0-3.18-2.18","m6yd0f2ep2kgvp5",173,"194.csv","","null","resources/images/coin2.png","null","",NA,NA,NA,NA,""
"image-keyboard-response",68,106797,"0.0-3.19-0.19","m6yd0f2ep2kgvp5",173,"194.csv","","736.3000000119209","resources/trios/L1T1A3.jpg","38","restless",0.3,0.8,0.7,0.360836549760061,"true"
"image-keyboard-response",69,107200,"0.0-3.19-1.19","m6yd0f2ep2kgvp5",173,"194.csv","","null","resources/maskTrios/BT1B.jpg","null","",NA,NA,NA,NA,""
"image-keyboard-response",70,108408,"0.0-3.19-2.19","m6yd0f2ep2kgvp5",173,"194.csv","","null","resources/images/coin2.png","null","",NA,NA,NA,NA,""
"image-keyboard-response",71,110107,"0.0-3.20-0.20","m6yd0f2ep2kgvp5",173,"194.csv","","1696.699999988079","resources/trios/L4T2A3.jpg","38","restless",0.3,0.7,0.7,0.717176182634681,"false"
"image-keyboard-response",72,110515,"0.0-3.20-1.20","m6yd0f2ep2kgvp5",173,"194.csv","","null","resources/maskTrios/BT2B.jpg","null","",NA,NA,NA,NA,""
"image-keyboard-response",73,111720,"0.0-3.20-2.20","m6yd0f2ep2kgvp5",173,"194.csv","","null","resources/images/fishbone.png","null","",NA,NA,NA,NA,""
"image-keyboard-response",74,112233,"0.0-3.21-0.21","m6yd0f2ep2kgvp5",173,"194.csv","","510.59999999403954","resources/trios/L4T1A2.jpg","39","restless",0.3,0.7,0.7,0.891056375016633,"false"
"image-keyboard-response",75,112640,"0.0-3.21-1.21","m6yd0f2ep2kgvp5",173,"194.csv","","null","resources/maskTrios/BBA2.jpg","null","",NA,NA,NA,NA,""
"image-keyboard-response",76,113847,"0.0-3.21-2.21","m6yd0f2ep2kgvp5",173,"194.csv","","null","resources/images/fishbone.png","null","",NA,NA,NA,NA,""
"image-keyboard-response",77,114149,"0.0-3.22-0.22","m6yd0f2ep2kgvp5",173,"194.csv","","299.30000001192093","resources/trios/L1T1A2.jpg","38","restless",0.3,0.7,0.7,0.463263507634257,"true"
"image-keyboard-response",78,114555,"0.0-3.22-1.22","m6yd0f2ep2kgvp5",173,"194.csv","","null","resources/maskTrios/BT1B.jpg","null","",NA,NA,NA,NA,""
"image-keyboard-response",79,115762,"0.0-3.22-2.22","m6yd0f2ep2kgvp5",173,"194.csv","","null","resources/images/coin2.png","null","",NA,NA,NA,NA,""
"image-keyboard-response",80,116223,"0.0-3.23-0.23","m6yd0f2ep2kgvp5",173,"194.csv","","457.2000000178814","resources/trios/L4T1A2.jpg","38","restless",0.3,0.7,0.7,0.819864431583841,"false"
"image-keyboard-response",81,116628,"0.0-3.23-1.23","m6yd0f2ep2kgvp5",173,"194.csv","","null","resources/maskTrios/BT1B.jpg","null","",NA,NA,NA,NA,""
"image-keyboard-response",82,117835,"0.0-3.23-2.23","m6yd0f2ep2kgvp5",173,"194.csv","","null","resources/images/fishbone.png","null","",NA,NA,NA,NA,""
"image-keyboard-response",83,118155,"0.0-3.24-0.24","m6yd0f2ep2kgvp5",173,"194.csv","","316.2000000178814","resources/trios/L4T1A2.jpg","37","restless",0.3,0.7,0.7,0.227615597886577,"true"
"image-keyboard-response",84,118563,"0.0-3.24-1.24","m6yd0f2ep2kgvp5",173,"194.csv","","null","resources/maskTrios/L4BB.jpg","null","",NA,NA,NA,NA,""
"image-keyboard-response",85,119766,"0.0-3.24-2.24","m6yd0f2ep2kgvp5",173,"194.csv","","null","resources/images/coin2.png","null","",NA,NA,NA,NA,""
"image-keyboard-response",86,120165,"0.0-3.25-0.25","m6yd0f2ep2kgvp5",173,"194.csv","","396","resources/trios/L4T2A3.jpg","37","restless",0.4,0.7,0.7,0.750979232815236,"false"
"image-keyboard-response",87,120571,"0.0-3.25-1.25","m6yd0f2ep2kgvp5",173,"194.csv","","null","resources/maskTrios/L4BB.jpg","null","",NA,NA,NA,NA,""
"image-keyboard-response",88,121780,"0.0-3.25-2.25","m6yd0f2ep2kgvp5",173,"194.csv","","null","resources/images/fishbone.png","null","",NA,NA,NA,NA,""
"image-keyboard-response",89,122094,"0.0-3.26-0.26","m6yd0f2ep2kgvp5",173,"194.csv","","309.7999999821186","resources/trios/L1T2A3.jpg","38","restless",0.4,0.7,0.7,0.143030165015245,"true"
"image-keyboard-response",90,122501,"0.0-3.26-1.26","m6yd0f2ep2kgvp5",173,"194.csv","","null","resources/maskTrios/BT2B.jpg","null","",NA,NA,NA,NA,""
"image-keyboard-response",91,123709,"0.0-3.26-2.26","m6yd0f2ep2kgvp5",173,"194.csv","","null","resources/images/coin2.png","null","",NA,NA,NA,NA,""
"image-keyboard-response",92,124013,"0.0-3.27-0.27","m6yd0f2ep2kgvp5",173,"194.csv","","301","resources/trios/L1T1A3.jpg","38","restless",0.4,0.7,0.7,0.232118283591029,"true"
"image-keyboard-response",93,124417,"0.0-3.27-1.27","m6yd0f2ep2kgvp5",173,"194.csv","","null","resources/maskTrios/BT1B.jpg","null","",NA,NA,NA,NA,""
"image-keyboard-response",94,125625,"0.0-3.27-2.27","m6yd0f2ep2kgvp5",173,"194.csv","","null","resources/images/coin2.png","null","",NA,NA,NA,NA,""
"image-keyboard-response",95,126352,"0.0-3.28-0.28","m6yd0f2ep2kgvp5",173,"194.csv","","725.6000000238419","resources/trios/L1T1A2.jpg","38","restless",0.4,0.7,0.8,0.786488956955396,"false"
"image-keyboard-response",96,126759,"0.0-3.28-1.28","m6yd0f2ep2kgvp5",173,"194.csv","","null","resources/maskTrios/BT1B.jpg","null","",NA,NA,NA,NA,""
"image-keyboard-response",97,127966,"0.0-3.28-2.28","m6yd0f2ep2kgvp5",173,"194.csv","","null","resources/images/fishbone.png","null","",NA,NA,NA,NA,""
"image-keyboard-response",98,128243,"0.0-3.29-0.29","m6yd0f2ep2kgvp5",173,"194.csv","","275.90000000596046","resources/trios/L1T1A2.jpg","39","restless",0.4,0.7,0.8,0.519263402028719,"true"
"image-keyboard-response",99,128651,"0.0-3.29-1.29","m6yd0f2ep2kgvp5",173,"194.csv","","null","resources/maskTrios/BBA2.jpg","null","",NA,NA,NA,NA,""
"image-keyboard-response",100,129859,"0.0-3.29-2.29","m6yd0f2ep2kgvp5",173,"194.csv","","null","resources/images/coin2.png","null","",NA,NA,NA,NA,""
"image-keyboard-response",101,130682,"0.0-3.30-0.30","m6yd0f2ep2kgvp5",173,"194.csv","","820","resources/trios/L4T2A3.jpg","37","restless",0.4,0.6,0.9,0.502977207244741,"false"
"image-keyboard-response",102,131085,"0.0-3.30-1.30","m6yd0f2ep2kgvp5",173,"194.csv","","null","resources/maskTrios/L4BB.jpg","null","",NA,NA,NA,NA,""
"image-keyboard-response",103,132293,"0.0-3.30-2.30","m6yd0f2ep2kgvp5",173,"194.csv","","null","resources/images/fishbone.png","null","",NA,NA,NA,NA,""
"image-keyboard-response",104,132549,"0.0-3.31-0.31","m6yd0f2ep2kgvp5",173,"194.csv","","252.69999998807907","resources/trios/L1T1A2.jpg","38","restless",0.4,0.6,0.9,0.862897300739123,"false"
"image-keyboard-response",105,132956,"0.0-3.31-1.31","m6yd0f2ep2kgvp5",173,"194.csv","","null","resources/maskTrios/BT1B.jpg","null","",NA,NA,NA,NA,""
"image-keyboard-response",106,134160,"0.0-3.31-2.31","m6yd0f2ep2kgvp5",173,"194.csv","","null","resources/images/fishbone.png","null","",NA,NA,NA,NA,""
"image-keyboard-response",107,134436,"0.0-3.32-0.32","m6yd0f2ep2kgvp5",173,"194.csv","","273.09999999403954","resources/trios/L4T1A3.jpg","39","restless",0.4,0.6,0.9,0.286232388393816,"true"
"image-keyboard-response",108,134840,"0.0-3.32-1.32","m6yd0f2ep2kgvp5",173,"194.csv","","null","resources/maskTrios/BBA3.jpg","null","",NA,NA,NA,NA,""
"image-keyboard-response",109,136043,"0.0-3.32-2.32","m6yd0f2ep2kgvp5",173,"194.csv","","null","resources/images/coin2.png","null","",NA,NA,NA,NA,""
"image-keyboard-response",110,136356,"0.0-3.33-0.33","m6yd0f2ep2kgvp5",173,"194.csv","","311.69999998807907","resources/trios/L1T1A2.jpg","39","restless",0.4,0.6,0.9,0.541056710524347,"true"
"image-keyboard-response",111,136763,"0.0-3.33-1.33","m6yd0f2ep2kgvp5",173,"194.csv","","null","resources/maskTrios/BBA2.jpg","null","",NA,NA,NA,NA,""
"image-keyboard-response",112,137971,"0.0-3.33-2.33","m6yd0f2ep2kgvp5",173,"194.csv","","null","resources/images/coin2.png","null","",NA,NA,NA,NA,""
"image-keyboard-response",113,138430,"0.0-3.34-0.34","m6yd0f2ep2kgvp5",173,"194.csv","","456.09999999403954","resources/trios/L4T2A3.jpg","39","restless",0.4,0.6,0.8,0.166771555523742,"true"
"image-keyboard-response",114,138838,"0.0-3.34-1.34","m6yd0f2ep2kgvp5",173,"194.csv","","null","resources/maskTrios/BBA3.jpg","null","",NA,NA,NA,NA,""
"image-keyboard-response",115,140043,"0.0-3.34-2.34","m6yd0f2ep2kgvp5",173,"194.csv","","null","resources/images/coin2.png","null","",NA,NA,NA,NA,""
"image-keyboard-response",116,140341,"0.0-3.35-0.35","m6yd0f2ep2kgvp5",173,"194.csv","","295","resources/trios/L4T1A2.jpg","39","restless",0.4,0.6,0.8,0.196183677476637,"true"
"image-keyboard-response",117,140747,"0.0-3.35-1.35","m6yd0f2ep2kgvp5",173,"194.csv","","null","resources/maskTrios/BBA2.jpg","null","",NA,NA,NA,NA,""
"image-keyboard-response",118,141951,"0.0-3.35-2.35","m6yd0f2ep2kgvp5",173,"194.csv","","null","resources/images/coin2.png","null","",NA,NA,NA,NA,""
"image-keyboard-response",119,142212,"0.0-3.36-0.36","m6yd0f2ep2kgvp5",173,"194.csv","","258.30000001192093","resources/trios/L1T2A2.jpg","39","restless",0.4,0.6,0.8,0.236705092705221,"true"
"image-keyboard-response",120,142615,"0.0-3.36-1.36","m6yd0f2ep2kgvp5",173,"194.csv","","null","resources/maskTrios/BBA2.jpg","null","",NA,NA,NA,NA,""
"image-keyboard-response",121,143819,"0.0-3.36-2.36","m6yd0f2ep2kgvp5",173,"194.csv","","null","resources/images/coin2.png","null","",NA,NA,NA,NA,""
"image-keyboard-response",122,144167,"0.0-3.37-0.37","m6yd0f2ep2kgvp5",173,"194.csv","","345.30000001192093","resources/trios/L1T2A2.jpg","39","restless",0.4,0.6,0.8,0.584877322314021,"true"
"image-keyboard-response",123,144575,"0.0-3.37-1.37","m6yd0f2ep2kgvp5",173,"194.csv","","null","resources/maskTrios/BBA2.jpg","null","",NA,NA,NA,NA,""
"image-keyboard-response",124,145782,"0.0-3.37-2.37","m6yd0f2ep2kgvp5",173,"194.csv","","null","resources/images/coin2.png","null","",NA,NA,NA,NA,""
"image-keyboard-response",125,146072,"0.0-3.38-0.38","m6yd0f2ep2kgvp5",173,"194.csv","","286","resources/trios/L1T2A3.jpg","39","restless",0.4,0.6,0.7,0.0722041758379193,"true"
"image-keyboard-response",126,146478,"0.0-3.38-1.38","m6yd0f2ep2kgvp5",173,"194.csv","","null","resources/maskTrios/BBA3.jpg","null","",NA,NA,NA,NA,""
"image-keyboard-response",127,147685,"0.0-3.38-2.38","m6yd0f2ep2kgvp5",173,"194.csv","","null","resources/images/coin2.png","null","",NA,NA,NA,NA,""
"image-keyboard-response",128,147929,"0.0-3.39-0.39","m6yd0f2ep2kgvp5",173,"194.csv","","241.40000000596046","resources/trios/L4T1A2.jpg","39","restless",0.4,0.6,0.7,0.23294350800411,"true"
"image-keyboard-response",129,148337,"0.0-3.39-1.39","m6yd0f2ep2kgvp5",173,"194.csv","","null","resources/maskTrios/BBA2.jpg","null","",NA,NA,NA,NA,""
"image-keyboard-response",130,149540,"0.0-3.39-2.39","m6yd0f2ep2kgvp5",173,"194.csv","","null","resources/images/coin2.png","null","",NA,NA,NA,NA,""
"image-keyboard-response",131,149773,"0.0-3.40-0.40","m6yd0f2ep2kgvp5",173,"194.csv","","230.10000002384186","resources/trios/L4T2A3.jpg","39","restless",0.4,0.6,0.7,0.151063631178058,"true"
"image-keyboard-response",132,150181,"0.0-3.40-1.40","m6yd0f2ep2kgvp5",173,"194.csv","","null","resources/maskTrios/BBA3.jpg","null","",NA,NA,NA,NA,""
"image-keyboard-response",133,151389,"0.0-3.40-2.40","m6yd0f2ep2kgvp5",173,"194.csv","","null","resources/images/coin2.png","null","",NA,NA,NA,NA,""
"image-keyboard-response",134,151729,"0.0-3.41-0.41","m6yd0f2ep2kgvp5",173,"194.csv","","336.80000001192093","resources/trios/L4T2A3.jpg","39","restless",0.4,0.5,0.7,0.687214495045949,"true"
"image-keyboard-response",135,152132,"0.0-3.41-1.41","m6yd0f2ep2kgvp5",173,"194.csv","","null","resources/maskTrios/BBA3.jpg","null","",NA,NA,NA,NA,""
"image-keyboard-response",136,153336,"0.0-3.41-2.41","m6yd0f2ep2kgvp5",173,"194.csv","","null","resources/images/coin2.png","null","",NA,NA,NA,NA,""
"image-keyboard-response",137,153607,"0.0-3.42-0.42","m6yd0f2ep2kgvp5",173,"194.csv","","268.80000001192093","resources/trios/L1T2A2.jpg","39","restless",0.4,0.5,0.7,0.611608273042156,"true"
"image-keyboard-response",138,154015,"0.0-3.42-1.42","m6yd0f2ep2kgvp5",173,"194.csv","","null","resources/maskTrios/BBA2.jpg","null","",NA,NA,NA,NA,""
"image-keyboard-response",139,155222,"0.0-3.42-2.42","m6yd0f2ep2kgvp5",173,"194.csv","","null","resources/images/coin2.png","null","",NA,NA,NA,NA,""
"image-keyboard-response",140,155512,"0.0-3.43-0.43","m6yd0f2ep2kgvp5",173,"194.csv","","287.10000002384186","resources/trios/L1T2A3.jpg","39","restless",0.4,0.5,0.7,0.722453969554525,"false"
"image-keyboard-response",141,155920,"0.0-3.43-1.43","m6yd0f2ep2kgvp5",173,"194.csv","","null","resources/maskTrios/BBA3.jpg","null","",NA,NA,NA,NA,""
"image-keyboard-response",142,157127,"0.0-3.43-2.43","m6yd0f2ep2kgvp5",173,"194.csv","","null","resources/images/fishbone.png","null","",NA,NA,NA,NA,""
"image-keyboard-response",143,157462,"0.0-3.44-0.44","m6yd0f2ep2kgvp5",173,"194.csv","","332.59999999403954","resources/trios/L4T1A3.jpg","38","restless",0.4,0.5,0.7,0.0549176207621198,"true"
"image-keyboard-response",144,157866,"0.0-3.44-1.44","m6yd0f2ep2kgvp5",173,"194.csv","","null","resources/maskTrios/BT1B.jpg","null","",NA,NA,NA,NA,""
"image-keyboard-response",145,159074,"0.0-3.44-2.44","m6yd0f2ep2kgvp5",173,"194.csv","","null","resources/images/coin2.png","null","",NA,NA,NA,NA,""
"image-keyboard-response",146,159459,"0.0-3.45-0.45","m6yd0f2ep2kgvp5",173,"194.csv","","382.2000000178814","resources/trios/L1T2A2.jpg","38","restless",0.4,0.5,0.7,0.992460947297277,"false"
"image-keyboard-response",147,159865,"0.0-3.45-1.45","m6yd0f2ep2kgvp5",173,"194.csv","","null","resources/maskTrios/BT2B.jpg","null","",NA,NA,NA,NA,""
"image-keyboard-response",148,161068,"0.0-3.45-2.45","m6yd0f2ep2kgvp5",173,"194.csv","","null","resources/images/fishbone.png","null","",NA,NA,NA,NA,""
"image-keyboard-response",149,161371,"0.0-3.46-0.46","m6yd0f2ep2kgvp5",173,"194.csv","","300.40000000596046","resources/trios/L1T1A2.jpg","37","restless",0.4,0.5,0.7,0.15246887611017,"true"
"image-keyboard-response",150,161779,"0.0-3.46-1.46","m6yd0f2ep2kgvp5",173,"194.csv","","null","resources/maskTrios/L1BB.jpg","null","",NA,NA,NA,NA,""
"image-keyboard-response",151,162987,"0.0-3.46-2.46","m6yd0f2ep2kgvp5",173,"194.csv","","null","resources/images/coin2.png","null","",NA,NA,NA,NA,""
"image-keyboard-response",152,163247,"0.0-3.47-0.47","m6yd0f2ep2kgvp5",173,"194.csv","","257","resources/trios/L1T1A2.jpg","37","restless",0.4,0.5,0.7,0.156348512915291,"true"
"image-keyboard-response",153,163655,"0.0-3.47-1.47","m6yd0f2ep2kgvp5",173,"194.csv","","null","resources/maskTrios/L1BB.jpg","null","",NA,NA,NA,NA,""
"image-keyboard-response",154,164859,"0.0-3.47-2.47","m6yd0f2ep2kgvp5",173,"194.csv","","null","resources/images/coin2.png","null","",NA,NA,NA,NA,""
"image-keyboard-response",155,165091,"0.0-3.48-0.48","m6yd0f2ep2kgvp5",173,"194.csv","","229.40000000596046","resources/trios/L4T2A2.jpg","37","restless",0.5,0.5,0.7,0.66985012979844,"false"
"image-keyboard-response",156,165499,"0.0-3.48-1.48","m6yd0f2ep2kgvp5",173,"194.csv","","null","resources/maskTrios/L4BB.jpg","null","",NA,NA,NA,NA,""
"image-keyboard-response",157,166706,"0.0-3.48-2.48","m6yd0f2ep2kgvp5",173,"194.csv","","null","resources/images/fishbone.png","null","",NA,NA,NA,NA,""
"image-keyboard-response",158,166960,"0.0-3.49-0.49","m6yd0f2ep2kgvp5",173,"194.csv","","249.90000000596046","resources/trios/L4T2A3.jpg","39","restless",0.5,0.5,0.7,0.556359726757384,"true"
"image-keyboard-response",159,167364,"0.0-3.49-1.49","m6yd0f2ep2kgvp5",173,"194.csv","","null","resources/maskTrios/BBA3.jpg","null","",NA,NA,NA,NA,""
"image-keyboard-response",160,168571,"0.0-3.49-2.49","m6yd0f2ep2kgvp5",173,"194.csv","","null","resources/images/coin2.png","null","",NA,NA,NA,NA,""
"image-keyboard-response",161,168855,"0.0-3.50-0.50","m6yd0f2ep2kgvp5",173,"194.csv","","280.69999998807907","resources/trios/L1T2A2.jpg","39","restless",0.4,0.5,0.7,0.0646387005916322,"true"
"image-keyboard-response",162,169260,"0.0-3.50-1.50","m6yd0f2ep2kgvp5",173,"194.csv","","null","resources/maskTrios/BBA2.jpg","null","",NA,NA,NA,NA,""
"image-keyboard-response",163,170468,"0.0-3.50-2.50","m6yd0f2ep2kgvp5",173,"194.csv","","null","resources/images/coin2.png","null","",NA,NA,NA,NA,""
"image-keyboard-response",164,170750,"0.0-3.51-0.51","m6yd0f2ep2kgvp5",173,"194.csv","","279.40000000596046","resources/trios/L4T2A3.jpg","39","restless",0.4,0.4,0.7,0.948268102341034,"false"
"image-keyboard-response",165,171153,"0.0-3.51-1.51","m6yd0f2ep2kgvp5",173,"194.csv","","null","resources/maskTrios/BBA3.jpg","null","",NA,NA,NA,NA,""
"image-keyboard-response",166,172357,"0.0-3.51-2.51","m6yd0f2ep2kgvp5",173,"194.csv","","null","resources/images/fishbone.png","null","",NA,NA,NA,NA,""
"image-keyboard-response",167,172779,"0.0-3.52-0.52","m6yd0f2ep2kgvp5",173,"194.csv","","419.19999998807907","resources/trios/L1T2A3.jpg","38","restless",0.5,0.4,0.7,0.819368076629894,"false"
"image-keyboard-response",168,173187,"0.0-3.52-1.52","m6yd0f2ep2kgvp5",173,"194.csv","","null","resources/maskTrios/BT2B.jpg","null","",NA,NA,NA,NA,""
"image-keyboard-response",169,174395,"0.0-3.52-2.52","m6yd0f2ep2kgvp5",173,"194.csv","","null","resources/images/fishbone.png","null","",NA,NA,NA,NA,""
"image-keyboard-response",170,174657,"0.0-3.53-0.53","m6yd0f2ep2kgvp5",173,"194.csv","","259.59999999403954","resources/trios/L4T1A2.jpg","37","restless",0.5,0.4,0.7,0.677827551883889,"false"
"image-keyboard-response",171,175065,"0.0-3.53-1.53","m6yd0f2ep2kgvp5",173,"194.csv","","null","resources/maskTrios/L4BB.jpg","null","",NA,NA,NA,NA,""
"image-keyboard-response",172,176272,"0.0-3.53-2.53","m6yd0f2ep2kgvp5",173,"194.csv","","null","resources/images/fishbone.png","null","",NA,NA,NA,NA,""
"image-keyboard-response",173,176508,"0.0-3.54-0.54","m6yd0f2ep2kgvp5",173,"194.csv","","234.7999999821186","resources/trios/L4T2A2.jpg","39","restless",0.5,0.4,0.6,0.548620884425509,"true"
"image-keyboard-response",174,176916,"0.0-3.54-1.54","m6yd0f2ep2kgvp5",173,"194.csv","","null","resources/maskTrios/BBA2.jpg","null","",NA,NA,NA,NA,""
"image-keyboard-response",175,178124,"0.0-3.54-2.54","m6yd0f2ep2kgvp5",173,"194.csv","","null","resources/images/coin2.png","null","",NA,NA,NA,NA,""
"image-keyboard-response",176,178661,"0.0-3.55-0.55","m6yd0f2ep2kgvp5",173,"194.csv","","534.5999999940395","resources/trios/L1T1A3.jpg","39","restless",0.5,0.4,0.6,0.0655389836003468,"true"
"image-keyboard-response",177,179069,"0.0-3.55-1.55","m6yd0f2ep2kgvp5",173,"194.csv","","null","resources/maskTrios/BBA3.jpg","null","",NA,NA,NA,NA,""
"image-keyboard-response",178,180276,"0.0-3.55-2.55","m6yd0f2ep2kgvp5",173,"194.csv","","null","resources/images/coin2.png","null","",NA,NA,NA,NA,""
"image-keyboard-response",179,180628,"0.0-3.56-0.56","m6yd0f2ep2kgvp5",173,"194.csv","","349","resources/trios/L4T2A3.jpg","39","restless",0.4,0.3,0.6,0.201227394915028,"true"
"image-keyboard-response",180,181035,"0.0-3.56-1.56","m6yd0f2ep2kgvp5",173,"194.csv","","null","resources/maskTrios/BBA3.jpg","null","",NA,NA,NA,NA,""
"image-keyboard-response",181,182243,"0.0-3.56-2.56","m6yd0f2ep2kgvp5",173,"194.csv","","null","resources/images/coin2.png","null","",NA,NA,NA,NA,""
"image-keyboard-response",182,182512,"0.0-3.57-0.57","m6yd0f2ep2kgvp5",173,"194.csv","","266.09999999403954","resources/trios/L1T2A3.jpg","39","restless",0.4,0.3,0.6,0.720493257896208,"false"
"image-keyboard-response",183,182919,"0.0-3.57-1.57","m6yd0f2ep2kgvp5",173,"194.csv","","null","resources/maskTrios/BBA3.jpg","null","",NA,NA,NA,NA,""
"image-keyboard-response",184,184126,"0.0-3.57-2.57","m6yd0f2ep2kgvp5",173,"194.csv","","null","resources/images/fishbone.png","null","",NA,NA,NA,NA,""
"image-keyboard-response",185,184455,"0.0-3.58-0.58","m6yd0f2ep2kgvp5",173,"194.csv","","325.5","resources/trios/L4T1A2.jpg","38","restless",0.4,0.3,0.6,0.728274818168279,"false"
"image-keyboard-response",186,184863,"0.0-3.58-1.58","m6yd0f2ep2kgvp5",173,"194.csv","","null","resources/maskTrios/BT1B.jpg","null","",NA,NA,NA,NA,""
"image-keyboard-response",187,186069,"0.0-3.58-2.58","m6yd0f2ep2kgvp5",173,"194.csv","","null","resources/images/fishbone.png","null","",NA,NA,NA,NA,""
"image-keyboard-response",188,186672,"0.0-3.59-0.59","m6yd0f2ep2kgvp5",173,"194.csv","","600.0999999940395","resources/trios/L1T1A2.jpg","38","restless",0.4,0.3,0.6,0.718778669393536,"false"
"image-keyboard-response",189,187079,"0.0-3.59-1.59","m6yd0f2ep2kgvp5",173,"194.csv","","null","resources/maskTrios/BT1B.jpg","null","",NA,NA,NA,NA,""
"image-keyboard-response",190,188287,"0.0-3.59-2.59","m6yd0f2ep2kgvp5",173,"194.csv","","null","resources/images/fishbone.png","null","",NA,NA,NA,NA,""
"image-keyboard-response",191,188492,"0.0-3.60-0.60","m6yd0f2ep2kgvp5",173,"194.csv","","202.7000000178814","resources/trios/L4T2A2.jpg","37","restless",0.5,0.3,0.6,0.0935423377767932,"true"
"image-keyboard-response",192,188894,"0.0-3.60-1.60","m6yd0f2ep2kgvp5",173,"194.csv","","null","resources/maskTrios/L4BB.jpg","null","",NA,NA,NA,NA,""
"image-keyboard-response",193,190100,"0.0-3.60-2.60","m6yd0f2ep2kgvp5",173,"194.csv","","null","resources/images/coin2.png","null","",NA,NA,NA,NA,""
"image-keyboard-response",194,190391,"0.0-3.61-0.61","m6yd0f2ep2kgvp5",173,"194.csv","","289","resources/trios/L1T1A3.jpg","37","restless",0.5,0.3,0.6,0.799648586684473,"false"
"image-keyboard-response",195,190796,"0.0-3.61-1.61","m6yd0f2ep2kgvp5",173,"194.csv","","null","resources/maskTrios/L1BB.jpg","null","",NA,NA,NA,NA,""
"image-keyboard-response",196,192003,"0.0-3.61-2.61","m6yd0f2ep2kgvp5",173,"194.csv","","null","resources/images/fishbone.png","null","",NA,NA,NA,NA,""
"image-keyboard-response",197,192135,"0.0-3.62-0.62","m6yd0f2ep2kgvp5",173,"194.csv","","129.5","resources/trios/L4T1A3.jpg","39","restless",0.5,0.3,0.6,0.213753007749679,"true"
"image-keyboard-response",198,192543,"0.0-3.62-1.62","m6yd0f2ep2kgvp5",173,"194.csv","","null","resources/maskTrios/BBA3.jpg","null","",NA,NA,NA,NA,""
"image-keyboard-response",199,193750,"0.0-3.62-2.62","m6yd0f2ep2kgvp5",173,"194.csv","","null","resources/images/coin2.png","null","",NA,NA,NA,NA,""
"image-keyboard-response",200,193796,"0.0-3.63-0.63","m6yd0f2ep2kgvp5",173,"194.csv","","42.80000001192093","resources/trios/L1T1A3.jpg","39","restless",0.5,0.3,0.6,0.0567012365326007,"true"
"image-keyboard-response",201,194202,"0.0-3.63-1.63","m6yd0f2ep2kgvp5",173,"194.csv","","null","resources/maskTrios/BBA3.jpg","null","",NA,NA,NA,NA,""
"image-keyboard-response",202,195409,"0.0-3.63-2.63","m6yd0f2ep2kgvp5",173,"194.csv","","null","resources/images/coin2.png","null","",NA,NA,NA,NA,""
"image-keyboard-response",203,195696,"0.0-3.64-0.64","m6yd0f2ep2kgvp5",173,"194.csv","","284.59999999403954","resources/trios/L4T2A2.jpg","39","restless",0.5,0.3,0.6,0.928805753548137,"false"
"image-keyboard-response",204,196103,"0.0-3.64-1.64","m6yd0f2ep2kgvp5",173,"194.csv","","null","resources/maskTrios/BBA2.jpg","null","",NA,NA,NA,NA,""
"image-keyboard-response",205,197310,"0.0-3.64-2.64","m6yd0f2ep2kgvp5",173,"194.csv","","null","resources/images/fishbone.png","null","",NA,NA,NA,NA,""
"image-keyboard-response",206,197653,"0.0-3.65-0.65","m6yd0f2ep2kgvp5",173,"194.csv","","340.30000001192093","resources/trios/L4T2A2.jpg","38","restless",0.5,0.3,0.6,0.870831788410937,"false"
"image-keyboard-response",207,198061,"0.0-3.65-1.65","m6yd0f2ep2kgvp5",173,"194.csv","","null","resources/maskTrios/BT2B.jpg","null","",NA,NA,NA,NA,""
"image-keyboard-response",208,199266,"0.0-3.65-2.65","m6yd0f2ep2kgvp5",173,"194.csv","","null","resources/images/fishbone.png","null","",NA,NA,NA,NA,""
"image-keyboard-response",209,199514,"0.0-3.66-0.66","m6yd0f2ep2kgvp5",173,"194.csv","","245.30000001192093","resources/trios/L4T1A2.jpg","37","restless",0.5,0.3,0.6,0.473178068086652,"true"
"image-keyboard-response",210,199921,"0.0-3.66-1.66","m6yd0f2ep2kgvp5",173,"194.csv","","null","resources/maskTrios/L4BB.jpg","null","",NA,NA,NA,NA,""
"image-keyboard-response",211,201125,"0.0-3.66-2.66","m6yd0f2ep2kgvp5",173,"194.csv","","null","resources/images/coin2.png","null","",NA,NA,NA,NA,""
"image-keyboard-response",212,201259,"0.0-3.67-0.67","m6yd0f2ep2kgvp5",173,"194.csv","","130.80000001192093","resources/trios/L1T2A3.jpg","37","restless",0.5,0.3,0.6,0.0452119613293238,"true"
"image-keyboard-response",213,201665,"0.0-3.67-1.67","m6yd0f2ep2kgvp5",173,"194.csv","","null","resources/maskTrios/L1BB.jpg","null","",NA,NA,NA,NA,""
"image-keyboard-response",214,202872,"0.0-3.67-2.67","m6yd0f2ep2kgvp5",173,"194.csv","","null","resources/images/coin2.png","null","",NA,NA,NA,NA,""
"image-keyboard-response",215,203267,"0.0-3.68-0.68","m6yd0f2ep2kgvp5",173,"194.csv","","391.30000001192093","resources/trios/L1T2A2.jpg","37","restless",0.5,0.3,0.5,0.780925981632048,"false"
"image-keyboard-response",216,203674,"0.0-3.68-1.68","m6yd0f2ep2kgvp5",173,"194.csv","","null","resources/maskTrios/L1BB.jpg","null","",NA,NA,NA,NA,""
"image-keyboard-response",217,204882,"0.0-3.68-2.68","m6yd0f2ep2kgvp5",173,"194.csv","","null","resources/images/fishbone.png","null","",NA,NA,NA,NA,""
"image-keyboard-response",218,205087,"0.0-3.69-0.69","m6yd0f2ep2kgvp5",173,"194.csv","","202.60000002384186","resources/trios/L4T1A3.jpg","38","restless",0.5,0.3,0.4,0.907277569815754,"false"
"image-keyboard-response",219,205495,"0.0-3.69-1.69","m6yd0f2ep2kgvp5",173,"194.csv","","null","resources/maskTrios/BT1B.jpg","null","",NA,NA,NA,NA,""
"image-keyboard-response",220,206701,"0.0-3.69-2.69","m6yd0f2ep2kgvp5",173,"194.csv","","null","resources/images/fishbone.png","null","",NA,NA,NA,NA,""
"image-keyboard-response",221,207025,"0.0-3.70-0.70","m6yd0f2ep2kgvp5",173,"194.csv","","321.40000000596046","resources/trios/L4T2A2.jpg","39","restless",0.5,0.3,0.4,0.704749811652114,"false"
"image-keyboard-response",222,207432,"0.0-3.70-1.70","m6yd0f2ep2kgvp5",173,"194.csv","","null","resources/maskTrios/BBA2.jpg","null","",NA,NA,NA,NA,""
"image-keyboard-response",223,208640,"0.0-3.70-2.70","m6yd0f2ep2kgvp5",173,"194.csv","","null","resources/images/fishbone.png","null","",NA,NA,NA,NA,""
"image-keyboard-response",224,209622,"0.0-3.71-0.71","m6yd0f2ep2kgvp5",173,"194.csv","","979.4000000059605","resources/trios/L4T1A3.jpg","38","restless",0.5,0.3,0.4,0.950892631066827,"false"
"image-keyboard-response",225,210030,"0.0-3.71-1.71","m6yd0f2ep2kgvp5",173,"194.csv","","null","resources/maskTrios/BT1B.jpg","null","",NA,NA,NA,NA,""
"image-keyboard-response",226,211236,"0.0-3.71-2.71","m6yd0f2ep2kgvp5",173,"194.csv","","null","resources/images/fishbone.png","null","",NA,NA,NA,NA,""
"image-keyboard-response",227,211472,"0.0-3.72-0.72","m6yd0f2ep2kgvp5",173,"194.csv","","233.40000000596046","resources/trios/L4T1A2.jpg","38","restless",0.5,0.3,0.4,0.612020680357236,"false"
"image-keyboard-response",228,211880,"0.0-3.72-1.72","m6yd0f2ep2kgvp5",173,"194.csv","","null","resources/maskTrios/BT1B.jpg","null","",NA,NA,NA,NA,""
"image-keyboard-response",229,213088,"0.0-3.72-2.72","m6yd0f2ep2kgvp5",173,"194.csv","","null","resources/images/fishbone.png","null","",NA,NA,NA,NA,""
"image-keyboard-response",230,213324,"0.0-3.73-0.73","m6yd0f2ep2kgvp5",173,"194.csv","","233.59999999403954","resources/trios/L4T2A3.jpg","37","restless",0.5,0.4,0.4,0.266991292790919,"true"
"image-keyboard-response",231,213731,"0.0-3.73-1.73","m6yd0f2ep2kgvp5",173,"194.csv","","null","resources/maskTrios/L4BB.jpg","null","",NA,NA,NA,NA,""
"image-keyboard-response",232,214937,"0.0-3.73-2.73","m6yd0f2ep2kgvp5",173,"194.csv","","null","resources/images/coin2.png","null","",NA,NA,NA,NA,""
"image-keyboard-response",233,215272,"0.0-3.74-0.74","m6yd0f2ep2kgvp5",173,"194.csv","","332.30000001192093","resources/trios/L1T1A2.jpg","37","restless",0.5,0.4,0.4,0.588595829932798,"false"
"image-keyboard-response",234,215680,"0.0-3.74-1.74","m6yd0f2ep2kgvp5",173,"194.csv","","null","resources/maskTrios/L1BB.jpg","null","",NA,NA,NA,NA,""
"image-keyboard-response",235,216885,"0.0-3.74-2.74","m6yd0f2ep2kgvp5",173,"194.csv","","null","resources/images/fishbone.png","null","",NA,NA,NA,NA,""
"image-keyboard-response",236,216918,"0.0-3.75-0.75","m6yd0f2ep2kgvp5",173,"194.csv","","30.5","resources/trios/L1T2A3.jpg","38","restless",0.5,0.4,0.4,0.700349942313715,"false"
"image-keyboard-response",237,217325,"0.0-3.75-1.75","m6yd0f2ep2kgvp5",173,"194.csv","","null","resources/maskTrios/BT2B.jpg","null","",NA,NA,NA,NA,""
"image-keyboard-response",238,218533,"0.0-3.75-2.75","m6yd0f2ep2kgvp5",173,"194.csv","","null","resources/images/fishbone.png","null","",NA,NA,NA,NA,""
"image-keyboard-response",239,218843,"0.0-3.76-0.76","m6yd0f2ep2kgvp5",173,"194.csv","","307.7000000178814","resources/trios/L1T1A3.jpg","39","restless",0.5,0.4,0.4,0.0990284613113943,"true"
"image-keyboard-response",240,219251,"0.0-3.76-1.76","m6yd0f2ep2kgvp5",173,"194.csv","","null","resources/maskTrios/BBA3.jpg","null","",NA,NA,NA,NA,""
"image-keyboard-response",241,220458,"0.0-3.76-2.76","m6yd0f2ep2kgvp5",173,"194.csv","","null","resources/images/coin2.png","null","",NA,NA,NA,NA,""
"image-keyboard-response",242,220773,"0.0-3.77-0.77","m6yd0f2ep2kgvp5",173,"194.csv","","311.69999998807907","resources/trios/L1T1A3.jpg","39","restless",0.5,0.3,0.4,0.413265246090008,"false"
"image-keyboard-response",243,221180,"0.0-3.77-1.77","m6yd0f2ep2kgvp5",173,"194.csv","","null","resources/maskTrios/BBA3.jpg","null","",NA,NA,NA,NA,""
"image-keyboard-response",244,222387,"0.0-3.77-2.77","m6yd0f2ep2kgvp5",173,"194.csv","","null","resources/images/fishbone.png","null","",NA,NA,NA,NA,""
"image-keyboard-response",245,222659,"0.0-3.78-0.78","m6yd0f2ep2kgvp5",173,"194.csv","","269.10000002384186","resources/trios/L1T2A2.jpg","38","restless",0.5,0.3,0.4,0.702594750886812,"false"
"image-keyboard-response",246,223067,"0.0-3.78-1.78","m6yd0f2ep2kgvp5",173,"194.csv","","null","resources/maskTrios/BT2B.jpg","null","",NA,NA,NA,NA,""
"image-keyboard-response",247,224274,"0.0-3.78-2.78","m6yd0f2ep2kgvp5",173,"194.csv","","null","resources/images/fishbone.png","null","",NA,NA,NA,NA,""
"image-keyboard-response",248,224522,"0.0-3.79-0.79","m6yd0f2ep2kgvp5",173,"194.csv","","246.7000000178814","resources/trios/L1T1A2.jpg","37","restless",0.5,0.3,0.4,0.36241716158788,"true"
"image-keyboard-response",249,224929,"0.0-3.79-1.79","m6yd0f2ep2kgvp5",173,"194.csv","","null","resources/maskTrios/L1BB.jpg","null","",NA,NA,NA,NA,""
"image-keyboard-response",250,226134,"0.0-3.79-2.79","m6yd0f2ep2kgvp5",173,"194.csv","","null","resources/images/coin2.png","null","",NA,NA,NA,NA,""
"image-keyboard-response",251,226572,"0.0-3.80-0.80","m6yd0f2ep2kgvp5",173,"194.csv","","435.90000000596046","resources/trios/L1T2A2.jpg","37","restless",0.5,0.3,0.3,0.439791570182491,"true"
"image-keyboard-response",252,226980,"0.0-3.80-1.80","m6yd0f2ep2kgvp5",173,"194.csv","","null","resources/maskTrios/L1BB.jpg","null","",NA,NA,NA,NA,""
"image-keyboard-response",253,228188,"0.0-3.80-2.80","m6yd0f2ep2kgvp5",173,"194.csv","","null","resources/images/coin2.png","null","",NA,NA,NA,NA,""
"image-keyboard-response",254,228566,"0.0-3.81-0.81","m6yd0f2ep2kgvp5",173,"194.csv","","375.19999998807907","resources/trios/L1T1A3.jpg","37","restless",0.5,0.3,0.3,0.443356310468057,"true"
"image-keyboard-response",255,228974,"0.0-3.81-1.81","m6yd0f2ep2kgvp5",173,"194.csv","","null","resources/maskTrios/L1BB.jpg","null","",NA,NA,NA,NA,""
"image-keyboard-response",256,230181,"0.0-3.81-2.81","m6yd0f2ep2kgvp5",173,"194.csv","","null","resources/images/coin2.png","null","",NA,NA,NA,NA,""
"image-keyboard-response",257,230640,"0.0-3.82-0.82","m6yd0f2ep2kgvp5",173,"194.csv","","456.69999998807907","resources/trios/L1T1A2.jpg","37","restless",0.5,0.3,0.3,0.912142273227937,"false"
"image-keyboard-response",258,231044,"0.0-3.82-1.82","m6yd0f2ep2kgvp5",173,"194.csv","","null","resources/maskTrios/L1BB.jpg","null","",NA,NA,NA,NA,""
"image-keyboard-response",259,232252,"0.0-3.82-2.82","m6yd0f2ep2kgvp5",173,"194.csv","","null","resources/images/fishbone.png","null","",NA,NA,NA,NA,""
"image-keyboard-response",260,234208,"0.0-3.83-0.83","m6yd0f2ep2kgvp5",173,"194.csv","","1953.5","resources/trios/L4T2A3.jpg","38","restless",0.5,0.3,0.4,0.906783523903401,"false"
"image-keyboard-response",261,234616,"0.0-3.83-1.83","m6yd0f2ep2kgvp5",173,"194.csv","","null","resources/maskTrios/BT2B.jpg","null","",NA,NA,NA,NA,""
"image-keyboard-response",262,235823,"0.0-3.83-2.83","m6yd0f2ep2kgvp5",173,"194.csv","","null","resources/images/fishbone.png","null","",NA,NA,NA,NA,""
"image-keyboard-response",263,236315,"0.0-3.84-0.84","m6yd0f2ep2kgvp5",173,"194.csv","","489.40000000596046","resources/trios/L1T1A2.jpg","39","restless",0.5,0.3,0.4,0.0994035140589657,"true"
"image-keyboard-response",264,236722,"0.0-3.84-1.84","m6yd0f2ep2kgvp5",173,"194.csv","","null","resources/maskTrios/BBA2.jpg","null","",NA,NA,NA,NA,""
"image-keyboard-response",265,237926,"0.0-3.84-2.84","m6yd0f2ep2kgvp5",173,"194.csv","","null","resources/images/coin2.png","null","",NA,NA,NA,NA,""
"image-keyboard-response",266,239881,"0.0-3.85-0.85","m6yd0f2ep2kgvp5",173,"194.csv","","1952.2999999821186","resources/trios/L4T1A2.jpg","39","restless",0.5,0.3,0.4,0.527291825776434,"false"
"image-keyboard-response",267,240285,"0.0-3.85-1.85","m6yd0f2ep2kgvp5",173,"194.csv","","null","resources/maskTrios/BBA2.jpg","null","",NA,NA,NA,NA,""
"image-keyboard-response",268,241492,"0.0-3.85-2.85","m6yd0f2ep2kgvp5",173,"194.csv","","null","resources/images/fishbone.png","null","",NA,NA,NA,NA,""
"image-keyboard-response",269,241899,"0.0-3.86-0.86","m6yd0f2ep2kgvp5",173,"194.csv","","404.69999998807907","resources/trios/L4T2A3.jpg","38","restless",0.4,0.3,0.5,0.952566144072066,"false"
"image-keyboard-response",270,242303,"0.0-3.86-1.86","m6yd0f2ep2kgvp5",173,"194.csv","","null","resources/maskTrios/BT2B.jpg","null","",NA,NA,NA,NA,""
"image-keyboard-response",271,243510,"0.0-3.86-2.86","m6yd0f2ep2kgvp5",173,"194.csv","","null","resources/images/fishbone.png","null","",NA,NA,NA,NA,""
"image-keyboard-response",272,243820,"0.0-3.87-0.87","m6yd0f2ep2kgvp5",173,"194.csv","","306.59999999403954","resources/trios/L1T2A2.jpg","37","restless",0.4,0.3,0.6,0.803539038599605,"false"
"image-keyboard-response",273,244223,"0.0-3.87-1.87","m6yd0f2ep2kgvp5",173,"194.csv","","null","resources/maskTrios/L1BB.jpg","null","",NA,NA,NA,NA,""
"image-keyboard-response",274,245427,"0.0-3.87-2.87","m6yd0f2ep2kgvp5",173,"194.csv","","null","resources/images/fishbone.png","null","",NA,NA,NA,NA,""
"image-keyboard-response",275,245902,"0.0-3.88-0.88","m6yd0f2ep2kgvp5",173,"194.csv","","471.59999999403954","resources/trios/L4T2A3.jpg","39","restless",0.4,0.3,0.6,0.1026197995414,"true"
"image-keyboard-response",276,246310,"0.0-3.88-1.88","m6yd0f2ep2kgvp5",173,"194.csv","","null","resources/maskTrios/BBA3.jpg","null","",NA,NA,NA,NA,""
"image-keyboard-response",277,247515,"0.0-3.88-2.88","m6yd0f2ep2kgvp5",173,"194.csv","","null","resources/images/coin2.png","null","",NA,NA,NA,NA,""
"image-keyboard-response",278,247905,"0.0-3.89-0.89","m6yd0f2ep2kgvp5",173,"194.csv","","387.30000001192093","resources/trios/L1T2A3.jpg","39","restless",0.4,0.4,0.6,0.610166734219893,"false"
"image-keyboard-response",279,248312,"0.0-3.89-1.89","m6yd0f2ep2kgvp5",173,"194.csv","","null","resources/maskTrios/BBA3.jpg","null","",NA,NA,NA,NA,""
"image-keyboard-response",280,249516,"0.0-3.89-2.89","m6yd0f2ep2kgvp5",173,"194.csv","","null","resources/images/fishbone.png","null","",NA,NA,NA,NA,""
"image-keyboard-response",281,249900,"0.0-3.90-0.90","m6yd0f2ep2kgvp5",173,"194.csv","","380.60000002384186","resources/trios/L1T1A3.jpg","38","restless",0.4,0.3,0.6,0.377984731777907,"false"
"image-keyboard-response",282,250303,"0.0-3.90-1.90","m6yd0f2ep2kgvp5",173,"194.csv","","null","resources/maskTrios/BT1B.jpg","null","",NA,NA,NA,NA,""
"image-keyboard-response",283,251511,"0.0-3.90-2.90","m6yd0f2ep2kgvp5",173,"194.csv","","null","resources/images/fishbone.png","null","",NA,NA,NA,NA,""
"image-keyboard-response",284,251650,"0.0-3.91-0.91","m6yd0f2ep2kgvp5",173,"194.csv","","136.7999999821186","resources/trios/L1T2A3.jpg","37","restless",0.4,0.3,0.5,0.860213478927106,"false"
"image-keyboard-response",285,252057,"0.0-3.91-1.91","m6yd0f2ep2kgvp5",173,"194.csv","","null","resources/maskTrios/L1BB.jpg","null","",NA,NA,NA,NA,""
"image-keyboard-response",286,253265,"0.0-3.91-2.91","m6yd0f2ep2kgvp5",173,"194.csv","","null","resources/images/fishbone.png","null","",NA,NA,NA,NA,""
"image-keyboard-response",287,253270,"0.0-3.92-0.92","m6yd0f2ep2kgvp5",173,"194.csv","","1.7999999821186066","resources/trios/L1T1A3.jpg","38","restless",0.5,0.3,0.5,0.723136692230643,"false"
"image-keyboard-response",288,253674,"0.0-3.92-1.92","m6yd0f2ep2kgvp5",173,"194.csv","","null","resources/maskTrios/BT1B.jpg","null","",NA,NA,NA,NA,""
"image-keyboard-response",289,254882,"0.0-3.92-2.92","m6yd0f2ep2kgvp5",173,"194.csv","","null","resources/images/fishbone.png","null","",NA,NA,NA,NA,""
"image-keyboard-response",290,255320,"0.0-3.93-0.93","m6yd0f2ep2kgvp5",173,"194.csv","","435.2999999821186","resources/trios/L1T1A2.jpg","39","restless",0.6,0.3,0.5,0.84475828455328,"false"
"image-keyboard-response",291,255728,"0.0-3.93-1.93","m6yd0f2ep2kgvp5",173,"194.csv","","null","resources/maskTrios/BBA2.jpg","null","",NA,NA,NA,NA,""
"image-keyboard-response",292,256935,"0.0-3.93-2.93","m6yd0f2ep2kgvp5",173,"194.csv","","null","resources/images/fishbone.png","null","",NA,NA,NA,NA,""
"image-keyboard-response",293,257238,"0.0-3.94-0.94","m6yd0f2ep2kgvp5",173,"194.csv","","299.7999999821186","resources/trios/L4T2A2.jpg","38","restless",0.6,0.3,0.5,0.447833540839594,"false"
"image-keyboard-response",294,257646,"0.0-3.94-1.94","m6yd0f2ep2kgvp5",173,"194.csv","","null","resources/maskTrios/BT2B.jpg","null","",NA,NA,NA,NA,""
"image-keyboard-response",295,258854,"0.0-3.94-2.94","m6yd0f2ep2kgvp5",173,"194.csv","","null","resources/images/fishbone.png","null","",NA,NA,NA,NA,""
"image-keyboard-response",296,259142,"0.0-3.95-0.95","m6yd0f2ep2kgvp5",173,"194.csv","","285.90000000596046","resources/trios/L4T1A3.jpg","37","restless",0.6,0.2,0.5,0.0223149829110678,"true"
"image-keyboard-response",297,259546,"0.0-3.95-1.95","m6yd0f2ep2kgvp5",173,"194.csv","","null","resources/maskTrios/L4BB.jpg","null","",NA,NA,NA,NA,""
"image-keyboard-response",298,260754,"0.0-3.95-2.95","m6yd0f2ep2kgvp5",173,"194.csv","","null","resources/images/coin2.png","null","",NA,NA,NA,NA,""
"image-keyboard-response",299,261226,"0.0-3.96-0.96","m6yd0f2ep2kgvp5",173,"194.csv","","469.30000001192093","resources/trios/L4T1A3.jpg","37","restless",0.6,0.2,0.5,0.156279551800747,"true"
"image-keyboard-response",300,261633,"0.0-3.96-1.96","m6yd0f2ep2kgvp5",173,"194.csv","","null","resources/maskTrios/L4BB.jpg","null","",NA,NA,NA,NA,""
"image-keyboard-response",301,262838,"0.0-3.96-2.96","m6yd0f2ep2kgvp5",173,"194.csv","","null","resources/images/coin2.png","null","",NA,NA,NA,NA,""
"image-keyboard-response",302,263254,"0.0-3.97-0.97","m6yd0f2ep2kgvp5",173,"194.csv","","413.40000000596046","resources/trios/L1T2A3.jpg","37","restless",0.6,0.2,0.5,0.471172006453907,"true"
"image-keyboard-response",303,263662,"0.0-3.97-1.97","m6yd0f2ep2kgvp5",173,"194.csv","","null","resources/maskTrios/L1BB.jpg","null","",NA,NA,NA,NA,""
"image-keyboard-response",304,264867,"0.0-3.97-2.97","m6yd0f2ep2kgvp5",173,"194.csv","","null","resources/images/coin2.png","null","",NA,NA,NA,NA,""
"image-keyboard-response",305,265202,"0.0-3.98-0.98","m6yd0f2ep2kgvp5",173,"194.csv","","332","resources/trios/L4T1A2.jpg","37","restless",0.6,0.2,0.5,0.237220726215255,"true"
"image-keyboard-response",306,265610,"0.0-3.98-1.98","m6yd0f2ep2kgvp5",173,"194.csv","","null","resources/maskTrios/L4BB.jpg","null","",NA,NA,NA,NA,""
"image-keyboard-response",307,266816,"0.0-3.98-2.98","m6yd0f2ep2kgvp5",173,"194.csv","","null","resources/images/coin2.png","null","",NA,NA,NA,NA,""
"image-keyboard-response",308,267052,"0.0-3.99-0.99","m6yd0f2ep2kgvp5",173,"194.csv","","233.40000000596046","resources/trios/L1T1A2.jpg","37","restless",0.6,0.2,0.5,0.082222385089235,"true"
"image-keyboard-response",309,267457,"0.0-3.99-1.99","m6yd0f2ep2kgvp5",173,"194.csv","","null","resources/maskTrios/L1BB.jpg","null","",NA,NA,NA,NA,""
"image-keyboard-response",310,268665,"0.0-3.99-2.99","m6yd0f2ep2kgvp5",173,"194.csv","","null","resources/images/coin2.png","null","",NA,NA,NA,NA,""
"image-keyboard-response",311,268798,"0.0-3.100-0.100","m6yd0f2ep2kgvp5",173,"194.csv","","130.2000000178814","resources/trios/L4T2A3.jpg","37","restless",0.6,0.2,0.5,0.478426923934423,"true"
"image-keyboard-response",312,269206,"0.0-3.100-1.100","m6yd0f2ep2kgvp5",173,"194.csv","","null","resources/maskTrios/L4BB.jpg","null","",NA,NA,NA,NA,""
"image-keyboard-response",313,270414,"0.0-3.100-2.100","m6yd0f2ep2kgvp5",173,"194.csv","","null","resources/images/coin2.png","null","",NA,NA,NA,NA,""
"image-keyboard-response",314,270440,"0.0-3.101-0.101","m6yd0f2ep2kgvp5",173,"194.csv","","24","resources/trios/L4T1A3.jpg","37","restless",0.6,0.2,0.5,0.95163396761675,"false"
"image-keyboard-response",315,270847,"0.0-3.101-1.101","m6yd0f2ep2kgvp5",173,"194.csv","","null","resources/maskTrios/L4BB.jpg","null","",NA,NA,NA,NA,""
"image-keyboard-response",316,272055,"0.0-3.101-2.101","m6yd0f2ep2kgvp5",173,"194.csv","","null","resources/images/fishbone.png","null","",NA,NA,NA,NA,""
"image-keyboard-response",317,272601,"0.0-3.102-0.102","m6yd0f2ep2kgvp5",173,"194.csv","","543.1000000238419","resources/trios/L1T2A2.jpg","38","restless",0.6,0.2,0.4,0.0100490807730296,"true"
"image-keyboard-response",318,273004,"0.0-3.102-1.102","m6yd0f2ep2kgvp5",173,"194.csv","","null","resources/maskTrios/BT2B.jpg","null","",NA,NA,NA,NA,""
"image-keyboard-response",319,274211,"0.0-3.102-2.102","m6yd0f2ep2kgvp5",173,"194.csv","","null","resources/images/coin2.png","null","",NA,NA,NA,NA,""
"image-keyboard-response",320,274734,"0.0-3.103-0.103","m6yd0f2ep2kgvp5",173,"194.csv","","520.1000000238419","resources/trios/L4T1A2.jpg","38","restless",0.6,0.2,0.4,0.888902788119273,"false"
"image-keyboard-response",321,275141,"0.0-3.103-1.103","m6yd0f2ep2kgvp5",173,"194.csv","","null","resources/maskTrios/BT1B.jpg","null","",NA,NA,NA,NA,""
"image-keyboard-response",322,276348,"0.0-3.103-2.103","m6yd0f2ep2kgvp5",173,"194.csv","","null","resources/images/fishbone.png","null","",NA,NA,NA,NA,""
"image-keyboard-response",323,276747,"0.0-3.104-0.104","m6yd0f2ep2kgvp5",173,"194.csv","","396.60000002384186","resources/trios/L4T2A3.jpg","39","restless",0.6,0.2,0.4,0.0970548982789141,"true"
"image-keyboard-response",324,277154,"0.0-3.104-1.104","m6yd0f2ep2kgvp5",173,"194.csv","","null","resources/maskTrios/BBA3.jpg","null","",NA,NA,NA,NA,""
"image-keyboard-response",325,278357,"0.0-3.104-2.104","m6yd0f2ep2kgvp5",173,"194.csv","","null","resources/images/coin2.png","null","",NA,NA,NA,NA,""
"image-keyboard-response",326,278753,"0.0-3.105-0.105","m6yd0f2ep2kgvp5",173,"194.csv","","393.5","resources/trios/L4T2A2.jpg","39","restless",0.6,0.2,0.4,0.465686058116815,"false"
"image-keyboard-response",327,279161,"0.0-3.105-1.105","m6yd0f2ep2kgvp5",173,"194.csv","","null","resources/maskTrios/BBA2.jpg","null","",NA,NA,NA,NA,""
"image-keyboard-response",328,280368,"0.0-3.105-2.105","m6yd0f2ep2kgvp5",173,"194.csv","","null","resources/images/fishbone.png","null","",NA,NA,NA,NA,""
"image-keyboard-response",329,280721,"0.0-3.106-0.106","m6yd0f2ep2kgvp5",173,"194.csv","","351","resources/trios/L4T1A2.jpg","38","restless",0.6,0.2,0.4,0.701002383820921,"false"
"image-keyboard-response",330,281127,"0.0-3.106-1.106","m6yd0f2ep2kgvp5",173,"194.csv","","null","resources/maskTrios/BT1B.jpg","null","",NA,NA,NA,NA,""
"image-keyboard-response",331,282334,"0.0-3.106-2.106","m6yd0f2ep2kgvp5",173,"194.csv","","null","resources/images/fishbone.png","null","",NA,NA,NA,NA,""
"image-keyboard-response",332,282740,"0.0-3.107-0.107","m6yd0f2ep2kgvp5",173,"194.csv","","403.2999999821186","resources/trios/L4T2A3.jpg","37","restless",0.6,0.2,0.4,0.31843024255601,"true"
"image-keyboard-response",333,283148,"0.0-3.107-1.107","m6yd0f2ep2kgvp5",173,"194.csv","","null","resources/maskTrios/L4BB.jpg","null","",NA,NA,NA,NA,""
"image-keyboard-response",334,284352,"0.0-3.107-2.107","m6yd0f2ep2kgvp5",173,"194.csv","","null","resources/images/coin2.png","null","",NA,NA,NA,NA,""
"image-keyboard-response",335,284707,"0.0-3.108-0.108","m6yd0f2ep2kgvp5",173,"194.csv","","351.59999999403954","resources/trios/L1T2A3.jpg","37","restless",0.6,0.3,0.4,0.378367682041005,"true"
"image-keyboard-response",336,285113,"0.0-3.108-1.108","m6yd0f2ep2kgvp5",173,"194.csv","","null","resources/maskTrios/L1BB.jpg","null","",NA,NA,NA,NA,""
"image-keyboard-response",337,286321,"0.0-3.108-2.108","m6yd0f2ep2kgvp5",173,"194.csv","","null","resources/images/coin2.png","null","",NA,NA,NA,NA,""
"image-keyboard-response",338,286934,"0.0-3.109-0.109","m6yd0f2ep2kgvp5",173,"194.csv","","608.6999999880791","resources/trios/L4T2A2.jpg","37","restless",0.6,0.3,0.4,0.211997388063247,"true"
"image-keyboard-response",339,287338,"0.0-3.109-1.109","m6yd0f2ep2kgvp5",173,"194.csv","","null","resources/maskTrios/L4BB.jpg","null","",NA,NA,NA,NA,""
"image-keyboard-response",340,288545,"0.0-3.109-2.109","m6yd0f2ep2kgvp5",173,"194.csv","","null","resources/images/coin2.png","null","",NA,NA,NA,NA,""
"image-keyboard-response",341,289055,"0.0-3.110-0.110","m6yd0f2ep2kgvp5",173,"194.csv","","506.80000001192093","resources/trios/L1T2A2.jpg","37","restless",0.6,0.3,0.4,0.318519151975394,"true"
"image-keyboard-response",342,289460,"0.0-3.110-1.110","m6yd0f2ep2kgvp5",173,"194.csv","","null","resources/maskTrios/L1BB.jpg","null","",NA,NA,NA,NA,""
"image-keyboard-response",343,290668,"0.0-3.110-2.110","m6yd0f2ep2kgvp5",173,"194.csv","","null","resources/images/coin2.png","null","",NA,NA,NA,NA,""
"image-keyboard-response",344,291070,"0.0-3.111-0.111","m6yd0f2ep2kgvp5",173,"194.csv","","398.90000000596046","resources/trios/L1T1A3.jpg","37","restless",0.6,0.3,0.4,0.492565450097402,"true"
"image-keyboard-response",345,291477,"0.0-3.111-1.111","m6yd0f2ep2kgvp5",173,"194.csv","","null","resources/maskTrios/L1BB.jpg","null","",NA,NA,NA,NA,""
"image-keyboard-response",346,292681,"0.0-3.111-2.111","m6yd0f2ep2kgvp5",173,"194.csv","","null","resources/images/coin2.png","null","",NA,NA,NA,NA,""
"image-keyboard-response",347,292958,"0.0-3.112-0.112","m6yd0f2ep2kgvp5",173,"194.csv","","275.59999999403954","resources/trios/L4T1A3.jpg","37","restless",0.6,0.3,0.4,0.201422646073017,"true"
"image-keyboard-response",348,293366,"0.0-3.112-1.112","m6yd0f2ep2kgvp5",173,"194.csv","","null","resources/maskTrios/L4BB.jpg","null","",NA,NA,NA,NA,""
"image-keyboard-response",349,294573,"0.0-3.112-2.112","m6yd0f2ep2kgvp5",173,"194.csv","","null","resources/images/coin2.png","null","",NA,NA,NA,NA,""
"image-keyboard-response",350,295142,"0.0-3.113-0.113","m6yd0f2ep2kgvp5",173,"194.csv","","566.1999999880791","resources/trios/L4T2A2.jpg","37","restless",0.6,0.3,0.4,0.899683881217995,"false"
"image-keyboard-response",351,295551,"0.0-3.113-1.113","m6yd0f2ep2kgvp5",173,"194.csv","","null","resources/maskTrios/L4BB.jpg","null","",NA,NA,NA,NA,""
"image-keyboard-response",352,296758,"0.0-3.113-2.113","m6yd0f2ep2kgvp5",173,"194.csv","","null","resources/images/fishbone.png","null","",NA,NA,NA,NA,""
"image-keyboard-response",353,296836,"0.0-3.114-0.114","m6yd0f2ep2kgvp5",173,"194.csv","","75","resources/trios/L4T2A2.jpg","38","restless",0.6,0.3,0.4,0.879701692052562,"false"
"image-keyboard-response",354,297243,"0.0-3.114-1.114","m6yd0f2ep2kgvp5",173,"194.csv","","null","resources/maskTrios/BT2B.jpg","null","",NA,NA,NA,NA,""
"image-keyboard-response",355,298449,"0.0-3.114-2.114","m6yd0f2ep2kgvp5",173,"194.csv","","null","resources/images/fishbone.png","null","",NA,NA,NA,NA,""
"image-keyboard-response",356,298946,"0.0-3.115-0.115","m6yd0f2ep2kgvp5",173,"194.csv","","494.40000000596046","resources/trios/L1T2A2.jpg","39","restless",0.5,0.3,0.4,0.279059590120912,"true"
"image-keyboard-response",357,299353,"0.0-3.115-1.115","m6yd0f2ep2kgvp5",173,"194.csv","","null","resources/maskTrios/BBA2.jpg","null","",NA,NA,NA,NA,""
"image-keyboard-response",358,300561,"0.0-3.115-2.115","m6yd0f2ep2kgvp5",173,"194.csv","","null","resources/images/coin2.png","null","",NA,NA,NA,NA,""
"image-keyboard-response",359,300828,"0.0-3.116-0.116","m6yd0f2ep2kgvp5",173,"194.csv","","266.40000000596046","resources/trios/L1T2A3.jpg","39","restless",0.5,0.3,0.4,0.54210312214755,"false"
"image-keyboard-response",360,301234,"0.0-3.116-1.116","m6yd0f2ep2kgvp5",173,"194.csv","","null","resources/maskTrios/BBA3.jpg","null","",NA,NA,NA,NA,""
"image-keyboard-response",361,302441,"0.0-3.116-2.116","m6yd0f2ep2kgvp5",173,"194.csv","","null","resources/images/fishbone.png","null","",NA,NA,NA,NA,""
"image-keyboard-response",362,302780,"0.0-3.117-0.117","m6yd0f2ep2kgvp5",173,"194.csv","","335.19999998807907","resources/trios/L1T1A2.jpg","38","restless",0.5,0.3,0.3,0.941047550018712,"false"
"image-keyboard-response",363,303184,"0.0-3.117-1.117","m6yd0f2ep2kgvp5",173,"194.csv","","null","resources/maskTrios/BT1B.jpg","null","",NA,NA,NA,NA,""
"image-keyboard-response",364,304388,"0.0-3.117-2.117","m6yd0f2ep2kgvp5",173,"194.csv","","null","resources/images/fishbone.png","null","",NA,NA,NA,NA,""
"image-keyboard-response",365,304869,"0.0-3.118-0.118","m6yd0f2ep2kgvp5",173,"194.csv","","478.7999999821186","resources/trios/L1T1A3.jpg","37","restless",0.4,0.3,0.3,0.156075660062845,"true"
"image-keyboard-response",366,305277,"0.0-3.118-1.118","m6yd0f2ep2kgvp5",173,"194.csv","","null","resources/maskTrios/L1BB.jpg","null","",NA,NA,NA,NA,""
"image-keyboard-response",367,306481,"0.0-3.118-2.118","m6yd0f2ep2kgvp5",173,"194.csv","","null","resources/images/coin2.png","null","",NA,NA,NA,NA,""
"image-keyboard-response",368,306514,"0.0-3.119-0.119","m6yd0f2ep2kgvp5",173,"194.csv","","30.5","resources/trios/L4T2A3.jpg","37","restless",0.4,0.3,0.3,0.51514854972298,"false"
"image-keyboard-response",369,306921,"0.0-3.119-1.119","m6yd0f2ep2kgvp5",173,"194.csv","","null","resources/maskTrios/L4BB.jpg","null","",NA,NA,NA,NA,""
"image-keyboard-response",370,308128,"0.0-3.119-2.119","m6yd0f2ep2kgvp5",173,"194.csv","","null","resources/images/fishbone.png","null","",NA,NA,NA,NA,""
"image-keyboard-response",371,308504,"0.0-3.120-0.120","m6yd0f2ep2kgvp5",173,"194.csv","","373.19999998807907","resources/trios/L1T2A2.jpg","38","restless",0.4,0.3,0.3,0.439398384239049,"false"
"image-keyboard-response",372,308912,"0.0-3.120-1.120","m6yd0f2ep2kgvp5",173,"194.csv","","null","resources/maskTrios/BT2B.jpg","null","",NA,NA,NA,NA,""
"image-keyboard-response",373,310119,"0.0-3.120-2.120","m6yd0f2ep2kgvp5",173,"194.csv","","null","resources/images/fishbone.png","null","",NA,NA,NA,NA,""
"image-keyboard-response",374,310470,"0.0-3.121-0.121","m6yd0f2ep2kgvp5",173,"194.csv","","347.59999999403954","resources/trios/L1T1A3.jpg","39","restless",0.4,0.4,0.3,0.833411566459584,"false"
"image-keyboard-response",375,310874,"0.0-3.121-1.121","m6yd0f2ep2kgvp5",173,"194.csv","","null","resources/maskTrios/BBA3.jpg","null","",NA,NA,NA,NA,""
"image-keyboard-response",376,312081,"0.0-3.121-2.121","m6yd0f2ep2kgvp5",173,"194.csv","","null","resources/images/fishbone.png","null","",NA,NA,NA,NA,""
"image-keyboard-response",377,312457,"0.0-3.122-0.122","m6yd0f2ep2kgvp5",173,"194.csv","","373.5","resources/trios/L4T1A2.jpg","39","restless",0.4,0.4,0.3,0.751219262806641,"false"
"image-keyboard-response",378,312865,"0.0-3.122-1.122","m6yd0f2ep2kgvp5",173,"194.csv","","null","resources/maskTrios/BBA2.jpg","null","",NA,NA,NA,NA,""
"image-keyboard-response",379,314072,"0.0-3.122-2.122","m6yd0f2ep2kgvp5",173,"194.csv","","null","resources/images/fishbone.png","null","",NA,NA,NA,NA,""
"image-keyboard-response",380,314334,"0.0-3.123-0.123","m6yd0f2ep2kgvp5",173,"194.csv","","259","resources/trios/L4T2A3.jpg","38","restless",0.4,0.4,0.2,0.997268159345895,"false"
"image-keyboard-response",381,314742,"0.0-3.123-1.123","m6yd0f2ep2kgvp5",173,"194.csv","","null","resources/maskTrios/BT2B.jpg","null","",NA,NA,NA,NA,""
"image-keyboard-response",382,315949,"0.0-3.123-2.123","m6yd0f2ep2kgvp5",173,"194.csv","","null","resources/images/fishbone.png","null","",NA,NA,NA,NA,""
"image-keyboard-response",383,316303,"0.0-3.124-0.124","m6yd0f2ep2kgvp5",173,"194.csv","","350.69999998807907","resources/trios/L1T2A3.jpg","37","restless",0.4,0.4,0.2,0.0127346390990599,"true"
"image-keyboard-response",384,316706,"0.0-3.124-1.124","m6yd0f2ep2kgvp5",173,"194.csv","","null","resources/maskTrios/L1BB.jpg","null","",NA,NA,NA,NA,""
"image-keyboard-response",385,317914,"0.0-3.124-2.124","m6yd0f2ep2kgvp5",173,"194.csv","","null","resources/images/coin2.png","null","",NA,NA,NA,NA,""
"image-keyboard-response",386,318246,"0.0-3.125-0.125","m6yd0f2ep2kgvp5",173,"194.csv","","329.30000001192093","resources/trios/L4T2A3.jpg","37","restless",0.4,0.4,0.2,0.266469695503031,"true"
"image-keyboard-response",387,318649,"0.0-3.125-1.125","m6yd0f2ep2kgvp5",173,"194.csv","","null","resources/maskTrios/L4BB.jpg","null","",NA,NA,NA,NA,""
"image-keyboard-response",388,319857,"0.0-3.125-2.125","m6yd0f2ep2kgvp5",173,"194.csv","","null","resources/images/coin2.png","null","",NA,NA,NA,NA,""
"image-keyboard-response",389,320169,"0.0-3.126-0.126","m6yd0f2ep2kgvp5",173,"194.csv","","309","resources/trios/L4T1A2.jpg","37","restless",0.4,0.4,0.2,0.54003670407348,"false"
"image-keyboard-response",390,320576,"0.0-3.126-1.126","m6yd0f2ep2kgvp5",173,"194.csv","","null","resources/maskTrios/L4BB.jpg","null","",NA,NA,NA,NA,""
"image-keyboard-response",391,321784,"0.0-3.126-2.126","m6yd0f2ep2kgvp5",173,"194.csv","","null","resources/images/fishbone.png","null","",NA,NA,NA,NA,""
"image-keyboard-response",392,322044,"0.0-3.127-0.127","m6yd0f2ep2kgvp5",173,"194.csv","","257.30000001192093","resources/trios/L1T1A2.jpg","38","restless",0.4,0.4,0.2,0.255879719295928,"true"
"image-keyboard-response",393,322452,"0.0-3.127-1.127","m6yd0f2ep2kgvp5",173,"194.csv","","null","resources/maskTrios/BT1B.jpg","null","",NA,NA,NA,NA,""
"image-keyboard-response",394,323660,"0.0-3.127-2.127","m6yd0f2ep2kgvp5",173,"194.csv","","null","resources/images/coin2.png","null","",NA,NA,NA,NA,""
"image-keyboard-response",395,323918,"0.0-3.128-0.128","m6yd0f2ep2kgvp5",173,"194.csv","","255.30000001192093","resources/trios/L1T2A3.jpg","38","restless",0.3,0.4,0.2,0.174032023450748,"true"
"image-keyboard-response",396,324326,"0.0-3.128-1.128","m6yd0f2ep2kgvp5",173,"194.csv","","null","resources/maskTrios/BT2B.jpg","null","",NA,NA,NA,NA,""
"image-keyboard-response",397,325533,"0.0-3.128-2.128","m6yd0f2ep2kgvp5",173,"194.csv","","null","resources/images/coin2.png","null","",NA,NA,NA,NA,""
"image-keyboard-response",398,325632,"0.0-3.129-0.129","m6yd0f2ep2kgvp5",173,"194.csv","","96.09999999403954","resources/trios/L4T1A3.jpg","38","restless",0.3,0.4,0.2,0.555770086675766,"false"
"image-keyboard-response",399,326034,"0.0-3.129-1.129","m6yd0f2ep2kgvp5",173,"194.csv","","null","resources/maskTrios/BT1B.jpg","null","",NA,NA,NA,NA,""
"image-keyboard-response",400,327241,"0.0-3.129-2.129","m6yd0f2ep2kgvp5",173,"194.csv","","null","resources/images/fishbone.png","null","",NA,NA,NA,NA,""
"image-keyboard-response",401,327431,"0.0-3.130-0.130","m6yd0f2ep2kgvp5",173,"194.csv","","186.80000001192093","resources/trios/L4T1A2.jpg","39","restless",0.3,0.4,0.2,0.0587851344405521,"true"
"image-keyboard-response",402,327837,"0.0-3.130-1.130","m6yd0f2ep2kgvp5",173,"194.csv","","null","resources/maskTrios/BBA2.jpg","null","",NA,NA,NA,NA,""
"image-keyboard-response",403,329044,"0.0-3.130-2.130","m6yd0f2ep2kgvp5",173,"194.csv","","null","resources/images/coin2.png","null","",NA,NA,NA,NA,""
"image-keyboard-response",404,329608,"0.0-3.131-0.131","m6yd0f2ep2kgvp5",173,"194.csv","","561.2000000178814","resources/trios/L1T1A3.jpg","39","restless",0.4,0.4,0.2,0.626368164229897,"false"
"image-keyboard-response",405,330016,"0.0-3.131-1.131","m6yd0f2ep2kgvp5",173,"194.csv","","null","resources/maskTrios/BBA3.jpg","null","",NA,NA,NA,NA,""
"image-keyboard-response",406,331223,"0.0-3.131-2.131","m6yd0f2ep2kgvp5",173,"194.csv","","null","resources/images/fishbone.png","null","",NA,NA,NA,NA,""
"image-keyboard-response",407,331956,"0.0-3.132-0.132","m6yd0f2ep2kgvp5",173,"194.csv","","730.1000000238419","resources/trios/L1T1A3.jpg","39","restless",0.5,0.4,0.2,0.105338681736898,"true"
"image-keyboard-response",408,332363,"0.0-3.132-1.132","m6yd0f2ep2kgvp5",173,"194.csv","","null","resources/maskTrios/BBA3.jpg","null","",NA,NA,NA,NA,""
"image-keyboard-response",409,333567,"0.0-3.132-2.132","m6yd0f2ep2kgvp5",173,"194.csv","","null","resources/images/coin2.png","null","",NA,NA,NA,NA,""
"image-keyboard-response",410,334147,"0.0-3.133-0.133","m6yd0f2ep2kgvp5",173,"194.csv","","577.5999999940395","resources/trios/L1T2A3.jpg","39","restless",0.5,0.4,0.2,0.297831696764239,"false"
"image-keyboard-response",411,334555,"0.0-3.133-1.133","m6yd0f2ep2kgvp5",173,"194.csv","","null","resources/maskTrios/BBA3.jpg","null","",NA,NA,NA,NA,""
"image-keyboard-response",412,335762,"0.0-3.133-2.133","m6yd0f2ep2kgvp5",173,"194.csv","","null","resources/images/fishbone.png","null","",NA,NA,NA,NA,""
"image-keyboard-response",413,336144,"0.0-3.134-0.134","m6yd0f2ep2kgvp5",173,"194.csv","","378.69999998807907","resources/trios/L1T2A3.jpg","38","restless",0.5,0.4,0.2,0.0371520904214944,"true"
"image-keyboard-response",414,336548,"0.0-3.134-1.134","m6yd0f2ep2kgvp5",173,"194.csv","","null","resources/maskTrios/BT2B.jpg","null","",NA,NA,NA,NA,""
"image-keyboard-response",415,337752,"0.0-3.134-2.134","m6yd0f2ep2kgvp5",173,"194.csv","","null","resources/images/coin2.png","null","",NA,NA,NA,NA,""
"image-keyboard-response",416,338772,"0.0-3.135-0.135","m6yd0f2ep2kgvp5",173,"194.csv","","1017.1999999880791","resources/trios/L4T1A3.jpg","38","restless",0.5,0.4,0.2,0.946023005584989,"false"
"image-keyboard-response",417,339179,"0.0-3.135-1.135","m6yd0f2ep2kgvp5",173,"194.csv","","null","resources/maskTrios/BT1B.jpg","null","",NA,NA,NA,NA,""
"image-keyboard-response",418,340382,"0.0-3.135-2.135","m6yd0f2ep2kgvp5",173,"194.csv","","null","resources/images/fishbone.png","null","",NA,NA,NA,NA,""
"image-keyboard-response",419,341355,"0.0-3.136-0.136","m6yd0f2ep2kgvp5",173,"194.csv","","970.1999999880791","resources/trios/L1T2A3.jpg","37","restless",0.5,0.4,0.2,0.565912768814131,"false"
"image-keyboard-response",420,341760,"0.0-3.136-1.136","m6yd0f2ep2kgvp5",173,"194.csv","","null","resources/maskTrios/L1BB.jpg","null","",NA,NA,NA,NA,""
"image-keyboard-response",421,342968,"0.0-3.136-2.136","m6yd0f2ep2kgvp5",173,"194.csv","","null","resources/images/fishbone.png","null","",NA,NA,NA,NA,""
"image-keyboard-response",422,343266,"0.0-3.137-0.137","m6yd0f2ep2kgvp5",173,"194.csv","","294.69999998807907","resources/trios/L1T2A3.jpg","38","restless",0.5,0.4,0.2,0.0130179614972037,"true"
"image-keyboard-response",423,343670,"0.0-3.137-1.137","m6yd0f2ep2kgvp5",173,"194.csv","","null","resources/maskTrios/BT2B.jpg","null","",NA,NA,NA,NA,""
"image-keyboard-response",424,344874,"0.0-3.137-2.137","m6yd0f2ep2kgvp5",173,"194.csv","","null","resources/images/coin2.png","null","",NA,NA,NA,NA,""
"image-keyboard-response",425,345219,"0.0-3.138-0.138","m6yd0f2ep2kgvp5",173,"194.csv","","342.19999998807907","resources/trios/L1T2A2.jpg","38","restless",0.5,0.4,0.2,0.335010580678759,"true"
"image-keyboard-response",426,345626,"0.0-3.138-1.138","m6yd0f2ep2kgvp5",173,"194.csv","","null","resources/maskTrios/BT2B.jpg","null","",NA,NA,NA,NA,""
"image-keyboard-response",427,346834,"0.0-3.138-2.138","m6yd0f2ep2kgvp5",173,"194.csv","","null","resources/images/coin2.png","null","",NA,NA,NA,NA,""
"image-keyboard-response",428,347245,"0.0-3.139-0.139","m6yd0f2ep2kgvp5",173,"194.csv","","408.90000000596046","resources/trios/L4T2A3.jpg","38","restless",0.5,0.5,0.2,0.551017672733379,"false"
"image-keyboard-response",429,347648,"0.0-3.139-1.139","m6yd0f2ep2kgvp5",173,"194.csv","","null","resources/maskTrios/BT2B.jpg","null","",NA,NA,NA,NA,""
"image-keyboard-response",430,348855,"0.0-3.139-2.139","m6yd0f2ep2kgvp5",173,"194.csv","","null","resources/images/fishbone.png","null","",NA,NA,NA,NA,""
"image-keyboard-response",431,349237,"0.0-3.140-0.140","m6yd0f2ep2kgvp5",173,"194.csv","","379.2999999821186","resources/trios/L1T2A2.jpg","39","restless",0.5,0.5,0.2,0.744014629142889,"false"
"image-keyboard-response",432,349645,"0.0-3.140-1.140","m6yd0f2ep2kgvp5",173,"194.csv","","null","resources/maskTrios/BBA2.jpg","null","",NA,NA,NA,NA,""
"image-keyboard-response",433,350848,"0.0-3.140-2.140","m6yd0f2ep2kgvp5",173,"194.csv","","null","resources/images/fishbone.png","null","",NA,NA,NA,NA,""
"image-keyboard-response",434,351122,"0.0-3.141-0.141","m6yd0f2ep2kgvp5",173,"194.csv","","271.2999999821186","resources/trios/L4T1A2.jpg","38","restless",0.5,0.5,0.2,0.312428368205963,"true"
"image-keyboard-response",435,351529,"0.0-3.141-1.141","m6yd0f2ep2kgvp5",173,"194.csv","","null","resources/maskTrios/BT1B.jpg","null","",NA,NA,NA,NA,""
"image-keyboard-response",436,352737,"0.0-3.141-2.141","m6yd0f2ep2kgvp5",173,"194.csv","","null","resources/images/coin2.png","null","",NA,NA,NA,NA,""
"image-keyboard-response",437,353226,"0.0-3.142-0.142","m6yd0f2ep2kgvp5",173,"194.csv","","486.69999998807907","resources/trios/L1T1A3.jpg","38","restless",0.5,0.6,0.2,0.721761910905558,"false"
"image-keyboard-response",438,353634,"0.0-3.142-1.142","m6yd0f2ep2kgvp5",173,"194.csv","","null","resources/maskTrios/BT1B.jpg","null","",NA,NA,NA,NA,""
"image-keyboard-response",439,354837,"0.0-3.142-2.142","m6yd0f2ep2kgvp5",173,"194.csv","","null","resources/images/fishbone.png","null","",NA,NA,NA,NA,""
"image-keyboard-response",440,354840,"0.0-3.143-0.143","m6yd0f2ep2kgvp5",173,"194.csv","","0.29999998211860657","resources/trios/L4T2A3.jpg","37","restless",0.5,0.6,0.2,0.864730108919848,"false"
"image-keyboard-response",441,355246,"0.0-3.143-1.143","m6yd0f2ep2kgvp5",173,"194.csv","","null","resources/maskTrios/L4BB.jpg","null","",NA,NA,NA,NA,""
"image-keyboard-response",442,356452,"0.0-3.143-2.143","m6yd0f2ep2kgvp5",173,"194.csv","","null","resources/images/fishbone.png","null","",NA,NA,NA,NA,""
"image-keyboard-response",443,356831,"0.0-3.144-0.144","m6yd0f2ep2kgvp5",173,"194.csv","","375.90000000596046","resources/trios/L1T2A2.jpg","38","restless",0.5,0.6,0.2,0.0816218840770246,"true"
"image-keyboard-response",444,357238,"0.0-3.144-1.144","m6yd0f2ep2kgvp5",173,"194.csv","","null","resources/maskTrios/BT2B.jpg","null","",NA,NA,NA,NA,""
"image-keyboard-response",445,358446,"0.0-3.144-2.144","m6yd0f2ep2kgvp5",173,"194.csv","","null","resources/images/coin2.png","null","",NA,NA,NA,NA,""
"image-keyboard-response",446,358965,"0.0-3.145-0.145","m6yd0f2ep2kgvp5",173,"194.csv","","516.8000000119209","resources/trios/L1T2A2.jpg","38","restless",0.4,0.6,0.2,0.143687736345624,"true"
"image-keyboard-response",447,359374,"0.0-3.145-1.145","m6yd0f2ep2kgvp5",173,"194.csv","","null","resources/maskTrios/BT2B.jpg","null","",NA,NA,NA,NA,""
"image-keyboard-response",448,360581,"0.0-3.145-2.145","m6yd0f2ep2kgvp5",173,"194.csv","","null","resources/images/coin2.png","null","",NA,NA,NA,NA,""
"image-keyboard-response",449,361266,"0.0-3.146-0.146","m6yd0f2ep2kgvp5",173,"194.csv","","681.8000000119209","resources/trios/L1T2A3.jpg","38","restless",0.4,0.6,0.2,0.139606127827915,"true"
"image-keyboard-response",450,361674,"0.0-3.146-1.146","m6yd0f2ep2kgvp5",173,"194.csv","","null","resources/maskTrios/BT2B.jpg","null","",NA,NA,NA,NA,""
"image-keyboard-response",451,362881,"0.0-3.146-2.146","m6yd0f2ep2kgvp5",173,"194.csv","","null","resources/images/coin2.png","null","",NA,NA,NA,NA,""
"image-keyboard-response",452,363191,"0.0-3.147-0.147","m6yd0f2ep2kgvp5",173,"194.csv","","307.19999998807907","resources/trios/L4T2A2.jpg","38","restless",0.4,0.6,0.2,0.395686378380702,"true"
"image-keyboard-response",453,363596,"0.0-3.147-1.147","m6yd0f2ep2kgvp5",173,"194.csv","","null","resources/maskTrios/BT2B.jpg","null","",NA,NA,NA,NA,""
"image-keyboard-response",454,364801,"0.0-3.147-2.147","m6yd0f2ep2kgvp5",173,"194.csv","","null","resources/images/coin2.png","null","",NA,NA,NA,NA,""
"image-keyboard-response",455,365330,"0.0-3.148-0.148","m6yd0f2ep2kgvp5",173,"194.csv","","526.3000000119209","resources/trios/L4T1A2.jpg","38","restless",0.5,0.6,0.1,0.150729831395472,"true"
"image-keyboard-response",456,365738,"0.0-3.148-1.148","m6yd0f2ep2kgvp5",173,"194.csv","","null","resources/maskTrios/BT1B.jpg","null","",NA,NA,NA,NA,""
"image-keyboard-response",457,366946,"0.0-3.148-2.148","m6yd0f2ep2kgvp5",173,"194.csv","","null","resources/images/coin2.png","null","",NA,NA,NA,NA,""
"image-keyboard-response",458,367269,"0.0-3.149-0.149","m6yd0f2ep2kgvp5",173,"194.csv","","320.80000001192093","resources/trios/L4T2A3.jpg","38","restless",0.5,0.6,0.1,0.715062386921675,"false"
"image-keyboard-response",459,367672,"0.0-3.149-1.149","m6yd0f2ep2kgvp5",173,"194.csv","","null","resources/maskTrios/BT2B.jpg","null","",NA,NA,NA,NA,""
"image-keyboard-response",460,368880,"0.0-3.149-2.149","m6yd0f2ep2kgvp5",173,"194.csv","","null","resources/images/fishbone.png","null","",NA,NA,NA,NA,""
"image-keyboard-response",461,369324,"0.0-3.150-0.150","m6yd0f2ep2kgvp5",173,"194.csv","","442","resources/trios/L1T2A2.jpg","39","restless",0.5,0.6,0.1,0.338955142447361,"false"
"image-keyboard-response",462,369732,"0.0-3.150-1.150","m6yd0f2ep2kgvp5",173,"194.csv","","null","resources/maskTrios/BBA2.jpg","null","",NA,NA,NA,NA,""
"image-keyboard-response",463,370940,"0.0-3.150-2.150","m6yd0f2ep2kgvp5",173,"194.csv","","null","resources/images/fishbone.png","null","",NA,NA,NA,NA,""
"image-keyboard-response",464,371442,"0.0-3.151-0.151","m6yd0f2ep2kgvp5",173,"194.csv","","497.59999999403954","resources/trios/L4T2A2.jpg","37","restless",0.5,0.6,0.1,0.979841958577969,"false"
"image-keyboard-response",465,371850,"0.0-3.151-1.151","m6yd0f2ep2kgvp5",173,"194.csv","","null","resources/maskTrios/L4BB.jpg","null","",NA,NA,NA,NA,""
"image-keyboard-response",466,373057,"0.0-3.151-2.151","m6yd0f2ep2kgvp5",173,"194.csv","","null","resources/images/fishbone.png","null","",NA,NA,NA,NA,""
"image-keyboard-response",467,373387,"0.0-3.152-0.152","m6yd0f2ep2kgvp5",173,"194.csv","","327.69999998807907","resources/trios/L1T1A2.jpg","38","restless",0.5,0.6,0.1,0.83356229946325,"false"
"image-keyboard-response",468,373793,"0.0-3.152-1.152","m6yd0f2ep2kgvp5",173,"194.csv","","null","resources/maskTrios/BT1B.jpg","null","",NA,NA,NA,NA,""
"image-keyboard-response",469,374998,"0.0-3.152-2.152","m6yd0f2ep2kgvp5",173,"194.csv","","null","resources/images/fishbone.png","null","",NA,NA,NA,NA,""
"image-keyboard-response",470,375537,"0.0-3.153-0.153","m6yd0f2ep2kgvp5",173,"194.csv","","535","resources/trios/L1T2A3.jpg","39","restless",0.5,0.6,0.1,0.626505302568585,"false"
"image-keyboard-response",471,375940,"0.0-3.153-1.153","m6yd0f2ep2kgvp5",173,"194.csv","","null","resources/maskTrios/BBA3.jpg","null","",NA,NA,NA,NA,""
"image-keyboard-response",472,377143,"0.0-3.153-2.153","m6yd0f2ep2kgvp5",173,"194.csv","","null","resources/images/fishbone.png","null","",NA,NA,NA,NA,""
"image-keyboard-response",473,377236,"0.0-3.154-0.154","m6yd0f2ep2kgvp5",173,"194.csv","","90.7000000178814","resources/trios/L1T1A2.jpg","37","restless",0.5,0.6,0.1,0.911664629117483,"false"
"image-keyboard-response",474,377643,"0.0-3.154-1.154","m6yd0f2ep2kgvp5",173,"194.csv","","null","resources/maskTrios/L1BB.jpg","null","",NA,NA,NA,NA,""
"image-keyboard-response",475,378851,"0.0-3.154-2.154","m6yd0f2ep2kgvp5",173,"194.csv","","null","resources/images/fishbone.png","null","",NA,NA,NA,NA,""
"image-keyboard-response",476,379103,"0.0-3.155-0.155","m6yd0f2ep2kgvp5",173,"194.csv","","249.19999998807907","resources/trios/L4T1A2.jpg","38","restless",0.5,0.6,0.1,0.607540434045842,"false"
"image-keyboard-response",477,379511,"0.0-3.155-1.155","m6yd0f2ep2kgvp5",173,"194.csv","","null","resources/maskTrios/BT1B.jpg","null","",NA,NA,NA,NA,""
"image-keyboard-response",478,380719,"0.0-3.155-2.155","m6yd0f2ep2kgvp5",173,"194.csv","","null","resources/images/fishbone.png","null","",NA,NA,NA,NA,""
"image-keyboard-response",479,381103,"0.0-3.156-0.156","m6yd0f2ep2kgvp5",173,"194.csv","","381.19999998807907","resources/trios/L4T2A2.jpg","39","restless",0.5,0.6,0.1,0.579570139360096,"false"
"image-keyboard-response",480,381505,"0.0-3.156-1.156","m6yd0f2ep2kgvp5",173,"194.csv","","null","resources/maskTrios/BBA2.jpg","null","",NA,NA,NA,NA,""
"image-keyboard-response",481,382708,"0.0-3.156-2.156","m6yd0f2ep2kgvp5",173,"194.csv","","null","resources/images/fishbone.png","null","",NA,NA,NA,NA,""
"image-keyboard-response",482,383224,"0.0-3.157-0.157","m6yd0f2ep2kgvp5",173,"194.csv","","512.6999999880791","resources/trios/L1T1A3.jpg","38","restless",0.5,0.6,0.1,0.183392633567691,"true"
"image-keyboard-response",483,383631,"0.0-3.157-1.157","m6yd0f2ep2kgvp5",173,"194.csv","","null","resources/maskTrios/BT1B.jpg","null","",NA,NA,NA,NA,""
"image-keyboard-response",484,384838,"0.0-3.157-2.157","m6yd0f2ep2kgvp5",173,"194.csv","","null","resources/images/coin2.png","null","",NA,NA,NA,NA,""
"image-keyboard-response",485,384987,"0.0-3.158-0.158","m6yd0f2ep2kgvp5",173,"194.csv","","144.7999999821186","resources/trios/L1T1A3.jpg","38","restless",0.5,0.6,0.1,0.883530443781879,"false"
"image-keyboard-response",486,385393,"0.0-3.158-1.158","m6yd0f2ep2kgvp5",173,"194.csv","","null","resources/maskTrios/BT1B.jpg","null","",NA,NA,NA,NA,""
"image-keyboard-response",487,386601,"0.0-3.158-2.158","m6yd0f2ep2kgvp5",173,"194.csv","","null","resources/images/fishbone.png","null","",NA,NA,NA,NA,""
"image-keyboard-response",488,387005,"0.0-3.159-0.159","m6yd0f2ep2kgvp5",173,"194.csv","","401.5","resources/trios/L4T2A3.jpg","37","restless",0.5,0.6,0.1,0.681197743035147,"false"
"image-keyboard-response",489,387412,"0.0-3.159-1.159","m6yd0f2ep2kgvp5",173,"194.csv","","null","resources/maskTrios/L4BB.jpg","null","",NA,NA,NA,NA,""
"image-keyboard-response",490,388619,"0.0-3.159-2.159","m6yd0f2ep2kgvp5",173,"194.csv","","null","resources/images/fishbone.png","null","",NA,NA,NA,NA,""
"image-keyboard-response",491,388885,"0.0-3.160-0.160","m6yd0f2ep2kgvp5",173,"194.csv","","263.2000000178814","resources/trios/L4T2A2.jpg","38","restless",0.4,0.6,0.2,0.261740246028187,"true"
"image-keyboard-response",492,389289,"0.0-3.160-1.160","m6yd0f2ep2kgvp5",173,"194.csv","","null","resources/maskTrios/BT2B.jpg","null","",NA,NA,NA,NA,""
"image-keyboard-response",493,390497,"0.0-3.160-2.160","m6yd0f2ep2kgvp5",173,"194.csv","","null","resources/images/coin2.png","null","",NA,NA,NA,NA,""
"image-keyboard-response",494,392897,"0.0-3.161-0.161","m6yd0f2ep2kgvp5",173,"194.csv","","2397","resources/trios/L1T2A3.jpg","38","restless",0.4,0.6,0.2,0.311591158015794,"true"
"image-keyboard-response",495,393300,"0.0-3.161-1.161","m6yd0f2ep2kgvp5",173,"194.csv","","null","resources/maskTrios/BT2B.jpg","null","",NA,NA,NA,NA,""
"image-keyboard-response",496,394507,"0.0-3.161-2.161","m6yd0f2ep2kgvp5",173,"194.csv","","null","resources/images/coin2.png","null","",NA,NA,NA,NA,""
"image-keyboard-response",497,399324,"0.0-3.162-0.162","m6yd0f2ep2kgvp5",173,"194.csv","","4813.4000000059605","resources/trios/L1T1A2.jpg","38","restless",0.4,0.6,0.2,0.492775241661655,"true"
"image-keyboard-response",498,399730,"0.0-3.162-1.162","m6yd0f2ep2kgvp5",173,"194.csv","","null","resources/maskTrios/BT1B.jpg","null","",NA,NA,NA,NA,""
"image-keyboard-response",499,400938,"0.0-3.162-2.162","m6yd0f2ep2kgvp5",173,"194.csv","","null","resources/images/coin2.png","null","",NA,NA,NA,NA,""
"image-keyboard-response",500,401281,"0.0-3.163-0.163","m6yd0f2ep2kgvp5",173,"194.csv","","337.60000002384186","resources/trios/L4T2A3.jpg","38","restless",0.5,0.6,0.2,0.681842484622857,"false"
"image-keyboard-response",501,401685,"0.0-3.163-1.163","m6yd0f2ep2kgvp5",173,"194.csv","","null","resources/maskTrios/BT2B.jpg","null","",NA,NA,NA,NA,""
"image-keyboard-response",502,402892,"0.0-3.163-2.163","m6yd0f2ep2kgvp5",173,"194.csv","","null","resources/images/fishbone.png","null","",NA,NA,NA,NA,""
"image-keyboard-response",503,403129,"0.0-3.164-0.164","m6yd0f2ep2kgvp5",173,"194.csv","","234.40000000596046","resources/trios/L4T1A2.jpg","39","restless",0.5,0.6,0.2,0.189263160952268,"true"
"image-keyboard-response",504,403532,"0.0-3.164-1.164","m6yd0f2ep2kgvp5",173,"194.csv","","null","resources/maskTrios/BBA2.jpg","null","",NA,NA,NA,NA,""
"image-keyboard-response",505,404738,"0.0-3.164-2.164","m6yd0f2ep2kgvp5",173,"194.csv","","null","resources/images/coin2.png","null","",NA,NA,NA,NA,""
"image-keyboard-response",506,405492,"0.0-3.165-0.165","m6yd0f2ep2kgvp5",173,"194.csv","","750.5999999940395","resources/trios/L1T2A3.jpg","38","restless",0.5,0.6,0.2,0.940080623092459,"false"
"image-keyboard-response",507,405900,"0.0-3.165-1.165","m6yd0f2ep2kgvp5",173,"194.csv","","null","resources/maskTrios/BT2B.jpg","null","",NA,NA,NA,NA,""
"image-keyboard-response",508,407107,"0.0-3.165-2.165","m6yd0f2ep2kgvp5",173,"194.csv","","null","resources/images/fishbone.png","null","",NA,NA,NA,NA,""
"image-keyboard-response",509,407807,"0.0-3.166-0.166","m6yd0f2ep2kgvp5",173,"194.csv","","696.8999999761581","resources/trios/L4T1A2.jpg","37","restless",0.6,0.6,0.2,0.202820806116722,"true"
"image-keyboard-response",510,408215,"0.0-3.166-1.166","m6yd0f2ep2kgvp5",173,"194.csv","","null","resources/maskTrios/L4BB.jpg","null","",NA,NA,NA,NA,""
"image-keyboard-response",511,409422,"0.0-3.166-2.166","m6yd0f2ep2kgvp5",173,"194.csv","","null","resources/images/coin2.png","null","",NA,NA,NA,NA,""
"image-keyboard-response",512,410024,"0.0-3.167-0.167","m6yd0f2ep2kgvp5",173,"194.csv","","598.3000000119209","resources/trios/L4T1A3.jpg","38","restless",0.6,0.6,0.1,0.600827273809333,"false"
"image-keyboard-response",513,410431,"0.0-3.167-1.167","m6yd0f2ep2kgvp5",173,"194.csv","","null","resources/maskTrios/BT1B.jpg","null","",NA,NA,NA,NA,""
"image-keyboard-response",514,411638,"0.0-3.167-2.167","m6yd0f2ep2kgvp5",173,"194.csv","","null","resources/images/fishbone.png","null","",NA,NA,NA,NA,""
"image-keyboard-response",515,412224,"0.0-3.168-0.168","m6yd0f2ep2kgvp5",173,"194.csv","","583.0999999940395","resources/trios/L1T2A2.jpg","39","restless",0.6,0.6,0.1,0.892769252124665,"false"
"image-keyboard-response",516,412632,"0.0-3.168-1.168","m6yd0f2ep2kgvp5",173,"194.csv","","null","resources/maskTrios/BBA2.jpg","null","",NA,NA,NA,NA,""
"image-keyboard-response",517,413837,"0.0-3.168-2.168","m6yd0f2ep2kgvp5",173,"194.csv","","null","resources/images/fishbone.png","null","",NA,NA,NA,NA,""
"image-keyboard-response",518,414221,"0.0-3.169-0.169","m6yd0f2ep2kgvp5",173,"194.csv","","381.09999999403954","resources/trios/L4T1A2.jpg","38","restless",0.6,0.6,0.1,0.581062259263927,"true"
"image-keyboard-response",519,414627,"0.0-3.169-1.169","m6yd0f2ep2kgvp5",173,"194.csv","","null","resources/maskTrios/BT1B.jpg","null","",NA,NA,NA,NA,""
"image-keyboard-response",520,415830,"0.0-3.169-2.169","m6yd0f2ep2kgvp5",173,"194.csv","","null","resources/images/coin2.png","null","",NA,NA,NA,NA,""
"image-keyboard-response",521,416214,"0.0-3.170-0.170","m6yd0f2ep2kgvp5",173,"194.csv","","381.19999998807907","resources/trios/L1T1A2.jpg","38","restless",0.6,0.6,0.2,0.898667822862503,"false"
"image-keyboard-response",522,416622,"0.0-3.170-1.170","m6yd0f2ep2kgvp5",173,"194.csv","","null","resources/maskTrios/BT1B.jpg","null","",NA,NA,NA,NA,""
"image-keyboard-response",523,417829,"0.0-3.170-2.170","m6yd0f2ep2kgvp5",173,"194.csv","","null","resources/images/fishbone.png","null","",NA,NA,NA,NA,""
"image-keyboard-response",524,418134,"0.0-3.171-0.171","m6yd0f2ep2kgvp5",173,"194.csv","","301.40000000596046","resources/trios/L1T1A3.jpg","38","restless",0.6,0.6,0.2,0.522646336422764,"true"
"image-keyboard-response",525,418542,"0.0-3.171-1.171","m6yd0f2ep2kgvp5",173,"194.csv","","null","resources/maskTrios/BT1B.jpg","null","",NA,NA,NA,NA,""
"image-keyboard-response",526,419748,"0.0-3.171-2.171","m6yd0f2ep2kgvp5",173,"194.csv","","null","resources/images/coin2.png","null","",NA,NA,NA,NA,""
"image-keyboard-response",527,420311,"0.0-3.172-0.172","m6yd0f2ep2kgvp5",173,"194.csv","","559.3000000119209","resources/trios/L4T1A3.jpg","38","restless",0.6,0.6,0.2,0.34777559038109,"true"
"image-keyboard-response",528,420716,"0.0-3.172-1.172","m6yd0f2ep2kgvp5",173,"194.csv","","null","resources/maskTrios/BT1B.jpg","null","",NA,NA,NA,NA,""
"image-keyboard-response",529,421923,"0.0-3.172-2.172","m6yd0f2ep2kgvp5",173,"194.csv","","null","resources/images/coin2.png","null","",NA,NA,NA,NA,""
"image-keyboard-response",530,422259,"0.0-3.173-0.173","m6yd0f2ep2kgvp5",173,"194.csv","","333.2000000178814","resources/trios/L1T2A2.jpg","38","restless",0.6,0.6,0.2,0.193660899891007,"true"
"image-keyboard-response",531,422667,"0.0-3.173-1.173","m6yd0f2ep2kgvp5",173,"194.csv","","null","resources/maskTrios/BT2B.jpg","null","",NA,NA,NA,NA,""
"image-keyboard-response",532,423874,"0.0-3.173-2.173","m6yd0f2ep2kgvp5",173,"194.csv","","null","resources/images/coin2.png","null","",NA,NA,NA,NA,""
"image-keyboard-response",533,424197,"0.0-3.174-0.174","m6yd0f2ep2kgvp5",173,"194.csv","","320","resources/trios/L1T2A2.jpg","38","restless",0.6,0.6,0.3,0.589599324372823,"true"
"image-keyboard-response",534,424604,"0.0-3.174-1.174","m6yd0f2ep2kgvp5",173,"194.csv","","null","resources/maskTrios/BT2B.jpg","null","",NA,NA,NA,NA,""
"image-keyboard-response",535,425807,"0.0-3.174-2.174","m6yd0f2ep2kgvp5",173,"194.csv","","null","resources/images/coin2.png","null","",NA,NA,NA,NA,""
"image-keyboard-response",536,425829,"0.0-3.175-0.175","m6yd0f2ep2kgvp5",173,"194.csv","","19.600000023841858","resources/trios/L1T1A2.jpg","38","restless",0.6,0.6,0.4,0.344268052762126,"true"
"image-keyboard-response",537,426236,"0.0-3.175-1.175","m6yd0f2ep2kgvp5",173,"194.csv","","null","resources/maskTrios/BT1B.jpg","null","",NA,NA,NA,NA,""
"image-keyboard-response",538,427443,"0.0-3.175-2.175","m6yd0f2ep2kgvp5",173,"194.csv","","null","resources/images/coin2.png","null","",NA,NA,NA,NA,""
"image-keyboard-response",539,427725,"0.0-3.176-0.176","m6yd0f2ep2kgvp5",173,"194.csv","","278.59999999403954","resources/trios/L4T2A3.jpg","38","restless",0.6,0.6,0.4,0.461060360530668,"true"
"image-keyboard-response",540,428133,"0.0-3.176-1.176","m6yd0f2ep2kgvp5",173,"194.csv","","null","resources/maskTrios/BT2B.jpg","null","",NA,NA,NA,NA,""
"image-keyboard-response",541,429341,"0.0-3.176-2.176","m6yd0f2ep2kgvp5",173,"194.csv","","null","resources/images/coin2.png","null","",NA,NA,NA,NA,""
"image-keyboard-response",542,429599,"0.0-3.177-0.177","m6yd0f2ep2kgvp5",173,"194.csv","","255.5","resources/trios/L1T1A3.jpg","38","restless",0.6,0.7,0.4,0.559889988756277,"true"
"image-keyboard-response",543,430007,"0.0-3.177-1.177","m6yd0f2ep2kgvp5",173,"194.csv","","null","resources/maskTrios/BT1B.jpg","null","",NA,NA,NA,NA,""
"image-keyboard-response",544,431215,"0.0-3.177-2.177","m6yd0f2ep2kgvp5",173,"194.csv","","null","resources/images/coin2.png","null","",NA,NA,NA,NA,""
"image-keyboard-response",545,431302,"0.0-3.178-0.178","m6yd0f2ep2kgvp5",173,"194.csv","","84.10000002384186","resources/trios/L4T2A3.jpg","38","restless",0.6,0.7,0.4,0.337878622984865,"true"
"image-keyboard-response",546,431709,"0.0-3.178-1.178","m6yd0f2ep2kgvp5",173,"194.csv","","null","resources/maskTrios/BT2B.jpg","null","",NA,NA,NA,NA,""
"image-keyboard-response",547,432919,"0.0-3.178-2.178","m6yd0f2ep2kgvp5",173,"194.csv","","null","resources/images/coin2.png","null","",NA,NA,NA,NA,""
"image-keyboard-response",548,433283,"0.0-3.179-0.179","m6yd0f2ep2kgvp5",173,"194.csv","","361.40000000596046","resources/trios/L1T1A3.jpg","38","restless",0.5,0.8,0.4,0.102371581739109,"true"
"image-keyboard-response",549,433691,"0.0-3.179-1.179","m6yd0f2ep2kgvp5",173,"194.csv","","null","resources/maskTrios/BT1B.jpg","null","",NA,NA,NA,NA,""
"image-keyboard-response",550,434898,"0.0-3.179-2.179","m6yd0f2ep2kgvp5",173,"194.csv","","null","resources/images/coin2.png","null","",NA,NA,NA,NA,""
"image-keyboard-response",551,435287,"0.0-3.180-0.180","m6yd0f2ep2kgvp5",173,"194.csv","","385.80000001192093","resources/trios/L4T1A2.jpg","38","restless",0.5,0.8,0.4,0.204166098263476,"true"
"image-keyboard-response",552,435693,"0.0-3.180-1.180","m6yd0f2ep2kgvp5",173,"194.csv","","null","resources/maskTrios/BT1B.jpg","null","",NA,NA,NA,NA,""
"image-keyboard-response",553,436896,"0.0-3.180-2.180","m6yd0f2ep2kgvp5",173,"194.csv","","null","resources/images/coin2.png","null","",NA,NA,NA,NA,""
"image-keyboard-response",554,437365,"0.0-3.181-0.181","m6yd0f2ep2kgvp5",173,"194.csv","","465.5","resources/trios/L4T1A3.jpg","38","restless",0.5,0.8,0.4,0.408529467845058,"true"
"image-keyboard-response",555,437773,"0.0-3.181-1.181","m6yd0f2ep2kgvp5",173,"194.csv","","null","resources/maskTrios/BT1B.jpg","null","",NA,NA,NA,NA,""
"image-keyboard-response",556,438981,"0.0-3.181-2.181","m6yd0f2ep2kgvp5",173,"194.csv","","null","resources/images/coin2.png","null","",NA,NA,NA,NA,""
"image-keyboard-response",557,439271,"0.0-3.182-0.182","m6yd0f2ep2kgvp5",173,"194.csv","","287.5","resources/trios/L1T2A3.jpg","38","restless",0.5,0.8,0.4,0.255897900844859,"true"
"image-keyboard-response",558,439677,"0.0-3.182-1.182","m6yd0f2ep2kgvp5",173,"194.csv","","null","resources/maskTrios/BT2B.jpg","null","",NA,NA,NA,NA,""
"image-keyboard-response",559,440885,"0.0-3.182-2.182","m6yd0f2ep2kgvp5",173,"194.csv","","null","resources/images/coin2.png","null","",NA,NA,NA,NA,""
"image-keyboard-response",560,441058,"0.0-3.183-0.183","m6yd0f2ep2kgvp5",173,"194.csv","","169.80000001192093","resources/trios/L1T2A2.jpg","38","restless",0.5,0.8,0.5,0.459616190297374,"true"
"image-keyboard-response",561,441465,"0.0-3.183-1.183","m6yd0f2ep2kgvp5",173,"194.csv","","null","resources/maskTrios/BT2B.jpg","null","",NA,NA,NA,NA,""
"image-keyboard-response",562,442669,"0.0-3.183-2.183","m6yd0f2ep2kgvp5",173,"194.csv","","null","resources/images/coin2.png","null","",NA,NA,NA,NA,""
"image-keyboard-response",563,442948,"0.0-3.184-0.184","m6yd0f2ep2kgvp5",173,"194.csv","","276.89999997615814","resources/trios/L4T1A3.jpg","38","restless",0.5,0.8,0.5,0.410544845848176,"true"
"image-keyboard-response",564,443355,"0.0-3.184-1.184","m6yd0f2ep2kgvp5",173,"194.csv","","null","resources/maskTrios/BT1B.jpg","null","",NA,NA,NA,NA,""
"image-keyboard-response",565,444563,"0.0-3.184-2.184","m6yd0f2ep2kgvp5",173,"194.csv","","null","resources/images/coin2.png","null","",NA,NA,NA,NA,""
"image-keyboard-response",566,444865,"0.0-3.185-0.185","m6yd0f2ep2kgvp5",173,"194.csv","","299.19999998807907","resources/trios/L1T1A3.jpg","38","restless",0.5,0.8,0.5,0.672116703612688,"true"
"image-keyboard-response",567,445269,"0.0-3.185-1.185","m6yd0f2ep2kgvp5",173,"194.csv","","null","resources/maskTrios/BT1B.jpg","null","",NA,NA,NA,NA,""
"image-keyboard-response",568,446477,"0.0-3.185-2.185","m6yd0f2ep2kgvp5",173,"194.csv","","null","resources/images/coin2.png","null","",NA,NA,NA,NA,""
"image-keyboard-response",569,446732,"0.0-3.186-0.186","m6yd0f2ep2kgvp5",173,"194.csv","","251.80000001192093","resources/trios/L4T1A2.jpg","38","restless",0.6,0.7,0.5,0.065733820897913,"true"
"image-keyboard-response",570,447139,"0.0-3.186-1.186","m6yd0f2ep2kgvp5",173,"194.csv","","null","resources/maskTrios/BT1B.jpg","null","",NA,NA,NA,NA,""
"image-keyboard-response",571,448346,"0.0-3.186-2.186","m6yd0f2ep2kgvp5",173,"194.csv","","null","resources/images/coin2.png","null","",NA,NA,NA,NA,""
"image-keyboard-response",572,448697,"0.0-3.187-0.187","m6yd0f2ep2kgvp5",173,"194.csv","","347.80000001192093","resources/trios/L1T1A2.jpg","38","restless",0.6,0.7,0.5,0.0587570018627774,"true"
"image-keyboard-response",573,449102,"0.0-3.187-1.187","m6yd0f2ep2kgvp5",173,"194.csv","","null","resources/maskTrios/BT1B.jpg","null","",NA,NA,NA,NA,""
"image-keyboard-response",574,450310,"0.0-3.187-2.187","m6yd0f2ep2kgvp5",173,"194.csv","","null","resources/images/coin2.png","null","",NA,NA,NA,NA,""
"image-keyboard-response",575,451241,"0.0-3.188-0.188","m6yd0f2ep2kgvp5",173,"194.csv","","927.5999999940395","resources/trios/L4T1A3.jpg","38","restless",0.7,0.7,0.5,0.784821757542677,"false"
"image-keyboard-response",576,451644,"0.0-3.188-1.188","m6yd0f2ep2kgvp5",173,"194.csv","","null","resources/maskTrios/BT1B.jpg","null","",NA,NA,NA,NA,""
"image-keyboard-response",577,452851,"0.0-3.188-2.188","m6yd0f2ep2kgvp5",173,"194.csv","","null","resources/images/fishbone.png","null","",NA,NA,NA,NA,""
"image-keyboard-response",578,453816,"0.0-3.189-0.189","m6yd0f2ep2kgvp5",173,"194.csv","","961.4000000059605","resources/trios/L1T2A2.jpg","37","restless",0.7,0.7,0.5,0.302144964823939,"true"
"image-keyboard-response",579,454223,"0.0-3.189-1.189","m6yd0f2ep2kgvp5",173,"194.csv","","null","resources/maskTrios/L1BB.jpg","null","",NA,NA,NA,NA,""
"image-keyboard-response",580,455426,"0.0-3.189-2.189","m6yd0f2ep2kgvp5",173,"194.csv","","null","resources/images/coin2.png","null","",NA,NA,NA,NA,""
"image-keyboard-response",581,455789,"0.0-3.190-0.190","m6yd0f2ep2kgvp5",173,"194.csv","","360.19999998807907","resources/trios/L1T1A3.jpg","37","restless",0.7,0.7,0.5,0.442790566649549,"true"
"image-keyboard-response",582,456192,"0.0-3.190-1.190","m6yd0f2ep2kgvp5",173,"194.csv","","null","resources/maskTrios/L1BB.jpg","null","",NA,NA,NA,NA,""
"image-keyboard-response",583,457401,"0.0-3.190-2.190","m6yd0f2ep2kgvp5",173,"194.csv","","null","resources/images/coin2.png","null","",NA,NA,NA,NA,""
"image-keyboard-response",584,457724,"0.0-3.191-0.191","m6yd0f2ep2kgvp5",173,"194.csv","","320.69999998807907","resources/trios/L1T1A3.jpg","37","restless",0.7,0.7,0.5,0.00340046512125691,"true"
"image-keyboard-response",585,458131,"0.0-3.191-1.191","m6yd0f2ep2kgvp5",173,"194.csv","","null","resources/maskTrios/L1BB.jpg","null","",NA,NA,NA,NA,""
"image-keyboard-response",586,459339,"0.0-3.191-2.191","m6yd0f2ep2kgvp5",173,"194.csv","","null","resources/images/coin2.png","null","",NA,NA,NA,NA,""
"image-keyboard-response",587,459797,"0.0-3.192-0.192","m6yd0f2ep2kgvp5",173,"194.csv","","454.59999999403954","resources/trios/L4T1A2.jpg","37","restless",0.7,0.7,0.5,0.303154910342335,"true"
"image-keyboard-response",588,460204,"0.0-3.192-1.192","m6yd0f2ep2kgvp5",173,"194.csv","","null","resources/maskTrios/L4BB.jpg","null","",NA,NA,NA,NA,""
"image-keyboard-response",589,461411,"0.0-3.192-2.192","m6yd0f2ep2kgvp5",173,"194.csv","","null","resources/images/coin2.png","null","",NA,NA,NA,NA,""
"image-keyboard-response",590,461693,"0.0-3.193-0.193","m6yd0f2ep2kgvp5",173,"194.csv","","278.40000000596046","resources/trios/L1T1A3.jpg","37","restless",0.7,0.7,0.5,0.372827095390313,"true"
"image-keyboard-response",591,462101,"0.0-3.193-1.193","m6yd0f2ep2kgvp5",173,"194.csv","","null","resources/maskTrios/L1BB.jpg","null","",NA,NA,NA,NA,""
"image-keyboard-response",592,463308,"0.0-3.193-2.193","m6yd0f2ep2kgvp5",173,"194.csv","","null","resources/images/coin2.png","null","",NA,NA,NA,NA,""
"image-keyboard-response",593,463736,"0.0-3.194-0.194","m6yd0f2ep2kgvp5",173,"194.csv","","424.5","resources/trios/L4T2A3.jpg","37","restless",0.7,0.7,0.5,0.658372685466341,"true"
"image-keyboard-response",594,464139,"0.0-3.194-1.194","m6yd0f2ep2kgvp5",173,"194.csv","","null","resources/maskTrios/L4BB.jpg","null","",NA,NA,NA,NA,""
"image-keyboard-response",595,465346,"0.0-3.194-2.194","m6yd0f2ep2kgvp5",173,"194.csv","","null","resources/images/coin2.png","null","",NA,NA,NA,NA,""
"image-keyboard-response",596,465661,"0.0-3.195-0.195","m6yd0f2ep2kgvp5",173,"194.csv","","312","resources/trios/L4T2A3.jpg","37","restless",0.7,0.7,0.5,0.478172574998274,"true"
"image-keyboard-response",597,466068,"0.0-3.195-1.195","m6yd0f2ep2kgvp5",173,"194.csv","","null","resources/maskTrios/L4BB.jpg","null","",NA,NA,NA,NA,""
"image-keyboard-response",598,467276,"0.0-3.195-2.195","m6yd0f2ep2kgvp5",173,"194.csv","","null","resources/images/coin2.png","null","",NA,NA,NA,NA,""
"image-keyboard-response",599,467805,"0.0-3.196-0.196","m6yd0f2ep2kgvp5",173,"194.csv","","525.7999999821186","resources/trios/L1T1A3.jpg","37","restless",0.7,0.7,0.5,0.555564599252986,"true"
"image-keyboard-response",600,468212,"0.0-3.196-1.196","m6yd0f2ep2kgvp5",173,"194.csv","","null","resources/maskTrios/L1BB.jpg","null","",NA,NA,NA,NA,""
"image-keyboard-response",601,469420,"0.0-3.196-2.196","m6yd0f2ep2kgvp5",173,"194.csv","","null","resources/images/coin2.png","null","",NA,NA,NA,NA,""
"image-keyboard-response",602,469821,"0.0-3.197-0.197","m6yd0f2ep2kgvp5",173,"194.csv","","395.5","resources/trios/L1T1A3.jpg","37","restless",0.7,0.7,0.5,0.980672617677447,"false"
"image-keyboard-response",603,470229,"0.0-3.197-1.197","m6yd0f2ep2kgvp5",173,"194.csv","","null","resources/maskTrios/L1BB.jpg","null","",NA,NA,NA,NA,""
"image-keyboard-response",604,471437,"0.0-3.197-2.197","m6yd0f2ep2kgvp5",173,"194.csv","","null","resources/images/fishbone.png","null","",NA,NA,NA,NA,""
"image-keyboard-response",605,471552,"0.0-3.198-0.198","m6yd0f2ep2kgvp5",173,"194.csv","","112.40000000596046","resources/trios/L1T2A3.jpg","38","restless",0.7,0.7,0.5,0.124244922617215,"true"
