"trial_type","trial_index","time_elapsed","internal_node_id","subject","participantCode","walkNumber","success","rt","stimulus","key_press","test_part","leftProb","midProb","rightProb","generatedNum","correct"
"pavlovia",0,961,"0.0-0.0","nkvf7g8nwth6mg2",713,"44.csv","","","","","",NA,NA,NA,NA,""
"fullscreen",1,7040,"0.0-1.0","nkvf7g8nwth6mg2",713,"44.csv","true","","","","",NA,NA,NA,NA,""
"html-keyboard-response",2,19810,"0.0-2.0-0.0","nkvf7g8nwth6mg2",713,"44.csv","","12767.099999904633","<p><font size='6'>Arrrgh!</p></font><p>Can you be the best pirate? Try to find lots of gold! But beware, some islands have more gold than others, and over time, the island with the most gold may change. Can YOU figure it out? </p><font size='6'>GOOD LUCK, CAPTAIN!!!</font><p>Press any key to begin</p>","32","",NA,NA,NA,NA,""
"image-keyboard-response",3,22823,"0.0-2.0-1.0","nkvf7g8nwth6mg2",713,"44.csv","","null","resources/image_sets/111.png","null","",NA,NA,NA,NA,""
"image-keyboard-response",4,31415,"0.0-2.0-2.0","nkvf7g8nwth6mg2",713,"44.csv","","8590.700000047684","resources/image_sets/left_highlight.png","37","",NA,NA,NA,NA,""
"image-keyboard-response",5,35675,"0.0-2.0-3.0","nkvf7g8nwth6mg2",713,"44.csv","","4259","resources/image_sets/mid_highlight.png","38","",NA,NA,NA,NA,""
"image-keyboard-response",6,37771,"0.0-2.0-4.0","nkvf7g8nwth6mg2",713,"44.csv","","2094.7000000476837","resources/image_sets/right_highlight.png","39","",NA,NA,NA,NA,""
"image-keyboard-response",7,45926,"0.0-2.0-5.0","nkvf7g8nwth6mg2",713,"44.csv","","8152.900000095367","resources/image_sets/111.png","13","",NA,NA,NA,NA,""
"image-keyboard-response",8,49315,"0.0-2.0-6.0","nkvf7g8nwth6mg2",713,"44.csv","","3388.9000000953674","resources/images/coin2.png","13","",NA,NA,NA,NA,""
"image-keyboard-response",9,51166,"0.0-2.0-7.0","nkvf7g8nwth6mg2",713,"44.csv","","1850.1000001430511","resources/images/fishbone.png","13","",NA,NA,NA,NA,""
"html-keyboard-response",10,61043,"0.0-2.0-8.0","nkvf7g8nwth6mg2",713,"44.csv","","9876","<p>Your first journey will be a long one, but you will get a well deserved break at the end</p><p>After the break you will have four more journeys, but each will be much shorter than the first, and you will have breaks in between each</p><p>Press Enter to begin</p>","13","",NA,NA,NA,NA,""
"image-keyboard-response",11,67657,"0.0-3.0-0.0","nkvf7g8nwth6mg2",713,"44.csv","","6612.799999952316","resources/trios/L2T4A3.jpg","37","restless",0.7,0.9,0.3,0.527770536864551,"true"
"image-keyboard-response",12,68069,"0.0-3.0-1.0","nkvf7g8nwth6mg2",713,"44.csv","","null","resources/maskTrios/L2BB.jpg","null","",NA,NA,NA,NA,""
"image-keyboard-response",13,69282,"0.0-3.0-2.0","nkvf7g8nwth6mg2",713,"44.csv","","null","resources/images/coin2.png","null","",NA,NA,NA,NA,""
"image-keyboard-response",14,72733,"0.0-3.1-0.1","nkvf7g8nwth6mg2",713,"44.csv","","3449.5","resources/trios/L1T4A2.jpg","37","restless",0.7,0.9,0.3,0.71839583547928,"false"
"image-keyboard-response",15,73145,"0.0-3.1-1.1","nkvf7g8nwth6mg2",713,"44.csv","","null","resources/maskTrios/L1BB.jpg","null","",NA,NA,NA,NA,""
"image-keyboard-response",16,74350,"0.0-3.1-2.1","nkvf7g8nwth6mg2",713,"44.csv","","null","resources/images/fishbone.png","null","",NA,NA,NA,NA,""
"image-keyboard-response",17,75614,"0.0-3.2-0.2","nkvf7g8nwth6mg2",713,"44.csv","","1262.9000000953674","resources/trios/L2T4A2.jpg","38","restless",0.7,0.9,0.3,0.183769249621227,"true"
"image-keyboard-response",18,76034,"0.0-3.2-1.2","nkvf7g8nwth6mg2",713,"44.csv","","null","resources/maskTrios/BT4B.jpg","null","",NA,NA,NA,NA,""
"image-keyboard-response",19,77250,"0.0-3.2-2.2","nkvf7g8nwth6mg2",713,"44.csv","","null","resources/images/coin2.png","null","",NA,NA,NA,NA,""
"image-keyboard-response",20,79500,"0.0-3.3-0.3","nkvf7g8nwth6mg2",713,"44.csv","","2248.4000000953674","resources/trios/L1T1A2.jpg","39","restless",0.7,0.9,0.3,0.879061060728892,"false"
"image-keyboard-response",21,79920,"0.0-3.3-1.3","nkvf7g8nwth6mg2",713,"44.csv","","null","resources/maskTrios/BBA2.jpg","null","",NA,NA,NA,NA,""
"image-keyboard-response",22,81139,"0.0-3.3-2.3","nkvf7g8nwth6mg2",713,"44.csv","","null","resources/images/fishbone.png","null","",NA,NA,NA,NA,""
"image-keyboard-response",23,82681,"0.0-3.4-0.4","nkvf7g8nwth6mg2",713,"44.csv","","1540.5","resources/trios/L2T4A3.jpg","37","restless",0.7,0.8,0.3,0.00974100318032356,"true"
"image-keyboard-response",24,83097,"0.0-3.4-1.4","nkvf7g8nwth6mg2",713,"44.csv","","null","resources/maskTrios/L2BB.jpg","null","",NA,NA,NA,NA,""
"image-keyboard-response",25,84303,"0.0-3.4-2.4","nkvf7g8nwth6mg2",713,"44.csv","","null","resources/images/coin2.png","null","",NA,NA,NA,NA,""
"image-keyboard-response",26,86271,"0.0-3.5-0.5","nkvf7g8nwth6mg2",713,"44.csv","","1967","resources/trios/L1T1A3.jpg","38","restless",0.8,0.8,0.3,0.867336822249405,"false"
"image-keyboard-response",27,86691,"0.0-3.5-1.5","nkvf7g8nwth6mg2",713,"44.csv","","null","resources/maskTrios/BT1B.jpg","null","",NA,NA,NA,NA,""
"image-keyboard-response",28,87909,"0.0-3.5-2.5","nkvf7g8nwth6mg2",713,"44.csv","","null","resources/images/fishbone.png","null","",NA,NA,NA,NA,""
"image-keyboard-response",29,89183,"0.0-3.6-0.6","nkvf7g8nwth6mg2",713,"44.csv","","1271","resources/trios/L2T4A2.jpg","38","restless",0.8,0.8,0.3,0.450666788596701,"true"
"image-keyboard-response",30,89597,"0.0-3.6-1.6","nkvf7g8nwth6mg2",713,"44.csv","","null","resources/maskTrios/BT4B.jpg","null","",NA,NA,NA,NA,""
"image-keyboard-response",31,90821,"0.0-3.6-2.6","nkvf7g8nwth6mg2",713,"44.csv","","null","resources/images/coin2.png","null","",NA,NA,NA,NA,""
"image-keyboard-response",32,92080,"0.0-3.7-0.7","nkvf7g8nwth6mg2",713,"44.csv","","1256.8999998569489","resources/trios/L1T4A3.jpg","38","restless",0.8,0.8,0.2,0.461228495160747,"true"
"image-keyboard-response",33,92489,"0.0-3.7-1.7","nkvf7g8nwth6mg2",713,"44.csv","","null","resources/maskTrios/BT4B.jpg","null","",NA,NA,NA,NA,""
"image-keyboard-response",34,93700,"0.0-3.7-2.7","nkvf7g8nwth6mg2",713,"44.csv","","null","resources/images/coin2.png","null","",NA,NA,NA,NA,""
"image-keyboard-response",35,94821,"0.0-3.8-0.8","nkvf7g8nwth6mg2",713,"44.csv","","1118.6000001430511","resources/trios/L1T1A2.jpg","37","restless",0.8,0.8,0.2,0.0859776828895149,"true"
"image-keyboard-response",36,95234,"0.0-3.8-1.8","nkvf7g8nwth6mg2",713,"44.csv","","null","resources/maskTrios/L1BB.jpg","null","",NA,NA,NA,NA,""
"image-keyboard-response",37,96451,"0.0-3.8-2.8","nkvf7g8nwth6mg2",713,"44.csv","","null","resources/images/coin2.png","null","",NA,NA,NA,NA,""
"image-keyboard-response",38,102516,"0.0-3.9-0.9","nkvf7g8nwth6mg2",713,"44.csv","","6063.200000047684","resources/trios/L2T4A3.jpg","39","restless",0.8,0.8,0.2,0.580730205255238,"false"
"image-keyboard-response",39,102940,"0.0-3.9-1.9","nkvf7g8nwth6mg2",713,"44.csv","","null","resources/maskTrios/BBA3.jpg","null","",NA,NA,NA,NA,""
"image-keyboard-response",40,104161,"0.0-3.9-2.9","nkvf7g8nwth6mg2",713,"44.csv","","null","resources/images/fishbone.png","null","",NA,NA,NA,NA,""
"image-keyboard-response",41,106847,"0.0-3.10-0.10","nkvf7g8nwth6mg2",713,"44.csv","","2684.5999999046326","resources/trios/L1T1A3.jpg","38","restless",0.8,0.8,0.3,0.356976334476276,"true"
"image-keyboard-response",42,107261,"0.0-3.10-1.10","nkvf7g8nwth6mg2",713,"44.csv","","null","resources/maskTrios/BT1B.jpg","null","",NA,NA,NA,NA,""
"image-keyboard-response",43,108481,"0.0-3.10-2.10","nkvf7g8nwth6mg2",713,"44.csv","","null","resources/images/coin2.png","null","",NA,NA,NA,NA,""
"image-keyboard-response",44,110669,"0.0-3.11-0.11","nkvf7g8nwth6mg2",713,"44.csv","","2186.100000143051","resources/trios/L1T4A2.jpg","37","restless",0.8,0.8,0.3,0.273804445858595,"true"
"image-keyboard-response",45,111089,"0.0-3.11-1.11","nkvf7g8nwth6mg2",713,"44.csv","","null","resources/maskTrios/L1BB.jpg","null","",NA,NA,NA,NA,""
"image-keyboard-response",46,112299,"0.0-3.11-2.11","nkvf7g8nwth6mg2",713,"44.csv","","null","resources/images/coin2.png","null","",NA,NA,NA,NA,""
"image-keyboard-response",47,113492,"0.0-3.12-0.12","nkvf7g8nwth6mg2",713,"44.csv","","1191.5","resources/trios/L1T1A2.jpg","38","restless",0.8,0.8,0.3,0.21541346577516,"true"
"image-keyboard-response",48,113902,"0.0-3.12-1.12","nkvf7g8nwth6mg2",713,"44.csv","","null","resources/maskTrios/BT1B.jpg","null","",NA,NA,NA,NA,""
"image-keyboard-response",49,115120,"0.0-3.12-2.12","nkvf7g8nwth6mg2",713,"44.csv","","null","resources/images/coin2.png","null","",NA,NA,NA,NA,""
"image-keyboard-response",50,115979,"0.0-3.13-0.13","nkvf7g8nwth6mg2",713,"44.csv","","857.7000000476837","resources/trios/L2T1A3.jpg","38","restless",0.8,0.8,0.3,0.453329749097915,"true"
"image-keyboard-response",51,116395,"0.0-3.13-1.13","nkvf7g8nwth6mg2",713,"44.csv","","null","resources/maskTrios/BT1B.jpg","null","",NA,NA,NA,NA,""
"image-keyboard-response",52,117613,"0.0-3.13-2.13","nkvf7g8nwth6mg2",713,"44.csv","","null","resources/images/coin2.png","null","",NA,NA,NA,NA,""
"image-keyboard-response",53,119070,"0.0-3.14-0.14","nkvf7g8nwth6mg2",713,"44.csv","","1454.8000001907349","resources/trios/L1T4A3.jpg","37","restless",0.8,0.8,0.3,0.892198753729661,"false"
"image-keyboard-response",54,119484,"0.0-3.14-1.14","nkvf7g8nwth6mg2",713,"44.csv","","null","resources/maskTrios/L1BB.jpg","null","",NA,NA,NA,NA,""
"image-keyboard-response",55,120693,"0.0-3.14-2.14","nkvf7g8nwth6mg2",713,"44.csv","","null","resources/images/fishbone.png","null","",NA,NA,NA,NA,""
"image-keyboard-response",56,121532,"0.0-3.15-0.15","nkvf7g8nwth6mg2",713,"44.csv","","835.7999999523163","resources/trios/L1T1A2.jpg","38","restless",0.8,0.8,0.3,0.976262978059502,"false"
"image-keyboard-response",57,121948,"0.0-3.15-1.15","nkvf7g8nwth6mg2",713,"44.csv","","null","resources/maskTrios/BT1B.jpg","null","",NA,NA,NA,NA,""
"image-keyboard-response",58,123171,"0.0-3.15-2.15","nkvf7g8nwth6mg2",713,"44.csv","","null","resources/images/fishbone.png","null","",NA,NA,NA,NA,""
"image-keyboard-response",59,124916,"0.0-3.16-0.16","nkvf7g8nwth6mg2",713,"44.csv","","1743.8999998569489","resources/trios/L2T4A3.jpg","39","restless",0.8,0.8,0.3,0.485303044626751,"false"
"image-keyboard-response",60,125330,"0.0-3.16-1.16","nkvf7g8nwth6mg2",713,"44.csv","","null","resources/maskTrios/BBA3.jpg","null","",NA,NA,NA,NA,""
"image-keyboard-response",61,126545,"0.0-3.16-2.16","nkvf7g8nwth6mg2",713,"44.csv","","null","resources/images/fishbone.png","null","",NA,NA,NA,NA,""
"image-keyboard-response",62,127116,"0.0-3.17-0.17","nkvf7g8nwth6mg2",713,"44.csv","","568.8999998569489","resources/trios/L2T1A2.jpg","39","restless",0.8,0.8,0.3,0.98826020719383,"false"
"image-keyboard-response",63,127532,"0.0-3.17-1.17","nkvf7g8nwth6mg2",713,"44.csv","","null","resources/maskTrios/BBA2.jpg","null","",NA,NA,NA,NA,""
"image-keyboard-response",64,128755,"0.0-3.17-2.17","nkvf7g8nwth6mg2",713,"44.csv","","null","resources/images/fishbone.png","null","",NA,NA,NA,NA,""
"image-keyboard-response",65,130231,"0.0-3.18-0.18","nkvf7g8nwth6mg2",713,"44.csv","","1475.2999999523163","resources/trios/L1T1A2.jpg","38","restless",0.8,0.8,0.3,0.931260523425102,"false"
"image-keyboard-response",66,130640,"0.0-3.18-1.18","nkvf7g8nwth6mg2",713,"44.csv","","null","resources/maskTrios/BT1B.jpg","null","",NA,NA,NA,NA,""
"image-keyboard-response",67,131859,"0.0-3.18-2.18","nkvf7g8nwth6mg2",713,"44.csv","","null","resources/images/fishbone.png","null","",NA,NA,NA,NA,""
"image-keyboard-response",68,132226,"0.0-3.19-0.19","nkvf7g8nwth6mg2",713,"44.csv","","365","resources/trios/L1T1A3.jpg","37","restless",0.8,0.8,0.3,0.209388926274407,"true"
"image-keyboard-response",69,132645,"0.0-3.19-1.19","nkvf7g8nwth6mg2",713,"44.csv","","null","resources/maskTrios/L1BB.jpg","null","",NA,NA,NA,NA,""
"image-keyboard-response",70,133861,"0.0-3.19-2.19","nkvf7g8nwth6mg2",713,"44.csv","","null","resources/images/coin2.png","null","",NA,NA,NA,NA,""
"image-keyboard-response",71,135167,"0.0-3.20-0.20","nkvf7g8nwth6mg2",713,"44.csv","","1305.0999999046326","resources/trios/L2T4A3.jpg","39","restless",0.8,0.8,0.3,0.292544519155655,"true"
"image-keyboard-response",72,135588,"0.0-3.20-1.20","nkvf7g8nwth6mg2",713,"44.csv","","null","resources/maskTrios/BBA3.jpg","null","",NA,NA,NA,NA,""
"image-keyboard-response",73,136801,"0.0-3.20-2.20","nkvf7g8nwth6mg2",713,"44.csv","","null","resources/images/coin2.png","null","",NA,NA,NA,NA,""
"image-keyboard-response",74,137813,"0.0-3.21-0.21","nkvf7g8nwth6mg2",713,"44.csv","","1010.2999999523163","resources/trios/L1T1A2.jpg","38","restless",0.8,0.7,0.3,0.179332383855893,"true"
"image-keyboard-response",75,138234,"0.0-3.21-1.21","nkvf7g8nwth6mg2",713,"44.csv","","null","resources/maskTrios/BT1B.jpg","null","",NA,NA,NA,NA,""
"image-keyboard-response",76,139449,"0.0-3.21-2.21","nkvf7g8nwth6mg2",713,"44.csv","","null","resources/images/coin2.png","null","",NA,NA,NA,NA,""
"image-keyboard-response",77,140437,"0.0-3.22-0.22","nkvf7g8nwth6mg2",713,"44.csv","","987.5","resources/trios/L2T1A2.jpg","38","restless",0.8,0.8,0.3,0.0817813619667931,"true"
"image-keyboard-response",78,140848,"0.0-3.22-1.22","nkvf7g8nwth6mg2",713,"44.csv","","null","resources/maskTrios/BT1B.jpg","null","",NA,NA,NA,NA,""
"image-keyboard-response",79,142055,"0.0-3.22-2.22","nkvf7g8nwth6mg2",713,"44.csv","","null","resources/images/coin2.png","null","",NA,NA,NA,NA,""
"image-keyboard-response",80,143507,"0.0-3.23-0.23","nkvf7g8nwth6mg2",713,"44.csv","","1450.0999999046326","resources/trios/L2T4A2.jpg","39","restless",0.8,0.8,0.3,0.509638214651249,"false"
"image-keyboard-response",81,143910,"0.0-3.23-1.23","nkvf7g8nwth6mg2",713,"44.csv","","null","resources/maskTrios/BBA2.jpg","null","",NA,NA,NA,NA,""
"image-keyboard-response",82,145135,"0.0-3.23-2.23","nkvf7g8nwth6mg2",713,"44.csv","","null","resources/images/fishbone.png","null","",NA,NA,NA,NA,""
"image-keyboard-response",83,146029,"0.0-3.24-0.24","nkvf7g8nwth6mg2",713,"44.csv","","891.8999998569489","resources/trios/L2T4A3.jpg","37","restless",0.8,0.8,0.3,0.891276108716997,"false"
"image-keyboard-response",84,146452,"0.0-3.24-1.24","nkvf7g8nwth6mg2",713,"44.csv","","null","resources/maskTrios/L2BB.jpg","null","",NA,NA,NA,NA,""
"image-keyboard-response",85,147667,"0.0-3.24-2.24","nkvf7g8nwth6mg2",713,"44.csv","","null","resources/images/fishbone.png","null","",NA,NA,NA,NA,""
"image-keyboard-response",86,148013,"0.0-3.25-0.25","nkvf7g8nwth6mg2",713,"44.csv","","344","resources/trios/L1T1A3.jpg","38","restless",0.7,0.8,0.4,0.010865534925578,"true"
"image-keyboard-response",87,148429,"0.0-3.25-1.25","nkvf7g8nwth6mg2",713,"44.csv","","null","resources/maskTrios/BT1B.jpg","null","",NA,NA,NA,NA,""
"image-keyboard-response",88,149651,"0.0-3.25-2.25","nkvf7g8nwth6mg2",713,"44.csv","","null","resources/images/coin2.png","null","",NA,NA,NA,NA,""
"image-keyboard-response",89,150740,"0.0-3.26-0.26","nkvf7g8nwth6mg2",713,"44.csv","","1088","resources/trios/L1T1A2.jpg","38","restless",0.7,0.7,0.4,0.407935508687047,"true"
"image-keyboard-response",90,151154,"0.0-3.26-1.26","nkvf7g8nwth6mg2",713,"44.csv","","null","resources/maskTrios/BT1B.jpg","null","",NA,NA,NA,NA,""
"image-keyboard-response",91,152373,"0.0-3.26-2.26","nkvf7g8nwth6mg2",713,"44.csv","","null","resources/images/coin2.png","null","",NA,NA,NA,NA,""
"image-keyboard-response",92,153620,"0.0-3.27-0.27","nkvf7g8nwth6mg2",713,"44.csv","","1244.8000001907349","resources/trios/L1T4A2.jpg","37","restless",0.7,0.7,0.4,0.0232667030840907,"true"
"image-keyboard-response",93,154026,"0.0-3.27-1.27","nkvf7g8nwth6mg2",713,"44.csv","","null","resources/maskTrios/L1BB.jpg","null","",NA,NA,NA,NA,""
"image-keyboard-response",94,155234,"0.0-3.27-2.27","nkvf7g8nwth6mg2",713,"44.csv","","null","resources/images/coin2.png","null","",NA,NA,NA,NA,""
"image-keyboard-response",95,156763,"0.0-3.28-0.28","nkvf7g8nwth6mg2",713,"44.csv","","1527.2000000476837","resources/trios/L2T4A2.jpg","39","restless",0.7,0.7,0.4,0.720996505667009,"false"
"image-keyboard-response",96,157179,"0.0-3.28-1.28","nkvf7g8nwth6mg2",713,"44.csv","","null","resources/maskTrios/BBA2.jpg","null","",NA,NA,NA,NA,""
"image-keyboard-response",97,158385,"0.0-3.28-2.28","nkvf7g8nwth6mg2",713,"44.csv","","null","resources/images/fishbone.png","null","",NA,NA,NA,NA,""
"image-keyboard-response",98,159375,"0.0-3.29-0.29","nkvf7g8nwth6mg2",713,"44.csv","","987.4000000953674","resources/trios/L1T1A2.jpg","38","restless",0.6,0.7,0.4,0.0255037302085119,"true"
"image-keyboard-response",99,159785,"0.0-3.29-1.29","nkvf7g8nwth6mg2",713,"44.csv","","null","resources/maskTrios/BT1B.jpg","null","",NA,NA,NA,NA,""
"image-keyboard-response",100,161001,"0.0-3.29-2.29","nkvf7g8nwth6mg2",713,"44.csv","","null","resources/images/coin2.png","null","",NA,NA,NA,NA,""
"image-keyboard-response",101,161786,"0.0-3.30-0.30","nkvf7g8nwth6mg2",713,"44.csv","","784","resources/trios/L1T1A3.jpg","38","restless",0.6,0.7,0.4,0.853307556300806,"false"
"image-keyboard-response",102,162202,"0.0-3.30-1.30","nkvf7g8nwth6mg2",713,"44.csv","","null","resources/maskTrios/BT1B.jpg","null","",NA,NA,NA,NA,""
"image-keyboard-response",103,163409,"0.0-3.30-2.30","nkvf7g8nwth6mg2",713,"44.csv","","null","resources/images/fishbone.png","null","",NA,NA,NA,NA,""
"image-keyboard-response",104,163795,"0.0-3.31-0.31","nkvf7g8nwth6mg2",713,"44.csv","","385.19999980926514","resources/trios/L1T1A3.jpg","37","restless",0.6,0.6,0.4,0.0518109262983981,"true"
"image-keyboard-response",105,164209,"0.0-3.31-1.31","nkvf7g8nwth6mg2",713,"44.csv","","null","resources/maskTrios/L1BB.jpg","null","",NA,NA,NA,NA,""
"image-keyboard-response",106,165428,"0.0-3.31-2.31","nkvf7g8nwth6mg2",713,"44.csv","","null","resources/images/coin2.png","null","",NA,NA,NA,NA,""
"image-keyboard-response",107,166614,"0.0-3.32-0.32","nkvf7g8nwth6mg2",713,"44.csv","","1184.4000000953674","resources/trios/L1T1A2.jpg","38","restless",0.6,0.6,0.4,0.0733448740508476,"true"
"image-keyboard-response",108,167026,"0.0-3.32-1.32","nkvf7g8nwth6mg2",713,"44.csv","","null","resources/maskTrios/BT1B.jpg","null","",NA,NA,NA,NA,""
"image-keyboard-response",109,168232,"0.0-3.32-2.32","nkvf7g8nwth6mg2",713,"44.csv","","null","resources/images/coin2.png","null","",NA,NA,NA,NA,""
"image-keyboard-response",110,169894,"0.0-3.33-0.33","nkvf7g8nwth6mg2",713,"44.csv","","1661.1000001430511","resources/trios/L2T4A3.jpg","39","restless",0.5,0.6,0.4,0.667233371530623,"false"
"image-keyboard-response",111,170318,"0.0-3.33-1.33","nkvf7g8nwth6mg2",713,"44.csv","","null","resources/maskTrios/BBA3.jpg","null","",NA,NA,NA,NA,""
"image-keyboard-response",112,171535,"0.0-3.33-2.33","nkvf7g8nwth6mg2",713,"44.csv","","null","resources/images/fishbone.png","null","",NA,NA,NA,NA,""
"image-keyboard-response",113,173334,"0.0-3.34-0.34","nkvf7g8nwth6mg2",713,"44.csv","","1796.5999999046326","resources/trios/L1T4A3.jpg","37","restless",0.5,0.6,0.5,0.191128208114077,"true"
"image-keyboard-response",114,173754,"0.0-3.34-1.34","nkvf7g8nwth6mg2",713,"44.csv","","null","resources/maskTrios/L1BB.jpg","null","",NA,NA,NA,NA,""
"image-keyboard-response",115,174966,"0.0-3.34-2.34","nkvf7g8nwth6mg2",713,"44.csv","","null","resources/images/coin2.png","null","",NA,NA,NA,NA,""
"image-keyboard-response",116,176811,"0.0-3.35-0.35","nkvf7g8nwth6mg2",713,"44.csv","","1844.2999999523163","resources/trios/L1T1A2.jpg","38","restless",0.5,0.6,0.5,0.741818537875498,"false"
"image-keyboard-response",117,177233,"0.0-3.35-1.35","nkvf7g8nwth6mg2",713,"44.csv","","null","resources/maskTrios/BT1B.jpg","null","",NA,NA,NA,NA,""
"image-keyboard-response",118,178451,"0.0-3.35-2.35","nkvf7g8nwth6mg2",713,"44.csv","","null","resources/images/fishbone.png","null","",NA,NA,NA,NA,""
"image-keyboard-response",119,178705,"0.0-3.36-0.36","nkvf7g8nwth6mg2",713,"44.csv","","251.80000019073486","resources/trios/L1T1A2.jpg","37","restless",0.5,0.6,0.5,0.167530284267777,"true"
"image-keyboard-response",120,179123,"0.0-3.36-1.36","nkvf7g8nwth6mg2",713,"44.csv","","null","resources/maskTrios/L1BB.jpg","null","",NA,NA,NA,NA,""
"image-keyboard-response",121,180340,"0.0-3.36-2.36","nkvf7g8nwth6mg2",713,"44.csv","","null","resources/images/coin2.png","null","",NA,NA,NA,NA,""
"image-keyboard-response",122,182551,"0.0-3.37-0.37","nkvf7g8nwth6mg2",713,"44.csv","","2210","resources/trios/L2T4A3.jpg","39","restless",0.5,0.6,0.5,0.265019766781589,"true"
"image-keyboard-response",123,182962,"0.0-3.37-1.37","nkvf7g8nwth6mg2",713,"44.csv","","null","resources/maskTrios/BBA3.jpg","null","",NA,NA,NA,NA,""
"image-keyboard-response",124,184180,"0.0-3.37-2.37","nkvf7g8nwth6mg2",713,"44.csv","","null","resources/images/coin2.png","null","",NA,NA,NA,NA,""
"image-keyboard-response",125,185837,"0.0-3.38-0.38","nkvf7g8nwth6mg2",713,"44.csv","","1655.7000000476837","resources/trios/L1T4A2.jpg","37","restless",0.5,0.6,0.5,0.774007518258274,"false"
"image-keyboard-response",126,186252,"0.0-3.38-1.38","nkvf7g8nwth6mg2",713,"44.csv","","null","resources/maskTrios/L1BB.jpg","null","",NA,NA,NA,NA,""
"image-keyboard-response",127,187457,"0.0-3.38-2.38","nkvf7g8nwth6mg2",713,"44.csv","","null","resources/images/fishbone.png","null","",NA,NA,NA,NA,""
"image-keyboard-response",128,188270,"0.0-3.39-0.39","nkvf7g8nwth6mg2",713,"44.csv","","810.8999998569489","resources/trios/L2T1A2.jpg","38","restless",0.5,0.6,0.5,0.382078210633962,"true"
"image-keyboard-response",129,188686,"0.0-3.39-1.39","nkvf7g8nwth6mg2",713,"44.csv","","null","resources/maskTrios/BT1B.jpg","null","",NA,NA,NA,NA,""
"image-keyboard-response",130,189895,"0.0-3.39-2.39","nkvf7g8nwth6mg2",713,"44.csv","","null","resources/images/coin2.png","null","",NA,NA,NA,NA,""
"image-keyboard-response",131,190725,"0.0-3.40-0.40","nkvf7g8nwth6mg2",713,"44.csv","","828.3999998569489","resources/trios/L1T1A3.jpg","37","restless",0.6,0.6,0.5,0.739603355481815,"false"
"image-keyboard-response",132,191145,"0.0-3.40-1.40","nkvf7g8nwth6mg2",713,"44.csv","","null","resources/maskTrios/L1BB.jpg","null","",NA,NA,NA,NA,""
"image-keyboard-response",133,192360,"0.0-3.40-2.40","nkvf7g8nwth6mg2",713,"44.csv","","null","resources/images/fishbone.png","null","",NA,NA,NA,NA,""
"image-keyboard-response",134,192755,"0.0-3.41-0.41","nkvf7g8nwth6mg2",713,"44.csv","","393.69999980926514","resources/trios/L1T4A3.jpg","38","restless",0.6,0.6,0.5,0.369643802355119,"true"
"image-keyboard-response",135,193169,"0.0-3.41-1.41","nkvf7g8nwth6mg2",713,"44.csv","","null","resources/maskTrios/BT4B.jpg","null","",NA,NA,NA,NA,""
"image-keyboard-response",136,194382,"0.0-3.41-2.41","nkvf7g8nwth6mg2",713,"44.csv","","null","resources/images/coin2.png","null","",NA,NA,NA,NA,""
"image-keyboard-response",137,195343,"0.0-3.42-0.42","nkvf7g8nwth6mg2",713,"44.csv","","959.9000000953674","resources/trios/L1T4A2.jpg","38","restless",0.6,0.5,0.5,0.193506748128526,"true"
"image-keyboard-response",138,195751,"0.0-3.42-1.42","nkvf7g8nwth6mg2",713,"44.csv","","null","resources/maskTrios/BT4B.jpg","null","",NA,NA,NA,NA,""
"image-keyboard-response",139,196965,"0.0-3.42-2.42","nkvf7g8nwth6mg2",713,"44.csv","","null","resources/images/coin2.png","null","",NA,NA,NA,NA,""
"image-keyboard-response",140,200841,"0.0-3.43-0.43","nkvf7g8nwth6mg2",713,"44.csv","","3875.100000143051","resources/trios/L2T4A2.jpg","38","restless",0.6,0.5,0.5,0.659742256496046,"false"
"image-keyboard-response",141,201252,"0.0-3.43-1.43","nkvf7g8nwth6mg2",713,"44.csv","","null","resources/maskTrios/BT4B.jpg","null","",NA,NA,NA,NA,""
"image-keyboard-response",142,202455,"0.0-3.43-2.43","nkvf7g8nwth6mg2",713,"44.csv","","null","resources/images/fishbone.png","null","",NA,NA,NA,NA,""
"image-keyboard-response",143,203496,"0.0-3.44-0.44","nkvf7g8nwth6mg2",713,"44.csv","","1040","resources/trios/L1T1A2.jpg","38","restless",0.6,0.5,0.6,0.346580578255338,"true"
"image-keyboard-response",144,203904,"0.0-3.44-1.44","nkvf7g8nwth6mg2",713,"44.csv","","null","resources/maskTrios/BT1B.jpg","null","",NA,NA,NA,NA,""
"image-keyboard-response",145,205119,"0.0-3.44-2.44","nkvf7g8nwth6mg2",713,"44.csv","","null","resources/images/coin2.png","null","",NA,NA,NA,NA,""
"image-keyboard-response",146,206187,"0.0-3.45-0.45","nkvf7g8nwth6mg2",713,"44.csv","","1066.5999999046326","resources/trios/L1T4A2.jpg","37","restless",0.6,0.5,0.6,0.729993437859438,"false"
"image-keyboard-response",147,206605,"0.0-3.45-1.45","nkvf7g8nwth6mg2",713,"44.csv","","null","resources/maskTrios/L1BB.jpg","null","",NA,NA,NA,NA,""
"image-keyboard-response",148,207819,"0.0-3.45-2.45","nkvf7g8nwth6mg2",713,"44.csv","","null","resources/images/fishbone.png","null","",NA,NA,NA,NA,""
"image-keyboard-response",149,208965,"0.0-3.46-0.46","nkvf7g8nwth6mg2",713,"44.csv","","1145.2000000476837","resources/trios/L1T4A3.jpg","38","restless",0.6,0.5,0.6,0.437303640133868,"true"
"image-keyboard-response",150,209375,"0.0-3.46-1.46","nkvf7g8nwth6mg2",713,"44.csv","","null","resources/maskTrios/BT4B.jpg","null","",NA,NA,NA,NA,""
"image-keyboard-response",151,210585,"0.0-3.46-2.46","nkvf7g8nwth6mg2",713,"44.csv","","null","resources/images/coin2.png","null","",NA,NA,NA,NA,""
"image-keyboard-response",152,211674,"0.0-3.47-0.47","nkvf7g8nwth6mg2",713,"44.csv","","1087.6999998092651","resources/trios/L2T1A3.jpg","38","restless",0.6,0.5,0.7,0.570775415558689,"false"
"image-keyboard-response",153,212083,"0.0-3.47-1.47","nkvf7g8nwth6mg2",713,"44.csv","","null","resources/maskTrios/BT1B.jpg","null","",NA,NA,NA,NA,""
"image-keyboard-response",154,213293,"0.0-3.47-2.47","nkvf7g8nwth6mg2",713,"44.csv","","null","resources/images/fishbone.png","null","",NA,NA,NA,NA,""
"image-keyboard-response",155,214189,"0.0-3.48-0.48","nkvf7g8nwth6mg2",713,"44.csv","","894.8999998569489","resources/trios/L2T1A3.jpg","39","restless",0.6,0.5,0.7,0.840513298390504,"false"
"image-keyboard-response",156,214609,"0.0-3.48-1.48","nkvf7g8nwth6mg2",713,"44.csv","","null","resources/maskTrios/BBA3.jpg","null","",NA,NA,NA,NA,""
"image-keyboard-response",157,215819,"0.0-3.48-2.48","nkvf7g8nwth6mg2",713,"44.csv","","null","resources/images/fishbone.png","null","",NA,NA,NA,NA,""
"image-keyboard-response",158,216738,"0.0-3.49-0.49","nkvf7g8nwth6mg2",713,"44.csv","","916.7000000476837","resources/trios/L2T1A2.jpg","38","restless",0.6,0.5,0.7,0.0668794150298384,"true"
"image-keyboard-response",159,217155,"0.0-3.49-1.49","nkvf7g8nwth6mg2",713,"44.csv","","null","resources/maskTrios/BT1B.jpg","null","",NA,NA,NA,NA,""
"image-keyboard-response",160,218366,"0.0-3.49-2.49","nkvf7g8nwth6mg2",713,"44.csv","","null","resources/images/coin2.png","null","",NA,NA,NA,NA,""
"image-keyboard-response",161,220806,"0.0-3.50-0.50","nkvf7g8nwth6mg2",713,"44.csv","","2438.2999999523163","resources/trios/L1T4A2.jpg","38","restless",0.6,0.5,0.7,0.990267725358713,"false"
"image-keyboard-response",162,221215,"0.0-3.50-1.50","nkvf7g8nwth6mg2",713,"44.csv","","null","resources/maskTrios/BT4B.jpg","null","",NA,NA,NA,NA,""
"image-keyboard-response",163,222425,"0.0-3.50-2.50","nkvf7g8nwth6mg2",713,"44.csv","","null","resources/images/fishbone.png","null","",NA,NA,NA,NA,""
"image-keyboard-response",164,224749,"0.0-3.51-0.51","nkvf7g8nwth6mg2",713,"44.csv","","2321.7999999523163","resources/trios/L2T4A3.jpg","38","restless",0.6,0.5,0.7,0.0396652816659404,"true"
"image-keyboard-response",165,225168,"0.0-3.51-1.51","nkvf7g8nwth6mg2",713,"44.csv","","null","resources/maskTrios/BT4B.jpg","null","",NA,NA,NA,NA,""
"image-keyboard-response",166,226388,"0.0-3.51-2.51","nkvf7g8nwth6mg2",713,"44.csv","","null","resources/images/coin2.png","null","",NA,NA,NA,NA,""
"image-keyboard-response",167,227882,"0.0-3.52-0.52","nkvf7g8nwth6mg2",713,"44.csv","","1492","resources/trios/L2T4A2.jpg","38","restless",0.6,0.5,0.7,0.739438814796863,"false"
"image-keyboard-response",168,228293,"0.0-3.52-1.52","nkvf7g8nwth6mg2",713,"44.csv","","null","resources/maskTrios/BT4B.jpg","null","",NA,NA,NA,NA,""
"image-keyboard-response",169,229503,"0.0-3.52-2.52","nkvf7g8nwth6mg2",713,"44.csv","","null","resources/images/fishbone.png","null","",NA,NA,NA,NA,""
"image-keyboard-response",170,230912,"0.0-3.53-0.53","nkvf7g8nwth6mg2",713,"44.csv","","1407.4000000953674","resources/trios/L1T1A2.jpg","38","restless",0.6,0.5,0.7,0.903067724142977,"false"
"image-keyboard-response",171,231322,"0.0-3.53-1.53","nkvf7g8nwth6mg2",713,"44.csv","","null","resources/maskTrios/BT1B.jpg","null","",NA,NA,NA,NA,""
"image-keyboard-response",172,232536,"0.0-3.53-2.53","nkvf7g8nwth6mg2",713,"44.csv","","null","resources/images/fishbone.png","null","",NA,NA,NA,NA,""
"image-keyboard-response",173,233717,"0.0-3.54-0.54","nkvf7g8nwth6mg2",713,"44.csv","","1178.8999998569489","resources/trios/L2T1A3.jpg","38","restless",0.6,0.5,0.6,0.323808010607527,"true"
"image-keyboard-response",174,234140,"0.0-3.54-1.54","nkvf7g8nwth6mg2",713,"44.csv","","null","resources/maskTrios/BT1B.jpg","null","",NA,NA,NA,NA,""
"image-keyboard-response",175,235350,"0.0-3.54-2.54","nkvf7g8nwth6mg2",713,"44.csv","","null","resources/images/coin2.png","null","",NA,NA,NA,NA,""
"image-keyboard-response",176,236827,"0.0-3.55-0.55","nkvf7g8nwth6mg2",713,"44.csv","","1475.0999999046326","resources/trios/L1T1A2.jpg","37","restless",0.6,0.6,0.6,0.0172794039988526,"true"
"image-keyboard-response",177,237234,"0.0-3.55-1.55","nkvf7g8nwth6mg2",713,"44.csv","","null","resources/maskTrios/L1BB.jpg","null","",NA,NA,NA,NA,""
"image-keyboard-response",178,238442,"0.0-3.55-2.55","nkvf7g8nwth6mg2",713,"44.csv","","null","resources/images/coin2.png","null","",NA,NA,NA,NA,""
"image-keyboard-response",179,239155,"0.0-3.56-0.56","nkvf7g8nwth6mg2",713,"44.csv","","712.7000000476837","resources/trios/L2T1A2.jpg","38","restless",0.6,0.6,0.6,0.190793962896657,"true"
"image-keyboard-response",180,239569,"0.0-3.56-1.56","nkvf7g8nwth6mg2",713,"44.csv","","null","resources/maskTrios/BT1B.jpg","null","",NA,NA,NA,NA,""
"image-keyboard-response",181,240784,"0.0-3.56-2.56","nkvf7g8nwth6mg2",713,"44.csv","","null","resources/images/coin2.png","null","",NA,NA,NA,NA,""
"image-keyboard-response",182,245565,"0.0-3.57-0.57","nkvf7g8nwth6mg2",713,"44.csv","","4779.799999952316","resources/trios/L1T1A3.jpg","38","restless",0.6,0.5,0.6,0.504597056087452,"false"
"image-keyboard-response",183,245986,"0.0-3.57-1.57","nkvf7g8nwth6mg2",713,"44.csv","","null","resources/maskTrios/BT1B.jpg","null","",NA,NA,NA,NA,""
"image-keyboard-response",184,247193,"0.0-3.57-2.57","nkvf7g8nwth6mg2",713,"44.csv","","null","resources/images/fishbone.png","null","",NA,NA,NA,NA,""
"image-keyboard-response",185,249048,"0.0-3.58-0.58","nkvf7g8nwth6mg2",713,"44.csv","","1853.1999998092651","resources/trios/L2T4A3.jpg","38","restless",0.6,0.5,0.6,0.648300855772856,"false"
"image-keyboard-response",186,249469,"0.0-3.58-1.58","nkvf7g8nwth6mg2",713,"44.csv","","null","resources/maskTrios/BT4B.jpg","null","",NA,NA,NA,NA,""
"image-keyboard-response",187,250691,"0.0-3.58-2.58","nkvf7g8nwth6mg2",713,"44.csv","","null","resources/images/fishbone.png","null","",NA,NA,NA,NA,""
"image-keyboard-response",188,253207,"0.0-3.59-0.59","nkvf7g8nwth6mg2",713,"44.csv","","2514.2999999523163","resources/trios/L2T4A2.jpg","39","restless",0.6,0.5,0.6,0.54218787566889,"true"
"image-keyboard-response",189,253619,"0.0-3.59-1.59","nkvf7g8nwth6mg2",713,"44.csv","","null","resources/maskTrios/BBA2.jpg","null","",NA,NA,NA,NA,""
"image-keyboard-response",190,254836,"0.0-3.59-2.59","nkvf7g8nwth6mg2",713,"44.csv","","null","resources/images/coin2.png","null","",NA,NA,NA,NA,""
"image-keyboard-response",191,255872,"0.0-3.60-0.60","nkvf7g8nwth6mg2",713,"44.csv","","1034.5","resources/trios/L2T4A2.jpg","39","restless",0.6,0.5,0.6,0.414446990344579,"true"
"image-keyboard-response",192,256292,"0.0-3.60-1.60","nkvf7g8nwth6mg2",713,"44.csv","","null","resources/maskTrios/BBA2.jpg","null","",NA,NA,NA,NA,""
"image-keyboard-response",193,257516,"0.0-3.60-2.60","nkvf7g8nwth6mg2",713,"44.csv","","null","resources/images/coin2.png","null","",NA,NA,NA,NA,""
"image-keyboard-response",194,258908,"0.0-3.61-0.61","nkvf7g8nwth6mg2",713,"44.csv","","1390.8999998569489","resources/trios/L2T1A3.jpg","38","restless",0.6,0.4,0.6,0.644473916947489,"false"
"image-keyboard-response",195,259318,"0.0-3.61-1.61","nkvf7g8nwth6mg2",713,"44.csv","","null","resources/maskTrios/BT1B.jpg","null","",NA,NA,NA,NA,""
"image-keyboard-response",196,260527,"0.0-3.61-2.61","nkvf7g8nwth6mg2",713,"44.csv","","null","resources/images/fishbone.png","null","",NA,NA,NA,NA,""
"image-keyboard-response",197,261624,"0.0-3.62-0.62","nkvf7g8nwth6mg2",713,"44.csv","","1095.7999999523163","resources/trios/L2T1A2.jpg","39","restless",0.6,0.4,0.6,0.46935370215531,"true"
"image-keyboard-response",198,262044,"0.0-3.62-1.62","nkvf7g8nwth6mg2",713,"44.csv","","null","resources/maskTrios/BBA2.jpg","null","",NA,NA,NA,NA,""
"image-keyboard-response",199,263260,"0.0-3.62-2.62","nkvf7g8nwth6mg2",713,"44.csv","","null","resources/images/coin2.png","null","",NA,NA,NA,NA,""
"image-keyboard-response",200,269419,"0.0-3.63-0.63","nkvf7g8nwth6mg2",713,"44.csv","","6156.399999856949","resources/trios/L1T4A3.jpg","38","restless",0.6,0.3,0.6,0.377390030735318,"false"
"image-keyboard-response",201,269833,"0.0-3.63-1.63","nkvf7g8nwth6mg2",713,"44.csv","","null","resources/maskTrios/BT4B.jpg","null","",NA,NA,NA,NA,""
"image-keyboard-response",202,271053,"0.0-3.63-2.63","nkvf7g8nwth6mg2",713,"44.csv","","null","resources/images/fishbone.png","null","",NA,NA,NA,NA,""
"image-keyboard-response",203,272602,"0.0-3.64-0.64","nkvf7g8nwth6mg2",713,"44.csv","","1547.0999999046326","resources/trios/L2T1A2.jpg","38","restless",0.7,0.3,0.6,0.103274417397801,"true"
"image-keyboard-response",204,273013,"0.0-3.64-1.64","nkvf7g8nwth6mg2",713,"44.csv","","null","resources/maskTrios/BT1B.jpg","null","",NA,NA,NA,NA,""
"image-keyboard-response",205,274229,"0.0-3.64-2.64","nkvf7g8nwth6mg2",713,"44.csv","","null","resources/images/coin2.png","null","",NA,NA,NA,NA,""
"image-keyboard-response",206,276733,"0.0-3.65-0.65","nkvf7g8nwth6mg2",713,"44.csv","","2503.2999999523163","resources/trios/L1T4A3.jpg","39","restless",0.7,0.3,0.6,0.252285750340686,"true"
"image-keyboard-response",207,277156,"0.0-3.65-1.65","nkvf7g8nwth6mg2",713,"44.csv","","null","resources/maskTrios/BBA3.jpg","null","",NA,NA,NA,NA,""
"image-keyboard-response",208,278372,"0.0-3.65-2.65","nkvf7g8nwth6mg2",713,"44.csv","","null","resources/images/coin2.png","null","",NA,NA,NA,NA,""
"image-keyboard-response",209,280042,"0.0-3.66-0.66","nkvf7g8nwth6mg2",713,"44.csv","","1668.2000000476837","resources/trios/L1T1A3.jpg","38","restless",0.7,0.3,0.6,0.970369692211364,"false"
"image-keyboard-response",210,280453,"0.0-3.66-1.66","nkvf7g8nwth6mg2",713,"44.csv","","null","resources/maskTrios/BT1B.jpg","null","",NA,NA,NA,NA,""
"image-keyboard-response",211,281674,"0.0-3.66-2.66","nkvf7g8nwth6mg2",713,"44.csv","","null","resources/images/fishbone.png","null","",NA,NA,NA,NA,""
"image-keyboard-response",212,284088,"0.0-3.67-0.67","nkvf7g8nwth6mg2",713,"44.csv","","2412.4000000953674","resources/trios/L1T4A3.jpg","39","restless",0.7,0.3,0.6,0.525963839598911,"true"
"image-keyboard-response",213,284508,"0.0-3.67-1.67","nkvf7g8nwth6mg2",713,"44.csv","","null","resources/maskTrios/BBA3.jpg","null","",NA,NA,NA,NA,""
"image-keyboard-response",214,285718,"0.0-3.67-2.67","nkvf7g8nwth6mg2",713,"44.csv","","null","resources/images/coin2.png","null","",NA,NA,NA,NA,""
"image-keyboard-response",215,286736,"0.0-3.68-0.68","nkvf7g8nwth6mg2",713,"44.csv","","1016.7000000476837","resources/trios/L1T4A3.jpg","39","restless",0.7,0.3,0.6,0.450904117514854,"true"
"image-keyboard-response",216,287149,"0.0-3.68-1.68","nkvf7g8nwth6mg2",713,"44.csv","","null","resources/maskTrios/BBA3.jpg","null","",NA,NA,NA,NA,""
"image-keyboard-response",217,288368,"0.0-3.68-2.68","nkvf7g8nwth6mg2",713,"44.csv","","null","resources/images/coin2.png","null","",NA,NA,NA,NA,""
"image-keyboard-response",218,290509,"0.0-3.69-0.69","nkvf7g8nwth6mg2",713,"44.csv","","2138.7999999523163","resources/trios/L1T1A2.jpg","38","restless",0.7,0.3,0.6,0.451947865817566,"false"
"image-keyboard-response",219,290920,"0.0-3.69-1.69","nkvf7g8nwth6mg2",713,"44.csv","","null","resources/maskTrios/BT1B.jpg","null","",NA,NA,NA,NA,""
"image-keyboard-response",220,292128,"0.0-3.69-2.69","nkvf7g8nwth6mg2",713,"44.csv","","null","resources/images/fishbone.png","null","",NA,NA,NA,NA,""
"image-keyboard-response",221,294107,"0.0-3.70-0.70","nkvf7g8nwth6mg2",713,"44.csv","","1977.8999998569489","resources/trios/L1T4A2.jpg","38","restless",0.7,0.3,0.6,0.223190475139497,"true"
"image-keyboard-response",222,294521,"0.0-3.70-1.70","nkvf7g8nwth6mg2",713,"44.csv","","null","resources/maskTrios/BT4B.jpg","null","",NA,NA,NA,NA,""
"image-keyboard-response",223,295739,"0.0-3.70-2.70","nkvf7g8nwth6mg2",713,"44.csv","","null","resources/images/coin2.png","null","",NA,NA,NA,NA,""
"image-keyboard-response",224,298035,"0.0-3.71-0.71","nkvf7g8nwth6mg2",713,"44.csv","","2294","resources/trios/L2T1A2.jpg","39","restless",0.7,0.2,0.6,0.107852793573358,"true"
"image-keyboard-response",225,298443,"0.0-3.71-1.71","nkvf7g8nwth6mg2",713,"44.csv","","null","resources/maskTrios/BBA2.jpg","null","",NA,NA,NA,NA,""
"image-keyboard-response",226,299661,"0.0-3.71-2.71","nkvf7g8nwth6mg2",713,"44.csv","","null","resources/images/coin2.png","null","",NA,NA,NA,NA,""
"image-keyboard-response",227,301798,"0.0-3.72-0.72","nkvf7g8nwth6mg2",713,"44.csv","","2134.5999999046326","resources/trios/L1T1A2.jpg","39","restless",0.7,0.2,0.6,0.246524491933954,"true"
"image-keyboard-response",228,302215,"0.0-3.72-1.72","nkvf7g8nwth6mg2",713,"44.csv","","null","resources/maskTrios/BBA2.jpg","null","",NA,NA,NA,NA,""
"image-keyboard-response",229,303423,"0.0-3.72-2.72","nkvf7g8nwth6mg2",713,"44.csv","","null","resources/images/coin2.png","null","",NA,NA,NA,NA,""
"image-keyboard-response",230,305399,"0.0-3.73-0.73","nkvf7g8nwth6mg2",713,"44.csv","","1975.2000000476837","resources/trios/L2T4A3.jpg","39","restless",0.7,0.2,0.6,0.655411491903877,"false"
"image-keyboard-response",231,305813,"0.0-3.73-1.73","nkvf7g8nwth6mg2",713,"44.csv","","null","resources/maskTrios/BBA3.jpg","null","",NA,NA,NA,NA,""
"image-keyboard-response",232,307033,"0.0-3.73-2.73","nkvf7g8nwth6mg2",713,"44.csv","","null","resources/images/fishbone.png","null","",NA,NA,NA,NA,""
"image-keyboard-response",233,308735,"0.0-3.74-0.74","nkvf7g8nwth6mg2",713,"44.csv","","1700.8999998569489","resources/trios/L1T1A2.jpg","38","restless",0.7,0.3,0.6,0.482247080823202,"false"
"image-keyboard-response",234,309143,"0.0-3.74-1.74","nkvf7g8nwth6mg2",713,"44.csv","","null","resources/maskTrios/BT1B.jpg","null","",NA,NA,NA,NA,""
"image-keyboard-response",235,310354,"0.0-3.74-2.74","nkvf7g8nwth6mg2",713,"44.csv","","null","resources/images/fishbone.png","null","",NA,NA,NA,NA,""
"image-keyboard-response",236,311893,"0.0-3.75-0.75","nkvf7g8nwth6mg2",713,"44.csv","","1537.1000001430511","resources/trios/L2T4A2.jpg","39","restless",0.7,0.3,0.5,0.293563913823553,"true"
"image-keyboard-response",237,312307,"0.0-3.75-1.75","nkvf7g8nwth6mg2",713,"44.csv","","null","resources/maskTrios/BBA2.jpg","null","",NA,NA,NA,NA,""
"image-keyboard-response",238,313510,"0.0-3.75-2.75","nkvf7g8nwth6mg2",713,"44.csv","","null","resources/images/coin2.png","null","",NA,NA,NA,NA,""
"image-keyboard-response",239,316303,"0.0-3.76-0.76","nkvf7g8nwth6mg2",713,"44.csv","","2791.4000000953674","resources/trios/L1T1A3.jpg","38","restless",0.7,0.3,0.5,0.674926362123645,"false"
"image-keyboard-response",240,316717,"0.0-3.76-1.76","nkvf7g8nwth6mg2",713,"44.csv","","null","resources/maskTrios/BT1B.jpg","null","",NA,NA,NA,NA,""
"image-keyboard-response",241,317940,"0.0-3.76-2.76","nkvf7g8nwth6mg2",713,"44.csv","","null","resources/images/fishbone.png","null","",NA,NA,NA,NA,""
"image-keyboard-response",242,318458,"0.0-3.77-0.77","nkvf7g8nwth6mg2",713,"44.csv","","515.5999999046326","resources/trios/L1T1A3.jpg","37","restless",0.7,0.3,0.5,0.701314245438229,"false"
"image-keyboard-response",243,318865,"0.0-3.77-1.77","nkvf7g8nwth6mg2",713,"44.csv","","null","resources/maskTrios/L1BB.jpg","null","",NA,NA,NA,NA,""
"image-keyboard-response",244,320072,"0.0-3.77-2.77","nkvf7g8nwth6mg2",713,"44.csv","","null","resources/images/fishbone.png","null","",NA,NA,NA,NA,""
"image-keyboard-response",245,320843,"0.0-3.78-0.78","nkvf7g8nwth6mg2",713,"44.csv","","769.5","resources/trios/L1T1A3.jpg","39","restless",0.7,0.3,0.5,0.444022014708465,"true"
"image-keyboard-response",246,321255,"0.0-3.78-1.78","nkvf7g8nwth6mg2",713,"44.csv","","null","resources/maskTrios/BBA3.jpg","null","",NA,NA,NA,NA,""
"image-keyboard-response",247,322474,"0.0-3.78-2.78","nkvf7g8nwth6mg2",713,"44.csv","","null","resources/images/coin2.png","null","",NA,NA,NA,NA,""
"image-keyboard-response",248,324877,"0.0-3.79-0.79","nkvf7g8nwth6mg2",713,"44.csv","","2400","resources/trios/L2T1A2.jpg","39","restless",0.7,0.3,0.5,0.94779234826103,"false"
"image-keyboard-response",249,325300,"0.0-3.79-1.79","nkvf7g8nwth6mg2",713,"44.csv","","null","resources/maskTrios/BBA2.jpg","null","",NA,NA,NA,NA,""
"image-keyboard-response",250,326514,"0.0-3.79-2.79","nkvf7g8nwth6mg2",713,"44.csv","","null","resources/images/fishbone.png","null","",NA,NA,NA,NA,""
"image-keyboard-response",251,326803,"0.0-3.80-0.80","nkvf7g8nwth6mg2",713,"44.csv","","286.2000000476837","resources/trios/L1T1A2.jpg","38","restless",0.7,0.2,0.5,0.563189990969846,"false"
"image-keyboard-response",252,327207,"0.0-3.80-1.80","nkvf7g8nwth6mg2",713,"44.csv","","null","resources/maskTrios/BT1B.jpg","null","",NA,NA,NA,NA,""
"image-keyboard-response",253,328418,"0.0-3.80-2.80","nkvf7g8nwth6mg2",713,"44.csv","","null","resources/images/fishbone.png","null","",NA,NA,NA,NA,""
"image-keyboard-response",254,333306,"0.0-3.81-0.81","nkvf7g8nwth6mg2",713,"44.csv","","4886.100000143051","resources/trios/L1T1A3.jpg","38","restless",0.7,0.2,0.5,0.854445709400272,"false"
"image-keyboard-response",255,333717,"0.0-3.81-1.81","nkvf7g8nwth6mg2",713,"44.csv","","null","resources/maskTrios/BT1B.jpg","null","",NA,NA,NA,NA,""
"image-keyboard-response",256,334939,"0.0-3.81-2.81","nkvf7g8nwth6mg2",713,"44.csv","","null","resources/images/fishbone.png","null","",NA,NA,NA,NA,""
"image-keyboard-response",257,335720,"0.0-3.82-0.82","nkvf7g8nwth6mg2",713,"44.csv","","779.2000000476837","resources/trios/L2T4A2.jpg","38","restless",0.6,0.2,0.5,0.745426031608648,"false"
"image-keyboard-response",258,336140,"0.0-3.82-1.82","nkvf7g8nwth6mg2",713,"44.csv","","null","resources/maskTrios/BT4B.jpg","null","",NA,NA,NA,NA,""
"image-keyboard-response",259,337357,"0.0-3.82-2.82","nkvf7g8nwth6mg2",713,"44.csv","","null","resources/images/fishbone.png","null","",NA,NA,NA,NA,""
"image-keyboard-response",260,338197,"0.0-3.83-0.83","nkvf7g8nwth6mg2",713,"44.csv","","838.7999999523163","resources/trios/L2T4A2.jpg","39","restless",0.6,0.2,0.5,0.575179646123772,"false"
"image-keyboard-response",261,338620,"0.0-3.83-1.83","nkvf7g8nwth6mg2",713,"44.csv","","null","resources/maskTrios/BBA2.jpg","null","",NA,NA,NA,NA,""
"image-keyboard-response",262,339834,"0.0-3.83-2.83","nkvf7g8nwth6mg2",713,"44.csv","","null","resources/images/fishbone.png","null","",NA,NA,NA,NA,""
"image-keyboard-response",263,341529,"0.0-3.84-0.84","nkvf7g8nwth6mg2",713,"44.csv","","1693.5999999046326","resources/trios/L1T4A3.jpg","37","restless",0.6,0.2,0.5,0.112790969163203,"true"
"image-keyboard-response",264,341937,"0.0-3.84-1.84","nkvf7g8nwth6mg2",713,"44.csv","","null","resources/maskTrios/L1BB.jpg","null","",NA,NA,NA,NA,""
"image-keyboard-response",265,343153,"0.0-3.84-2.84","nkvf7g8nwth6mg2",713,"44.csv","","null","resources/images/coin2.png","null","",NA,NA,NA,NA,""
"image-keyboard-response",266,344128,"0.0-3.85-0.85","nkvf7g8nwth6mg2",713,"44.csv","","974.5","resources/trios/L1T4A2.jpg","37","restless",0.6,0.2,0.5,0.756577722963352,"false"
"image-keyboard-response",267,344542,"0.0-3.85-1.85","nkvf7g8nwth6mg2",713,"44.csv","","null","resources/maskTrios/L1BB.jpg","null","",NA,NA,NA,NA,""
"image-keyboard-response",268,345757,"0.0-3.85-2.85","nkvf7g8nwth6mg2",713,"44.csv","","null","resources/images/fishbone.png","null","",NA,NA,NA,NA,""
"image-keyboard-response",269,346925,"0.0-3.86-0.86","nkvf7g8nwth6mg2",713,"44.csv","","1165.7000000476837","resources/trios/L2T4A2.jpg","39","restless",0.6,0.2,0.5,0.558622466826104,"false"
"image-keyboard-response",270,347341,"0.0-3.86-1.86","nkvf7g8nwth6mg2",713,"44.csv","","null","resources/maskTrios/BBA2.jpg","null","",NA,NA,NA,NA,""
"image-keyboard-response",271,348553,"0.0-3.86-2.86","nkvf7g8nwth6mg2",713,"44.csv","","null","resources/images/fishbone.png","null","",NA,NA,NA,NA,""
"image-keyboard-response",272,350712,"0.0-3.87-0.87","nkvf7g8nwth6mg2",713,"44.csv","","2158","resources/trios/L1T1A2.jpg","37","restless",0.6,0.2,0.5,0.939185986327682,"false"
"image-keyboard-response",273,351127,"0.0-3.87-1.87","nkvf7g8nwth6mg2",713,"44.csv","","null","resources/maskTrios/L1BB.jpg","null","",NA,NA,NA,NA,""
"image-keyboard-response",274,352337,"0.0-3.87-2.87","nkvf7g8nwth6mg2",713,"44.csv","","null","resources/images/fishbone.png","null","",NA,NA,NA,NA,""
"image-keyboard-response",275,353695,"0.0-3.88-0.88","nkvf7g8nwth6mg2",713,"44.csv","","1355.5","resources/trios/L2T1A2.jpg","39","restless",0.7,0.2,0.5,0.77337071501135,"false"
"image-keyboard-response",276,354109,"0.0-3.88-1.88","nkvf7g8nwth6mg2",713,"44.csv","","null","resources/maskTrios/BBA2.jpg","null","",NA,NA,NA,NA,""
"image-keyboard-response",277,355328,"0.0-3.88-2.88","nkvf7g8nwth6mg2",713,"44.csv","","null","resources/images/fishbone.png","null","",NA,NA,NA,NA,""
"image-keyboard-response",278,355975,"0.0-3.89-0.89","nkvf7g8nwth6mg2",713,"44.csv","","645.8999998569489","resources/trios/L1T1A2.jpg","38","restless",0.7,0.2,0.5,0.746912122157745,"false"
"image-keyboard-response",279,356395,"0.0-3.89-1.89","nkvf7g8nwth6mg2",713,"44.csv","","null","resources/maskTrios/BT1B.jpg","null","",NA,NA,NA,NA,""
"image-keyboard-response",280,357604,"0.0-3.89-2.89","nkvf7g8nwth6mg2",713,"44.csv","","null","resources/images/fishbone.png","null","",NA,NA,NA,NA,""
"image-keyboard-response",281,360124,"0.0-3.90-0.90","nkvf7g8nwth6mg2",713,"44.csv","","2517.5","resources/trios/L2T4A2.jpg","38","restless",0.7,0.2,0.6,0.255426439630424,"false"
"image-keyboard-response",282,360531,"0.0-3.90-1.90","nkvf7g8nwth6mg2",713,"44.csv","","null","resources/maskTrios/BT4B.jpg","null","",NA,NA,NA,NA,""
"image-keyboard-response",283,361744,"0.0-3.90-2.90","nkvf7g8nwth6mg2",713,"44.csv","","null","resources/images/fishbone.png","null","",NA,NA,NA,NA,""
"image-keyboard-response",284,364297,"0.0-3.91-0.91","nkvf7g8nwth6mg2",713,"44.csv","","2551.800000190735","resources/trios/L1T1A2.jpg","39","restless",0.7,0.2,0.6,0.424835596937382,"true"
"image-keyboard-response",285,364705,"0.0-3.91-1.91","nkvf7g8nwth6mg2",713,"44.csv","","null","resources/maskTrios/BBA2.jpg","null","",NA,NA,NA,NA,""
"image-keyboard-response",286,365915,"0.0-3.91-2.91","nkvf7g8nwth6mg2",713,"44.csv","","null","resources/images/coin2.png","null","",NA,NA,NA,NA,""
"image-keyboard-response",287,366333,"0.0-3.92-0.92","nkvf7g8nwth6mg2",713,"44.csv","","415.7999999523163","resources/trios/L2T1A2.jpg","39","restless",0.7,0.2,0.6,0.173364249594823,"true"
"image-keyboard-response",288,366756,"0.0-3.92-1.92","nkvf7g8nwth6mg2",713,"44.csv","","null","resources/maskTrios/BBA2.jpg","null","",NA,NA,NA,NA,""
"image-keyboard-response",289,367974,"0.0-3.92-2.92","nkvf7g8nwth6mg2",713,"44.csv","","null","resources/images/coin2.png","null","",NA,NA,NA,NA,""
"image-keyboard-response",290,368464,"0.0-3.93-0.93","nkvf7g8nwth6mg2",713,"44.csv","","488.7000000476837","resources/trios/L1T4A3.jpg","39","restless",0.7,0.2,0.5,0.941922048414836,"false"
"image-keyboard-response",291,368871,"0.0-3.93-1.93","nkvf7g8nwth6mg2",713,"44.csv","","null","resources/maskTrios/BBA3.jpg","null","",NA,NA,NA,NA,""
"image-keyboard-response",292,370090,"0.0-3.93-2.93","nkvf7g8nwth6mg2",713,"44.csv","","null","resources/images/fishbone.png","null","",NA,NA,NA,NA,""
"image-keyboard-response",293,370964,"0.0-3.94-0.94","nkvf7g8nwth6mg2",713,"44.csv","","871","resources/trios/L1T4A3.jpg","39","restless",0.7,0.2,0.5,0.41697198794943,"true"
"image-keyboard-response",294,371388,"0.0-3.94-1.94","nkvf7g8nwth6mg2",713,"44.csv","","null","resources/maskTrios/BBA3.jpg","null","",NA,NA,NA,NA,""
"image-keyboard-response",295,372602,"0.0-3.94-2.94","nkvf7g8nwth6mg2",713,"44.csv","","null","resources/images/coin2.png","null","",NA,NA,NA,NA,""
"image-keyboard-response",296,373318,"0.0-3.95-0.95","nkvf7g8nwth6mg2",713,"44.csv","","714.5","resources/trios/L1T1A2.jpg","39","restless",0.7,0.2,0.5,0.849594686376435,"false"
"image-keyboard-response",297,373726,"0.0-3.95-1.95","nkvf7g8nwth6mg2",713,"44.csv","","null","resources/maskTrios/BBA2.jpg","null","",NA,NA,NA,NA,""
"image-keyboard-response",298,374945,"0.0-3.95-2.95","nkvf7g8nwth6mg2",713,"44.csv","","null","resources/images/fishbone.png","null","",NA,NA,NA,NA,""
"image-keyboard-response",299,376107,"0.0-3.96-0.96","nkvf7g8nwth6mg2",713,"44.csv","","1160.5999999046326","resources/trios/L1T1A3.jpg","39","restless",0.7,0.2,0.5,0.337323172157801,"true"
"image-keyboard-response",300,376511,"0.0-3.96-1.96","nkvf7g8nwth6mg2",713,"44.csv","","null","resources/maskTrios/BBA3.jpg","null","",NA,NA,NA,NA,""
"image-keyboard-response",301,377728,"0.0-3.96-2.96","nkvf7g8nwth6mg2",713,"44.csv","","null","resources/images/coin2.png","null","",NA,NA,NA,NA,""
"image-keyboard-response",302,379442,"0.0-3.97-0.97","nkvf7g8nwth6mg2",713,"44.csv","","1712","resources/trios/L2T4A3.jpg","39","restless",0.6,0.2,0.4,0.176585540572216,"true"
"image-keyboard-response",303,379860,"0.0-3.97-1.97","nkvf7g8nwth6mg2",713,"44.csv","","null","resources/maskTrios/BBA3.jpg","null","",NA,NA,NA,NA,""
"image-keyboard-response",304,381062,"0.0-3.97-2.97","nkvf7g8nwth6mg2",713,"44.csv","","null","resources/images/coin2.png","null","",NA,NA,NA,NA,""
"image-keyboard-response",305,382192,"0.0-3.98-0.98","nkvf7g8nwth6mg2",713,"44.csv","","1128.3999998569489","resources/trios/L2T1A2.jpg","39","restless",0.5,0.2,0.4,0.598225985250948,"false"
"image-keyboard-response",306,382603,"0.0-3.98-1.98","nkvf7g8nwth6mg2",713,"44.csv","","null","resources/maskTrios/BBA2.jpg","null","",NA,NA,NA,NA,""
"image-keyboard-response",307,383820,"0.0-3.98-2.98","nkvf7g8nwth6mg2",713,"44.csv","","null","resources/images/fishbone.png","null","",NA,NA,NA,NA,""
"image-keyboard-response",308,385345,"0.0-3.99-0.99","nkvf7g8nwth6mg2",713,"44.csv","","1523.9000000953674","resources/trios/L1T1A2.jpg","39","restless",0.5,0.2,0.4,0.656927383824519,"false"
"image-keyboard-response",309,385755,"0.0-3.99-1.99","nkvf7g8nwth6mg2",713,"44.csv","","null","resources/maskTrios/BBA2.jpg","null","",NA,NA,NA,NA,""
"image-keyboard-response",310,386971,"0.0-3.99-2.99","nkvf7g8nwth6mg2",713,"44.csv","","null","resources/images/fishbone.png","null","",NA,NA,NA,NA,""
"image-keyboard-response",311,388866,"0.0-3.100-0.100","nkvf7g8nwth6mg2",713,"44.csv","","1892.8999998569489","resources/trios/L1T4A2.jpg","39","restless",0.5,0.2,0.4,0.814254085757005,"false"
"image-keyboard-response",312,389276,"0.0-3.100-1.100","nkvf7g8nwth6mg2",713,"44.csv","","null","resources/maskTrios/BBA2.jpg","null","",NA,NA,NA,NA,""
"image-keyboard-response",313,390488,"0.0-3.100-2.100","nkvf7g8nwth6mg2",713,"44.csv","","null","resources/images/fishbone.png","null","",NA,NA,NA,NA,""
"image-keyboard-response",314,391126,"0.0-3.101-0.101","nkvf7g8nwth6mg2",713,"44.csv","","637.0999999046326","resources/trios/L2T4A2.jpg","38","restless",0.5,0.2,0.4,0.703716018034906,"false"
"image-keyboard-response",315,391546,"0.0-3.101-1.101","nkvf7g8nwth6mg2",713,"44.csv","","null","resources/maskTrios/BT4B.jpg","null","",NA,NA,NA,NA,""
"image-keyboard-response",316,392755,"0.0-3.101-2.101","nkvf7g8nwth6mg2",713,"44.csv","","null","resources/images/fishbone.png","null","",NA,NA,NA,NA,""
"image-keyboard-response",317,394297,"0.0-3.102-0.102","nkvf7g8nwth6mg2",713,"44.csv","","1539.7000000476837","resources/trios/L2T4A3.jpg","39","restless",0.5,0.2,0.5,0.648620069246395,"false"
"image-keyboard-response",318,394705,"0.0-3.102-1.102","nkvf7g8nwth6mg2",713,"44.csv","","null","resources/maskTrios/BBA3.jpg","null","",NA,NA,NA,NA,""
"image-keyboard-response",319,395912,"0.0-3.102-2.102","nkvf7g8nwth6mg2",713,"44.csv","","null","resources/images/fishbone.png","null","",NA,NA,NA,NA,""
"image-keyboard-response",320,399518,"0.0-3.103-0.103","nkvf7g8nwth6mg2",713,"44.csv","","3604.0999999046326","resources/trios/L1T1A3.jpg","37","restless",0.5,0.2,0.5,0.716277992393777,"false"
"image-keyboard-response",321,399929,"0.0-3.103-1.103","nkvf7g8nwth6mg2",713,"44.csv","","null","resources/maskTrios/L1BB.jpg","null","",NA,NA,NA,NA,""
"image-keyboard-response",322,401138,"0.0-3.103-2.103","nkvf7g8nwth6mg2",713,"44.csv","","null","resources/images/fishbone.png","null","",NA,NA,NA,NA,""
"image-keyboard-response",323,403477,"0.0-3.104-0.104","nkvf7g8nwth6mg2",713,"44.csv","","2338.399999856949","resources/trios/L2T4A3.jpg","38","restless",0.5,0.2,0.5,0.32115667725658,"false"
"image-keyboard-response",324,403900,"0.0-3.104-1.104","nkvf7g8nwth6mg2",713,"44.csv","","null","resources/maskTrios/BT4B.jpg","null","",NA,NA,NA,NA,""
"image-keyboard-response",325,405116,"0.0-3.104-2.104","nkvf7g8nwth6mg2",713,"44.csv","","null","resources/images/fishbone.png","null","",NA,NA,NA,NA,""
"image-keyboard-response",326,405501,"0.0-3.105-0.105","nkvf7g8nwth6mg2",713,"44.csv","","384.90000009536743","resources/trios/L1T4A3.jpg","39","restless",0.5,0.2,0.5,0.198330456729157,"true"
"image-keyboard-response",327,405918,"0.0-3.105-1.105","nkvf7g8nwth6mg2",713,"44.csv","","null","resources/maskTrios/BBA3.jpg","null","",NA,NA,NA,NA,""
"image-keyboard-response",328,407128,"0.0-3.105-2.105","nkvf7g8nwth6mg2",713,"44.csv","","null","resources/images/coin2.png","null","",NA,NA,NA,NA,""
"image-keyboard-response",329,408586,"0.0-3.106-0.106","nkvf7g8nwth6mg2",713,"44.csv","","1455.0999999046326","resources/trios/L1T1A2.jpg","39","restless",0.5,0.2,0.5,0.947162950864243,"false"
"image-keyboard-response",330,409004,"0.0-3.106-1.106","nkvf7g8nwth6mg2",713,"44.csv","","null","resources/maskTrios/BBA2.jpg","null","",NA,NA,NA,NA,""
"image-keyboard-response",331,410222,"0.0-3.106-2.106","nkvf7g8nwth6mg2",713,"44.csv","","null","resources/images/fishbone.png","null","",NA,NA,NA,NA,""
"image-keyboard-response",332,412352,"0.0-3.107-0.107","nkvf7g8nwth6mg2",713,"44.csv","","2128.2000000476837","resources/trios/L1T4A3.jpg","37","restless",0.5,0.2,0.5,0.212488508119681,"true"
"image-keyboard-response",333,412759,"0.0-3.107-1.107","nkvf7g8nwth6mg2",713,"44.csv","","null","resources/maskTrios/L1BB.jpg","null","",NA,NA,NA,NA,""
"image-keyboard-response",334,413971,"0.0-3.107-2.107","nkvf7g8nwth6mg2",713,"44.csv","","null","resources/images/coin2.png","null","",NA,NA,NA,NA,""
"image-keyboard-response",335,415544,"0.0-3.108-0.108","nkvf7g8nwth6mg2",713,"44.csv","","1571.6999998092651","resources/trios/L2T4A2.jpg","37","restless",0.6,0.2,0.5,0.851343199005667,"false"
"image-keyboard-response",336,415952,"0.0-3.108-1.108","nkvf7g8nwth6mg2",713,"44.csv","","null","resources/maskTrios/L2BB.jpg","null","",NA,NA,NA,NA,""
"image-keyboard-response",337,417171,"0.0-3.108-2.108","nkvf7g8nwth6mg2",713,"44.csv","","null","resources/images/fishbone.png","null","",NA,NA,NA,NA,""
"image-keyboard-response",338,420036,"0.0-3.109-0.109","nkvf7g8nwth6mg2",713,"44.csv","","2864.100000143051","resources/trios/L2T1A3.jpg","39","restless",0.6,0.2,0.5,0.00277663380775839,"true"
"image-keyboard-response",339,420455,"0.0-3.109-1.109","nkvf7g8nwth6mg2",713,"44.csv","","null","resources/maskTrios/BBA3.jpg","null","",NA,NA,NA,NA,""
"image-keyboard-response",340,421676,"0.0-3.109-2.109","nkvf7g8nwth6mg2",713,"44.csv","","null","resources/images/coin2.png","null","",NA,NA,NA,NA,""
"image-keyboard-response",341,426047,"0.0-3.110-0.110","nkvf7g8nwth6mg2",713,"44.csv","","4368.5","resources/trios/L1T1A3.jpg","38","restless",0.6,0.2,0.5,0.493368169999646,"false"
"image-keyboard-response",342,426455,"0.0-3.110-1.110","nkvf7g8nwth6mg2",713,"44.csv","","null","resources/maskTrios/BT1B.jpg","null","",NA,NA,NA,NA,""
"image-keyboard-response",343,427673,"0.0-3.110-2.110","nkvf7g8nwth6mg2",713,"44.csv","","null","resources/images/fishbone.png","null","",NA,NA,NA,NA,""
"image-keyboard-response",344,429085,"0.0-3.111-0.111","nkvf7g8nwth6mg2",713,"44.csv","","1411.2999999523163","resources/trios/L2T1A2.jpg","39","restless",0.6,0.2,0.5,0.154363710709539,"true"
"image-keyboard-response",345,429496,"0.0-3.111-1.111","nkvf7g8nwth6mg2",713,"44.csv","","null","resources/maskTrios/BBA2.jpg","null","",NA,NA,NA,NA,""
"image-keyboard-response",346,430710,"0.0-3.111-2.111","nkvf7g8nwth6mg2",713,"44.csv","","null","resources/images/coin2.png","null","",NA,NA,NA,NA,""
"image-keyboard-response",347,434587,"0.0-3.112-0.112","nkvf7g8nwth6mg2",713,"44.csv","","3876.5999999046326","resources/trios/L1T4A3.jpg","39","restless",0.6,0.2,0.5,0.347057282210907,"true"
"image-keyboard-response",348,434992,"0.0-3.112-1.112","nkvf7g8nwth6mg2",713,"44.csv","","null","resources/maskTrios/BBA3.jpg","null","",NA,NA,NA,NA,""
"image-keyboard-response",349,436205,"0.0-3.112-2.112","nkvf7g8nwth6mg2",713,"44.csv","","null","resources/images/coin2.png","null","",NA,NA,NA,NA,""
"image-keyboard-response",350,441557,"0.0-3.113-0.113","nkvf7g8nwth6mg2",713,"44.csv","","5350.599999904633","resources/trios/L1T1A3.jpg","39","restless",0.6,0.2,0.5,0.394196087804403,"true"
"image-keyboard-response",351,441977,"0.0-3.113-1.113","nkvf7g8nwth6mg2",713,"44.csv","","null","resources/maskTrios/BBA3.jpg","null","",NA,NA,NA,NA,""
"image-keyboard-response",352,443188,"0.0-3.113-2.113","nkvf7g8nwth6mg2",713,"44.csv","","null","resources/images/coin2.png","null","",NA,NA,NA,NA,""
"image-keyboard-response",353,445132,"0.0-3.114-0.114","nkvf7g8nwth6mg2",713,"44.csv","","1942.4000000953674","resources/trios/L1T1A2.jpg","39","restless",0.6,0.3,0.5,0.96414875404161,"false"
"image-keyboard-response",354,445550,"0.0-3.114-1.114","nkvf7g8nwth6mg2",713,"44.csv","","null","resources/maskTrios/BBA2.jpg","null","",NA,NA,NA,NA,""
"image-keyboard-response",355,446767,"0.0-3.114-2.114","nkvf7g8nwth6mg2",713,"44.csv","","null","resources/images/fishbone.png","null","",NA,NA,NA,NA,""
"image-keyboard-response",356,448045,"0.0-3.115-0.115","nkvf7g8nwth6mg2",713,"44.csv","","1277.5","resources/trios/L1T1A3.jpg","39","restless",0.6,0.3,0.5,0.343437662166477,"true"
"image-keyboard-response",357,448455,"0.0-3.115-1.115","nkvf7g8nwth6mg2",713,"44.csv","","null","resources/maskTrios/BBA3.jpg","null","",NA,NA,NA,NA,""
"image-keyboard-response",358,449675,"0.0-3.115-2.115","nkvf7g8nwth6mg2",713,"44.csv","","null","resources/images/coin2.png","null","",NA,NA,NA,NA,""
"image-keyboard-response",359,453213,"0.0-3.116-0.116","nkvf7g8nwth6mg2",713,"44.csv","","3535.300000190735","resources/trios/L1T4A3.jpg","39","restless",0.7,0.3,0.5,0.179649124042354,"true"
"image-keyboard-response",360,453621,"0.0-3.116-1.116","nkvf7g8nwth6mg2",713,"44.csv","","null","resources/maskTrios/BBA3.jpg","null","",NA,NA,NA,NA,""
"image-keyboard-response",361,454833,"0.0-3.116-2.116","nkvf7g8nwth6mg2",713,"44.csv","","null","resources/images/coin2.png","null","",NA,NA,NA,NA,""
"image-keyboard-response",362,456461,"0.0-3.117-0.117","nkvf7g8nwth6mg2",713,"44.csv","","1626","resources/trios/L2T1A3.jpg","39","restless",0.7,0.3,0.5,0.230977030876571,"true"
"image-keyboard-response",363,456871,"0.0-3.117-1.117","nkvf7g8nwth6mg2",713,"44.csv","","null","resources/maskTrios/BBA3.jpg","null","",NA,NA,NA,NA,""
"image-keyboard-response",364,458092,"0.0-3.117-2.117","nkvf7g8nwth6mg2",713,"44.csv","","null","resources/images/coin2.png","null","",NA,NA,NA,NA,""
"image-keyboard-response",365,464053,"0.0-3.118-0.118","nkvf7g8nwth6mg2",713,"44.csv","","5960.099999904633","resources/trios/L1T1A2.jpg","39","restless",0.7,0.3,0.5,0.819063020880217,"false"
"image-keyboard-response",366,464472,"0.0-3.118-1.118","nkvf7g8nwth6mg2",713,"44.csv","","null","resources/maskTrios/BBA2.jpg","null","",NA,NA,NA,NA,""
"image-keyboard-response",367,465688,"0.0-3.118-2.118","nkvf7g8nwth6mg2",713,"44.csv","","null","resources/images/fishbone.png","null","",NA,NA,NA,NA,""
"image-keyboard-response",368,467011,"0.0-3.119-0.119","nkvf7g8nwth6mg2",713,"44.csv","","1322.1999998092651","resources/trios/L2T1A3.jpg","39","restless",0.7,0.3,0.5,0.540133894652789,"false"
"image-keyboard-response",369,467433,"0.0-3.119-1.119","nkvf7g8nwth6mg2",713,"44.csv","","null","resources/maskTrios/BBA3.jpg","null","",NA,NA,NA,NA,""
"image-keyboard-response",370,468639,"0.0-3.119-2.119","nkvf7g8nwth6mg2",713,"44.csv","","null","resources/images/fishbone.png","null","",NA,NA,NA,NA,""
"image-keyboard-response",371,470178,"0.0-3.120-0.120","nkvf7g8nwth6mg2",713,"44.csv","","1537.1999998092651","resources/trios/L2T4A3.jpg","39","restless",0.7,0.3,0.5,0.403215227612323,"true"
"image-keyboard-response",372,470583,"0.0-3.120-1.120","nkvf7g8nwth6mg2",713,"44.csv","","null","resources/maskTrios/BBA3.jpg","null","",NA,NA,NA,NA,""
"image-keyboard-response",373,471806,"0.0-3.120-2.120","nkvf7g8nwth6mg2",713,"44.csv","","null","resources/images/coin2.png","null","",NA,NA,NA,NA,""
"image-keyboard-response",374,473355,"0.0-3.121-0.121","nkvf7g8nwth6mg2",713,"44.csv","","1548","resources/trios/L1T4A3.jpg","39","restless",0.7,0.3,0.5,0.754194699922226,"false"
"image-keyboard-response",375,473771,"0.0-3.121-1.121","nkvf7g8nwth6mg2",713,"44.csv","","null","resources/maskTrios/BBA3.jpg","null","",NA,NA,NA,NA,""
"image-keyboard-response",376,474989,"0.0-3.121-2.121","nkvf7g8nwth6mg2",713,"44.csv","","null","resources/images/fishbone.png","null","",NA,NA,NA,NA,""
"image-keyboard-response",377,476714,"0.0-3.122-0.122","nkvf7g8nwth6mg2",713,"44.csv","","1723.2000000476837","resources/trios/L2T1A3.jpg","39","restless",0.7,0.3,0.5,0.588263929890971,"false"
"image-keyboard-response",378,477139,"0.0-3.122-1.122","nkvf7g8nwth6mg2",713,"44.csv","","null","resources/maskTrios/BBA3.jpg","null","",NA,NA,NA,NA,""
"image-keyboard-response",379,478362,"0.0-3.122-2.122","nkvf7g8nwth6mg2",713,"44.csv","","null","resources/images/fishbone.png","null","",NA,NA,NA,NA,""
"image-keyboard-response",380,479988,"0.0-3.123-0.123","nkvf7g8nwth6mg2",713,"44.csv","","1624.3000001907349","resources/trios/L1T4A2.jpg","39","restless",0.7,0.3,0.5,0.962845010867911,"false"
"image-keyboard-response",381,480399,"0.0-3.123-1.123","nkvf7g8nwth6mg2",713,"44.csv","","null","resources/maskTrios/BBA2.jpg","null","",NA,NA,NA,NA,""
"image-keyboard-response",382,481612,"0.0-3.123-2.123","nkvf7g8nwth6mg2",713,"44.csv","","null","resources/images/fishbone.png","null","",NA,NA,NA,NA,""
"image-keyboard-response",383,483234,"0.0-3.124-0.124","nkvf7g8nwth6mg2",713,"44.csv","","1621.5","resources/trios/L2T1A2.jpg","39","restless",0.7,0.3,0.5,0.85289977027099,"false"
"image-keyboard-response",384,483644,"0.0-3.124-1.124","nkvf7g8nwth6mg2",713,"44.csv","","null","resources/maskTrios/BBA2.jpg","null","",NA,NA,NA,NA,""
"image-keyboard-response",385,484855,"0.0-3.124-2.124","nkvf7g8nwth6mg2",713,"44.csv","","null","resources/images/fishbone.png","null","",NA,NA,NA,NA,""
"image-keyboard-response",386,486679,"0.0-3.125-0.125","nkvf7g8nwth6mg2",713,"44.csv","","1822.5","resources/trios/L2T1A2.jpg","39","restless",0.7,0.3,0.5,0.420210882261915,"true"
"image-keyboard-response",387,487091,"0.0-3.125-1.125","nkvf7g8nwth6mg2",713,"44.csv","","null","resources/maskTrios/BBA2.jpg","null","",NA,NA,NA,NA,""
"image-keyboard-response",388,488302,"0.0-3.125-2.125","nkvf7g8nwth6mg2",713,"44.csv","","null","resources/images/coin2.png","null","",NA,NA,NA,NA,""
"image-keyboard-response",389,491372,"0.0-3.126-0.126","nkvf7g8nwth6mg2",713,"44.csv","","3067.7999999523163","resources/trios/L2T4A2.jpg","39","restless",0.6,0.3,0.5,0.660584508155268,"false"
"image-keyboard-response",390,491781,"0.0-3.126-1.126","nkvf7g8nwth6mg2",713,"44.csv","","null","resources/maskTrios/BBA2.jpg","null","",NA,NA,NA,NA,""
"image-keyboard-response",391,492989,"0.0-3.126-2.126","nkvf7g8nwth6mg2",713,"44.csv","","null","resources/images/fishbone.png","null","",NA,NA,NA,NA,""
"image-keyboard-response",392,497323,"0.0-3.127-0.127","nkvf7g8nwth6mg2",713,"44.csv","","4331.700000047684","resources/trios/L2T4A2.jpg","39","restless",0.6,0.3,0.5,0.127533094018967,"true"
"image-keyboard-response",393,497730,"0.0-3.127-1.127","nkvf7g8nwth6mg2",713,"44.csv","","null","resources/maskTrios/BBA2.jpg","null","",NA,NA,NA,NA,""
"image-keyboard-response",394,498947,"0.0-3.127-2.127","nkvf7g8nwth6mg2",713,"44.csv","","null","resources/images/coin2.png","null","",NA,NA,NA,NA,""
"image-keyboard-response",395,505152,"0.0-3.128-0.128","nkvf7g8nwth6mg2",713,"44.csv","","6203.700000047684","resources/trios/L1T4A2.jpg","37","restless",0.6,0.2,0.5,0.82311175721367,"false"
"image-keyboard-response",396,505573,"0.0-3.128-1.128","nkvf7g8nwth6mg2",713,"44.csv","","null","resources/maskTrios/L1BB.jpg","null","",NA,NA,NA,NA,""
"image-keyboard-response",397,506789,"0.0-3.128-2.128","nkvf7g8nwth6mg2",713,"44.csv","","null","resources/images/fishbone.png","null","",NA,NA,NA,NA,""
"image-keyboard-response",398,507989,"0.0-3.129-0.129","nkvf7g8nwth6mg2",713,"44.csv","","1197.3999998569489","resources/trios/L1T1A3.jpg","39","restless",0.6,0.2,0.5,0.301585893130671,"true"
"image-keyboard-response",399,508407,"0.0-3.129-1.129","nkvf7g8nwth6mg2",713,"44.csv","","null","resources/maskTrios/BBA3.jpg","null","",NA,NA,NA,NA,""
"image-keyboard-response",400,509623,"0.0-3.129-2.129","nkvf7g8nwth6mg2",713,"44.csv","","null","resources/images/coin2.png","null","",NA,NA,NA,NA,""
"image-keyboard-response",401,511770,"0.0-3.130-0.130","nkvf7g8nwth6mg2",713,"44.csv","","2144.9000000953674","resources/trios/L2T1A3.jpg","37","restless",0.6,0.2,0.5,0.224180181639645,"true"
"image-keyboard-response",402,512194,"0.0-3.130-1.130","nkvf7g8nwth6mg2",713,"44.csv","","null","resources/maskTrios/L2BB.jpg","null","",NA,NA,NA,NA,""
"image-keyboard-response",403,513403,"0.0-3.130-2.130","nkvf7g8nwth6mg2",713,"44.csv","","null","resources/images/coin2.png","null","",NA,NA,NA,NA,""
"image-keyboard-response",404,515668,"0.0-3.131-0.131","nkvf7g8nwth6mg2",713,"44.csv","","2264.2999999523163","resources/trios/L2T4A3.jpg","39","restless",0.6,0.2,0.5,0.918965618626822,"false"
"image-keyboard-response",405,516086,"0.0-3.131-1.131","nkvf7g8nwth6mg2",713,"44.csv","","null","resources/maskTrios/BBA3.jpg","null","",NA,NA,NA,NA,""
"image-keyboard-response",406,517307,"0.0-3.131-2.131","nkvf7g8nwth6mg2",713,"44.csv","","null","resources/images/fishbone.png","null","",NA,NA,NA,NA,""
"image-keyboard-response",407,518750,"0.0-3.132-0.132","nkvf7g8nwth6mg2",713,"44.csv","","1441","resources/trios/L2T1A3.jpg","39","restless",0.6,0.2,0.5,0.443347972957844,"true"
"image-keyboard-response",408,519160,"0.0-3.132-1.132","nkvf7g8nwth6mg2",713,"44.csv","","null","resources/maskTrios/BBA3.jpg","null","",NA,NA,NA,NA,""
"image-keyboard-response",409,520378,"0.0-3.132-2.132","nkvf7g8nwth6mg2",713,"44.csv","","null","resources/images/coin2.png","null","",NA,NA,NA,NA,""
"image-keyboard-response",410,522161,"0.0-3.133-0.133","nkvf7g8nwth6mg2",713,"44.csv","","1781.7000000476837","resources/trios/L1T4A2.jpg","39","restless",0.6,0.2,0.5,0.19255715213349,"true"
"image-keyboard-response",411,522573,"0.0-3.133-1.133","nkvf7g8nwth6mg2",713,"44.csv","","null","resources/maskTrios/BBA2.jpg","null","",NA,NA,NA,NA,""
"image-keyboard-response",412,523781,"0.0-3.133-2.133","nkvf7g8nwth6mg2",713,"44.csv","","null","resources/images/coin2.png","null","",NA,NA,NA,NA,""
"image-keyboard-response",413,530894,"0.0-3.134-0.134","nkvf7g8nwth6mg2",713,"44.csv","","7112.5","resources/trios/L2T4A2.jpg","37","restless",0.6,0.1,0.5,0.695789114052251,"false"
"image-keyboard-response",414,531306,"0.0-3.134-1.134","nkvf7g8nwth6mg2",713,"44.csv","","null","resources/maskTrios/L2BB.jpg","null","",NA,NA,NA,NA,""
"image-keyboard-response",415,532519,"0.0-3.134-2.134","nkvf7g8nwth6mg2",713,"44.csv","","null","resources/images/fishbone.png","null","",NA,NA,NA,NA,""
"image-keyboard-response",416,534127,"0.0-3.135-0.135","nkvf7g8nwth6mg2",713,"44.csv","","1605.5999999046326","resources/trios/L2T1A2.jpg","39","restless",0.6,0.1,0.5,0.705035204705515,"false"
"image-keyboard-response",417,534543,"0.0-3.135-1.135","nkvf7g8nwth6mg2",713,"44.csv","","null","resources/maskTrios/BBA2.jpg","null","",NA,NA,NA,NA,""
"image-keyboard-response",418,535763,"0.0-3.135-2.135","nkvf7g8nwth6mg2",713,"44.csv","","null","resources/images/fishbone.png","null","",NA,NA,NA,NA,""
"image-keyboard-response",419,537479,"0.0-3.136-0.136","nkvf7g8nwth6mg2",713,"44.csv","","1713.8000001907349","resources/trios/L1T1A3.jpg","39","restless",0.6,0.2,0.5,0.860917352950361,"false"
"image-keyboard-response",420,537895,"0.0-3.136-1.136","nkvf7g8nwth6mg2",713,"44.csv","","null","resources/maskTrios/BBA3.jpg","null","",NA,NA,NA,NA,""
"image-keyboard-response",421,539106,"0.0-3.136-2.136","nkvf7g8nwth6mg2",713,"44.csv","","null","resources/images/fishbone.png","null","",NA,NA,NA,NA,""
"image-keyboard-response",422,540728,"0.0-3.137-0.137","nkvf7g8nwth6mg2",713,"44.csv","","1621","resources/trios/L2T1A3.jpg","39","restless",0.6,0.2,0.5,0.872061587920163,"false"
"image-keyboard-response",423,541148,"0.0-3.137-1.137","nkvf7g8nwth6mg2",713,"44.csv","","null","resources/maskTrios/BBA3.jpg","null","",NA,NA,NA,NA,""
"image-keyboard-response",424,542373,"0.0-3.137-2.137","nkvf7g8nwth6mg2",713,"44.csv","","null","resources/images/fishbone.png","null","",NA,NA,NA,NA,""
"image-keyboard-response",425,544186,"0.0-3.138-0.138","nkvf7g8nwth6mg2",713,"44.csv","","1811","resources/trios/L2T4A3.jpg","37","restless",0.6,0.2,0.5,0.420408621520829,"true"
"image-keyboard-response",426,544602,"0.0-3.138-1.138","nkvf7g8nwth6mg2",713,"44.csv","","null","resources/maskTrios/L2BB.jpg","null","",NA,NA,NA,NA,""
"image-keyboard-response",427,545819,"0.0-3.138-2.138","nkvf7g8nwth6mg2",713,"44.csv","","null","resources/images/coin2.png","null","",NA,NA,NA,NA,""
"image-keyboard-response",428,550669,"0.0-3.139-0.139","nkvf7g8nwth6mg2",713,"44.csv","","4847.899999856949","resources/trios/L2T1A2.jpg","38","restless",0.6,0.2,0.5,0.686241642448913,"false"
"image-keyboard-response",429,551086,"0.0-3.139-1.139","nkvf7g8nwth6mg2",713,"44.csv","","null","resources/maskTrios/BT1B.jpg","null","",NA,NA,NA,NA,""
"image-keyboard-response",430,552307,"0.0-3.139-2.139","nkvf7g8nwth6mg2",713,"44.csv","","null","resources/images/fishbone.png","null","",NA,NA,NA,NA,""
"image-keyboard-response",431,554131,"0.0-3.140-0.140","nkvf7g8nwth6mg2",713,"44.csv","","1821.7999999523163","resources/trios/L1T4A3.jpg","39","restless",0.6,0.2,0.5,0.433390830298212,"true"
"image-keyboard-response",432,554544,"0.0-3.140-1.140","nkvf7g8nwth6mg2",713,"44.csv","","null","resources/maskTrios/BBA3.jpg","null","",NA,NA,NA,NA,""
"image-keyboard-response",433,555755,"0.0-3.140-2.140","nkvf7g8nwth6mg2",713,"44.csv","","null","resources/images/coin2.png","null","",NA,NA,NA,NA,""
"image-keyboard-response",434,557319,"0.0-3.141-0.141","nkvf7g8nwth6mg2",713,"44.csv","","1561.7000000476837","resources/trios/L2T4A3.jpg","37","restless",0.6,0.2,0.5,0.790878795456005,"false"
"image-keyboard-response",435,557735,"0.0-3.141-1.141","nkvf7g8nwth6mg2",713,"44.csv","","null","resources/maskTrios/L2BB.jpg","null","",NA,NA,NA,NA,""
"image-keyboard-response",436,558948,"0.0-3.141-2.141","nkvf7g8nwth6mg2",713,"44.csv","","null","resources/images/fishbone.png","null","",NA,NA,NA,NA,""
"image-keyboard-response",437,560450,"0.0-3.142-0.142","nkvf7g8nwth6mg2",713,"44.csv","","1500.3999998569489","resources/trios/L2T4A2.jpg","37","restless",0.6,0.2,0.5,0.259051226998552,"true"
"image-keyboard-response",438,560855,"0.0-3.142-1.142","nkvf7g8nwth6mg2",713,"44.csv","","null","resources/maskTrios/L2BB.jpg","null","",NA,NA,NA,NA,""
"image-keyboard-response",439,562071,"0.0-3.142-2.142","nkvf7g8nwth6mg2",713,"44.csv","","null","resources/images/coin2.png","null","",NA,NA,NA,NA,""
"image-keyboard-response",440,566936,"0.0-3.143-0.143","nkvf7g8nwth6mg2",713,"44.csv","","4864.300000190735","resources/trios/L2T1A2.jpg","39","restless",0.6,0.2,0.5,0.927676716741954,"false"
"image-keyboard-response",441,567353,"0.0-3.143-1.143","nkvf7g8nwth6mg2",713,"44.csv","","null","resources/maskTrios/BBA2.jpg","null","",NA,NA,NA,NA,""
"image-keyboard-response",442,568570,"0.0-3.143-2.143","nkvf7g8nwth6mg2",713,"44.csv","","null","resources/images/fishbone.png","null","",NA,NA,NA,NA,""
"image-keyboard-response",443,569348,"0.0-3.144-0.144","nkvf7g8nwth6mg2",713,"44.csv","","776","resources/trios/L1T1A3.jpg","37","restless",0.6,0.3,0.5,0.812934804103632,"false"
"image-keyboard-response",444,569775,"0.0-3.144-1.144","nkvf7g8nwth6mg2",713,"44.csv","","null","resources/maskTrios/L1BB.jpg","null","",NA,NA,NA,NA,""
"image-keyboard-response",445,570979,"0.0-3.144-2.144","nkvf7g8nwth6mg2",713,"44.csv","","null","resources/images/fishbone.png","null","",NA,NA,NA,NA,""
"image-keyboard-response",446,571635,"0.0-3.145-0.145","nkvf7g8nwth6mg2",713,"44.csv","","653.7999999523163","resources/trios/L1T1A3.jpg","38","restless",0.6,0.3,0.6,0.323554260329402,"false"
"image-keyboard-response",447,572055,"0.0-3.145-1.145","nkvf7g8nwth6mg2",713,"44.csv","","null","resources/maskTrios/BT1B.jpg","null","",NA,NA,NA,NA,""
"image-keyboard-response",448,573271,"0.0-3.145-2.145","nkvf7g8nwth6mg2",713,"44.csv","","null","resources/images/fishbone.png","null","",NA,NA,NA,NA,""
"image-keyboard-response",449,575613,"0.0-3.146-0.146","nkvf7g8nwth6mg2",713,"44.csv","","2340.2000000476837","resources/trios/L1T4A2.jpg","39","restless",0.6,0.3,0.6,0.337947625382294,"true"
"image-keyboard-response",450,576026,"0.0-3.146-1.146","nkvf7g8nwth6mg2",713,"44.csv","","null","resources/maskTrios/BBA2.jpg","null","",NA,NA,NA,NA,""
"image-keyboard-response",451,577235,"0.0-3.146-2.146","nkvf7g8nwth6mg2",713,"44.csv","","null","resources/images/coin2.png","null","",NA,NA,NA,NA,""
"image-keyboard-response",452,578793,"0.0-3.147-0.147","nkvf7g8nwth6mg2",713,"44.csv","","1556.9000000953674","resources/trios/L2T4A3.jpg","37","restless",0.7,0.3,0.6,0.214063154608803,"true"
"image-keyboard-response",453,579198,"0.0-3.147-1.147","nkvf7g8nwth6mg2",713,"44.csv","","null","resources/maskTrios/L2BB.jpg","null","",NA,NA,NA,NA,""
"image-keyboard-response",454,580408,"0.0-3.147-2.147","nkvf7g8nwth6mg2",713,"44.csv","","null","resources/images/coin2.png","null","",NA,NA,NA,NA,""
"image-keyboard-response",455,581954,"0.0-3.148-0.148","nkvf7g8nwth6mg2",713,"44.csv","","1544.2000000476837","resources/trios/L2T4A3.jpg","37","restless",0.7,0.2,0.6,0.00102075947829783,"true"
"image-keyboard-response",456,582357,"0.0-3.148-1.148","nkvf7g8nwth6mg2",713,"44.csv","","null","resources/maskTrios/L2BB.jpg","null","",NA,NA,NA,NA,""
"image-keyboard-response",457,583573,"0.0-3.148-2.148","nkvf7g8nwth6mg2",713,"44.csv","","null","resources/images/coin2.png","null","",NA,NA,NA,NA,""
"image-keyboard-response",458,585127,"0.0-3.149-0.149","nkvf7g8nwth6mg2",713,"44.csv","","1552.5999999046326","resources/trios/L2T4A2.jpg","37","restless",0.7,0.3,0.6,0.717977645334886,"false"
"image-keyboard-response",459,585542,"0.0-3.149-1.149","nkvf7g8nwth6mg2",713,"44.csv","","null","resources/maskTrios/L2BB.jpg","null","",NA,NA,NA,NA,""
"image-keyboard-response",460,586754,"0.0-3.149-2.149","nkvf7g8nwth6mg2",713,"44.csv","","null","resources/images/fishbone.png","null","",NA,NA,NA,NA,""
"image-keyboard-response",461,590886,"0.0-3.150-0.150","nkvf7g8nwth6mg2",713,"44.csv","","4129.700000047684","resources/trios/L2T1A2.jpg","38","restless",0.7,0.3,0.6,0.130938103554683,"true"
"image-keyboard-response",462,591308,"0.0-3.150-1.150","nkvf7g8nwth6mg2",713,"44.csv","","null","resources/maskTrios/BT1B.jpg","null","",NA,NA,NA,NA,""
"image-keyboard-response",463,592525,"0.0-3.150-2.150","nkvf7g8nwth6mg2",713,"44.csv","","null","resources/images/coin2.png","null","",NA,NA,NA,NA,""
"image-keyboard-response",464,594141,"0.0-3.151-0.151","nkvf7g8nwth6mg2",713,"44.csv","","1614.7000000476837","resources/trios/L2T1A3.jpg","38","restless",0.7,0.3,0.6,0.353224961189557,"false"
"image-keyboard-response",465,594563,"0.0-3.151-1.151","nkvf7g8nwth6mg2",713,"44.csv","","null","resources/maskTrios/BT1B.jpg","null","",NA,NA,NA,NA,""
"image-keyboard-response",466,595781,"0.0-3.151-2.151","nkvf7g8nwth6mg2",713,"44.csv","","null","resources/images/fishbone.png","null","",NA,NA,NA,NA,""
"image-keyboard-response",467,597625,"0.0-3.152-0.152","nkvf7g8nwth6mg2",713,"44.csv","","1843.8000001907349","resources/trios/L1T1A3.jpg","39","restless",0.7,0.4,0.6,0.649977402913497,"false"
"image-keyboard-response",468,598041,"0.0-3.152-1.152","nkvf7g8nwth6mg2",713,"44.csv","","null","resources/maskTrios/BBA3.jpg","null","",NA,NA,NA,NA,""
"image-keyboard-response",469,599248,"0.0-3.152-2.152","nkvf7g8nwth6mg2",713,"44.csv","","null","resources/images/fishbone.png","null","",NA,NA,NA,NA,""
"image-keyboard-response",470,601234,"0.0-3.153-0.153","nkvf7g8nwth6mg2",713,"44.csv","","1983.8999998569489","resources/trios/L1T1A3.jpg","37","restless",0.7,0.4,0.6,0.3348748348448,"true"
"image-keyboard-response",471,601643,"0.0-3.153-1.153","nkvf7g8nwth6mg2",713,"44.csv","","null","resources/maskTrios/L1BB.jpg","null","",NA,NA,NA,NA,""
"image-keyboard-response",472,602858,"0.0-3.153-2.153","nkvf7g8nwth6mg2",713,"44.csv","","null","resources/images/coin2.png","null","",NA,NA,NA,NA,""
"image-keyboard-response",473,605188,"0.0-3.154-0.154","nkvf7g8nwth6mg2",713,"44.csv","","2328.0999999046326","resources/trios/L1T1A2.jpg","37","restless",0.6,0.4,0.6,0.114854593357989,"true"
"image-keyboard-response",474,605608,"0.0-3.154-1.154","nkvf7g8nwth6mg2",713,"44.csv","","null","resources/maskTrios/L1BB.jpg","null","",NA,NA,NA,NA,""
"image-keyboard-response",475,606814,"0.0-3.154-2.154","nkvf7g8nwth6mg2",713,"44.csv","","null","resources/images/coin2.png","null","",NA,NA,NA,NA,""
"image-keyboard-response",476,610888,"0.0-3.155-0.155","nkvf7g8nwth6mg2",713,"44.csv","","4072.4000000953674","resources/trios/L1T4A3.jpg","39","restless",0.6,0.4,0.6,0.692038261718878,"false"
"image-keyboard-response",477,611302,"0.0-3.155-1.155","nkvf7g8nwth6mg2",713,"44.csv","","null","resources/maskTrios/BBA3.jpg","null","",NA,NA,NA,NA,""
"image-keyboard-response",478,612513,"0.0-3.155-2.155","nkvf7g8nwth6mg2",713,"44.csv","","null","resources/images/fishbone.png","null","",NA,NA,NA,NA,""
"image-keyboard-response",479,614320,"0.0-3.156-0.156","nkvf7g8nwth6mg2",713,"44.csv","","1804.7000000476837","resources/trios/L2T4A2.jpg","37","restless",0.6,0.4,0.6,0.365614564602484,"true"
"image-keyboard-response",480,614739,"0.0-3.156-1.156","nkvf7g8nwth6mg2",713,"44.csv","","null","resources/maskTrios/L2BB.jpg","null","",NA,NA,NA,NA,""
"image-keyboard-response",481,615954,"0.0-3.156-2.156","nkvf7g8nwth6mg2",713,"44.csv","","null","resources/images/coin2.png","null","",NA,NA,NA,NA,""
"image-keyboard-response",482,623520,"0.0-3.157-0.157","nkvf7g8nwth6mg2",713,"44.csv","","7564.600000143051","resources/trios/L1T4A3.jpg","37","restless",0.6,0.5,0.6,0.353275902249038,"true"
"image-keyboard-response",483,623932,"0.0-3.157-1.157","nkvf7g8nwth6mg2",713,"44.csv","","null","resources/maskTrios/L1BB.jpg","null","",NA,NA,NA,NA,""
"image-keyboard-response",484,625141,"0.0-3.157-2.157","nkvf7g8nwth6mg2",713,"44.csv","","null","resources/images/coin2.png","null","",NA,NA,NA,NA,""
"image-keyboard-response",485,626858,"0.0-3.158-0.158","nkvf7g8nwth6mg2",713,"44.csv","","1715.7999999523163","resources/trios/L2T4A2.jpg","37","restless",0.6,0.5,0.6,0.00312184590166531,"true"
"image-keyboard-response",486,627266,"0.0-3.158-1.158","nkvf7g8nwth6mg2",713,"44.csv","","null","resources/maskTrios/L2BB.jpg","null","",NA,NA,NA,NA,""
"image-keyboard-response",487,628474,"0.0-3.158-2.158","nkvf7g8nwth6mg2",713,"44.csv","","null","resources/images/coin2.png","null","",NA,NA,NA,NA,""
"image-keyboard-response",488,630134,"0.0-3.159-0.159","nkvf7g8nwth6mg2",713,"44.csv","","1659.5999999046326","resources/trios/L2T4A2.jpg","37","restless",0.6,0.5,0.6,0.949679651632889,"false"
"image-keyboard-response",489,630552,"0.0-3.159-1.159","nkvf7g8nwth6mg2",713,"44.csv","","null","resources/maskTrios/L2BB.jpg","null","",NA,NA,NA,NA,""
"image-keyboard-response",490,631770,"0.0-3.159-2.159","nkvf7g8nwth6mg2",713,"44.csv","","null","resources/images/fishbone.png","null","",NA,NA,NA,NA,""
"image-keyboard-response",491,633355,"0.0-3.160-0.160","nkvf7g8nwth6mg2",713,"44.csv","","1583.5","resources/trios/L1T4A2.jpg","37","restless",0.6,0.5,0.6,0.675145438023483,"false"
"image-keyboard-response",492,633774,"0.0-3.160-1.160","nkvf7g8nwth6mg2",713,"44.csv","","null","resources/maskTrios/L1BB.jpg","null","",NA,NA,NA,NA,""
"image-keyboard-response",493,634993,"0.0-3.160-2.160","nkvf7g8nwth6mg2",713,"44.csv","","null","resources/images/fishbone.png","null","",NA,NA,NA,NA,""
"image-keyboard-response",494,637050,"0.0-3.161-0.161","nkvf7g8nwth6mg2",713,"44.csv","","2054.5","resources/trios/L2T1A2.jpg","37","restless",0.6,0.5,0.6,0.193155107964981,"true"
"image-keyboard-response",495,637458,"0.0-3.161-1.161","nkvf7g8nwth6mg2",713,"44.csv","","null","resources/maskTrios/L2BB.jpg","null","",NA,NA,NA,NA,""
"image-keyboard-response",496,638665,"0.0-3.161-2.161","nkvf7g8nwth6mg2",713,"44.csv","","null","resources/images/coin2.png","null","",NA,NA,NA,NA,""
"image-keyboard-response",497,640029,"0.0-3.162-0.162","nkvf7g8nwth6mg2",713,"44.csv","","1362.5","resources/trios/L2T1A2.jpg","38","restless",0.6,0.5,0.6,0.623575727322967,"false"
"image-keyboard-response",498,640445,"0.0-3.162-1.162","nkvf7g8nwth6mg2",713,"44.csv","","null","resources/maskTrios/BT1B.jpg","null","",NA,NA,NA,NA,""
"image-keyboard-response",499,641658,"0.0-3.162-2.162","nkvf7g8nwth6mg2",713,"44.csv","","null","resources/images/fishbone.png","null","",NA,NA,NA,NA,""
"image-keyboard-response",500,647417,"0.0-3.163-0.163","nkvf7g8nwth6mg2",713,"44.csv","","5756.5","resources/trios/L1T4A3.jpg","37","restless",0.5,0.5,0.6,0.792431268345388,"false"
"image-keyboard-response",501,647828,"0.0-3.163-1.163","nkvf7g8nwth6mg2",713,"44.csv","","null","resources/maskTrios/L1BB.jpg","null","",NA,NA,NA,NA,""
"image-keyboard-response",502,649042,"0.0-3.163-2.163","nkvf7g8nwth6mg2",713,"44.csv","","null","resources/images/fishbone.png","null","",NA,NA,NA,NA,""
"image-keyboard-response",503,652755,"0.0-3.164-0.164","nkvf7g8nwth6mg2",713,"44.csv","","3712","resources/trios/L1T1A2.jpg","38","restless",0.5,0.5,0.6,0.161519948099254,"true"
"image-keyboard-response",504,653158,"0.0-3.164-1.164","nkvf7g8nwth6mg2",713,"44.csv","","null","resources/maskTrios/BT1B.jpg","null","",NA,NA,NA,NA,""
"image-keyboard-response",505,654373,"0.0-3.164-2.164","nkvf7g8nwth6mg2",713,"44.csv","","null","resources/images/coin2.png","null","",NA,NA,NA,NA,""
"image-keyboard-response",506,662058,"0.0-3.165-0.165","nkvf7g8nwth6mg2",713,"44.csv","","7683.5","resources/trios/L1T4A3.jpg","37","restless",0.5,0.6,0.6,0.481881776732461,"true"
"image-keyboard-response",507,662480,"0.0-3.165-1.165","nkvf7g8nwth6mg2",713,"44.csv","","null","resources/maskTrios/L1BB.jpg","null","",NA,NA,NA,NA,""
"image-keyboard-response",508,663692,"0.0-3.165-2.165","nkvf7g8nwth6mg2",713,"44.csv","","null","resources/images/coin2.png","null","",NA,NA,NA,NA,""
"image-keyboard-response",509,665890,"0.0-3.166-0.166","nkvf7g8nwth6mg2",713,"44.csv","","2195","resources/trios/L2T4A2.jpg","37","restless",0.5,0.6,0.6,0.214804768075715,"true"
"image-keyboard-response",510,666299,"0.0-3.166-1.166","nkvf7g8nwth6mg2",713,"44.csv","","null","resources/maskTrios/L2BB.jpg","null","",NA,NA,NA,NA,""
"image-keyboard-response",511,667524,"0.0-3.166-2.166","nkvf7g8nwth6mg2",713,"44.csv","","null","resources/images/coin2.png","null","",NA,NA,NA,NA,""
"image-keyboard-response",512,670330,"0.0-3.167-0.167","nkvf7g8nwth6mg2",713,"44.csv","","2805.0999999046326","resources/trios/L1T4A2.jpg","37","restless",0.5,0.6,0.6,0.733618344588176,"false"
"image-keyboard-response",513,670738,"0.0-3.167-1.167","nkvf7g8nwth6mg2",713,"44.csv","","null","resources/maskTrios/L1BB.jpg","null","",NA,NA,NA,NA,""
"image-keyboard-response",514,671956,"0.0-3.167-2.167","nkvf7g8nwth6mg2",713,"44.csv","","null","resources/images/fishbone.png","null","",NA,NA,NA,NA,""
"image-keyboard-response",515,677400,"0.0-3.168-0.168","nkvf7g8nwth6mg2",713,"44.csv","","5441.099999904633","resources/trios/L1T1A2.jpg","38","restless",0.5,0.6,0.6,0.579141657297423,"true"
"image-keyboard-response",516,677812,"0.0-3.168-1.168","nkvf7g8nwth6mg2",713,"44.csv","","null","resources/maskTrios/BT1B.jpg","null","",NA,NA,NA,NA,""
"image-keyboard-response",517,679035,"0.0-3.168-2.168","nkvf7g8nwth6mg2",713,"44.csv","","null","resources/images/coin2.png","null","",NA,NA,NA,NA,""
"image-keyboard-response",518,683924,"0.0-3.169-0.169","nkvf7g8nwth6mg2",713,"44.csv","","4886.200000047684","resources/trios/L1T1A3.jpg","38","restless",0.5,0.6,0.6,0.28145260194568,"true"
"image-keyboard-response",519,684343,"0.0-3.169-1.169","nkvf7g8nwth6mg2",713,"44.csv","","null","resources/maskTrios/BT1B.jpg","null","",NA,NA,NA,NA,""
"image-keyboard-response",520,685549,"0.0-3.169-2.169","nkvf7g8nwth6mg2",713,"44.csv","","null","resources/images/coin2.png","null","",NA,NA,NA,NA,""
"image-keyboard-response",521,688281,"0.0-3.170-0.170","nkvf7g8nwth6mg2",713,"44.csv","","2730.4000000953674","resources/trios/L2T4A3.jpg","37","restless",0.5,0.6,0.6,0.0473432300786791,"true"
"image-keyboard-response",522,688698,"0.0-3.170-1.170","nkvf7g8nwth6mg2",713,"44.csv","","null","resources/maskTrios/L2BB.jpg","null","",NA,NA,NA,NA,""
"image-keyboard-response",523,689908,"0.0-3.170-2.170","nkvf7g8nwth6mg2",713,"44.csv","","null","resources/images/coin2.png","null","",NA,NA,NA,NA,""
"image-keyboard-response",524,692529,"0.0-3.171-0.171","nkvf7g8nwth6mg2",713,"44.csv","","2619.399999856949","resources/trios/L1T4A3.jpg","37","restless",0.5,0.6,0.6,0.195404796984397,"true"
"image-keyboard-response",525,692941,"0.0-3.171-1.171","nkvf7g8nwth6mg2",713,"44.csv","","null","resources/maskTrios/L1BB.jpg","null","",NA,NA,NA,NA,""
"image-keyboard-response",526,694163,"0.0-3.171-2.171","nkvf7g8nwth6mg2",713,"44.csv","","null","resources/images/coin2.png","null","",NA,NA,NA,NA,""
"image-keyboard-response",527,696751,"0.0-3.172-0.172","nkvf7g8nwth6mg2",713,"44.csv","","2586.5","resources/trios/L2T4A2.jpg","37","restless",0.5,0.6,0.5,0.634393238093272,"false"
"image-keyboard-response",528,697164,"0.0-3.172-1.172","nkvf7g8nwth6mg2",713,"44.csv","","null","resources/maskTrios/L2BB.jpg","null","",NA,NA,NA,NA,""
"image-keyboard-response",529,698380,"0.0-3.172-2.172","nkvf7g8nwth6mg2",713,"44.csv","","null","resources/images/fishbone.png","null","",NA,NA,NA,NA,""
"image-keyboard-response",530,703617,"0.0-3.173-0.173","nkvf7g8nwth6mg2",713,"44.csv","","5236.400000095367","resources/trios/L2T4A2.jpg","39","restless",0.4,0.6,0.5,0.828123421773101,"false"
"image-keyboard-response",531,704021,"0.0-3.173-1.173","nkvf7g8nwth6mg2",713,"44.csv","","null","resources/maskTrios/BBA2.jpg","null","",NA,NA,NA,NA,""
"image-keyboard-response",532,705243,"0.0-3.173-2.173","nkvf7g8nwth6mg2",713,"44.csv","","null","resources/images/fishbone.png","null","",NA,NA,NA,NA,""
"image-keyboard-response",533,708470,"0.0-3.174-0.174","nkvf7g8nwth6mg2",713,"44.csv","","3224.5999999046326","resources/trios/L1T1A2.jpg","38","restless",0.4,0.6,0.5,0.669985066702395,"false"
"image-keyboard-response",534,708891,"0.0-3.174-1.174","nkvf7g8nwth6mg2",713,"44.csv","","null","resources/maskTrios/BT1B.jpg","null","",NA,NA,NA,NA,""
"image-keyboard-response",535,710108,"0.0-3.174-2.174","nkvf7g8nwth6mg2",713,"44.csv","","null","resources/images/fishbone.png","null","",NA,NA,NA,NA,""
"image-keyboard-response",536,712883,"0.0-3.175-0.175","nkvf7g8nwth6mg2",713,"44.csv","","2774","resources/trios/L2T1A3.jpg","37","restless",0.4,0.6,0.5,0.310709611790279,"true"
"image-keyboard-response",537,713286,"0.0-3.175-1.175","nkvf7g8nwth6mg2",713,"44.csv","","null","resources/maskTrios/L2BB.jpg","null","",NA,NA,NA,NA,""
"image-keyboard-response",538,714494,"0.0-3.175-2.175","nkvf7g8nwth6mg2",713,"44.csv","","null","resources/images/coin2.png","null","",NA,NA,NA,NA,""
"image-keyboard-response",539,716411,"0.0-3.176-0.176","nkvf7g8nwth6mg2",713,"44.csv","","1915.4000000953674","resources/trios/L2T4A3.jpg","37","restless",0.4,0.7,0.5,0.147375821530034,"true"
"image-keyboard-response",540,716832,"0.0-3.176-1.176","nkvf7g8nwth6mg2",713,"44.csv","","null","resources/maskTrios/L2BB.jpg","null","",NA,NA,NA,NA,""
"image-keyboard-response",541,718043,"0.0-3.176-2.176","nkvf7g8nwth6mg2",713,"44.csv","","null","resources/images/coin2.png","null","",NA,NA,NA,NA,""
"image-keyboard-response",542,721995,"0.0-3.177-0.177","nkvf7g8nwth6mg2",713,"44.csv","","3950.100000143051","resources/trios/L1T4A3.jpg","37","restless",0.4,0.8,0.6,0.125236752406994,"true"
"image-keyboard-response",543,722404,"0.0-3.177-1.177","nkvf7g8nwth6mg2",713,"44.csv","","null","resources/maskTrios/L1BB.jpg","null","",NA,NA,NA,NA,""
"image-keyboard-response",544,723606,"0.0-3.177-2.177","nkvf7g8nwth6mg2",713,"44.csv","","null","resources/images/coin2.png","null","",NA,NA,NA,NA,""
"image-keyboard-response",545,726452,"0.0-3.178-0.178","nkvf7g8nwth6mg2",713,"44.csv","","2845","resources/trios/L2T4A2.jpg","37","restless",0.4,0.8,0.6,0.727912330625755,"false"
"image-keyboard-response",546,726865,"0.0-3.178-1.178","nkvf7g8nwth6mg2",713,"44.csv","","null","resources/maskTrios/L2BB.jpg","null","",NA,NA,NA,NA,""
"image-keyboard-response",547,728076,"0.0-3.178-2.178","nkvf7g8nwth6mg2",713,"44.csv","","null","resources/images/fishbone.png","null","",NA,NA,NA,NA,""
"image-keyboard-response",548,729420,"0.0-3.179-0.179","nkvf7g8nwth6mg2",713,"44.csv","","1343","resources/trios/L1T1A3.jpg","38","restless",0.4,0.8,0.6,0.127015573824357,"true"
"image-keyboard-response",549,729832,"0.0-3.179-1.179","nkvf7g8nwth6mg2",713,"44.csv","","null","resources/maskTrios/BT1B.jpg","null","",NA,NA,NA,NA,""
"image-keyboard-response",550,731043,"0.0-3.179-2.179","nkvf7g8nwth6mg2",713,"44.csv","","null","resources/images/coin2.png","null","",NA,NA,NA,NA,""
"image-keyboard-response",551,733525,"0.0-3.180-0.180","nkvf7g8nwth6mg2",713,"44.csv","","2481","resources/trios/L2T4A2.jpg","37","restless",0.4,0.8,0.6,0.496869523368089,"false"
"image-keyboard-response",552,733942,"0.0-3.180-1.180","nkvf7g8nwth6mg2",713,"44.csv","","null","resources/maskTrios/L2BB.jpg","null","",NA,NA,NA,NA,""
"image-keyboard-response",553,735159,"0.0-3.180-2.180","nkvf7g8nwth6mg2",713,"44.csv","","null","resources/images/fishbone.png","null","",NA,NA,NA,NA,""
"image-keyboard-response",554,736625,"0.0-3.181-0.181","nkvf7g8nwth6mg2",713,"44.csv","","1464.9000000953674","resources/trios/L2T4A3.jpg","37","restless",0.3,0.8,0.6,0.213956807363413,"true"
"image-keyboard-response",555,737032,"0.0-3.181-1.181","nkvf7g8nwth6mg2",713,"44.csv","","null","resources/maskTrios/L2BB.jpg","null","",NA,NA,NA,NA,""
"image-keyboard-response",556,738245,"0.0-3.181-2.181","nkvf7g8nwth6mg2",713,"44.csv","","null","resources/images/coin2.png","null","",NA,NA,NA,NA,""
"image-keyboard-response",557,739528,"0.0-3.182-0.182","nkvf7g8nwth6mg2",713,"44.csv","","1281.5","resources/trios/L1T1A3.jpg","38","restless",0.3,0.8,0.5,0.124867604841942,"true"
"image-keyboard-response",558,739943,"0.0-3.182-1.182","nkvf7g8nwth6mg2",713,"44.csv","","null","resources/maskTrios/BT1B.jpg","null","",NA,NA,NA,NA,""
"image-keyboard-response",559,741160,"0.0-3.182-2.182","nkvf7g8nwth6mg2",713,"44.csv","","null","resources/images/coin2.png","null","",NA,NA,NA,NA,""
"image-keyboard-response",560,746958,"0.0-3.183-0.183","nkvf7g8nwth6mg2",713,"44.csv","","5796.099999904633","resources/trios/L1T1A2.jpg","38","restless",0.4,0.7,0.5,0.0245602707794785,"true"
"image-keyboard-response",561,747365,"0.0-3.183-1.183","nkvf7g8nwth6mg2",713,"44.csv","","null","resources/maskTrios/BT1B.jpg","null","",NA,NA,NA,NA,""
"image-keyboard-response",562,748581,"0.0-3.183-2.183","nkvf7g8nwth6mg2",713,"44.csv","","null","resources/images/coin2.png","null","",NA,NA,NA,NA,""
"image-keyboard-response",563,751636,"0.0-3.184-0.184","nkvf7g8nwth6mg2",713,"44.csv","","3053.7000000476837","resources/trios/L2T4A3.jpg","37","restless",0.5,0.7,0.5,0.600656873300163,"false"
"image-keyboard-response",564,752050,"0.0-3.184-1.184","nkvf7g8nwth6mg2",713,"44.csv","","null","resources/maskTrios/L2BB.jpg","null","",NA,NA,NA,NA,""
"image-keyboard-response",565,753260,"0.0-3.184-2.184","nkvf7g8nwth6mg2",713,"44.csv","","null","resources/images/fishbone.png","null","",NA,NA,NA,NA,""
"image-keyboard-response",566,754630,"0.0-3.185-0.185","nkvf7g8nwth6mg2",713,"44.csv","","1368.2000000476837","resources/trios/L1T1A2.jpg","38","restless",0.5,0.7,0.5,0.369994963947133,"true"
"image-keyboard-response",567,755048,"0.0-3.185-1.185","nkvf7g8nwth6mg2",713,"44.csv","","null","resources/maskTrios/BT1B.jpg","null","",NA,NA,NA,NA,""
"image-keyboard-response",568,756261,"0.0-3.185-2.185","nkvf7g8nwth6mg2",713,"44.csv","","null","resources/images/coin2.png","null","",NA,NA,NA,NA,""
"image-keyboard-response",569,758736,"0.0-3.186-0.186","nkvf7g8nwth6mg2",713,"44.csv","","2474.2999999523163","resources/trios/L1T1A2.jpg","38","restless",0.5,0.7,0.5,0.3690635455735,"true"
"image-keyboard-response",570,759154,"0.0-3.186-1.186","nkvf7g8nwth6mg2",713,"44.csv","","null","resources/maskTrios/BT1B.jpg","null","",NA,NA,NA,NA,""
"image-keyboard-response",571,760371,"0.0-3.186-2.186","nkvf7g8nwth6mg2",713,"44.csv","","null","resources/images/coin2.png","null","",NA,NA,NA,NA,""
"image-keyboard-response",572,763016,"0.0-3.187-0.187","nkvf7g8nwth6mg2",713,"44.csv","","2643.2999999523163","resources/trios/L2T4A2.jpg","37","restless",0.5,0.7,0.5,0.409737171160593,"true"
"image-keyboard-response",573,763432,"0.0-3.187-1.187","nkvf7g8nwth6mg2",713,"44.csv","","null","resources/maskTrios/L2BB.jpg","null","",NA,NA,NA,NA,""
"image-keyboard-response",574,764647,"0.0-3.187-2.187","nkvf7g8nwth6mg2",713,"44.csv","","null","resources/images/coin2.png","null","",NA,NA,NA,NA,""
"image-keyboard-response",575,768168,"0.0-3.188-0.188","nkvf7g8nwth6mg2",713,"44.csv","","3519","resources/trios/L2T1A3.jpg","38","restless",0.5,0.8,0.5,0.625975966568412,"true"
"image-keyboard-response",576,768573,"0.0-3.188-1.188","nkvf7g8nwth6mg2",713,"44.csv","","null","resources/maskTrios/BT1B.jpg","null","",NA,NA,NA,NA,""
"image-keyboard-response",577,769793,"0.0-3.188-2.188","nkvf7g8nwth6mg2",713,"44.csv","","null","resources/images/coin2.png","null","",NA,NA,NA,NA,""
"image-keyboard-response",578,775032,"0.0-3.189-0.189","nkvf7g8nwth6mg2",713,"44.csv","","5236.400000095367","resources/trios/L1T4A2.jpg","39","restless",0.5,0.8,0.5,0.19248267417533,"true"
"image-keyboard-response",579,775438,"0.0-3.189-1.189","nkvf7g8nwth6mg2",713,"44.csv","","null","resources/maskTrios/BBA2.jpg","null","",NA,NA,NA,NA,""
"image-keyboard-response",580,776653,"0.0-3.189-2.189","nkvf7g8nwth6mg2",713,"44.csv","","null","resources/images/coin2.png","null","",NA,NA,NA,NA,""
"image-keyboard-response",581,779677,"0.0-3.190-0.190","nkvf7g8nwth6mg2",713,"44.csv","","3022.399999856949","resources/trios/L2T4A3.jpg","37","restless",0.5,0.8,0.5,0.438473085471837,"true"
"image-keyboard-response",582,780098,"0.0-3.190-1.190","nkvf7g8nwth6mg2",713,"44.csv","","null","resources/maskTrios/L2BB.jpg","null","",NA,NA,NA,NA,""
"image-keyboard-response",583,781314,"0.0-3.190-2.190","nkvf7g8nwth6mg2",713,"44.csv","","null","resources/images/coin2.png","null","",NA,NA,NA,NA,""
"image-keyboard-response",584,792252,"0.0-3.191-0.191","nkvf7g8nwth6mg2",713,"44.csv","","10938","resources/trios/L2T4A2.jpg","37","restless",0.5,0.8,0.5,0.419313386692874,"true"
"image-keyboard-response",585,792666,"0.0-3.191-1.191","nkvf7g8nwth6mg2",713,"44.csv","","null","resources/maskTrios/L2BB.jpg","null","",NA,NA,NA,NA,""
"image-keyboard-response",586,793882,"0.0-3.191-2.191","nkvf7g8nwth6mg2",713,"44.csv","","null","resources/images/coin2.png","null","",NA,NA,NA,NA,""
"image-keyboard-response",587,795117,"0.0-3.192-0.192","nkvf7g8nwth6mg2",713,"44.csv","","1232.2999999523163","resources/trios/L2T4A2.jpg","37","restless",0.5,0.8,0.5,0.314361394802233,"true"
"image-keyboard-response",588,795541,"0.0-3.192-1.192","nkvf7g8nwth6mg2",713,"44.csv","","null","resources/maskTrios/L2BB.jpg","null","",NA,NA,NA,NA,""
"image-keyboard-response",589,796758,"0.0-3.192-2.192","nkvf7g8nwth6mg2",713,"44.csv","","null","resources/images/coin2.png","null","",NA,NA,NA,NA,""
"image-keyboard-response",590,798857,"0.0-3.193-0.193","nkvf7g8nwth6mg2",713,"44.csv","","2096.9000000953674","resources/trios/L1T1A2.jpg","38","restless",0.5,0.8,0.5,0.343077479130351,"true"
"image-keyboard-response",591,799267,"0.0-3.193-1.193","nkvf7g8nwth6mg2",713,"44.csv","","null","resources/maskTrios/BT1B.jpg","null","",NA,NA,NA,NA,""
"image-keyboard-response",592,800477,"0.0-3.193-2.193","nkvf7g8nwth6mg2",713,"44.csv","","null","resources/images/coin2.png","null","",NA,NA,NA,NA,""
"image-keyboard-response",593,802764,"0.0-3.194-0.194","nkvf7g8nwth6mg2",713,"44.csv","","2285","resources/trios/L2T1A2.jpg","38","restless",0.5,0.8,0.5,0.98871901739621,"false"
"image-keyboard-response",594,803165,"0.0-3.194-1.194","nkvf7g8nwth6mg2",713,"44.csv","","null","resources/maskTrios/BT1B.jpg","null","",NA,NA,NA,NA,""
"image-keyboard-response",595,804379,"0.0-3.194-2.194","nkvf7g8nwth6mg2",713,"44.csv","","null","resources/images/fishbone.png","null","",NA,NA,NA,NA,""
"image-keyboard-response",596,805551,"0.0-3.195-0.195","nkvf7g8nwth6mg2",713,"44.csv","","1170.1999998092651","resources/trios/L2T4A2.jpg","37","restless",0.5,0.8,0.5,0.758857084645157,"false"
"image-keyboard-response",597,805966,"0.0-3.195-1.195","nkvf7g8nwth6mg2",713,"44.csv","","null","resources/maskTrios/L2BB.jpg","null","",NA,NA,NA,NA,""
"image-keyboard-response",598,807178,"0.0-3.195-2.195","nkvf7g8nwth6mg2",713,"44.csv","","null","resources/images/fishbone.png","null","",NA,NA,NA,NA,""
"image-keyboard-response",599,808950,"0.0-3.196-0.196","nkvf7g8nwth6mg2",713,"44.csv","","1769.6000001430511","resources/trios/L2T4A3.jpg","37","restless",0.5,0.8,0.5,0.590617389753999,"false"
"image-keyboard-response",600,809360,"0.0-3.196-1.196","nkvf7g8nwth6mg2",713,"44.csv","","null","resources/maskTrios/L2BB.jpg","null","",NA,NA,NA,NA,""
"image-keyboard-response",601,810575,"0.0-3.196-2.196","nkvf7g8nwth6mg2",713,"44.csv","","null","resources/images/fishbone.png","null","",NA,NA,NA,NA,""
"image-keyboard-response",602,817010,"0.0-3.197-0.197","nkvf7g8nwth6mg2",713,"44.csv","","6434","resources/trios/L1T4A3.jpg","37","restless",0.5,0.8,0.5,0.704663421069192,"false"
"image-keyboard-response",603,817414,"0.0-3.197-1.197","nkvf7g8nwth6mg2",713,"44.csv","","null","resources/maskTrios/L1BB.jpg","null","",NA,NA,NA,NA,""
"image-keyboard-response",604,818622,"0.0-3.197-2.197","nkvf7g8nwth6mg2",713,"44.csv","","null","resources/images/fishbone.png","null","",NA,NA,NA,NA,""
"image-keyboard-response",605,824058,"0.0-3.198-0.198","nkvf7g8nwth6mg2",713,"44.csv","","5434.400000095367","resources/trios/L2T4A3.jpg","37","restless",0.5,0.8,0.5,0.418906612146933,"true"
"image-keyboard-response",606,824471,"0.0-3.198-1.198","nkvf7g8nwth6mg2",713,"44.csv","","null","resources/maskTrios/L2BB.jpg","null","",NA,NA,NA,NA,""
"image-keyboard-response",607,825678,"0.0-3.198-2.198","nkvf7g8nwth6mg2",713,"44.csv","","null","resources/images/coin2.png","null","",NA,NA,NA,NA,""
"image-keyboard-response",608,827186,"0.0-3.199-0.199","nkvf7g8nwth6mg2",713,"44.csv","","1505.1999998092651","resources/trios/L1T1A3.jpg","38","restless",0.5,0.8,0.5,0.0854211063157344,"true"
"image-keyboard-response",609,827590,"0.0-3.199-1.199","nkvf7g8nwth6mg2",713,"44.csv","","null","resources/maskTrios/BT1B.jpg","null","",NA,NA,NA,NA,""
"image-keyboard-response",610,828812,"0.0-3.199-2.199","nkvf7g8nwth6mg2",713,"44.csv","","null","resources/images/coin2.png","null","",NA,NA,NA,NA,""
