"trial_type","trial_index","time_elapsed","internal_node_id","subject","participantCode","walkNumber","success","rt","stimulus","key_press","test_part","leftProb","midProb","rightProb","generatedNum","correct"
"pavlovia",0,1073,"0.0-0.0","6ms5mnsj21nfn5v",405,"88.csv","","","","","",NA,NA,NA,NA,""
"fullscreen",1,5906,"0.0-1.0","6ms5mnsj21nfn5v",405,"88.csv","true","","","","",NA,NA,NA,NA,""
"html-keyboard-response",2,34405,"0.0-2.0-0.0","6ms5mnsj21nfn5v",405,"88.csv","","28496","<p><font size='6'>Arrrgh!</p></font><p>Can you be the best pirate? Try to find lots of gold! But beware, some islands have more gold than others, and over time, the island with the most gold may change. Can YOU figure it out? </p><font size='6'>GOOD LUCK, CAPTAIN!!!</font><p>Press any key to begin</p>","32","",NA,NA,NA,NA,""
"image-keyboard-response",3,37420,"0.0-2.0-1.0","6ms5mnsj21nfn5v",405,"88.csv","","null","resources/image_sets/111.png","null","",NA,NA,NA,NA,""
"image-keyboard-response",4,40696,"0.0-2.0-2.0","6ms5mnsj21nfn5v",405,"88.csv","","3273.0999999046326","resources/image_sets/left_highlight.png","37","",NA,NA,NA,NA,""
"image-keyboard-response",5,42382,"0.0-2.0-3.0","6ms5mnsj21nfn5v",405,"88.csv","","1684","resources/image_sets/mid_highlight.png","38","",NA,NA,NA,NA,""
"image-keyboard-response",6,43041,"0.0-2.0-4.0","6ms5mnsj21nfn5v",405,"88.csv","","656.5","resources/image_sets/right_highlight.png","39","",NA,NA,NA,NA,""
"image-keyboard-response",7,45936,"0.0-2.0-5.0","6ms5mnsj21nfn5v",405,"88.csv","","2893.399999856949","resources/image_sets/111.png","13","",NA,NA,NA,NA,""
"image-keyboard-response",8,47831,"0.0-2.0-6.0","6ms5mnsj21nfn5v",405,"88.csv","","1893.2999999523163","resources/images/coin2.png","13","",NA,NA,NA,NA,""
"image-keyboard-response",9,49163,"0.0-2.0-7.0","6ms5mnsj21nfn5v",405,"88.csv","","1330.7000000476837","resources/images/fishbone.png","13","",NA,NA,NA,NA,""
"html-keyboard-response",10,54142,"0.0-2.0-8.0","6ms5mnsj21nfn5v",405,"88.csv","","4979","<p>Your first journey will be a long one, but you will get a well deserved break at the end</p><p>After the break you will have four more journeys, but each will be much shorter than the first, and you will have breaks in between each</p><p>Press Enter to begin</p>","13","",NA,NA,NA,NA,""
"image-keyboard-response",11,57051,"0.0-3.0-0.0","6ms5mnsj21nfn5v",405,"88.csv","","2906.2999999523163","resources/trios/L4T1A3.jpg","38","restless",0.7,0.3,0.9,0.0420326855381747,"true"
"image-keyboard-response",12,57466,"0.0-3.0-1.0","6ms5mnsj21nfn5v",405,"88.csv","","null","resources/maskTrios/BT1B.jpg","null","",NA,NA,NA,NA,""
"image-keyboard-response",13,58677,"0.0-3.0-2.0","6ms5mnsj21nfn5v",405,"88.csv","","null","resources/images/coin2.png","null","",NA,NA,NA,NA,""
"image-keyboard-response",14,60880,"0.0-3.1-0.1","6ms5mnsj21nfn5v",405,"88.csv","","2199.7999999523163","resources/trios/L4T1A3.jpg","38","restless",0.7,0.3,0.9,0.1430752152112,"true"
"image-keyboard-response",15,61300,"0.0-3.1-1.1","6ms5mnsj21nfn5v",405,"88.csv","","null","resources/maskTrios/BT1B.jpg","null","",NA,NA,NA,NA,""
"image-keyboard-response",16,62511,"0.0-3.1-2.1","6ms5mnsj21nfn5v",405,"88.csv","","null","resources/images/coin2.png","null","",NA,NA,NA,NA,""
"image-keyboard-response",17,65652,"0.0-3.2-0.2","6ms5mnsj21nfn5v",405,"88.csv","","3137.5","resources/trios/L4T4A3.jpg","37","restless",0.7,0.3,0.9,0.157172144051021,"true"
"image-keyboard-response",18,66069,"0.0-3.2-1.2","6ms5mnsj21nfn5v",405,"88.csv","","null","resources/maskTrios/L4BB.jpg","null","",NA,NA,NA,NA,""
"image-keyboard-response",19,67274,"0.0-3.2-2.2","6ms5mnsj21nfn5v",405,"88.csv","","null","resources/images/coin2.png","null","",NA,NA,NA,NA,""
"image-keyboard-response",20,69356,"0.0-3.3-0.3","6ms5mnsj21nfn5v",405,"88.csv","","2079.5","resources/trios/L1T4A1.jpg","37","restless",0.7,0.3,0.9,0.812705844752128,"false"
"image-keyboard-response",21,69767,"0.0-3.3-1.3","6ms5mnsj21nfn5v",405,"88.csv","","null","resources/maskTrios/L1BB.jpg","null","",NA,NA,NA,NA,""
"image-keyboard-response",22,70983,"0.0-3.3-2.3","6ms5mnsj21nfn5v",405,"88.csv","","null","resources/images/fishbone.png","null","",NA,NA,NA,NA,""
"image-keyboard-response",23,71969,"0.0-3.4-0.4","6ms5mnsj21nfn5v",405,"88.csv","","984.2999999523163","resources/trios/L1T1A3.jpg","38","restless",0.7,0.3,0.9,0.0574606190433347,"true"
"image-keyboard-response",24,72383,"0.0-3.4-1.4","6ms5mnsj21nfn5v",405,"88.csv","","null","resources/maskTrios/BT1B.jpg","null","",NA,NA,NA,NA,""
"image-keyboard-response",25,73606,"0.0-3.4-2.4","6ms5mnsj21nfn5v",405,"88.csv","","null","resources/images/coin2.png","null","",NA,NA,NA,NA,""
"image-keyboard-response",26,75659,"0.0-3.5-0.5","6ms5mnsj21nfn5v",405,"88.csv","","2050.7999999523163","resources/trios/L4T1A3.jpg","38","restless",0.7,0.3,0.9,0.522096320107759,"false"
"image-keyboard-response",27,76067,"0.0-3.5-1.5","6ms5mnsj21nfn5v",405,"88.csv","","null","resources/maskTrios/BT1B.jpg","null","",NA,NA,NA,NA,""
"image-keyboard-response",28,77285,"0.0-3.5-2.5","6ms5mnsj21nfn5v",405,"88.csv","","null","resources/images/fishbone.png","null","",NA,NA,NA,NA,""
"image-keyboard-response",29,80103,"0.0-3.6-0.6","6ms5mnsj21nfn5v",405,"88.csv","","2814.7999999523163","resources/trios/L1T1A1.jpg","39","restless",0.7,0.3,0.9,0.643203897649658,"true"
"image-keyboard-response",30,80519,"0.0-3.6-1.6","6ms5mnsj21nfn5v",405,"88.csv","","null","resources/maskTrios/BBA1.jpg","null","",NA,NA,NA,NA,""
"image-keyboard-response",31,81741,"0.0-3.6-2.6","6ms5mnsj21nfn5v",405,"88.csv","","null","resources/images/coin2.png","null","",NA,NA,NA,NA,""
"image-keyboard-response",32,82516,"0.0-3.7-0.7","6ms5mnsj21nfn5v",405,"88.csv","","772.5999999046326","resources/trios/L1T1A1.jpg","39","restless",0.7,0.3,0.9,0.0533489897340267,"true"
"image-keyboard-response",33,82933,"0.0-3.7-1.7","6ms5mnsj21nfn5v",405,"88.csv","","null","resources/maskTrios/BBA1.jpg","null","",NA,NA,NA,NA,""
"image-keyboard-response",34,84157,"0.0-3.7-2.7","6ms5mnsj21nfn5v",405,"88.csv","","null","resources/images/coin2.png","null","",NA,NA,NA,NA,""
"image-keyboard-response",35,85071,"0.0-3.8-0.8","6ms5mnsj21nfn5v",405,"88.csv","","911.7000000476837","resources/trios/L1T4A3.jpg","39","restless",0.7,0.2,0.8,0.0901649065353478,"true"
"image-keyboard-response",36,85488,"0.0-3.8-1.8","6ms5mnsj21nfn5v",405,"88.csv","","null","resources/maskTrios/BBA3.jpg","null","",NA,NA,NA,NA,""
"image-keyboard-response",37,86709,"0.0-3.8-2.8","6ms5mnsj21nfn5v",405,"88.csv","","null","resources/images/coin2.png","null","",NA,NA,NA,NA,""
"image-keyboard-response",38,87134,"0.0-3.9-0.9","6ms5mnsj21nfn5v",405,"88.csv","","421.90000009536743","resources/trios/L4T4A1.jpg","39","restless",0.7,0.2,0.8,0.730243216211782,"true"
"image-keyboard-response",39,87559,"0.0-3.9-1.9","6ms5mnsj21nfn5v",405,"88.csv","","null","resources/maskTrios/BBA1.jpg","null","",NA,NA,NA,NA,""
"image-keyboard-response",40,88774,"0.0-3.9-2.9","6ms5mnsj21nfn5v",405,"88.csv","","null","resources/images/coin2.png","null","",NA,NA,NA,NA,""
"image-keyboard-response",41,89165,"0.0-3.10-0.10","6ms5mnsj21nfn5v",405,"88.csv","","387.7999999523163","resources/trios/L4T1A3.jpg","39","restless",0.6,0.1,0.8,0.598292336122018,"true"
"image-keyboard-response",42,89572,"0.0-3.10-1.10","6ms5mnsj21nfn5v",405,"88.csv","","null","resources/maskTrios/BBA3.jpg","null","",NA,NA,NA,NA,""
"image-keyboard-response",43,90792,"0.0-3.10-2.10","6ms5mnsj21nfn5v",405,"88.csv","","null","resources/images/coin2.png","null","",NA,NA,NA,NA,""
"image-keyboard-response",44,91120,"0.0-3.11-0.11","6ms5mnsj21nfn5v",405,"88.csv","","325.59999990463257","resources/trios/L4T4A1.jpg","39","restless",0.6,0.1,0.8,0.00577607423479276,"true"
"image-keyboard-response",45,91530,"0.0-3.11-1.11","6ms5mnsj21nfn5v",405,"88.csv","","null","resources/maskTrios/BBA1.jpg","null","",NA,NA,NA,NA,""
"image-keyboard-response",46,92749,"0.0-3.11-2.11","6ms5mnsj21nfn5v",405,"88.csv","","null","resources/images/coin2.png","null","",NA,NA,NA,NA,""
"image-keyboard-response",47,93006,"0.0-3.12-0.12","6ms5mnsj21nfn5v",405,"88.csv","","253.79999995231628","resources/trios/L1T4A1.jpg","39","restless",0.6,0.1,0.8,0.652232114549828,"true"
"image-keyboard-response",48,93431,"0.0-3.12-1.12","6ms5mnsj21nfn5v",405,"88.csv","","null","resources/maskTrios/BBA1.jpg","null","",NA,NA,NA,NA,""
"image-keyboard-response",49,94652,"0.0-3.12-2.12","6ms5mnsj21nfn5v",405,"88.csv","","null","resources/images/coin2.png","null","",NA,NA,NA,NA,""
"image-keyboard-response",50,94704,"0.0-3.13-0.13","6ms5mnsj21nfn5v",405,"88.csv","","49.09999990463257","resources/trios/L4T4A1.jpg","39","restless",0.5,0.1,0.8,0.0833345761876969,"true"
"image-keyboard-response",51,95127,"0.0-3.13-1.13","6ms5mnsj21nfn5v",405,"88.csv","","null","resources/maskTrios/BBA1.jpg","null","",NA,NA,NA,NA,""
"image-keyboard-response",52,96339,"0.0-3.13-2.13","6ms5mnsj21nfn5v",405,"88.csv","","null","resources/images/coin2.png","null","",NA,NA,NA,NA,""
"image-keyboard-response",53,96363,"0.0-3.14-0.14","6ms5mnsj21nfn5v",405,"88.csv","","21.699999809265137","resources/trios/L1T1A3.jpg","39","restless",0.5,0.1,0.8,0.507979252236408,"true"
"image-keyboard-response",54,96779,"0.0-3.14-1.14","6ms5mnsj21nfn5v",405,"88.csv","","null","resources/maskTrios/BBA3.jpg","null","",NA,NA,NA,NA,""
"image-keyboard-response",55,97998,"0.0-3.14-2.14","6ms5mnsj21nfn5v",405,"88.csv","","null","resources/images/coin2.png","null","",NA,NA,NA,NA,""
"image-keyboard-response",56,98337,"0.0-3.15-0.15","6ms5mnsj21nfn5v",405,"88.csv","","336.69999980926514","resources/trios/L4T4A1.jpg","39","restless",0.5,0.1,0.7,0.917863817497393,"false"
"image-keyboard-response",57,98746,"0.0-3.15-1.15","6ms5mnsj21nfn5v",405,"88.csv","","null","resources/maskTrios/BBA1.jpg","null","",NA,NA,NA,NA,""
"image-keyboard-response",58,99961,"0.0-3.15-2.15","6ms5mnsj21nfn5v",405,"88.csv","","null","resources/images/fishbone.png","null","",NA,NA,NA,NA,""
"image-keyboard-response",59,102259,"0.0-3.16-0.16","6ms5mnsj21nfn5v",405,"88.csv","","2294.899999856949","resources/trios/L1T1A1.jpg","38","restless",0.5,0.1,0.7,0.82277146802864,"false"
"image-keyboard-response",60,102666,"0.0-3.16-1.16","6ms5mnsj21nfn5v",405,"88.csv","","null","resources/maskTrios/BT1B.jpg","null","",NA,NA,NA,NA,""
"image-keyboard-response",61,103883,"0.0-3.16-2.16","6ms5mnsj21nfn5v",405,"88.csv","","null","resources/images/fishbone.png","null","",NA,NA,NA,NA,""
"image-keyboard-response",62,104985,"0.0-3.17-0.17","6ms5mnsj21nfn5v",405,"88.csv","","1099.5","resources/trios/L4T4A3.jpg","39","restless",0.5,0.1,0.7,0.757852386547292,"false"
"image-keyboard-response",63,105402,"0.0-3.17-1.17","6ms5mnsj21nfn5v",405,"88.csv","","null","resources/maskTrios/BBA3.jpg","null","",NA,NA,NA,NA,""
"image-keyboard-response",64,106613,"0.0-3.17-2.17","6ms5mnsj21nfn5v",405,"88.csv","","null","resources/images/fishbone.png","null","",NA,NA,NA,NA,""
"image-keyboard-response",65,106950,"0.0-3.18-0.18","6ms5mnsj21nfn5v",405,"88.csv","","334.5","resources/trios/L4T1A3.jpg","37","restless",0.5,0.1,0.7,0.251326831736733,"true"
"image-keyboard-response",66,107367,"0.0-3.18-1.18","6ms5mnsj21nfn5v",405,"88.csv","","null","resources/maskTrios/L4BB.jpg","null","",NA,NA,NA,NA,""
"image-keyboard-response",67,108589,"0.0-3.18-2.18","6ms5mnsj21nfn5v",405,"88.csv","","null","resources/images/coin2.png","null","",NA,NA,NA,NA,""
"image-keyboard-response",68,110715,"0.0-3.19-0.19","6ms5mnsj21nfn5v",405,"88.csv","","2122.5999999046326","resources/trios/L1T4A3.jpg","37","restless",0.4,0.1,0.7,0.981833543756675,"false"
"image-keyboard-response",69,111134,"0.0-3.19-1.19","6ms5mnsj21nfn5v",405,"88.csv","","null","resources/maskTrios/L1BB.jpg","null","",NA,NA,NA,NA,""
"image-keyboard-response",70,112353,"0.0-3.19-2.19","6ms5mnsj21nfn5v",405,"88.csv","","null","resources/images/fishbone.png","null","",NA,NA,NA,NA,""
"image-keyboard-response",71,112671,"0.0-3.20-0.20","6ms5mnsj21nfn5v",405,"88.csv","","316.60000014305115","resources/trios/L4T4A1.jpg","38","restless",0.4,0.1,0.7,0.954172716770562,"false"
"image-keyboard-response",72,113084,"0.0-3.20-1.20","6ms5mnsj21nfn5v",405,"88.csv","","null","resources/maskTrios/BT4B.jpg","null","",NA,NA,NA,NA,""
"image-keyboard-response",73,114303,"0.0-3.20-2.20","6ms5mnsj21nfn5v",405,"88.csv","","null","resources/images/fishbone.png","null","",NA,NA,NA,NA,""
"image-keyboard-response",74,115573,"0.0-3.21-0.21","6ms5mnsj21nfn5v",405,"88.csv","","1267.9000000953674","resources/trios/L4T1A3.jpg","38","restless",0.4,0.1,0.7,0.716325832951229,"false"
"image-keyboard-response",75,115989,"0.0-3.21-1.21","6ms5mnsj21nfn5v",405,"88.csv","","null","resources/maskTrios/BT1B.jpg","null","",NA,NA,NA,NA,""
"image-keyboard-response",76,117204,"0.0-3.21-2.21","6ms5mnsj21nfn5v",405,"88.csv","","null","resources/images/fishbone.png","null","",NA,NA,NA,NA,""
"image-keyboard-response",77,117828,"0.0-3.22-0.22","6ms5mnsj21nfn5v",405,"88.csv","","622.3999998569489","resources/trios/L4T1A1.jpg","39","restless",0.4,0.1,0.7,0.234841395970847,"true"
"image-keyboard-response",78,118233,"0.0-3.22-1.22","6ms5mnsj21nfn5v",405,"88.csv","","null","resources/maskTrios/BBA1.jpg","null","",NA,NA,NA,NA,""
"image-keyboard-response",79,119448,"0.0-3.22-2.22","6ms5mnsj21nfn5v",405,"88.csv","","null","resources/images/coin2.png","null","",NA,NA,NA,NA,""
"image-keyboard-response",80,119688,"0.0-3.23-0.23","6ms5mnsj21nfn5v",405,"88.csv","","237.29999995231628","resources/trios/L4T4A1.jpg","39","restless",0.5,0.1,0.7,0.237836088036359,"true"
"image-keyboard-response",81,120111,"0.0-3.23-1.23","6ms5mnsj21nfn5v",405,"88.csv","","null","resources/maskTrios/BBA1.jpg","null","",NA,NA,NA,NA,""
"image-keyboard-response",82,121315,"0.0-3.23-2.23","6ms5mnsj21nfn5v",405,"88.csv","","null","resources/images/coin2.png","null","",NA,NA,NA,NA,""
"image-keyboard-response",83,122021,"0.0-3.24-0.24","6ms5mnsj21nfn5v",405,"88.csv","","703.3000001907349","resources/trios/L1T4A1.jpg","39","restless",0.6,0.1,0.7,0.687906823798335,"true"
"image-keyboard-response",84,122440,"0.0-3.24-1.24","6ms5mnsj21nfn5v",405,"88.csv","","null","resources/maskTrios/BBA1.jpg","null","",NA,NA,NA,NA,""
"image-keyboard-response",85,123652,"0.0-3.24-2.24","6ms5mnsj21nfn5v",405,"88.csv","","null","resources/images/coin2.png","null","",NA,NA,NA,NA,""
"image-keyboard-response",86,124058,"0.0-3.25-0.25","6ms5mnsj21nfn5v",405,"88.csv","","404","resources/trios/L1T4A1.jpg","39","restless",0.6,0.1,0.7,0.672366992691533,"true"
"image-keyboard-response",87,124472,"0.0-3.25-1.25","6ms5mnsj21nfn5v",405,"88.csv","","null","resources/maskTrios/BBA1.jpg","null","",NA,NA,NA,NA,""
"image-keyboard-response",88,125685,"0.0-3.25-2.25","6ms5mnsj21nfn5v",405,"88.csv","","null","resources/images/coin2.png","null","",NA,NA,NA,NA,""
"image-keyboard-response",89,125944,"0.0-3.26-0.26","6ms5mnsj21nfn5v",405,"88.csv","","257.10000014305115","resources/trios/L4T4A3.jpg","39","restless",0.6,0.1,0.7,0.00158479531739286,"true"
"image-keyboard-response",90,126365,"0.0-3.26-1.26","6ms5mnsj21nfn5v",405,"88.csv","","null","resources/maskTrios/BBA3.jpg","null","",NA,NA,NA,NA,""
"image-keyboard-response",91,127574,"0.0-3.26-2.26","6ms5mnsj21nfn5v",405,"88.csv","","null","resources/images/coin2.png","null","",NA,NA,NA,NA,""
"image-keyboard-response",92,127825,"0.0-3.27-0.27","6ms5mnsj21nfn5v",405,"88.csv","","248.89999985694885","resources/trios/L4T4A3.jpg","39","restless",0.6,0.1,0.7,0.28990254218525,"true"
"image-keyboard-response",93,128237,"0.0-3.27-1.27","6ms5mnsj21nfn5v",405,"88.csv","","null","resources/maskTrios/BBA3.jpg","null","",NA,NA,NA,NA,""
"image-keyboard-response",94,129447,"0.0-3.27-2.27","6ms5mnsj21nfn5v",405,"88.csv","","null","resources/images/coin2.png","null","",NA,NA,NA,NA,""
"image-keyboard-response",95,129725,"0.0-3.28-0.28","6ms5mnsj21nfn5v",405,"88.csv","","275.39999985694885","resources/trios/L4T4A3.jpg","39","restless",0.5,0.1,0.6,0.0654375370381257,"true"
"image-keyboard-response",96,130135,"0.0-3.28-1.28","6ms5mnsj21nfn5v",405,"88.csv","","null","resources/maskTrios/BBA3.jpg","null","",NA,NA,NA,NA,""
"image-keyboard-response",97,131359,"0.0-3.28-2.28","6ms5mnsj21nfn5v",405,"88.csv","","null","resources/images/coin2.png","null","",NA,NA,NA,NA,""
"image-keyboard-response",98,131620,"0.0-3.29-0.29","6ms5mnsj21nfn5v",405,"88.csv","","258","resources/trios/L1T4A3.jpg","39","restless",0.5,0.1,0.6,0.631627050318089,"false"
"image-keyboard-response",99,132032,"0.0-3.29-1.29","6ms5mnsj21nfn5v",405,"88.csv","","null","resources/maskTrios/BBA3.jpg","null","",NA,NA,NA,NA,""
"image-keyboard-response",100,133253,"0.0-3.29-2.29","6ms5mnsj21nfn5v",405,"88.csv","","null","resources/images/fishbone.png","null","",NA,NA,NA,NA,""
"image-keyboard-response",101,133680,"0.0-3.30-0.30","6ms5mnsj21nfn5v",405,"88.csv","","424.90000009536743","resources/trios/L4T4A3.jpg","39","restless",0.5,0.1,0.6,0.632970161037621,"false"
"image-keyboard-response",102,134089,"0.0-3.30-1.30","6ms5mnsj21nfn5v",405,"88.csv","","null","resources/maskTrios/BBA3.jpg","null","",NA,NA,NA,NA,""
"image-keyboard-response",103,135310,"0.0-3.30-2.30","6ms5mnsj21nfn5v",405,"88.csv","","null","resources/images/fishbone.png","null","",NA,NA,NA,NA,""
"image-keyboard-response",104,136281,"0.0-3.31-0.31","6ms5mnsj21nfn5v",405,"88.csv","","968.6999998092651","resources/trios/L4T1A1.jpg","38","restless",0.5,0.1,0.6,0.058324013813132,"true"
"image-keyboard-response",105,136689,"0.0-3.31-1.31","6ms5mnsj21nfn5v",405,"88.csv","","null","resources/maskTrios/BT1B.jpg","null","",NA,NA,NA,NA,""
"image-keyboard-response",106,137900,"0.0-3.31-2.31","6ms5mnsj21nfn5v",405,"88.csv","","null","resources/images/coin2.png","null","",NA,NA,NA,NA,""
"image-keyboard-response",107,138343,"0.0-3.32-0.32","6ms5mnsj21nfn5v",405,"88.csv","","440.7999999523163","resources/trios/L4T1A3.jpg","38","restless",0.5,0.1,0.6,0.367326208133338,"false"
"image-keyboard-response",108,138756,"0.0-3.32-1.32","6ms5mnsj21nfn5v",405,"88.csv","","null","resources/maskTrios/BT1B.jpg","null","",NA,NA,NA,NA,""
"image-keyboard-response",109,139973,"0.0-3.32-2.32","6ms5mnsj21nfn5v",405,"88.csv","","null","resources/images/fishbone.png","null","",NA,NA,NA,NA,""
"image-keyboard-response",110,140339,"0.0-3.33-0.33","6ms5mnsj21nfn5v",405,"88.csv","","364","resources/trios/L1T4A1.jpg","39","restless",0.5,0.1,0.6,0.261427789463403,"true"
"image-keyboard-response",111,140750,"0.0-3.33-1.33","6ms5mnsj21nfn5v",405,"88.csv","","null","resources/maskTrios/BBA1.jpg","null","",NA,NA,NA,NA,""
"image-keyboard-response",112,141957,"0.0-3.33-2.33","6ms5mnsj21nfn5v",405,"88.csv","","null","resources/images/coin2.png","null","",NA,NA,NA,NA,""
"image-keyboard-response",113,142541,"0.0-3.34-0.34","6ms5mnsj21nfn5v",405,"88.csv","","581.5","resources/trios/L4T4A3.jpg","39","restless",0.5,0.2,0.6,0.198425408245902,"true"
"image-keyboard-response",114,142947,"0.0-3.34-1.34","6ms5mnsj21nfn5v",405,"88.csv","","null","resources/maskTrios/BBA3.jpg","null","",NA,NA,NA,NA,""
"image-keyboard-response",115,144161,"0.0-3.34-2.34","6ms5mnsj21nfn5v",405,"88.csv","","null","resources/images/coin2.png","null","",NA,NA,NA,NA,""
"image-keyboard-response",116,144294,"0.0-3.35-0.35","6ms5mnsj21nfn5v",405,"88.csv","","130.19999980926514","resources/trios/L1T1A3.jpg","39","restless",0.5,0.3,0.6,0.34717312178588,"true"
"image-keyboard-response",117,144715,"0.0-3.35-1.35","6ms5mnsj21nfn5v",405,"88.csv","","null","resources/maskTrios/BBA3.jpg","null","",NA,NA,NA,NA,""
"image-keyboard-response",118,145938,"0.0-3.35-2.35","6ms5mnsj21nfn5v",405,"88.csv","","null","resources/images/coin2.png","null","",NA,NA,NA,NA,""
"image-keyboard-response",119,146409,"0.0-3.36-0.36","6ms5mnsj21nfn5v",405,"88.csv","","467.60000014305115","resources/trios/L4T4A3.jpg","39","restless",0.5,0.3,0.6,0.839421879324106,"false"
"image-keyboard-response",120,146828,"0.0-3.36-1.36","6ms5mnsj21nfn5v",405,"88.csv","","null","resources/maskTrios/BBA3.jpg","null","",NA,NA,NA,NA,""
"image-keyboard-response",121,148049,"0.0-3.36-2.36","6ms5mnsj21nfn5v",405,"88.csv","","null","resources/images/fishbone.png","null","",NA,NA,NA,NA,""
"image-keyboard-response",122,148812,"0.0-3.37-0.37","6ms5mnsj21nfn5v",405,"88.csv","","760.2000000476837","resources/trios/L4T1A3.jpg","38","restless",0.5,0.3,0.6,0.430338311436597,"false"
"image-keyboard-response",123,149228,"0.0-3.37-1.37","6ms5mnsj21nfn5v",405,"88.csv","","null","resources/maskTrios/BT1B.jpg","null","",NA,NA,NA,NA,""
"image-keyboard-response",124,150445,"0.0-3.37-2.37","6ms5mnsj21nfn5v",405,"88.csv","","null","resources/images/fishbone.png","null","",NA,NA,NA,NA,""
"image-keyboard-response",125,151029,"0.0-3.38-0.38","6ms5mnsj21nfn5v",405,"88.csv","","582.5","resources/trios/L1T1A3.jpg","37","restless",0.5,0.3,0.6,0.322011998542012,"true"
"image-keyboard-response",126,151435,"0.0-3.38-1.38","6ms5mnsj21nfn5v",405,"88.csv","","null","resources/maskTrios/L1BB.jpg","null","",NA,NA,NA,NA,""
"image-keyboard-response",127,152654,"0.0-3.38-2.38","6ms5mnsj21nfn5v",405,"88.csv","","null","resources/images/coin2.png","null","",NA,NA,NA,NA,""
"image-keyboard-response",128,153419,"0.0-3.39-0.39","6ms5mnsj21nfn5v",405,"88.csv","","762.5999999046326","resources/trios/L1T4A3.jpg","37","restless",0.5,0.3,0.6,0.639945980552488,"false"
"image-keyboard-response",129,153837,"0.0-3.39-1.39","6ms5mnsj21nfn5v",405,"88.csv","","null","resources/maskTrios/L1BB.jpg","null","",NA,NA,NA,NA,""
"image-keyboard-response",130,155053,"0.0-3.39-2.39","6ms5mnsj21nfn5v",405,"88.csv","","null","resources/images/fishbone.png","null","",NA,NA,NA,NA,""
"image-keyboard-response",131,155946,"0.0-3.40-0.40","6ms5mnsj21nfn5v",405,"88.csv","","890.2999999523163","resources/trios/L1T4A1.jpg","39","restless",0.5,0.3,0.6,0.513806343630007,"true"
"image-keyboard-response",132,156363,"0.0-3.40-1.40","6ms5mnsj21nfn5v",405,"88.csv","","null","resources/maskTrios/BBA1.jpg","null","",NA,NA,NA,NA,""
"image-keyboard-response",133,157581,"0.0-3.40-2.40","6ms5mnsj21nfn5v",405,"88.csv","","null","resources/images/coin2.png","null","",NA,NA,NA,NA,""
"image-keyboard-response",134,157851,"0.0-3.41-0.41","6ms5mnsj21nfn5v",405,"88.csv","","268","resources/trios/L4T1A1.jpg","39","restless",0.5,0.2,0.6,0.154282256678316,"true"
"image-keyboard-response",135,158266,"0.0-3.41-1.41","6ms5mnsj21nfn5v",405,"88.csv","","null","resources/maskTrios/BBA1.jpg","null","",NA,NA,NA,NA,""
"image-keyboard-response",136,159484,"0.0-3.41-2.41","6ms5mnsj21nfn5v",405,"88.csv","","null","resources/images/coin2.png","null","",NA,NA,NA,NA,""
"image-keyboard-response",137,159985,"0.0-3.42-0.42","6ms5mnsj21nfn5v",405,"88.csv","","498.19999980926514","resources/trios/L1T1A3.jpg","39","restless",0.5,0.2,0.6,0.0458800177639587,"true"
"image-keyboard-response",138,160404,"0.0-3.42-1.42","6ms5mnsj21nfn5v",405,"88.csv","","null","resources/maskTrios/BBA3.jpg","null","",NA,NA,NA,NA,""
"image-keyboard-response",139,161623,"0.0-3.42-2.42","6ms5mnsj21nfn5v",405,"88.csv","","null","resources/images/coin2.png","null","",NA,NA,NA,NA,""
"image-keyboard-response",140,161869,"0.0-3.43-0.43","6ms5mnsj21nfn5v",405,"88.csv","","243.59999990463257","resources/trios/L1T4A1.jpg","39","restless",0.5,0.2,0.5,0.411932505929176,"true"
"image-keyboard-response",141,162282,"0.0-3.43-1.43","6ms5mnsj21nfn5v",405,"88.csv","","null","resources/maskTrios/BBA1.jpg","null","",NA,NA,NA,NA,""
"image-keyboard-response",142,163499,"0.0-3.43-2.43","6ms5mnsj21nfn5v",405,"88.csv","","null","resources/images/coin2.png","null","",NA,NA,NA,NA,""
"image-keyboard-response",143,163640,"0.0-3.44-0.44","6ms5mnsj21nfn5v",405,"88.csv","","138.60000014305115","resources/trios/L4T4A3.jpg","39","restless",0.5,0.2,0.5,0.814056293748356,"false"
"image-keyboard-response",144,164061,"0.0-3.44-1.44","6ms5mnsj21nfn5v",405,"88.csv","","null","resources/maskTrios/BBA3.jpg","null","",NA,NA,NA,NA,""
"image-keyboard-response",145,165275,"0.0-3.44-2.44","6ms5mnsj21nfn5v",405,"88.csv","","null","resources/images/fishbone.png","null","",NA,NA,NA,NA,""
"image-keyboard-response",146,166466,"0.0-3.45-0.45","6ms5mnsj21nfn5v",405,"88.csv","","1189.2000000476837","resources/trios/L4T1A3.jpg","38","restless",0.5,0.2,0.5,0.856070732141504,"false"
"image-keyboard-response",147,166878,"0.0-3.45-1.45","6ms5mnsj21nfn5v",405,"88.csv","","null","resources/maskTrios/BT1B.jpg","null","",NA,NA,NA,NA,""
"image-keyboard-response",148,168093,"0.0-3.45-2.45","6ms5mnsj21nfn5v",405,"88.csv","","null","resources/images/fishbone.png","null","",NA,NA,NA,NA,""
"image-keyboard-response",149,168411,"0.0-3.46-0.46","6ms5mnsj21nfn5v",405,"88.csv","","316.10000014305115","resources/trios/L1T4A3.jpg","39","restless",0.5,0.2,0.4,0.596838872602852,"false"
"image-keyboard-response",150,168814,"0.0-3.46-1.46","6ms5mnsj21nfn5v",405,"88.csv","","null","resources/maskTrios/BBA3.jpg","null","",NA,NA,NA,NA,""
"image-keyboard-response",151,170038,"0.0-3.46-2.46","6ms5mnsj21nfn5v",405,"88.csv","","null","resources/images/fishbone.png","null","",NA,NA,NA,NA,""
"image-keyboard-response",152,170326,"0.0-3.47-0.47","6ms5mnsj21nfn5v",405,"88.csv","","285.5","resources/trios/L1T4A1.jpg","37","restless",0.5,0.2,0.4,0.617901459373404,"false"
"image-keyboard-response",153,170731,"0.0-3.47-1.47","6ms5mnsj21nfn5v",405,"88.csv","","null","resources/maskTrios/L1BB.jpg","null","",NA,NA,NA,NA,""
"image-keyboard-response",154,171941,"0.0-3.47-2.47","6ms5mnsj21nfn5v",405,"88.csv","","null","resources/images/fishbone.png","null","",NA,NA,NA,NA,""
"image-keyboard-response",155,172171,"0.0-3.48-0.48","6ms5mnsj21nfn5v",405,"88.csv","","227.09999990463257","resources/trios/L4T4A1.jpg","39","restless",0.6,0.2,0.4,0.236350543717549,"true"
"image-keyboard-response",156,172589,"0.0-3.48-1.48","6ms5mnsj21nfn5v",405,"88.csv","","null","resources/maskTrios/BBA1.jpg","null","",NA,NA,NA,NA,""
"image-keyboard-response",157,173806,"0.0-3.48-2.48","6ms5mnsj21nfn5v",405,"88.csv","","null","resources/images/coin2.png","null","",NA,NA,NA,NA,""
"image-keyboard-response",158,173877,"0.0-3.49-0.49","6ms5mnsj21nfn5v",405,"88.csv","","68.39999985694885","resources/trios/L4T1A1.jpg","39","restless",0.6,0.2,0.5,0.195809353658195,"true"
"image-keyboard-response",159,174283,"0.0-3.49-1.49","6ms5mnsj21nfn5v",405,"88.csv","","null","resources/maskTrios/BBA1.jpg","null","",NA,NA,NA,NA,""
"image-keyboard-response",160,175498,"0.0-3.49-2.49","6ms5mnsj21nfn5v",405,"88.csv","","null","resources/images/coin2.png","null","",NA,NA,NA,NA,""
"image-keyboard-response",161,175531,"0.0-3.50-0.50","6ms5mnsj21nfn5v",405,"88.csv","","30.600000143051147","resources/trios/L1T1A1.jpg","39","restless",0.6,0.2,0.5,0.281441104283205,"true"
"image-keyboard-response",162,175936,"0.0-3.50-1.50","6ms5mnsj21nfn5v",405,"88.csv","","null","resources/maskTrios/BBA1.jpg","null","",NA,NA,NA,NA,""
"image-keyboard-response",163,177148,"0.0-3.50-2.50","6ms5mnsj21nfn5v",405,"88.csv","","null","resources/images/coin2.png","null","",NA,NA,NA,NA,""
"image-keyboard-response",164,177788,"0.0-3.51-0.51","6ms5mnsj21nfn5v",405,"88.csv","","637.6999998092651","resources/trios/L4T1A1.jpg","39","restless",0.7,0.2,0.5,0.588623189433588,"false"
"image-keyboard-response",165,178203,"0.0-3.51-1.51","6ms5mnsj21nfn5v",405,"88.csv","","null","resources/maskTrios/BBA1.jpg","null","",NA,NA,NA,NA,""
"image-keyboard-response",166,179419,"0.0-3.51-2.51","6ms5mnsj21nfn5v",405,"88.csv","","null","resources/images/fishbone.png","null","",NA,NA,NA,NA,""
"image-keyboard-response",167,181344,"0.0-3.52-0.52","6ms5mnsj21nfn5v",405,"88.csv","","1924.0999999046326","resources/trios/L1T4A1.jpg","38","restless",0.8,0.2,0.5,0.311014883432781,"false"
"image-keyboard-response",168,181752,"0.0-3.52-1.52","6ms5mnsj21nfn5v",405,"88.csv","","null","resources/maskTrios/BT4B.jpg","null","",NA,NA,NA,NA,""
"image-keyboard-response",169,182961,"0.0-3.52-2.52","6ms5mnsj21nfn5v",405,"88.csv","","null","resources/images/fishbone.png","null","",NA,NA,NA,NA,""
"image-keyboard-response",170,183302,"0.0-3.53-0.53","6ms5mnsj21nfn5v",405,"88.csv","","338.7000000476837","resources/trios/L1T4A3.jpg","39","restless",0.8,0.2,0.5,0.898275570922361,"false"
"image-keyboard-response",171,183719,"0.0-3.53-1.53","6ms5mnsj21nfn5v",405,"88.csv","","null","resources/maskTrios/BBA3.jpg","null","",NA,NA,NA,NA,""
"image-keyboard-response",172,184943,"0.0-3.53-2.53","6ms5mnsj21nfn5v",405,"88.csv","","null","resources/images/fishbone.png","null","",NA,NA,NA,NA,""
"image-keyboard-response",173,185157,"0.0-3.54-0.54","6ms5mnsj21nfn5v",405,"88.csv","","211.59999990463257","resources/trios/L4T1A1.jpg","39","restless",0.7,0.1,0.5,0.0339944503803766,"true"
"image-keyboard-response",174,185565,"0.0-3.54-1.54","6ms5mnsj21nfn5v",405,"88.csv","","null","resources/maskTrios/BBA1.jpg","null","",NA,NA,NA,NA,""
"image-keyboard-response",175,186772,"0.0-3.54-2.54","6ms5mnsj21nfn5v",405,"88.csv","","null","resources/images/coin2.png","null","",NA,NA,NA,NA,""
"image-keyboard-response",176,187026,"0.0-3.55-0.55","6ms5mnsj21nfn5v",405,"88.csv","","251.20000004768372","resources/trios/L1T1A3.jpg","39","restless",0.7,0.1,0.5,0.448649555289105,"true"
"image-keyboard-response",177,187442,"0.0-3.55-1.55","6ms5mnsj21nfn5v",405,"88.csv","","null","resources/maskTrios/BBA3.jpg","null","",NA,NA,NA,NA,""
"image-keyboard-response",178,188659,"0.0-3.55-2.55","6ms5mnsj21nfn5v",405,"88.csv","","null","resources/images/coin2.png","null","",NA,NA,NA,NA,""
"image-keyboard-response",179,188772,"0.0-3.56-0.56","6ms5mnsj21nfn5v",405,"88.csv","","111","resources/trios/L4T4A1.jpg","39","restless",0.7,0.1,0.5,0.449229683792223,"true"
"image-keyboard-response",180,189191,"0.0-3.56-1.56","6ms5mnsj21nfn5v",405,"88.csv","","null","resources/maskTrios/BBA1.jpg","null","",NA,NA,NA,NA,""
"image-keyboard-response",181,190406,"0.0-3.56-2.56","6ms5mnsj21nfn5v",405,"88.csv","","null","resources/images/coin2.png","null","",NA,NA,NA,NA,""
"image-keyboard-response",182,190650,"0.0-3.57-0.57","6ms5mnsj21nfn5v",405,"88.csv","","242.29999995231628","resources/trios/L4T4A3.jpg","39","restless",0.7,0.1,0.5,0.817860747884567,"false"
"image-keyboard-response",183,191065,"0.0-3.57-1.57","6ms5mnsj21nfn5v",405,"88.csv","","null","resources/maskTrios/BBA3.jpg","null","",NA,NA,NA,NA,""
"image-keyboard-response",184,192281,"0.0-3.57-2.57","6ms5mnsj21nfn5v",405,"88.csv","","null","resources/images/fishbone.png","null","",NA,NA,NA,NA,""
"image-keyboard-response",185,192497,"0.0-3.58-0.58","6ms5mnsj21nfn5v",405,"88.csv","","212.39999985694885","resources/trios/L4T1A1.jpg","39","restless",0.7,0.1,0.5,0.0349419327677334,"true"
"image-keyboard-response",186,192907,"0.0-3.58-1.58","6ms5mnsj21nfn5v",405,"88.csv","","null","resources/maskTrios/BBA1.jpg","null","",NA,NA,NA,NA,""
"image-keyboard-response",187,194132,"0.0-3.58-2.58","6ms5mnsj21nfn5v",405,"88.csv","","null","resources/images/coin2.png","null","",NA,NA,NA,NA,""
"image-keyboard-response",188,194446,"0.0-3.59-0.59","6ms5mnsj21nfn5v",405,"88.csv","","311.5","resources/trios/L1T4A3.jpg","39","restless",0.7,0.1,0.5,0.498247791510685,"true"
"image-keyboard-response",189,194864,"0.0-3.59-1.59","6ms5mnsj21nfn5v",405,"88.csv","","null","resources/maskTrios/BBA3.jpg","null","",NA,NA,NA,NA,""
"image-keyboard-response",190,196081,"0.0-3.59-2.59","6ms5mnsj21nfn5v",405,"88.csv","","null","resources/images/coin2.png","null","",NA,NA,NA,NA,""
"image-keyboard-response",191,196337,"0.0-3.60-0.60","6ms5mnsj21nfn5v",405,"88.csv","","254.10000014305115","resources/trios/L4T1A3.jpg","39","restless",0.6,0.2,0.5,0.0409568226100887,"true"
"image-keyboard-response",192,196751,"0.0-3.60-1.60","6ms5mnsj21nfn5v",405,"88.csv","","null","resources/maskTrios/BBA3.jpg","null","",NA,NA,NA,NA,""
"image-keyboard-response",193,197978,"0.0-3.60-2.60","6ms5mnsj21nfn5v",405,"88.csv","","null","resources/images/coin2.png","null","",NA,NA,NA,NA,""
"image-keyboard-response",194,198116,"0.0-3.61-0.61","6ms5mnsj21nfn5v",405,"88.csv","","135.90000009536743","resources/trios/L1T4A3.jpg","39","restless",0.6,0.2,0.5,0.43028872243929,"true"
"image-keyboard-response",195,198533,"0.0-3.61-1.61","6ms5mnsj21nfn5v",405,"88.csv","","null","resources/maskTrios/BBA3.jpg","null","",NA,NA,NA,NA,""
"image-keyboard-response",196,199745,"0.0-3.61-2.61","6ms5mnsj21nfn5v",405,"88.csv","","null","resources/images/coin2.png","null","",NA,NA,NA,NA,""
"image-keyboard-response",197,199914,"0.0-3.62-0.62","6ms5mnsj21nfn5v",405,"88.csv","","166.10000014305115","resources/trios/L1T1A1.jpg","39","restless",0.6,0.2,0.5,0.96905457472573,"false"
"image-keyboard-response",198,200331,"0.0-3.62-1.62","6ms5mnsj21nfn5v",405,"88.csv","","null","resources/maskTrios/BBA1.jpg","null","",NA,NA,NA,NA,""
"image-keyboard-response",199,201543,"0.0-3.62-2.62","6ms5mnsj21nfn5v",405,"88.csv","","null","resources/images/fishbone.png","null","",NA,NA,NA,NA,""
"image-keyboard-response",200,201966,"0.0-3.63-0.63","6ms5mnsj21nfn5v",405,"88.csv","","421.09999990463257","resources/trios/L1T1A3.jpg","39","restless",0.6,0.2,0.5,0.510030057292976,"false"
"image-keyboard-response",201,202385,"0.0-3.63-1.63","6ms5mnsj21nfn5v",405,"88.csv","","null","resources/maskTrios/BBA3.jpg","null","",NA,NA,NA,NA,""
"image-keyboard-response",202,203598,"0.0-3.63-2.63","6ms5mnsj21nfn5v",405,"88.csv","","null","resources/images/fishbone.png","null","",NA,NA,NA,NA,""
"image-keyboard-response",203,203928,"0.0-3.64-0.64","6ms5mnsj21nfn5v",405,"88.csv","","327.59999990463257","resources/trios/L1T4A3.jpg","39","restless",0.7,0.3,0.5,0.326421710503406,"true"
"image-keyboard-response",204,204352,"0.0-3.64-1.64","6ms5mnsj21nfn5v",405,"88.csv","","null","resources/maskTrios/BBA3.jpg","null","",NA,NA,NA,NA,""
"image-keyboard-response",205,205571,"0.0-3.64-2.64","6ms5mnsj21nfn5v",405,"88.csv","","null","resources/images/coin2.png","null","",NA,NA,NA,NA,""
"image-keyboard-response",206,205849,"0.0-3.65-0.65","6ms5mnsj21nfn5v",405,"88.csv","","275.7999999523163","resources/trios/L4T4A1.jpg","39","restless",0.7,0.3,0.6,0.517551598383804,"true"
"image-keyboard-response",207,206261,"0.0-3.65-1.65","6ms5mnsj21nfn5v",405,"88.csv","","null","resources/maskTrios/BBA1.jpg","null","",NA,NA,NA,NA,""
"image-keyboard-response",208,207472,"0.0-3.65-2.65","6ms5mnsj21nfn5v",405,"88.csv","","null","resources/images/coin2.png","null","",NA,NA,NA,NA,""
"image-keyboard-response",209,207783,"0.0-3.66-0.66","6ms5mnsj21nfn5v",405,"88.csv","","308.90000009536743","resources/trios/L1T1A1.jpg","39","restless",0.7,0.3,0.6,0.49762672374765,"true"
"image-keyboard-response",210,208202,"0.0-3.66-1.66","6ms5mnsj21nfn5v",405,"88.csv","","null","resources/maskTrios/BBA1.jpg","null","",NA,NA,NA,NA,""
"image-keyboard-response",211,209412,"0.0-3.66-2.66","6ms5mnsj21nfn5v",405,"88.csv","","null","resources/images/coin2.png","null","",NA,NA,NA,NA,""
"image-keyboard-response",212,209927,"0.0-3.67-0.67","6ms5mnsj21nfn5v",405,"88.csv","","512.2000000476837","resources/trios/L1T4A1.jpg","39","restless",0.7,0.3,0.6,0.026635926998795,"true"
"image-keyboard-response",213,210347,"0.0-3.67-1.67","6ms5mnsj21nfn5v",405,"88.csv","","null","resources/maskTrios/BBA1.jpg","null","",NA,NA,NA,NA,""
"image-keyboard-response",214,211555,"0.0-3.67-2.67","6ms5mnsj21nfn5v",405,"88.csv","","null","resources/images/coin2.png","null","",NA,NA,NA,NA,""
"image-keyboard-response",215,212030,"0.0-3.68-0.68","6ms5mnsj21nfn5v",405,"88.csv","","472.10000014305115","resources/trios/L1T4A1.jpg","39","restless",0.7,0.3,0.6,0.605173424146748,"false"
"image-keyboard-response",216,212441,"0.0-3.68-1.68","6ms5mnsj21nfn5v",405,"88.csv","","null","resources/maskTrios/BBA1.jpg","null","",NA,NA,NA,NA,""
"image-keyboard-response",217,213656,"0.0-3.68-2.68","6ms5mnsj21nfn5v",405,"88.csv","","null","resources/images/fishbone.png","null","",NA,NA,NA,NA,""
"image-keyboard-response",218,214484,"0.0-3.69-0.69","6ms5mnsj21nfn5v",405,"88.csv","","824.8000001907349","resources/trios/L4T1A1.jpg","38","restless",0.7,0.3,0.6,0.480164649422839,"false"
"image-keyboard-response",219,214899,"0.0-3.69-1.69","6ms5mnsj21nfn5v",405,"88.csv","","null","resources/maskTrios/BT1B.jpg","null","",NA,NA,NA,NA,""
"image-keyboard-response",220,216106,"0.0-3.69-2.69","6ms5mnsj21nfn5v",405,"88.csv","","null","resources/images/fishbone.png","null","",NA,NA,NA,NA,""
"image-keyboard-response",221,216466,"0.0-3.70-0.70","6ms5mnsj21nfn5v",405,"88.csv","","357.2000000476837","resources/trios/L1T1A3.jpg","37","restless",0.7,0.3,0.6,0.222422125689854,"true"
"image-keyboard-response",222,216882,"0.0-3.70-1.70","6ms5mnsj21nfn5v",405,"88.csv","","null","resources/maskTrios/L1BB.jpg","null","",NA,NA,NA,NA,""
"image-keyboard-response",223,218098,"0.0-3.70-2.70","6ms5mnsj21nfn5v",405,"88.csv","","null","resources/images/coin2.png","null","",NA,NA,NA,NA,""
"image-keyboard-response",224,223746,"0.0-3.71-0.71","6ms5mnsj21nfn5v",405,"88.csv","","5645.700000047684","resources/trios/L4T4A3.jpg","37","restless",0.7,0.3,0.6,0.415746424035837,"true"
"image-keyboard-response",225,224160,"0.0-3.71-1.71","6ms5mnsj21nfn5v",405,"88.csv","","null","resources/maskTrios/L4BB.jpg","null","",NA,NA,NA,NA,""
"image-keyboard-response",226,225371,"0.0-3.71-2.71","6ms5mnsj21nfn5v",405,"88.csv","","null","resources/images/coin2.png","null","",NA,NA,NA,NA,""
"image-keyboard-response",227,225633,"0.0-3.72-0.72","6ms5mnsj21nfn5v",405,"88.csv","","259.30000019073486","resources/trios/L1T1A1.jpg","37","restless",0.7,0.3,0.6,0.107368951399909,"true"
"image-keyboard-response",228,226051,"0.0-3.72-1.72","6ms5mnsj21nfn5v",405,"88.csv","","null","resources/maskTrios/L1BB.jpg","null","",NA,NA,NA,NA,""
"image-keyboard-response",229,227263,"0.0-3.72-2.72","6ms5mnsj21nfn5v",405,"88.csv","","null","resources/images/coin2.png","null","",NA,NA,NA,NA,""
"image-keyboard-response",230,227807,"0.0-3.73-0.73","6ms5mnsj21nfn5v",405,"88.csv","","541.1000001430511","resources/trios/L1T1A3.jpg","37","restless",0.7,0.3,0.6,0.703274837704687,"false"
"image-keyboard-response",231,228230,"0.0-3.73-1.73","6ms5mnsj21nfn5v",405,"88.csv","","null","resources/maskTrios/L1BB.jpg","null","",NA,NA,NA,NA,""
"image-keyboard-response",232,229432,"0.0-3.73-2.73","6ms5mnsj21nfn5v",405,"88.csv","","null","resources/images/fishbone.png","null","",NA,NA,NA,NA,""
"image-keyboard-response",233,229812,"0.0-3.74-0.74","6ms5mnsj21nfn5v",405,"88.csv","","376.40000009536743","resources/trios/L1T1A1.jpg","38","restless",0.7,0.3,0.6,0.831609134206658,"false"
"image-keyboard-response",234,230228,"0.0-3.74-1.74","6ms5mnsj21nfn5v",405,"88.csv","","null","resources/maskTrios/BT1B.jpg","null","",NA,NA,NA,NA,""
"image-keyboard-response",235,231434,"0.0-3.74-2.74","6ms5mnsj21nfn5v",405,"88.csv","","null","resources/images/fishbone.png","null","",NA,NA,NA,NA,""
"image-keyboard-response",236,231719,"0.0-3.75-0.75","6ms5mnsj21nfn5v",405,"88.csv","","281.89999985694885","resources/trios/L4T4A3.jpg","37","restless",0.7,0.3,0.6,0.782269419998902,"false"
"image-keyboard-response",237,232129,"0.0-3.75-1.75","6ms5mnsj21nfn5v",405,"88.csv","","null","resources/maskTrios/L4BB.jpg","null","",NA,NA,NA,NA,""
"image-keyboard-response",238,233340,"0.0-3.75-2.75","6ms5mnsj21nfn5v",405,"88.csv","","null","resources/images/fishbone.png","null","",NA,NA,NA,NA,""
"image-keyboard-response",239,233698,"0.0-3.76-0.76","6ms5mnsj21nfn5v",405,"88.csv","","355","resources/trios/L1T1A1.jpg","39","restless",0.7,0.3,0.6,0.758564170097494,"false"
"image-keyboard-response",240,234117,"0.0-3.76-1.76","6ms5mnsj21nfn5v",405,"88.csv","","null","resources/maskTrios/BBA1.jpg","null","",NA,NA,NA,NA,""
"image-keyboard-response",241,235329,"0.0-3.76-2.76","6ms5mnsj21nfn5v",405,"88.csv","","null","resources/images/fishbone.png","null","",NA,NA,NA,NA,""
"image-keyboard-response",242,235562,"0.0-3.77-0.77","6ms5mnsj21nfn5v",405,"88.csv","","231","resources/trios/L1T1A3.jpg","39","restless",0.7,0.3,0.6,0.182024913492126,"true"
"image-keyboard-response",243,235978,"0.0-3.77-1.77","6ms5mnsj21nfn5v",405,"88.csv","","null","resources/maskTrios/BBA3.jpg","null","",NA,NA,NA,NA,""
"image-keyboard-response",244,237195,"0.0-3.77-2.77","6ms5mnsj21nfn5v",405,"88.csv","","null","resources/images/coin2.png","null","",NA,NA,NA,NA,""
"image-keyboard-response",245,237512,"0.0-3.78-0.78","6ms5mnsj21nfn5v",405,"88.csv","","313.7000000476837","resources/trios/L1T4A1.jpg","39","restless",0.7,0.3,0.6,0.777058582949174,"false"
"image-keyboard-response",246,237925,"0.0-3.78-1.78","6ms5mnsj21nfn5v",405,"88.csv","","null","resources/maskTrios/BBA1.jpg","null","",NA,NA,NA,NA,""
"image-keyboard-response",247,239143,"0.0-3.78-2.78","6ms5mnsj21nfn5v",405,"88.csv","","null","resources/images/fishbone.png","null","",NA,NA,NA,NA,""
"image-keyboard-response",248,239708,"0.0-3.79-0.79","6ms5mnsj21nfn5v",405,"88.csv","","562.5","resources/trios/L4T4A1.jpg","38","restless",0.7,0.3,0.6,0.783228832162045,"false"
"image-keyboard-response",249,240115,"0.0-3.79-1.79","6ms5mnsj21nfn5v",405,"88.csv","","null","resources/maskTrios/BT4B.jpg","null","",NA,NA,NA,NA,""
"image-keyboard-response",250,241330,"0.0-3.79-2.79","6ms5mnsj21nfn5v",405,"88.csv","","null","resources/images/fishbone.png","null","",NA,NA,NA,NA,""
"image-keyboard-response",251,241583,"0.0-3.80-0.80","6ms5mnsj21nfn5v",405,"88.csv","","249.89999985694885","resources/trios/L1T1A3.jpg","37","restless",0.7,0.3,0.6,0.434513316735618,"true"
"image-keyboard-response",252,241991,"0.0-3.80-1.80","6ms5mnsj21nfn5v",405,"88.csv","","null","resources/maskTrios/L1BB.jpg","null","",NA,NA,NA,NA,""
"image-keyboard-response",253,243214,"0.0-3.80-2.80","6ms5mnsj21nfn5v",405,"88.csv","","null","resources/images/coin2.png","null","",NA,NA,NA,NA,""
"image-keyboard-response",254,243508,"0.0-3.81-0.81","6ms5mnsj21nfn5v",405,"88.csv","","292","resources/trios/L1T1A1.jpg","37","restless",0.7,0.3,0.6,0.587975932504854,"true"
"image-keyboard-response",255,243914,"0.0-3.81-1.81","6ms5mnsj21nfn5v",405,"88.csv","","null","resources/maskTrios/L1BB.jpg","null","",NA,NA,NA,NA,""
"image-keyboard-response",256,245120,"0.0-3.81-2.81","6ms5mnsj21nfn5v",405,"88.csv","","null","resources/images/coin2.png","null","",NA,NA,NA,NA,""
"image-keyboard-response",257,245406,"0.0-3.82-0.82","6ms5mnsj21nfn5v",405,"88.csv","","283.2000000476837","resources/trios/L1T4A3.jpg","37","restless",0.7,0.3,0.6,0.625585462756614,"true"
"image-keyboard-response",258,245821,"0.0-3.82-1.82","6ms5mnsj21nfn5v",405,"88.csv","","null","resources/maskTrios/L1BB.jpg","null","",NA,NA,NA,NA,""
"image-keyboard-response",259,247034,"0.0-3.82-2.82","6ms5mnsj21nfn5v",405,"88.csv","","null","resources/images/coin2.png","null","",NA,NA,NA,NA,""
"image-keyboard-response",260,247408,"0.0-3.83-0.83","6ms5mnsj21nfn5v",405,"88.csv","","370.09999990463257","resources/trios/L4T4A3.jpg","37","restless",0.7,0.3,0.6,0.635519327551035,"true"
"image-keyboard-response",261,247818,"0.0-3.83-1.83","6ms5mnsj21nfn5v",405,"88.csv","","null","resources/maskTrios/L4BB.jpg","null","",NA,NA,NA,NA,""
"image-keyboard-response",262,249037,"0.0-3.83-2.83","6ms5mnsj21nfn5v",405,"88.csv","","null","resources/images/coin2.png","null","",NA,NA,NA,NA,""
"image-keyboard-response",263,249323,"0.0-3.84-0.84","6ms5mnsj21nfn5v",405,"88.csv","","283.10000014305115","resources/trios/L1T4A1.jpg","37","restless",0.7,0.3,0.6,0.676966982390931,"true"
"image-keyboard-response",264,249744,"0.0-3.84-1.84","6ms5mnsj21nfn5v",405,"88.csv","","null","resources/maskTrios/L1BB.jpg","null","",NA,NA,NA,NA,""
"image-keyboard-response",265,250955,"0.0-3.84-2.84","6ms5mnsj21nfn5v",405,"88.csv","","null","resources/images/coin2.png","null","",NA,NA,NA,NA,""
"image-keyboard-response",266,251226,"0.0-3.85-0.85","6ms5mnsj21nfn5v",405,"88.csv","","269.2000000476837","resources/trios/L4T1A1.jpg","37","restless",0.7,0.3,0.6,0.288649572459328,"true"
"image-keyboard-response",267,251635,"0.0-3.85-1.85","6ms5mnsj21nfn5v",405,"88.csv","","null","resources/maskTrios/L4BB.jpg","null","",NA,NA,NA,NA,""
"image-keyboard-response",268,252859,"0.0-3.85-2.85","6ms5mnsj21nfn5v",405,"88.csv","","null","resources/images/coin2.png","null","",NA,NA,NA,NA,""
"image-keyboard-response",269,253357,"0.0-3.86-0.86","6ms5mnsj21nfn5v",405,"88.csv","","495.7000000476837","resources/trios/L1T4A1.jpg","37","restless",0.7,0.3,0.6,0.69341013198115,"true"
"image-keyboard-response",270,253762,"0.0-3.86-1.86","6ms5mnsj21nfn5v",405,"88.csv","","null","resources/maskTrios/L1BB.jpg","null","",NA,NA,NA,NA,""
"image-keyboard-response",271,254977,"0.0-3.86-2.86","6ms5mnsj21nfn5v",405,"88.csv","","null","resources/images/coin2.png","null","",NA,NA,NA,NA,""
"image-keyboard-response",272,255269,"0.0-3.87-0.87","6ms5mnsj21nfn5v",405,"88.csv","","289.5","resources/trios/L1T4A3.jpg","37","restless",0.7,0.3,0.6,0.642933371897808,"true"
"image-keyboard-response",273,255682,"0.0-3.87-1.87","6ms5mnsj21nfn5v",405,"88.csv","","null","resources/maskTrios/L1BB.jpg","null","",NA,NA,NA,NA,""
"image-keyboard-response",274,256897,"0.0-3.87-2.87","6ms5mnsj21nfn5v",405,"88.csv","","null","resources/images/coin2.png","null","",NA,NA,NA,NA,""
"image-keyboard-response",275,257175,"0.0-3.88-0.88","6ms5mnsj21nfn5v",405,"88.csv","","275.09999990463257","resources/trios/L1T1A3.jpg","37","restless",0.7,0.3,0.6,0.546419909313718,"true"
"image-keyboard-response",276,257585,"0.0-3.88-1.88","6ms5mnsj21nfn5v",405,"88.csv","","null","resources/maskTrios/L1BB.jpg","null","",NA,NA,NA,NA,""
"image-keyboard-response",277,258793,"0.0-3.88-2.88","6ms5mnsj21nfn5v",405,"88.csv","","null","resources/images/coin2.png","null","",NA,NA,NA,NA,""
"image-keyboard-response",278,259035,"0.0-3.89-0.89","6ms5mnsj21nfn5v",405,"88.csv","","239.39999985694885","resources/trios/L1T1A3.jpg","37","restless",0.7,0.3,0.6,0.400368416609526,"true"
"image-keyboard-response",279,259451,"0.0-3.89-1.89","6ms5mnsj21nfn5v",405,"88.csv","","null","resources/maskTrios/L1BB.jpg","null","",NA,NA,NA,NA,""
"image-keyboard-response",280,260669,"0.0-3.89-2.89","6ms5mnsj21nfn5v",405,"88.csv","","null","resources/images/coin2.png","null","",NA,NA,NA,NA,""
"image-keyboard-response",281,260934,"0.0-3.90-0.90","6ms5mnsj21nfn5v",405,"88.csv","","263.7999999523163","resources/trios/L1T1A1.jpg","37","restless",0.7,0.3,0.6,0.445150789172697,"true"
"image-keyboard-response",282,261346,"0.0-3.90-1.90","6ms5mnsj21nfn5v",405,"88.csv","","null","resources/maskTrios/L1BB.jpg","null","",NA,NA,NA,NA,""
"image-keyboard-response",283,262567,"0.0-3.90-2.90","6ms5mnsj21nfn5v",405,"88.csv","","null","resources/images/coin2.png","null","",NA,NA,NA,NA,""
"image-keyboard-response",284,262869,"0.0-3.91-0.91","6ms5mnsj21nfn5v",405,"88.csv","","299","resources/trios/L4T4A3.jpg","37","restless",0.7,0.3,0.6,0.0118521313020394,"true"
"image-keyboard-response",285,263288,"0.0-3.91-1.91","6ms5mnsj21nfn5v",405,"88.csv","","null","resources/maskTrios/L4BB.jpg","null","",NA,NA,NA,NA,""
"image-keyboard-response",286,264510,"0.0-3.91-2.91","6ms5mnsj21nfn5v",405,"88.csv","","null","resources/images/coin2.png","null","",NA,NA,NA,NA,""
"image-keyboard-response",287,264694,"0.0-3.92-0.92","6ms5mnsj21nfn5v",405,"88.csv","","181","resources/trios/L1T1A1.jpg","37","restless",0.7,0.3,0.6,0.853785601841234,"false"
"image-keyboard-response",288,265112,"0.0-3.92-1.92","6ms5mnsj21nfn5v",405,"88.csv","","null","resources/maskTrios/L1BB.jpg","null","",NA,NA,NA,NA,""
"image-keyboard-response",289,266332,"0.0-3.92-2.92","6ms5mnsj21nfn5v",405,"88.csv","","null","resources/images/fishbone.png","null","",NA,NA,NA,NA,""
"image-keyboard-response",290,266575,"0.0-3.93-0.93","6ms5mnsj21nfn5v",405,"88.csv","","240.20000004768372","resources/trios/L1T4A1.jpg","39","restless",0.7,0.3,0.6,0.551377225746905,"true"
"image-keyboard-response",291,266987,"0.0-3.93-1.93","6ms5mnsj21nfn5v",405,"88.csv","","null","resources/maskTrios/BBA1.jpg","null","",NA,NA,NA,NA,""
"image-keyboard-response",292,268196,"0.0-3.93-2.93","6ms5mnsj21nfn5v",405,"88.csv","","null","resources/images/coin2.png","null","",NA,NA,NA,NA,""
"image-keyboard-response",293,268300,"0.0-3.94-0.94","6ms5mnsj21nfn5v",405,"88.csv","","101.59999990463257","resources/trios/L4T1A1.jpg","39","restless",0.7,0.3,0.6,0.235212486812603,"true"
"image-keyboard-response",294,268705,"0.0-3.94-1.94","6ms5mnsj21nfn5v",405,"88.csv","","null","resources/maskTrios/BBA1.jpg","null","",NA,NA,NA,NA,""
"image-keyboard-response",295,269926,"0.0-3.94-2.94","6ms5mnsj21nfn5v",405,"88.csv","","null","resources/images/coin2.png","null","",NA,NA,NA,NA,""
"image-keyboard-response",296,271398,"0.0-3.95-0.95","6ms5mnsj21nfn5v",405,"88.csv","","1469.5","resources/trios/L1T1A1.jpg","39","restless",0.7,0.3,0.6,0.568052629860048,"true"
"image-keyboard-response",297,271818,"0.0-3.95-1.95","6ms5mnsj21nfn5v",405,"88.csv","","null","resources/maskTrios/BBA1.jpg","null","",NA,NA,NA,NA,""
"image-keyboard-response",298,273036,"0.0-3.95-2.95","6ms5mnsj21nfn5v",405,"88.csv","","null","resources/images/coin2.png","null","",NA,NA,NA,NA,""
"image-keyboard-response",299,273137,"0.0-3.96-0.96","6ms5mnsj21nfn5v",405,"88.csv","","97.70000004768372","resources/trios/L4T4A3.jpg","39","restless",0.7,0.3,0.6,0.106187825680262,"true"
"image-keyboard-response",300,273552,"0.0-3.96-1.96","6ms5mnsj21nfn5v",405,"88.csv","","null","resources/maskTrios/BBA3.jpg","null","",NA,NA,NA,NA,""
"image-keyboard-response",301,274770,"0.0-3.96-2.96","6ms5mnsj21nfn5v",405,"88.csv","","null","resources/images/coin2.png","null","",NA,NA,NA,NA,""
"image-keyboard-response",302,275122,"0.0-3.97-0.97","6ms5mnsj21nfn5v",405,"88.csv","","349.7000000476837","resources/trios/L1T4A3.jpg","39","restless",0.7,0.3,0.6,0.365194949777506,"true"
"image-keyboard-response",303,275531,"0.0-3.97-1.97","6ms5mnsj21nfn5v",405,"88.csv","","null","resources/maskTrios/BBA3.jpg","null","",NA,NA,NA,NA,""
"image-keyboard-response",304,276739,"0.0-3.97-2.97","6ms5mnsj21nfn5v",405,"88.csv","","null","resources/images/coin2.png","null","",NA,NA,NA,NA,""
"image-keyboard-response",305,276951,"0.0-3.98-0.98","6ms5mnsj21nfn5v",405,"88.csv","","209.29999995231628","resources/trios/L4T4A1.jpg","39","restless",0.7,0.3,0.6,0.242289407455811,"true"
"image-keyboard-response",306,277365,"0.0-3.98-1.98","6ms5mnsj21nfn5v",405,"88.csv","","null","resources/maskTrios/BBA1.jpg","null","",NA,NA,NA,NA,""
"image-keyboard-response",307,278570,"0.0-3.98-2.98","6ms5mnsj21nfn5v",405,"88.csv","","null","resources/images/coin2.png","null","",NA,NA,NA,NA,""
"image-keyboard-response",308,279028,"0.0-3.99-0.99","6ms5mnsj21nfn5v",405,"88.csv","","455.5","resources/trios/L4T4A3.jpg","39","restless",0.7,0.3,0.6,0.720948948831041,"false"
"image-keyboard-response",309,279445,"0.0-3.99-1.99","6ms5mnsj21nfn5v",405,"88.csv","","null","resources/maskTrios/BBA3.jpg","null","",NA,NA,NA,NA,""
"image-keyboard-response",310,280654,"0.0-3.99-2.99","6ms5mnsj21nfn5v",405,"88.csv","","null","resources/images/fishbone.png","null","",NA,NA,NA,NA,""
"image-keyboard-response",311,281203,"0.0-3.100-0.100","6ms5mnsj21nfn5v",405,"88.csv","","546.4000000953674","resources/trios/L1T4A1.jpg","38","restless",0.7,0.3,0.6,0.407657729950781,"false"
"image-keyboard-response",312,281622,"0.0-3.100-1.100","6ms5mnsj21nfn5v",405,"88.csv","","null","resources/maskTrios/BT4B.jpg","null","",NA,NA,NA,NA,""
"image-keyboard-response",313,282840,"0.0-3.100-2.100","6ms5mnsj21nfn5v",405,"88.csv","","null","resources/images/fishbone.png","null","",NA,NA,NA,NA,""
"image-keyboard-response",314,283652,"0.0-3.101-0.101","6ms5mnsj21nfn5v",405,"88.csv","","809.3999998569489","resources/trios/L4T1A3.jpg","37","restless",0.7,0.3,0.6,0.999051964926129,"false"
"image-keyboard-response",315,284066,"0.0-3.101-1.101","6ms5mnsj21nfn5v",405,"88.csv","","null","resources/maskTrios/L4BB.jpg","null","",NA,NA,NA,NA,""
"image-keyboard-response",316,285274,"0.0-3.101-2.101","6ms5mnsj21nfn5v",405,"88.csv","","null","resources/images/fishbone.png","null","",NA,NA,NA,NA,""
"image-keyboard-response",317,285498,"0.0-3.102-0.102","6ms5mnsj21nfn5v",405,"88.csv","","221","resources/trios/L4T4A3.jpg","38","restless",0.7,0.3,0.6,0.0307524746434129,"true"
"image-keyboard-response",318,285908,"0.0-3.102-1.102","6ms5mnsj21nfn5v",405,"88.csv","","null","resources/maskTrios/BT4B.jpg","null","",NA,NA,NA,NA,""
"image-keyboard-response",319,287134,"0.0-3.102-2.102","6ms5mnsj21nfn5v",405,"88.csv","","null","resources/images/coin2.png","null","",NA,NA,NA,NA,""
"image-keyboard-response",320,287395,"0.0-3.103-0.103","6ms5mnsj21nfn5v",405,"88.csv","","259.2000000476837","resources/trios/L1T4A1.jpg","39","restless",0.7,0.3,0.6,0.959891301424634,"false"
"image-keyboard-response",321,287809,"0.0-3.103-1.103","6ms5mnsj21nfn5v",405,"88.csv","","null","resources/maskTrios/BBA1.jpg","null","",NA,NA,NA,NA,""
"image-keyboard-response",322,289030,"0.0-3.103-2.103","6ms5mnsj21nfn5v",405,"88.csv","","null","resources/images/fishbone.png","null","",NA,NA,NA,NA,""
"image-keyboard-response",323,289331,"0.0-3.104-0.104","6ms5mnsj21nfn5v",405,"88.csv","","297.2999999523163","resources/trios/L4T1A3.jpg","39","restless",0.7,0.3,0.6,0.428961319388125,"true"
"image-keyboard-response",324,289741,"0.0-3.104-1.104","6ms5mnsj21nfn5v",405,"88.csv","","null","resources/maskTrios/BBA3.jpg","null","",NA,NA,NA,NA,""
"image-keyboard-response",325,290946,"0.0-3.104-2.104","6ms5mnsj21nfn5v",405,"88.csv","","null","resources/images/coin2.png","null","",NA,NA,NA,NA,""
"image-keyboard-response",326,291203,"0.0-3.105-0.105","6ms5mnsj21nfn5v",405,"88.csv","","254.5","resources/trios/L1T1A1.jpg","39","restless",0.7,0.3,0.6,0.93398987066668,"false"
"image-keyboard-response",327,291617,"0.0-3.105-1.105","6ms5mnsj21nfn5v",405,"88.csv","","null","resources/maskTrios/BBA1.jpg","null","",NA,NA,NA,NA,""
"image-keyboard-response",328,292828,"0.0-3.105-2.105","6ms5mnsj21nfn5v",405,"88.csv","","null","resources/images/fishbone.png","null","",NA,NA,NA,NA,""
"image-keyboard-response",329,293064,"0.0-3.106-0.106","6ms5mnsj21nfn5v",405,"88.csv","","233.70000004768372","resources/trios/L1T4A3.jpg","39","restless",0.6,0.3,0.6,0.331154423300953,"true"
"image-keyboard-response",330,293476,"0.0-3.106-1.106","6ms5mnsj21nfn5v",405,"88.csv","","null","resources/maskTrios/BBA3.jpg","null","",NA,NA,NA,NA,""
"image-keyboard-response",331,294687,"0.0-3.106-2.106","6ms5mnsj21nfn5v",405,"88.csv","","null","resources/images/coin2.png","null","",NA,NA,NA,NA,""
"image-keyboard-response",332,295519,"0.0-3.107-0.107","6ms5mnsj21nfn5v",405,"88.csv","","829.2000000476837","resources/trios/L4T4A1.jpg","39","restless",0.6,0.3,0.6,0.175896386989471,"true"
"image-keyboard-response",333,295934,"0.0-3.107-1.107","6ms5mnsj21nfn5v",405,"88.csv","","null","resources/maskTrios/BBA1.jpg","null","",NA,NA,NA,NA,""
"image-keyboard-response",334,297138,"0.0-3.107-2.107","6ms5mnsj21nfn5v",405,"88.csv","","null","resources/images/coin2.png","null","",NA,NA,NA,NA,""
"image-keyboard-response",335,297179,"0.0-3.108-0.108","6ms5mnsj21nfn5v",405,"88.csv","","39","resources/trios/L4T4A3.jpg","39","restless",0.6,0.3,0.6,0.639696603016156,"false"
"image-keyboard-response",336,297592,"0.0-3.108-1.108","6ms5mnsj21nfn5v",405,"88.csv","","null","resources/maskTrios/BBA3.jpg","null","",NA,NA,NA,NA,""
"image-keyboard-response",337,298816,"0.0-3.108-2.108","6ms5mnsj21nfn5v",405,"88.csv","","null","resources/images/fishbone.png","null","",NA,NA,NA,NA,""
"image-keyboard-response",338,298984,"0.0-3.109-0.109","6ms5mnsj21nfn5v",405,"88.csv","","164.70000004768372","resources/trios/L4T4A1.jpg","37","restless",0.6,0.3,0.6,0.481317217655412,"true"
"image-keyboard-response",339,299397,"0.0-3.109-1.109","6ms5mnsj21nfn5v",405,"88.csv","","null","resources/maskTrios/L4BB.jpg","null","",NA,NA,NA,NA,""
"image-keyboard-response",340,300609,"0.0-3.109-2.109","6ms5mnsj21nfn5v",405,"88.csv","","null","resources/images/coin2.png","null","",NA,NA,NA,NA,""
"image-keyboard-response",341,300638,"0.0-3.110-0.110","6ms5mnsj21nfn5v",405,"88.csv","","26","resources/trios/L4T4A1.jpg","37","restless",0.6,0.3,0.6,0.0387698125870215,"true"
"image-keyboard-response",342,301063,"0.0-3.110-1.110","6ms5mnsj21nfn5v",405,"88.csv","","null","resources/maskTrios/L4BB.jpg","null","",NA,NA,NA,NA,""
"image-keyboard-response",343,302276,"0.0-3.110-2.110","6ms5mnsj21nfn5v",405,"88.csv","","null","resources/images/coin2.png","null","",NA,NA,NA,NA,""
"image-keyboard-response",344,302460,"0.0-3.111-0.111","6ms5mnsj21nfn5v",405,"88.csv","","181","resources/trios/L1T1A1.jpg","37","restless",0.6,0.3,0.5,0.30469300915297,"true"
"image-keyboard-response",345,302867,"0.0-3.111-1.111","6ms5mnsj21nfn5v",405,"88.csv","","null","resources/maskTrios/L1BB.jpg","null","",NA,NA,NA,NA,""
"image-keyboard-response",346,304075,"0.0-3.111-2.111","6ms5mnsj21nfn5v",405,"88.csv","","null","resources/images/coin2.png","null","",NA,NA,NA,NA,""
"image-keyboard-response",347,304290,"0.0-3.112-0.112","6ms5mnsj21nfn5v",405,"88.csv","","211.5","resources/trios/L4T1A1.jpg","37","restless",0.6,0.3,0.5,0.37048863794117,"true"
"image-keyboard-response",348,304708,"0.0-3.112-1.112","6ms5mnsj21nfn5v",405,"88.csv","","null","resources/maskTrios/L4BB.jpg","null","",NA,NA,NA,NA,""
"image-keyboard-response",349,305915,"0.0-3.112-2.112","6ms5mnsj21nfn5v",405,"88.csv","","null","resources/images/coin2.png","null","",NA,NA,NA,NA,""
"image-keyboard-response",350,306465,"0.0-3.113-0.113","6ms5mnsj21nfn5v",405,"88.csv","","547.0999999046326","resources/trios/L4T1A3.jpg","37","restless",0.6,0.3,0.5,0.0373135302649443,"true"
"image-keyboard-response",351,306886,"0.0-3.113-1.113","6ms5mnsj21nfn5v",405,"88.csv","","null","resources/maskTrios/L4BB.jpg","null","",NA,NA,NA,NA,""
"image-keyboard-response",352,308103,"0.0-3.113-2.113","6ms5mnsj21nfn5v",405,"88.csv","","null","resources/images/coin2.png","null","",NA,NA,NA,NA,""
"image-keyboard-response",353,308473,"0.0-3.114-0.114","6ms5mnsj21nfn5v",405,"88.csv","","367.5","resources/trios/L4T1A3.jpg","37","restless",0.6,0.3,0.5,0.314080658999512,"true"
"image-keyboard-response",354,308882,"0.0-3.114-1.114","6ms5mnsj21nfn5v",405,"88.csv","","null","resources/maskTrios/L4BB.jpg","null","",NA,NA,NA,NA,""
"image-keyboard-response",355,310104,"0.0-3.114-2.114","6ms5mnsj21nfn5v",405,"88.csv","","null","resources/images/coin2.png","null","",NA,NA,NA,NA,""
"image-keyboard-response",356,310391,"0.0-3.115-0.115","6ms5mnsj21nfn5v",405,"88.csv","","284.59999990463257","resources/trios/L1T1A1.jpg","37","restless",0.5,0.3,0.5,0.517787059463318,"false"
"image-keyboard-response",357,310804,"0.0-3.115-1.115","6ms5mnsj21nfn5v",405,"88.csv","","null","resources/maskTrios/L1BB.jpg","null","",NA,NA,NA,NA,""
"image-keyboard-response",358,312019,"0.0-3.115-2.115","6ms5mnsj21nfn5v",405,"88.csv","","null","resources/images/fishbone.png","null","",NA,NA,NA,NA,""
"image-keyboard-response",359,312284,"0.0-3.116-0.116","6ms5mnsj21nfn5v",405,"88.csv","","262.2000000476837","resources/trios/L4T4A3.jpg","39","restless",0.5,0.3,0.5,0.616338267165687,"false"
"image-keyboard-response",360,312698,"0.0-3.116-1.116","6ms5mnsj21nfn5v",405,"88.csv","","null","resources/maskTrios/BBA3.jpg","null","",NA,NA,NA,NA,""
"image-keyboard-response",361,313917,"0.0-3.116-2.116","6ms5mnsj21nfn5v",405,"88.csv","","null","resources/images/fishbone.png","null","",NA,NA,NA,NA,""
"image-keyboard-response",362,314348,"0.0-3.117-0.117","6ms5mnsj21nfn5v",405,"88.csv","","429.90000009536743","resources/trios/L1T1A3.jpg","38","restless",0.5,0.3,0.5,0.958659916272377,"false"
"image-keyboard-response",363,314758,"0.0-3.117-1.117","6ms5mnsj21nfn5v",405,"88.csv","","null","resources/maskTrios/BT1B.jpg","null","",NA,NA,NA,NA,""
"image-keyboard-response",364,315972,"0.0-3.117-2.117","6ms5mnsj21nfn5v",405,"88.csv","","null","resources/images/fishbone.png","null","",NA,NA,NA,NA,""
"image-keyboard-response",365,316419,"0.0-3.118-0.118","6ms5mnsj21nfn5v",405,"88.csv","","444.19999980926514","resources/trios/L4T1A3.jpg","37","restless",0.5,0.3,0.5,0.583217106159411,"false"
"image-keyboard-response",366,316827,"0.0-3.118-1.118","6ms5mnsj21nfn5v",405,"88.csv","","null","resources/maskTrios/L4BB.jpg","null","",NA,NA,NA,NA,""
"image-keyboard-response",367,318034,"0.0-3.118-2.118","6ms5mnsj21nfn5v",405,"88.csv","","null","resources/images/fishbone.png","null","",NA,NA,NA,NA,""
"image-keyboard-response",368,318251,"0.0-3.119-0.119","6ms5mnsj21nfn5v",405,"88.csv","","213.70000004768372","resources/trios/L1T1A1.jpg","37","restless",0.4,0.4,0.5,0.138063049261343,"true"
"image-keyboard-response",369,318664,"0.0-3.119-1.119","6ms5mnsj21nfn5v",405,"88.csv","","null","resources/maskTrios/L1BB.jpg","null","",NA,NA,NA,NA,""
"image-keyboard-response",370,319878,"0.0-3.119-2.119","6ms5mnsj21nfn5v",405,"88.csv","","null","resources/images/coin2.png","null","",NA,NA,NA,NA,""
"image-keyboard-response",371,320074,"0.0-3.120-0.120","6ms5mnsj21nfn5v",405,"88.csv","","194.30000019073486","resources/trios/L4T4A1.jpg","37","restless",0.4,0.4,0.5,0.575557236377414,"false"
"image-keyboard-response",372,320486,"0.0-3.120-1.120","6ms5mnsj21nfn5v",405,"88.csv","","null","resources/maskTrios/L4BB.jpg","null","",NA,NA,NA,NA,""
"image-keyboard-response",373,321692,"0.0-3.120-2.120","6ms5mnsj21nfn5v",405,"88.csv","","null","resources/images/fishbone.png","null","",NA,NA,NA,NA,""
"image-keyboard-response",374,321990,"0.0-3.121-0.121","6ms5mnsj21nfn5v",405,"88.csv","","295.5","resources/trios/L4T1A3.jpg","37","restless",0.4,0.5,0.5,0.394888192186377,"true"
"image-keyboard-response",375,322403,"0.0-3.121-1.121","6ms5mnsj21nfn5v",405,"88.csv","","null","resources/maskTrios/L4BB.jpg","null","",NA,NA,NA,NA,""
"image-keyboard-response",376,323614,"0.0-3.121-2.121","6ms5mnsj21nfn5v",405,"88.csv","","null","resources/images/coin2.png","null","",NA,NA,NA,NA,""
"image-keyboard-response",377,323843,"0.0-3.122-0.122","6ms5mnsj21nfn5v",405,"88.csv","","226.79999995231628","resources/trios/L4T4A3.jpg","37","restless",0.4,0.5,0.5,0.911803494056858,"false"
"image-keyboard-response",378,324254,"0.0-3.122-1.122","6ms5mnsj21nfn5v",405,"88.csv","","null","resources/maskTrios/L4BB.jpg","null","",NA,NA,NA,NA,""
"image-keyboard-response",379,325468,"0.0-3.122-2.122","6ms5mnsj21nfn5v",405,"88.csv","","null","resources/images/fishbone.png","null","",NA,NA,NA,NA,""
"image-keyboard-response",380,325769,"0.0-3.123-0.123","6ms5mnsj21nfn5v",405,"88.csv","","298.60000014305115","resources/trios/L1T4A3.jpg","37","restless",0.4,0.5,0.4,0.816316509730604,"false"
"image-keyboard-response",381,326181,"0.0-3.123-1.123","6ms5mnsj21nfn5v",405,"88.csv","","null","resources/maskTrios/L1BB.jpg","null","",NA,NA,NA,NA,""
"image-keyboard-response",382,327391,"0.0-3.123-2.123","6ms5mnsj21nfn5v",405,"88.csv","","null","resources/images/fishbone.png","null","",NA,NA,NA,NA,""
"image-keyboard-response",383,327736,"0.0-3.124-0.124","6ms5mnsj21nfn5v",405,"88.csv","","342","resources/trios/L4T4A3.jpg","37","restless",0.4,0.5,0.3,0.0226720924114501,"true"
"image-keyboard-response",384,328152,"0.0-3.124-1.124","6ms5mnsj21nfn5v",405,"88.csv","","null","resources/maskTrios/L4BB.jpg","null","",NA,NA,NA,NA,""
"image-keyboard-response",385,329375,"0.0-3.124-2.124","6ms5mnsj21nfn5v",405,"88.csv","","null","resources/images/coin2.png","null","",NA,NA,NA,NA,""
"image-keyboard-response",386,329843,"0.0-3.125-0.125","6ms5mnsj21nfn5v",405,"88.csv","","465.09999990463257","resources/trios/L4T1A3.jpg","37","restless",0.4,0.5,0.3,0.255156224170422,"true"
"image-keyboard-response",387,330250,"0.0-3.125-1.125","6ms5mnsj21nfn5v",405,"88.csv","","null","resources/maskTrios/L4BB.jpg","null","",NA,NA,NA,NA,""
"image-keyboard-response",388,331472,"0.0-3.125-2.125","6ms5mnsj21nfn5v",405,"88.csv","","null","resources/images/coin2.png","null","",NA,NA,NA,NA,""
"image-keyboard-response",389,331755,"0.0-3.126-0.126","6ms5mnsj21nfn5v",405,"88.csv","","280.7999999523163","resources/trios/L4T4A3.jpg","37","restless",0.4,0.5,0.3,0.328965730555634,"true"
"image-keyboard-response",390,332167,"0.0-3.126-1.126","6ms5mnsj21nfn5v",405,"88.csv","","null","resources/maskTrios/L4BB.jpg","null","",NA,NA,NA,NA,""
"image-keyboard-response",391,333383,"0.0-3.126-2.126","6ms5mnsj21nfn5v",405,"88.csv","","null","resources/images/coin2.png","null","",NA,NA,NA,NA,""
"image-keyboard-response",392,333574,"0.0-3.127-0.127","6ms5mnsj21nfn5v",405,"88.csv","","187.70000004768372","resources/trios/L1T1A3.jpg","37","restless",0.4,0.5,0.3,0.764473414001796,"false"
"image-keyboard-response",393,333986,"0.0-3.127-1.127","6ms5mnsj21nfn5v",405,"88.csv","","null","resources/maskTrios/L1BB.jpg","null","",NA,NA,NA,NA,""
"image-keyboard-response",394,335203,"0.0-3.127-2.127","6ms5mnsj21nfn5v",405,"88.csv","","null","resources/images/fishbone.png","null","",NA,NA,NA,NA,""
"image-keyboard-response",395,335511,"0.0-3.128-0.128","6ms5mnsj21nfn5v",405,"88.csv","","304.89999985694885","resources/trios/L1T1A1.jpg","39","restless",0.4,0.5,0.3,0.9504822816787,"false"
"image-keyboard-response",396,335930,"0.0-3.128-1.128","6ms5mnsj21nfn5v",405,"88.csv","","null","resources/maskTrios/BBA1.jpg","null","",NA,NA,NA,NA,""
"image-keyboard-response",397,337148,"0.0-3.128-2.128","6ms5mnsj21nfn5v",405,"88.csv","","null","resources/images/fishbone.png","null","",NA,NA,NA,NA,""
"image-keyboard-response",398,337370,"0.0-3.129-0.129","6ms5mnsj21nfn5v",405,"88.csv","","219","resources/trios/L1T4A1.jpg","39","restless",0.4,0.6,0.3,0.920040512162486,"false"
"image-keyboard-response",399,337792,"0.0-3.129-1.129","6ms5mnsj21nfn5v",405,"88.csv","","null","resources/maskTrios/BBA1.jpg","null","",NA,NA,NA,NA,""
"image-keyboard-response",400,339002,"0.0-3.129-2.129","6ms5mnsj21nfn5v",405,"88.csv","","null","resources/images/fishbone.png","null","",NA,NA,NA,NA,""
"image-keyboard-response",401,339034,"0.0-3.130-0.130","6ms5mnsj21nfn5v",405,"88.csv","","29.90000009536743","resources/trios/L1T1A3.jpg","39","restless",0.4,0.6,0.3,0.616839913878009,"false"
"image-keyboard-response",402,339447,"0.0-3.130-1.130","6ms5mnsj21nfn5v",405,"88.csv","","null","resources/maskTrios/BBA3.jpg","null","",NA,NA,NA,NA,""
"image-keyboard-response",403,340661,"0.0-3.130-2.130","6ms5mnsj21nfn5v",405,"88.csv","","null","resources/images/fishbone.png","null","",NA,NA,NA,NA,""
"image-keyboard-response",404,340755,"0.0-3.131-0.131","6ms5mnsj21nfn5v",405,"88.csv","","91.5","resources/trios/L1T4A1.jpg","39","restless",0.4,0.6,0.3,0.638612996745166,"false"
"image-keyboard-response",405,341171,"0.0-3.131-1.131","6ms5mnsj21nfn5v",405,"88.csv","","null","resources/maskTrios/BBA1.jpg","null","",NA,NA,NA,NA,""
"image-keyboard-response",406,342375,"0.0-3.131-2.131","6ms5mnsj21nfn5v",405,"88.csv","","null","resources/images/fishbone.png","null","",NA,NA,NA,NA,""
"image-keyboard-response",407,342749,"0.0-3.132-0.132","6ms5mnsj21nfn5v",405,"88.csv","","371","resources/trios/L4T4A1.jpg","39","restless",0.4,0.6,0.3,0.130592840009318,"true"
"image-keyboard-response",408,343158,"0.0-3.132-1.132","6ms5mnsj21nfn5v",405,"88.csv","","null","resources/maskTrios/BBA1.jpg","null","",NA,NA,NA,NA,""
"image-keyboard-response",409,344373,"0.0-3.132-2.132","6ms5mnsj21nfn5v",405,"88.csv","","null","resources/images/coin2.png","null","",NA,NA,NA,NA,""
"image-keyboard-response",410,344932,"0.0-3.133-0.133","6ms5mnsj21nfn5v",405,"88.csv","","555.8999998569489","resources/trios/L1T1A1.jpg","39","restless",0.4,0.6,0.3,0.221649462946769,"true"
"image-keyboard-response",411,345340,"0.0-3.133-1.133","6ms5mnsj21nfn5v",405,"88.csv","","null","resources/maskTrios/BBA1.jpg","null","",NA,NA,NA,NA,""
"image-keyboard-response",412,346550,"0.0-3.133-2.133","6ms5mnsj21nfn5v",405,"88.csv","","null","resources/images/coin2.png","null","",NA,NA,NA,NA,""
"image-keyboard-response",413,346985,"0.0-3.134-0.134","6ms5mnsj21nfn5v",405,"88.csv","","431.7999999523163","resources/trios/L4T4A1.jpg","39","restless",0.4,0.6,0.3,0.0671824914547605,"true"
"image-keyboard-response",414,347407,"0.0-3.134-1.134","6ms5mnsj21nfn5v",405,"88.csv","","null","resources/maskTrios/BBA1.jpg","null","",NA,NA,NA,NA,""
"image-keyboard-response",415,348623,"0.0-3.134-2.134","6ms5mnsj21nfn5v",405,"88.csv","","null","resources/images/coin2.png","null","",NA,NA,NA,NA,""
"image-keyboard-response",416,348910,"0.0-3.135-0.135","6ms5mnsj21nfn5v",405,"88.csv","","285","resources/trios/L1T1A1.jpg","39","restless",0.4,0.6,0.4,0.475643637214395,"false"
"image-keyboard-response",417,349324,"0.0-3.135-1.135","6ms5mnsj21nfn5v",405,"88.csv","","null","resources/maskTrios/BBA1.jpg","null","",NA,NA,NA,NA,""
"image-keyboard-response",418,350537,"0.0-3.135-2.135","6ms5mnsj21nfn5v",405,"88.csv","","null","resources/images/fishbone.png","null","",NA,NA,NA,NA,""
"image-keyboard-response",419,350583,"0.0-3.136-0.136","6ms5mnsj21nfn5v",405,"88.csv","","43.10000014305115","resources/trios/L1T1A3.jpg","39","restless",0.4,0.6,0.4,0.131142148309847,"true"
"image-keyboard-response",420,351004,"0.0-3.136-1.136","6ms5mnsj21nfn5v",405,"88.csv","","null","resources/maskTrios/BBA3.jpg","null","",NA,NA,NA,NA,""
"image-keyboard-response",421,352221,"0.0-3.136-2.136","6ms5mnsj21nfn5v",405,"88.csv","","null","resources/images/coin2.png","null","",NA,NA,NA,NA,""
"image-keyboard-response",422,352706,"0.0-3.137-0.137","6ms5mnsj21nfn5v",405,"88.csv","","483.2999999523163","resources/trios/L4T4A1.jpg","39","restless",0.4,0.6,0.4,0.777511872766516,"false"
"image-keyboard-response",423,353118,"0.0-3.137-1.137","6ms5mnsj21nfn5v",405,"88.csv","","null","resources/maskTrios/BBA1.jpg","null","",NA,NA,NA,NA,""
"image-keyboard-response",424,354336,"0.0-3.137-2.137","6ms5mnsj21nfn5v",405,"88.csv","","null","resources/images/fishbone.png","null","",NA,NA,NA,NA,""
"image-keyboard-response",425,354646,"0.0-3.138-0.138","6ms5mnsj21nfn5v",405,"88.csv","","307.89999985694885","resources/trios/L4T1A1.jpg","39","restless",0.3,0.6,0.4,0.641025723431591,"false"
"image-keyboard-response",426,355058,"0.0-3.138-1.138","6ms5mnsj21nfn5v",405,"88.csv","","null","resources/maskTrios/BBA1.jpg","null","",NA,NA,NA,NA,""
"image-keyboard-response",427,356267,"0.0-3.138-2.138","6ms5mnsj21nfn5v",405,"88.csv","","null","resources/images/fishbone.png","null","",NA,NA,NA,NA,""
"image-keyboard-response",428,356618,"0.0-3.139-0.139","6ms5mnsj21nfn5v",405,"88.csv","","349.2000000476837","resources/trios/L4T1A1.jpg","39","restless",0.3,0.6,0.4,0.648921964752508,"false"
"image-keyboard-response",429,357036,"0.0-3.139-1.139","6ms5mnsj21nfn5v",405,"88.csv","","null","resources/maskTrios/BBA1.jpg","null","",NA,NA,NA,NA,""
"image-keyboard-response",430,358242,"0.0-3.139-2.139","6ms5mnsj21nfn5v",405,"88.csv","","null","resources/images/fishbone.png","null","",NA,NA,NA,NA,""
"image-keyboard-response",431,358517,"0.0-3.140-0.140","6ms5mnsj21nfn5v",405,"88.csv","","271.2000000476837","resources/trios/L1T4A1.jpg","39","restless",0.3,0.6,0.4,0.451720114364837,"false"
"image-keyboard-response",432,358933,"0.0-3.140-1.140","6ms5mnsj21nfn5v",405,"88.csv","","null","resources/maskTrios/BBA1.jpg","null","",NA,NA,NA,NA,""
"image-keyboard-response",433,360145,"0.0-3.140-2.140","6ms5mnsj21nfn5v",405,"88.csv","","null","resources/images/fishbone.png","null","",NA,NA,NA,NA,""
"image-keyboard-response",434,360719,"0.0-3.141-0.141","6ms5mnsj21nfn5v",405,"88.csv","","570.7000000476837","resources/trios/L1T4A3.jpg","39","restless",0.3,0.6,0.4,0.0152954320506726,"true"
"image-keyboard-response",435,361129,"0.0-3.141-1.141","6ms5mnsj21nfn5v",405,"88.csv","","null","resources/maskTrios/BBA3.jpg","null","",NA,NA,NA,NA,""
"image-keyboard-response",436,362347,"0.0-3.141-2.141","6ms5mnsj21nfn5v",405,"88.csv","","null","resources/images/coin2.png","null","",NA,NA,NA,NA,""
"image-keyboard-response",437,362555,"0.0-3.142-0.142","6ms5mnsj21nfn5v",405,"88.csv","","205.20000004768372","resources/trios/L1T4A3.jpg","39","restless",0.2,0.6,0.4,0.327650937664023,"true"
"image-keyboard-response",438,362976,"0.0-3.142-1.142","6ms5mnsj21nfn5v",405,"88.csv","","null","resources/maskTrios/BBA3.jpg","null","",NA,NA,NA,NA,""
"image-keyboard-response",439,364187,"0.0-3.142-2.142","6ms5mnsj21nfn5v",405,"88.csv","","null","resources/images/coin2.png","null","",NA,NA,NA,NA,""
"image-keyboard-response",440,364491,"0.0-3.143-0.143","6ms5mnsj21nfn5v",405,"88.csv","","300.7000000476837","resources/trios/L4T1A1.jpg","39","restless",0.2,0.6,0.4,0.448785760226313,"false"
"image-keyboard-response",441,364901,"0.0-3.143-1.143","6ms5mnsj21nfn5v",405,"88.csv","","null","resources/maskTrios/BBA1.jpg","null","",NA,NA,NA,NA,""
"image-keyboard-response",442,366118,"0.0-3.143-2.143","6ms5mnsj21nfn5v",405,"88.csv","","null","resources/images/fishbone.png","null","",NA,NA,NA,NA,""
"image-keyboard-response",443,366371,"0.0-3.144-0.144","6ms5mnsj21nfn5v",405,"88.csv","","250.09999990463257","resources/trios/L4T1A1.jpg","39","restless",0.2,0.5,0.4,0.279163698231299,"true"
"image-keyboard-response",444,366781,"0.0-3.144-1.144","6ms5mnsj21nfn5v",405,"88.csv","","null","resources/maskTrios/BBA1.jpg","null","",NA,NA,NA,NA,""
"image-keyboard-response",445,367996,"0.0-3.144-2.144","6ms5mnsj21nfn5v",405,"88.csv","","null","resources/images/coin2.png","null","",NA,NA,NA,NA,""
"image-keyboard-response",446,368319,"0.0-3.145-0.145","6ms5mnsj21nfn5v",405,"88.csv","","319.5","resources/trios/L1T4A1.jpg","39","restless",0.3,0.5,0.4,0.3391766775634,"true"
"image-keyboard-response",447,368731,"0.0-3.145-1.145","6ms5mnsj21nfn5v",405,"88.csv","","null","resources/maskTrios/BBA1.jpg","null","",NA,NA,NA,NA,""
"image-keyboard-response",448,369945,"0.0-3.145-2.145","6ms5mnsj21nfn5v",405,"88.csv","","null","resources/images/coin2.png","null","",NA,NA,NA,NA,""
"image-keyboard-response",449,370437,"0.0-3.146-0.146","6ms5mnsj21nfn5v",405,"88.csv","","488.7000000476837","resources/trios/L1T1A3.jpg","39","restless",0.3,0.5,0.4,0.362936884431155,"true"
"image-keyboard-response",450,370851,"0.0-3.146-1.146","6ms5mnsj21nfn5v",405,"88.csv","","null","resources/maskTrios/BBA3.jpg","null","",NA,NA,NA,NA,""
"image-keyboard-response",451,372062,"0.0-3.146-2.146","6ms5mnsj21nfn5v",405,"88.csv","","null","resources/images/coin2.png","null","",NA,NA,NA,NA,""
"image-keyboard-response",452,372141,"0.0-3.147-0.147","6ms5mnsj21nfn5v",405,"88.csv","","75.29999995231628","resources/trios/L4T1A3.jpg","39","restless",0.2,0.5,0.4,0.234599668760825,"true"
"image-keyboard-response",453,372551,"0.0-3.147-1.147","6ms5mnsj21nfn5v",405,"88.csv","","null","resources/maskTrios/BBA3.jpg","null","",NA,NA,NA,NA,""
"image-keyboard-response",454,373763,"0.0-3.147-2.147","6ms5mnsj21nfn5v",405,"88.csv","","null","resources/images/coin2.png","null","",NA,NA,NA,NA,""
"image-keyboard-response",455,374002,"0.0-3.148-0.148","6ms5mnsj21nfn5v",405,"88.csv","","236.29999995231628","resources/trios/L1T4A3.jpg","39","restless",0.2,0.5,0.4,0.364899042017769,"true"
"image-keyboard-response",456,374419,"0.0-3.148-1.148","6ms5mnsj21nfn5v",405,"88.csv","","null","resources/maskTrios/BBA3.jpg","null","",NA,NA,NA,NA,""
"image-keyboard-response",457,375628,"0.0-3.148-2.148","6ms5mnsj21nfn5v",405,"88.csv","","null","resources/images/coin2.png","null","",NA,NA,NA,NA,""
"image-keyboard-response",458,376100,"0.0-3.149-0.149","6ms5mnsj21nfn5v",405,"88.csv","","470.2999999523163","resources/trios/L4T4A3.jpg","39","restless",0.2,0.5,0.4,0.199608795546778,"true"
"image-keyboard-response",459,376512,"0.0-3.149-1.149","6ms5mnsj21nfn5v",405,"88.csv","","null","resources/maskTrios/BBA3.jpg","null","",NA,NA,NA,NA,""
"image-keyboard-response",460,377734,"0.0-3.149-2.149","6ms5mnsj21nfn5v",405,"88.csv","","null","resources/images/coin2.png","null","",NA,NA,NA,NA,""
"image-keyboard-response",461,378254,"0.0-3.150-0.150","6ms5mnsj21nfn5v",405,"88.csv","","516.8999998569489","resources/trios/L4T1A3.jpg","39","restless",0.2,0.5,0.4,0.328193502865376,"true"
"image-keyboard-response",462,378666,"0.0-3.150-1.150","6ms5mnsj21nfn5v",405,"88.csv","","null","resources/maskTrios/BBA3.jpg","null","",NA,NA,NA,NA,""
"image-keyboard-response",463,379888,"0.0-3.150-2.150","6ms5mnsj21nfn5v",405,"88.csv","","null","resources/images/coin2.png","null","",NA,NA,NA,NA,""
"image-keyboard-response",464,380187,"0.0-3.151-0.151","6ms5mnsj21nfn5v",405,"88.csv","","297.2000000476837","resources/trios/L1T1A3.jpg","39","restless",0.2,0.5,0.4,0.0196623808623348,"true"
"image-keyboard-response",465,380607,"0.0-3.151-1.151","6ms5mnsj21nfn5v",405,"88.csv","","null","resources/maskTrios/BBA3.jpg","null","",NA,NA,NA,NA,""
"image-keyboard-response",466,381822,"0.0-3.151-2.151","6ms5mnsj21nfn5v",405,"88.csv","","null","resources/images/coin2.png","null","",NA,NA,NA,NA,""
"image-keyboard-response",467,382094,"0.0-3.152-0.152","6ms5mnsj21nfn5v",405,"88.csv","","269.19999980926514","resources/trios/L1T4A3.jpg","39","restless",0.2,0.5,0.5,0.20616188644585,"true"
"image-keyboard-response",468,382511,"0.0-3.152-1.152","6ms5mnsj21nfn5v",405,"88.csv","","null","resources/maskTrios/BBA3.jpg","null","",NA,NA,NA,NA,""
"image-keyboard-response",469,383729,"0.0-3.152-2.152","6ms5mnsj21nfn5v",405,"88.csv","","null","resources/images/coin2.png","null","",NA,NA,NA,NA,""
"image-keyboard-response",470,384053,"0.0-3.153-0.153","6ms5mnsj21nfn5v",405,"88.csv","","321.2000000476837","resources/trios/L1T1A3.jpg","39","restless",0.2,0.5,0.5,0.717952110205336,"false"
"image-keyboard-response",471,384462,"0.0-3.153-1.153","6ms5mnsj21nfn5v",405,"88.csv","","null","resources/maskTrios/BBA3.jpg","null","",NA,NA,NA,NA,""
"image-keyboard-response",472,385689,"0.0-3.153-2.153","6ms5mnsj21nfn5v",405,"88.csv","","null","resources/images/fishbone.png","null","",NA,NA,NA,NA,""
"image-keyboard-response",473,386162,"0.0-3.154-0.154","6ms5mnsj21nfn5v",405,"88.csv","","470.59999990463257","resources/trios/L1T4A1.jpg","39","restless",0.3,0.6,0.5,0.208512629536891,"true"
"image-keyboard-response",474,386577,"0.0-3.154-1.154","6ms5mnsj21nfn5v",405,"88.csv","","null","resources/maskTrios/BBA1.jpg","null","",NA,NA,NA,NA,""
"image-keyboard-response",475,387791,"0.0-3.154-2.154","6ms5mnsj21nfn5v",405,"88.csv","","null","resources/images/coin2.png","null","",NA,NA,NA,NA,""
"image-keyboard-response",476,388246,"0.0-3.155-0.155","6ms5mnsj21nfn5v",405,"88.csv","","452.7000000476837","resources/trios/L4T4A1.jpg","39","restless",0.3,0.6,0.5,0.751873056713732,"false"
"image-keyboard-response",477,388651,"0.0-3.155-1.155","6ms5mnsj21nfn5v",405,"88.csv","","null","resources/maskTrios/BBA1.jpg","null","",NA,NA,NA,NA,""
"image-keyboard-response",478,389860,"0.0-3.155-2.155","6ms5mnsj21nfn5v",405,"88.csv","","null","resources/images/fishbone.png","null","",NA,NA,NA,NA,""
"image-keyboard-response",479,390241,"0.0-3.156-0.156","6ms5mnsj21nfn5v",405,"88.csv","","378.60000014305115","resources/trios/L4T4A1.jpg","39","restless",0.4,0.6,0.5,0.492085706471839,"true"
"image-keyboard-response",480,390659,"0.0-3.156-1.156","6ms5mnsj21nfn5v",405,"88.csv","","null","resources/maskTrios/BBA1.jpg","null","",NA,NA,NA,NA,""
"image-keyboard-response",481,391866,"0.0-3.156-2.156","6ms5mnsj21nfn5v",405,"88.csv","","null","resources/images/coin2.png","null","",NA,NA,NA,NA,""
"image-keyboard-response",482,392170,"0.0-3.157-0.157","6ms5mnsj21nfn5v",405,"88.csv","","302","resources/trios/L4T4A1.jpg","39","restless",0.4,0.6,0.5,0.886558549523456,"false"
"image-keyboard-response",483,392596,"0.0-3.157-1.157","6ms5mnsj21nfn5v",405,"88.csv","","null","resources/maskTrios/BBA1.jpg","null","",NA,NA,NA,NA,""
"image-keyboard-response",484,393806,"0.0-3.157-2.157","6ms5mnsj21nfn5v",405,"88.csv","","null","resources/images/fishbone.png","null","",NA,NA,NA,NA,""
"image-keyboard-response",485,393989,"0.0-3.158-0.158","6ms5mnsj21nfn5v",405,"88.csv","","179.39999985694885","resources/trios/L4T1A1.jpg","39","restless",0.4,0.6,0.6,0.728958685264171,"false"
"image-keyboard-response",486,394406,"0.0-3.158-1.158","6ms5mnsj21nfn5v",405,"88.csv","","null","resources/maskTrios/BBA1.jpg","null","",NA,NA,NA,NA,""
"image-keyboard-response",487,395622,"0.0-3.158-2.158","6ms5mnsj21nfn5v",405,"88.csv","","null","resources/images/fishbone.png","null","",NA,NA,NA,NA,""
"image-keyboard-response",488,395730,"0.0-3.159-0.159","6ms5mnsj21nfn5v",405,"88.csv","","104.59999990463257","resources/trios/L1T1A3.jpg","39","restless",0.4,0.6,0.6,0.616656949487824,"false"
"image-keyboard-response",489,396151,"0.0-3.159-1.159","6ms5mnsj21nfn5v",405,"88.csv","","null","resources/maskTrios/BBA3.jpg","null","",NA,NA,NA,NA,""
"image-keyboard-response",490,397364,"0.0-3.159-2.159","6ms5mnsj21nfn5v",405,"88.csv","","null","resources/images/fishbone.png","null","",NA,NA,NA,NA,""
"image-keyboard-response",491,397404,"0.0-3.160-0.160","6ms5mnsj21nfn5v",405,"88.csv","","37.59999990463257","resources/trios/L4T1A3.jpg","39","restless",0.4,0.6,0.6,0.567078810599311,"true"
"image-keyboard-response",492,397824,"0.0-3.160-1.160","6ms5mnsj21nfn5v",405,"88.csv","","null","resources/maskTrios/BBA3.jpg","null","",NA,NA,NA,NA,""
"image-keyboard-response",493,399037,"0.0-3.160-2.160","6ms5mnsj21nfn5v",405,"88.csv","","null","resources/images/coin2.png","null","",NA,NA,NA,NA,""
"image-keyboard-response",494,399327,"0.0-3.161-0.161","6ms5mnsj21nfn5v",405,"88.csv","","287.7000000476837","resources/trios/L1T4A3.jpg","39","restless",0.4,0.6,0.6,0.22202714505377,"true"
"image-keyboard-response",495,399739,"0.0-3.161-1.161","6ms5mnsj21nfn5v",405,"88.csv","","null","resources/maskTrios/BBA3.jpg","null","",NA,NA,NA,NA,""
"image-keyboard-response",496,400954,"0.0-3.161-2.161","6ms5mnsj21nfn5v",405,"88.csv","","null","resources/images/coin2.png","null","",NA,NA,NA,NA,""
"image-keyboard-response",497,401128,"0.0-3.162-0.162","6ms5mnsj21nfn5v",405,"88.csv","","170.79999995231628","resources/trios/L4T4A3.jpg","39","restless",0.4,0.6,0.6,0.425821160544975,"true"
"image-keyboard-response",498,401548,"0.0-3.162-1.162","6ms5mnsj21nfn5v",405,"88.csv","","null","resources/maskTrios/BBA3.jpg","null","",NA,NA,NA,NA,""
"image-keyboard-response",499,402759,"0.0-3.162-2.162","6ms5mnsj21nfn5v",405,"88.csv","","null","resources/images/coin2.png","null","",NA,NA,NA,NA,""
"image-keyboard-response",500,403172,"0.0-3.163-0.163","6ms5mnsj21nfn5v",405,"88.csv","","410.60000014305115","resources/trios/L1T4A1.jpg","39","restless",0.4,0.6,0.6,0.430088903368193,"true"
"image-keyboard-response",501,403583,"0.0-3.163-1.163","6ms5mnsj21nfn5v",405,"88.csv","","null","resources/maskTrios/BBA1.jpg","null","",NA,NA,NA,NA,""
"image-keyboard-response",502,404794,"0.0-3.163-2.163","6ms5mnsj21nfn5v",405,"88.csv","","null","resources/images/coin2.png","null","",NA,NA,NA,NA,""
"image-keyboard-response",503,405324,"0.0-3.164-0.164","6ms5mnsj21nfn5v",405,"88.csv","","527.0999999046326","resources/trios/L1T4A1.jpg","39","restless",0.4,0.6,0.6,0.764888122497109,"false"
"image-keyboard-response",504,405741,"0.0-3.164-1.164","6ms5mnsj21nfn5v",405,"88.csv","","null","resources/maskTrios/BBA1.jpg","null","",NA,NA,NA,NA,""
"image-keyboard-response",505,406960,"0.0-3.164-2.164","6ms5mnsj21nfn5v",405,"88.csv","","null","resources/images/fishbone.png","null","",NA,NA,NA,NA,""
"image-keyboard-response",506,407226,"0.0-3.165-0.165","6ms5mnsj21nfn5v",405,"88.csv","","264.39999985694885","resources/trios/L1T1A1.jpg","39","restless",0.4,0.6,0.6,0.83932930155152,"false"
"image-keyboard-response",507,407637,"0.0-3.165-1.165","6ms5mnsj21nfn5v",405,"88.csv","","null","resources/maskTrios/BBA1.jpg","null","",NA,NA,NA,NA,""
"image-keyboard-response",508,408859,"0.0-3.165-2.165","6ms5mnsj21nfn5v",405,"88.csv","","null","resources/images/fishbone.png","null","",NA,NA,NA,NA,""
"image-keyboard-response",509,409406,"0.0-3.166-0.166","6ms5mnsj21nfn5v",405,"88.csv","","544.5","resources/trios/L1T1A1.jpg","39","restless",0.4,0.6,0.6,0.152392460010589,"true"
"image-keyboard-response",510,409824,"0.0-3.166-1.166","6ms5mnsj21nfn5v",405,"88.csv","","null","resources/maskTrios/BBA1.jpg","null","",NA,NA,NA,NA,""
"image-keyboard-response",511,411043,"0.0-3.166-2.166","6ms5mnsj21nfn5v",405,"88.csv","","null","resources/images/coin2.png","null","",NA,NA,NA,NA,""
"image-keyboard-response",512,411124,"0.0-3.167-0.167","6ms5mnsj21nfn5v",405,"88.csv","","79","resources/trios/L4T1A1.jpg","39","restless",0.4,0.6,0.6,0.0640573298707634,"true"
"image-keyboard-response",513,411536,"0.0-3.167-1.167","6ms5mnsj21nfn5v",405,"88.csv","","null","resources/maskTrios/BBA1.jpg","null","",NA,NA,NA,NA,""
"image-keyboard-response",514,412749,"0.0-3.167-2.167","6ms5mnsj21nfn5v",405,"88.csv","","null","resources/images/coin2.png","null","",NA,NA,NA,NA,""
"image-keyboard-response",515,413120,"0.0-3.168-0.168","6ms5mnsj21nfn5v",405,"88.csv","","368.40000009536743","resources/trios/L1T4A1.jpg","39","restless",0.4,0.7,0.6,0.235114111725886,"true"
"image-keyboard-response",516,413533,"0.0-3.168-1.168","6ms5mnsj21nfn5v",405,"88.csv","","null","resources/maskTrios/BBA1.jpg","null","",NA,NA,NA,NA,""
"image-keyboard-response",517,414748,"0.0-3.168-2.168","6ms5mnsj21nfn5v",405,"88.csv","","null","resources/images/coin2.png","null","",NA,NA,NA,NA,""
"image-keyboard-response",518,414792,"0.0-3.169-0.169","6ms5mnsj21nfn5v",405,"88.csv","","40.90000009536743","resources/trios/L1T1A1.jpg","39","restless",0.5,0.7,0.6,0.854837716189621,"false"
"image-keyboard-response",519,415202,"0.0-3.169-1.169","6ms5mnsj21nfn5v",405,"88.csv","","null","resources/maskTrios/BBA1.jpg","null","",NA,NA,NA,NA,""
"image-keyboard-response",520,416416,"0.0-3.169-2.169","6ms5mnsj21nfn5v",405,"88.csv","","null","resources/images/fishbone.png","null","",NA,NA,NA,NA,""
"image-keyboard-response",521,416842,"0.0-3.170-0.170","6ms5mnsj21nfn5v",405,"88.csv","","423.19999980926514","resources/trios/L4T1A3.jpg","39","restless",0.5,0.7,0.6,0.41584627911965,"true"
"image-keyboard-response",522,417251,"0.0-3.170-1.170","6ms5mnsj21nfn5v",405,"88.csv","","null","resources/maskTrios/BBA3.jpg","null","",NA,NA,NA,NA,""
"image-keyboard-response",523,418464,"0.0-3.170-2.170","6ms5mnsj21nfn5v",405,"88.csv","","null","resources/images/coin2.png","null","",NA,NA,NA,NA,""
"image-keyboard-response",524,418796,"0.0-3.171-0.171","6ms5mnsj21nfn5v",405,"88.csv","","330.09999990463257","resources/trios/L1T4A1.jpg","39","restless",0.6,0.7,0.5,0.571521252981795,"false"
"image-keyboard-response",525,419216,"0.0-3.171-1.171","6ms5mnsj21nfn5v",405,"88.csv","","null","resources/maskTrios/BBA1.jpg","null","",NA,NA,NA,NA,""
"image-keyboard-response",526,420430,"0.0-3.171-2.171","6ms5mnsj21nfn5v",405,"88.csv","","null","resources/images/fishbone.png","null","",NA,NA,NA,NA,""
"image-keyboard-response",527,420897,"0.0-3.172-0.172","6ms5mnsj21nfn5v",405,"88.csv","","464.40000009536743","resources/trios/L4T1A3.jpg","39","restless",0.6,0.7,0.6,0.479175822177447,"true"
"image-keyboard-response",528,421306,"0.0-3.172-1.172","6ms5mnsj21nfn5v",405,"88.csv","","null","resources/maskTrios/BBA3.jpg","null","",NA,NA,NA,NA,""
"image-keyboard-response",529,422528,"0.0-3.172-2.172","6ms5mnsj21nfn5v",405,"88.csv","","null","resources/images/coin2.png","null","",NA,NA,NA,NA,""
"image-keyboard-response",530,422917,"0.0-3.173-0.173","6ms5mnsj21nfn5v",405,"88.csv","","385.5","resources/trios/L1T1A1.jpg","39","restless",0.5,0.7,0.6,0.0656969680403974,"true"
"image-keyboard-response",531,423332,"0.0-3.173-1.173","6ms5mnsj21nfn5v",405,"88.csv","","null","resources/maskTrios/BBA1.jpg","null","",NA,NA,NA,NA,""
"image-keyboard-response",532,424537,"0.0-3.173-2.173","6ms5mnsj21nfn5v",405,"88.csv","","null","resources/images/coin2.png","null","",NA,NA,NA,NA,""
"image-keyboard-response",533,425230,"0.0-3.174-0.174","6ms5mnsj21nfn5v",405,"88.csv","","690.2999999523163","resources/trios/L4T1A3.jpg","39","restless",0.5,0.7,0.6,0.890417599884948,"false"
"image-keyboard-response",534,425653,"0.0-3.174-1.174","6ms5mnsj21nfn5v",405,"88.csv","","null","resources/maskTrios/BBA3.jpg","null","",NA,NA,NA,NA,""
"image-keyboard-response",535,426870,"0.0-3.174-2.174","6ms5mnsj21nfn5v",405,"88.csv","","null","resources/images/fishbone.png","null","",NA,NA,NA,NA,""
"image-keyboard-response",536,427274,"0.0-3.175-0.175","6ms5mnsj21nfn5v",405,"88.csv","","401.5","resources/trios/L4T4A3.jpg","39","restless",0.5,0.7,0.6,0.850566830008531,"false"
"image-keyboard-response",537,427681,"0.0-3.175-1.175","6ms5mnsj21nfn5v",405,"88.csv","","null","resources/maskTrios/BBA3.jpg","null","",NA,NA,NA,NA,""
"image-keyboard-response",538,428902,"0.0-3.175-2.175","6ms5mnsj21nfn5v",405,"88.csv","","null","resources/images/fishbone.png","null","",NA,NA,NA,NA,""
"image-keyboard-response",539,429196,"0.0-3.176-0.176","6ms5mnsj21nfn5v",405,"88.csv","","291.7999999523163","resources/trios/L4T1A3.jpg","38","restless",0.5,0.7,0.6,0.257720869501275,"true"
"image-keyboard-response",540,429604,"0.0-3.176-1.176","6ms5mnsj21nfn5v",405,"88.csv","","null","resources/maskTrios/BT1B.jpg","null","",NA,NA,NA,NA,""
"image-keyboard-response",541,430813,"0.0-3.176-2.176","6ms5mnsj21nfn5v",405,"88.csv","","null","resources/images/coin2.png","null","",NA,NA,NA,NA,""
"image-keyboard-response",542,431386,"0.0-3.177-0.177","6ms5mnsj21nfn5v",405,"88.csv","","570.0999999046326","resources/trios/L4T4A1.jpg","38","restless",0.5,0.7,0.6,0.112204305391607,"true"
"image-keyboard-response",543,431798,"0.0-3.177-1.177","6ms5mnsj21nfn5v",405,"88.csv","","null","resources/maskTrios/BT4B.jpg","null","",NA,NA,NA,NA,""
"image-keyboard-response",544,433012,"0.0-3.177-2.177","6ms5mnsj21nfn5v",405,"88.csv","","null","resources/images/coin2.png","null","",NA,NA,NA,NA,""
"image-keyboard-response",545,433509,"0.0-3.178-0.178","6ms5mnsj21nfn5v",405,"88.csv","","493.89999985694885","resources/trios/L4T1A3.jpg","38","restless",0.5,0.6,0.5,0.580378813878723,"true"
"image-keyboard-response",546,433922,"0.0-3.178-1.178","6ms5mnsj21nfn5v",405,"88.csv","","null","resources/maskTrios/BT1B.jpg","null","",NA,NA,NA,NA,""
"image-keyboard-response",547,435143,"0.0-3.178-2.178","6ms5mnsj21nfn5v",405,"88.csv","","null","resources/images/coin2.png","null","",NA,NA,NA,NA,""
"image-keyboard-response",548,435570,"0.0-3.179-0.179","6ms5mnsj21nfn5v",405,"88.csv","","424.7000000476837","resources/trios/L1T1A3.jpg","38","restless",0.5,0.7,0.5,0.0283447349570718,"true"
"image-keyboard-response",549,435989,"0.0-3.179-1.179","6ms5mnsj21nfn5v",405,"88.csv","","null","resources/maskTrios/BT1B.jpg","null","",NA,NA,NA,NA,""
"image-keyboard-response",550,437197,"0.0-3.179-2.179","6ms5mnsj21nfn5v",405,"88.csv","","null","resources/images/coin2.png","null","",NA,NA,NA,NA,""
"image-keyboard-response",551,437620,"0.0-3.180-0.180","6ms5mnsj21nfn5v",405,"88.csv","","420.5","resources/trios/L1T1A1.jpg","38","restless",0.5,0.7,0.5,0.99057781279133,"false"
"image-keyboard-response",552,438037,"0.0-3.180-1.180","6ms5mnsj21nfn5v",405,"88.csv","","null","resources/maskTrios/BT1B.jpg","null","",NA,NA,NA,NA,""
"image-keyboard-response",553,439246,"0.0-3.180-2.180","6ms5mnsj21nfn5v",405,"88.csv","","null","resources/images/fishbone.png","null","",NA,NA,NA,NA,""
"image-keyboard-response",554,439845,"0.0-3.181-0.181","6ms5mnsj21nfn5v",405,"88.csv","","597.2000000476837","resources/trios/L4T4A1.jpg","38","restless",0.5,0.7,0.5,0.476179019750605,"true"
"image-keyboard-response",555,440255,"0.0-3.181-1.181","6ms5mnsj21nfn5v",405,"88.csv","","null","resources/maskTrios/BT4B.jpg","null","",NA,NA,NA,NA,""
"image-keyboard-response",556,441478,"0.0-3.181-2.181","6ms5mnsj21nfn5v",405,"88.csv","","null","resources/images/coin2.png","null","",NA,NA,NA,NA,""
"image-keyboard-response",557,442343,"0.0-3.182-0.182","6ms5mnsj21nfn5v",405,"88.csv","","862.9000000953674","resources/trios/L1T1A1.jpg","38","restless",0.6,0.7,0.5,0.687524639253839,"true"
"image-keyboard-response",558,442767,"0.0-3.182-1.182","6ms5mnsj21nfn5v",405,"88.csv","","null","resources/maskTrios/BT1B.jpg","null","",NA,NA,NA,NA,""
"image-keyboard-response",559,443979,"0.0-3.182-2.182","6ms5mnsj21nfn5v",405,"88.csv","","null","resources/images/coin2.png","null","",NA,NA,NA,NA,""
"image-keyboard-response",560,444414,"0.0-3.183-0.183","6ms5mnsj21nfn5v",405,"88.csv","","432.90000009536743","resources/trios/L1T4A1.jpg","38","restless",0.6,0.7,0.5,0.427578803036867,"true"
"image-keyboard-response",561,444829,"0.0-3.183-1.183","6ms5mnsj21nfn5v",405,"88.csv","","null","resources/maskTrios/BT4B.jpg","null","",NA,NA,NA,NA,""
"image-keyboard-response",562,446035,"0.0-3.183-2.183","6ms5mnsj21nfn5v",405,"88.csv","","null","resources/images/coin2.png","null","",NA,NA,NA,NA,""
"image-keyboard-response",563,446293,"0.0-3.184-0.184","6ms5mnsj21nfn5v",405,"88.csv","","255.20000004768372","resources/trios/L4T4A1.jpg","38","restless",0.6,0.7,0.5,0.618436847613973,"true"
"image-keyboard-response",564,446700,"0.0-3.184-1.184","6ms5mnsj21nfn5v",405,"88.csv","","null","resources/maskTrios/BT4B.jpg","null","",NA,NA,NA,NA,""
"image-keyboard-response",565,447911,"0.0-3.184-2.184","6ms5mnsj21nfn5v",405,"88.csv","","null","resources/images/coin2.png","null","",NA,NA,NA,NA,""
"image-keyboard-response",566,448356,"0.0-3.185-0.185","6ms5mnsj21nfn5v",405,"88.csv","","442.10000014305115","resources/trios/L4T4A1.jpg","38","restless",0.6,0.7,0.5,0.75137804865581,"false"
"image-keyboard-response",567,448761,"0.0-3.185-1.185","6ms5mnsj21nfn5v",405,"88.csv","","null","resources/maskTrios/BT4B.jpg","null","",NA,NA,NA,NA,""
"image-keyboard-response",568,449974,"0.0-3.185-2.185","6ms5mnsj21nfn5v",405,"88.csv","","null","resources/images/fishbone.png","null","",NA,NA,NA,NA,""
"image-keyboard-response",569,450071,"0.0-3.186-0.186","6ms5mnsj21nfn5v",405,"88.csv","","93.5","resources/trios/L4T4A1.jpg","38","restless",0.6,0.7,0.5,0.375267625794744,"true"
"image-keyboard-response",570,450484,"0.0-3.186-1.186","6ms5mnsj21nfn5v",405,"88.csv","","null","resources/maskTrios/BT4B.jpg","null","",NA,NA,NA,NA,""
"image-keyboard-response",571,451691,"0.0-3.186-2.186","6ms5mnsj21nfn5v",405,"88.csv","","null","resources/images/coin2.png","null","",NA,NA,NA,NA,""
"image-keyboard-response",572,452010,"0.0-3.187-0.187","6ms5mnsj21nfn5v",405,"88.csv","","316.09999990463257","resources/trios/L4T1A3.jpg","38","restless",0.6,0.8,0.5,0.0309369170778757,"true"
"image-keyboard-response",573,452422,"0.0-3.187-1.187","6ms5mnsj21nfn5v",405,"88.csv","","null","resources/maskTrios/BT1B.jpg","null","",NA,NA,NA,NA,""
"image-keyboard-response",574,453638,"0.0-3.187-2.187","6ms5mnsj21nfn5v",405,"88.csv","","null","resources/images/coin2.png","null","",NA,NA,NA,NA,""
"image-keyboard-response",575,453832,"0.0-3.188-0.188","6ms5mnsj21nfn5v",405,"88.csv","","191.20000004768372","resources/trios/L1T4A1.jpg","38","restless",0.5,0.8,0.5,0.400522501073834,"true"
"image-keyboard-response",576,454242,"0.0-3.188-1.188","6ms5mnsj21nfn5v",405,"88.csv","","null","resources/maskTrios/BT4B.jpg","null","",NA,NA,NA,NA,""
"image-keyboard-response",577,455460,"0.0-3.188-2.188","6ms5mnsj21nfn5v",405,"88.csv","","null","resources/images/coin2.png","null","",NA,NA,NA,NA,""
"image-keyboard-response",578,455872,"0.0-3.189-0.189","6ms5mnsj21nfn5v",405,"88.csv","","410","resources/trios/L1T4A3.jpg","38","restless",0.5,0.8,0.5,0.956862519223363,"false"
"image-keyboard-response",579,456283,"0.0-3.189-1.189","6ms5mnsj21nfn5v",405,"88.csv","","null","resources/maskTrios/BT4B.jpg","null","",NA,NA,NA,NA,""
"image-keyboard-response",580,457494,"0.0-3.189-2.189","6ms5mnsj21nfn5v",405,"88.csv","","null","resources/images/fishbone.png","null","",NA,NA,NA,NA,""
"image-keyboard-response",581,457764,"0.0-3.190-0.190","6ms5mnsj21nfn5v",405,"88.csv","","267.40000009536743","resources/trios/L4T1A3.jpg","38","restless",0.5,0.8,0.4,0.506074985961279,"true"
"image-keyboard-response",582,458185,"0.0-3.190-1.190","6ms5mnsj21nfn5v",405,"88.csv","","null","resources/maskTrios/BT1B.jpg","null","",NA,NA,NA,NA,""
"image-keyboard-response",583,459406,"0.0-3.190-2.190","6ms5mnsj21nfn5v",405,"88.csv","","null","resources/images/coin2.png","null","",NA,NA,NA,NA,""
"image-keyboard-response",584,459509,"0.0-3.191-0.191","6ms5mnsj21nfn5v",405,"88.csv","","101.29999995231628","resources/trios/L1T1A3.jpg","38","restless",0.5,0.8,0.4,0.643516711343356,"true"
"image-keyboard-response",585,459922,"0.0-3.191-1.191","6ms5mnsj21nfn5v",405,"88.csv","","null","resources/maskTrios/BT1B.jpg","null","",NA,NA,NA,NA,""
"image-keyboard-response",586,461136,"0.0-3.191-2.191","6ms5mnsj21nfn5v",405,"88.csv","","null","resources/images/coin2.png","null","",NA,NA,NA,NA,""
"image-keyboard-response",587,461660,"0.0-3.192-0.192","6ms5mnsj21nfn5v",405,"88.csv","","521.7000000476837","resources/trios/L1T4A3.jpg","38","restless",0.5,0.8,0.4,0.311698426902113,"true"
"image-keyboard-response",588,462072,"0.0-3.192-1.192","6ms5mnsj21nfn5v",405,"88.csv","","null","resources/maskTrios/BT4B.jpg","null","",NA,NA,NA,NA,""
"image-keyboard-response",589,463285,"0.0-3.192-2.192","6ms5mnsj21nfn5v",405,"88.csv","","null","resources/images/coin2.png","null","",NA,NA,NA,NA,""
"image-keyboard-response",590,463870,"0.0-3.193-0.193","6ms5mnsj21nfn5v",405,"88.csv","","582.5","resources/trios/L1T1A1.jpg","38","restless",0.4,0.8,0.4,0.475932877214593,"true"
"image-keyboard-response",591,464295,"0.0-3.193-1.193","6ms5mnsj21nfn5v",405,"88.csv","","null","resources/maskTrios/BT1B.jpg","null","",NA,NA,NA,NA,""
"image-keyboard-response",592,465509,"0.0-3.193-2.193","6ms5mnsj21nfn5v",405,"88.csv","","null","resources/images/coin2.png","null","",NA,NA,NA,NA,""
"image-keyboard-response",593,465822,"0.0-3.194-0.194","6ms5mnsj21nfn5v",405,"88.csv","","309.7000000476837","resources/trios/L4T4A1.jpg","38","restless",0.4,0.8,0.4,0.504928981437177,"true"
"image-keyboard-response",594,466247,"0.0-3.194-1.194","6ms5mnsj21nfn5v",405,"88.csv","","null","resources/maskTrios/BT4B.jpg","null","",NA,NA,NA,NA,""
"image-keyboard-response",595,467461,"0.0-3.194-2.194","6ms5mnsj21nfn5v",405,"88.csv","","null","resources/images/coin2.png","null","",NA,NA,NA,NA,""
"image-keyboard-response",596,467492,"0.0-3.195-0.195","6ms5mnsj21nfn5v",405,"88.csv","","28.799999952316284","resources/trios/L1T4A1.jpg","38","restless",0.4,0.8,0.4,0.66683483172002,"true"
"image-keyboard-response",597,467898,"0.0-3.195-1.195","6ms5mnsj21nfn5v",405,"88.csv","","null","resources/maskTrios/BT4B.jpg","null","",NA,NA,NA,NA,""
"image-keyboard-response",598,469112,"0.0-3.195-2.195","6ms5mnsj21nfn5v",405,"88.csv","","null","resources/images/coin2.png","null","",NA,NA,NA,NA,""
"image-keyboard-response",599,469843,"0.0-3.196-0.196","6ms5mnsj21nfn5v",405,"88.csv","","729.2000000476837","resources/trios/L4T1A3.jpg","38","restless",0.4,0.8,0.4,0.638633347855029,"true"
"image-keyboard-response",600,470259,"0.0-3.196-1.196","6ms5mnsj21nfn5v",405,"88.csv","","null","resources/maskTrios/BT1B.jpg","null","",NA,NA,NA,NA,""
"image-keyboard-response",601,471469,"0.0-3.196-2.196","6ms5mnsj21nfn5v",405,"88.csv","","null","resources/images/coin2.png","null","",NA,NA,NA,NA,""
"image-keyboard-response",602,471704,"0.0-3.197-0.197","6ms5mnsj21nfn5v",405,"88.csv","","231.09999990463257","resources/trios/L4T4A3.jpg","38","restless",0.4,0.8,0.4,0.852459416749608,"false"
"image-keyboard-response",603,472113,"0.0-3.197-1.197","6ms5mnsj21nfn5v",405,"88.csv","","null","resources/maskTrios/BT4B.jpg","null","",NA,NA,NA,NA,""
"image-keyboard-response",604,473325,"0.0-3.197-2.197","6ms5mnsj21nfn5v",405,"88.csv","","null","resources/images/fishbone.png","null","",NA,NA,NA,NA,""
"image-keyboard-response",605,473576,"0.0-3.198-0.198","6ms5mnsj21nfn5v",405,"88.csv","","248.70000004768372","resources/trios/L1T1A3.jpg","38","restless",0.4,0.8,0.4,0.519315850432874,"true"
"image-keyboard-response",606,473996,"0.0-3.198-1.198","6ms5mnsj21nfn5v",405,"88.csv","","null","resources/maskTrios/BT1B.jpg","null","",NA,NA,NA,NA,""
"image-keyboard-response",607,475214,"0.0-3.198-2.198","6ms5mnsj21nfn5v",405,"88.csv","","null","resources/images/coin2.png","null","",NA,NA,NA,NA,""
"image-keyboard-response",608,475369,"0.0-3.199-0.199","6ms5mnsj21nfn5v",405,"88.csv","","151.40000009536743","resources/trios/L4T4A1.jpg","38","restless",0.4,0.8,0.4,0.406425031168809,"true"
"image-keyboard-response",609,475782,"0.0-3.199-1.199","6ms5mnsj21nfn5v",405,"88.csv","","null","resources/maskTrios/BT4B.jpg","null","",NA,NA,NA,NA,""
"image-keyboard-response",610,476997,"0.0-3.199-2.199","6ms5mnsj21nfn5v",405,"88.csv","","null","resources/images/coin2.png","null","",NA,NA,NA,NA,""
