"trial_type","trial_index","time_elapsed","internal_node_id","subject","participantCode","walkNumber","success","rt","stimulus","key_press","test_part","leftProb","midProb","rightProb","generatedNum","correct"
"pavlovia",0,1019,"0.0-0.0","3zv70ldf85sybox",405,"20.csv","","","","","",NA,NA,NA,NA,""
"fullscreen",1,22484,"0.0-1.0","3zv70ldf85sybox",405,"20.csv","true","","","","",NA,NA,NA,NA,""
"html-keyboard-response",2,28943,"0.0-2.0-0.0","3zv70ldf85sybox",405,"20.csv","","6456.200000047684","<p><font size='6'>Arrrgh!</p></font><p>Can you be the best pirate? Try to find lots of gold! But beware, some islands have more gold than others, and over time, the island with the most gold may change. Can YOU figure it out? </p><font size='6'>GOOD LUCK, CAPTAIN!!!</font><p>Press any key to begin</p>","32","",NA,NA,NA,NA,""
"image-keyboard-response",3,31947,"0.0-2.0-1.0","3zv70ldf85sybox",405,"20.csv","","null","resources/image_sets/111.png","null","",NA,NA,NA,NA,""
"image-keyboard-response",4,49727,"0.0-2.0-2.0","3zv70ldf85sybox",405,"20.csv","","17777.5","resources/image_sets/left_highlight.png","37","",NA,NA,NA,NA,""
"image-keyboard-response",5,56879,"0.0-2.0-3.0","3zv70ldf85sybox",405,"20.csv","","7149.5","resources/image_sets/mid_highlight.png","38","",NA,NA,NA,NA,""
"image-keyboard-response",6,65483,"0.0-2.0-4.0","3zv70ldf85sybox",405,"20.csv","","8602","resources/image_sets/right_highlight.png","39","",NA,NA,NA,NA,""
"image-keyboard-response",7,73432,"0.0-2.0-5.0","3zv70ldf85sybox",405,"20.csv","","7947.400000035763","resources/image_sets/111.png","13","",NA,NA,NA,NA,""
"image-keyboard-response",8,75997,"0.0-2.0-6.0","3zv70ldf85sybox",405,"20.csv","","2563.300000011921","resources/images/coin2.png","13","",NA,NA,NA,NA,""
"image-keyboard-response",9,77883,"0.0-2.0-7.0","3zv70ldf85sybox",405,"20.csv","","1883.8999999761581","resources/images/fishbone.png","13","",NA,NA,NA,NA,""
"html-keyboard-response",10,96317,"0.0-2.0-8.0","3zv70ldf85sybox",405,"20.csv","","18432.900000035763","<p>Your first journey will be a long one, but you will get a well deserved break at the end</p><p>After the break you will have four more journeys, but each will be much shorter than the first, and you will have breaks in between each</p><p>Press Enter to begin</p>","13","",NA,NA,NA,NA,""
"image-keyboard-response",11,99176,"0.0-3.0-0.0","3zv70ldf85sybox",405,"20.csv","","2856.399999976158","resources/trios/L1T4A2.jpg","37","restless",0.7,0.3,0.9,0.186413670713382,"true"
"image-keyboard-response",12,99585,"0.0-3.0-1.0","3zv70ldf85sybox",405,"20.csv","","null","resources/maskTrios/L1BB.jpg","null","",NA,NA,NA,NA,""
"image-keyboard-response",13,100794,"0.0-3.0-2.0","3zv70ldf85sybox",405,"20.csv","","null","resources/images/coin2.png","null","",NA,NA,NA,NA,""
"image-keyboard-response",14,104616,"0.0-3.1-0.1","3zv70ldf85sybox",405,"20.csv","","3818.5","resources/trios/L1T4A2.jpg","38","restless",0.7,0.3,0.9,0.00133361487657391,"true"
"image-keyboard-response",15,105023,"0.0-3.1-1.1","3zv70ldf85sybox",405,"20.csv","","null","resources/maskTrios/BT4B.jpg","null","",NA,NA,NA,NA,""
"image-keyboard-response",16,106226,"0.0-3.1-2.1","3zv70ldf85sybox",405,"20.csv","","null","resources/images/coin2.png","null","",NA,NA,NA,NA,""
"image-keyboard-response",17,108647,"0.0-3.2-0.2","3zv70ldf85sybox",405,"20.csv","","2418.099999964237","resources/trios/L4T4A2.jpg","38","restless",0.6,0.3,0.9,0.798236883163391,"false"
"image-keyboard-response",18,109053,"0.0-3.2-1.2","3zv70ldf85sybox",405,"20.csv","","null","resources/maskTrios/BT4B.jpg","null","",NA,NA,NA,NA,""
"image-keyboard-response",19,110257,"0.0-3.2-2.2","3zv70ldf85sybox",405,"20.csv","","null","resources/images/fishbone.png","null","",NA,NA,NA,NA,""
"image-keyboard-response",20,112092,"0.0-3.3-0.3","3zv70ldf85sybox",405,"20.csv","","1832.699999988079","resources/trios/L4T1A2.jpg","38","restless",0.6,0.3,0.9,0.163323309568123,"true"
"image-keyboard-response",21,112497,"0.0-3.3-1.3","3zv70ldf85sybox",405,"20.csv","","null","resources/maskTrios/BT1B.jpg","null","",NA,NA,NA,NA,""
"image-keyboard-response",22,113704,"0.0-3.3-2.3","3zv70ldf85sybox",405,"20.csv","","null","resources/images/coin2.png","null","",NA,NA,NA,NA,""
"image-keyboard-response",23,114349,"0.0-3.4-0.4","3zv70ldf85sybox",405,"20.csv","","642.1000000238419","resources/trios/L4T1A1.jpg","38","restless",0.6,0.3,0.9,0.349128188541158,"false"
"image-keyboard-response",24,114752,"0.0-3.4-1.4","3zv70ldf85sybox",405,"20.csv","","null","resources/maskTrios/BT1B.jpg","null","",NA,NA,NA,NA,""
"image-keyboard-response",25,115959,"0.0-3.4-2.4","3zv70ldf85sybox",405,"20.csv","","null","resources/images/fishbone.png","null","",NA,NA,NA,NA,""
"image-keyboard-response",26,117691,"0.0-3.5-0.5","3zv70ldf85sybox",405,"20.csv","","1730.1000000238419","resources/trios/L1T1A2.jpg","39","restless",0.6,0.3,0.8,0.749954656118576,"true"
"image-keyboard-response",27,118097,"0.0-3.5-1.5","3zv70ldf85sybox",405,"20.csv","","null","resources/maskTrios/BBA2.jpg","null","",NA,NA,NA,NA,""
"image-keyboard-response",28,119304,"0.0-3.5-2.5","3zv70ldf85sybox",405,"20.csv","","null","resources/images/coin2.png","null","",NA,NA,NA,NA,""
"image-keyboard-response",29,121476,"0.0-3.6-0.6","3zv70ldf85sybox",405,"20.csv","","2170","resources/trios/L4T4A2.jpg","38","restless",0.6,0.3,0.8,0.276411942163413,"true"
"image-keyboard-response",30,121880,"0.0-3.6-1.6","3zv70ldf85sybox",405,"20.csv","","null","resources/maskTrios/BT4B.jpg","null","",NA,NA,NA,NA,""
"image-keyboard-response",31,123087,"0.0-3.6-2.6","3zv70ldf85sybox",405,"20.csv","","null","resources/images/coin2.png","null","",NA,NA,NA,NA,""
"image-keyboard-response",32,125429,"0.0-3.7-0.7","3zv70ldf85sybox",405,"20.csv","","2339.099999964237","resources/trios/L4T1A2.jpg","39","restless",0.6,0.3,0.8,0.196498349631731,"true"
"image-keyboard-response",33,125834,"0.0-3.7-1.7","3zv70ldf85sybox",405,"20.csv","","null","resources/maskTrios/BBA2.jpg","null","",NA,NA,NA,NA,""
"image-keyboard-response",34,127037,"0.0-3.7-2.7","3zv70ldf85sybox",405,"20.csv","","null","resources/images/coin2.png","null","",NA,NA,NA,NA,""
"image-keyboard-response",35,128355,"0.0-3.8-0.8","3zv70ldf85sybox",405,"20.csv","","1314.5","resources/trios/L1T1A2.jpg","37","restless",0.5,0.3,0.8,0.167876644839374,"true"
"image-keyboard-response",36,128762,"0.0-3.8-1.8","3zv70ldf85sybox",405,"20.csv","","null","resources/maskTrios/L1BB.jpg","null","",NA,NA,NA,NA,""
"image-keyboard-response",37,129965,"0.0-3.8-2.8","3zv70ldf85sybox",405,"20.csv","","null","resources/images/coin2.png","null","",NA,NA,NA,NA,""
"image-keyboard-response",38,131368,"0.0-3.9-0.9","3zv70ldf85sybox",405,"20.csv","","1400","resources/trios/L4T1A1.jpg","37","restless",0.5,0.4,0.8,0.443931905027464,"true"
"image-keyboard-response",39,131771,"0.0-3.9-1.9","3zv70ldf85sybox",405,"20.csv","","null","resources/maskTrios/L4BB.jpg","null","",NA,NA,NA,NA,""
"image-keyboard-response",40,132978,"0.0-3.9-2.9","3zv70ldf85sybox",405,"20.csv","","null","resources/images/coin2.png","null","",NA,NA,NA,NA,""
"image-keyboard-response",41,134460,"0.0-3.10-0.10","3zv70ldf85sybox",405,"20.csv","","1480","resources/trios/L1T4A2.jpg","38","restless",0.4,0.4,0.8,0.497195847729667,"false"
"image-keyboard-response",42,134868,"0.0-3.10-1.10","3zv70ldf85sybox",405,"20.csv","","null","resources/maskTrios/BT4B.jpg","null","",NA,NA,NA,NA,""
"image-keyboard-response",43,136075,"0.0-3.10-2.10","3zv70ldf85sybox",405,"20.csv","","null","resources/images/fishbone.png","null","",NA,NA,NA,NA,""
"image-keyboard-response",44,138222,"0.0-3.11-0.11","3zv70ldf85sybox",405,"20.csv","","2144.800000011921","resources/trios/L4T1A2.jpg","39","restless",0.4,0.4,0.8,0.00823613793857358,"true"
"image-keyboard-response",45,138629,"0.0-3.11-1.11","3zv70ldf85sybox",405,"20.csv","","null","resources/maskTrios/BBA2.jpg","null","",NA,NA,NA,NA,""
"image-keyboard-response",46,139833,"0.0-3.11-2.11","3zv70ldf85sybox",405,"20.csv","","null","resources/images/coin2.png","null","",NA,NA,NA,NA,""
"image-keyboard-response",47,141028,"0.0-3.12-0.12","3zv70ldf85sybox",405,"20.csv","","1192.5","resources/trios/L4T1A1.jpg","37","restless",0.3,0.3,0.7,0.650015504526406,"false"
"image-keyboard-response",48,141434,"0.0-3.12-1.12","3zv70ldf85sybox",405,"20.csv","","null","resources/maskTrios/L4BB.jpg","null","",NA,NA,NA,NA,""
"image-keyboard-response",49,142641,"0.0-3.12-2.12","3zv70ldf85sybox",405,"20.csv","","null","resources/images/fishbone.png","null","",NA,NA,NA,NA,""
"image-keyboard-response",50,144111,"0.0-3.13-0.13","3zv70ldf85sybox",405,"20.csv","","1467","resources/trios/L1T1A2.jpg","38","restless",0.2,0.3,0.7,0.477895450154469,"false"
"image-keyboard-response",51,144518,"0.0-3.13-1.13","3zv70ldf85sybox",405,"20.csv","","null","resources/maskTrios/BT1B.jpg","null","",NA,NA,NA,NA,""
"image-keyboard-response",52,145723,"0.0-3.13-2.13","3zv70ldf85sybox",405,"20.csv","","null","resources/images/fishbone.png","null","",NA,NA,NA,NA,""
"image-keyboard-response",53,146706,"0.0-3.14-0.14","3zv70ldf85sybox",405,"20.csv","","981.4000000357628","resources/trios/L4T4A2.jpg","39","restless",0.2,0.3,0.7,0.266429270052025,"true"
"image-keyboard-response",54,147114,"0.0-3.14-1.14","3zv70ldf85sybox",405,"20.csv","","null","resources/maskTrios/BBA2.jpg","null","",NA,NA,NA,NA,""
"image-keyboard-response",55,148321,"0.0-3.14-2.14","3zv70ldf85sybox",405,"20.csv","","null","resources/images/coin2.png","null","",NA,NA,NA,NA,""
"image-keyboard-response",56,149265,"0.0-3.15-0.15","3zv70ldf85sybox",405,"20.csv","","942.0999999642372","resources/trios/L4T1A1.jpg","39","restless",0.2,0.4,0.7,0.951373731838915,"false"
"image-keyboard-response",57,149670,"0.0-3.15-1.15","3zv70ldf85sybox",405,"20.csv","","null","resources/maskTrios/BBA1.jpg","null","",NA,NA,NA,NA,""
"image-keyboard-response",58,150877,"0.0-3.15-2.15","3zv70ldf85sybox",405,"20.csv","","null","resources/images/fishbone.png","null","",NA,NA,NA,NA,""
"image-keyboard-response",59,152046,"0.0-3.16-0.16","3zv70ldf85sybox",405,"20.csv","","1166.9000000357628","resources/trios/L4T1A2.jpg","38","restless",0.2,0.4,0.7,0.458519496658125,"false"
"image-keyboard-response",60,152452,"0.0-3.16-1.16","3zv70ldf85sybox",405,"20.csv","","null","resources/maskTrios/BT1B.jpg","null","",NA,NA,NA,NA,""
"image-keyboard-response",61,153659,"0.0-3.16-2.16","3zv70ldf85sybox",405,"20.csv","","null","resources/images/fishbone.png","null","",NA,NA,NA,NA,""
"image-keyboard-response",62,154545,"0.0-3.17-0.17","3zv70ldf85sybox",405,"20.csv","","884","resources/trios/L1T1A1.jpg","39","restless",0.2,0.4,0.7,0.283330830639479,"true"
"image-keyboard-response",63,154952,"0.0-3.17-1.17","3zv70ldf85sybox",405,"20.csv","","null","resources/maskTrios/BBA1.jpg","null","",NA,NA,NA,NA,""
"image-keyboard-response",64,156154,"0.0-3.17-2.17","3zv70ldf85sybox",405,"20.csv","","null","resources/images/coin2.png","null","",NA,NA,NA,NA,""
"image-keyboard-response",65,157407,"0.0-3.18-0.18","3zv70ldf85sybox",405,"20.csv","","1250.6000000238419","resources/trios/L4T1A2.jpg","37","restless",0.2,0.4,0.7,0.268543463600401,"false"
"image-keyboard-response",66,157813,"0.0-3.18-1.18","3zv70ldf85sybox",405,"20.csv","","null","resources/maskTrios/L4BB.jpg","null","",NA,NA,NA,NA,""
"image-keyboard-response",67,159017,"0.0-3.18-2.18","3zv70ldf85sybox",405,"20.csv","","null","resources/images/fishbone.png","null","",NA,NA,NA,NA,""
"image-keyboard-response",68,159731,"0.0-3.19-0.19","3zv70ldf85sybox",405,"20.csv","","712.2999999523163","resources/trios/L4T4A2.jpg","38","restless",0.1,0.4,0.8,0.609240091760182,"false"
"image-keyboard-response",69,160139,"0.0-3.19-1.19","3zv70ldf85sybox",405,"20.csv","","null","resources/maskTrios/BT4B.jpg","null","",NA,NA,NA,NA,""
"image-keyboard-response",70,161346,"0.0-3.19-2.19","3zv70ldf85sybox",405,"20.csv","","null","resources/images/fishbone.png","null","",NA,NA,NA,NA,""
"image-keyboard-response",71,161855,"0.0-3.20-0.20","3zv70ldf85sybox",405,"20.csv","","507","resources/trios/L4T1A1.jpg","39","restless",0.1,0.4,0.8,0.656139696229689,"true"
"image-keyboard-response",72,162259,"0.0-3.20-1.20","3zv70ldf85sybox",405,"20.csv","","null","resources/maskTrios/BBA1.jpg","null","",NA,NA,NA,NA,""
"image-keyboard-response",73,163465,"0.0-3.20-2.20","3zv70ldf85sybox",405,"20.csv","","null","resources/images/coin2.png","null","",NA,NA,NA,NA,""
"image-keyboard-response",74,165209,"0.0-3.21-0.21","3zv70ldf85sybox",405,"20.csv","","1741.1000000238419","resources/trios/L4T1A2.jpg","38","restless",0.1,0.4,0.8,0.847110947993478,"false"
"image-keyboard-response",75,165614,"0.0-3.21-1.21","3zv70ldf85sybox",405,"20.csv","","null","resources/maskTrios/BT1B.jpg","null","",NA,NA,NA,NA,""
"image-keyboard-response",76,166817,"0.0-3.21-2.21","3zv70ldf85sybox",405,"20.csv","","null","resources/images/fishbone.png","null","",NA,NA,NA,NA,""
"image-keyboard-response",77,167854,"0.0-3.22-0.22","3zv70ldf85sybox",405,"20.csv","","1035.300000011921","resources/trios/L1T1A1.jpg","39","restless",0.1,0.4,0.8,0.28374194040008,"true"
"image-keyboard-response",78,168262,"0.0-3.22-1.22","3zv70ldf85sybox",405,"20.csv","","null","resources/maskTrios/BBA1.jpg","null","",NA,NA,NA,NA,""
"image-keyboard-response",79,169464,"0.0-3.22-2.22","3zv70ldf85sybox",405,"20.csv","","null","resources/images/coin2.png","null","",NA,NA,NA,NA,""
"image-keyboard-response",80,170209,"0.0-3.23-0.23","3zv70ldf85sybox",405,"20.csv","","739.7999999523163","resources/trios/L4T4A2.jpg","37","restless",0.1,0.4,0.8,0.884214179239879,"false"
"image-keyboard-response",81,170616,"0.0-3.23-1.23","3zv70ldf85sybox",405,"20.csv","","null","resources/maskTrios/L4BB.jpg","null","",NA,NA,NA,NA,""
"image-keyboard-response",82,171823,"0.0-3.23-2.23","3zv70ldf85sybox",405,"20.csv","","null","resources/images/fishbone.png","null","",NA,NA,NA,NA,""
"image-keyboard-response",83,172410,"0.0-3.24-0.24","3zv70ldf85sybox",405,"20.csv","","585.0999999642372","resources/trios/L4T4A1.jpg","38","restless",0.1,0.5,0.8,0.971616825562509,"false"
"image-keyboard-response",84,172813,"0.0-3.24-1.24","3zv70ldf85sybox",405,"20.csv","","null","resources/maskTrios/BT4B.jpg","null","",NA,NA,NA,NA,""
"image-keyboard-response",85,174020,"0.0-3.24-2.24","3zv70ldf85sybox",405,"20.csv","","null","resources/images/fishbone.png","null","",NA,NA,NA,NA,""
"image-keyboard-response",86,175312,"0.0-3.25-0.25","3zv70ldf85sybox",405,"20.csv","","1289.699999988079","resources/trios/L1T4A2.jpg","38","restless",0.1,0.5,0.8,0.270247776254892,"true"
"image-keyboard-response",87,175719,"0.0-3.25-1.25","3zv70ldf85sybox",405,"20.csv","","null","resources/maskTrios/BT4B.jpg","null","",NA,NA,NA,NA,""
"image-keyboard-response",88,176922,"0.0-3.25-2.25","3zv70ldf85sybox",405,"20.csv","","null","resources/images/coin2.png","null","",NA,NA,NA,NA,""
"image-keyboard-response",89,177700,"0.0-3.26-0.26","3zv70ldf85sybox",405,"20.csv","","775.4000000357628","resources/trios/L4T4A1.jpg","37","restless",0.1,0.5,0.8,0.167164898260869,"false"
"image-keyboard-response",90,178105,"0.0-3.26-1.26","3zv70ldf85sybox",405,"20.csv","","null","resources/maskTrios/L4BB.jpg","null","",NA,NA,NA,NA,""
"image-keyboard-response",91,179309,"0.0-3.26-2.26","3zv70ldf85sybox",405,"20.csv","","null","resources/images/fishbone.png","null","",NA,NA,NA,NA,""
"image-keyboard-response",92,180367,"0.0-3.27-0.27","3zv70ldf85sybox",405,"20.csv","","1056.300000011921","resources/trios/L1T4A2.jpg","39","restless",0.1,0.5,0.8,0.585926493352465,"true"
"image-keyboard-response",93,180774,"0.0-3.27-1.27","3zv70ldf85sybox",405,"20.csv","","null","resources/maskTrios/BBA2.jpg","null","",NA,NA,NA,NA,""
"image-keyboard-response",94,181978,"0.0-3.27-2.27","3zv70ldf85sybox",405,"20.csv","","null","resources/images/coin2.png","null","",NA,NA,NA,NA,""
"image-keyboard-response",95,183461,"0.0-3.28-0.28","3zv70ldf85sybox",405,"20.csv","","1480.5","resources/trios/L4T1A1.jpg","38","restless",0.1,0.5,0.8,0.540904279336125,"false"
"image-keyboard-response",96,183868,"0.0-3.28-1.28","3zv70ldf85sybox",405,"20.csv","","null","resources/maskTrios/BT1B.jpg","null","",NA,NA,NA,NA,""
"image-keyboard-response",97,185074,"0.0-3.28-2.28","3zv70ldf85sybox",405,"20.csv","","null","resources/images/fishbone.png","null","",NA,NA,NA,NA,""
"image-keyboard-response",98,187875,"0.0-3.29-0.29","3zv70ldf85sybox",405,"20.csv","","2798.600000023842","resources/trios/L1T4A2.jpg","38","restless",0.1,0.5,0.8,0.395628438188371,"true"
"image-keyboard-response",99,188282,"0.0-3.29-1.29","3zv70ldf85sybox",405,"20.csv","","null","resources/maskTrios/BT4B.jpg","null","",NA,NA,NA,NA,""
"image-keyboard-response",100,189489,"0.0-3.29-2.29","3zv70ldf85sybox",405,"20.csv","","null","resources/images/coin2.png","null","",NA,NA,NA,NA,""
"image-keyboard-response",101,190599,"0.0-3.30-0.30","3zv70ldf85sybox",405,"20.csv","","1107.4000000357628","resources/trios/L4T4A1.jpg","37","restless",0.1,0.5,0.7,0.444502552801482,"false"
"image-keyboard-response",102,191004,"0.0-3.30-1.30","3zv70ldf85sybox",405,"20.csv","","null","resources/maskTrios/L4BB.jpg","null","",NA,NA,NA,NA,""
"image-keyboard-response",103,192209,"0.0-3.30-2.30","3zv70ldf85sybox",405,"20.csv","","null","resources/images/fishbone.png","null","",NA,NA,NA,NA,""
"image-keyboard-response",104,193225,"0.0-3.31-0.31","3zv70ldf85sybox",405,"20.csv","","1013.8999999761581","resources/trios/L1T4A2.jpg","37","restless",0.1,0.5,0.7,0.740535587299815,"false"
"image-keyboard-response",105,193629,"0.0-3.31-1.31","3zv70ldf85sybox",405,"20.csv","","null","resources/maskTrios/L1BB.jpg","null","",NA,NA,NA,NA,""
"image-keyboard-response",106,194834,"0.0-3.31-2.31","3zv70ldf85sybox",405,"20.csv","","null","resources/images/fishbone.png","null","",NA,NA,NA,NA,""
"image-keyboard-response",107,195432,"0.0-3.32-0.32","3zv70ldf85sybox",405,"20.csv","","596.1999999880791","resources/trios/L4T1A1.jpg","39","restless",0.1,0.5,0.7,0.642414440726452,"true"
"image-keyboard-response",108,195840,"0.0-3.32-1.32","3zv70ldf85sybox",405,"20.csv","","null","resources/maskTrios/BBA1.jpg","null","",NA,NA,NA,NA,""
"image-keyboard-response",109,197047,"0.0-3.32-2.32","3zv70ldf85sybox",405,"20.csv","","null","resources/images/coin2.png","null","",NA,NA,NA,NA,""
"image-keyboard-response",110,198912,"0.0-3.33-0.33","3zv70ldf85sybox",405,"20.csv","","1863","resources/trios/L4T4A1.jpg","38","restless",0.2,0.5,0.7,0.639042455587624,"false"
"image-keyboard-response",111,199320,"0.0-3.33-1.33","3zv70ldf85sybox",405,"20.csv","","null","resources/maskTrios/BT4B.jpg","null","",NA,NA,NA,NA,""
"image-keyboard-response",112,200523,"0.0-3.33-2.33","3zv70ldf85sybox",405,"20.csv","","null","resources/images/fishbone.png","null","",NA,NA,NA,NA,""
"image-keyboard-response",113,215384,"0.0-3.34-0.34","3zv70ldf85sybox",405,"20.csv","","14859.299999952316","resources/trios/L1T1A1.jpg","37","restless",0.2,0.5,0.7,0.326275530306663,"false"
"image-keyboard-response",114,215788,"0.0-3.34-1.34","3zv70ldf85sybox",405,"20.csv","","null","resources/maskTrios/L1BB.jpg","null","",NA,NA,NA,NA,""
"image-keyboard-response",115,216994,"0.0-3.34-2.34","3zv70ldf85sybox",405,"20.csv","","null","resources/images/fishbone.png","null","",NA,NA,NA,NA,""
"image-keyboard-response",116,218271,"0.0-3.35-0.35","3zv70ldf85sybox",405,"20.csv","","1273.9000000357628","resources/trios/L1T4A1.jpg","39","restless",0.2,0.5,0.7,0.283810163206478,"true"
"image-keyboard-response",117,218674,"0.0-3.35-1.35","3zv70ldf85sybox",405,"20.csv","","null","resources/maskTrios/BBA1.jpg","null","",NA,NA,NA,NA,""
"image-keyboard-response",118,219879,"0.0-3.35-2.35","3zv70ldf85sybox",405,"20.csv","","null","resources/images/coin2.png","null","",NA,NA,NA,NA,""
"image-keyboard-response",119,220985,"0.0-3.36-0.36","3zv70ldf85sybox",405,"20.csv","","1103.6000000238419","resources/trios/L1T1A2.jpg","38","restless",0.2,0.5,0.7,0.296274337232021,"true"
"image-keyboard-response",120,221392,"0.0-3.36-1.36","3zv70ldf85sybox",405,"20.csv","","null","resources/maskTrios/BT1B.jpg","null","",NA,NA,NA,NA,""
"image-keyboard-response",121,222597,"0.0-3.36-2.36","3zv70ldf85sybox",405,"20.csv","","null","resources/images/coin2.png","null","",NA,NA,NA,NA,""
"image-keyboard-response",122,223575,"0.0-3.37-0.37","3zv70ldf85sybox",405,"20.csv","","975.5","resources/trios/L1T1A2.jpg","37","restless",0.2,0.5,0.7,0.0380243170930277,"true"
"image-keyboard-response",123,223978,"0.0-3.37-1.37","3zv70ldf85sybox",405,"20.csv","","null","resources/maskTrios/L1BB.jpg","null","",NA,NA,NA,NA,""
"image-keyboard-response",124,225181,"0.0-3.37-2.37","3zv70ldf85sybox",405,"20.csv","","null","resources/images/coin2.png","null","",NA,NA,NA,NA,""
"image-keyboard-response",125,226872,"0.0-3.38-0.38","3zv70ldf85sybox",405,"20.csv","","1688.300000011921","resources/trios/L1T1A1.jpg","38","restless",0.3,0.5,0.7,0.741030307805271,"false"
"image-keyboard-response",126,227279,"0.0-3.38-1.38","3zv70ldf85sybox",405,"20.csv","","null","resources/maskTrios/BT1B.jpg","null","",NA,NA,NA,NA,""
"image-keyboard-response",127,228486,"0.0-3.38-2.38","3zv70ldf85sybox",405,"20.csv","","null","resources/images/fishbone.png","null","",NA,NA,NA,NA,""
"image-keyboard-response",128,230017,"0.0-3.39-0.39","3zv70ldf85sybox",405,"20.csv","","1528.300000011921","resources/trios/L4T4A2.jpg","38","restless",0.4,0.5,0.7,0.638981283585062,"false"
"image-keyboard-response",129,230424,"0.0-3.39-1.39","3zv70ldf85sybox",405,"20.csv","","null","resources/maskTrios/BT4B.jpg","null","",NA,NA,NA,NA,""
"image-keyboard-response",130,231631,"0.0-3.39-2.39","3zv70ldf85sybox",405,"20.csv","","null","resources/images/fishbone.png","null","",NA,NA,NA,NA,""
"image-keyboard-response",131,233364,"0.0-3.40-0.40","3zv70ldf85sybox",405,"20.csv","","1730.7999999523163","resources/trios/L1T1A1.jpg","38","restless",0.4,0.5,0.7,0.217023238573386,"true"
"image-keyboard-response",132,233772,"0.0-3.40-1.40","3zv70ldf85sybox",405,"20.csv","","null","resources/maskTrios/BT1B.jpg","null","",NA,NA,NA,NA,""
"image-keyboard-response",133,234978,"0.0-3.40-2.40","3zv70ldf85sybox",405,"20.csv","","null","resources/images/coin2.png","null","",NA,NA,NA,NA,""
"image-keyboard-response",134,238933,"0.0-3.41-0.41","3zv70ldf85sybox",405,"20.csv","","3952.7999999523163","resources/trios/L4T1A2.jpg","37","restless",0.4,0.5,0.7,0.173568110028032,"true"
"image-keyboard-response",135,239340,"0.0-3.41-1.41","3zv70ldf85sybox",405,"20.csv","","null","resources/maskTrios/L4BB.jpg","null","",NA,NA,NA,NA,""
"image-keyboard-response",136,240548,"0.0-3.41-2.41","3zv70ldf85sybox",405,"20.csv","","null","resources/images/coin2.png","null","",NA,NA,NA,NA,""
"image-keyboard-response",137,241192,"0.0-3.42-0.42","3zv70ldf85sybox",405,"20.csv","","642","resources/trios/L1T1A1.jpg","39","restless",0.4,0.5,0.7,0.49924673773063,"true"
"image-keyboard-response",138,241597,"0.0-3.42-1.42","3zv70ldf85sybox",405,"20.csv","","null","resources/maskTrios/BBA1.jpg","null","",NA,NA,NA,NA,""
"image-keyboard-response",139,242803,"0.0-3.42-2.42","3zv70ldf85sybox",405,"20.csv","","null","resources/images/coin2.png","null","",NA,NA,NA,NA,""
"image-keyboard-response",140,245705,"0.0-3.43-0.43","3zv70ldf85sybox",405,"20.csv","","2899.800000011921","resources/trios/L4T4A1.jpg","38","restless",0.4,0.5,0.8,0.561770359034863,"false"
"image-keyboard-response",141,246113,"0.0-3.43-1.43","3zv70ldf85sybox",405,"20.csv","","null","resources/maskTrios/BT4B.jpg","null","",NA,NA,NA,NA,""
"image-keyboard-response",142,247320,"0.0-3.43-2.43","3zv70ldf85sybox",405,"20.csv","","null","resources/images/fishbone.png","null","",NA,NA,NA,NA,""
"image-keyboard-response",143,249010,"0.0-3.44-0.44","3zv70ldf85sybox",405,"20.csv","","1687.5","resources/trios/L1T4A1.jpg","37","restless",0.4,0.5,0.8,0.729348779697636,"false"
"image-keyboard-response",144,249414,"0.0-3.44-1.44","3zv70ldf85sybox",405,"20.csv","","null","resources/maskTrios/L1BB.jpg","null","",NA,NA,NA,NA,""
"image-keyboard-response",145,250621,"0.0-3.44-2.44","3zv70ldf85sybox",405,"20.csv","","null","resources/images/fishbone.png","null","",NA,NA,NA,NA,""
"image-keyboard-response",146,251813,"0.0-3.45-0.45","3zv70ldf85sybox",405,"20.csv","","1190","resources/trios/L1T4A1.jpg","39","restless",0.5,0.6,0.8,0.259906152273229,"true"
"image-keyboard-response",147,252222,"0.0-3.45-1.45","3zv70ldf85sybox",405,"20.csv","","null","resources/maskTrios/BBA1.jpg","null","",NA,NA,NA,NA,""
"image-keyboard-response",148,253424,"0.0-3.45-2.45","3zv70ldf85sybox",405,"20.csv","","null","resources/images/coin2.png","null","",NA,NA,NA,NA,""
"image-keyboard-response",149,257336,"0.0-3.46-0.46","3zv70ldf85sybox",405,"20.csv","","3910.099999964237","resources/trios/L4T4A1.jpg","37","restless",0.5,0.6,0.8,0.442182247937529,"true"
"image-keyboard-response",150,257743,"0.0-3.46-1.46","3zv70ldf85sybox",405,"20.csv","","null","resources/maskTrios/L4BB.jpg","null","",NA,NA,NA,NA,""
"image-keyboard-response",151,258950,"0.0-3.46-2.46","3zv70ldf85sybox",405,"20.csv","","null","resources/images/coin2.png","null","",NA,NA,NA,NA,""
"image-keyboard-response",152,259612,"0.0-3.47-0.47","3zv70ldf85sybox",405,"20.csv","","659.5999999642372","resources/trios/L1T4A2.jpg","38","restless",0.5,0.6,0.8,0.816080778553314,"false"
"image-keyboard-response",153,260019,"0.0-3.47-1.47","3zv70ldf85sybox",405,"20.csv","","null","resources/maskTrios/BT4B.jpg","null","",NA,NA,NA,NA,""
"image-keyboard-response",154,261222,"0.0-3.47-2.47","3zv70ldf85sybox",405,"20.csv","","null","resources/images/fishbone.png","null","",NA,NA,NA,NA,""
"image-keyboard-response",155,262987,"0.0-3.48-0.48","3zv70ldf85sybox",405,"20.csv","","1763","resources/trios/L4T1A1.jpg","38","restless",0.6,0.6,0.8,0.976755122009676,"false"
"image-keyboard-response",156,263395,"0.0-3.48-1.48","3zv70ldf85sybox",405,"20.csv","","null","resources/maskTrios/BT1B.jpg","null","",NA,NA,NA,NA,""
"image-keyboard-response",157,264600,"0.0-3.48-2.48","3zv70ldf85sybox",405,"20.csv","","null","resources/images/fishbone.png","null","",NA,NA,NA,NA,""
"image-keyboard-response",158,268154,"0.0-3.49-0.49","3zv70ldf85sybox",405,"20.csv","","3551.900000035763","resources/trios/L4T4A1.jpg","37","restless",0.5,0.6,0.8,0.18728571748065,"true"
"image-keyboard-response",159,268561,"0.0-3.49-1.49","3zv70ldf85sybox",405,"20.csv","","null","resources/maskTrios/L4BB.jpg","null","",NA,NA,NA,NA,""
"image-keyboard-response",160,269769,"0.0-3.49-2.49","3zv70ldf85sybox",405,"20.csv","","null","resources/images/coin2.png","null","",NA,NA,NA,NA,""
"image-keyboard-response",161,271494,"0.0-3.50-0.50","3zv70ldf85sybox",405,"20.csv","","1723.3999999761581","resources/trios/L1T1A2.jpg","39","restless",0.5,0.6,0.8,0.543933628781897,"true"
"image-keyboard-response",162,271897,"0.0-3.50-1.50","3zv70ldf85sybox",405,"20.csv","","null","resources/maskTrios/BBA2.jpg","null","",NA,NA,NA,NA,""
"image-keyboard-response",163,273104,"0.0-3.50-2.50","3zv70ldf85sybox",405,"20.csv","","null","resources/images/coin2.png","null","",NA,NA,NA,NA,""
"image-keyboard-response",164,275857,"0.0-3.51-0.51","3zv70ldf85sybox",405,"20.csv","","2750.899999976158","resources/trios/L4T1A2.jpg","37","restless",0.5,0.6,0.8,0.207685529073098,"true"
"image-keyboard-response",165,276263,"0.0-3.51-1.51","3zv70ldf85sybox",405,"20.csv","","null","resources/maskTrios/L4BB.jpg","null","",NA,NA,NA,NA,""
"image-keyboard-response",166,277465,"0.0-3.51-2.51","3zv70ldf85sybox",405,"20.csv","","null","resources/images/coin2.png","null","",NA,NA,NA,NA,""
"image-keyboard-response",167,279720,"0.0-3.52-0.52","3zv70ldf85sybox",405,"20.csv","","2252.5","resources/trios/L4T1A2.jpg","37","restless",0.5,0.6,0.8,0.576409603780403,"false"
"image-keyboard-response",168,280128,"0.0-3.52-1.52","3zv70ldf85sybox",405,"20.csv","","null","resources/maskTrios/L4BB.jpg","null","",NA,NA,NA,NA,""
"image-keyboard-response",169,281334,"0.0-3.52-2.52","3zv70ldf85sybox",405,"20.csv","","null","resources/images/fishbone.png","null","",NA,NA,NA,NA,""
"image-keyboard-response",170,282119,"0.0-3.53-0.53","3zv70ldf85sybox",405,"20.csv","","783.3000000119209","resources/trios/L4T1A1.jpg","39","restless",0.5,0.7,0.8,0.303085116340612,"true"
"image-keyboard-response",171,282526,"0.0-3.53-1.53","3zv70ldf85sybox",405,"20.csv","","null","resources/maskTrios/BBA1.jpg","null","",NA,NA,NA,NA,""
"image-keyboard-response",172,283733,"0.0-3.53-2.53","3zv70ldf85sybox",405,"20.csv","","null","resources/images/coin2.png","null","",NA,NA,NA,NA,""
"image-keyboard-response",173,286284,"0.0-3.54-0.54","3zv70ldf85sybox",405,"20.csv","","2549.100000023842","resources/trios/L1T1A1.jpg","37","restless",0.5,0.7,0.8,0.26459627541193,"true"
"image-keyboard-response",174,286692,"0.0-3.54-1.54","3zv70ldf85sybox",405,"20.csv","","null","resources/maskTrios/L1BB.jpg","null","",NA,NA,NA,NA,""
"image-keyboard-response",175,287897,"0.0-3.54-2.54","3zv70ldf85sybox",405,"20.csv","","null","resources/images/coin2.png","null","",NA,NA,NA,NA,""
"image-keyboard-response",176,291558,"0.0-3.55-0.55","3zv70ldf85sybox",405,"20.csv","","3659.300000011921","resources/trios/L1T4A1.jpg","38","restless",0.5,0.7,0.8,0.127811462160086,"true"
"image-keyboard-response",177,291965,"0.0-3.55-1.55","3zv70ldf85sybox",405,"20.csv","","null","resources/maskTrios/BT4B.jpg","null","",NA,NA,NA,NA,""
"image-keyboard-response",178,293170,"0.0-3.55-2.55","3zv70ldf85sybox",405,"20.csv","","null","resources/images/coin2.png","null","",NA,NA,NA,NA,""
"image-keyboard-response",179,295540,"0.0-3.56-0.56","3zv70ldf85sybox",405,"20.csv","","2367.800000011921","resources/trios/L1T1A2.jpg","37","restless",0.5,0.7,0.8,0.982685044390245,"false"
"image-keyboard-response",180,295946,"0.0-3.56-1.56","3zv70ldf85sybox",405,"20.csv","","null","resources/maskTrios/L1BB.jpg","null","",NA,NA,NA,NA,""
"image-keyboard-response",181,297150,"0.0-3.56-2.56","3zv70ldf85sybox",405,"20.csv","","null","resources/images/fishbone.png","null","",NA,NA,NA,NA,""
"image-keyboard-response",182,301170,"0.0-3.57-0.57","3zv70ldf85sybox",405,"20.csv","","4018.400000035763","resources/trios/L1T4A1.jpg","39","restless",0.5,0.7,0.8,0.313573424152717,"true"
"image-keyboard-response",183,301577,"0.0-3.57-1.57","3zv70ldf85sybox",405,"20.csv","","null","resources/maskTrios/BBA1.jpg","null","",NA,NA,NA,NA,""
"image-keyboard-response",184,302783,"0.0-3.57-2.57","3zv70ldf85sybox",405,"20.csv","","null","resources/images/coin2.png","null","",NA,NA,NA,NA,""
"image-keyboard-response",185,304367,"0.0-3.58-0.58","3zv70ldf85sybox",405,"20.csv","","1581.1000000238419","resources/trios/L4T4A1.jpg","38","restless",0.5,0.7,0.8,0.173258875711896,"true"
"image-keyboard-response",186,304774,"0.0-3.58-1.58","3zv70ldf85sybox",405,"20.csv","","null","resources/maskTrios/BT4B.jpg","null","",NA,NA,NA,NA,""
"image-keyboard-response",187,305978,"0.0-3.58-2.58","3zv70ldf85sybox",405,"20.csv","","null","resources/images/coin2.png","null","",NA,NA,NA,NA,""
"image-keyboard-response",188,308115,"0.0-3.59-0.59","3zv70ldf85sybox",405,"20.csv","","2134.900000035763","resources/trios/L4T4A1.jpg","39","restless",0.5,0.7,0.8,0.605093488632439,"true"
"image-keyboard-response",189,308523,"0.0-3.59-1.59","3zv70ldf85sybox",405,"20.csv","","null","resources/maskTrios/BBA1.jpg","null","",NA,NA,NA,NA,""
"image-keyboard-response",190,309727,"0.0-3.59-2.59","3zv70ldf85sybox",405,"20.csv","","null","resources/images/coin2.png","null","",NA,NA,NA,NA,""
"image-keyboard-response",191,313204,"0.0-3.60-0.60","3zv70ldf85sybox",405,"20.csv","","3475","resources/trios/L4T4A1.jpg","39","restless",0.5,0.7,0.8,0.990414833787144,"false"
"image-keyboard-response",192,313612,"0.0-3.60-1.60","3zv70ldf85sybox",405,"20.csv","","null","resources/maskTrios/BBA1.jpg","null","",NA,NA,NA,NA,""
"image-keyboard-response",193,314818,"0.0-3.60-2.60","3zv70ldf85sybox",405,"20.csv","","null","resources/images/fishbone.png","null","",NA,NA,NA,NA,""
"image-keyboard-response",194,316626,"0.0-3.61-0.61","3zv70ldf85sybox",405,"20.csv","","1805.3999999761581","resources/trios/L4T1A1.jpg","39","restless",0.5,0.7,0.8,0.266936217921666,"true"
"image-keyboard-response",195,317034,"0.0-3.61-1.61","3zv70ldf85sybox",405,"20.csv","","null","resources/maskTrios/BBA1.jpg","null","",NA,NA,NA,NA,""
"image-keyboard-response",196,318237,"0.0-3.61-2.61","3zv70ldf85sybox",405,"20.csv","","null","resources/images/coin2.png","null","",NA,NA,NA,NA,""
"image-keyboard-response",197,324376,"0.0-3.62-0.62","3zv70ldf85sybox",405,"20.csv","","6136.699999988079","resources/trios/L1T1A2.jpg","37","restless",0.5,0.7,0.8,0.192603970803598,"true"
"image-keyboard-response",198,324779,"0.0-3.62-1.62","3zv70ldf85sybox",405,"20.csv","","null","resources/maskTrios/L1BB.jpg","null","",NA,NA,NA,NA,""
"image-keyboard-response",199,325987,"0.0-3.62-2.62","3zv70ldf85sybox",405,"20.csv","","null","resources/images/coin2.png","null","",NA,NA,NA,NA,""
"image-keyboard-response",200,328104,"0.0-3.63-0.63","3zv70ldf85sybox",405,"20.csv","","2114.599999964237","resources/trios/L1T1A1.jpg","37","restless",0.5,0.7,0.8,0.0962123044039036,"true"
"image-keyboard-response",201,328511,"0.0-3.63-1.63","3zv70ldf85sybox",405,"20.csv","","null","resources/maskTrios/L1BB.jpg","null","",NA,NA,NA,NA,""
"image-keyboard-response",202,329715,"0.0-3.63-2.63","3zv70ldf85sybox",405,"20.csv","","null","resources/images/coin2.png","null","",NA,NA,NA,NA,""
"image-keyboard-response",203,331391,"0.0-3.64-0.64","3zv70ldf85sybox",405,"20.csv","","1674.300000011921","resources/trios/L1T1A2.jpg","37","restless",0.5,0.7,0.8,0.442631265398676,"true"
"image-keyboard-response",204,331797,"0.0-3.64-1.64","3zv70ldf85sybox",405,"20.csv","","null","resources/maskTrios/L1BB.jpg","null","",NA,NA,NA,NA,""
"image-keyboard-response",205,333003,"0.0-3.64-2.64","3zv70ldf85sybox",405,"20.csv","","null","resources/images/coin2.png","null","",NA,NA,NA,NA,""
"image-keyboard-response",206,336092,"0.0-3.65-0.65","3zv70ldf85sybox",405,"20.csv","","3085.899999976158","resources/trios/L4T4A2.jpg","38","restless",0.5,0.7,0.8,0.48269839164144,"true"
"image-keyboard-response",207,336496,"0.0-3.65-1.65","3zv70ldf85sybox",405,"20.csv","","null","resources/maskTrios/BT4B.jpg","null","",NA,NA,NA,NA,""
"image-keyboard-response",208,337704,"0.0-3.65-2.65","3zv70ldf85sybox",405,"20.csv","","null","resources/images/coin2.png","null","",NA,NA,NA,NA,""
"image-keyboard-response",209,339056,"0.0-3.66-0.66","3zv70ldf85sybox",405,"20.csv","","1350.2000000476837","resources/trios/L1T4A1.jpg","39","restless",0.5,0.7,0.8,0.101608675198485,"true"
"image-keyboard-response",210,339460,"0.0-3.66-1.66","3zv70ldf85sybox",405,"20.csv","","null","resources/maskTrios/BBA1.jpg","null","",NA,NA,NA,NA,""
"image-keyboard-response",211,340667,"0.0-3.66-2.66","3zv70ldf85sybox",405,"20.csv","","null","resources/images/coin2.png","null","",NA,NA,NA,NA,""
"image-keyboard-response",212,342293,"0.0-3.67-0.67","3zv70ldf85sybox",405,"20.csv","","1623.800000011921","resources/trios/L1T1A1.jpg","37","restless",0.5,0.7,0.8,0.812432370881122,"false"
"image-keyboard-response",213,342697,"0.0-3.67-1.67","3zv70ldf85sybox",405,"20.csv","","null","resources/maskTrios/L1BB.jpg","null","",NA,NA,NA,NA,""
"image-keyboard-response",214,343904,"0.0-3.67-2.67","3zv70ldf85sybox",405,"20.csv","","null","resources/images/fishbone.png","null","",NA,NA,NA,NA,""
"image-keyboard-response",215,345816,"0.0-3.68-0.68","3zv70ldf85sybox",405,"20.csv","","1910.4000000357628","resources/trios/L1T1A2.jpg","39","restless",0.5,0.7,0.8,0.369502753675654,"true"
"image-keyboard-response",216,346222,"0.0-3.68-1.68","3zv70ldf85sybox",405,"20.csv","","null","resources/maskTrios/BBA2.jpg","null","",NA,NA,NA,NA,""
"image-keyboard-response",217,347424,"0.0-3.68-2.68","3zv70ldf85sybox",405,"20.csv","","null","resources/images/coin2.png","null","",NA,NA,NA,NA,""
"image-keyboard-response",218,350001,"0.0-3.69-0.69","3zv70ldf85sybox",405,"20.csv","","2574.800000011921","resources/trios/L4T1A2.jpg","39","restless",0.5,0.6,0.8,0.750304732553108,"true"
"image-keyboard-response",219,350408,"0.0-3.69-1.69","3zv70ldf85sybox",405,"20.csv","","null","resources/maskTrios/BBA2.jpg","null","",NA,NA,NA,NA,""
"image-keyboard-response",220,351616,"0.0-3.69-2.69","3zv70ldf85sybox",405,"20.csv","","null","resources/images/coin2.png","null","",NA,NA,NA,NA,""
"image-keyboard-response",221,354031,"0.0-3.70-0.70","3zv70ldf85sybox",405,"20.csv","","2413.399999976158","resources/trios/L1T4A2.jpg","39","restless",0.5,0.6,0.7,0.0460827141429352,"true"
"image-keyboard-response",222,354439,"0.0-3.70-1.70","3zv70ldf85sybox",405,"20.csv","","null","resources/maskTrios/BBA2.jpg","null","",NA,NA,NA,NA,""
"image-keyboard-response",223,355646,"0.0-3.70-2.70","3zv70ldf85sybox",405,"20.csv","","null","resources/images/coin2.png","null","",NA,NA,NA,NA,""
"image-keyboard-response",224,358945,"0.0-3.71-0.71","3zv70ldf85sybox",405,"20.csv","","3296.7999999523163","resources/trios/L4T4A1.jpg","38","restless",0.5,0.5,0.7,0.936673326374435,"false"
"image-keyboard-response",225,359352,"0.0-3.71-1.71","3zv70ldf85sybox",405,"20.csv","","null","resources/maskTrios/BT4B.jpg","null","",NA,NA,NA,NA,""
"image-keyboard-response",226,360557,"0.0-3.71-2.71","3zv70ldf85sybox",405,"20.csv","","null","resources/images/fishbone.png","null","",NA,NA,NA,NA,""
"image-keyboard-response",227,361934,"0.0-3.72-0.72","3zv70ldf85sybox",405,"20.csv","","1375.800000011921","resources/trios/L4T1A1.jpg","39","restless",0.5,0.5,0.7,0.438094671599606,"true"
"image-keyboard-response",228,362341,"0.0-3.72-1.72","3zv70ldf85sybox",405,"20.csv","","null","resources/maskTrios/BBA1.jpg","null","",NA,NA,NA,NA,""
"image-keyboard-response",229,363545,"0.0-3.72-2.72","3zv70ldf85sybox",405,"20.csv","","null","resources/images/coin2.png","null","",NA,NA,NA,NA,""
"image-keyboard-response",230,364783,"0.0-3.73-0.73","3zv70ldf85sybox",405,"20.csv","","1235.699999988079","resources/trios/L4T4A2.jpg","39","restless",0.5,0.5,0.7,0.946649673221764,"false"
"image-keyboard-response",231,365186,"0.0-3.73-1.73","3zv70ldf85sybox",405,"20.csv","","null","resources/maskTrios/BBA2.jpg","null","",NA,NA,NA,NA,""
"image-keyboard-response",232,366393,"0.0-3.73-2.73","3zv70ldf85sybox",405,"20.csv","","null","resources/images/fishbone.png","null","",NA,NA,NA,NA,""
"image-keyboard-response",233,368507,"0.0-3.74-0.74","3zv70ldf85sybox",405,"20.csv","","2111.399999976158","resources/trios/L1T4A2.jpg","38","restless",0.5,0.5,0.7,0.926599275975924,"false"
"image-keyboard-response",234,368915,"0.0-3.74-1.74","3zv70ldf85sybox",405,"20.csv","","null","resources/maskTrios/BT4B.jpg","null","",NA,NA,NA,NA,""
"image-keyboard-response",235,370122,"0.0-3.74-2.74","3zv70ldf85sybox",405,"20.csv","","null","resources/images/fishbone.png","null","",NA,NA,NA,NA,""
"image-keyboard-response",236,371800,"0.0-3.75-0.75","3zv70ldf85sybox",405,"20.csv","","1676.0999999642372","resources/trios/L4T1A2.jpg","39","restless",0.5,0.5,0.7,0.808686131945765,"false"
"image-keyboard-response",237,372204,"0.0-3.75-1.75","3zv70ldf85sybox",405,"20.csv","","null","resources/maskTrios/BBA2.jpg","null","",NA,NA,NA,NA,""
"image-keyboard-response",238,373407,"0.0-3.75-2.75","3zv70ldf85sybox",405,"20.csv","","null","resources/images/fishbone.png","null","",NA,NA,NA,NA,""
"image-keyboard-response",239,375793,"0.0-3.76-0.76","3zv70ldf85sybox",405,"20.csv","","2383.400000035763","resources/trios/L4T1A2.jpg","39","restless",0.5,0.5,0.7,0.85324655413663,"false"
"image-keyboard-response",240,376197,"0.0-3.76-1.76","3zv70ldf85sybox",405,"20.csv","","null","resources/maskTrios/BBA2.jpg","null","",NA,NA,NA,NA,""
"image-keyboard-response",241,377399,"0.0-3.76-2.76","3zv70ldf85sybox",405,"20.csv","","null","resources/images/fishbone.png","null","",NA,NA,NA,NA,""
"image-keyboard-response",242,379428,"0.0-3.77-0.77","3zv70ldf85sybox",405,"20.csv","","2026.800000011921","resources/trios/L1T4A2.jpg","37","restless",0.5,0.5,0.7,0.996871247983807,"false"
"image-keyboard-response",243,379833,"0.0-3.77-1.77","3zv70ldf85sybox",405,"20.csv","","null","resources/maskTrios/L1BB.jpg","null","",NA,NA,NA,NA,""
"image-keyboard-response",244,381040,"0.0-3.77-2.77","3zv70ldf85sybox",405,"20.csv","","null","resources/images/fishbone.png","null","",NA,NA,NA,NA,""
"image-keyboard-response",245,383259,"0.0-3.78-0.78","3zv70ldf85sybox",405,"20.csv","","2216.699999988079","resources/trios/L1T4A1.jpg","39","restless",0.5,0.5,0.7,0.519802133383017,"true"
"image-keyboard-response",246,383665,"0.0-3.78-1.78","3zv70ldf85sybox",405,"20.csv","","null","resources/maskTrios/BBA1.jpg","null","",NA,NA,NA,NA,""
"image-keyboard-response",247,384872,"0.0-3.78-2.78","3zv70ldf85sybox",405,"20.csv","","null","resources/images/coin2.png","null","",NA,NA,NA,NA,""
"image-keyboard-response",248,386864,"0.0-3.79-0.79","3zv70ldf85sybox",405,"20.csv","","1989.800000011921","resources/trios/L1T1A2.jpg","37","restless",0.6,0.5,0.7,0.053330158856185,"true"
"image-keyboard-response",249,387268,"0.0-3.79-1.79","3zv70ldf85sybox",405,"20.csv","","null","resources/maskTrios/L1BB.jpg","null","",NA,NA,NA,NA,""
"image-keyboard-response",250,388476,"0.0-3.79-2.79","3zv70ldf85sybox",405,"20.csv","","null","resources/images/coin2.png","null","",NA,NA,NA,NA,""
"image-keyboard-response",251,390727,"0.0-3.80-0.80","3zv70ldf85sybox",405,"20.csv","","2249.399999976158","resources/trios/L4T1A2.jpg","39","restless",0.6,0.5,0.7,0.0186866237177847,"true"
"image-keyboard-response",252,391135,"0.0-3.80-1.80","3zv70ldf85sybox",405,"20.csv","","null","resources/maskTrios/BBA2.jpg","null","",NA,NA,NA,NA,""
"image-keyboard-response",253,392341,"0.0-3.80-2.80","3zv70ldf85sybox",405,"20.csv","","null","resources/images/coin2.png","null","",NA,NA,NA,NA,""
"image-keyboard-response",254,394214,"0.0-3.81-0.81","3zv70ldf85sybox",405,"20.csv","","1870.0999999642372","resources/trios/L1T1A2.jpg","37","restless",0.6,0.5,0.7,0.36567866832229,"true"
"image-keyboard-response",255,394621,"0.0-3.81-1.81","3zv70ldf85sybox",405,"20.csv","","null","resources/maskTrios/L1BB.jpg","null","",NA,NA,NA,NA,""
"image-keyboard-response",256,395829,"0.0-3.81-2.81","3zv70ldf85sybox",405,"20.csv","","null","resources/images/coin2.png","null","",NA,NA,NA,NA,""
"image-keyboard-response",257,397878,"0.0-3.82-0.82","3zv70ldf85sybox",405,"20.csv","","2047.1000000238419","resources/trios/L4T1A2.jpg","39","restless",0.6,0.5,0.7,0.547741303947399,"true"
"image-keyboard-response",258,398282,"0.0-3.82-1.82","3zv70ldf85sybox",405,"20.csv","","null","resources/maskTrios/BBA2.jpg","null","",NA,NA,NA,NA,""
"image-keyboard-response",259,399489,"0.0-3.82-2.82","3zv70ldf85sybox",405,"20.csv","","null","resources/images/coin2.png","null","",NA,NA,NA,NA,""
"image-keyboard-response",260,402733,"0.0-3.83-0.83","3zv70ldf85sybox",405,"20.csv","","3241.699999988079","resources/trios/L1T4A1.jpg","37","restless",0.7,0.6,0.7,0.892802161217398,"false"
"image-keyboard-response",261,403141,"0.0-3.83-1.83","3zv70ldf85sybox",405,"20.csv","","null","resources/maskTrios/L1BB.jpg","null","",NA,NA,NA,NA,""
"image-keyboard-response",262,404345,"0.0-3.83-2.83","3zv70ldf85sybox",405,"20.csv","","null","resources/images/fishbone.png","null","",NA,NA,NA,NA,""
"image-keyboard-response",263,407530,"0.0-3.84-0.84","3zv70ldf85sybox",405,"20.csv","","3182.600000023842","resources/trios/L1T1A1.jpg","39","restless",0.7,0.6,0.7,0.431075635322807,"true"
"image-keyboard-response",264,407938,"0.0-3.84-1.84","3zv70ldf85sybox",405,"20.csv","","null","resources/maskTrios/BBA1.jpg","null","",NA,NA,NA,NA,""
"image-keyboard-response",265,409145,"0.0-3.84-2.84","3zv70ldf85sybox",405,"20.csv","","null","resources/images/coin2.png","null","",NA,NA,NA,NA,""
"image-keyboard-response",266,412246,"0.0-3.85-0.85","3zv70ldf85sybox",405,"20.csv","","3098.5","resources/trios/L4T4A2.jpg","39","restless",0.7,0.6,0.7,0.439615681560487,"true"
"image-keyboard-response",267,412650,"0.0-3.85-1.85","3zv70ldf85sybox",405,"20.csv","","null","resources/maskTrios/BBA2.jpg","null","",NA,NA,NA,NA,""
"image-keyboard-response",268,413857,"0.0-3.85-2.85","3zv70ldf85sybox",405,"20.csv","","null","resources/images/coin2.png","null","",NA,NA,NA,NA,""
"image-keyboard-response",269,416496,"0.0-3.86-0.86","3zv70ldf85sybox",405,"20.csv","","2636.199999988079","resources/trios/L4T4A2.jpg","39","restless",0.7,0.6,0.7,0.0748884646065109,"true"
"image-keyboard-response",270,416902,"0.0-3.86-1.86","3zv70ldf85sybox",405,"20.csv","","null","resources/maskTrios/BBA2.jpg","null","",NA,NA,NA,NA,""
"image-keyboard-response",271,418106,"0.0-3.86-2.86","3zv70ldf85sybox",405,"20.csv","","null","resources/images/coin2.png","null","",NA,NA,NA,NA,""
"image-keyboard-response",272,420892,"0.0-3.87-0.87","3zv70ldf85sybox",405,"20.csv","","2783.899999976158","resources/trios/L4T1A2.jpg","39","restless",0.7,0.6,0.7,0.862076886750201,"false"
"image-keyboard-response",273,421296,"0.0-3.87-1.87","3zv70ldf85sybox",405,"20.csv","","null","resources/maskTrios/BBA2.jpg","null","",NA,NA,NA,NA,""
"image-keyboard-response",274,422503,"0.0-3.87-2.87","3zv70ldf85sybox",405,"20.csv","","null","resources/images/fishbone.png","null","",NA,NA,NA,NA,""
"image-keyboard-response",275,425365,"0.0-3.88-0.88","3zv70ldf85sybox",405,"20.csv","","2859","resources/trios/L4T4A2.jpg","39","restless",0.7,0.6,0.7,0.460583476759594,"true"
"image-keyboard-response",276,425769,"0.0-3.88-1.88","3zv70ldf85sybox",405,"20.csv","","null","resources/maskTrios/BBA2.jpg","null","",NA,NA,NA,NA,""
"image-keyboard-response",277,426977,"0.0-3.88-2.88","3zv70ldf85sybox",405,"20.csv","","null","resources/images/coin2.png","null","",NA,NA,NA,NA,""
"image-keyboard-response",278,429110,"0.0-3.89-0.89","3zv70ldf85sybox",405,"20.csv","","2131.399999976158","resources/trios/L1T1A2.jpg","37","restless",0.7,0.6,0.7,0.325203705691041,"true"
"image-keyboard-response",279,429518,"0.0-3.89-1.89","3zv70ldf85sybox",405,"20.csv","","null","resources/maskTrios/L1BB.jpg","null","",NA,NA,NA,NA,""
"image-keyboard-response",280,430721,"0.0-3.89-2.89","3zv70ldf85sybox",405,"20.csv","","null","resources/images/coin2.png","null","",NA,NA,NA,NA,""
"image-keyboard-response",281,453356,"0.0-3.90-0.90","3zv70ldf85sybox",405,"20.csv","","22632.30000001192","resources/trios/L1T4A1.jpg","39","restless",0.7,0.6,0.7,0.440585259938504,"true"
"image-keyboard-response",282,453764,"0.0-3.90-1.90","3zv70ldf85sybox",405,"20.csv","","null","resources/maskTrios/BBA1.jpg","null","",NA,NA,NA,NA,""
"image-keyboard-response",283,454971,"0.0-3.90-2.90","3zv70ldf85sybox",405,"20.csv","","null","resources/images/coin2.png","null","",NA,NA,NA,NA,""
"image-keyboard-response",284,456400,"0.0-3.91-0.91","3zv70ldf85sybox",405,"20.csv","","1426.5","resources/trios/L1T4A1.jpg","39","restless",0.7,0.6,0.8,0.828391969344294,"false"
"image-keyboard-response",285,456803,"0.0-3.91-1.91","3zv70ldf85sybox",405,"20.csv","","null","resources/maskTrios/BBA1.jpg","null","",NA,NA,NA,NA,""
"image-keyboard-response",286,458007,"0.0-3.91-2.91","3zv70ldf85sybox",405,"20.csv","","null","resources/images/fishbone.png","null","",NA,NA,NA,NA,""
"image-keyboard-response",287,459914,"0.0-3.92-0.92","3zv70ldf85sybox",405,"20.csv","","1905.300000011921","resources/trios/L4T4A2.jpg","39","restless",0.7,0.6,0.8,0.348069906659384,"true"
"image-keyboard-response",288,460317,"0.0-3.92-1.92","3zv70ldf85sybox",405,"20.csv","","null","resources/maskTrios/BBA2.jpg","null","",NA,NA,NA,NA,""
"image-keyboard-response",289,461524,"0.0-3.92-2.92","3zv70ldf85sybox",405,"20.csv","","null","resources/images/coin2.png","null","",NA,NA,NA,NA,""
"image-keyboard-response",290,463242,"0.0-3.93-0.93","3zv70ldf85sybox",405,"20.csv","","1715.1000000238419","resources/trios/L1T1A2.jpg","37","restless",0.7,0.6,0.8,0.970478651141674,"false"
"image-keyboard-response",291,463649,"0.0-3.93-1.93","3zv70ldf85sybox",405,"20.csv","","null","resources/maskTrios/L1BB.jpg","null","",NA,NA,NA,NA,""
"image-keyboard-response",292,464856,"0.0-3.93-2.93","3zv70ldf85sybox",405,"20.csv","","null","resources/images/fishbone.png","null","",NA,NA,NA,NA,""
"image-keyboard-response",293,466335,"0.0-3.94-0.94","3zv70ldf85sybox",405,"20.csv","","1476.7999999523163","resources/trios/L1T1A2.jpg","37","restless",0.7,0.6,0.8,0.445525509236321,"true"
"image-keyboard-response",294,466742,"0.0-3.94-1.94","3zv70ldf85sybox",405,"20.csv","","null","resources/maskTrios/L1BB.jpg","null","",NA,NA,NA,NA,""
"image-keyboard-response",295,467949,"0.0-3.94-2.94","3zv70ldf85sybox",405,"20.csv","","null","resources/images/coin2.png","null","",NA,NA,NA,NA,""
"image-keyboard-response",296,469527,"0.0-3.95-0.95","3zv70ldf85sybox",405,"20.csv","","1576.300000011921","resources/trios/L1T4A1.jpg","39","restless",0.7,0.6,0.8,0.390400192980702,"true"
"image-keyboard-response",297,469933,"0.0-3.95-1.95","3zv70ldf85sybox",405,"20.csv","","null","resources/maskTrios/BBA1.jpg","null","",NA,NA,NA,NA,""
"image-keyboard-response",298,471136,"0.0-3.95-2.95","3zv70ldf85sybox",405,"20.csv","","null","resources/images/coin2.png","null","",NA,NA,NA,NA,""
"image-keyboard-response",299,473246,"0.0-3.96-0.96","3zv70ldf85sybox",405,"20.csv","","2109.2000000476837","resources/trios/L4T4A2.jpg","39","restless",0.7,0.5,0.8,0.441178383091208,"true"
"image-keyboard-response",300,473650,"0.0-3.96-1.96","3zv70ldf85sybox",405,"20.csv","","null","resources/maskTrios/BBA2.jpg","null","",NA,NA,NA,NA,""
"image-keyboard-response",301,474857,"0.0-3.96-2.96","3zv70ldf85sybox",405,"20.csv","","null","resources/images/coin2.png","null","",NA,NA,NA,NA,""
"image-keyboard-response",302,477727,"0.0-3.97-0.97","3zv70ldf85sybox",405,"20.csv","","2868.399999976158","resources/trios/L1T4A2.jpg","37","restless",0.7,0.5,0.8,0.164310974340041,"true"
"image-keyboard-response",303,478135,"0.0-3.97-1.97","3zv70ldf85sybox",405,"20.csv","","null","resources/maskTrios/L1BB.jpg","null","",NA,NA,NA,NA,""
"image-keyboard-response",304,479342,"0.0-3.97-2.97","3zv70ldf85sybox",405,"20.csv","","null","resources/images/coin2.png","null","",NA,NA,NA,NA,""
"image-keyboard-response",305,482631,"0.0-3.98-0.98","3zv70ldf85sybox",405,"20.csv","","3284.400000035763","resources/trios/L4T4A2.jpg","39","restless",0.7,0.5,0.8,0.104610639280149,"true"
"image-keyboard-response",306,483033,"0.0-3.98-1.98","3zv70ldf85sybox",405,"20.csv","","null","resources/maskTrios/BBA2.jpg","null","",NA,NA,NA,NA,""
"image-keyboard-response",307,484236,"0.0-3.98-2.98","3zv70ldf85sybox",405,"20.csv","","null","resources/images/coin2.png","null","",NA,NA,NA,NA,""
"image-keyboard-response",308,489482,"0.0-3.99-0.99","3zv70ldf85sybox",405,"20.csv","","5243.199999988079","resources/trios/L1T4A2.jpg","39","restless",0.7,0.5,0.7,0.258165638679288,"true"
"image-keyboard-response",309,489889,"0.0-3.99-1.99","3zv70ldf85sybox",405,"20.csv","","null","resources/maskTrios/BBA2.jpg","null","",NA,NA,NA,NA,""
"image-keyboard-response",310,491096,"0.0-3.99-2.99","3zv70ldf85sybox",405,"20.csv","","null","resources/images/coin2.png","null","",NA,NA,NA,NA,""
"image-keyboard-response",311,493101,"0.0-3.100-0.100","3zv70ldf85sybox",405,"20.csv","","2002.300000011921","resources/trios/L4T1A1.jpg","39","restless",0.7,0.5,0.7,0.507787376577771,"true"
"image-keyboard-response",312,493506,"0.0-3.100-1.100","3zv70ldf85sybox",405,"20.csv","","null","resources/maskTrios/BBA1.jpg","null","",NA,NA,NA,NA,""
"image-keyboard-response",313,494714,"0.0-3.100-2.100","3zv70ldf85sybox",405,"20.csv","","null","resources/images/coin2.png","null","",NA,NA,NA,NA,""
"image-keyboard-response",314,496374,"0.0-3.101-0.101","3zv70ldf85sybox",405,"20.csv","","1657.9000000357628","resources/trios/L1T1A2.jpg","37","restless",0.7,0.5,0.7,0.713087250205696,"false"
"image-keyboard-response",315,496781,"0.0-3.101-1.101","3zv70ldf85sybox",405,"20.csv","","null","resources/maskTrios/L1BB.jpg","null","",NA,NA,NA,NA,""
"image-keyboard-response",316,497987,"0.0-3.101-2.101","3zv70ldf85sybox",405,"20.csv","","null","resources/images/fishbone.png","null","",NA,NA,NA,NA,""
"image-keyboard-response",317,501478,"0.0-3.102-0.102","3zv70ldf85sybox",405,"20.csv","","3488.099999964237","resources/trios/L4T4A2.jpg","39","restless",0.7,0.5,0.8,0.340817624807182,"true"
"image-keyboard-response",318,501885,"0.0-3.102-1.102","3zv70ldf85sybox",405,"20.csv","","null","resources/maskTrios/BBA2.jpg","null","",NA,NA,NA,NA,""
"image-keyboard-response",319,503091,"0.0-3.102-2.102","3zv70ldf85sybox",405,"20.csv","","null","resources/images/coin2.png","null","",NA,NA,NA,NA,""
"image-keyboard-response",320,504909,"0.0-3.103-0.103","3zv70ldf85sybox",405,"20.csv","","1815.4000000357628","resources/trios/L1T1A2.jpg","39","restless",0.7,0.5,0.7,0.436595965032745,"true"
"image-keyboard-response",321,505312,"0.0-3.103-1.103","3zv70ldf85sybox",405,"20.csv","","null","resources/maskTrios/BBA2.jpg","null","",NA,NA,NA,NA,""
"image-keyboard-response",322,506519,"0.0-3.103-2.103","3zv70ldf85sybox",405,"20.csv","","null","resources/images/coin2.png","null","",NA,NA,NA,NA,""
"image-keyboard-response",323,507530,"0.0-3.104-0.104","3zv70ldf85sybox",405,"20.csv","","1008.1999999880791","resources/trios/L1T1A2.jpg","39","restless",0.7,0.5,0.7,0.232939009764671,"true"
"image-keyboard-response",324,507936,"0.0-3.104-1.104","3zv70ldf85sybox",405,"20.csv","","null","resources/maskTrios/BBA2.jpg","null","",NA,NA,NA,NA,""
"image-keyboard-response",325,509143,"0.0-3.104-2.104","3zv70ldf85sybox",405,"20.csv","","null","resources/images/coin2.png","null","",NA,NA,NA,NA,""
"image-keyboard-response",326,510535,"0.0-3.105-0.105","3zv70ldf85sybox",405,"20.csv","","1389.5999999642372","resources/trios/L1T1A1.jpg","37","restless",0.7,0.5,0.7,0.0234910621376963,"true"
"image-keyboard-response",327,510942,"0.0-3.105-1.105","3zv70ldf85sybox",405,"20.csv","","null","resources/maskTrios/L1BB.jpg","null","",NA,NA,NA,NA,""
"image-keyboard-response",328,512149,"0.0-3.105-2.105","3zv70ldf85sybox",405,"20.csv","","null","resources/images/coin2.png","null","",NA,NA,NA,NA,""
"image-keyboard-response",329,513636,"0.0-3.106-0.106","3zv70ldf85sybox",405,"20.csv","","1484.3999999761581","resources/trios/L1T4A2.jpg","39","restless",0.7,0.5,0.7,0.999060505518195,"false"
"image-keyboard-response",330,514040,"0.0-3.106-1.106","3zv70ldf85sybox",405,"20.csv","","null","resources/maskTrios/BBA2.jpg","null","",NA,NA,NA,NA,""
"image-keyboard-response",331,515247,"0.0-3.106-2.106","3zv70ldf85sybox",405,"20.csv","","null","resources/images/fishbone.png","null","",NA,NA,NA,NA,""
"image-keyboard-response",332,516926,"0.0-3.107-0.107","3zv70ldf85sybox",405,"20.csv","","1677.2000000476837","resources/trios/L4T1A1.jpg","39","restless",0.7,0.5,0.7,0.243479276179517,"true"
"image-keyboard-response",333,517333,"0.0-3.107-1.107","3zv70ldf85sybox",405,"20.csv","","null","resources/maskTrios/BBA1.jpg","null","",NA,NA,NA,NA,""
"image-keyboard-response",334,518540,"0.0-3.107-2.107","3zv70ldf85sybox",405,"20.csv","","null","resources/images/coin2.png","null","",NA,NA,NA,NA,""
"image-keyboard-response",335,520632,"0.0-3.108-0.108","3zv70ldf85sybox",405,"20.csv","","2089.5","resources/trios/L1T1A1.jpg","37","restless",0.7,0.5,0.7,0.437646884120219,"true"
"image-keyboard-response",336,521035,"0.0-3.108-1.108","3zv70ldf85sybox",405,"20.csv","","null","resources/maskTrios/L1BB.jpg","null","",NA,NA,NA,NA,""
"image-keyboard-response",337,522242,"0.0-3.108-2.108","3zv70ldf85sybox",405,"20.csv","","null","resources/images/coin2.png","null","",NA,NA,NA,NA,""
"image-keyboard-response",338,524111,"0.0-3.109-0.109","3zv70ldf85sybox",405,"20.csv","","1866.699999988079","resources/trios/L4T4A2.jpg","39","restless",0.7,0.4,0.7,0.415262054992759,"true"
"image-keyboard-response",339,524516,"0.0-3.109-1.109","3zv70ldf85sybox",405,"20.csv","","null","resources/maskTrios/BBA2.jpg","null","",NA,NA,NA,NA,""
"image-keyboard-response",340,525721,"0.0-3.109-2.109","3zv70ldf85sybox",405,"20.csv","","null","resources/images/coin2.png","null","",NA,NA,NA,NA,""
"image-keyboard-response",341,527749,"0.0-3.110-0.110","3zv70ldf85sybox",405,"20.csv","","2025.699999988079","resources/trios/L1T1A1.jpg","37","restless",0.7,0.4,0.7,0.0900787198075605,"true"
"image-keyboard-response",342,528157,"0.0-3.110-1.110","3zv70ldf85sybox",405,"20.csv","","null","resources/maskTrios/L1BB.jpg","null","",NA,NA,NA,NA,""
"image-keyboard-response",343,529364,"0.0-3.110-2.110","3zv70ldf85sybox",405,"20.csv","","null","resources/images/coin2.png","null","",NA,NA,NA,NA,""
"image-keyboard-response",344,530891,"0.0-3.111-0.111","3zv70ldf85sybox",405,"20.csv","","1524.699999988079","resources/trios/L1T1A2.jpg","37","restless",0.7,0.4,0.7,0.444187781033995,"true"
"image-keyboard-response",345,531296,"0.0-3.111-1.111","3zv70ldf85sybox",405,"20.csv","","null","resources/maskTrios/L1BB.jpg","null","",NA,NA,NA,NA,""
"image-keyboard-response",346,532503,"0.0-3.111-2.111","3zv70ldf85sybox",405,"20.csv","","null","resources/images/coin2.png","null","",NA,NA,NA,NA,""
"image-keyboard-response",347,533860,"0.0-3.112-0.112","3zv70ldf85sybox",405,"20.csv","","1354","resources/trios/L4T1A2.jpg","39","restless",0.7,0.4,0.6,0.597051281791053,"true"
"image-keyboard-response",348,534267,"0.0-3.112-1.112","3zv70ldf85sybox",405,"20.csv","","null","resources/maskTrios/BBA2.jpg","null","",NA,NA,NA,NA,""
"image-keyboard-response",349,535471,"0.0-3.112-2.112","3zv70ldf85sybox",405,"20.csv","","null","resources/images/coin2.png","null","",NA,NA,NA,NA,""
"image-keyboard-response",350,536906,"0.0-3.113-0.113","3zv70ldf85sybox",405,"20.csv","","1433.199999988079","resources/trios/L1T4A2.jpg","37","restless",0.7,0.4,0.5,0.848189149376698,"false"
"image-keyboard-response",351,537312,"0.0-3.113-1.113","3zv70ldf85sybox",405,"20.csv","","null","resources/maskTrios/L1BB.jpg","null","",NA,NA,NA,NA,""
"image-keyboard-response",352,538520,"0.0-3.113-2.113","3zv70ldf85sybox",405,"20.csv","","null","resources/images/fishbone.png","null","",NA,NA,NA,NA,""
"image-keyboard-response",353,540687,"0.0-3.114-0.114","3zv70ldf85sybox",405,"20.csv","","2164.600000023842","resources/trios/L4T1A2.jpg","39","restless",0.7,0.3,0.5,0.270928651407237,"true"
"image-keyboard-response",354,541095,"0.0-3.114-1.114","3zv70ldf85sybox",405,"20.csv","","null","resources/maskTrios/BBA2.jpg","null","",NA,NA,NA,NA,""
"image-keyboard-response",355,542302,"0.0-3.114-2.114","3zv70ldf85sybox",405,"20.csv","","null","resources/images/coin2.png","null","",NA,NA,NA,NA,""
"image-keyboard-response",356,543654,"0.0-3.115-0.115","3zv70ldf85sybox",405,"20.csv","","1349.3999999761581","resources/trios/L1T4A1.jpg","37","restless",0.7,0.4,0.5,0.397677553105283,"true"
"image-keyboard-response",357,544061,"0.0-3.115-1.115","3zv70ldf85sybox",405,"20.csv","","null","resources/maskTrios/L1BB.jpg","null","",NA,NA,NA,NA,""
"image-keyboard-response",358,545269,"0.0-3.115-2.115","3zv70ldf85sybox",405,"20.csv","","null","resources/images/coin2.png","null","",NA,NA,NA,NA,""
"image-keyboard-response",359,546805,"0.0-3.116-0.116","3zv70ldf85sybox",405,"20.csv","","1533.8999999761581","resources/trios/L4T1A1.jpg","39","restless",0.7,0.4,0.5,0.366200874388114,"true"
"image-keyboard-response",360,547212,"0.0-3.116-1.116","3zv70ldf85sybox",405,"20.csv","","null","resources/maskTrios/BBA1.jpg","null","",NA,NA,NA,NA,""
"image-keyboard-response",361,548419,"0.0-3.116-2.116","3zv70ldf85sybox",405,"20.csv","","null","resources/images/coin2.png","null","",NA,NA,NA,NA,""
"image-keyboard-response",362,550215,"0.0-3.117-0.117","3zv70ldf85sybox",405,"20.csv","","1793","resources/trios/L1T4A1.jpg","37","restless",0.7,0.4,0.5,0.78668245004807,"false"
"image-keyboard-response",363,550622,"0.0-3.117-1.117","3zv70ldf85sybox",405,"20.csv","","null","resources/maskTrios/L1BB.jpg","null","",NA,NA,NA,NA,""
"image-keyboard-response",364,551829,"0.0-3.117-2.117","3zv70ldf85sybox",405,"20.csv","","null","resources/images/fishbone.png","null","",NA,NA,NA,NA,""
"image-keyboard-response",365,552812,"0.0-3.118-0.118","3zv70ldf85sybox",405,"20.csv","","981.1999999880791","resources/trios/L4T1A1.jpg","39","restless",0.8,0.4,0.5,0.196018232327775,"true"
"image-keyboard-response",366,553216,"0.0-3.118-1.118","3zv70ldf85sybox",405,"20.csv","","null","resources/maskTrios/BBA1.jpg","null","",NA,NA,NA,NA,""
"image-keyboard-response",367,554423,"0.0-3.118-2.118","3zv70ldf85sybox",405,"20.csv","","null","resources/images/coin2.png","null","",NA,NA,NA,NA,""
"image-keyboard-response",368,555493,"0.0-3.119-0.119","3zv70ldf85sybox",405,"20.csv","","1068","resources/trios/L4T4A1.jpg","39","restless",0.8,0.4,0.5,0.33499119373905,"true"
"image-keyboard-response",369,555896,"0.0-3.119-1.119","3zv70ldf85sybox",405,"20.csv","","null","resources/maskTrios/BBA1.jpg","null","",NA,NA,NA,NA,""
"image-keyboard-response",370,557101,"0.0-3.119-2.119","3zv70ldf85sybox",405,"20.csv","","null","resources/images/coin2.png","null","",NA,NA,NA,NA,""
"image-keyboard-response",371,558041,"0.0-3.120-0.120","3zv70ldf85sybox",405,"20.csv","","937.1999999880791","resources/trios/L1T4A2.jpg","37","restless",0.8,0.4,0.5,0.502530665400946,"true"
"image-keyboard-response",372,558448,"0.0-3.120-1.120","3zv70ldf85sybox",405,"20.csv","","null","resources/maskTrios/L1BB.jpg","null","",NA,NA,NA,NA,""
"image-keyboard-response",373,559655,"0.0-3.120-2.120","3zv70ldf85sybox",405,"20.csv","","null","resources/images/coin2.png","null","",NA,NA,NA,NA,""
"image-keyboard-response",374,561141,"0.0-3.121-0.121","3zv70ldf85sybox",405,"20.csv","","1483.6000000238419","resources/trios/L4T4A2.jpg","39","restless",0.8,0.4,0.5,0.188984661609088,"true"
"image-keyboard-response",375,561548,"0.0-3.121-1.121","3zv70ldf85sybox",405,"20.csv","","null","resources/maskTrios/BBA2.jpg","null","",NA,NA,NA,NA,""
"image-keyboard-response",376,562753,"0.0-3.121-2.121","3zv70ldf85sybox",405,"20.csv","","null","resources/images/coin2.png","null","",NA,NA,NA,NA,""
"image-keyboard-response",377,563925,"0.0-3.122-0.122","3zv70ldf85sybox",405,"20.csv","","1169.8999999761581","resources/trios/L1T4A1.jpg","37","restless",0.8,0.3,0.5,0.57455617204377,"true"
"image-keyboard-response",378,564332,"0.0-3.122-1.122","3zv70ldf85sybox",405,"20.csv","","null","resources/maskTrios/L1BB.jpg","null","",NA,NA,NA,NA,""
"image-keyboard-response",379,565540,"0.0-3.122-2.122","3zv70ldf85sybox",405,"20.csv","","null","resources/images/coin2.png","null","",NA,NA,NA,NA,""
"image-keyboard-response",380,569695,"0.0-3.123-0.123","3zv70ldf85sybox",405,"20.csv","","4153.199999988079","resources/trios/L1T1A2.jpg","37","restless",0.8,0.3,0.5,0.0328809929157374,"true"
"image-keyboard-response",381,570103,"0.0-3.123-1.123","3zv70ldf85sybox",405,"20.csv","","null","resources/maskTrios/L1BB.jpg","null","",NA,NA,NA,NA,""
"image-keyboard-response",382,571307,"0.0-3.123-2.123","3zv70ldf85sybox",405,"20.csv","","null","resources/images/coin2.png","null","",NA,NA,NA,NA,""
"image-keyboard-response",383,572836,"0.0-3.124-0.124","3zv70ldf85sybox",405,"20.csv","","1526.199999988079","resources/trios/L4T1A1.jpg","39","restless",0.8,0.3,0.5,0.411079361679333,"true"
"image-keyboard-response",384,573243,"0.0-3.124-1.124","3zv70ldf85sybox",405,"20.csv","","null","resources/maskTrios/BBA1.jpg","null","",NA,NA,NA,NA,""
"image-keyboard-response",385,574450,"0.0-3.124-2.124","3zv70ldf85sybox",405,"20.csv","","null","resources/images/coin2.png","null","",NA,NA,NA,NA,""
"image-keyboard-response",386,575941,"0.0-3.125-0.125","3zv70ldf85sybox",405,"20.csv","","1488.2999999523163","resources/trios/L1T4A2.jpg","37","restless",0.8,0.3,0.6,0.323159474616294,"true"
"image-keyboard-response",387,576348,"0.0-3.125-1.125","3zv70ldf85sybox",405,"20.csv","","null","resources/maskTrios/L1BB.jpg","null","",NA,NA,NA,NA,""
"image-keyboard-response",388,577556,"0.0-3.125-2.125","3zv70ldf85sybox",405,"20.csv","","null","resources/images/coin2.png","null","",NA,NA,NA,NA,""
"image-keyboard-response",389,578645,"0.0-3.126-0.126","3zv70ldf85sybox",405,"20.csv","","1087.3999999761581","resources/trios/L4T4A2.jpg","39","restless",0.8,0.3,0.6,0.886590271015594,"false"
"image-keyboard-response",390,579049,"0.0-3.126-1.126","3zv70ldf85sybox",405,"20.csv","","null","resources/maskTrios/BBA2.jpg","null","",NA,NA,NA,NA,""
"image-keyboard-response",391,580253,"0.0-3.126-2.126","3zv70ldf85sybox",405,"20.csv","","null","resources/images/fishbone.png","null","",NA,NA,NA,NA,""
"image-keyboard-response",392,581279,"0.0-3.127-0.127","3zv70ldf85sybox",405,"20.csv","","1024","resources/trios/L1T1A1.jpg","37","restless",0.8,0.2,0.6,0.529870992981357,"true"
"image-keyboard-response",393,581685,"0.0-3.127-1.127","3zv70ldf85sybox",405,"20.csv","","null","resources/maskTrios/L1BB.jpg","null","",NA,NA,NA,NA,""
"image-keyboard-response",394,582890,"0.0-3.127-2.127","3zv70ldf85sybox",405,"20.csv","","null","resources/images/coin2.png","null","",NA,NA,NA,NA,""
"image-keyboard-response",395,585751,"0.0-3.128-0.128","3zv70ldf85sybox",405,"20.csv","","2857.699999988079","resources/trios/L4T1A2.jpg","39","restless",0.7,0.2,0.6,0.151594450947908,"true"
"image-keyboard-response",396,586158,"0.0-3.128-1.128","3zv70ldf85sybox",405,"20.csv","","null","resources/maskTrios/BBA2.jpg","null","",NA,NA,NA,NA,""
"image-keyboard-response",397,587366,"0.0-3.128-2.128","3zv70ldf85sybox",405,"20.csv","","null","resources/images/coin2.png","null","",NA,NA,NA,NA,""
"image-keyboard-response",398,588815,"0.0-3.129-0.129","3zv70ldf85sybox",405,"20.csv","","1446.1000000238419","resources/trios/L1T1A1.jpg","37","restless",0.7,0.2,0.6,0.274768722726104,"true"
"image-keyboard-response",399,589220,"0.0-3.129-1.129","3zv70ldf85sybox",405,"20.csv","","null","resources/maskTrios/L1BB.jpg","null","",NA,NA,NA,NA,""
"image-keyboard-response",400,590423,"0.0-3.129-2.129","3zv70ldf85sybox",405,"20.csv","","null","resources/images/coin2.png","null","",NA,NA,NA,NA,""
"image-keyboard-response",401,592218,"0.0-3.130-0.130","3zv70ldf85sybox",405,"20.csv","","1792.800000011921","resources/trios/L1T4A1.jpg","39","restless",0.7,0.2,0.5,0.684913492043904,"false"
"image-keyboard-response",402,592626,"0.0-3.130-1.130","3zv70ldf85sybox",405,"20.csv","","null","resources/maskTrios/BBA1.jpg","null","",NA,NA,NA,NA,""
"image-keyboard-response",403,593832,"0.0-3.130-2.130","3zv70ldf85sybox",405,"20.csv","","null","resources/images/fishbone.png","null","",NA,NA,NA,NA,""
"image-keyboard-response",404,595955,"0.0-3.131-0.131","3zv70ldf85sybox",405,"20.csv","","2120.399999976158","resources/trios/L4T4A2.jpg","38","restless",0.7,0.2,0.5,0.824733961288261,"false"
"image-keyboard-response",405,596358,"0.0-3.131-1.131","3zv70ldf85sybox",405,"20.csv","","null","resources/maskTrios/BT4B.jpg","null","",NA,NA,NA,NA,""
"image-keyboard-response",406,597565,"0.0-3.131-2.131","3zv70ldf85sybox",405,"20.csv","","null","resources/images/fishbone.png","null","",NA,NA,NA,NA,""
"image-keyboard-response",407,599126,"0.0-3.132-0.132","3zv70ldf85sybox",405,"20.csv","","1558.7999999523163","resources/trios/L4T4A2.jpg","39","restless",0.7,0.2,0.5,0.933596455053816,"false"
"image-keyboard-response",408,599533,"0.0-3.132-1.132","3zv70ldf85sybox",405,"20.csv","","null","resources/maskTrios/BBA2.jpg","null","",NA,NA,NA,NA,""
"image-keyboard-response",409,600736,"0.0-3.132-2.132","3zv70ldf85sybox",405,"20.csv","","null","resources/images/fishbone.png","null","",NA,NA,NA,NA,""
"image-keyboard-response",410,602360,"0.0-3.133-0.133","3zv70ldf85sybox",405,"20.csv","","1621.5","resources/trios/L4T1A1.jpg","39","restless",0.7,0.2,0.5,0.395310331546201,"true"
"image-keyboard-response",411,602768,"0.0-3.133-1.133","3zv70ldf85sybox",405,"20.csv","","null","resources/maskTrios/BBA1.jpg","null","",NA,NA,NA,NA,""
"image-keyboard-response",412,603975,"0.0-3.133-2.133","3zv70ldf85sybox",405,"20.csv","","null","resources/images/coin2.png","null","",NA,NA,NA,NA,""
"image-keyboard-response",413,605428,"0.0-3.134-0.134","3zv70ldf85sybox",405,"20.csv","","1451.199999988079","resources/trios/L1T4A2.jpg","37","restless",0.7,0.2,0.5,0.402536284063016,"true"
"image-keyboard-response",414,605832,"0.0-3.134-1.134","3zv70ldf85sybox",405,"20.csv","","null","resources/maskTrios/L1BB.jpg","null","",NA,NA,NA,NA,""
"image-keyboard-response",415,607040,"0.0-3.134-2.134","3zv70ldf85sybox",405,"20.csv","","null","resources/images/coin2.png","null","",NA,NA,NA,NA,""
"image-keyboard-response",416,611446,"0.0-3.135-0.135","3zv70ldf85sybox",405,"20.csv","","4403.800000011921","resources/trios/L4T4A2.jpg","38","restless",0.7,0.2,0.4,0.514267848846224,"false"
"image-keyboard-response",417,611853,"0.0-3.135-1.135","3zv70ldf85sybox",405,"20.csv","","null","resources/maskTrios/BT4B.jpg","null","",NA,NA,NA,NA,""
"image-keyboard-response",418,613060,"0.0-3.135-2.135","3zv70ldf85sybox",405,"20.csv","","null","resources/images/fishbone.png","null","",NA,NA,NA,NA,""
"image-keyboard-response",419,614163,"0.0-3.136-0.136","3zv70ldf85sybox",405,"20.csv","","1100","resources/trios/L1T4A1.jpg","39","restless",0.7,0.2,0.4,0.910857716605794,"false"
"image-keyboard-response",420,614569,"0.0-3.136-1.136","3zv70ldf85sybox",405,"20.csv","","null","resources/maskTrios/BBA1.jpg","null","",NA,NA,NA,NA,""
"image-keyboard-response",421,615776,"0.0-3.136-2.136","3zv70ldf85sybox",405,"20.csv","","null","resources/images/fishbone.png","null","",NA,NA,NA,NA,""
"image-keyboard-response",422,616961,"0.0-3.137-0.137","3zv70ldf85sybox",405,"20.csv","","1182","resources/trios/L4T4A1.jpg","39","restless",0.7,0.2,0.4,0.286052352822082,"true"
"image-keyboard-response",423,617368,"0.0-3.137-1.137","3zv70ldf85sybox",405,"20.csv","","null","resources/maskTrios/BBA1.jpg","null","",NA,NA,NA,NA,""
"image-keyboard-response",424,618576,"0.0-3.137-2.137","3zv70ldf85sybox",405,"20.csv","","null","resources/images/coin2.png","null","",NA,NA,NA,NA,""
"image-keyboard-response",425,620467,"0.0-3.138-0.138","3zv70ldf85sybox",405,"20.csv","","1889.199999988079","resources/trios/L1T4A2.jpg","37","restless",0.7,0.2,0.4,0.455811758396899,"true"
"image-keyboard-response",426,620875,"0.0-3.138-1.138","3zv70ldf85sybox",405,"20.csv","","null","resources/maskTrios/L1BB.jpg","null","",NA,NA,NA,NA,""
"image-keyboard-response",427,622077,"0.0-3.138-2.138","3zv70ldf85sybox",405,"20.csv","","null","resources/images/coin2.png","null","",NA,NA,NA,NA,""
"image-keyboard-response",428,626850,"0.0-3.139-0.139","3zv70ldf85sybox",405,"20.csv","","4770","resources/trios/L1T4A1.jpg","39","restless",0.7,0.2,0.4,0.264675975717168,"true"
"image-keyboard-response",429,627255,"0.0-3.139-1.139","3zv70ldf85sybox",405,"20.csv","","null","resources/maskTrios/BBA1.jpg","null","",NA,NA,NA,NA,""
"image-keyboard-response",430,628462,"0.0-3.139-2.139","3zv70ldf85sybox",405,"20.csv","","null","resources/images/coin2.png","null","",NA,NA,NA,NA,""
"image-keyboard-response",431,631762,"0.0-3.140-0.140","3zv70ldf85sybox",405,"20.csv","","3297.699999988079","resources/trios/L4T1A2.jpg","39","restless",0.7,0.2,0.4,0.869144959414631,"false"
"image-keyboard-response",432,632170,"0.0-3.140-1.140","3zv70ldf85sybox",405,"20.csv","","null","resources/maskTrios/BBA2.jpg","null","",NA,NA,NA,NA,""
"image-keyboard-response",433,633377,"0.0-3.140-2.140","3zv70ldf85sybox",405,"20.csv","","null","resources/images/fishbone.png","null","",NA,NA,NA,NA,""
"image-keyboard-response",434,635331,"0.0-3.141-0.141","3zv70ldf85sybox",405,"20.csv","","1951","resources/trios/L4T1A2.jpg","38","restless",0.7,0.2,0.4,0.520660467578811,"false"
"image-keyboard-response",435,635736,"0.0-3.141-1.141","3zv70ldf85sybox",405,"20.csv","","null","resources/maskTrios/BT1B.jpg","null","",NA,NA,NA,NA,""
"image-keyboard-response",436,636940,"0.0-3.141-2.141","3zv70ldf85sybox",405,"20.csv","","null","resources/images/fishbone.png","null","",NA,NA,NA,NA,""
"image-keyboard-response",437,639677,"0.0-3.142-0.142","3zv70ldf85sybox",405,"20.csv","","2734.5","resources/trios/L4T4A2.jpg","39","restless",0.7,0.2,0.4,0.472659639744246,"false"
"image-keyboard-response",438,640084,"0.0-3.142-1.142","3zv70ldf85sybox",405,"20.csv","","null","resources/maskTrios/BBA2.jpg","null","",NA,NA,NA,NA,""
"image-keyboard-response",439,641291,"0.0-3.142-2.142","3zv70ldf85sybox",405,"20.csv","","null","resources/images/fishbone.png","null","",NA,NA,NA,NA,""
"image-keyboard-response",440,642570,"0.0-3.143-0.143","3zv70ldf85sybox",405,"20.csv","","1276.6000000238419","resources/trios/L4T4A1.jpg","39","restless",0.7,0.2,0.4,0.747534090468071,"false"
"image-keyboard-response",441,642977,"0.0-3.143-1.143","3zv70ldf85sybox",405,"20.csv","","null","resources/maskTrios/BBA1.jpg","null","",NA,NA,NA,NA,""
"image-keyboard-response",442,644180,"0.0-3.143-2.143","3zv70ldf85sybox",405,"20.csv","","null","resources/images/fishbone.png","null","",NA,NA,NA,NA,""
"image-keyboard-response",443,645714,"0.0-3.144-0.144","3zv70ldf85sybox",405,"20.csv","","1531.699999988079","resources/trios/L4T4A2.jpg","39","restless",0.6,0.2,0.4,0.529625734251486,"false"
"image-keyboard-response",444,646122,"0.0-3.144-1.144","3zv70ldf85sybox",405,"20.csv","","null","resources/maskTrios/BBA2.jpg","null","",NA,NA,NA,NA,""
"image-keyboard-response",445,647328,"0.0-3.144-2.144","3zv70ldf85sybox",405,"20.csv","","null","resources/images/fishbone.png","null","",NA,NA,NA,NA,""
"image-keyboard-response",446,648222,"0.0-3.145-0.145","3zv70ldf85sybox",405,"20.csv","","891.5999999642372","resources/trios/L1T4A2.jpg","37","restless",0.6,0.2,0.4,0.875932273069887,"false"
"image-keyboard-response",447,648630,"0.0-3.145-1.145","3zv70ldf85sybox",405,"20.csv","","null","resources/maskTrios/L1BB.jpg","null","",NA,NA,NA,NA,""
"image-keyboard-response",448,649832,"0.0-3.145-2.145","3zv70ldf85sybox",405,"20.csv","","null","resources/images/fishbone.png","null","",NA,NA,NA,NA,""
"image-keyboard-response",449,651039,"0.0-3.146-0.146","3zv70ldf85sybox",405,"20.csv","","1204.0999999642372","resources/trios/L1T1A1.jpg","37","restless",0.6,0.2,0.4,0.584191682888801,"true"
"image-keyboard-response",450,651446,"0.0-3.146-1.146","3zv70ldf85sybox",405,"20.csv","","null","resources/maskTrios/L1BB.jpg","null","",NA,NA,NA,NA,""
"image-keyboard-response",451,652649,"0.0-3.146-2.146","3zv70ldf85sybox",405,"20.csv","","null","resources/images/coin2.png","null","",NA,NA,NA,NA,""
"image-keyboard-response",452,653748,"0.0-3.147-0.147","3zv70ldf85sybox",405,"20.csv","","1096.8999999761581","resources/trios/L4T4A1.jpg","39","restless",0.5,0.2,0.4,0.505370464905778,"false"
"image-keyboard-response",453,654154,"0.0-3.147-1.147","3zv70ldf85sybox",405,"20.csv","","null","resources/maskTrios/BBA1.jpg","null","",NA,NA,NA,NA,""
"image-keyboard-response",454,655358,"0.0-3.147-2.147","3zv70ldf85sybox",405,"20.csv","","null","resources/images/fishbone.png","null","",NA,NA,NA,NA,""
"image-keyboard-response",455,656790,"0.0-3.148-0.148","3zv70ldf85sybox",405,"20.csv","","1429.7999999523163","resources/trios/L1T4A1.jpg","37","restless",0.5,0.3,0.4,0.776964828478096,"false"
"image-keyboard-response",456,657196,"0.0-3.148-1.148","3zv70ldf85sybox",405,"20.csv","","null","resources/maskTrios/L1BB.jpg","null","",NA,NA,NA,NA,""
"image-keyboard-response",457,658403,"0.0-3.148-2.148","3zv70ldf85sybox",405,"20.csv","","null","resources/images/fishbone.png","null","",NA,NA,NA,NA,""
"image-keyboard-response",458,659985,"0.0-3.149-0.149","3zv70ldf85sybox",405,"20.csv","","1580.300000011921","resources/trios/L1T4A2.jpg","37","restless",0.5,0.3,0.4,0.289617366837423,"true"
"image-keyboard-response",459,660389,"0.0-3.149-1.149","3zv70ldf85sybox",405,"20.csv","","null","resources/maskTrios/L1BB.jpg","null","",NA,NA,NA,NA,""
"image-keyboard-response",460,661596,"0.0-3.149-2.149","3zv70ldf85sybox",405,"20.csv","","null","resources/images/coin2.png","null","",NA,NA,NA,NA,""
"image-keyboard-response",461,676139,"0.0-3.150-0.150","3zv70ldf85sybox",405,"20.csv","","14541","resources/trios/L1T4A1.jpg","39","restless",0.5,0.3,0.4,0.492804063967572,"false"
"image-keyboard-response",462,676546,"0.0-3.150-1.150","3zv70ldf85sybox",405,"20.csv","","null","resources/maskTrios/BBA1.jpg","null","",NA,NA,NA,NA,""
"image-keyboard-response",463,677750,"0.0-3.150-2.150","3zv70ldf85sybox",405,"20.csv","","null","resources/images/fishbone.png","null","",NA,NA,NA,NA,""
"image-keyboard-response",464,681020,"0.0-3.151-0.151","3zv70ldf85sybox",405,"20.csv","","3267.199999988079","resources/trios/L1T1A1.jpg","37","restless",0.5,0.3,0.4,0.272530951686883,"true"
"image-keyboard-response",465,681423,"0.0-3.151-1.151","3zv70ldf85sybox",405,"20.csv","","null","resources/maskTrios/L1BB.jpg","null","",NA,NA,NA,NA,""
"image-keyboard-response",466,682628,"0.0-3.151-2.151","3zv70ldf85sybox",405,"20.csv","","null","resources/images/coin2.png","null","",NA,NA,NA,NA,""
"image-keyboard-response",467,685444,"0.0-3.152-0.152","3zv70ldf85sybox",405,"20.csv","","2814.2000000476837","resources/trios/L4T4A2.jpg","39","restless",0.5,0.3,0.4,0.897838383761003,"false"
"image-keyboard-response",468,685852,"0.0-3.152-1.152","3zv70ldf85sybox",405,"20.csv","","null","resources/maskTrios/BBA2.jpg","null","",NA,NA,NA,NA,""
"image-keyboard-response",469,687059,"0.0-3.152-2.152","3zv70ldf85sybox",405,"20.csv","","null","resources/images/fishbone.png","null","",NA,NA,NA,NA,""
"image-keyboard-response",470,688911,"0.0-3.153-0.153","3zv70ldf85sybox",405,"20.csv","","1849.3999999761581","resources/trios/L4T4A2.jpg","38","restless",0.5,0.3,0.4,0.807857003145667,"false"
"image-keyboard-response",471,689318,"0.0-3.153-1.153","3zv70ldf85sybox",405,"20.csv","","null","resources/maskTrios/BT4B.jpg","null","",NA,NA,NA,NA,""
"image-keyboard-response",472,690524,"0.0-3.153-2.153","3zv70ldf85sybox",405,"20.csv","","null","resources/images/fishbone.png","null","",NA,NA,NA,NA,""
"image-keyboard-response",473,691875,"0.0-3.154-0.154","3zv70ldf85sybox",405,"20.csv","","1348.1000000238419","resources/trios/L1T1A2.jpg","37","restless",0.4,0.3,0.4,0.655456322233733,"false"
"image-keyboard-response",474,692282,"0.0-3.154-1.154","3zv70ldf85sybox",405,"20.csv","","null","resources/maskTrios/L1BB.jpg","null","",NA,NA,NA,NA,""
"image-keyboard-response",475,693489,"0.0-3.154-2.154","3zv70ldf85sybox",405,"20.csv","","null","resources/images/fishbone.png","null","",NA,NA,NA,NA,""
"image-keyboard-response",476,696629,"0.0-3.155-0.155","3zv70ldf85sybox",405,"20.csv","","3136.900000035763","resources/trios/L4T4A2.jpg","39","restless",0.4,0.3,0.4,0.917887182154952,"false"
"image-keyboard-response",477,697033,"0.0-3.155-1.155","3zv70ldf85sybox",405,"20.csv","","null","resources/maskTrios/BBA2.jpg","null","",NA,NA,NA,NA,""
"image-keyboard-response",478,698236,"0.0-3.155-2.155","3zv70ldf85sybox",405,"20.csv","","null","resources/images/fishbone.png","null","",NA,NA,NA,NA,""
"image-keyboard-response",479,698727,"0.0-3.156-0.156","3zv70ldf85sybox",405,"20.csv","","488.39999997615814","resources/trios/L4T4A1.jpg","38","restless",0.4,0.3,0.4,0.408429886947828,"false"
"image-keyboard-response",480,699134,"0.0-3.156-1.156","3zv70ldf85sybox",405,"20.csv","","null","resources/maskTrios/BT4B.jpg","null","",NA,NA,NA,NA,""
"image-keyboard-response",481,700340,"0.0-3.156-2.156","3zv70ldf85sybox",405,"20.csv","","null","resources/images/fishbone.png","null","",NA,NA,NA,NA,""
"image-keyboard-response",482,701079,"0.0-3.157-0.157","3zv70ldf85sybox",405,"20.csv","","736.1000000238419","resources/trios/L1T1A1.jpg","37","restless",0.4,0.4,0.4,0.105803729097415,"true"
"image-keyboard-response",483,701486,"0.0-3.157-1.157","3zv70ldf85sybox",405,"20.csv","","null","resources/maskTrios/L1BB.jpg","null","",NA,NA,NA,NA,""
"image-keyboard-response",484,702691,"0.0-3.157-2.157","3zv70ldf85sybox",405,"20.csv","","null","resources/images/coin2.png","null","",NA,NA,NA,NA,""
"image-keyboard-response",485,723426,"0.0-3.158-0.158","3zv70ldf85sybox",405,"20.csv","","20732.899999976158","resources/trios/L1T1A2.jpg","37","restless",0.4,0.4,0.4,0.109568626869159,"true"
"image-keyboard-response",486,723832,"0.0-3.158-1.158","3zv70ldf85sybox",405,"20.csv","","null","resources/maskTrios/L1BB.jpg","null","",NA,NA,NA,NA,""
"image-keyboard-response",487,725039,"0.0-3.158-2.158","3zv70ldf85sybox",405,"20.csv","","null","resources/images/coin2.png","null","",NA,NA,NA,NA,""
"image-keyboard-response",488,732124,"0.0-3.159-0.159","3zv70ldf85sybox",405,"20.csv","","7082.800000011921","resources/trios/L4T1A1.jpg","39","restless",0.4,0.4,0.4,0.470895238859883,"false"
"image-keyboard-response",489,732531,"0.0-3.159-1.159","3zv70ldf85sybox",405,"20.csv","","null","resources/maskTrios/BBA1.jpg","null","",NA,NA,NA,NA,""
"image-keyboard-response",490,733736,"0.0-3.159-2.159","3zv70ldf85sybox",405,"20.csv","","null","resources/images/fishbone.png","null","",NA,NA,NA,NA,""
"image-keyboard-response",491,735289,"0.0-3.160-0.160","3zv70ldf85sybox",405,"20.csv","","1550.3999999761581","resources/trios/L4T4A2.jpg","39","restless",0.4,0.4,0.4,0.637891329746849,"false"
"image-keyboard-response",492,735695,"0.0-3.160-1.160","3zv70ldf85sybox",405,"20.csv","","null","resources/maskTrios/BBA2.jpg","null","",NA,NA,NA,NA,""
"image-keyboard-response",493,736902,"0.0-3.160-2.160","3zv70ldf85sybox",405,"20.csv","","null","resources/images/fishbone.png","null","",NA,NA,NA,NA,""
"image-keyboard-response",494,738124,"0.0-3.161-0.161","3zv70ldf85sybox",405,"20.csv","","1219.300000011921","resources/trios/L4T4A2.jpg","38","restless",0.4,0.4,0.4,0.644252241150924,"false"
"image-keyboard-response",495,738531,"0.0-3.161-1.161","3zv70ldf85sybox",405,"20.csv","","null","resources/maskTrios/BT4B.jpg","null","",NA,NA,NA,NA,""
"image-keyboard-response",496,739736,"0.0-3.161-2.161","3zv70ldf85sybox",405,"20.csv","","null","resources/images/fishbone.png","null","",NA,NA,NA,NA,""
"image-keyboard-response",497,741475,"0.0-3.162-0.162","3zv70ldf85sybox",405,"20.csv","","1737.0999999642372","resources/trios/L4T1A1.jpg","39","restless",0.4,0.5,0.4,0.689891326177203,"false"
"image-keyboard-response",498,741883,"0.0-3.162-1.162","3zv70ldf85sybox",405,"20.csv","","null","resources/maskTrios/BBA1.jpg","null","",NA,NA,NA,NA,""
"image-keyboard-response",499,743090,"0.0-3.162-2.162","3zv70ldf85sybox",405,"20.csv","","null","resources/images/fishbone.png","null","",NA,NA,NA,NA,""
"image-keyboard-response",500,745163,"0.0-3.163-0.163","3zv70ldf85sybox",405,"20.csv","","2071.199999988079","resources/trios/L4T1A2.jpg","38","restless",0.4,0.5,0.4,0.543668975459708,"false"
"image-keyboard-response",501,745571,"0.0-3.163-1.163","3zv70ldf85sybox",405,"20.csv","","null","resources/maskTrios/BT1B.jpg","null","",NA,NA,NA,NA,""
"image-keyboard-response",502,746778,"0.0-3.163-2.163","3zv70ldf85sybox",405,"20.csv","","null","resources/images/fishbone.png","null","",NA,NA,NA,NA,""
"image-keyboard-response",503,749586,"0.0-3.164-0.164","3zv70ldf85sybox",405,"20.csv","","2806.2999999523163","resources/trios/L1T4A1.jpg","37","restless",0.4,0.6,0.4,0.711801655240745,"false"
"image-keyboard-response",504,749994,"0.0-3.164-1.164","3zv70ldf85sybox",405,"20.csv","","null","resources/maskTrios/L1BB.jpg","null","",NA,NA,NA,NA,""
"image-keyboard-response",505,751201,"0.0-3.164-2.164","3zv70ldf85sybox",405,"20.csv","","null","resources/images/fishbone.png","null","",NA,NA,NA,NA,""
"image-keyboard-response",506,752080,"0.0-3.165-0.165","3zv70ldf85sybox",405,"20.csv","","876.7999999523163","resources/trios/L4T1A2.jpg","39","restless",0.4,0.6,0.4,0.808208667558633,"false"
"image-keyboard-response",507,752487,"0.0-3.165-1.165","3zv70ldf85sybox",405,"20.csv","","null","resources/maskTrios/BBA2.jpg","null","",NA,NA,NA,NA,""
"image-keyboard-response",508,753692,"0.0-3.165-2.165","3zv70ldf85sybox",405,"20.csv","","null","resources/images/fishbone.png","null","",NA,NA,NA,NA,""
"image-keyboard-response",509,754850,"0.0-3.166-0.166","3zv70ldf85sybox",405,"20.csv","","1155","resources/trios/L4T1A1.jpg","39","restless",0.4,0.6,0.4,0.366648971839747,"true"
"image-keyboard-response",510,755252,"0.0-3.166-1.166","3zv70ldf85sybox",405,"20.csv","","null","resources/maskTrios/BBA1.jpg","null","",NA,NA,NA,NA,""
"image-keyboard-response",511,756460,"0.0-3.166-2.166","3zv70ldf85sybox",405,"20.csv","","null","resources/images/coin2.png","null","",NA,NA,NA,NA,""
"image-keyboard-response",512,757952,"0.0-3.167-0.167","3zv70ldf85sybox",405,"20.csv","","1490.6000000238419","resources/trios/L4T4A2.jpg","38","restless",0.4,0.6,0.4,0.540904436973249,"true"
"image-keyboard-response",513,758357,"0.0-3.167-1.167","3zv70ldf85sybox",405,"20.csv","","null","resources/maskTrios/BT4B.jpg","null","",NA,NA,NA,NA,""
"image-keyboard-response",514,759565,"0.0-3.167-2.167","3zv70ldf85sybox",405,"20.csv","","null","resources/images/coin2.png","null","",NA,NA,NA,NA,""
"image-keyboard-response",515,761228,"0.0-3.168-0.168","3zv70ldf85sybox",405,"20.csv","","1661.199999988079","resources/trios/L1T1A2.jpg","37","restless",0.5,0.6,0.4,0.450625260800802,"true"
"image-keyboard-response",516,761635,"0.0-3.168-1.168","3zv70ldf85sybox",405,"20.csv","","null","resources/maskTrios/L1BB.jpg","null","",NA,NA,NA,NA,""
"image-keyboard-response",517,762838,"0.0-3.168-2.168","3zv70ldf85sybox",405,"20.csv","","null","resources/images/coin2.png","null","",NA,NA,NA,NA,""
"image-keyboard-response",518,767478,"0.0-3.169-0.169","3zv70ldf85sybox",405,"20.csv","","4637.399999976158","resources/trios/L4T4A1.jpg","39","restless",0.5,0.6,0.4,0.902555008815447,"false"
"image-keyboard-response",519,767886,"0.0-3.169-1.169","3zv70ldf85sybox",405,"20.csv","","null","resources/maskTrios/BBA1.jpg","null","",NA,NA,NA,NA,""
"image-keyboard-response",520,769091,"0.0-3.169-2.169","3zv70ldf85sybox",405,"20.csv","","null","resources/images/fishbone.png","null","",NA,NA,NA,NA,""
"image-keyboard-response",521,771030,"0.0-3.170-0.170","3zv70ldf85sybox",405,"20.csv","","1936.699999988079","resources/trios/L1T1A2.jpg","37","restless",0.5,0.6,0.4,0.563886303981126,"false"
"image-keyboard-response",522,771437,"0.0-3.170-1.170","3zv70ldf85sybox",405,"20.csv","","null","resources/maskTrios/L1BB.jpg","null","",NA,NA,NA,NA,""
"image-keyboard-response",523,772641,"0.0-3.170-2.170","3zv70ldf85sybox",405,"20.csv","","null","resources/images/fishbone.png","null","",NA,NA,NA,NA,""
"image-keyboard-response",524,774635,"0.0-3.171-0.171","3zv70ldf85sybox",405,"20.csv","","1991.3999999761581","resources/trios/L4T4A1.jpg","38","restless",0.5,0.6,0.3,0.893208239620287,"false"
"image-keyboard-response",525,775039,"0.0-3.171-1.171","3zv70ldf85sybox",405,"20.csv","","null","resources/maskTrios/BT4B.jpg","null","",NA,NA,NA,NA,""
"image-keyboard-response",526,776241,"0.0-3.171-2.171","3zv70ldf85sybox",405,"20.csv","","null","resources/images/fishbone.png","null","",NA,NA,NA,NA,""
"image-keyboard-response",527,776884,"0.0-3.172-0.172","3zv70ldf85sybox",405,"20.csv","","640.5","resources/trios/L1T1A1.jpg","38","restless",0.5,0.6,0.3,0.18344672902308,"true"
"image-keyboard-response",528,777292,"0.0-3.172-1.172","3zv70ldf85sybox",405,"20.csv","","null","resources/maskTrios/BT1B.jpg","null","",NA,NA,NA,NA,""
"image-keyboard-response",529,778495,"0.0-3.172-2.172","3zv70ldf85sybox",405,"20.csv","","null","resources/images/coin2.png","null","",NA,NA,NA,NA,""
"image-keyboard-response",530,781700,"0.0-3.173-0.173","3zv70ldf85sybox",405,"20.csv","","3202.400000035763","resources/trios/L4T4A2.jpg","39","restless",0.5,0.6,0.3,0.459307167930062,"false"
"image-keyboard-response",531,782107,"0.0-3.173-1.173","3zv70ldf85sybox",405,"20.csv","","null","resources/maskTrios/BBA2.jpg","null","",NA,NA,NA,NA,""
"image-keyboard-response",532,783311,"0.0-3.173-2.173","3zv70ldf85sybox",405,"20.csv","","null","resources/images/fishbone.png","null","",NA,NA,NA,NA,""
"image-keyboard-response",533,783832,"0.0-3.174-0.174","3zv70ldf85sybox",405,"20.csv","","519.1999999880791","resources/trios/L1T4A1.jpg","37","restless",0.5,0.6,0.3,0.201019220535726,"true"
"image-keyboard-response",534,784236,"0.0-3.174-1.174","3zv70ldf85sybox",405,"20.csv","","null","resources/maskTrios/L1BB.jpg","null","",NA,NA,NA,NA,""
"image-keyboard-response",535,785440,"0.0-3.174-2.174","3zv70ldf85sybox",405,"20.csv","","null","resources/images/coin2.png","null","",NA,NA,NA,NA,""
"image-keyboard-response",536,788300,"0.0-3.175-0.175","3zv70ldf85sybox",405,"20.csv","","2857.300000011921","resources/trios/L4T4A1.jpg","39","restless",0.5,0.6,0.3,0.353566390220492,"false"
"image-keyboard-response",537,788703,"0.0-3.175-1.175","3zv70ldf85sybox",405,"20.csv","","null","resources/maskTrios/BBA1.jpg","null","",NA,NA,NA,NA,""
"image-keyboard-response",538,789909,"0.0-3.175-2.175","3zv70ldf85sybox",405,"20.csv","","null","resources/images/fishbone.png","null","",NA,NA,NA,NA,""
"image-keyboard-response",539,792589,"0.0-3.176-0.176","3zv70ldf85sybox",405,"20.csv","","2677.5","resources/trios/L4T4A2.jpg","38","restless",0.5,0.6,0.3,0.134241453511199,"true"
"image-keyboard-response",540,792995,"0.0-3.176-1.176","3zv70ldf85sybox",405,"20.csv","","null","resources/maskTrios/BT4B.jpg","null","",NA,NA,NA,NA,""
"image-keyboard-response",541,794202,"0.0-3.176-2.176","3zv70ldf85sybox",405,"20.csv","","null","resources/images/coin2.png","null","",NA,NA,NA,NA,""
"image-keyboard-response",542,797102,"0.0-3.177-0.177","3zv70ldf85sybox",405,"20.csv","","2897.5","resources/trios/L4T1A2.jpg","39","restless",0.5,0.6,0.3,0.223143434120116,"true"
"image-keyboard-response",543,797506,"0.0-3.177-1.177","3zv70ldf85sybox",405,"20.csv","","null","resources/maskTrios/BBA2.jpg","null","",NA,NA,NA,NA,""
"image-keyboard-response",544,798714,"0.0-3.177-2.177","3zv70ldf85sybox",405,"20.csv","","null","resources/images/coin2.png","null","",NA,NA,NA,NA,""
"image-keyboard-response",545,804510,"0.0-3.178-0.178","3zv70ldf85sybox",405,"20.csv","","5793.399999976158","resources/trios/L4T1A2.jpg","39","restless",0.6,0.6,0.3,0.400202227396935,"false"
"image-keyboard-response",546,804914,"0.0-3.178-1.178","3zv70ldf85sybox",405,"20.csv","","null","resources/maskTrios/BBA2.jpg","null","",NA,NA,NA,NA,""
"image-keyboard-response",547,806121,"0.0-3.178-2.178","3zv70ldf85sybox",405,"20.csv","","null","resources/images/fishbone.png","null","",NA,NA,NA,NA,""
"image-keyboard-response",548,809214,"0.0-3.179-0.179","3zv70ldf85sybox",405,"20.csv","","3090.600000023842","resources/trios/L4T1A1.jpg","39","restless",0.6,0.6,0.3,0.198361839619927,"true"
"image-keyboard-response",549,809620,"0.0-3.179-1.179","3zv70ldf85sybox",405,"20.csv","","null","resources/maskTrios/BBA1.jpg","null","",NA,NA,NA,NA,""
"image-keyboard-response",550,810827,"0.0-3.179-2.179","3zv70ldf85sybox",405,"20.csv","","null","resources/images/coin2.png","null","",NA,NA,NA,NA,""
"image-keyboard-response",551,814819,"0.0-3.180-0.180","3zv70ldf85sybox",405,"20.csv","","3989.5","resources/trios/L1T1A2.jpg","37","restless",0.6,0.6,0.3,0.160460254652303,"true"
"image-keyboard-response",552,815223,"0.0-3.180-1.180","3zv70ldf85sybox",405,"20.csv","","null","resources/maskTrios/L1BB.jpg","null","",NA,NA,NA,NA,""
"image-keyboard-response",553,816430,"0.0-3.180-2.180","3zv70ldf85sybox",405,"20.csv","","null","resources/images/coin2.png","null","",NA,NA,NA,NA,""
"image-keyboard-response",554,866843,"0.0-3.181-0.181","3zv70ldf85sybox",405,"20.csv","","50411","resources/trios/L4T4A1.jpg","38","restless",0.6,0.6,0.3,0.555027009878238,"true"
"image-keyboard-response",555,867250,"0.0-3.181-1.181","3zv70ldf85sybox",405,"20.csv","","null","resources/maskTrios/BT4B.jpg","null","",NA,NA,NA,NA,""
"image-keyboard-response",556,868453,"0.0-3.181-2.181","3zv70ldf85sybox",405,"20.csv","","null","resources/images/coin2.png","null","",NA,NA,NA,NA,""
"image-keyboard-response",557,871074,"0.0-3.182-0.182","3zv70ldf85sybox",405,"20.csv","","2618.600000023842","resources/trios/L1T4A2.jpg","37","restless",0.6,0.6,0.3,0.804220958657575,"false"
"image-keyboard-response",558,871480,"0.0-3.182-1.182","3zv70ldf85sybox",405,"20.csv","","null","resources/maskTrios/L1BB.jpg","null","",NA,NA,NA,NA,""
"image-keyboard-response",559,872687,"0.0-3.182-2.182","3zv70ldf85sybox",405,"20.csv","","null","resources/images/fishbone.png","null","",NA,NA,NA,NA,""
"image-keyboard-response",560,888452,"0.0-3.183-0.183","3zv70ldf85sybox",405,"20.csv","","15763.699999988079","resources/trios/L1T1A1.jpg","37","restless",0.6,0.6,0.3,0.848036704543164,"false"
"image-keyboard-response",561,888857,"0.0-3.183-1.183","3zv70ldf85sybox",405,"20.csv","","null","resources/maskTrios/L1BB.jpg","null","",NA,NA,NA,NA,""
"image-keyboard-response",562,890064,"0.0-3.183-2.183","3zv70ldf85sybox",405,"20.csv","","null","resources/images/fishbone.png","null","",NA,NA,NA,NA,""
"image-keyboard-response",563,893280,"0.0-3.184-0.184","3zv70ldf85sybox",405,"20.csv","","3213.7000000476837","resources/trios/L4T4A2.jpg","38","restless",0.6,0.6,0.3,0.691732284068874,"false"
"image-keyboard-response",564,893687,"0.0-3.184-1.184","3zv70ldf85sybox",405,"20.csv","","null","resources/maskTrios/BT4B.jpg","null","",NA,NA,NA,NA,""
"image-keyboard-response",565,894890,"0.0-3.184-2.184","3zv70ldf85sybox",405,"20.csv","","null","resources/images/fishbone.png","null","",NA,NA,NA,NA,""
"image-keyboard-response",566,897465,"0.0-3.185-0.185","3zv70ldf85sybox",405,"20.csv","","2572.400000035763","resources/trios/L1T4A1.jpg","37","restless",0.6,0.6,0.3,0.885179683894464,"false"
"image-keyboard-response",567,897872,"0.0-3.185-1.185","3zv70ldf85sybox",405,"20.csv","","null","resources/maskTrios/L1BB.jpg","null","",NA,NA,NA,NA,""
"image-keyboard-response",568,899079,"0.0-3.185-2.185","3zv70ldf85sybox",405,"20.csv","","null","resources/images/fishbone.png","null","",NA,NA,NA,NA,""
"image-keyboard-response",569,902291,"0.0-3.186-0.186","3zv70ldf85sybox",405,"20.csv","","3209.2999999523163","resources/trios/L4T1A2.jpg","39","restless",0.6,0.6,0.3,0.0541514312544176,"true"
"image-keyboard-response",570,902695,"0.0-3.186-1.186","3zv70ldf85sybox",405,"20.csv","","null","resources/maskTrios/BBA2.jpg","null","",NA,NA,NA,NA,""
"image-keyboard-response",571,903902,"0.0-3.186-2.186","3zv70ldf85sybox",405,"20.csv","","null","resources/images/coin2.png","null","",NA,NA,NA,NA,""
"image-keyboard-response",572,904983,"0.0-3.187-0.187","3zv70ldf85sybox",405,"20.csv","","1078.800000011921","resources/trios/L4T1A2.jpg","39","restless",0.6,0.5,0.3,0.331942980893934,"false"
"image-keyboard-response",573,905390,"0.0-3.187-1.187","3zv70ldf85sybox",405,"20.csv","","null","resources/maskTrios/BBA2.jpg","null","",NA,NA,NA,NA,""
"image-keyboard-response",574,906595,"0.0-3.187-2.187","3zv70ldf85sybox",405,"20.csv","","null","resources/images/fishbone.png","null","",NA,NA,NA,NA,""
"image-keyboard-response",575,930811,"0.0-3.188-0.188","3zv70ldf85sybox",405,"20.csv","","24214.600000023842","resources/trios/L1T4A2.jpg","37","restless",0.6,0.5,0.3,0.0544147814851987,"true"
"image-keyboard-response",576,931216,"0.0-3.188-1.188","3zv70ldf85sybox",405,"20.csv","","null","resources/maskTrios/L1BB.jpg","null","",NA,NA,NA,NA,""
"image-keyboard-response",577,932422,"0.0-3.188-2.188","3zv70ldf85sybox",405,"20.csv","","null","resources/images/coin2.png","null","",NA,NA,NA,NA,""
"image-keyboard-response",578,933896,"0.0-3.189-0.189","3zv70ldf85sybox",405,"20.csv","","1471.5","resources/trios/L1T1A1.jpg","37","restless",0.6,0.5,0.3,0.947300019626176,"false"
"image-keyboard-response",579,934301,"0.0-3.189-1.189","3zv70ldf85sybox",405,"20.csv","","null","resources/maskTrios/L1BB.jpg","null","",NA,NA,NA,NA,""
"image-keyboard-response",580,935508,"0.0-3.189-2.189","3zv70ldf85sybox",405,"20.csv","","null","resources/images/fishbone.png","null","",NA,NA,NA,NA,""
"image-keyboard-response",581,980629,"0.0-3.190-0.190","3zv70ldf85sybox",405,"20.csv","","45118.89999997616","resources/trios/L1T1A2.jpg","37","restless",0.6,0.5,0.3,0.858948407175254,"false"
"image-keyboard-response",582,981035,"0.0-3.190-1.190","3zv70ldf85sybox",405,"20.csv","","null","resources/maskTrios/L1BB.jpg","null","",NA,NA,NA,NA,""
"image-keyboard-response",583,982240,"0.0-3.190-2.190","3zv70ldf85sybox",405,"20.csv","","null","resources/images/fishbone.png","null","",NA,NA,NA,NA,""
"image-keyboard-response",584,982916,"0.0-3.191-0.191","3zv70ldf85sybox",405,"20.csv","","673.6000000238419","resources/trios/L1T1A2.jpg","37","restless",0.6,0.6,0.3,0.117867291736415,"true"
"image-keyboard-response",585,983322,"0.0-3.191-1.191","3zv70ldf85sybox",405,"20.csv","","null","resources/maskTrios/L1BB.jpg","null","",NA,NA,NA,NA,""
"image-keyboard-response",586,984529,"0.0-3.191-2.191","3zv70ldf85sybox",405,"20.csv","","null","resources/images/coin2.png","null","",NA,NA,NA,NA,""
"image-keyboard-response",587,985429,"0.0-3.192-0.192","3zv70ldf85sybox",405,"20.csv","","897.1000000238419","resources/trios/L1T4A2.jpg","37","restless",0.6,0.6,0.3,0.273263851558892,"true"
"image-keyboard-response",588,985836,"0.0-3.192-1.192","3zv70ldf85sybox",405,"20.csv","","null","resources/maskTrios/L1BB.jpg","null","",NA,NA,NA,NA,""
"image-keyboard-response",589,987044,"0.0-3.192-2.192","3zv70ldf85sybox",405,"20.csv","","null","resources/images/coin2.png","null","",NA,NA,NA,NA,""
"image-keyboard-response",590,987972,"0.0-3.193-0.193","3zv70ldf85sybox",405,"20.csv","","926.1999999880791","resources/trios/L1T4A1.jpg","37","restless",0.6,0.5,0.3,0.93220156597782,"false"
"image-keyboard-response",591,988376,"0.0-3.193-1.193","3zv70ldf85sybox",405,"20.csv","","null","resources/maskTrios/L1BB.jpg","null","",NA,NA,NA,NA,""
"image-keyboard-response",592,989580,"0.0-3.193-2.193","3zv70ldf85sybox",405,"20.csv","","null","resources/images/fishbone.png","null","",NA,NA,NA,NA,""
"image-keyboard-response",593,991515,"0.0-3.194-0.194","3zv70ldf85sybox",405,"20.csv","","1932.7000000476837","resources/trios/L4T1A2.jpg","39","restless",0.6,0.5,0.3,0.964216565814141,"false"
"image-keyboard-response",594,991918,"0.0-3.194-1.194","3zv70ldf85sybox",405,"20.csv","","null","resources/maskTrios/BBA2.jpg","null","",NA,NA,NA,NA,""
"image-keyboard-response",595,993122,"0.0-3.194-2.194","3zv70ldf85sybox",405,"20.csv","","null","resources/images/fishbone.png","null","",NA,NA,NA,NA,""
"image-keyboard-response",596,994640,"0.0-3.195-0.195","3zv70ldf85sybox",405,"20.csv","","1515.6000000238419","resources/trios/L4T4A2.jpg","38","restless",0.7,0.5,0.3,0.605504148687811,"false"
"image-keyboard-response",597,995047,"0.0-3.195-1.195","3zv70ldf85sybox",405,"20.csv","","null","resources/maskTrios/BT4B.jpg","null","",NA,NA,NA,NA,""
"image-keyboard-response",598,996251,"0.0-3.195-2.195","3zv70ldf85sybox",405,"20.csv","","null","resources/images/fishbone.png","null","",NA,NA,NA,NA,""
"image-keyboard-response",599,1003270,"0.0-3.196-0.196","3zv70ldf85sybox",405,"20.csv","","7016.099999964237","resources/trios/L4T4A1.jpg","39","restless",0.6,0.5,0.3,0.987638100799619,"false"
"image-keyboard-response",600,1003678,"0.0-3.196-1.196","3zv70ldf85sybox",405,"20.csv","","null","resources/maskTrios/BBA1.jpg","null","",NA,NA,NA,NA,""
"image-keyboard-response",601,1004881,"0.0-3.196-2.196","3zv70ldf85sybox",405,"20.csv","","null","resources/images/fishbone.png","null","",NA,NA,NA,NA,""
"image-keyboard-response",602,1009256,"0.0-3.197-0.197","3zv70ldf85sybox",405,"20.csv","","4372.800000011921","resources/trios/L4T4A1.jpg","39","restless",0.6,0.5,0.3,0.102539940323847,"true"
"image-keyboard-response",603,1009663,"0.0-3.197-1.197","3zv70ldf85sybox",405,"20.csv","","null","resources/maskTrios/BBA1.jpg","null","",NA,NA,NA,NA,""
"image-keyboard-response",604,1010869,"0.0-3.197-2.197","3zv70ldf85sybox",405,"20.csv","","null","resources/images/coin2.png","null","",NA,NA,NA,NA,""
"image-keyboard-response",605,1012517,"0.0-3.198-0.198","3zv70ldf85sybox",405,"20.csv","","1645.5999999642372","resources/trios/L1T1A2.jpg","37","restless",0.6,0.6,0.3,0.724867331344206,"false"
"image-keyboard-response",606,1012921,"0.0-3.198-1.198","3zv70ldf85sybox",405,"20.csv","","null","resources/maskTrios/L1BB.jpg","null","",NA,NA,NA,NA,""
"image-keyboard-response",607,1014124,"0.0-3.198-2.198","3zv70ldf85sybox",405,"20.csv","","null","resources/images/fishbone.png","null","",NA,NA,NA,NA,""
"image-keyboard-response",608,1015980,"0.0-3.199-0.199","3zv70ldf85sybox",405,"20.csv","","1853.699999988079","resources/trios/L1T4A1.jpg","37","restless",0.6,0.6,0.3,0.508668070079766,"true"
"image-keyboard-response",609,1016385,"0.0-3.199-1.199","3zv70ldf85sybox",405,"20.csv","","null","resources/maskTrios/L1BB.jpg","null","",NA,NA,NA,NA,""
