"trial_type","trial_index","time_elapsed","internal_node_id","subject","participantCode","walkNumber","success","rt","stimulus","key_press","test_part","leftProb","midProb","rightProb","generatedNum","correct"
"pavlovia",0,1031,"0.0-0.0","1z5t5teqo101ox9",517,"140.csv","","","","","",NA,NA,NA,NA,""
"fullscreen",1,7515,"0.0-1.0","1z5t5teqo101ox9",517,"140.csv","true","","","","",NA,NA,NA,NA,""
"html-keyboard-response",2,43686,"0.0-2.0-0.0","1z5t5teqo101ox9",517,"140.csv","","36169.200000047684","<p><font size='6'>Arrrgh!</p></font><p>Can you be the best pirate? Try to find lots of gold! But beware, some islands have more gold than others, and over time, the island with the most gold may change. Can YOU figure it out? </p><font size='6'>GOOD LUCK, CAPTAIN!!!</font><p>Press any key to begin</p>","32","",NA,NA,NA,NA,""
"image-keyboard-response",3,46691,"0.0-2.0-1.0","1z5t5teqo101ox9",517,"140.csv","","null","resources/image_sets/111.png","null","",NA,NA,NA,NA,""
"image-keyboard-response",4,64076,"0.0-2.0-2.0","1z5t5teqo101ox9",517,"140.csv","","17382.199999928474","resources/image_sets/left_highlight.png","37","",NA,NA,NA,NA,""
"image-keyboard-response",5,70996,"0.0-2.0-3.0","1z5t5teqo101ox9",517,"140.csv","","6918.199999928474","resources/image_sets/mid_highlight.png","38","",NA,NA,NA,NA,""
"image-keyboard-response",6,73665,"0.0-2.0-4.0","1z5t5teqo101ox9",517,"140.csv","","2667.5","resources/image_sets/right_highlight.png","39","",NA,NA,NA,NA,""
"image-keyboard-response",7,80842,"0.0-2.0-5.0","1z5t5teqo101ox9",517,"140.csv","","7175.200000047684","resources/image_sets/111.png","13","",NA,NA,NA,NA,""
"image-keyboard-response",8,100009,"0.0-2.0-6.0","1z5t5teqo101ox9",517,"140.csv","","19165.299999952316","resources/images/coin2.png","13","",NA,NA,NA,NA,""
"image-keyboard-response",9,103762,"0.0-2.0-7.0","1z5t5teqo101ox9",517,"140.csv","","3751.2000000476837","resources/images/fishbone.png","13","",NA,NA,NA,NA,""
"html-keyboard-response",10,126020,"0.0-2.0-8.0","1z5t5teqo101ox9",517,"140.csv","","22256.900000095367","<p>Your first journey will be a long one, but you will get a well deserved break at the end</p><p>After the break you will have four more journeys, but each will be much shorter than the first, and you will have breaks in between each</p><p>Press Enter to begin</p>","13","",NA,NA,NA,NA,""
"image-keyboard-response",11,127246,"0.0-3.0-0.0","1z5t5teqo101ox9",517,"140.csv","","1223.3999999761581","resources/trios/L4T1A3.jpg","37","restless",0.7,0.3,0.9,0.980152731493936,"false"
"image-keyboard-response",12,127652,"0.0-3.0-1.0","1z5t5teqo101ox9",517,"140.csv","","null","resources/maskTrios/L4BB.jpg","null","",NA,NA,NA,NA,""
"image-keyboard-response",13,128859,"0.0-3.0-2.0","1z5t5teqo101ox9",517,"140.csv","","null","resources/images/fishbone.png","null","",NA,NA,NA,NA,""
"image-keyboard-response",14,130796,"0.0-3.1-0.1","1z5t5teqo101ox9",517,"140.csv","","1933.3000000715256","resources/trios/L2T1A3.jpg","39","restless",0.7,0.2,0.9,0.851599563170654,"true"
"image-keyboard-response",15,131202,"0.0-3.1-1.1","1z5t5teqo101ox9",517,"140.csv","","null","resources/maskTrios/BBA3.jpg","null","",NA,NA,NA,NA,""
"image-keyboard-response",16,132410,"0.0-3.1-2.1","1z5t5teqo101ox9",517,"140.csv","","null","resources/images/coin2.png","null","",NA,NA,NA,NA,""
"image-keyboard-response",17,134150,"0.0-3.2-0.2","1z5t5teqo101ox9",517,"140.csv","","1737.7000000476837","resources/trios/L4T1A2.jpg","38","restless",0.7,0.1,0.9,0.218184414420227,"false"
"image-keyboard-response",18,134558,"0.0-3.2-1.2","1z5t5teqo101ox9",517,"140.csv","","null","resources/maskTrios/BT1B.jpg","null","",NA,NA,NA,NA,""
"image-keyboard-response",19,135765,"0.0-3.2-2.2","1z5t5teqo101ox9",517,"140.csv","","null","resources/images/fishbone.png","null","",NA,NA,NA,NA,""
"image-keyboard-response",20,136291,"0.0-3.3-0.3","1z5t5teqo101ox9",517,"140.csv","","523","resources/trios/L4T1A3.jpg","39","restless",0.7,0.2,0.8,0.960209681515395,"false"
"image-keyboard-response",21,136697,"0.0-3.3-1.3","1z5t5teqo101ox9",517,"140.csv","","null","resources/maskTrios/BBA3.jpg","null","",NA,NA,NA,NA,""
"image-keyboard-response",22,137904,"0.0-3.3-2.3","1z5t5teqo101ox9",517,"140.csv","","null","resources/images/fishbone.png","null","",NA,NA,NA,NA,""
"image-keyboard-response",23,138493,"0.0-3.4-0.4","1z5t5teqo101ox9",517,"140.csv","","586.8000000715256","resources/trios/L4T1A3.jpg","37","restless",0.7,0.1,0.8,0.829083858914023,"false"
"image-keyboard-response",24,138901,"0.0-3.4-1.4","1z5t5teqo101ox9",517,"140.csv","","null","resources/maskTrios/L4BB.jpg","null","",NA,NA,NA,NA,""
"image-keyboard-response",25,140108,"0.0-3.4-2.4","1z5t5teqo101ox9",517,"140.csv","","null","resources/images/fishbone.png","null","",NA,NA,NA,NA,""
"image-keyboard-response",26,141717,"0.0-3.5-0.5","1z5t5teqo101ox9",517,"140.csv","","1606.9000000953674","resources/trios/L2T1A3.jpg","38","restless",0.6,0.1,0.8,0.337379016649601,"false"
"image-keyboard-response",27,142122,"0.0-3.5-1.5","1z5t5teqo101ox9",517,"140.csv","","null","resources/maskTrios/BT1B.jpg","null","",NA,NA,NA,NA,""
"image-keyboard-response",28,143324,"0.0-3.5-2.5","1z5t5teqo101ox9",517,"140.csv","","null","resources/images/fishbone.png","null","",NA,NA,NA,NA,""
"image-keyboard-response",29,144863,"0.0-3.6-0.6","1z5t5teqo101ox9",517,"140.csv","","1537.5","resources/trios/L4T2A3.jpg","38","restless",0.6,0.1,0.8,0.239542062590309,"false"
"image-keyboard-response",30,145266,"0.0-3.6-1.6","1z5t5teqo101ox9",517,"140.csv","","null","resources/maskTrios/BT2B.jpg","null","",NA,NA,NA,NA,""
"image-keyboard-response",31,146469,"0.0-3.6-2.6","1z5t5teqo101ox9",517,"140.csv","","null","resources/images/fishbone.png","null","",NA,NA,NA,NA,""
"image-keyboard-response",32,148191,"0.0-3.7-0.7","1z5t5teqo101ox9",517,"140.csv","","1719.2999999523163","resources/trios/L4T1A3.jpg","37","restless",0.6,0.1,0.7,0.678178402785053,"false"
"image-keyboard-response",33,148598,"0.0-3.7-1.7","1z5t5teqo101ox9",517,"140.csv","","null","resources/maskTrios/L4BB.jpg","null","",NA,NA,NA,NA,""
"image-keyboard-response",34,149802,"0.0-3.7-2.7","1z5t5teqo101ox9",517,"140.csv","","null","resources/images/fishbone.png","null","",NA,NA,NA,NA,""
"image-keyboard-response",35,151619,"0.0-3.8-0.8","1z5t5teqo101ox9",517,"140.csv","","1815.6000000238419","resources/trios/L4T1A3.jpg","39","restless",0.6,0.1,0.7,0.614252136335578,"true"
"image-keyboard-response",36,152026,"0.0-3.8-1.8","1z5t5teqo101ox9",517,"140.csv","","null","resources/maskTrios/BBA3.jpg","null","",NA,NA,NA,NA,""
"image-keyboard-response",37,153231,"0.0-3.8-2.8","1z5t5teqo101ox9",517,"140.csv","","null","resources/images/coin2.png","null","",NA,NA,NA,NA,""
"image-keyboard-response",38,155286,"0.0-3.9-0.9","1z5t5teqo101ox9",517,"140.csv","","2052.2999999523163","resources/trios/L4T1A3.jpg","38","restless",0.6,0.1,0.7,0.21403193247783,"false"
"image-keyboard-response",39,155693,"0.0-3.9-1.9","1z5t5teqo101ox9",517,"140.csv","","null","resources/maskTrios/BT1B.jpg","null","",NA,NA,NA,NA,""
"image-keyboard-response",40,156900,"0.0-3.9-2.9","1z5t5teqo101ox9",517,"140.csv","","null","resources/images/fishbone.png","null","",NA,NA,NA,NA,""
"image-keyboard-response",41,158389,"0.0-3.10-0.10","1z5t5teqo101ox9",517,"140.csv","","1488.2000000476837","resources/trios/L2T1A2.jpg","39","restless",0.6,0.1,0.7,0.441597660973876,"true"
"image-keyboard-response",42,158793,"0.0-3.10-1.10","1z5t5teqo101ox9",517,"140.csv","","null","resources/maskTrios/BBA2.jpg","null","",NA,NA,NA,NA,""
"image-keyboard-response",43,160000,"0.0-3.10-2.10","1z5t5teqo101ox9",517,"140.csv","","null","resources/images/coin2.png","null","",NA,NA,NA,NA,""
"image-keyboard-response",44,160772,"0.0-3.11-0.11","1z5t5teqo101ox9",517,"140.csv","","769.5","resources/trios/L2T1A2.jpg","39","restless",0.6,0.1,0.7,0.685843010942503,"true"
"image-keyboard-response",45,161180,"0.0-3.11-1.11","1z5t5teqo101ox9",517,"140.csv","","null","resources/maskTrios/BBA2.jpg","null","",NA,NA,NA,NA,""
"image-keyboard-response",46,162385,"0.0-3.11-2.11","1z5t5teqo101ox9",517,"140.csv","","null","resources/images/coin2.png","null","",NA,NA,NA,NA,""
"image-keyboard-response",47,163581,"0.0-3.12-0.12","1z5t5teqo101ox9",517,"140.csv","","1193.1999999284744","resources/trios/L4T2A3.jpg","39","restless",0.6,0.1,0.7,0.979734226340284,"false"
"image-keyboard-response",48,163984,"0.0-3.12-1.12","1z5t5teqo101ox9",517,"140.csv","","null","resources/maskTrios/BBA3.jpg","null","",NA,NA,NA,NA,""
"image-keyboard-response",49,165187,"0.0-3.12-2.12","1z5t5teqo101ox9",517,"140.csv","","null","resources/images/fishbone.png","null","",NA,NA,NA,NA,""
"image-keyboard-response",50,166830,"0.0-3.13-0.13","1z5t5teqo101ox9",517,"140.csv","","1640.2999999523163","resources/trios/L2T1A3.jpg","37","restless",0.6,0.1,0.7,0.766310564692265,"false"
"image-keyboard-response",51,167238,"0.0-3.13-1.13","1z5t5teqo101ox9",517,"140.csv","","null","resources/maskTrios/L2BB.jpg","null","",NA,NA,NA,NA,""
"image-keyboard-response",52,168445,"0.0-3.13-2.13","1z5t5teqo101ox9",517,"140.csv","","null","resources/images/fishbone.png","null","",NA,NA,NA,NA,""
"image-keyboard-response",53,168814,"0.0-3.14-0.14","1z5t5teqo101ox9",517,"140.csv","","366.2000000476837","resources/trios/L4T2A3.jpg","38","restless",0.6,0.1,0.7,0.768288618323721,"false"
"image-keyboard-response",54,169221,"0.0-3.14-1.14","1z5t5teqo101ox9",517,"140.csv","","null","resources/maskTrios/BT2B.jpg","null","",NA,NA,NA,NA,""
"image-keyboard-response",55,170428,"0.0-3.14-2.14","1z5t5teqo101ox9",517,"140.csv","","null","resources/images/fishbone.png","null","",NA,NA,NA,NA,""
"image-keyboard-response",56,170858,"0.0-3.15-0.15","1z5t5teqo101ox9",517,"140.csv","","427.2999999523163","resources/trios/L2T2A2.jpg","39","restless",0.6,0.1,0.7,0.571722147628106,"true"
"image-keyboard-response",57,171261,"0.0-3.15-1.15","1z5t5teqo101ox9",517,"140.csv","","null","resources/maskTrios/BBA2.jpg","null","",NA,NA,NA,NA,""
"image-keyboard-response",58,172465,"0.0-3.15-2.15","1z5t5teqo101ox9",517,"140.csv","","null","resources/images/coin2.png","null","",NA,NA,NA,NA,""
"image-keyboard-response",59,174771,"0.0-3.16-0.16","1z5t5teqo101ox9",517,"140.csv","","2303","resources/trios/L2T2A3.jpg","38","restless",0.6,0.1,0.7,0.638146607092846,"false"
"image-keyboard-response",60,175174,"0.0-3.16-1.16","1z5t5teqo101ox9",517,"140.csv","","null","resources/maskTrios/BT2B.jpg","null","",NA,NA,NA,NA,""
"image-keyboard-response",61,176382,"0.0-3.16-2.16","1z5t5teqo101ox9",517,"140.csv","","null","resources/images/fishbone.png","null","",NA,NA,NA,NA,""
"image-keyboard-response",62,176935,"0.0-3.17-0.17","1z5t5teqo101ox9",517,"140.csv","","550.8999999761581","resources/trios/L4T2A2.jpg","39","restless",0.6,0.1,0.7,0.376562225042823,"true"
"image-keyboard-response",63,177343,"0.0-3.17-1.17","1z5t5teqo101ox9",517,"140.csv","","null","resources/maskTrios/BBA2.jpg","null","",NA,NA,NA,NA,""
"image-keyboard-response",64,178550,"0.0-3.17-2.17","1z5t5teqo101ox9",517,"140.csv","","null","resources/images/coin2.png","null","",NA,NA,NA,NA,""
"image-keyboard-response",65,179223,"0.0-3.18-0.18","1z5t5teqo101ox9",517,"140.csv","","670.1000000238419","resources/trios/L2T2A3.jpg","39","restless",0.6,0.1,0.7,0.568182282099029,"true"
"image-keyboard-response",66,179626,"0.0-3.18-1.18","1z5t5teqo101ox9",517,"140.csv","","null","resources/maskTrios/BBA3.jpg","null","",NA,NA,NA,NA,""
"image-keyboard-response",67,180833,"0.0-3.18-2.18","1z5t5teqo101ox9",517,"140.csv","","null","resources/images/coin2.png","null","",NA,NA,NA,NA,""
"image-keyboard-response",68,181641,"0.0-3.19-0.19","1z5t5teqo101ox9",517,"140.csv","","805.3000000715256","resources/trios/L4T2A2.jpg","39","restless",0.6,0.1,0.7,0.329449768594544,"true"
"image-keyboard-response",69,182044,"0.0-3.19-1.19","1z5t5teqo101ox9",517,"140.csv","","null","resources/maskTrios/BBA2.jpg","null","",NA,NA,NA,NA,""
"image-keyboard-response",70,183255,"0.0-3.19-2.19","1z5t5teqo101ox9",517,"140.csv","","null","resources/images/coin2.png","null","",NA,NA,NA,NA,""
"image-keyboard-response",71,184020,"0.0-3.20-0.20","1z5t5teqo101ox9",517,"140.csv","","762.5","resources/trios/L4T2A2.jpg","39","restless",0.6,0.1,0.7,0.905354900606157,"false"
"image-keyboard-response",72,184427,"0.0-3.20-1.20","1z5t5teqo101ox9",517,"140.csv","","null","resources/maskTrios/BBA2.jpg","null","",NA,NA,NA,NA,""
"image-keyboard-response",73,185634,"0.0-3.20-2.20","1z5t5teqo101ox9",517,"140.csv","","null","resources/images/fishbone.png","null","",NA,NA,NA,NA,""
"image-keyboard-response",74,186397,"0.0-3.21-0.21","1z5t5teqo101ox9",517,"140.csv","","760.7999999523163","resources/trios/L4T2A3.jpg","39","restless",0.6,0.1,0.7,0.248660064677993,"true"
"image-keyboard-response",75,186803,"0.0-3.21-1.21","1z5t5teqo101ox9",517,"140.csv","","null","resources/maskTrios/BBA3.jpg","null","",NA,NA,NA,NA,""
"image-keyboard-response",76,188007,"0.0-3.21-2.21","1z5t5teqo101ox9",517,"140.csv","","null","resources/images/coin2.png","null","",NA,NA,NA,NA,""
"image-keyboard-response",77,189057,"0.0-3.22-0.22","1z5t5teqo101ox9",517,"140.csv","","1048.2000000476837","resources/trios/L4T1A2.jpg","39","restless",0.6,0.1,0.7,0.427516718839134,"true"
"image-keyboard-response",78,189461,"0.0-3.22-1.22","1z5t5teqo101ox9",517,"140.csv","","null","resources/maskTrios/BBA2.jpg","null","",NA,NA,NA,NA,""
"image-keyboard-response",79,190668,"0.0-3.22-2.22","1z5t5teqo101ox9",517,"140.csv","","null","resources/images/coin2.png","null","",NA,NA,NA,NA,""
"image-keyboard-response",80,191680,"0.0-3.23-0.23","1z5t5teqo101ox9",517,"140.csv","","1010.1999999284744","resources/trios/L2T1A2.jpg","39","restless",0.6,0.1,0.7,0.377679932740036,"true"
"image-keyboard-response",81,192083,"0.0-3.23-1.23","1z5t5teqo101ox9",517,"140.csv","","null","resources/maskTrios/BBA2.jpg","null","",NA,NA,NA,NA,""
"image-keyboard-response",82,193287,"0.0-3.23-2.23","1z5t5teqo101ox9",517,"140.csv","","null","resources/images/coin2.png","null","",NA,NA,NA,NA,""
"image-keyboard-response",83,193880,"0.0-3.24-0.24","1z5t5teqo101ox9",517,"140.csv","","590.2999999523163","resources/trios/L2T1A2.jpg","39","restless",0.6,0.2,0.7,0.122648663483233,"true"
"image-keyboard-response",84,194287,"0.0-3.24-1.24","1z5t5teqo101ox9",517,"140.csv","","null","resources/maskTrios/BBA2.jpg","null","",NA,NA,NA,NA,""
"image-keyboard-response",85,195494,"0.0-3.24-2.24","1z5t5teqo101ox9",517,"140.csv","","null","resources/images/coin2.png","null","",NA,NA,NA,NA,""
"image-keyboard-response",86,196060,"0.0-3.25-0.25","1z5t5teqo101ox9",517,"140.csv","","562.8999999761581","resources/trios/L4T1A2.jpg","39","restless",0.6,0.2,0.7,0.0445100535979135,"true"
"image-keyboard-response",87,196467,"0.0-3.25-1.25","1z5t5teqo101ox9",517,"140.csv","","null","resources/maskTrios/BBA2.jpg","null","",NA,NA,NA,NA,""
"image-keyboard-response",88,197675,"0.0-3.25-2.25","1z5t5teqo101ox9",517,"140.csv","","null","resources/images/coin2.png","null","",NA,NA,NA,NA,""
"image-keyboard-response",89,198228,"0.0-3.26-0.26","1z5t5teqo101ox9",517,"140.csv","","551.5","resources/trios/L2T1A2.jpg","39","restless",0.6,0.2,0.7,0.585821209041841,"true"
"image-keyboard-response",90,198635,"0.0-3.26-1.26","1z5t5teqo101ox9",517,"140.csv","","null","resources/maskTrios/BBA2.jpg","null","",NA,NA,NA,NA,""
"image-keyboard-response",91,199843,"0.0-3.26-2.26","1z5t5teqo101ox9",517,"140.csv","","null","resources/images/coin2.png","null","",NA,NA,NA,NA,""
"image-keyboard-response",92,200669,"0.0-3.27-0.27","1z5t5teqo101ox9",517,"140.csv","","823.3999999761581","resources/trios/L2T2A3.jpg","39","restless",0.6,0.2,0.7,0.299796376963225,"true"
"image-keyboard-response",93,201075,"0.0-3.27-1.27","1z5t5teqo101ox9",517,"140.csv","","null","resources/maskTrios/BBA3.jpg","null","",NA,NA,NA,NA,""
"image-keyboard-response",94,202279,"0.0-3.27-2.27","1z5t5teqo101ox9",517,"140.csv","","null","resources/images/coin2.png","null","",NA,NA,NA,NA,""
"image-keyboard-response",95,203545,"0.0-3.28-0.28","1z5t5teqo101ox9",517,"140.csv","","1263.5","resources/trios/L4T2A2.jpg","39","restless",0.6,0.2,0.7,0.0840124483367561,"true"
"image-keyboard-response",96,203950,"0.0-3.28-1.28","1z5t5teqo101ox9",517,"140.csv","","null","resources/maskTrios/BBA2.jpg","null","",NA,NA,NA,NA,""
"image-keyboard-response",97,205155,"0.0-3.28-2.28","1z5t5teqo101ox9",517,"140.csv","","null","resources/images/coin2.png","null","",NA,NA,NA,NA,""
"image-keyboard-response",98,205768,"0.0-3.29-0.29","1z5t5teqo101ox9",517,"140.csv","","610.7999999523163","resources/trios/L2T2A3.jpg","39","restless",0.6,0.3,0.7,0.974960504727427,"false"
"image-keyboard-response",99,206171,"0.0-3.29-1.29","1z5t5teqo101ox9",517,"140.csv","","null","resources/maskTrios/BBA3.jpg","null","",NA,NA,NA,NA,""
"image-keyboard-response",100,207376,"0.0-3.29-2.29","1z5t5teqo101ox9",517,"140.csv","","null","resources/images/fishbone.png","null","",NA,NA,NA,NA,""
"image-keyboard-response",101,208308,"0.0-3.30-0.30","1z5t5teqo101ox9",517,"140.csv","","929.8999999761581","resources/trios/L4T1A3.jpg","39","restless",0.6,0.3,0.6,0.564253597815888,"true"
"image-keyboard-response",102,208711,"0.0-3.30-1.30","1z5t5teqo101ox9",517,"140.csv","","null","resources/maskTrios/BBA3.jpg","null","",NA,NA,NA,NA,""
"image-keyboard-response",103,209916,"0.0-3.30-2.30","1z5t5teqo101ox9",517,"140.csv","","null","resources/images/coin2.png","null","",NA,NA,NA,NA,""
"image-keyboard-response",104,211067,"0.0-3.31-0.31","1z5t5teqo101ox9",517,"140.csv","","1148.5","resources/trios/L4T1A3.jpg","39","restless",0.6,0.4,0.6,0.268575738223128,"true"
"image-keyboard-response",105,211471,"0.0-3.31-1.31","1z5t5teqo101ox9",517,"140.csv","","null","resources/maskTrios/BBA3.jpg","null","",NA,NA,NA,NA,""
"image-keyboard-response",106,212678,"0.0-3.31-2.31","1z5t5teqo101ox9",517,"140.csv","","null","resources/images/coin2.png","null","",NA,NA,NA,NA,""
"image-keyboard-response",107,213008,"0.0-3.32-0.32","1z5t5teqo101ox9",517,"140.csv","","327.10000002384186","resources/trios/L2T1A2.jpg","39","restless",0.5,0.4,0.6,0.439347960245865,"true"
"image-keyboard-response",108,213410,"0.0-3.32-1.32","1z5t5teqo101ox9",517,"140.csv","","null","resources/maskTrios/BBA2.jpg","null","",NA,NA,NA,NA,""
"image-keyboard-response",109,214618,"0.0-3.32-2.32","1z5t5teqo101ox9",517,"140.csv","","null","resources/images/coin2.png","null","",NA,NA,NA,NA,""
"image-keyboard-response",110,214925,"0.0-3.33-0.33","1z5t5teqo101ox9",517,"140.csv","","304.5","resources/trios/L4T1A3.jpg","39","restless",0.5,0.4,0.6,0.234803559462735,"true"
"image-keyboard-response",111,215328,"0.0-3.33-1.33","1z5t5teqo101ox9",517,"140.csv","","null","resources/maskTrios/BBA3.jpg","null","",NA,NA,NA,NA,""
"image-keyboard-response",112,216531,"0.0-3.33-2.33","1z5t5teqo101ox9",517,"140.csv","","null","resources/images/coin2.png","null","",NA,NA,NA,NA,""
"image-keyboard-response",113,221833,"0.0-3.34-0.34","1z5t5teqo101ox9",517,"140.csv","","5299","resources/trios/L4T1A3.jpg","39","restless",0.5,0.4,0.6,0.330409192710585,"true"
"image-keyboard-response",114,222238,"0.0-3.34-1.34","1z5t5teqo101ox9",517,"140.csv","","null","resources/maskTrios/BBA3.jpg","null","",NA,NA,NA,NA,""
"image-keyboard-response",115,223443,"0.0-3.34-2.34","1z5t5teqo101ox9",517,"140.csv","","null","resources/images/coin2.png","null","",NA,NA,NA,NA,""
"image-keyboard-response",116,224208,"0.0-3.35-0.35","1z5t5teqo101ox9",517,"140.csv","","762.7000000476837","resources/trios/L4T1A3.jpg","39","restless",0.5,0.4,0.6,0.568386862654446,"true"
"image-keyboard-response",117,224616,"0.0-3.35-1.35","1z5t5teqo101ox9",517,"140.csv","","null","resources/maskTrios/BBA3.jpg","null","",NA,NA,NA,NA,""
"image-keyboard-response",118,225823,"0.0-3.35-2.35","1z5t5teqo101ox9",517,"140.csv","","null","resources/images/coin2.png","null","",NA,NA,NA,NA,""
"image-keyboard-response",119,233798,"0.0-3.36-0.36","1z5t5teqo101ox9",517,"140.csv","","7972.5","resources/trios/L4T2A2.jpg","39","restless",0.5,0.4,0.6,0.562548665788561,"true"
"image-keyboard-response",120,234205,"0.0-3.36-1.36","1z5t5teqo101ox9",517,"140.csv","","null","resources/maskTrios/BBA2.jpg","null","",NA,NA,NA,NA,""
"image-keyboard-response",121,235412,"0.0-3.36-2.36","1z5t5teqo101ox9",517,"140.csv","","null","resources/images/coin2.png","null","",NA,NA,NA,NA,""
"image-keyboard-response",122,235947,"0.0-3.37-0.37","1z5t5teqo101ox9",517,"140.csv","","531.8999999761581","resources/trios/L4T1A3.jpg","39","restless",0.5,0.5,0.6,0.138264046741642,"true"
"image-keyboard-response",123,236352,"0.0-3.37-1.37","1z5t5teqo101ox9",517,"140.csv","","null","resources/maskTrios/BBA3.jpg","null","",NA,NA,NA,NA,""
"image-keyboard-response",124,237560,"0.0-3.37-2.37","1z5t5teqo101ox9",517,"140.csv","","null","resources/images/coin2.png","null","",NA,NA,NA,NA,""
"image-keyboard-response",125,238788,"0.0-3.38-0.38","1z5t5teqo101ox9",517,"140.csv","","1225.5","resources/trios/L2T2A2.jpg","39","restless",0.5,0.5,0.6,0.531610612794405,"true"
"image-keyboard-response",126,239192,"0.0-3.38-1.38","1z5t5teqo101ox9",517,"140.csv","","null","resources/maskTrios/BBA2.jpg","null","",NA,NA,NA,NA,""
"image-keyboard-response",127,240399,"0.0-3.38-2.38","1z5t5teqo101ox9",517,"140.csv","","null","resources/images/coin2.png","null","",NA,NA,NA,NA,""
"image-keyboard-response",128,240876,"0.0-3.39-0.39","1z5t5teqo101ox9",517,"140.csv","","474.10000002384186","resources/trios/L4T1A2.jpg","39","restless",0.5,0.5,0.7,0.30659052231731,"true"
"image-keyboard-response",129,241283,"0.0-3.39-1.39","1z5t5teqo101ox9",517,"140.csv","","null","resources/maskTrios/BBA2.jpg","null","",NA,NA,NA,NA,""
"image-keyboard-response",130,242487,"0.0-3.39-2.39","1z5t5teqo101ox9",517,"140.csv","","null","resources/images/coin2.png","null","",NA,NA,NA,NA,""
"image-keyboard-response",131,243684,"0.0-3.40-0.40","1z5t5teqo101ox9",517,"140.csv","","1193.5","resources/trios/L4T2A2.jpg","38","restless",0.5,0.5,0.7,0.31522717060881,"true"
"image-keyboard-response",132,244091,"0.0-3.40-1.40","1z5t5teqo101ox9",517,"140.csv","","null","resources/maskTrios/BT2B.jpg","null","",NA,NA,NA,NA,""
"image-keyboard-response",133,245295,"0.0-3.40-2.40","1z5t5teqo101ox9",517,"140.csv","","null","resources/images/coin2.png","null","",NA,NA,NA,NA,""
"image-keyboard-response",134,246489,"0.0-3.41-0.41","1z5t5teqo101ox9",517,"140.csv","","1191.2000000476837","resources/trios/L4T1A3.jpg","37","restless",0.5,0.5,0.7,0.713335710135841,"false"
"image-keyboard-response",135,246895,"0.0-3.41-1.41","1z5t5teqo101ox9",517,"140.csv","","null","resources/maskTrios/L4BB.jpg","null","",NA,NA,NA,NA,""
"image-keyboard-response",136,248101,"0.0-3.41-2.41","1z5t5teqo101ox9",517,"140.csv","","null","resources/images/fishbone.png","null","",NA,NA,NA,NA,""
"image-keyboard-response",137,249352,"0.0-3.42-0.42","1z5t5teqo101ox9",517,"140.csv","","1248.3999999761581","resources/trios/L4T2A2.jpg","38","restless",0.5,0.5,0.7,0.547494772842958,"false"
"image-keyboard-response",138,249759,"0.0-3.42-1.42","1z5t5teqo101ox9",517,"140.csv","","null","resources/maskTrios/BT2B.jpg","null","",NA,NA,NA,NA,""
"image-keyboard-response",139,250961,"0.0-3.42-2.42","1z5t5teqo101ox9",517,"140.csv","","null","resources/images/fishbone.png","null","",NA,NA,NA,NA,""
"image-keyboard-response",140,251676,"0.0-3.43-0.43","1z5t5teqo101ox9",517,"140.csv","","713.3999999761581","resources/trios/L2T2A2.jpg","39","restless",0.5,0.5,0.7,0.927972654979089,"false"
"image-keyboard-response",141,252082,"0.0-3.43-1.43","1z5t5teqo101ox9",517,"140.csv","","null","resources/maskTrios/BBA2.jpg","null","",NA,NA,NA,NA,""
"image-keyboard-response",142,253285,"0.0-3.43-2.43","1z5t5teqo101ox9",517,"140.csv","","null","resources/images/fishbone.png","null","",NA,NA,NA,NA,""
"image-keyboard-response",143,253773,"0.0-3.44-0.44","1z5t5teqo101ox9",517,"140.csv","","486.39999997615814","resources/trios/L4T2A3.jpg","39","restless",0.5,0.5,0.7,0.446347303762686,"true"
"image-keyboard-response",144,254177,"0.0-3.44-1.44","1z5t5teqo101ox9",517,"140.csv","","null","resources/maskTrios/BBA3.jpg","null","",NA,NA,NA,NA,""
"image-keyboard-response",145,255384,"0.0-3.44-2.44","1z5t5teqo101ox9",517,"140.csv","","null","resources/images/coin2.png","null","",NA,NA,NA,NA,""
"image-keyboard-response",146,257003,"0.0-3.45-0.45","1z5t5teqo101ox9",517,"140.csv","","1616.6999999284744","resources/trios/L2T1A3.jpg","39","restless",0.5,0.5,0.7,0.644073019091198,"true"
"image-keyboard-response",147,257410,"0.0-3.45-1.45","1z5t5teqo101ox9",517,"140.csv","","null","resources/maskTrios/BBA3.jpg","null","",NA,NA,NA,NA,""
"image-keyboard-response",148,258616,"0.0-3.45-2.45","1z5t5teqo101ox9",517,"140.csv","","null","resources/images/coin2.png","null","",NA,NA,NA,NA,""
"image-keyboard-response",149,259266,"0.0-3.46-0.46","1z5t5teqo101ox9",517,"140.csv","","648","resources/trios/L2T1A3.jpg","39","restless",0.5,0.5,0.7,0.253990788520533,"true"
"image-keyboard-response",150,259669,"0.0-3.46-1.46","1z5t5teqo101ox9",517,"140.csv","","null","resources/maskTrios/BBA3.jpg","null","",NA,NA,NA,NA,""
"image-keyboard-response",151,260876,"0.0-3.46-2.46","1z5t5teqo101ox9",517,"140.csv","","null","resources/images/coin2.png","null","",NA,NA,NA,NA,""
"image-keyboard-response",152,261670,"0.0-3.47-0.47","1z5t5teqo101ox9",517,"140.csv","","790.5","resources/trios/L4T1A3.jpg","39","restless",0.5,0.5,0.7,0.427373702721117,"true"
"image-keyboard-response",153,262077,"0.0-3.47-1.47","1z5t5teqo101ox9",517,"140.csv","","null","resources/maskTrios/BBA3.jpg","null","",NA,NA,NA,NA,""
"image-keyboard-response",154,263285,"0.0-3.47-2.47","1z5t5teqo101ox9",517,"140.csv","","null","resources/images/coin2.png","null","",NA,NA,NA,NA,""
"image-keyboard-response",155,263881,"0.0-3.48-0.48","1z5t5teqo101ox9",517,"140.csv","","593.3999999761581","resources/trios/L4T1A2.jpg","39","restless",0.5,0.5,0.7,0.878857959905127,"false"
"image-keyboard-response",156,264288,"0.0-3.48-1.48","1z5t5teqo101ox9",517,"140.csv","","null","resources/maskTrios/BBA2.jpg","null","",NA,NA,NA,NA,""
"image-keyboard-response",157,265494,"0.0-3.48-2.48","1z5t5teqo101ox9",517,"140.csv","","null","resources/images/fishbone.png","null","",NA,NA,NA,NA,""
"image-keyboard-response",158,267715,"0.0-3.49-0.49","1z5t5teqo101ox9",517,"140.csv","","2218.1999999284744","resources/trios/L4T2A2.jpg","39","restless",0.5,0.5,0.7,0.28802187275676,"true"
"image-keyboard-response",159,268121,"0.0-3.49-1.49","1z5t5teqo101ox9",517,"140.csv","","null","resources/maskTrios/BBA2.jpg","null","",NA,NA,NA,NA,""
"image-keyboard-response",160,269325,"0.0-3.49-2.49","1z5t5teqo101ox9",517,"140.csv","","null","resources/images/coin2.png","null","",NA,NA,NA,NA,""
"image-keyboard-response",161,269710,"0.0-3.50-0.50","1z5t5teqo101ox9",517,"140.csv","","382.8000000715256","resources/trios/L2T1A2.jpg","39","restless",0.5,0.5,0.7,0.942927038509467,"false"
"image-keyboard-response",162,270118,"0.0-3.50-1.50","1z5t5teqo101ox9",517,"140.csv","","null","resources/maskTrios/BBA2.jpg","null","",NA,NA,NA,NA,""
"image-keyboard-response",163,271325,"0.0-3.50-2.50","1z5t5teqo101ox9",517,"140.csv","","null","resources/images/fishbone.png","null","",NA,NA,NA,NA,""
"image-keyboard-response",164,271363,"0.0-3.51-0.51","1z5t5teqo101ox9",517,"140.csv","","37.700000047683716","resources/trios/L2T1A2.jpg","39","restless",0.5,0.5,0.7,0.141586806295555,"true"
"image-keyboard-response",165,271765,"0.0-3.51-1.51","1z5t5teqo101ox9",517,"140.csv","","null","resources/maskTrios/BBA2.jpg","null","",NA,NA,NA,NA,""
"image-keyboard-response",166,272969,"0.0-3.51-2.51","1z5t5teqo101ox9",517,"140.csv","","null","resources/images/coin2.png","null","",NA,NA,NA,NA,""
"image-keyboard-response",167,273049,"0.0-3.52-0.52","1z5t5teqo101ox9",517,"140.csv","","76.79999995231628","resources/trios/L2T1A2.jpg","39","restless",0.5,0.5,0.7,0.742505580751503,"false"
"image-keyboard-response",168,273455,"0.0-3.52-1.52","1z5t5teqo101ox9",517,"140.csv","","null","resources/maskTrios/BBA2.jpg","null","",NA,NA,NA,NA,""
"image-keyboard-response",169,274660,"0.0-3.52-2.52","1z5t5teqo101ox9",517,"140.csv","","null","resources/images/fishbone.png","null","",NA,NA,NA,NA,""
"image-keyboard-response",170,275378,"0.0-3.53-0.53","1z5t5teqo101ox9",517,"140.csv","","716","resources/trios/L2T2A2.jpg","38","restless",0.4,0.5,0.7,0.158050559172442,"true"
"image-keyboard-response",171,275785,"0.0-3.53-1.53","1z5t5teqo101ox9",517,"140.csv","","null","resources/maskTrios/BT2B.jpg","null","",NA,NA,NA,NA,""
"image-keyboard-response",172,276992,"0.0-3.53-2.53","1z5t5teqo101ox9",517,"140.csv","","null","resources/images/coin2.png","null","",NA,NA,NA,NA,""
"image-keyboard-response",173,277529,"0.0-3.54-0.54","1z5t5teqo101ox9",517,"140.csv","","534.5","resources/trios/L4T2A2.jpg","39","restless",0.4,0.5,0.7,0.162452486396025,"true"
"image-keyboard-response",174,277937,"0.0-3.54-1.54","1z5t5teqo101ox9",517,"140.csv","","null","resources/maskTrios/BBA2.jpg","null","",NA,NA,NA,NA,""
"image-keyboard-response",175,279144,"0.0-3.54-2.54","1z5t5teqo101ox9",517,"140.csv","","null","resources/images/coin2.png","null","",NA,NA,NA,NA,""
"image-keyboard-response",176,279571,"0.0-3.55-0.55","1z5t5teqo101ox9",517,"140.csv","","425.40000009536743","resources/trios/L4T1A2.jpg","39","restless",0.4,0.5,0.7,0.771171750970976,"false"
"image-keyboard-response",177,279975,"0.0-3.55-1.55","1z5t5teqo101ox9",517,"140.csv","","null","resources/maskTrios/BBA2.jpg","null","",NA,NA,NA,NA,""
"image-keyboard-response",178,281182,"0.0-3.55-2.55","1z5t5teqo101ox9",517,"140.csv","","null","resources/images/fishbone.png","null","",NA,NA,NA,NA,""
"image-keyboard-response",179,281705,"0.0-3.56-0.56","1z5t5teqo101ox9",517,"140.csv","","519.6000000238419","resources/trios/L4T2A2.jpg","38","restless",0.4,0.5,0.7,0.380765746252317,"true"
"image-keyboard-response",180,282111,"0.0-3.56-1.56","1z5t5teqo101ox9",517,"140.csv","","null","resources/maskTrios/BT2B.jpg","null","",NA,NA,NA,NA,""
"image-keyboard-response",181,283318,"0.0-3.56-2.56","1z5t5teqo101ox9",517,"140.csv","","null","resources/images/coin2.png","null","",NA,NA,NA,NA,""
"image-keyboard-response",182,285054,"0.0-3.57-0.57","1z5t5teqo101ox9",517,"140.csv","","1733.6000000238419","resources/trios/L4T1A2.jpg","39","restless",0.4,0.5,0.8,0.520773841681222,"true"
"image-keyboard-response",183,285458,"0.0-3.57-1.57","1z5t5teqo101ox9",517,"140.csv","","null","resources/maskTrios/BBA2.jpg","null","",NA,NA,NA,NA,""
"image-keyboard-response",184,286662,"0.0-3.57-2.57","1z5t5teqo101ox9",517,"140.csv","","null","resources/images/coin2.png","null","",NA,NA,NA,NA,""
"image-keyboard-response",185,287179,"0.0-3.58-0.58","1z5t5teqo101ox9",517,"140.csv","","515","resources/trios/L4T2A3.jpg","38","restless",0.4,0.5,0.8,0.804910810260756,"false"
"image-keyboard-response",186,287587,"0.0-3.58-1.58","1z5t5teqo101ox9",517,"140.csv","","null","resources/maskTrios/BT2B.jpg","null","",NA,NA,NA,NA,""
"image-keyboard-response",187,288794,"0.0-3.58-2.58","1z5t5teqo101ox9",517,"140.csv","","null","resources/images/fishbone.png","null","",NA,NA,NA,NA,""
"image-keyboard-response",188,289289,"0.0-3.59-0.59","1z5t5teqo101ox9",517,"140.csv","","492.5","resources/trios/L4T1A2.jpg","39","restless",0.3,0.5,0.8,0.784605083756252,"true"
"image-keyboard-response",189,289697,"0.0-3.59-1.59","1z5t5teqo101ox9",517,"140.csv","","null","resources/maskTrios/BBA2.jpg","null","",NA,NA,NA,NA,""
"image-keyboard-response",190,290901,"0.0-3.59-2.59","1z5t5teqo101ox9",517,"140.csv","","null","resources/images/coin2.png","null","",NA,NA,NA,NA,""
"image-keyboard-response",191,291640,"0.0-3.60-0.60","1z5t5teqo101ox9",517,"140.csv","","736","resources/trios/L4T1A3.jpg","39","restless",0.3,0.5,0.7,0.142068227705874,"true"
"image-keyboard-response",192,292046,"0.0-3.60-1.60","1z5t5teqo101ox9",517,"140.csv","","null","resources/maskTrios/BBA3.jpg","null","",NA,NA,NA,NA,""
"image-keyboard-response",193,293252,"0.0-3.60-2.60","1z5t5teqo101ox9",517,"140.csv","","null","resources/images/coin2.png","null","",NA,NA,NA,NA,""
"image-keyboard-response",194,293832,"0.0-3.61-0.61","1z5t5teqo101ox9",517,"140.csv","","577.1999999284744","resources/trios/L2T2A3.jpg","39","restless",0.2,0.4,0.8,0.402300098385632,"true"
"image-keyboard-response",195,294237,"0.0-3.61-1.61","1z5t5teqo101ox9",517,"140.csv","","null","resources/maskTrios/BBA3.jpg","null","",NA,NA,NA,NA,""
"image-keyboard-response",196,295444,"0.0-3.61-2.61","1z5t5teqo101ox9",517,"140.csv","","null","resources/images/coin2.png","null","",NA,NA,NA,NA,""
"image-keyboard-response",197,296114,"0.0-3.62-0.62","1z5t5teqo101ox9",517,"140.csv","","667.6000000238419","resources/trios/L2T1A2.jpg","38","restless",0.2,0.5,0.8,0.961017299476881,"false"
"image-keyboard-response",198,296519,"0.0-3.62-1.62","1z5t5teqo101ox9",517,"140.csv","","null","resources/maskTrios/BT1B.jpg","null","",NA,NA,NA,NA,""
"image-keyboard-response",199,297726,"0.0-3.62-2.62","1z5t5teqo101ox9",517,"140.csv","","null","resources/images/fishbone.png","null","",NA,NA,NA,NA,""
"image-keyboard-response",200,298163,"0.0-3.63-0.63","1z5t5teqo101ox9",517,"140.csv","","434.6999999284744","resources/trios/L4T2A3.jpg","39","restless",0.3,0.6,0.7,0.586769037251679,"true"
"image-keyboard-response",201,298571,"0.0-3.63-1.63","1z5t5teqo101ox9",517,"140.csv","","null","resources/maskTrios/BBA3.jpg","null","",NA,NA,NA,NA,""
"image-keyboard-response",202,299777,"0.0-3.63-2.63","1z5t5teqo101ox9",517,"140.csv","","null","resources/images/coin2.png","null","",NA,NA,NA,NA,""
"image-keyboard-response",203,300409,"0.0-3.64-0.64","1z5t5teqo101ox9",517,"140.csv","","629","resources/trios/L2T1A2.jpg","39","restless",0.3,0.6,0.7,0.57511114865893,"true"
"image-keyboard-response",204,300814,"0.0-3.64-1.64","1z5t5teqo101ox9",517,"140.csv","","null","resources/maskTrios/BBA2.jpg","null","",NA,NA,NA,NA,""
"image-keyboard-response",205,302018,"0.0-3.64-2.64","1z5t5teqo101ox9",517,"140.csv","","null","resources/images/coin2.png","null","",NA,NA,NA,NA,""
"image-keyboard-response",206,302457,"0.0-3.65-0.65","1z5t5teqo101ox9",517,"140.csv","","435.89999997615814","resources/trios/L4T2A2.jpg","39","restless",0.3,0.6,0.7,0.11225231487351,"true"
"image-keyboard-response",207,302860,"0.0-3.65-1.65","1z5t5teqo101ox9",517,"140.csv","","null","resources/maskTrios/BBA2.jpg","null","",NA,NA,NA,NA,""
"image-keyboard-response",208,304065,"0.0-3.65-2.65","1z5t5teqo101ox9",517,"140.csv","","null","resources/images/coin2.png","null","",NA,NA,NA,NA,""
"image-keyboard-response",209,305132,"0.0-3.66-0.66","1z5t5teqo101ox9",517,"140.csv","","1065.1999999284744","resources/trios/L4T2A3.jpg","39","restless",0.3,0.6,0.7,0.865122414808906,"false"
"image-keyboard-response",210,305540,"0.0-3.66-1.66","1z5t5teqo101ox9",517,"140.csv","","null","resources/maskTrios/BBA3.jpg","null","",NA,NA,NA,NA,""
"image-keyboard-response",211,306746,"0.0-3.66-2.66","1z5t5teqo101ox9",517,"140.csv","","null","resources/images/fishbone.png","null","",NA,NA,NA,NA,""
"image-keyboard-response",212,307705,"0.0-3.67-0.67","1z5t5teqo101ox9",517,"140.csv","","956.5","resources/trios/L4T2A2.jpg","38","restless",0.3,0.6,0.7,0.287508932895021,"true"
"image-keyboard-response",213,308113,"0.0-3.67-1.67","1z5t5teqo101ox9",517,"140.csv","","null","resources/maskTrios/BT2B.jpg","null","",NA,NA,NA,NA,""
"image-keyboard-response",214,309320,"0.0-3.67-2.67","1z5t5teqo101ox9",517,"140.csv","","null","resources/images/coin2.png","null","",NA,NA,NA,NA,""
"image-keyboard-response",215,309860,"0.0-3.68-0.68","1z5t5teqo101ox9",517,"140.csv","","537.2000000476837","resources/trios/L4T2A2.jpg","39","restless",0.3,0.6,0.7,0.156733670399734,"true"
"image-keyboard-response",216,310266,"0.0-3.68-1.68","1z5t5teqo101ox9",517,"140.csv","","null","resources/maskTrios/BBA2.jpg","null","",NA,NA,NA,NA,""
"image-keyboard-response",217,311473,"0.0-3.68-2.68","1z5t5teqo101ox9",517,"140.csv","","null","resources/images/coin2.png","null","",NA,NA,NA,NA,""
"image-keyboard-response",218,312206,"0.0-3.69-0.69","1z5t5teqo101ox9",517,"140.csv","","728.7000000476837","resources/trios/L4T2A3.jpg","39","restless",0.3,0.6,0.7,0.425072470457889,"true"
"image-keyboard-response",219,312613,"0.0-3.69-1.69","1z5t5teqo101ox9",517,"140.csv","","null","resources/maskTrios/BBA3.jpg","null","",NA,NA,NA,NA,""
"image-keyboard-response",220,313821,"0.0-3.69-2.69","1z5t5teqo101ox9",517,"140.csv","","null","resources/images/coin2.png","null","",NA,NA,NA,NA,""
"image-keyboard-response",221,314321,"0.0-3.70-0.70","1z5t5teqo101ox9",517,"140.csv","","498.89999997615814","resources/trios/L4T2A2.jpg","39","restless",0.3,0.6,0.7,0.822675538780061,"false"
"image-keyboard-response",222,314728,"0.0-3.70-1.70","1z5t5teqo101ox9",517,"140.csv","","null","resources/maskTrios/BBA2.jpg","null","",NA,NA,NA,NA,""
"image-keyboard-response",223,315935,"0.0-3.70-2.70","1z5t5teqo101ox9",517,"140.csv","","null","resources/images/fishbone.png","null","",NA,NA,NA,NA,""
"image-keyboard-response",224,317303,"0.0-3.71-0.71","1z5t5teqo101ox9",517,"140.csv","","1365.1000000238419","resources/trios/L2T1A3.jpg","39","restless",0.3,0.6,0.7,0.7182491670228,"false"
"image-keyboard-response",225,317707,"0.0-3.71-1.71","1z5t5teqo101ox9",517,"140.csv","","null","resources/maskTrios/BBA3.jpg","null","",NA,NA,NA,NA,""
"image-keyboard-response",226,318913,"0.0-3.71-2.71","1z5t5teqo101ox9",517,"140.csv","","null","resources/images/fishbone.png","null","",NA,NA,NA,NA,""
"image-keyboard-response",227,319094,"0.0-3.72-0.72","1z5t5teqo101ox9",517,"140.csv","","178.40000009536743","resources/trios/L4T2A2.jpg","39","restless",0.3,0.5,0.7,0.662020712861227,"true"
"image-keyboard-response",228,319497,"0.0-3.72-1.72","1z5t5teqo101ox9",517,"140.csv","","null","resources/maskTrios/BBA2.jpg","null","",NA,NA,NA,NA,""
"image-keyboard-response",229,320700,"0.0-3.72-2.72","1z5t5teqo101ox9",517,"140.csv","","null","resources/images/coin2.png","null","",NA,NA,NA,NA,""
"image-keyboard-response",230,320906,"0.0-3.73-0.73","1z5t5teqo101ox9",517,"140.csv","","204","resources/trios/L4T1A3.jpg","39","restless",0.3,0.5,0.7,0.2389267530101,"true"
"image-keyboard-response",231,321313,"0.0-3.73-1.73","1z5t5teqo101ox9",517,"140.csv","","null","resources/maskTrios/BBA3.jpg","null","",NA,NA,NA,NA,""
"image-keyboard-response",232,322515,"0.0-3.73-2.73","1z5t5teqo101ox9",517,"140.csv","","null","resources/images/coin2.png","null","",NA,NA,NA,NA,""
"image-keyboard-response",233,322715,"0.0-3.74-0.74","1z5t5teqo101ox9",517,"140.csv","","197.90000009536743","resources/trios/L2T1A2.jpg","39","restless",0.3,0.5,0.7,0.128247131782104,"true"
"image-keyboard-response",234,323118,"0.0-3.74-1.74","1z5t5teqo101ox9",517,"140.csv","","null","resources/maskTrios/BBA2.jpg","null","",NA,NA,NA,NA,""
"image-keyboard-response",235,324323,"0.0-3.74-2.74","1z5t5teqo101ox9",517,"140.csv","","null","resources/images/coin2.png","null","",NA,NA,NA,NA,""
"image-keyboard-response",236,324380,"0.0-3.75-0.75","1z5t5teqo101ox9",517,"140.csv","","53.700000047683716","resources/trios/L2T2A3.jpg","39","restless",0.3,0.5,0.7,0.54300333850102,"true"
"image-keyboard-response",237,324786,"0.0-3.75-1.75","1z5t5teqo101ox9",517,"140.csv","","null","resources/maskTrios/BBA3.jpg","null","",NA,NA,NA,NA,""
"image-keyboard-response",238,325994,"0.0-3.75-2.75","1z5t5teqo101ox9",517,"140.csv","","null","resources/images/coin2.png","null","",NA,NA,NA,NA,""
"image-keyboard-response",239,326066,"0.0-3.76-0.76","1z5t5teqo101ox9",517,"140.csv","","69.89999997615814","resources/trios/L4T1A3.jpg","39","restless",0.3,0.5,0.7,0.571214711913909,"true"
"image-keyboard-response",240,326473,"0.0-3.76-1.76","1z5t5teqo101ox9",517,"140.csv","","null","resources/maskTrios/BBA3.jpg","null","",NA,NA,NA,NA,""
"image-keyboard-response",241,327680,"0.0-3.76-2.76","1z5t5teqo101ox9",517,"140.csv","","null","resources/images/coin2.png","null","",NA,NA,NA,NA,""
"image-keyboard-response",242,328473,"0.0-3.77-0.77","1z5t5teqo101ox9",517,"140.csv","","790.5","resources/trios/L4T2A2.jpg","39","restless",0.3,0.5,0.7,0.48748871949147,"true"
"image-keyboard-response",243,328876,"0.0-3.77-1.77","1z5t5teqo101ox9",517,"140.csv","","null","resources/maskTrios/BBA2.jpg","null","",NA,NA,NA,NA,""
"image-keyboard-response",244,330081,"0.0-3.77-2.77","1z5t5teqo101ox9",517,"140.csv","","null","resources/images/coin2.png","null","",NA,NA,NA,NA,""
"image-keyboard-response",245,330653,"0.0-3.78-0.78","1z5t5teqo101ox9",517,"140.csv","","570","resources/trios/L4T1A3.jpg","39","restless",0.3,0.5,0.7,0.275949175187212,"true"
"image-keyboard-response",246,331060,"0.0-3.78-1.78","1z5t5teqo101ox9",517,"140.csv","","null","resources/maskTrios/BBA3.jpg","null","",NA,NA,NA,NA,""
"image-keyboard-response",247,332263,"0.0-3.78-2.78","1z5t5teqo101ox9",517,"140.csv","","null","resources/images/coin2.png","null","",NA,NA,NA,NA,""
"image-keyboard-response",248,335159,"0.0-3.79-0.79","1z5t5teqo101ox9",517,"140.csv","","2893.7999999523163","resources/trios/L2T1A2.jpg","39","restless",0.3,0.5,0.8,0.253516898594921,"true"
"image-keyboard-response",249,335565,"0.0-3.79-1.79","1z5t5teqo101ox9",517,"140.csv","","null","resources/maskTrios/BBA2.jpg","null","",NA,NA,NA,NA,""
"image-keyboard-response",250,336773,"0.0-3.79-2.79","1z5t5teqo101ox9",517,"140.csv","","null","resources/images/coin2.png","null","",NA,NA,NA,NA,""
"image-keyboard-response",251,337426,"0.0-3.80-0.80","1z5t5teqo101ox9",517,"140.csv","","651.1000000238419","resources/trios/L4T2A2.jpg","39","restless",0.4,0.5,0.8,0.911719978052114,"false"
"image-keyboard-response",252,337832,"0.0-3.80-1.80","1z5t5teqo101ox9",517,"140.csv","","null","resources/maskTrios/BBA2.jpg","null","",NA,NA,NA,NA,""
"image-keyboard-response",253,339039,"0.0-3.80-2.80","1z5t5teqo101ox9",517,"140.csv","","null","resources/images/fishbone.png","null","",NA,NA,NA,NA,""
"image-keyboard-response",254,340063,"0.0-3.81-0.81","1z5t5teqo101ox9",517,"140.csv","","1022","resources/trios/L2T2A3.jpg","38","restless",0.4,0.5,0.7,0.611187563841312,"false"
"image-keyboard-response",255,340468,"0.0-3.81-1.81","1z5t5teqo101ox9",517,"140.csv","","null","resources/maskTrios/BT2B.jpg","null","",NA,NA,NA,NA,""
"image-keyboard-response",256,341675,"0.0-3.81-2.81","1z5t5teqo101ox9",517,"140.csv","","null","resources/images/fishbone.png","null","",NA,NA,NA,NA,""
"image-keyboard-response",257,341783,"0.0-3.82-0.82","1z5t5teqo101ox9",517,"140.csv","","105.10000002384186","resources/trios/L2T2A3.jpg","39","restless",0.4,0.5,0.7,0.668684094046404,"true"
"image-keyboard-response",258,342185,"0.0-3.82-1.82","1z5t5teqo101ox9",517,"140.csv","","null","resources/maskTrios/BBA3.jpg","null","",NA,NA,NA,NA,""
"image-keyboard-response",259,343390,"0.0-3.82-2.82","1z5t5teqo101ox9",517,"140.csv","","null","resources/images/coin2.png","null","",NA,NA,NA,NA,""
"image-keyboard-response",260,343738,"0.0-3.83-0.83","1z5t5teqo101ox9",517,"140.csv","","345.7000000476837","resources/trios/L2T2A3.jpg","39","restless",0.4,0.5,0.7,0.553714470187874,"true"
"image-keyboard-response",261,344144,"0.0-3.83-1.83","1z5t5teqo101ox9",517,"140.csv","","null","resources/maskTrios/BBA3.jpg","null","",NA,NA,NA,NA,""
"image-keyboard-response",262,345351,"0.0-3.83-2.83","1z5t5teqo101ox9",517,"140.csv","","null","resources/images/coin2.png","null","",NA,NA,NA,NA,""
"image-keyboard-response",263,345928,"0.0-3.84-0.84","1z5t5teqo101ox9",517,"140.csv","","575.1000000238419","resources/trios/L2T1A2.jpg","39","restless",0.4,0.5,0.6,0.46230387485388,"true"
"image-keyboard-response",264,346333,"0.0-3.84-1.84","1z5t5teqo101ox9",517,"140.csv","","null","resources/maskTrios/BBA2.jpg","null","",NA,NA,NA,NA,""
"image-keyboard-response",265,347538,"0.0-3.84-2.84","1z5t5teqo101ox9",517,"140.csv","","null","resources/images/coin2.png","null","",NA,NA,NA,NA,""
"image-keyboard-response",266,347916,"0.0-3.85-0.85","1z5t5teqo101ox9",517,"140.csv","","375.89999997615814","resources/trios/L4T1A3.jpg","39","restless",0.4,0.5,0.6,0.0137280389425196,"true"
"image-keyboard-response",267,348324,"0.0-3.85-1.85","1z5t5teqo101ox9",517,"140.csv","","null","resources/maskTrios/BBA3.jpg","null","",NA,NA,NA,NA,""
"image-keyboard-response",268,349531,"0.0-3.85-2.85","1z5t5teqo101ox9",517,"140.csv","","null","resources/images/coin2.png","null","",NA,NA,NA,NA,""
"image-keyboard-response",269,353701,"0.0-3.86-0.86","1z5t5teqo101ox9",517,"140.csv","","4167.699999928474","resources/trios/L2T1A2.jpg","39","restless",0.4,0.5,0.6,0.479546013266455,"true"
"image-keyboard-response",270,354107,"0.0-3.86-1.86","1z5t5teqo101ox9",517,"140.csv","","null","resources/maskTrios/BBA2.jpg","null","",NA,NA,NA,NA,""
"image-keyboard-response",271,355314,"0.0-3.86-2.86","1z5t5teqo101ox9",517,"140.csv","","null","resources/images/coin2.png","null","",NA,NA,NA,NA,""
"image-keyboard-response",272,357775,"0.0-3.87-0.87","1z5t5teqo101ox9",517,"140.csv","","2458.8000000715256","resources/trios/L4T2A2.jpg","39","restless",0.4,0.5,0.7,0.594874958585755,"true"
"image-keyboard-response",273,358180,"0.0-3.87-1.87","1z5t5teqo101ox9",517,"140.csv","","null","resources/maskTrios/BBA2.jpg","null","",NA,NA,NA,NA,""
"image-keyboard-response",274,359388,"0.0-3.87-2.87","1z5t5teqo101ox9",517,"140.csv","","null","resources/images/coin2.png","null","",NA,NA,NA,NA,""
"image-keyboard-response",275,360837,"0.0-3.88-0.88","1z5t5teqo101ox9",517,"140.csv","","1446.5999999046326","resources/trios/L4T1A2.jpg","39","restless",0.4,0.6,0.7,0.431489297465898,"true"
"image-keyboard-response",276,361243,"0.0-3.88-1.88","1z5t5teqo101ox9",517,"140.csv","","null","resources/maskTrios/BBA2.jpg","null","",NA,NA,NA,NA,""
"image-keyboard-response",277,362449,"0.0-3.88-2.88","1z5t5teqo101ox9",517,"140.csv","","null","resources/images/coin2.png","null","",NA,NA,NA,NA,""
"image-keyboard-response",278,363411,"0.0-3.89-0.89","1z5t5teqo101ox9",517,"140.csv","","959.1999999284744","resources/trios/L4T1A3.jpg","39","restless",0.4,0.6,0.7,0.601398906391584,"true"
"image-keyboard-response",279,363816,"0.0-3.89-1.89","1z5t5teqo101ox9",517,"140.csv","","null","resources/maskTrios/BBA3.jpg","null","",NA,NA,NA,NA,""
"image-keyboard-response",280,365018,"0.0-3.89-2.89","1z5t5teqo101ox9",517,"140.csv","","null","resources/images/coin2.png","null","",NA,NA,NA,NA,""
"image-keyboard-response",281,365535,"0.0-3.90-0.90","1z5t5teqo101ox9",517,"140.csv","","514.8999999761581","resources/trios/L2T1A2.jpg","39","restless",0.4,0.6,0.6,0.242322012433796,"true"
"image-keyboard-response",282,365940,"0.0-3.90-1.90","1z5t5teqo101ox9",517,"140.csv","","null","resources/maskTrios/BBA2.jpg","null","",NA,NA,NA,NA,""
"image-keyboard-response",283,367143,"0.0-3.90-2.90","1z5t5teqo101ox9",517,"140.csv","","null","resources/images/coin2.png","null","",NA,NA,NA,NA,""
"image-keyboard-response",284,368490,"0.0-3.91-0.91","1z5t5teqo101ox9",517,"140.csv","","1344.1000000238419","resources/trios/L4T2A3.jpg","39","restless",0.4,0.6,0.7,0.121565478616803,"true"
"image-keyboard-response",285,368897,"0.0-3.91-1.91","1z5t5teqo101ox9",517,"140.csv","","null","resources/maskTrios/BBA3.jpg","null","",NA,NA,NA,NA,""
"image-keyboard-response",286,370103,"0.0-3.91-2.91","1z5t5teqo101ox9",517,"140.csv","","null","resources/images/coin2.png","null","",NA,NA,NA,NA,""
"image-keyboard-response",287,370841,"0.0-3.92-0.92","1z5t5teqo101ox9",517,"140.csv","","737","resources/trios/L2T1A2.jpg","39","restless",0.4,0.6,0.7,0.606066633212556,"true"
"image-keyboard-response",288,371248,"0.0-3.92-1.92","1z5t5teqo101ox9",517,"140.csv","","null","resources/maskTrios/BBA2.jpg","null","",NA,NA,NA,NA,""
"image-keyboard-response",289,372453,"0.0-3.92-2.92","1z5t5teqo101ox9",517,"140.csv","","null","resources/images/coin2.png","null","",NA,NA,NA,NA,""
"image-keyboard-response",290,372992,"0.0-3.93-0.93","1z5t5teqo101ox9",517,"140.csv","","536.9000000953674","resources/trios/L4T1A3.jpg","39","restless",0.4,0.6,0.7,0.332412316024387,"true"
"image-keyboard-response",291,373400,"0.0-3.93-1.93","1z5t5teqo101ox9",517,"140.csv","","null","resources/maskTrios/BBA3.jpg","null","",NA,NA,NA,NA,""
"image-keyboard-response",292,374603,"0.0-3.93-2.93","1z5t5teqo101ox9",517,"140.csv","","null","resources/images/coin2.png","null","",NA,NA,NA,NA,""
"image-keyboard-response",293,375076,"0.0-3.94-0.94","1z5t5teqo101ox9",517,"140.csv","","470.2000000476837","resources/trios/L4T1A2.jpg","39","restless",0.4,0.6,0.7,0.564151843308008,"true"
"image-keyboard-response",294,375483,"0.0-3.94-1.94","1z5t5teqo101ox9",517,"140.csv","","null","resources/maskTrios/BBA2.jpg","null","",NA,NA,NA,NA,""
"image-keyboard-response",295,376689,"0.0-3.94-2.94","1z5t5teqo101ox9",517,"140.csv","","null","resources/images/coin2.png","null","",NA,NA,NA,NA,""
"image-keyboard-response",296,377460,"0.0-3.95-0.95","1z5t5teqo101ox9",517,"140.csv","","768.2999999523163","resources/trios/L4T1A3.jpg","39","restless",0.4,0.6,0.7,0.660001204820881,"true"
"image-keyboard-response",297,377867,"0.0-3.95-1.95","1z5t5teqo101ox9",517,"140.csv","","null","resources/maskTrios/BBA3.jpg","null","",NA,NA,NA,NA,""
"image-keyboard-response",298,379074,"0.0-3.95-2.95","1z5t5teqo101ox9",517,"140.csv","","null","resources/images/coin2.png","null","",NA,NA,NA,NA,""
"image-keyboard-response",299,379227,"0.0-3.96-0.96","1z5t5teqo101ox9",517,"140.csv","","151","resources/trios/L2T1A2.jpg","39","restless",0.4,0.6,0.7,0.663235414884865,"true"
"image-keyboard-response",300,379632,"0.0-3.96-1.96","1z5t5teqo101ox9",517,"140.csv","","null","resources/maskTrios/BBA2.jpg","null","",NA,NA,NA,NA,""
"image-keyboard-response",301,380837,"0.0-3.96-2.96","1z5t5teqo101ox9",517,"140.csv","","null","resources/images/coin2.png","null","",NA,NA,NA,NA,""
"image-keyboard-response",302,381132,"0.0-3.97-0.97","1z5t5teqo101ox9",517,"140.csv","","293.2000000476837","resources/trios/L2T2A3.jpg","39","restless",0.4,0.6,0.7,0.879043199251194,"false"
"image-keyboard-response",303,381540,"0.0-3.97-1.97","1z5t5teqo101ox9",517,"140.csv","","null","resources/maskTrios/BBA3.jpg","null","",NA,NA,NA,NA,""
"image-keyboard-response",304,382743,"0.0-3.97-2.97","1z5t5teqo101ox9",517,"140.csv","","null","resources/images/fishbone.png","null","",NA,NA,NA,NA,""
"image-keyboard-response",305,383598,"0.0-3.98-0.98","1z5t5teqo101ox9",517,"140.csv","","852.0999999046326","resources/trios/L2T1A3.jpg","39","restless",0.4,0.6,0.7,0.65173168205207,"true"
"image-keyboard-response",306,384002,"0.0-3.98-1.98","1z5t5teqo101ox9",517,"140.csv","","null","resources/maskTrios/BBA3.jpg","null","",NA,NA,NA,NA,""
"image-keyboard-response",307,385209,"0.0-3.98-2.98","1z5t5teqo101ox9",517,"140.csv","","null","resources/images/coin2.png","null","",NA,NA,NA,NA,""
"image-keyboard-response",308,385761,"0.0-3.99-0.99","1z5t5teqo101ox9",517,"140.csv","","549.5","resources/trios/L2T1A2.jpg","39","restless",0.5,0.6,0.7,0.793976248968812,"false"
"image-keyboard-response",309,386169,"0.0-3.99-1.99","1z5t5teqo101ox9",517,"140.csv","","null","resources/maskTrios/BBA2.jpg","null","",NA,NA,NA,NA,""
"image-keyboard-response",310,387372,"0.0-3.99-2.99","1z5t5teqo101ox9",517,"140.csv","","null","resources/images/fishbone.png","null","",NA,NA,NA,NA,""
"image-keyboard-response",311,388075,"0.0-3.100-0.100","1z5t5teqo101ox9",517,"140.csv","","700.3000000715256","resources/trios/L2T2A2.jpg","38","restless",0.5,0.7,0.7,0.0156031114023722,"true"
"image-keyboard-response",312,388483,"0.0-3.100-1.100","1z5t5teqo101ox9",517,"140.csv","","null","resources/maskTrios/BT2B.jpg","null","",NA,NA,NA,NA,""
"image-keyboard-response",313,389690,"0.0-3.100-2.100","1z5t5teqo101ox9",517,"140.csv","","null","resources/images/coin2.png","null","",NA,NA,NA,NA,""
"image-keyboard-response",314,390458,"0.0-3.101-0.101","1z5t5teqo101ox9",517,"140.csv","","766.1000000238419","resources/trios/L4T2A3.jpg","38","restless",0.5,0.7,0.7,0.964294431943025,"false"
"image-keyboard-response",315,390865,"0.0-3.101-1.101","1z5t5teqo101ox9",517,"140.csv","","null","resources/maskTrios/BT2B.jpg","null","",NA,NA,NA,NA,""
"image-keyboard-response",316,392066,"0.0-3.101-2.101","1z5t5teqo101ox9",517,"140.csv","","null","resources/images/fishbone.png","null","",NA,NA,NA,NA,""
"image-keyboard-response",317,392172,"0.0-3.102-0.102","1z5t5teqo101ox9",517,"140.csv","","103.79999995231628","resources/trios/L4T2A2.jpg","39","restless",0.5,0.8,0.7,0.511220017473502,"true"
"image-keyboard-response",318,392579,"0.0-3.102-1.102","1z5t5teqo101ox9",517,"140.csv","","null","resources/maskTrios/BBA2.jpg","null","",NA,NA,NA,NA,""
"image-keyboard-response",319,393786,"0.0-3.102-2.102","1z5t5teqo101ox9",517,"140.csv","","null","resources/images/coin2.png","null","",NA,NA,NA,NA,""
"image-keyboard-response",320,394268,"0.0-3.103-0.103","1z5t5teqo101ox9",517,"140.csv","","480.3000000715256","resources/trios/L2T2A2.jpg","39","restless",0.5,0.8,0.7,0.680676998705967,"true"
"image-keyboard-response",321,394670,"0.0-3.103-1.103","1z5t5teqo101ox9",517,"140.csv","","null","resources/maskTrios/BBA2.jpg","null","",NA,NA,NA,NA,""
"image-keyboard-response",322,395874,"0.0-3.103-2.103","1z5t5teqo101ox9",517,"140.csv","","null","resources/images/coin2.png","null","",NA,NA,NA,NA,""
"image-keyboard-response",323,396379,"0.0-3.104-0.104","1z5t5teqo101ox9",517,"140.csv","","502.10000002384186","resources/trios/L4T1A2.jpg","39","restless",0.5,0.8,0.7,0.819152957528601,"false"
"image-keyboard-response",324,396787,"0.0-3.104-1.104","1z5t5teqo101ox9",517,"140.csv","","null","resources/maskTrios/BBA2.jpg","null","",NA,NA,NA,NA,""
"image-keyboard-response",325,397992,"0.0-3.104-2.104","1z5t5teqo101ox9",517,"140.csv","","null","resources/images/fishbone.png","null","",NA,NA,NA,NA,""
"image-keyboard-response",326,398697,"0.0-3.105-0.105","1z5t5teqo101ox9",517,"140.csv","","703","resources/trios/L4T1A2.jpg","39","restless",0.5,0.7,0.7,0.12635320484779,"true"
"image-keyboard-response",327,399102,"0.0-3.105-1.105","1z5t5teqo101ox9",517,"140.csv","","null","resources/maskTrios/BBA2.jpg","null","",NA,NA,NA,NA,""
"image-keyboard-response",328,400307,"0.0-3.105-2.105","1z5t5teqo101ox9",517,"140.csv","","null","resources/images/coin2.png","null","",NA,NA,NA,NA,""
"image-keyboard-response",329,400392,"0.0-3.106-0.106","1z5t5teqo101ox9",517,"140.csv","","82.10000002384186","resources/trios/L2T1A3.jpg","39","restless",0.5,0.7,0.6,0.903353818811344,"false"
"image-keyboard-response",330,400799,"0.0-3.106-1.106","1z5t5teqo101ox9",517,"140.csv","","null","resources/maskTrios/BBA3.jpg","null","",NA,NA,NA,NA,""
"image-keyboard-response",331,402003,"0.0-3.106-2.106","1z5t5teqo101ox9",517,"140.csv","","null","resources/images/fishbone.png","null","",NA,NA,NA,NA,""
"image-keyboard-response",332,402546,"0.0-3.107-0.107","1z5t5teqo101ox9",517,"140.csv","","541","resources/trios/L2T1A2.jpg","39","restless",0.5,0.7,0.6,0.454273994265664,"true"
"image-keyboard-response",333,402952,"0.0-3.107-1.107","1z5t5teqo101ox9",517,"140.csv","","null","resources/maskTrios/BBA2.jpg","null","",NA,NA,NA,NA,""
"image-keyboard-response",334,404158,"0.0-3.107-2.107","1z5t5teqo101ox9",517,"140.csv","","null","resources/images/coin2.png","null","",NA,NA,NA,NA,""
"image-keyboard-response",335,404767,"0.0-3.108-0.108","1z5t5teqo101ox9",517,"140.csv","","605.9000000953674","resources/trios/L2T1A3.jpg","39","restless",0.5,0.7,0.6,0.0145160757197353,"true"
"image-keyboard-response",336,405169,"0.0-3.108-1.108","1z5t5teqo101ox9",517,"140.csv","","null","resources/maskTrios/BBA3.jpg","null","",NA,NA,NA,NA,""
"image-keyboard-response",337,406377,"0.0-3.108-2.108","1z5t5teqo101ox9",517,"140.csv","","null","resources/images/coin2.png","null","",NA,NA,NA,NA,""
"image-keyboard-response",338,407028,"0.0-3.109-0.109","1z5t5teqo101ox9",517,"140.csv","","649.1000000238419","resources/trios/L4T2A3.jpg","39","restless",0.5,0.7,0.6,0.975517023849074,"false"
"image-keyboard-response",339,407435,"0.0-3.109-1.109","1z5t5teqo101ox9",517,"140.csv","","null","resources/maskTrios/BBA3.jpg","null","",NA,NA,NA,NA,""
"image-keyboard-response",340,408642,"0.0-3.109-2.109","1z5t5teqo101ox9",517,"140.csv","","null","resources/images/fishbone.png","null","",NA,NA,NA,NA,""
"image-keyboard-response",341,409243,"0.0-3.110-0.110","1z5t5teqo101ox9",517,"140.csv","","598.2000000476837","resources/trios/L2T2A3.jpg","39","restless",0.5,0.7,0.6,0.00595980498875504,"true"
"image-keyboard-response",342,409645,"0.0-3.110-1.110","1z5t5teqo101ox9",517,"140.csv","","null","resources/maskTrios/BBA3.jpg","null","",NA,NA,NA,NA,""
"image-keyboard-response",343,410853,"0.0-3.110-2.110","1z5t5teqo101ox9",517,"140.csv","","null","resources/images/coin2.png","null","",NA,NA,NA,NA,""
"image-keyboard-response",344,417134,"0.0-3.111-0.111","1z5t5teqo101ox9",517,"140.csv","","6278.700000047684","resources/trios/L2T1A2.jpg","39","restless",0.5,0.7,0.6,0.0678090939812037,"true"
"image-keyboard-response",345,417541,"0.0-3.111-1.111","1z5t5teqo101ox9",517,"140.csv","","null","resources/maskTrios/BBA2.jpg","null","",NA,NA,NA,NA,""
"image-keyboard-response",346,418749,"0.0-3.111-2.111","1z5t5teqo101ox9",517,"140.csv","","null","resources/images/coin2.png","null","",NA,NA,NA,NA,""
"image-keyboard-response",347,419515,"0.0-3.112-0.112","1z5t5teqo101ox9",517,"140.csv","","763.3000000715256","resources/trios/L2T1A3.jpg","39","restless",0.5,0.7,0.6,0.366542413689172,"true"
"image-keyboard-response",348,419922,"0.0-3.112-1.112","1z5t5teqo101ox9",517,"140.csv","","null","resources/maskTrios/BBA3.jpg","null","",NA,NA,NA,NA,""
"image-keyboard-response",349,421130,"0.0-3.112-2.112","1z5t5teqo101ox9",517,"140.csv","","null","resources/images/coin2.png","null","",NA,NA,NA,NA,""
"image-keyboard-response",350,424212,"0.0-3.113-0.113","1z5t5teqo101ox9",517,"140.csv","","3079.399999976158","resources/trios/L4T2A2.jpg","39","restless",0.5,0.7,0.5,0.434446096732255,"true"
"image-keyboard-response",351,424618,"0.0-3.113-1.113","1z5t5teqo101ox9",517,"140.csv","","null","resources/maskTrios/BBA2.jpg","null","",NA,NA,NA,NA,""
"image-keyboard-response",352,425822,"0.0-3.113-2.113","1z5t5teqo101ox9",517,"140.csv","","null","resources/images/coin2.png","null","",NA,NA,NA,NA,""
"image-keyboard-response",353,426655,"0.0-3.114-0.114","1z5t5teqo101ox9",517,"140.csv","","831.7999999523163","resources/trios/L2T2A3.jpg","39","restless",0.5,0.7,0.5,0.00506316786577066,"true"
"image-keyboard-response",354,427059,"0.0-3.114-1.114","1z5t5teqo101ox9",517,"140.csv","","null","resources/maskTrios/BBA3.jpg","null","",NA,NA,NA,NA,""
"image-keyboard-response",355,428262,"0.0-3.114-2.114","1z5t5teqo101ox9",517,"140.csv","","null","resources/images/coin2.png","null","",NA,NA,NA,NA,""
"image-keyboard-response",356,428997,"0.0-3.115-0.115","1z5t5teqo101ox9",517,"140.csv","","733.7999999523163","resources/trios/L2T2A2.jpg","39","restless",0.5,0.7,0.4,0.0389673349111017,"true"
"image-keyboard-response",357,429403,"0.0-3.115-1.115","1z5t5teqo101ox9",517,"140.csv","","null","resources/maskTrios/BBA2.jpg","null","",NA,NA,NA,NA,""
"image-keyboard-response",358,430611,"0.0-3.115-2.115","1z5t5teqo101ox9",517,"140.csv","","null","resources/images/coin2.png","null","",NA,NA,NA,NA,""
"image-keyboard-response",359,431390,"0.0-3.116-0.116","1z5t5teqo101ox9",517,"140.csv","","775.8000000715256","resources/trios/L2T2A3.jpg","39","restless",0.5,0.7,0.4,0.874623586964823,"false"
"image-keyboard-response",360,431793,"0.0-3.116-1.116","1z5t5teqo101ox9",517,"140.csv","","null","resources/maskTrios/BBA3.jpg","null","",NA,NA,NA,NA,""
"image-keyboard-response",361,432999,"0.0-3.116-2.116","1z5t5teqo101ox9",517,"140.csv","","null","resources/images/fishbone.png","null","",NA,NA,NA,NA,""
"image-keyboard-response",362,436247,"0.0-3.117-0.117","1z5t5teqo101ox9",517,"140.csv","","3246","resources/trios/L4T1A3.jpg","39","restless",0.5,0.7,0.4,0.159320906214671,"true"
"image-keyboard-response",363,436654,"0.0-3.117-1.117","1z5t5teqo101ox9",517,"140.csv","","null","resources/maskTrios/BBA3.jpg","null","",NA,NA,NA,NA,""
"image-keyboard-response",364,437861,"0.0-3.117-2.117","1z5t5teqo101ox9",517,"140.csv","","null","resources/images/coin2.png","null","",NA,NA,NA,NA,""
"image-keyboard-response",365,439193,"0.0-3.118-0.118","1z5t5teqo101ox9",517,"140.csv","","1330","resources/trios/L4T2A2.jpg","39","restless",0.5,0.7,0.4,0.915653698878456,"false"
"image-keyboard-response",366,439596,"0.0-3.118-1.118","1z5t5teqo101ox9",517,"140.csv","","null","resources/maskTrios/BBA2.jpg","null","",NA,NA,NA,NA,""
"image-keyboard-response",367,440798,"0.0-3.118-2.118","1z5t5teqo101ox9",517,"140.csv","","null","resources/images/fishbone.png","null","",NA,NA,NA,NA,""
"image-keyboard-response",368,441543,"0.0-3.119-0.119","1z5t5teqo101ox9",517,"140.csv","","741.7999999523163","resources/trios/L4T2A3.jpg","38","restless",0.5,0.7,0.4,0.582801866073797,"true"
"image-keyboard-response",369,441948,"0.0-3.119-1.119","1z5t5teqo101ox9",517,"140.csv","","null","resources/maskTrios/BT2B.jpg","null","",NA,NA,NA,NA,""
"image-keyboard-response",370,443153,"0.0-3.119-2.119","1z5t5teqo101ox9",517,"140.csv","","null","resources/images/coin2.png","null","",NA,NA,NA,NA,""
"image-keyboard-response",371,443666,"0.0-3.120-0.120","1z5t5teqo101ox9",517,"140.csv","","512.1000000238419","resources/trios/L2T2A3.jpg","39","restless",0.5,0.7,0.4,0.167853264190938,"true"
"image-keyboard-response",372,444073,"0.0-3.120-1.120","1z5t5teqo101ox9",517,"140.csv","","null","resources/maskTrios/BBA3.jpg","null","",NA,NA,NA,NA,""
"image-keyboard-response",373,445276,"0.0-3.120-2.120","1z5t5teqo101ox9",517,"140.csv","","null","resources/images/coin2.png","null","",NA,NA,NA,NA,""
"image-keyboard-response",374,446075,"0.0-3.121-0.121","1z5t5teqo101ox9",517,"140.csv","","796.6999999284744","resources/trios/L4T2A2.jpg","38","restless",0.5,0.7,0.4,0.106055631226299,"true"
"image-keyboard-response",375,446482,"0.0-3.121-1.121","1z5t5teqo101ox9",517,"140.csv","","null","resources/maskTrios/BT2B.jpg","null","",NA,NA,NA,NA,""
"image-keyboard-response",376,447686,"0.0-3.121-2.121","1z5t5teqo101ox9",517,"140.csv","","null","resources/images/coin2.png","null","",NA,NA,NA,NA,""
"image-keyboard-response",377,448152,"0.0-3.122-0.122","1z5t5teqo101ox9",517,"140.csv","","463.7000000476837","resources/trios/L2T1A2.jpg","39","restless",0.5,0.7,0.4,0.981310249805657,"false"
"image-keyboard-response",378,448559,"0.0-3.122-1.122","1z5t5teqo101ox9",517,"140.csv","","null","resources/maskTrios/BBA2.jpg","null","",NA,NA,NA,NA,""
"image-keyboard-response",379,449766,"0.0-3.122-2.122","1z5t5teqo101ox9",517,"140.csv","","null","resources/images/fishbone.png","null","",NA,NA,NA,NA,""
"image-keyboard-response",380,450433,"0.0-3.123-0.123","1z5t5teqo101ox9",517,"140.csv","","664.1000000238419","resources/trios/L2T2A2.jpg","38","restless",0.5,0.7,0.4,0.678397409036485,"true"
"image-keyboard-response",381,450840,"0.0-3.123-1.123","1z5t5teqo101ox9",517,"140.csv","","null","resources/maskTrios/BT2B.jpg","null","",NA,NA,NA,NA,""
"image-keyboard-response",382,452043,"0.0-3.123-2.123","1z5t5teqo101ox9",517,"140.csv","","null","resources/images/coin2.png","null","",NA,NA,NA,NA,""
"image-keyboard-response",383,452555,"0.0-3.124-0.124","1z5t5teqo101ox9",517,"140.csv","","508.5","resources/trios/L4T1A3.jpg","39","restless",0.5,0.7,0.4,0.855974338668596,"false"
"image-keyboard-response",384,452962,"0.0-3.124-1.124","1z5t5teqo101ox9",517,"140.csv","","null","resources/maskTrios/BBA3.jpg","null","",NA,NA,NA,NA,""
"image-keyboard-response",385,454166,"0.0-3.124-2.124","1z5t5teqo101ox9",517,"140.csv","","null","resources/images/fishbone.png","null","",NA,NA,NA,NA,""
"image-keyboard-response",386,455501,"0.0-3.125-0.125","1z5t5teqo101ox9",517,"140.csv","","1332.8999999761581","resources/trios/L4T1A2.jpg","37","restless",0.5,0.7,0.4,0.748031150784331,"false"
"image-keyboard-response",387,455909,"0.0-3.125-1.125","1z5t5teqo101ox9",517,"140.csv","","null","resources/maskTrios/L4BB.jpg","null","",NA,NA,NA,NA,""
"image-keyboard-response",388,457112,"0.0-3.125-2.125","1z5t5teqo101ox9",517,"140.csv","","null","resources/images/fishbone.png","null","",NA,NA,NA,NA,""
"image-keyboard-response",389,458470,"0.0-3.126-0.126","1z5t5teqo101ox9",517,"140.csv","","1355.5","resources/trios/L4T2A3.jpg","38","restless",0.5,0.7,0.3,0.945569190390025,"false"
"image-keyboard-response",390,458878,"0.0-3.126-1.126","1z5t5teqo101ox9",517,"140.csv","","null","resources/maskTrios/BT2B.jpg","null","",NA,NA,NA,NA,""
"image-keyboard-response",391,460085,"0.0-3.126-2.126","1z5t5teqo101ox9",517,"140.csv","","null","resources/images/fishbone.png","null","",NA,NA,NA,NA,""
"image-keyboard-response",392,460664,"0.0-3.127-0.127","1z5t5teqo101ox9",517,"140.csv","","577.2999999523163","resources/trios/L4T2A2.jpg","39","restless",0.5,0.7,0.3,0.232659578259023,"true"
"image-keyboard-response",393,461071,"0.0-3.127-1.127","1z5t5teqo101ox9",517,"140.csv","","null","resources/maskTrios/BBA2.jpg","null","",NA,NA,NA,NA,""
"image-keyboard-response",394,462277,"0.0-3.127-2.127","1z5t5teqo101ox9",517,"140.csv","","null","resources/images/coin2.png","null","",NA,NA,NA,NA,""
"image-keyboard-response",395,462886,"0.0-3.128-0.128","1z5t5teqo101ox9",517,"140.csv","","606","resources/trios/L4T2A2.jpg","39","restless",0.5,0.7,0.3,0.49308019253595,"false"
"image-keyboard-response",396,463289,"0.0-3.128-1.128","1z5t5teqo101ox9",517,"140.csv","","null","resources/maskTrios/BBA2.jpg","null","",NA,NA,NA,NA,""
"image-keyboard-response",397,464494,"0.0-3.128-2.128","1z5t5teqo101ox9",517,"140.csv","","null","resources/images/fishbone.png","null","",NA,NA,NA,NA,""
"image-keyboard-response",398,464959,"0.0-3.129-0.129","1z5t5teqo101ox9",517,"140.csv","","461.7999999523163","resources/trios/L4T1A3.jpg","38","restless",0.5,0.6,0.3,0.977963183303632,"false"
"image-keyboard-response",399,465366,"0.0-3.129-1.129","1z5t5teqo101ox9",517,"140.csv","","null","resources/maskTrios/BT1B.jpg","null","",NA,NA,NA,NA,""
"image-keyboard-response",400,466568,"0.0-3.129-2.129","1z5t5teqo101ox9",517,"140.csv","","null","resources/images/fishbone.png","null","",NA,NA,NA,NA,""
"image-keyboard-response",401,467066,"0.0-3.130-0.130","1z5t5teqo101ox9",517,"140.csv","","495.90000009536743","resources/trios/L2T2A3.jpg","39","restless",0.5,0.6,0.3,0.361014623248235,"false"
"image-keyboard-response",402,467470,"0.0-3.130-1.130","1z5t5teqo101ox9",517,"140.csv","","null","resources/maskTrios/BBA3.jpg","null","",NA,NA,NA,NA,""
"image-keyboard-response",403,468677,"0.0-3.130-2.130","1z5t5teqo101ox9",517,"140.csv","","null","resources/images/fishbone.png","null","",NA,NA,NA,NA,""
"image-keyboard-response",404,469639,"0.0-3.131-0.131","1z5t5teqo101ox9",517,"140.csv","","959.2999999523163","resources/trios/L4T2A2.jpg","39","restless",0.5,0.5,0.3,0.761296480776241,"false"
"image-keyboard-response",405,470045,"0.0-3.131-1.131","1z5t5teqo101ox9",517,"140.csv","","null","resources/maskTrios/BBA2.jpg","null","",NA,NA,NA,NA,""
"image-keyboard-response",406,471251,"0.0-3.131-2.131","1z5t5teqo101ox9",517,"140.csv","","null","resources/images/fishbone.png","null","",NA,NA,NA,NA,""
"image-keyboard-response",407,472047,"0.0-3.132-0.132","1z5t5teqo101ox9",517,"140.csv","","793.5","resources/trios/L4T1A3.jpg","39","restless",0.5,0.5,0.3,0.230660039367761,"true"
"image-keyboard-response",408,472454,"0.0-3.132-1.132","1z5t5teqo101ox9",517,"140.csv","","null","resources/maskTrios/BBA3.jpg","null","",NA,NA,NA,NA,""
"image-keyboard-response",409,473661,"0.0-3.132-2.132","1z5t5teqo101ox9",517,"140.csv","","null","resources/images/coin2.png","null","",NA,NA,NA,NA,""
"image-keyboard-response",410,476427,"0.0-3.133-0.133","1z5t5teqo101ox9",517,"140.csv","","2763.100000023842","resources/trios/L2T2A3.jpg","39","restless",0.5,0.4,0.3,0.587730793626588,"false"
"image-keyboard-response",411,476835,"0.0-3.133-1.133","1z5t5teqo101ox9",517,"140.csv","","null","resources/maskTrios/BBA3.jpg","null","",NA,NA,NA,NA,""
"image-keyboard-response",412,478042,"0.0-3.133-2.133","1z5t5teqo101ox9",517,"140.csv","","null","resources/images/fishbone.png","null","",NA,NA,NA,NA,""
"image-keyboard-response",413,479859,"0.0-3.134-0.134","1z5t5teqo101ox9",517,"140.csv","","1814.7999999523163","resources/trios/L2T2A3.jpg","38","restless",0.5,0.4,0.3,0.874557708829743,"false"
"image-keyboard-response",414,480267,"0.0-3.134-1.134","1z5t5teqo101ox9",517,"140.csv","","null","resources/maskTrios/BT2B.jpg","null","",NA,NA,NA,NA,""
"image-keyboard-response",415,481474,"0.0-3.134-2.134","1z5t5teqo101ox9",517,"140.csv","","null","resources/images/fishbone.png","null","",NA,NA,NA,NA,""
"image-keyboard-response",416,482205,"0.0-3.135-0.135","1z5t5teqo101ox9",517,"140.csv","","728.2999999523163","resources/trios/L2T2A2.jpg","39","restless",0.5,0.4,0.4,0.919123116730099,"false"
"image-keyboard-response",417,482612,"0.0-3.135-1.135","1z5t5teqo101ox9",517,"140.csv","","null","resources/maskTrios/BBA2.jpg","null","",NA,NA,NA,NA,""
"image-keyboard-response",418,483814,"0.0-3.135-2.135","1z5t5teqo101ox9",517,"140.csv","","null","resources/images/fishbone.png","null","",NA,NA,NA,NA,""
"image-keyboard-response",419,483941,"0.0-3.136-0.136","1z5t5teqo101ox9",517,"140.csv","","124.89999997615814","resources/trios/L2T1A2.jpg","39","restless",0.5,0.4,0.4,0.339074771337557,"true"
"image-keyboard-response",420,484344,"0.0-3.136-1.136","1z5t5teqo101ox9",517,"140.csv","","null","resources/maskTrios/BBA2.jpg","null","",NA,NA,NA,NA,""
"image-keyboard-response",421,485549,"0.0-3.136-2.136","1z5t5teqo101ox9",517,"140.csv","","null","resources/images/coin2.png","null","",NA,NA,NA,NA,""
"image-keyboard-response",422,486013,"0.0-3.137-0.137","1z5t5teqo101ox9",517,"140.csv","","462.1999999284744","resources/trios/L4T2A3.jpg","39","restless",0.5,0.4,0.4,0.229712068063851,"true"
"image-keyboard-response",423,486421,"0.0-3.137-1.137","1z5t5teqo101ox9",517,"140.csv","","null","resources/maskTrios/BBA3.jpg","null","",NA,NA,NA,NA,""
"image-keyboard-response",424,487626,"0.0-3.137-2.137","1z5t5teqo101ox9",517,"140.csv","","null","resources/images/coin2.png","null","",NA,NA,NA,NA,""
"image-keyboard-response",425,487667,"0.0-3.138-0.138","1z5t5teqo101ox9",517,"140.csv","","38.5","resources/trios/L4T2A3.jpg","39","restless",0.5,0.4,0.4,0.512398796379177,"false"
"image-keyboard-response",426,488069,"0.0-3.138-1.138","1z5t5teqo101ox9",517,"140.csv","","null","resources/maskTrios/BBA3.jpg","null","",NA,NA,NA,NA,""
"image-keyboard-response",427,489276,"0.0-3.138-2.138","1z5t5teqo101ox9",517,"140.csv","","null","resources/images/fishbone.png","null","",NA,NA,NA,NA,""
"image-keyboard-response",428,494011,"0.0-3.139-0.139","1z5t5teqo101ox9",517,"140.csv","","4732.900000095367","resources/trios/L4T1A3.jpg","39","restless",0.5,0.4,0.4,0.139065498681666,"true"
"image-keyboard-response",429,494419,"0.0-3.139-1.139","1z5t5teqo101ox9",517,"140.csv","","null","resources/maskTrios/BBA3.jpg","null","",NA,NA,NA,NA,""
"image-keyboard-response",430,495626,"0.0-3.139-2.139","1z5t5teqo101ox9",517,"140.csv","","null","resources/images/coin2.png","null","",NA,NA,NA,NA,""
"image-keyboard-response",431,496403,"0.0-3.140-0.140","1z5t5teqo101ox9",517,"140.csv","","775","resources/trios/L4T1A3.jpg","39","restless",0.5,0.4,0.4,0.712178450615678,"false"
"image-keyboard-response",432,496807,"0.0-3.140-1.140","1z5t5teqo101ox9",517,"140.csv","","null","resources/maskTrios/BBA3.jpg","null","",NA,NA,NA,NA,""
"image-keyboard-response",433,498014,"0.0-3.140-2.140","1z5t5teqo101ox9",517,"140.csv","","null","resources/images/fishbone.png","null","",NA,NA,NA,NA,""
"image-keyboard-response",434,499383,"0.0-3.141-0.141","1z5t5teqo101ox9",517,"140.csv","","1365.8999999761581","resources/trios/L4T1A2.jpg","37","restless",0.5,0.4,0.4,0.283658566095325,"true"
"image-keyboard-response",435,499788,"0.0-3.141-1.141","1z5t5teqo101ox9",517,"140.csv","","null","resources/maskTrios/L4BB.jpg","null","",NA,NA,NA,NA,""
"image-keyboard-response",436,500995,"0.0-3.141-2.141","1z5t5teqo101ox9",517,"140.csv","","null","resources/images/coin2.png","null","",NA,NA,NA,NA,""
"image-keyboard-response",437,502025,"0.0-3.142-0.142","1z5t5teqo101ox9",517,"140.csv","","1028","resources/trios/L2T2A2.jpg","37","restless",0.5,0.4,0.4,0.630659382262417,"false"
"image-keyboard-response",438,502427,"0.0-3.142-1.142","1z5t5teqo101ox9",517,"140.csv","","null","resources/maskTrios/L2BB.jpg","null","",NA,NA,NA,NA,""
"image-keyboard-response",439,503635,"0.0-3.142-2.142","1z5t5teqo101ox9",517,"140.csv","","null","resources/images/fishbone.png","null","",NA,NA,NA,NA,""
"image-keyboard-response",440,504442,"0.0-3.143-0.143","1z5t5teqo101ox9",517,"140.csv","","805.1000000238419","resources/trios/L4T1A3.jpg","38","restless",0.5,0.3,0.4,0.706941401539987,"false"
"image-keyboard-response",441,504849,"0.0-3.143-1.143","1z5t5teqo101ox9",517,"140.csv","","null","resources/maskTrios/BT1B.jpg","null","",NA,NA,NA,NA,""
"image-keyboard-response",442,506056,"0.0-3.143-2.143","1z5t5teqo101ox9",517,"140.csv","","null","resources/images/fishbone.png","null","",NA,NA,NA,NA,""
"image-keyboard-response",443,506511,"0.0-3.144-0.144","1z5t5teqo101ox9",517,"140.csv","","452.10000002384186","resources/trios/L4T2A3.jpg","39","restless",0.6,0.3,0.4,0.943529993347134,"false"
"image-keyboard-response",444,506916,"0.0-3.144-1.144","1z5t5teqo101ox9",517,"140.csv","","null","resources/maskTrios/BBA3.jpg","null","",NA,NA,NA,NA,""
"image-keyboard-response",445,508119,"0.0-3.144-2.144","1z5t5teqo101ox9",517,"140.csv","","null","resources/images/fishbone.png","null","",NA,NA,NA,NA,""
"image-keyboard-response",446,510885,"0.0-3.145-0.145","1z5t5teqo101ox9",517,"140.csv","","2763.100000023842","resources/trios/L4T1A3.jpg","37","restless",0.6,0.3,0.4,0.149657670355992,"true"
"image-keyboard-response",447,511289,"0.0-3.145-1.145","1z5t5teqo101ox9",517,"140.csv","","null","resources/maskTrios/L4BB.jpg","null","",NA,NA,NA,NA,""
"image-keyboard-response",448,512496,"0.0-3.145-2.145","1z5t5teqo101ox9",517,"140.csv","","null","resources/images/coin2.png","null","",NA,NA,NA,NA,""
"image-keyboard-response",449,514646,"0.0-3.146-0.146","1z5t5teqo101ox9",517,"140.csv","","2148","resources/trios/L2T1A2.jpg","39","restless",0.6,0.3,0.4,0.1092185771778,"true"
"image-keyboard-response",450,515053,"0.0-3.146-1.146","1z5t5teqo101ox9",517,"140.csv","","null","resources/maskTrios/BBA2.jpg","null","",NA,NA,NA,NA,""
"image-keyboard-response",451,516258,"0.0-3.146-2.146","1z5t5teqo101ox9",517,"140.csv","","null","resources/images/coin2.png","null","",NA,NA,NA,NA,""
"image-keyboard-response",452,517301,"0.0-3.147-0.147","1z5t5teqo101ox9",517,"140.csv","","1039.8999999761581","resources/trios/L2T1A3.jpg","39","restless",0.6,0.3,0.4,0.476017912604959,"false"
"image-keyboard-response",453,517708,"0.0-3.147-1.147","1z5t5teqo101ox9",517,"140.csv","","null","resources/maskTrios/BBA3.jpg","null","",NA,NA,NA,NA,""
"image-keyboard-response",454,518911,"0.0-3.147-2.147","1z5t5teqo101ox9",517,"140.csv","","null","resources/images/fishbone.png","null","",NA,NA,NA,NA,""
"image-keyboard-response",455,523449,"0.0-3.148-0.148","1z5t5teqo101ox9",517,"140.csv","","4536.200000047684","resources/trios/L4T2A2.jpg","38","restless",0.6,0.3,0.4,0.40512296671647,"false"
"image-keyboard-response",456,523857,"0.0-3.148-1.148","1z5t5teqo101ox9",517,"140.csv","","null","resources/maskTrios/BT2B.jpg","null","",NA,NA,NA,NA,""
"image-keyboard-response",457,525061,"0.0-3.148-2.148","1z5t5teqo101ox9",517,"140.csv","","null","resources/images/fishbone.png","null","",NA,NA,NA,NA,""
"image-keyboard-response",458,526090,"0.0-3.149-0.149","1z5t5teqo101ox9",517,"140.csv","","1027.2000000476837","resources/trios/L2T2A2.jpg","39","restless",0.6,0.3,0.4,0.839847932291743,"false"
"image-keyboard-response",459,526498,"0.0-3.149-1.149","1z5t5teqo101ox9",517,"140.csv","","null","resources/maskTrios/BBA2.jpg","null","",NA,NA,NA,NA,""
"image-keyboard-response",460,527702,"0.0-3.149-2.149","1z5t5teqo101ox9",517,"140.csv","","null","resources/images/fishbone.png","null","",NA,NA,NA,NA,""
"image-keyboard-response",461,528575,"0.0-3.150-0.150","1z5t5teqo101ox9",517,"140.csv","","870.0999999046326","resources/trios/L2T2A3.jpg","37","restless",0.6,0.3,0.4,0.0915363185644611,"true"
"image-keyboard-response",462,528983,"0.0-3.150-1.150","1z5t5teqo101ox9",517,"140.csv","","null","resources/maskTrios/L2BB.jpg","null","",NA,NA,NA,NA,""
"image-keyboard-response",463,530189,"0.0-3.150-2.150","1z5t5teqo101ox9",517,"140.csv","","null","resources/images/coin2.png","null","",NA,NA,NA,NA,""
"image-keyboard-response",464,531278,"0.0-3.151-0.151","1z5t5teqo101ox9",517,"140.csv","","1087.1000000238419","resources/trios/L2T1A2.jpg","37","restless",0.6,0.4,0.4,0.121561881646589,"true"
"image-keyboard-response",465,531683,"0.0-3.151-1.151","1z5t5teqo101ox9",517,"140.csv","","null","resources/maskTrios/L2BB.jpg","null","",NA,NA,NA,NA,""
"image-keyboard-response",466,532889,"0.0-3.151-2.151","1z5t5teqo101ox9",517,"140.csv","","null","resources/images/coin2.png","null","",NA,NA,NA,NA,""
"image-keyboard-response",467,533532,"0.0-3.152-0.152","1z5t5teqo101ox9",517,"140.csv","","641.5","resources/trios/L4T1A3.jpg","39","restless",0.7,0.4,0.4,0.367758756480827,"true"
"image-keyboard-response",468,533938,"0.0-3.152-1.152","1z5t5teqo101ox9",517,"140.csv","","null","resources/maskTrios/BBA3.jpg","null","",NA,NA,NA,NA,""
"image-keyboard-response",469,535144,"0.0-3.152-2.152","1z5t5teqo101ox9",517,"140.csv","","null","resources/images/coin2.png","null","",NA,NA,NA,NA,""
"image-keyboard-response",470,536197,"0.0-3.153-0.153","1z5t5teqo101ox9",517,"140.csv","","1050.7999999523163","resources/trios/L2T1A2.jpg","37","restless",0.7,0.4,0.4,0.238260462258722,"true"
"image-keyboard-response",471,536605,"0.0-3.153-1.153","1z5t5teqo101ox9",517,"140.csv","","null","resources/maskTrios/L2BB.jpg","null","",NA,NA,NA,NA,""
"image-keyboard-response",472,537811,"0.0-3.153-2.153","1z5t5teqo101ox9",517,"140.csv","","null","resources/images/coin2.png","null","",NA,NA,NA,NA,""
"image-keyboard-response",473,538344,"0.0-3.154-0.154","1z5t5teqo101ox9",517,"140.csv","","530.8000000715256","resources/trios/L2T2A2.jpg","39","restless",0.7,0.4,0.4,0.807691369450128,"false"
"image-keyboard-response",474,538749,"0.0-3.154-1.154","1z5t5teqo101ox9",517,"140.csv","","null","resources/maskTrios/BBA2.jpg","null","",NA,NA,NA,NA,""
"image-keyboard-response",475,539957,"0.0-3.154-2.154","1z5t5teqo101ox9",517,"140.csv","","null","resources/images/fishbone.png","null","",NA,NA,NA,NA,""
"image-keyboard-response",476,540927,"0.0-3.155-0.155","1z5t5teqo101ox9",517,"140.csv","","967.8999999761581","resources/trios/L2T1A3.jpg","37","restless",0.7,0.4,0.4,0.713146284655419,"false"
"image-keyboard-response",477,541335,"0.0-3.155-1.155","1z5t5teqo101ox9",517,"140.csv","","null","resources/maskTrios/L2BB.jpg","null","",NA,NA,NA,NA,""
"image-keyboard-response",478,542542,"0.0-3.155-2.155","1z5t5teqo101ox9",517,"140.csv","","null","resources/images/fishbone.png","null","",NA,NA,NA,NA,""
"image-keyboard-response",479,543576,"0.0-3.156-0.156","1z5t5teqo101ox9",517,"140.csv","","1031.6999999284744","resources/trios/L2T2A3.jpg","38","restless",0.8,0.4,0.4,0.163527728085593,"true"
"image-keyboard-response",480,543981,"0.0-3.156-1.156","1z5t5teqo101ox9",517,"140.csv","","null","resources/maskTrios/BT2B.jpg","null","",NA,NA,NA,NA,""
"image-keyboard-response",481,545184,"0.0-3.156-2.156","1z5t5teqo101ox9",517,"140.csv","","null","resources/images/coin2.png","null","",NA,NA,NA,NA,""
"image-keyboard-response",482,546606,"0.0-3.157-0.157","1z5t5teqo101ox9",517,"140.csv","","1419.3000000715256","resources/trios/L4T2A3.jpg","38","restless",0.8,0.4,0.4,0.0485912746282846,"true"
"image-keyboard-response",483,547013,"0.0-3.157-1.157","1z5t5teqo101ox9",517,"140.csv","","null","resources/maskTrios/BT2B.jpg","null","",NA,NA,NA,NA,""
"image-keyboard-response",484,548221,"0.0-3.157-2.157","1z5t5teqo101ox9",517,"140.csv","","null","resources/images/coin2.png","null","",NA,NA,NA,NA,""
"image-keyboard-response",485,548911,"0.0-3.158-0.158","1z5t5teqo101ox9",517,"140.csv","","688.2999999523163","resources/trios/L4T1A2.jpg","39","restless",0.8,0.4,0.4,0.188898001007048,"true"
"image-keyboard-response",486,549319,"0.0-3.158-1.158","1z5t5teqo101ox9",517,"140.csv","","null","resources/maskTrios/BBA2.jpg","null","",NA,NA,NA,NA,""
"image-keyboard-response",487,550527,"0.0-3.158-2.158","1z5t5teqo101ox9",517,"140.csv","","null","resources/images/coin2.png","null","",NA,NA,NA,NA,""
"image-keyboard-response",488,554968,"0.0-3.159-0.159","1z5t5teqo101ox9",517,"140.csv","","4439.200000047684","resources/trios/L4T2A2.jpg","39","restless",0.8,0.5,0.4,0.0597510356872544,"true"
"image-keyboard-response",489,555370,"0.0-3.159-1.159","1z5t5teqo101ox9",517,"140.csv","","null","resources/maskTrios/BBA2.jpg","null","",NA,NA,NA,NA,""
"image-keyboard-response",490,556577,"0.0-3.159-2.159","1z5t5teqo101ox9",517,"140.csv","","null","resources/images/coin2.png","null","",NA,NA,NA,NA,""
"image-keyboard-response",491,558884,"0.0-3.160-0.160","1z5t5teqo101ox9",517,"140.csv","","2304.100000023842","resources/trios/L4T2A3.jpg","39","restless",0.8,0.5,0.4,0.280698577864228,"true"
"image-keyboard-response",492,559288,"0.0-3.160-1.160","1z5t5teqo101ox9",517,"140.csv","","null","resources/maskTrios/BBA3.jpg","null","",NA,NA,NA,NA,""
"image-keyboard-response",493,560494,"0.0-3.160-2.160","1z5t5teqo101ox9",517,"140.csv","","null","resources/images/coin2.png","null","",NA,NA,NA,NA,""
"image-keyboard-response",494,561137,"0.0-3.161-0.161","1z5t5teqo101ox9",517,"140.csv","","639.8999999761581","resources/trios/L2T1A2.jpg","39","restless",0.8,0.5,0.4,0.387845489229056,"true"
"image-keyboard-response",495,561544,"0.0-3.161-1.161","1z5t5teqo101ox9",517,"140.csv","","null","resources/maskTrios/BBA2.jpg","null","",NA,NA,NA,NA,""
"image-keyboard-response",496,562750,"0.0-3.161-2.161","1z5t5teqo101ox9",517,"140.csv","","null","resources/images/coin2.png","null","",NA,NA,NA,NA,""
"image-keyboard-response",497,563405,"0.0-3.162-0.162","1z5t5teqo101ox9",517,"140.csv","","652.2000000476837","resources/trios/L2T1A3.jpg","39","restless",0.9,0.5,0.4,0.374351734523849,"true"
"image-keyboard-response",498,563809,"0.0-3.162-1.162","1z5t5teqo101ox9",517,"140.csv","","null","resources/maskTrios/BBA3.jpg","null","",NA,NA,NA,NA,""
"image-keyboard-response",499,565016,"0.0-3.162-2.162","1z5t5teqo101ox9",517,"140.csv","","null","resources/images/coin2.png","null","",NA,NA,NA,NA,""
"image-keyboard-response",500,565893,"0.0-3.163-0.163","1z5t5teqo101ox9",517,"140.csv","","874.5","resources/trios/L2T1A2.jpg","39","restless",0.9,0.5,0.4,0.403765412142215,"false"
"image-keyboard-response",501,566300,"0.0-3.163-1.163","1z5t5teqo101ox9",517,"140.csv","","null","resources/maskTrios/BBA2.jpg","null","",NA,NA,NA,NA,""
"image-keyboard-response",502,567507,"0.0-3.163-2.163","1z5t5teqo101ox9",517,"140.csv","","null","resources/images/fishbone.png","null","",NA,NA,NA,NA,""
"image-keyboard-response",503,572735,"0.0-3.164-0.164","1z5t5teqo101ox9",517,"140.csv","","5226.799999952316","resources/trios/L4T2A2.jpg","38","restless",0.9,0.5,0.4,0.599107118938131,"false"
"image-keyboard-response",504,573143,"0.0-3.164-1.164","1z5t5teqo101ox9",517,"140.csv","","null","resources/maskTrios/BT2B.jpg","null","",NA,NA,NA,NA,""
"image-keyboard-response",505,574348,"0.0-3.164-2.164","1z5t5teqo101ox9",517,"140.csv","","null","resources/images/fishbone.png","null","",NA,NA,NA,NA,""
"image-keyboard-response",506,575370,"0.0-3.165-0.165","1z5t5teqo101ox9",517,"140.csv","","1019.9000000953674","resources/trios/L4T2A2.jpg","39","restless",0.9,0.5,0.4,0.64613104818939,"false"
"image-keyboard-response",507,575777,"0.0-3.165-1.165","1z5t5teqo101ox9",517,"140.csv","","null","resources/maskTrios/BBA2.jpg","null","",NA,NA,NA,NA,""
"image-keyboard-response",508,576981,"0.0-3.165-2.165","1z5t5teqo101ox9",517,"140.csv","","null","resources/images/fishbone.png","null","",NA,NA,NA,NA,""
"image-keyboard-response",509,578111,"0.0-3.166-0.166","1z5t5teqo101ox9",517,"140.csv","","1128.5","resources/trios/L2T1A3.jpg","37","restless",0.9,0.5,0.4,0.983903478861565,"false"
"image-keyboard-response",510,578518,"0.0-3.166-1.166","1z5t5teqo101ox9",517,"140.csv","","null","resources/maskTrios/L2BB.jpg","null","",NA,NA,NA,NA,""
"image-keyboard-response",511,579722,"0.0-3.166-2.166","1z5t5teqo101ox9",517,"140.csv","","null","resources/images/fishbone.png","null","",NA,NA,NA,NA,""
"image-keyboard-response",512,580704,"0.0-3.167-0.167","1z5t5teqo101ox9",517,"140.csv","","979.8999999761581","resources/trios/L4T2A2.jpg","39","restless",0.9,0.5,0.4,0.391280024930124,"true"
"image-keyboard-response",513,581109,"0.0-3.167-1.167","1z5t5teqo101ox9",517,"140.csv","","null","resources/maskTrios/BBA2.jpg","null","",NA,NA,NA,NA,""
"image-keyboard-response",514,582311,"0.0-3.167-2.167","1z5t5teqo101ox9",517,"140.csv","","null","resources/images/coin2.png","null","",NA,NA,NA,NA,""
"image-keyboard-response",515,582868,"0.0-3.168-0.168","1z5t5teqo101ox9",517,"140.csv","","554.8999999761581","resources/trios/L2T1A3.jpg","39","restless",0.9,0.5,0.4,0.280397413317348,"true"
"image-keyboard-response",516,583274,"0.0-3.168-1.168","1z5t5teqo101ox9",517,"140.csv","","null","resources/maskTrios/BBA3.jpg","null","",NA,NA,NA,NA,""
"image-keyboard-response",517,584477,"0.0-3.168-2.168","1z5t5teqo101ox9",517,"140.csv","","null","resources/images/coin2.png","null","",NA,NA,NA,NA,""
"image-keyboard-response",518,584999,"0.0-3.169-0.169","1z5t5teqo101ox9",517,"140.csv","","520.5","resources/trios/L2T1A3.jpg","39","restless",0.9,0.5,0.4,0.778685366025552,"false"
"image-keyboard-response",519,585407,"0.0-3.169-1.169","1z5t5teqo101ox9",517,"140.csv","","null","resources/maskTrios/BBA3.jpg","null","",NA,NA,NA,NA,""
"image-keyboard-response",520,586613,"0.0-3.169-2.169","1z5t5teqo101ox9",517,"140.csv","","null","resources/images/fishbone.png","null","",NA,NA,NA,NA,""
"image-keyboard-response",521,587737,"0.0-3.170-0.170","1z5t5teqo101ox9",517,"140.csv","","1121.2999999523163","resources/trios/L4T2A3.jpg","38","restless",0.9,0.5,0.4,0.81150330013613,"false"
"image-keyboard-response",522,588142,"0.0-3.170-1.170","1z5t5teqo101ox9",517,"140.csv","","null","resources/maskTrios/BT2B.jpg","null","",NA,NA,NA,NA,""
"image-keyboard-response",523,589349,"0.0-3.170-2.170","1z5t5teqo101ox9",517,"140.csv","","null","resources/images/fishbone.png","null","",NA,NA,NA,NA,""
"image-keyboard-response",524,589878,"0.0-3.171-0.171","1z5t5teqo101ox9",517,"140.csv","","526.8000000715256","resources/trios/L4T2A3.jpg","39","restless",0.9,0.5,0.4,0.786281112324322,"false"
"image-keyboard-response",525,590286,"0.0-3.171-1.171","1z5t5teqo101ox9",517,"140.csv","","null","resources/maskTrios/BBA3.jpg","null","",NA,NA,NA,NA,""
"image-keyboard-response",526,591491,"0.0-3.171-2.171","1z5t5teqo101ox9",517,"140.csv","","null","resources/images/fishbone.png","null","",NA,NA,NA,NA,""
"image-keyboard-response",527,593994,"0.0-3.172-0.172","1z5t5teqo101ox9",517,"140.csv","","2499.8000000715256","resources/trios/L4T2A3.jpg","38","restless",0.9,0.5,0.4,0.608599342715852,"false"
"image-keyboard-response",528,594400,"0.0-3.172-1.172","1z5t5teqo101ox9",517,"140.csv","","null","resources/maskTrios/BT2B.jpg","null","",NA,NA,NA,NA,""
"image-keyboard-response",529,595607,"0.0-3.172-2.172","1z5t5teqo101ox9",517,"140.csv","","null","resources/images/fishbone.png","null","",NA,NA,NA,NA,""
"image-keyboard-response",530,602395,"0.0-3.173-0.173","1z5t5teqo101ox9",517,"140.csv","","6785.100000023842","resources/trios/L2T1A3.jpg","39","restless",0.9,0.5,0.4,0.172702126836245,"true"
"image-keyboard-response",531,602803,"0.0-3.173-1.173","1z5t5teqo101ox9",517,"140.csv","","null","resources/maskTrios/BBA3.jpg","null","",NA,NA,NA,NA,""
"image-keyboard-response",532,604010,"0.0-3.173-2.173","1z5t5teqo101ox9",517,"140.csv","","null","resources/images/coin2.png","null","",NA,NA,NA,NA,""
"image-keyboard-response",533,605370,"0.0-3.174-0.174","1z5t5teqo101ox9",517,"140.csv","","1357.6999999284744","resources/trios/L4T2A2.jpg","38","restless",0.9,0.5,0.4,0.748565157347689,"false"
"image-keyboard-response",534,605778,"0.0-3.174-1.174","1z5t5teqo101ox9",517,"140.csv","","null","resources/maskTrios/BT2B.jpg","null","",NA,NA,NA,NA,""
"image-keyboard-response",535,606980,"0.0-3.174-2.174","1z5t5teqo101ox9",517,"140.csv","","null","resources/images/fishbone.png","null","",NA,NA,NA,NA,""
"image-keyboard-response",536,607437,"0.0-3.175-0.175","1z5t5teqo101ox9",517,"140.csv","","454.7000000476837","resources/trios/L4T2A2.jpg","38","restless",0.9,0.5,0.4,0.981004526000776,"false"
"image-keyboard-response",537,607845,"0.0-3.175-1.175","1z5t5teqo101ox9",517,"140.csv","","null","resources/maskTrios/BT2B.jpg","null","",NA,NA,NA,NA,""
"image-keyboard-response",538,609049,"0.0-3.175-2.175","1z5t5teqo101ox9",517,"140.csv","","null","resources/images/fishbone.png","null","",NA,NA,NA,NA,""
"image-keyboard-response",539,609626,"0.0-3.176-0.176","1z5t5teqo101ox9",517,"140.csv","","574.5","resources/trios/L2T2A3.jpg","39","restless",0.9,0.5,0.4,0.840527260527205,"false"
"image-keyboard-response",540,610029,"0.0-3.176-1.176","1z5t5teqo101ox9",517,"140.csv","","null","resources/maskTrios/BBA3.jpg","null","",NA,NA,NA,NA,""
"image-keyboard-response",541,611236,"0.0-3.176-2.176","1z5t5teqo101ox9",517,"140.csv","","null","resources/images/fishbone.png","null","",NA,NA,NA,NA,""
"image-keyboard-response",542,611799,"0.0-3.177-0.177","1z5t5teqo101ox9",517,"140.csv","","561","resources/trios/L4T1A2.jpg","37","restless",0.9,0.5,0.4,0.749189381118429,"true"
"image-keyboard-response",543,612207,"0.0-3.177-1.177","1z5t5teqo101ox9",517,"140.csv","","null","resources/maskTrios/L4BB.jpg","null","",NA,NA,NA,NA,""
"image-keyboard-response",544,613413,"0.0-3.177-2.177","1z5t5teqo101ox9",517,"140.csv","","null","resources/images/coin2.png","null","",NA,NA,NA,NA,""
"image-keyboard-response",545,614002,"0.0-3.178-0.178","1z5t5teqo101ox9",517,"140.csv","","587.2000000476837","resources/trios/L2T1A3.jpg","37","restless",0.9,0.5,0.4,0.691799619346469,"true"
"image-keyboard-response",546,614409,"0.0-3.178-1.178","1z5t5teqo101ox9",517,"140.csv","","null","resources/maskTrios/L2BB.jpg","null","",NA,NA,NA,NA,""
"image-keyboard-response",547,615617,"0.0-3.178-2.178","1z5t5teqo101ox9",517,"140.csv","","null","resources/images/coin2.png","null","",NA,NA,NA,NA,""
"image-keyboard-response",548,616145,"0.0-3.179-0.179","1z5t5teqo101ox9",517,"140.csv","","525.2999999523163","resources/trios/L2T1A3.jpg","39","restless",0.8,0.5,0.3,0.208495299820409,"true"
"image-keyboard-response",549,616548,"0.0-3.179-1.179","1z5t5teqo101ox9",517,"140.csv","","null","resources/maskTrios/BBA3.jpg","null","",NA,NA,NA,NA,""
"image-keyboard-response",550,617751,"0.0-3.179-2.179","1z5t5teqo101ox9",517,"140.csv","","null","resources/images/coin2.png","null","",NA,NA,NA,NA,""
"image-keyboard-response",551,618336,"0.0-3.180-0.180","1z5t5teqo101ox9",517,"140.csv","","582.8999999761581","resources/trios/L4T1A2.jpg","37","restless",0.7,0.5,0.3,0.972563082512899,"false"
"image-keyboard-response",552,618744,"0.0-3.180-1.180","1z5t5teqo101ox9",517,"140.csv","","null","resources/maskTrios/L4BB.jpg","null","",NA,NA,NA,NA,""
"image-keyboard-response",553,619951,"0.0-3.180-2.180","1z5t5teqo101ox9",517,"140.csv","","null","resources/images/fishbone.png","null","",NA,NA,NA,NA,""
"image-keyboard-response",554,620424,"0.0-3.181-0.181","1z5t5teqo101ox9",517,"140.csv","","470.2999999523163","resources/trios/L4T2A2.jpg","39","restless",0.7,0.5,0.3,0.62299744671397,"false"
"image-keyboard-response",555,620829,"0.0-3.181-1.181","1z5t5teqo101ox9",517,"140.csv","","null","resources/maskTrios/BBA2.jpg","null","",NA,NA,NA,NA,""
"image-keyboard-response",556,622035,"0.0-3.181-2.181","1z5t5teqo101ox9",517,"140.csv","","null","resources/images/fishbone.png","null","",NA,NA,NA,NA,""
"image-keyboard-response",557,622446,"0.0-3.182-0.182","1z5t5teqo101ox9",517,"140.csv","","408.09999990463257","resources/trios/L2T1A2.jpg","38","restless",0.7,0.5,0.3,0.448587063197522,"true"
"image-keyboard-response",558,622853,"0.0-3.182-1.182","1z5t5teqo101ox9",517,"140.csv","","null","resources/maskTrios/BT1B.jpg","null","",NA,NA,NA,NA,""
"image-keyboard-response",559,624057,"0.0-3.182-2.182","1z5t5teqo101ox9",517,"140.csv","","null","resources/images/coin2.png","null","",NA,NA,NA,NA,""
"image-keyboard-response",560,625347,"0.0-3.183-0.183","1z5t5teqo101ox9",517,"140.csv","","1287.8999999761581","resources/trios/L4T2A2.jpg","38","restless",0.7,0.5,0.3,0.257281308608343,"true"
"image-keyboard-response",561,625754,"0.0-3.183-1.183","1z5t5teqo101ox9",517,"140.csv","","null","resources/maskTrios/BT2B.jpg","null","",NA,NA,NA,NA,""
"image-keyboard-response",562,626959,"0.0-3.183-2.183","1z5t5teqo101ox9",517,"140.csv","","null","resources/images/coin2.png","null","",NA,NA,NA,NA,""
"image-keyboard-response",563,628165,"0.0-3.184-0.184","1z5t5teqo101ox9",517,"140.csv","","1204.2999999523163","resources/trios/L4T2A2.jpg","37","restless",0.6,0.5,0.3,0.176786585834106,"true"
"image-keyboard-response",564,628569,"0.0-3.184-1.184","1z5t5teqo101ox9",517,"140.csv","","null","resources/maskTrios/L4BB.jpg","null","",NA,NA,NA,NA,""
"image-keyboard-response",565,629776,"0.0-3.184-2.184","1z5t5teqo101ox9",517,"140.csv","","null","resources/images/coin2.png","null","",NA,NA,NA,NA,""
"image-keyboard-response",566,630279,"0.0-3.185-0.185","1z5t5teqo101ox9",517,"140.csv","","500","resources/trios/L4T1A3.jpg","39","restless",0.6,0.5,0.3,0.670365312554019,"false"
"image-keyboard-response",567,630686,"0.0-3.185-1.185","1z5t5teqo101ox9",517,"140.csv","","null","resources/maskTrios/BBA3.jpg","null","",NA,NA,NA,NA,""
"image-keyboard-response",568,631894,"0.0-3.185-2.185","1z5t5teqo101ox9",517,"140.csv","","null","resources/images/fishbone.png","null","",NA,NA,NA,NA,""
"image-keyboard-response",569,632512,"0.0-3.186-0.186","1z5t5teqo101ox9",517,"140.csv","","615.5","resources/trios/L4T2A3.jpg","38","restless",0.6,0.5,0.3,0.960336126956353,"false"
"image-keyboard-response",570,632918,"0.0-3.186-1.186","1z5t5teqo101ox9",517,"140.csv","","null","resources/maskTrios/BT2B.jpg","null","",NA,NA,NA,NA,""
"image-keyboard-response",571,634125,"0.0-3.186-2.186","1z5t5teqo101ox9",517,"140.csv","","null","resources/images/fishbone.png","null","",NA,NA,NA,NA,""
"image-keyboard-response",572,635010,"0.0-3.187-0.187","1z5t5teqo101ox9",517,"140.csv","","884","resources/trios/L2T1A3.jpg","37","restless",0.6,0.4,0.3,0.112322715627011,"true"
"image-keyboard-response",573,635418,"0.0-3.187-1.187","1z5t5teqo101ox9",517,"140.csv","","null","resources/maskTrios/L2BB.jpg","null","",NA,NA,NA,NA,""
"image-keyboard-response",574,636624,"0.0-3.187-2.187","1z5t5teqo101ox9",517,"140.csv","","null","resources/images/coin2.png","null","",NA,NA,NA,NA,""
"image-keyboard-response",575,637058,"0.0-3.188-0.188","1z5t5teqo101ox9",517,"140.csv","","431.7999999523163","resources/trios/L4T2A2.jpg","37","restless",0.6,0.4,0.3,0.0949027688246944,"true"
"image-keyboard-response",576,637462,"0.0-3.188-1.188","1z5t5teqo101ox9",517,"140.csv","","null","resources/maskTrios/L4BB.jpg","null","",NA,NA,NA,NA,""
"image-keyboard-response",577,638670,"0.0-3.188-2.188","1z5t5teqo101ox9",517,"140.csv","","null","resources/images/coin2.png","null","",NA,NA,NA,NA,""
"image-keyboard-response",578,639100,"0.0-3.189-0.189","1z5t5teqo101ox9",517,"140.csv","","428","resources/trios/L2T1A3.jpg","37","restless",0.5,0.4,0.4,0.561872399512792,"false"
"image-keyboard-response",579,639507,"0.0-3.189-1.189","1z5t5teqo101ox9",517,"140.csv","","null","resources/maskTrios/L2BB.jpg","null","",NA,NA,NA,NA,""
"image-keyboard-response",580,640715,"0.0-3.189-2.189","1z5t5teqo101ox9",517,"140.csv","","null","resources/images/fishbone.png","null","",NA,NA,NA,NA,""
"image-keyboard-response",581,641298,"0.0-3.190-0.190","1z5t5teqo101ox9",517,"140.csv","","580.7999999523163","resources/trios/L4T2A3.jpg","37","restless",0.5,0.4,0.4,0.236766545765247,"true"
"image-keyboard-response",582,641706,"0.0-3.190-1.190","1z5t5teqo101ox9",517,"140.csv","","null","resources/maskTrios/L4BB.jpg","null","",NA,NA,NA,NA,""
"image-keyboard-response",583,642913,"0.0-3.190-2.190","1z5t5teqo101ox9",517,"140.csv","","null","resources/images/coin2.png","null","",NA,NA,NA,NA,""
"image-keyboard-response",584,643391,"0.0-3.191-0.191","1z5t5teqo101ox9",517,"140.csv","","475.5","resources/trios/L4T1A2.jpg","37","restless",0.4,0.4,0.4,0.107428110115339,"true"
"image-keyboard-response",585,643796,"0.0-3.191-1.191","1z5t5teqo101ox9",517,"140.csv","","null","resources/maskTrios/L4BB.jpg","null","",NA,NA,NA,NA,""
"image-keyboard-response",586,645002,"0.0-3.191-2.191","1z5t5teqo101ox9",517,"140.csv","","null","resources/images/coin2.png","null","",NA,NA,NA,NA,""
"image-keyboard-response",587,645418,"0.0-3.192-0.192","1z5t5teqo101ox9",517,"140.csv","","413.89999997615814","resources/trios/L4T2A3.jpg","37","restless",0.4,0.4,0.3,0.233381648249259,"true"
"image-keyboard-response",588,645824,"0.0-3.192-1.192","1z5t5teqo101ox9",517,"140.csv","","null","resources/maskTrios/L4BB.jpg","null","",NA,NA,NA,NA,""
"image-keyboard-response",589,647027,"0.0-3.192-2.192","1z5t5teqo101ox9",517,"140.csv","","null","resources/images/coin2.png","null","",NA,NA,NA,NA,""
"image-keyboard-response",590,647445,"0.0-3.193-0.193","1z5t5teqo101ox9",517,"140.csv","","415.60000002384186","resources/trios/L4T2A3.jpg","37","restless",0.4,0.4,0.3,0.10826172877594,"true"
"image-keyboard-response",591,647852,"0.0-3.193-1.193","1z5t5teqo101ox9",517,"140.csv","","null","resources/maskTrios/L4BB.jpg","null","",NA,NA,NA,NA,""
"image-keyboard-response",592,649060,"0.0-3.193-2.193","1z5t5teqo101ox9",517,"140.csv","","null","resources/images/coin2.png","null","",NA,NA,NA,NA,""
"image-keyboard-response",593,649651,"0.0-3.194-0.194","1z5t5teqo101ox9",517,"140.csv","","588.6000000238419","resources/trios/L2T1A3.jpg","37","restless",0.3,0.4,0.3,0.875890282075408,"false"
"image-keyboard-response",594,650057,"0.0-3.194-1.194","1z5t5teqo101ox9",517,"140.csv","","null","resources/maskTrios/L2BB.jpg","null","",NA,NA,NA,NA,""
"image-keyboard-response",595,651259,"0.0-3.194-2.194","1z5t5teqo101ox9",517,"140.csv","","null","resources/images/fishbone.png","null","",NA,NA,NA,NA,""
"image-keyboard-response",596,652072,"0.0-3.195-0.195","1z5t5teqo101ox9",517,"140.csv","","810.6999999284744","resources/trios/L4T2A3.jpg","37","restless",0.3,0.5,0.3,0.668146533659871,"false"
"image-keyboard-response",597,652479,"0.0-3.195-1.195","1z5t5teqo101ox9",517,"140.csv","","null","resources/maskTrios/L4BB.jpg","null","",NA,NA,NA,NA,""
"image-keyboard-response",598,653682,"0.0-3.195-2.195","1z5t5teqo101ox9",517,"140.csv","","null","resources/images/fishbone.png","null","",NA,NA,NA,NA,""
"image-keyboard-response",599,654013,"0.0-3.196-0.196","1z5t5teqo101ox9",517,"140.csv","","328.5","resources/trios/L2T1A3.jpg","37","restless",0.3,0.5,0.3,0.104234502162653,"true"
"image-keyboard-response",600,654420,"0.0-3.196-1.196","1z5t5teqo101ox9",517,"140.csv","","null","resources/maskTrios/L2BB.jpg","null","",NA,NA,NA,NA,""
"image-keyboard-response",601,655626,"0.0-3.196-2.196","1z5t5teqo101ox9",517,"140.csv","","null","resources/images/coin2.png","null","",NA,NA,NA,NA,""
"image-keyboard-response",602,656015,"0.0-3.197-0.197","1z5t5teqo101ox9",517,"140.csv","","385.8000000715256","resources/trios/L4T2A3.jpg","37","restless",0.3,0.5,0.3,0.817737078014899,"false"
"image-keyboard-response",603,656423,"0.0-3.197-1.197","1z5t5teqo101ox9",517,"140.csv","","null","resources/maskTrios/L4BB.jpg","null","",NA,NA,NA,NA,""
"image-keyboard-response",604,657630,"0.0-3.197-2.197","1z5t5teqo101ox9",517,"140.csv","","null","resources/images/fishbone.png","null","",NA,NA,NA,NA,""
"image-keyboard-response",605,658005,"0.0-3.198-0.198","1z5t5teqo101ox9",517,"140.csv","","373.1999999284744","resources/trios/L4T2A3.jpg","37","restless",0.3,0.5,0.4,0.0797282232999974,"true"
"image-keyboard-response",606,658409,"0.0-3.198-1.198","1z5t5teqo101ox9",517,"140.csv","","null","resources/maskTrios/L4BB.jpg","null","",NA,NA,NA,NA,""
"image-keyboard-response",607,659612,"0.0-3.198-2.198","1z5t5teqo101ox9",517,"140.csv","","null","resources/images/coin2.png","null","",NA,NA,NA,NA,""
