"trial_type","trial_index","time_elapsed","internal_node_id","subject","participantCode","walkNumber","success","rt","stimulus","key_press","test_part","leftProb","midProb","rightProb","generatedNum","correct"
"pavlovia",0,1949,"0.0-0.0","u6hhur0mxep0u28",253,"10.csv","","","","","",NA,NA,NA,NA,""
"fullscreen",1,6605,"0.0-1.0","u6hhur0mxep0u28",253,"10.csv","true","","","","",NA,NA,NA,NA,""
"html-keyboard-response",2,22908,"0.0-2.0-0.0","u6hhur0mxep0u28",253,"10.csv","","16301","<p><font size='6'>Arrrgh!</p></font><p>Can you be the best pirate? Try to find lots of gold! But beware, some islands have more gold than others, and over time, the island with the most gold may change. Can YOU figure it out? </p><font size='6'>GOOD LUCK, CAPTAIN!!!</font><p>Press any key to begin</p>","86","",NA,NA,NA,NA,""
"image-keyboard-response",3,25912,"0.0-2.0-1.0","u6hhur0mxep0u28",253,"10.csv","","null","resources/image_sets/111.png","null","",NA,NA,NA,NA,""
"image-keyboard-response",4,35695,"0.0-2.0-2.0","u6hhur0mxep0u28",253,"10.csv","","9781.000000000004","resources/image_sets/left_highlight.png","37","",NA,NA,NA,NA,""
"image-keyboard-response",5,39774,"0.0-2.0-3.0","u6hhur0mxep0u28",253,"10.csv","","4077","resources/image_sets/mid_highlight.png","38","",NA,NA,NA,NA,""
"image-keyboard-response",6,42456,"0.0-2.0-4.0","u6hhur0mxep0u28",253,"10.csv","","2680","resources/image_sets/right_highlight.png","39","",NA,NA,NA,NA,""
"image-keyboard-response",7,46829,"0.0-2.0-5.0","u6hhur0mxep0u28",253,"10.csv","","4372","resources/image_sets/111.png","13","",NA,NA,NA,NA,""
"image-keyboard-response",8,50492,"0.0-2.0-6.0","u6hhur0mxep0u28",253,"10.csv","","3660","resources/images/coin2.png","13","",NA,NA,NA,NA,""
"image-keyboard-response",9,53322,"0.0-2.0-7.0","u6hhur0mxep0u28",253,"10.csv","","2827.9999999999927","resources/images/fishbone.png","13","",NA,NA,NA,NA,""
"html-keyboard-response",10,60333,"0.0-2.0-8.0","u6hhur0mxep0u28",253,"10.csv","","7010","<p>Your first journey will be a long one, but you will get a well deserved break at the end</p><p>After the break you will have four more journeys, but each will be much shorter than the first, and you will have breaks in between each</p><p>Press Enter to begin</p>","13","",NA,NA,NA,NA,""
"image-keyboard-response",11,62627,"0.0-3.0-0.0","u6hhur0mxep0u28",253,"10.csv","","2291.0000000000073","resources/trios/L2T4A3.jpg","39","restless",0.7,0.3,0.9,0.494932382515395,"true"
"image-keyboard-response",12,63032,"0.0-3.0-1.0","u6hhur0mxep0u28",253,"10.csv","","null","resources/maskTrios/BBA3.jpg","null","",NA,NA,NA,NA,""
"image-keyboard-response",13,64236,"0.0-3.0-2.0","u6hhur0mxep0u28",253,"10.csv","","null","resources/images/coin2.png","null","",NA,NA,NA,NA,""
"image-keyboard-response",14,67105,"0.0-3.1-0.1","u6hhur0mxep0u28",253,"10.csv","","2866","resources/trios/L4T4A3.jpg","38","restless",0.7,0.3,0.9,0.973816006513798,"false"
"image-keyboard-response",15,67509,"0.0-3.1-1.1","u6hhur0mxep0u28",253,"10.csv","","null","resources/maskTrios/BT4B.jpg","null","",NA,NA,NA,NA,""
"image-keyboard-response",16,68711,"0.0-3.1-2.1","u6hhur0mxep0u28",253,"10.csv","","null","resources/images/fishbone.png","null","",NA,NA,NA,NA,""
"image-keyboard-response",17,71054,"0.0-3.2-0.2","u6hhur0mxep0u28",253,"10.csv","","2341","resources/trios/L2T4A3.jpg","37","restless",0.7,0.3,0.9,0.393627092997146,"true"
"image-keyboard-response",18,71457,"0.0-3.2-1.2","u6hhur0mxep0u28",253,"10.csv","","null","resources/maskTrios/L2BB.jpg","null","",NA,NA,NA,NA,""
"image-keyboard-response",19,72660,"0.0-3.2-2.2","u6hhur0mxep0u28",253,"10.csv","","null","resources/images/coin2.png","null","",NA,NA,NA,NA,""
"image-keyboard-response",20,75169,"0.0-3.3-0.3","u6hhur0mxep0u28",253,"10.csv","","2507.0000000000146","resources/trios/L4T1A3.jpg","38","restless",0.6,0.2,0.9,0.820025327782657,"false"
"image-keyboard-response",21,75572,"0.0-3.3-1.3","u6hhur0mxep0u28",253,"10.csv","","null","resources/maskTrios/BT1B.jpg","null","",NA,NA,NA,NA,""
"image-keyboard-response",22,76775,"0.0-3.3-2.3","u6hhur0mxep0u28",253,"10.csv","","null","resources/images/fishbone.png","null","",NA,NA,NA,NA,""
"image-keyboard-response",23,78759,"0.0-3.4-0.4","u6hhur0mxep0u28",253,"10.csv","","1981","resources/trios/L4T4A3.jpg","37","restless",0.5,0.2,0.9,0.196130378288542,"true"
"image-keyboard-response",24,79163,"0.0-3.4-1.4","u6hhur0mxep0u28",253,"10.csv","","null","resources/maskTrios/L4BB.jpg","null","",NA,NA,NA,NA,""
"image-keyboard-response",25,80366,"0.0-3.4-2.4","u6hhur0mxep0u28",253,"10.csv","","null","resources/images/coin2.png","null","",NA,NA,NA,NA,""
"image-keyboard-response",26,82272,"0.0-3.5-0.5","u6hhur0mxep0u28",253,"10.csv","","1903","resources/trios/L4T1A3.jpg","39","restless",0.5,0.2,0.9,0.0953121272516873,"true"
"image-keyboard-response",27,82676,"0.0-3.5-1.5","u6hhur0mxep0u28",253,"10.csv","","null","resources/maskTrios/BBA3.jpg","null","",NA,NA,NA,NA,""
"image-keyboard-response",28,83879,"0.0-3.5-2.5","u6hhur0mxep0u28",253,"10.csv","","null","resources/images/coin2.png","null","",NA,NA,NA,NA,""
"image-keyboard-response",29,85269,"0.0-3.6-0.6","u6hhur0mxep0u28",253,"10.csv","","1388","resources/trios/L4T4A3.jpg","37","restless",0.5,0.2,0.8,0.887393302593279,"false"
"image-keyboard-response",30,85672,"0.0-3.6-1.6","u6hhur0mxep0u28",253,"10.csv","","null","resources/maskTrios/L4BB.jpg","null","",NA,NA,NA,NA,""
"image-keyboard-response",31,86874,"0.0-3.6-2.6","u6hhur0mxep0u28",253,"10.csv","","null","resources/images/fishbone.png","null","",NA,NA,NA,NA,""
"image-keyboard-response",32,88140,"0.0-3.7-0.7","u6hhur0mxep0u28",253,"10.csv","","1263","resources/trios/L2T4A1.jpg","37","restless",0.5,0.2,0.8,0.298740287867409,"true"
"image-keyboard-response",33,88544,"0.0-3.7-1.7","u6hhur0mxep0u28",253,"10.csv","","null","resources/maskTrios/L2BB.jpg","null","",NA,NA,NA,NA,""
"image-keyboard-response",34,89747,"0.0-3.7-2.7","u6hhur0mxep0u28",253,"10.csv","","null","resources/images/coin2.png","null","",NA,NA,NA,NA,""
"image-keyboard-response",35,90884,"0.0-3.8-0.8","u6hhur0mxep0u28",253,"10.csv","","1134","resources/trios/L4T4A1.jpg","39","restless",0.6,0.2,0.7,0.00252013426499864,"true"
"image-keyboard-response",36,91288,"0.0-3.8-1.8","u6hhur0mxep0u28",253,"10.csv","","null","resources/maskTrios/BBA1.jpg","null","",NA,NA,NA,NA,""
"image-keyboard-response",37,92491,"0.0-3.8-2.8","u6hhur0mxep0u28",253,"10.csv","","null","resources/images/coin2.png","null","",NA,NA,NA,NA,""
"image-keyboard-response",38,93132,"0.0-3.9-0.9","u6hhur0mxep0u28",253,"10.csv","","639","resources/trios/L4T1A3.jpg","38","restless",0.6,0.2,0.7,0.889925422478961,"false"
"image-keyboard-response",39,93535,"0.0-3.9-1.9","u6hhur0mxep0u28",253,"10.csv","","null","resources/maskTrios/BT1B.jpg","null","",NA,NA,NA,NA,""
"image-keyboard-response",40,94737,"0.0-3.9-2.9","u6hhur0mxep0u28",253,"10.csv","","null","resources/images/fishbone.png","null","",NA,NA,NA,NA,""
"image-keyboard-response",41,95370,"0.0-3.10-0.10","u6hhur0mxep0u28",253,"10.csv","","631","resources/trios/L4T4A3.jpg","39","restless",0.6,0.2,0.7,0.117690804419432,"true"
"image-keyboard-response",42,95773,"0.0-3.10-1.10","u6hhur0mxep0u28",253,"10.csv","","null","resources/maskTrios/BBA3.jpg","null","",NA,NA,NA,NA,""
"image-keyboard-response",43,96976,"0.0-3.10-2.10","u6hhur0mxep0u28",253,"10.csv","","null","resources/images/coin2.png","null","",NA,NA,NA,NA,""
"image-keyboard-response",44,97420,"0.0-3.11-0.11","u6hhur0mxep0u28",253,"10.csv","","442","resources/trios/L2T4A1.jpg","37","restless",0.6,0.2,0.7,0.441628508844184,"true"
"image-keyboard-response",45,97823,"0.0-3.11-1.11","u6hhur0mxep0u28",253,"10.csv","","null","resources/maskTrios/L2BB.jpg","null","",NA,NA,NA,NA,""
"image-keyboard-response",46,99026,"0.0-3.11-2.11","u6hhur0mxep0u28",253,"10.csv","","null","resources/images/coin2.png","null","",NA,NA,NA,NA,""
"image-keyboard-response",47,100196,"0.0-3.12-0.12","u6hhur0mxep0u28",253,"10.csv","","1168","resources/trios/L2T1A1.jpg","37","restless",0.6,0.2,0.7,0.969460517005794,"false"
"image-keyboard-response",48,100600,"0.0-3.12-1.12","u6hhur0mxep0u28",253,"10.csv","","null","resources/maskTrios/L2BB.jpg","null","",NA,NA,NA,NA,""
"image-keyboard-response",49,101802,"0.0-3.12-2.12","u6hhur0mxep0u28",253,"10.csv","","null","resources/images/fishbone.png","null","",NA,NA,NA,NA,""
"image-keyboard-response",50,102391,"0.0-3.13-0.13","u6hhur0mxep0u28",253,"10.csv","","586.9999999999854","resources/trios/L2T4A3.jpg","39","restless",0.6,0.2,0.7,0.623456617812679,"true"
"image-keyboard-response",51,102794,"0.0-3.13-1.13","u6hhur0mxep0u28",253,"10.csv","","null","resources/maskTrios/BBA3.jpg","null","",NA,NA,NA,NA,""
"image-keyboard-response",52,103997,"0.0-3.13-2.13","u6hhur0mxep0u28",253,"10.csv","","null","resources/images/coin2.png","null","",NA,NA,NA,NA,""
"image-keyboard-response",53,104728,"0.0-3.14-0.14","u6hhur0mxep0u28",253,"10.csv","","730","resources/trios/L4T1A1.jpg","37","restless",0.6,0.2,0.7,0.67824337446495,"false"
"image-keyboard-response",54,105131,"0.0-3.14-1.14","u6hhur0mxep0u28",253,"10.csv","","null","resources/maskTrios/L4BB.jpg","null","",NA,NA,NA,NA,""
"image-keyboard-response",55,106334,"0.0-3.14-2.14","u6hhur0mxep0u28",253,"10.csv","","null","resources/images/fishbone.png","null","",NA,NA,NA,NA,""
"image-keyboard-response",56,107056,"0.0-3.15-0.15","u6hhur0mxep0u28",253,"10.csv","","721.0000000000146","resources/trios/L4T1A3.jpg","38","restless",0.6,0.2,0.7,0.773277229496231,"false"
"image-keyboard-response",57,107459,"0.0-3.15-1.15","u6hhur0mxep0u28",253,"10.csv","","null","resources/maskTrios/BT1B.jpg","null","",NA,NA,NA,NA,""
"image-keyboard-response",58,108661,"0.0-3.15-2.15","u6hhur0mxep0u28",253,"10.csv","","null","resources/images/fishbone.png","null","",NA,NA,NA,NA,""
"image-keyboard-response",59,109401,"0.0-3.16-0.16","u6hhur0mxep0u28",253,"10.csv","","738","resources/trios/L2T4A1.jpg","39","restless",0.6,0.2,0.6,0.316184355422868,"true"
"image-keyboard-response",60,109805,"0.0-3.16-1.16","u6hhur0mxep0u28",253,"10.csv","","null","resources/maskTrios/BBA1.jpg","null","",NA,NA,NA,NA,""
"image-keyboard-response",61,111007,"0.0-3.16-2.16","u6hhur0mxep0u28",253,"10.csv","","null","resources/images/coin2.png","null","",NA,NA,NA,NA,""
"image-keyboard-response",62,111403,"0.0-3.17-0.17","u6hhur0mxep0u28",253,"10.csv","","394","resources/trios/L4T4A3.jpg","39","restless",0.6,0.2,0.6,0.847595825209451,"false"
"image-keyboard-response",63,111806,"0.0-3.17-1.17","u6hhur0mxep0u28",253,"10.csv","","null","resources/maskTrios/BBA3.jpg","null","",NA,NA,NA,NA,""
"image-keyboard-response",64,113008,"0.0-3.17-2.17","u6hhur0mxep0u28",253,"10.csv","","null","resources/images/fishbone.png","null","",NA,NA,NA,NA,""
"image-keyboard-response",65,113390,"0.0-3.18-0.18","u6hhur0mxep0u28",253,"10.csv","","380","resources/trios/L4T4A3.jpg","37","restless",0.6,0.3,0.6,0.261531354576237,"true"
"image-keyboard-response",66,113793,"0.0-3.18-1.18","u6hhur0mxep0u28",253,"10.csv","","null","resources/maskTrios/L4BB.jpg","null","",NA,NA,NA,NA,""
"image-keyboard-response",67,114996,"0.0-3.18-2.18","u6hhur0mxep0u28",253,"10.csv","","null","resources/images/coin2.png","null","",NA,NA,NA,NA,""
"image-keyboard-response",68,115311,"0.0-3.19-0.19","u6hhur0mxep0u28",253,"10.csv","","313.00000000001455","resources/trios/L4T4A1.jpg","39","restless",0.6,0.3,0.6,0.712238821773808,"false"
"image-keyboard-response",69,115714,"0.0-3.19-1.19","u6hhur0mxep0u28",253,"10.csv","","null","resources/maskTrios/BBA1.jpg","null","",NA,NA,NA,NA,""
"image-keyboard-response",70,116916,"0.0-3.19-2.19","u6hhur0mxep0u28",253,"10.csv","","null","resources/images/fishbone.png","null","",NA,NA,NA,NA,""
"image-keyboard-response",71,117220,"0.0-3.20-0.20","u6hhur0mxep0u28",253,"10.csv","","301","resources/trios/L4T1A1.jpg","38","restless",0.6,0.3,0.6,0.292686780630573,"true"
"image-keyboard-response",72,117623,"0.0-3.20-1.20","u6hhur0mxep0u28",253,"10.csv","","null","resources/maskTrios/BT1B.jpg","null","",NA,NA,NA,NA,""
"image-keyboard-response",73,118826,"0.0-3.20-2.20","u6hhur0mxep0u28",253,"10.csv","","null","resources/images/coin2.png","null","",NA,NA,NA,NA,""
"image-keyboard-response",74,119726,"0.0-3.21-0.21","u6hhur0mxep0u28",253,"10.csv","","898","resources/trios/L4T4A3.jpg","38","restless",0.6,0.3,0.6,0.589644909244327,"false"
"image-keyboard-response",75,120129,"0.0-3.21-1.21","u6hhur0mxep0u28",253,"10.csv","","null","resources/maskTrios/BT4B.jpg","null","",NA,NA,NA,NA,""
"image-keyboard-response",76,121332,"0.0-3.21-2.21","u6hhur0mxep0u28",253,"10.csv","","null","resources/images/fishbone.png","null","",NA,NA,NA,NA,""
"image-keyboard-response",77,121854,"0.0-3.22-0.22","u6hhur0mxep0u28",253,"10.csv","","520","resources/trios/L2T1A1.jpg","37","restless",0.6,0.3,0.6,0.37200103742893,"true"
"image-keyboard-response",78,122257,"0.0-3.22-1.22","u6hhur0mxep0u28",253,"10.csv","","null","resources/maskTrios/L2BB.jpg","null","",NA,NA,NA,NA,""
"image-keyboard-response",79,123459,"0.0-3.22-2.22","u6hhur0mxep0u28",253,"10.csv","","null","resources/images/coin2.png","null","",NA,NA,NA,NA,""
"image-keyboard-response",80,124533,"0.0-3.23-0.23","u6hhur0mxep0u28",253,"10.csv","","1072","resources/trios/L4T1A3.jpg","39","restless",0.6,0.3,0.6,0.128480577674381,"true"
"image-keyboard-response",81,124936,"0.0-3.23-1.23","u6hhur0mxep0u28",253,"10.csv","","null","resources/maskTrios/BBA3.jpg","null","",NA,NA,NA,NA,""
"image-keyboard-response",82,126139,"0.0-3.23-2.23","u6hhur0mxep0u28",253,"10.csv","","null","resources/images/coin2.png","null","",NA,NA,NA,NA,""
"image-keyboard-response",83,127544,"0.0-3.24-0.24","u6hhur0mxep0u28",253,"10.csv","","1404","resources/trios/L2T1A1.jpg","38","restless",0.6,0.3,0.6,0.727145934548381,"false"
"image-keyboard-response",84,127948,"0.0-3.24-1.24","u6hhur0mxep0u28",253,"10.csv","","null","resources/maskTrios/BT1B.jpg","null","",NA,NA,NA,NA,""
"image-keyboard-response",85,129150,"0.0-3.24-2.24","u6hhur0mxep0u28",253,"10.csv","","null","resources/images/fishbone.png","null","",NA,NA,NA,NA,""
"image-keyboard-response",86,129811,"0.0-3.25-0.25","u6hhur0mxep0u28",253,"10.csv","","660","resources/trios/L2T1A3.jpg","37","restless",0.6,0.3,0.6,0.628494527933486,"false"
"image-keyboard-response",87,130214,"0.0-3.25-1.25","u6hhur0mxep0u28",253,"10.csv","","null","resources/maskTrios/L2BB.jpg","null","",NA,NA,NA,NA,""
"image-keyboard-response",88,131417,"0.0-3.25-2.25","u6hhur0mxep0u28",253,"10.csv","","null","resources/images/fishbone.png","null","",NA,NA,NA,NA,""
"image-keyboard-response",89,132630,"0.0-3.26-0.26","u6hhur0mxep0u28",253,"10.csv","","1211","resources/trios/L4T4A3.jpg","37","restless",0.6,0.3,0.6,0.327701119881537,"true"
"image-keyboard-response",90,133033,"0.0-3.26-1.26","u6hhur0mxep0u28",253,"10.csv","","null","resources/maskTrios/L4BB.jpg","null","",NA,NA,NA,NA,""
"image-keyboard-response",91,134235,"0.0-3.26-2.26","u6hhur0mxep0u28",253,"10.csv","","null","resources/images/coin2.png","null","",NA,NA,NA,NA,""
"image-keyboard-response",92,134553,"0.0-3.27-0.27","u6hhur0mxep0u28",253,"10.csv","","316","resources/trios/L2T4A3.jpg","38","restless",0.6,0.3,0.5,0.999377818482415,"false"
"image-keyboard-response",93,134956,"0.0-3.27-1.27","u6hhur0mxep0u28",253,"10.csv","","null","resources/maskTrios/BT4B.jpg","null","",NA,NA,NA,NA,""
"image-keyboard-response",94,136159,"0.0-3.27-2.27","u6hhur0mxep0u28",253,"10.csv","","null","resources/images/fishbone.png","null","",NA,NA,NA,NA,""
"image-keyboard-response",95,136769,"0.0-3.28-0.28","u6hhur0mxep0u28",253,"10.csv","","608","resources/trios/L2T1A3.jpg","39","restless",0.6,0.3,0.5,0.130519836900897,"true"
"image-keyboard-response",96,137171,"0.0-3.28-1.28","u6hhur0mxep0u28",253,"10.csv","","null","resources/maskTrios/BBA3.jpg","null","",NA,NA,NA,NA,""
"image-keyboard-response",97,138374,"0.0-3.28-2.28","u6hhur0mxep0u28",253,"10.csv","","null","resources/images/coin2.png","null","",NA,NA,NA,NA,""
"image-keyboard-response",98,138879,"0.0-3.29-0.29","u6hhur0mxep0u28",253,"10.csv","","502","resources/trios/L2T4A3.jpg","37","restless",0.6,0.3,0.5,0.640146541124638,"false"
"image-keyboard-response",99,139282,"0.0-3.29-1.29","u6hhur0mxep0u28",253,"10.csv","","null","resources/maskTrios/L2BB.jpg","null","",NA,NA,NA,NA,""
"image-keyboard-response",100,140484,"0.0-3.29-2.29","u6hhur0mxep0u28",253,"10.csv","","null","resources/images/fishbone.png","null","",NA,NA,NA,NA,""
"image-keyboard-response",101,141030,"0.0-3.30-0.30","u6hhur0mxep0u28",253,"10.csv","","544","resources/trios/L4T4A1.jpg","38","restless",0.6,0.3,0.5,0.267603750279432,"true"
"image-keyboard-response",102,141433,"0.0-3.30-1.30","u6hhur0mxep0u28",253,"10.csv","","null","resources/maskTrios/BT4B.jpg","null","",NA,NA,NA,NA,""
"image-keyboard-response",103,142636,"0.0-3.30-2.30","u6hhur0mxep0u28",253,"10.csv","","null","resources/images/coin2.png","null","",NA,NA,NA,NA,""
"image-keyboard-response",104,142897,"0.0-3.31-0.31","u6hhur0mxep0u28",253,"10.csv","","260","resources/trios/L2T4A1.jpg","39","restless",0.6,0.3,0.5,0.613217981655564,"false"
"image-keyboard-response",105,143300,"0.0-3.31-1.31","u6hhur0mxep0u28",253,"10.csv","","null","resources/maskTrios/BBA1.jpg","null","",NA,NA,NA,NA,""
"image-keyboard-response",106,144503,"0.0-3.31-2.31","u6hhur0mxep0u28",253,"10.csv","","null","resources/images/fishbone.png","null","",NA,NA,NA,NA,""
"image-keyboard-response",107,144783,"0.0-3.32-0.32","u6hhur0mxep0u28",253,"10.csv","","279","resources/trios/L2T4A3.jpg","38","restless",0.7,0.3,0.5,0.277876006969424,"true"
"image-keyboard-response",108,145185,"0.0-3.32-1.32","u6hhur0mxep0u28",253,"10.csv","","null","resources/maskTrios/BT4B.jpg","null","",NA,NA,NA,NA,""
"image-keyboard-response",109,146391,"0.0-3.32-2.32","u6hhur0mxep0u28",253,"10.csv","","null","resources/images/coin2.png","null","",NA,NA,NA,NA,""
"image-keyboard-response",110,146645,"0.0-3.33-0.33","u6hhur0mxep0u28",253,"10.csv","","251.0000000000291","resources/trios/L4T4A3.jpg","37","restless",0.7,0.4,0.5,0.850725792126758,"false"
"image-keyboard-response",111,147048,"0.0-3.33-1.33","u6hhur0mxep0u28",253,"10.csv","","null","resources/maskTrios/L4BB.jpg","null","",NA,NA,NA,NA,""
"image-keyboard-response",112,148251,"0.0-3.33-2.33","u6hhur0mxep0u28",253,"10.csv","","null","resources/images/fishbone.png","null","",NA,NA,NA,NA,""
"image-keyboard-response",113,148543,"0.0-3.34-0.34","u6hhur0mxep0u28",253,"10.csv","","289","resources/trios/L2T4A1.jpg","38","restless",0.7,0.4,0.5,0.548051384534667,"false"
"image-keyboard-response",114,148946,"0.0-3.34-1.34","u6hhur0mxep0u28",253,"10.csv","","null","resources/maskTrios/BT4B.jpg","null","",NA,NA,NA,NA,""
"image-keyboard-response",115,150148,"0.0-3.34-2.34","u6hhur0mxep0u28",253,"10.csv","","null","resources/images/fishbone.png","null","",NA,NA,NA,NA,""
"image-keyboard-response",116,150447,"0.0-3.35-0.35","u6hhur0mxep0u28",253,"10.csv","","297","resources/trios/L4T1A1.jpg","39","restless",0.6,0.4,0.5,0.772915676901112,"false"
"image-keyboard-response",117,150850,"0.0-3.35-1.35","u6hhur0mxep0u28",253,"10.csv","","null","resources/maskTrios/BBA1.jpg","null","",NA,NA,NA,NA,""
"image-keyboard-response",118,152053,"0.0-3.35-2.35","u6hhur0mxep0u28",253,"10.csv","","null","resources/images/fishbone.png","null","",NA,NA,NA,NA,""
"image-keyboard-response",119,152293,"0.0-3.36-0.36","u6hhur0mxep0u28",253,"10.csv","","238","resources/trios/L4T4A1.jpg","37","restless",0.6,0.4,0.5,0.293497341296701,"true"
"image-keyboard-response",120,152696,"0.0-3.36-1.36","u6hhur0mxep0u28",253,"10.csv","","null","resources/maskTrios/L4BB.jpg","null","",NA,NA,NA,NA,""
"image-keyboard-response",121,153900,"0.0-3.36-2.36","u6hhur0mxep0u28",253,"10.csv","","null","resources/images/coin2.png","null","",NA,NA,NA,NA,""
"image-keyboard-response",122,154257,"0.0-3.37-0.37","u6hhur0mxep0u28",253,"10.csv","","354","resources/trios/L2T4A1.jpg","38","restless",0.6,0.4,0.5,0.658064795168938,"false"
"image-keyboard-response",123,154660,"0.0-3.37-1.37","u6hhur0mxep0u28",253,"10.csv","","null","resources/maskTrios/BT4B.jpg","null","",NA,NA,NA,NA,""
"image-keyboard-response",124,155863,"0.0-3.37-2.37","u6hhur0mxep0u28",253,"10.csv","","null","resources/images/fishbone.png","null","",NA,NA,NA,NA,""
"image-keyboard-response",125,156132,"0.0-3.38-0.38","u6hhur0mxep0u28",253,"10.csv","","266.9999999999709","resources/trios/L2T1A1.jpg","37","restless",0.6,0.4,0.6,0.966128736224765,"false"
"image-keyboard-response",126,156535,"0.0-3.38-1.38","u6hhur0mxep0u28",253,"10.csv","","null","resources/maskTrios/L2BB.jpg","null","",NA,NA,NA,NA,""
"image-keyboard-response",127,157737,"0.0-3.38-2.38","u6hhur0mxep0u28",253,"10.csv","","null","resources/images/fishbone.png","null","",NA,NA,NA,NA,""
"image-keyboard-response",128,157863,"0.0-3.39-0.39","u6hhur0mxep0u28",253,"10.csv","","124","resources/trios/L4T1A1.jpg","39","restless",0.6,0.4,0.6,0.166018674573723,"true"
"image-keyboard-response",129,158266,"0.0-3.39-1.39","u6hhur0mxep0u28",253,"10.csv","","null","resources/maskTrios/BBA1.jpg","null","",NA,NA,NA,NA,""
"image-keyboard-response",130,159469,"0.0-3.39-2.39","u6hhur0mxep0u28",253,"10.csv","","null","resources/images/coin2.png","null","",NA,NA,NA,NA,""
"image-keyboard-response",131,159743,"0.0-3.40-0.40","u6hhur0mxep0u28",253,"10.csv","","272","resources/trios/L2T4A1.jpg","37","restless",0.6,0.4,0.6,0.334713535415299,"true"
"image-keyboard-response",132,160146,"0.0-3.40-1.40","u6hhur0mxep0u28",253,"10.csv","","null","resources/maskTrios/L2BB.jpg","null","",NA,NA,NA,NA,""
"image-keyboard-response",133,161349,"0.0-3.40-2.40","u6hhur0mxep0u28",253,"10.csv","","null","resources/images/coin2.png","null","",NA,NA,NA,NA,""
"image-keyboard-response",134,161433,"0.0-3.41-0.41","u6hhur0mxep0u28",253,"10.csv","","79.9999999999709","resources/trios/L4T1A3.jpg","38","restless",0.6,0.4,0.5,0.0146498681902214,"true"
"image-keyboard-response",135,161836,"0.0-3.41-1.41","u6hhur0mxep0u28",253,"10.csv","","null","resources/maskTrios/BT1B.jpg","null","",NA,NA,NA,NA,""
"image-keyboard-response",136,163039,"0.0-3.41-2.41","u6hhur0mxep0u28",253,"10.csv","","null","resources/images/coin2.png","null","",NA,NA,NA,NA,""
"image-keyboard-response",137,163402,"0.0-3.42-0.42","u6hhur0mxep0u28",253,"10.csv","","361","resources/trios/L2T4A1.jpg","37","restless",0.6,0.4,0.4,0.0760005522304242,"true"
"image-keyboard-response",138,163805,"0.0-3.42-1.42","u6hhur0mxep0u28",253,"10.csv","","null","resources/maskTrios/L2BB.jpg","null","",NA,NA,NA,NA,""
"image-keyboard-response",139,165008,"0.0-3.42-2.42","u6hhur0mxep0u28",253,"10.csv","","null","resources/images/coin2.png","null","",NA,NA,NA,NA,""
"image-keyboard-response",140,165739,"0.0-3.43-0.43","u6hhur0mxep0u28",253,"10.csv","","730","resources/trios/L2T1A1.jpg","37","restless",0.6,0.4,0.3,0.948496275080259,"false"
"image-keyboard-response",141,166144,"0.0-3.43-1.43","u6hhur0mxep0u28",253,"10.csv","","null","resources/maskTrios/L2BB.jpg","null","",NA,NA,NA,NA,""
"image-keyboard-response",142,167347,"0.0-3.43-2.43","u6hhur0mxep0u28",253,"10.csv","","null","resources/images/fishbone.png","null","",NA,NA,NA,NA,""
"image-keyboard-response",143,167707,"0.0-3.44-0.44","u6hhur0mxep0u28",253,"10.csv","","358","resources/trios/L4T1A3.jpg","39","restless",0.6,0.4,0.3,0.44652346803394,"false"
"image-keyboard-response",144,168110,"0.0-3.44-1.44","u6hhur0mxep0u28",253,"10.csv","","null","resources/maskTrios/BBA3.jpg","null","",NA,NA,NA,NA,""
"image-keyboard-response",145,169313,"0.0-3.44-2.44","u6hhur0mxep0u28",253,"10.csv","","null","resources/images/fishbone.png","null","",NA,NA,NA,NA,""
"image-keyboard-response",146,169586,"0.0-3.45-0.45","u6hhur0mxep0u28",253,"10.csv","","271","resources/trios/L2T1A1.jpg","38","restless",0.5,0.4,0.3,0.347661751190083,"true"
"image-keyboard-response",147,169989,"0.0-3.45-1.45","u6hhur0mxep0u28",253,"10.csv","","null","resources/maskTrios/BT1B.jpg","null","",NA,NA,NA,NA,""
"image-keyboard-response",148,171191,"0.0-3.45-2.45","u6hhur0mxep0u28",253,"10.csv","","null","resources/images/coin2.png","null","",NA,NA,NA,NA,""
"image-keyboard-response",149,171315,"0.0-3.46-0.46","u6hhur0mxep0u28",253,"10.csv","","122","resources/trios/L2T1A3.jpg","37","restless",0.6,0.4,0.3,0.409054727854183,"true"
"image-keyboard-response",150,171717,"0.0-3.46-1.46","u6hhur0mxep0u28",253,"10.csv","","null","resources/maskTrios/L2BB.jpg","null","",NA,NA,NA,NA,""
"image-keyboard-response",151,172920,"0.0-3.46-2.46","u6hhur0mxep0u28",253,"10.csv","","null","resources/images/coin2.png","null","",NA,NA,NA,NA,""
"image-keyboard-response",152,173263,"0.0-3.47-0.47","u6hhur0mxep0u28",253,"10.csv","","341","resources/trios/L2T1A1.jpg","38","restless",0.6,0.4,0.3,0.783787936885952,"false"
"image-keyboard-response",153,173666,"0.0-3.47-1.47","u6hhur0mxep0u28",253,"10.csv","","null","resources/maskTrios/BT1B.jpg","null","",NA,NA,NA,NA,""
"image-keyboard-response",154,174868,"0.0-3.47-2.47","u6hhur0mxep0u28",253,"10.csv","","null","resources/images/fishbone.png","null","",NA,NA,NA,NA,""
"image-keyboard-response",155,175090,"0.0-3.48-0.48","u6hhur0mxep0u28",253,"10.csv","","220","resources/trios/L2T1A1.jpg","39","restless",0.6,0.4,0.3,0.568082149907245,"false"
"image-keyboard-response",156,175493,"0.0-3.48-1.48","u6hhur0mxep0u28",253,"10.csv","","null","resources/maskTrios/BBA1.jpg","null","",NA,NA,NA,NA,""
"image-keyboard-response",157,176695,"0.0-3.48-2.48","u6hhur0mxep0u28",253,"10.csv","","null","resources/images/fishbone.png","null","",NA,NA,NA,NA,""
"image-keyboard-response",158,176991,"0.0-3.49-0.49","u6hhur0mxep0u28",253,"10.csv","","294","resources/trios/L2T1A1.jpg","38","restless",0.6,0.4,0.3,0.837988281188308,"false"
"image-keyboard-response",159,177394,"0.0-3.49-1.49","u6hhur0mxep0u28",253,"10.csv","","null","resources/maskTrios/BT1B.jpg","null","",NA,NA,NA,NA,""
"image-keyboard-response",160,178596,"0.0-3.49-2.49","u6hhur0mxep0u28",253,"10.csv","","null","resources/images/fishbone.png","null","",NA,NA,NA,NA,""
"image-keyboard-response",161,178876,"0.0-3.50-0.50","u6hhur0mxep0u28",253,"10.csv","","278","resources/trios/L2T1A3.jpg","37","restless",0.6,0.3,0.3,0.781786548307278,"false"
"image-keyboard-response",162,179278,"0.0-3.50-1.50","u6hhur0mxep0u28",253,"10.csv","","null","resources/maskTrios/L2BB.jpg","null","",NA,NA,NA,NA,""
"image-keyboard-response",163,180481,"0.0-3.50-2.50","u6hhur0mxep0u28",253,"10.csv","","null","resources/images/fishbone.png","null","",NA,NA,NA,NA,""
"image-keyboard-response",164,180766,"0.0-3.51-0.51","u6hhur0mxep0u28",253,"10.csv","","281","resources/trios/L4T4A3.jpg","38","restless",0.6,0.3,0.3,0.252482046824696,"true"
"image-keyboard-response",165,181169,"0.0-3.51-1.51","u6hhur0mxep0u28",253,"10.csv","","null","resources/maskTrios/BT4B.jpg","null","",NA,NA,NA,NA,""
"image-keyboard-response",166,182372,"0.0-3.51-2.51","u6hhur0mxep0u28",253,"10.csv","","null","resources/images/coin2.png","null","",NA,NA,NA,NA,""
"image-keyboard-response",167,182523,"0.0-3.52-0.52","u6hhur0mxep0u28",253,"10.csv","","150","resources/trios/L2T1A3.jpg","37","restless",0.6,0.3,0.3,0.129919254535462,"true"
"image-keyboard-response",168,182926,"0.0-3.52-1.52","u6hhur0mxep0u28",253,"10.csv","","null","resources/maskTrios/L2BB.jpg","null","",NA,NA,NA,NA,""
"image-keyboard-response",169,184129,"0.0-3.52-2.52","u6hhur0mxep0u28",253,"10.csv","","null","resources/images/coin2.png","null","",NA,NA,NA,NA,""
"image-keyboard-response",170,184731,"0.0-3.53-0.53","u6hhur0mxep0u28",253,"10.csv","","600","resources/trios/L2T1A1.jpg","38","restless",0.6,0.3,0.3,0.985585516767044,"false"
"image-keyboard-response",171,185134,"0.0-3.53-1.53","u6hhur0mxep0u28",253,"10.csv","","null","resources/maskTrios/BT1B.jpg","null","",NA,NA,NA,NA,""
"image-keyboard-response",172,186336,"0.0-3.53-2.53","u6hhur0mxep0u28",253,"10.csv","","null","resources/images/fishbone.png","null","",NA,NA,NA,NA,""
"image-keyboard-response",173,186722,"0.0-3.54-0.54","u6hhur0mxep0u28",253,"10.csv","","384.0000000000291","resources/trios/L4T4A3.jpg","39","restless",0.6,0.3,0.3,0.68266593435675,"false"
"image-keyboard-response",174,187125,"0.0-3.54-1.54","u6hhur0mxep0u28",253,"10.csv","","null","resources/maskTrios/BBA3.jpg","null","",NA,NA,NA,NA,""
"image-keyboard-response",175,188328,"0.0-3.54-2.54","u6hhur0mxep0u28",253,"10.csv","","null","resources/images/fishbone.png","null","",NA,NA,NA,NA,""
"image-keyboard-response",176,188395,"0.0-3.55-0.55","u6hhur0mxep0u28",253,"10.csv","","63","resources/trios/L2T1A3.jpg","37","restless",0.6,0.4,0.3,0.0979130483469416,"true"
"image-keyboard-response",177,188798,"0.0-3.55-1.55","u6hhur0mxep0u28",253,"10.csv","","null","resources/maskTrios/L2BB.jpg","null","",NA,NA,NA,NA,""
"image-keyboard-response",178,190002,"0.0-3.55-2.55","u6hhur0mxep0u28",253,"10.csv","","null","resources/images/coin2.png","null","",NA,NA,NA,NA,""
"image-keyboard-response",179,190283,"0.0-3.56-0.56","u6hhur0mxep0u28",253,"10.csv","","279","resources/trios/L2T4A3.jpg","38","restless",0.6,0.4,0.3,0.845524193896587,"false"
"image-keyboard-response",180,190686,"0.0-3.56-1.56","u6hhur0mxep0u28",253,"10.csv","","null","resources/maskTrios/BT4B.jpg","null","",NA,NA,NA,NA,""
"image-keyboard-response",181,191888,"0.0-3.56-2.56","u6hhur0mxep0u28",253,"10.csv","","null","resources/images/fishbone.png","null","",NA,NA,NA,NA,""
"image-keyboard-response",182,192298,"0.0-3.57-0.57","u6hhur0mxep0u28",253,"10.csv","","408","resources/trios/L2T4A3.jpg","37","restless",0.6,0.5,0.3,0.315679656738379,"true"
"image-keyboard-response",183,192701,"0.0-3.57-1.57","u6hhur0mxep0u28",253,"10.csv","","null","resources/maskTrios/L2BB.jpg","null","",NA,NA,NA,NA,""
"image-keyboard-response",184,193904,"0.0-3.57-2.57","u6hhur0mxep0u28",253,"10.csv","","null","resources/images/coin2.png","null","",NA,NA,NA,NA,""
"image-keyboard-response",185,194870,"0.0-3.58-0.58","u6hhur0mxep0u28",253,"10.csv","","964","resources/trios/L4T1A1.jpg","38","restless",0.6,0.5,0.3,0.503406585975582,"false"
"image-keyboard-response",186,195274,"0.0-3.58-1.58","u6hhur0mxep0u28",253,"10.csv","","null","resources/maskTrios/BT1B.jpg","null","",NA,NA,NA,NA,""
"image-keyboard-response",187,196476,"0.0-3.58-2.58","u6hhur0mxep0u28",253,"10.csv","","null","resources/images/fishbone.png","null","",NA,NA,NA,NA,""
"image-keyboard-response",188,197617,"0.0-3.59-0.59","u6hhur0mxep0u28",253,"10.csv","","1138.999999999971","resources/trios/L4T4A1.jpg","38","restless",0.6,0.5,0.3,0.690030808890369,"false"
"image-keyboard-response",189,198021,"0.0-3.59-1.59","u6hhur0mxep0u28",253,"10.csv","","null","resources/maskTrios/BT4B.jpg","null","",NA,NA,NA,NA,""
"image-keyboard-response",190,199224,"0.0-3.59-2.59","u6hhur0mxep0u28",253,"10.csv","","null","resources/images/fishbone.png","null","",NA,NA,NA,NA,""
"image-keyboard-response",191,199469,"0.0-3.60-0.60","u6hhur0mxep0u28",253,"10.csv","","243","resources/trios/L2T4A3.jpg","37","restless",0.7,0.5,0.3,0.754845657654207,"false"
"image-keyboard-response",192,199871,"0.0-3.60-1.60","u6hhur0mxep0u28",253,"10.csv","","null","resources/maskTrios/L2BB.jpg","null","",NA,NA,NA,NA,""
"image-keyboard-response",193,201076,"0.0-3.60-2.60","u6hhur0mxep0u28",253,"10.csv","","null","resources/images/fishbone.png","null","",NA,NA,NA,NA,""
"image-keyboard-response",194,201141,"0.0-3.61-0.61","u6hhur0mxep0u28",253,"10.csv","","63","resources/trios/L2T1A1.jpg","39","restless",0.7,0.5,0.3,0.517051270041589,"false"
"image-keyboard-response",195,201544,"0.0-3.61-1.61","u6hhur0mxep0u28",253,"10.csv","","null","resources/maskTrios/BBA1.jpg","null","",NA,NA,NA,NA,""
"image-keyboard-response",196,202746,"0.0-3.61-2.61","u6hhur0mxep0u28",253,"10.csv","","null","resources/images/fishbone.png","null","",NA,NA,NA,NA,""
"image-keyboard-response",197,203002,"0.0-3.62-0.62","u6hhur0mxep0u28",253,"10.csv","","254.0000000000291","resources/trios/L4T4A3.jpg","38","restless",0.7,0.5,0.3,0.973834463746918,"false"
"image-keyboard-response",198,203405,"0.0-3.62-1.62","u6hhur0mxep0u28",253,"10.csv","","null","resources/maskTrios/BT4B.jpg","null","",NA,NA,NA,NA,""
"image-keyboard-response",199,204607,"0.0-3.62-2.62","u6hhur0mxep0u28",253,"10.csv","","null","resources/images/fishbone.png","null","",NA,NA,NA,NA,""
"image-keyboard-response",200,204985,"0.0-3.63-0.63","u6hhur0mxep0u28",253,"10.csv","","375.9999999999709","resources/trios/L2T4A3.jpg","37","restless",0.7,0.5,0.3,0.0552070102027927,"true"
"image-keyboard-response",201,205388,"0.0-3.63-1.63","u6hhur0mxep0u28",253,"10.csv","","null","resources/maskTrios/L2BB.jpg","null","",NA,NA,NA,NA,""
"image-keyboard-response",202,206590,"0.0-3.63-2.63","u6hhur0mxep0u28",253,"10.csv","","null","resources/images/coin2.png","null","",NA,NA,NA,NA,""
"image-keyboard-response",203,207080,"0.0-3.64-0.64","u6hhur0mxep0u28",253,"10.csv","","488","resources/trios/L4T1A1.jpg","37","restless",0.6,0.5,0.3,0.168018943819544,"true"
"image-keyboard-response",204,207483,"0.0-3.64-1.64","u6hhur0mxep0u28",253,"10.csv","","null","resources/maskTrios/L4BB.jpg","null","",NA,NA,NA,NA,""
"image-keyboard-response",205,208686,"0.0-3.64-2.64","u6hhur0mxep0u28",253,"10.csv","","null","resources/images/coin2.png","null","",NA,NA,NA,NA,""
"image-keyboard-response",206,209023,"0.0-3.65-0.65","u6hhur0mxep0u28",253,"10.csv","","333","resources/trios/L4T4A3.jpg","37","restless",0.6,0.5,0.3,0.577164192669231,"true"
"image-keyboard-response",207,209426,"0.0-3.65-1.65","u6hhur0mxep0u28",253,"10.csv","","null","resources/maskTrios/L4BB.jpg","null","",NA,NA,NA,NA,""
"image-keyboard-response",208,210630,"0.0-3.65-2.65","u6hhur0mxep0u28",253,"10.csv","","null","resources/images/coin2.png","null","",NA,NA,NA,NA,""
"image-keyboard-response",209,211083,"0.0-3.66-0.66","u6hhur0mxep0u28",253,"10.csv","","451","resources/trios/L4T1A3.jpg","37","restless",0.6,0.5,0.3,0.39403304983149,"true"
"image-keyboard-response",210,211486,"0.0-3.66-1.66","u6hhur0mxep0u28",253,"10.csv","","null","resources/maskTrios/L4BB.jpg","null","",NA,NA,NA,NA,""
"image-keyboard-response",211,212689,"0.0-3.66-2.66","u6hhur0mxep0u28",253,"10.csv","","null","resources/images/coin2.png","null","",NA,NA,NA,NA,""
"image-keyboard-response",212,213057,"0.0-3.67-0.67","u6hhur0mxep0u28",253,"10.csv","","366","resources/trios/L4T1A1.jpg","37","restless",0.6,0.5,0.3,0.90968172217703,"false"
"image-keyboard-response",213,213460,"0.0-3.67-1.67","u6hhur0mxep0u28",253,"10.csv","","null","resources/maskTrios/L4BB.jpg","null","",NA,NA,NA,NA,""
"image-keyboard-response",214,214663,"0.0-3.67-2.67","u6hhur0mxep0u28",253,"10.csv","","null","resources/images/fishbone.png","null","",NA,NA,NA,NA,""
"image-keyboard-response",215,214955,"0.0-3.68-0.68","u6hhur0mxep0u28",253,"10.csv","","290","resources/trios/L2T1A1.jpg","39","restless",0.6,0.4,0.3,0.674681219076709,"false"
"image-keyboard-response",216,215357,"0.0-3.68-1.68","u6hhur0mxep0u28",253,"10.csv","","null","resources/maskTrios/BBA1.jpg","null","",NA,NA,NA,NA,""
"image-keyboard-response",217,216559,"0.0-3.68-2.68","u6hhur0mxep0u28",253,"10.csv","","null","resources/images/fishbone.png","null","",NA,NA,NA,NA,""
"image-keyboard-response",218,216923,"0.0-3.69-0.69","u6hhur0mxep0u28",253,"10.csv","","362","resources/trios/L2T1A1.jpg","38","restless",0.6,0.4,0.3,0.0201566561593581,"true"
"image-keyboard-response",219,217325,"0.0-3.69-1.69","u6hhur0mxep0u28",253,"10.csv","","null","resources/maskTrios/BT1B.jpg","null","",NA,NA,NA,NA,""
"image-keyboard-response",220,218528,"0.0-3.69-2.69","u6hhur0mxep0u28",253,"10.csv","","null","resources/images/coin2.png","null","",NA,NA,NA,NA,""
"image-keyboard-response",221,222202,"0.0-3.70-0.70","u6hhur0mxep0u28",253,"10.csv","","3671","resources/trios/L4T4A3.jpg","39","restless",0.6,0.4,0.3,0.203215139750215,"true"
"image-keyboard-response",222,222604,"0.0-3.70-1.70","u6hhur0mxep0u28",253,"10.csv","","null","resources/maskTrios/BBA3.jpg","null","",NA,NA,NA,NA,""
"image-keyboard-response",223,223807,"0.0-3.70-2.70","u6hhur0mxep0u28",253,"10.csv","","null","resources/images/coin2.png","null","",NA,NA,NA,NA,""
"image-keyboard-response",224,225819,"0.0-3.71-0.71","u6hhur0mxep0u28",253,"10.csv","","2007","resources/trios/L4T1A1.jpg","38","restless",0.7,0.4,0.3,0.49925470381549,"false"
"image-keyboard-response",225,226223,"0.0-3.71-1.71","u6hhur0mxep0u28",253,"10.csv","","null","resources/maskTrios/BT1B.jpg","null","",NA,NA,NA,NA,""
"image-keyboard-response",226,227426,"0.0-3.71-2.71","u6hhur0mxep0u28",253,"10.csv","","null","resources/images/fishbone.png","null","",NA,NA,NA,NA,""
"image-keyboard-response",227,228505,"0.0-3.72-0.72","u6hhur0mxep0u28",253,"10.csv","","1076","resources/trios/L4T4A1.jpg","37","restless",0.7,0.3,0.3,0.0629379184296772,"true"
"image-keyboard-response",228,228908,"0.0-3.72-1.72","u6hhur0mxep0u28",253,"10.csv","","null","resources/maskTrios/L4BB.jpg","null","",NA,NA,NA,NA,""
"image-keyboard-response",229,230111,"0.0-3.72-2.72","u6hhur0mxep0u28",253,"10.csv","","null","resources/images/coin2.png","null","",NA,NA,NA,NA,""
"image-keyboard-response",230,230371,"0.0-3.73-0.73","u6hhur0mxep0u28",253,"10.csv","","257.0000000000291","resources/trios/L2T1A3.jpg","37","restless",0.7,0.3,0.3,0.936352629003888,"false"
"image-keyboard-response",231,230775,"0.0-3.73-1.73","u6hhur0mxep0u28",253,"10.csv","","null","resources/maskTrios/L2BB.jpg","null","",NA,NA,NA,NA,""
"image-keyboard-response",232,231977,"0.0-3.73-2.73","u6hhur0mxep0u28",253,"10.csv","","null","resources/images/fishbone.png","null","",NA,NA,NA,NA,""
"image-keyboard-response",233,232246,"0.0-3.74-0.74","u6hhur0mxep0u28",253,"10.csv","","266.0000000000291","resources/trios/L4T4A1.jpg","37","restless",0.7,0.3,0.3,0.275043102644454,"true"
"image-keyboard-response",234,232650,"0.0-3.74-1.74","u6hhur0mxep0u28",253,"10.csv","","null","resources/maskTrios/L4BB.jpg","null","",NA,NA,NA,NA,""
"image-keyboard-response",235,233853,"0.0-3.74-2.74","u6hhur0mxep0u28",253,"10.csv","","null","resources/images/coin2.png","null","",NA,NA,NA,NA,""
"image-keyboard-response",236,234181,"0.0-3.75-0.75","u6hhur0mxep0u28",253,"10.csv","","325","resources/trios/L2T1A1.jpg","38","restless",0.7,0.3,0.3,0.920871633157595,"false"
"image-keyboard-response",237,234584,"0.0-3.75-1.75","u6hhur0mxep0u28",253,"10.csv","","null","resources/maskTrios/BT1B.jpg","null","",NA,NA,NA,NA,""
"image-keyboard-response",238,235787,"0.0-3.75-2.75","u6hhur0mxep0u28",253,"10.csv","","null","resources/images/fishbone.png","null","",NA,NA,NA,NA,""
"image-keyboard-response",239,236206,"0.0-3.76-0.76","u6hhur0mxep0u28",253,"10.csv","","417","resources/trios/L2T4A3.jpg","39","restless",0.7,0.4,0.2,0.945804748642674,"false"
"image-keyboard-response",240,236609,"0.0-3.76-1.76","u6hhur0mxep0u28",253,"10.csv","","null","resources/maskTrios/BBA3.jpg","null","",NA,NA,NA,NA,""
"image-keyboard-response",241,237812,"0.0-3.76-2.76","u6hhur0mxep0u28",253,"10.csv","","null","resources/images/fishbone.png","null","",NA,NA,NA,NA,""
"image-keyboard-response",242,238997,"0.0-3.77-0.77","u6hhur0mxep0u28",253,"10.csv","","1183","resources/trios/L2T4A3.jpg","37","restless",0.7,0.4,0.2,0.191235122800742,"true"
"image-keyboard-response",243,239400,"0.0-3.77-1.77","u6hhur0mxep0u28",253,"10.csv","","null","resources/maskTrios/L2BB.jpg","null","",NA,NA,NA,NA,""
"image-keyboard-response",244,240603,"0.0-3.77-2.77","u6hhur0mxep0u28",253,"10.csv","","null","resources/images/coin2.png","null","",NA,NA,NA,NA,""
"image-keyboard-response",245,240657,"0.0-3.78-0.78","u6hhur0mxep0u28",253,"10.csv","","52.000000000029104","resources/trios/L2T1A1.jpg","37","restless",0.7,0.4,0.2,0.316550732499113,"true"
"image-keyboard-response",246,241059,"0.0-3.78-1.78","u6hhur0mxep0u28",253,"10.csv","","null","resources/maskTrios/L2BB.jpg","null","",NA,NA,NA,NA,""
"image-keyboard-response",247,242262,"0.0-3.78-2.78","u6hhur0mxep0u28",253,"10.csv","","null","resources/images/coin2.png","null","",NA,NA,NA,NA,""
"image-keyboard-response",248,242515,"0.0-3.79-0.79","u6hhur0mxep0u28",253,"10.csv","","250.9999999999709","resources/trios/L2T1A3.jpg","37","restless",0.7,0.4,0.2,0.532191665589033,"true"
"image-keyboard-response",249,242921,"0.0-3.79-1.79","u6hhur0mxep0u28",253,"10.csv","","null","resources/maskTrios/L2BB.jpg","null","",NA,NA,NA,NA,""
"image-keyboard-response",250,244124,"0.0-3.79-2.79","u6hhur0mxep0u28",253,"10.csv","","null","resources/images/coin2.png","null","",NA,NA,NA,NA,""
"image-keyboard-response",251,244674,"0.0-3.80-0.80","u6hhur0mxep0u28",253,"10.csv","","548","resources/trios/L4T1A3.jpg","37","restless",0.7,0.4,0.3,0.665159332563881,"true"
"image-keyboard-response",252,245076,"0.0-3.80-1.80","u6hhur0mxep0u28",253,"10.csv","","null","resources/maskTrios/L4BB.jpg","null","",NA,NA,NA,NA,""
"image-keyboard-response",253,246279,"0.0-3.80-2.80","u6hhur0mxep0u28",253,"10.csv","","null","resources/images/coin2.png","null","",NA,NA,NA,NA,""
"image-keyboard-response",254,247056,"0.0-3.81-0.81","u6hhur0mxep0u28",253,"10.csv","","774","resources/trios/L4T1A3.jpg","37","restless",0.7,0.4,0.3,0.366114518585217,"true"
"image-keyboard-response",255,247459,"0.0-3.81-1.81","u6hhur0mxep0u28",253,"10.csv","","null","resources/maskTrios/L4BB.jpg","null","",NA,NA,NA,NA,""
"image-keyboard-response",256,248662,"0.0-3.81-2.81","u6hhur0mxep0u28",253,"10.csv","","null","resources/images/coin2.png","null","",NA,NA,NA,NA,""
"image-keyboard-response",257,248989,"0.0-3.82-0.82","u6hhur0mxep0u28",253,"10.csv","","325","resources/trios/L4T1A1.jpg","37","restless",0.8,0.4,0.4,0.830173779890413,"false"
"image-keyboard-response",258,249392,"0.0-3.82-1.82","u6hhur0mxep0u28",253,"10.csv","","null","resources/maskTrios/L4BB.jpg","null","",NA,NA,NA,NA,""
"image-keyboard-response",259,250594,"0.0-3.82-2.82","u6hhur0mxep0u28",253,"10.csv","","null","resources/images/fishbone.png","null","",NA,NA,NA,NA,""
"image-keyboard-response",260,250892,"0.0-3.83-0.83","u6hhur0mxep0u28",253,"10.csv","","294.9999999999709","resources/trios/L2T4A1.jpg","38","restless",0.8,0.4,0.4,0.202776425276184,"true"
"image-keyboard-response",261,251296,"0.0-3.83-1.83","u6hhur0mxep0u28",253,"10.csv","","null","resources/maskTrios/BT4B.jpg","null","",NA,NA,NA,NA,""
"image-keyboard-response",262,252499,"0.0-3.83-2.83","u6hhur0mxep0u28",253,"10.csv","","null","resources/images/coin2.png","null","",NA,NA,NA,NA,""
"image-keyboard-response",263,252861,"0.0-3.84-0.84","u6hhur0mxep0u28",253,"10.csv","","359.0000000000291","resources/trios/L2T4A3.jpg","39","restless",0.9,0.4,0.4,0.673848972628524,"false"
"image-keyboard-response",264,253264,"0.0-3.84-1.84","u6hhur0mxep0u28",253,"10.csv","","null","resources/maskTrios/BBA3.jpg","null","",NA,NA,NA,NA,""
"image-keyboard-response",265,254467,"0.0-3.84-2.84","u6hhur0mxep0u28",253,"10.csv","","null","resources/images/fishbone.png","null","",NA,NA,NA,NA,""
"image-keyboard-response",266,254976,"0.0-3.85-0.85","u6hhur0mxep0u28",253,"10.csv","","506.9999999999418","resources/trios/L4T4A1.jpg","39","restless",0.9,0.4,0.4,0.433748451649216,"false"
"image-keyboard-response",267,255379,"0.0-3.85-1.85","u6hhur0mxep0u28",253,"10.csv","","null","resources/maskTrios/BBA1.jpg","null","",NA,NA,NA,NA,""
"image-keyboard-response",268,256582,"0.0-3.85-2.85","u6hhur0mxep0u28",253,"10.csv","","null","resources/images/fishbone.png","null","",NA,NA,NA,NA,""
"image-keyboard-response",269,256906,"0.0-3.86-0.86","u6hhur0mxep0u28",253,"10.csv","","322","resources/trios/L4T1A3.jpg","38","restless",0.9,0.4,0.4,0.341734259641708,"true"
"image-keyboard-response",270,257310,"0.0-3.86-1.86","u6hhur0mxep0u28",253,"10.csv","","null","resources/maskTrios/BT1B.jpg","null","",NA,NA,NA,NA,""
"image-keyboard-response",271,258513,"0.0-3.86-2.86","u6hhur0mxep0u28",253,"10.csv","","null","resources/images/coin2.png","null","",NA,NA,NA,NA,""
"image-keyboard-response",272,258611,"0.0-3.87-0.87","u6hhur0mxep0u28",253,"10.csv","","96","resources/trios/L2T1A1.jpg","38","restless",0.9,0.4,0.4,0.289613234978504,"true"
"image-keyboard-response",273,259015,"0.0-3.87-1.87","u6hhur0mxep0u28",253,"10.csv","","null","resources/maskTrios/BT1B.jpg","null","",NA,NA,NA,NA,""
"image-keyboard-response",274,260218,"0.0-3.87-2.87","u6hhur0mxep0u28",253,"10.csv","","null","resources/images/coin2.png","null","",NA,NA,NA,NA,""
"image-keyboard-response",275,260672,"0.0-3.88-0.88","u6hhur0mxep0u28",253,"10.csv","","452","resources/trios/L4T1A1.jpg","37","restless",0.9,0.4,0.4,0.277969289146873,"true"
"image-keyboard-response",276,261075,"0.0-3.88-1.88","u6hhur0mxep0u28",253,"10.csv","","null","resources/maskTrios/L4BB.jpg","null","",NA,NA,NA,NA,""
"image-keyboard-response",277,262278,"0.0-3.88-2.88","u6hhur0mxep0u28",253,"10.csv","","null","resources/images/coin2.png","null","",NA,NA,NA,NA,""
"image-keyboard-response",278,265473,"0.0-3.89-0.89","u6hhur0mxep0u28",253,"10.csv","","3193.999999999942","resources/trios/L4T1A1.jpg","38","restless",0.9,0.3,0.4,0.779357989682502,"false"
"image-keyboard-response",279,265878,"0.0-3.89-1.89","u6hhur0mxep0u28",253,"10.csv","","null","resources/maskTrios/BT1B.jpg","null","",NA,NA,NA,NA,""
"image-keyboard-response",280,267081,"0.0-3.89-2.89","u6hhur0mxep0u28",253,"10.csv","","null","resources/images/fishbone.png","null","",NA,NA,NA,NA,""
"image-keyboard-response",281,268375,"0.0-3.90-0.90","u6hhur0mxep0u28",253,"10.csv","","1292","resources/trios/L2T4A1.jpg","38","restless",0.9,0.3,0.4,0.288528211068245,"true"
"image-keyboard-response",282,268778,"0.0-3.90-1.90","u6hhur0mxep0u28",253,"10.csv","","null","resources/maskTrios/BT4B.jpg","null","",NA,NA,NA,NA,""
"image-keyboard-response",283,269980,"0.0-3.90-2.90","u6hhur0mxep0u28",253,"10.csv","","null","resources/images/coin2.png","null","",NA,NA,NA,NA,""
"image-keyboard-response",284,270196,"0.0-3.91-0.91","u6hhur0mxep0u28",253,"10.csv","","213","resources/trios/L4T4A3.jpg","37","restless",0.9,0.3,0.5,0.422296880213702,"true"
"image-keyboard-response",285,270599,"0.0-3.91-1.91","u6hhur0mxep0u28",253,"10.csv","","null","resources/maskTrios/L4BB.jpg","null","",NA,NA,NA,NA,""
"image-keyboard-response",286,271803,"0.0-3.91-2.91","u6hhur0mxep0u28",253,"10.csv","","null","resources/images/coin2.png","null","",NA,NA,NA,NA,""
"image-keyboard-response",287,272064,"0.0-3.92-0.92","u6hhur0mxep0u28",253,"10.csv","","259","resources/trios/L4T4A3.jpg","37","restless",0.9,0.3,0.5,0.59709525444787,"true"
"image-keyboard-response",288,272467,"0.0-3.92-1.92","u6hhur0mxep0u28",253,"10.csv","","null","resources/maskTrios/L4BB.jpg","null","",NA,NA,NA,NA,""
"image-keyboard-response",289,273670,"0.0-3.92-2.92","u6hhur0mxep0u28",253,"10.csv","","null","resources/images/coin2.png","null","",NA,NA,NA,NA,""
"image-keyboard-response",290,273796,"0.0-3.93-0.93","u6hhur0mxep0u28",253,"10.csv","","124","resources/trios/L2T4A1.jpg","37","restless",0.9,0.3,0.5,0.221610735219627,"true"
"image-keyboard-response",291,274199,"0.0-3.93-1.93","u6hhur0mxep0u28",253,"10.csv","","null","resources/maskTrios/L2BB.jpg","null","",NA,NA,NA,NA,""
"image-keyboard-response",292,275402,"0.0-3.93-2.93","u6hhur0mxep0u28",253,"10.csv","","null","resources/images/coin2.png","null","",NA,NA,NA,NA,""
"image-keyboard-response",293,275810,"0.0-3.94-0.94","u6hhur0mxep0u28",253,"10.csv","","405.9999999999418","resources/trios/L2T4A1.jpg","38","restless",0.9,0.3,0.4,0.816281545020501,"false"
"image-keyboard-response",294,276213,"0.0-3.94-1.94","u6hhur0mxep0u28",253,"10.csv","","null","resources/maskTrios/BT4B.jpg","null","",NA,NA,NA,NA,""
"image-keyboard-response",295,277415,"0.0-3.94-2.94","u6hhur0mxep0u28",253,"10.csv","","null","resources/images/fishbone.png","null","",NA,NA,NA,NA,""
"image-keyboard-response",296,277733,"0.0-3.95-0.95","u6hhur0mxep0u28",253,"10.csv","","314","resources/trios/L4T1A1.jpg","39","restless",0.9,0.3,0.4,0.732084222291939,"false"
"image-keyboard-response",297,278136,"0.0-3.95-1.95","u6hhur0mxep0u28",253,"10.csv","","null","resources/maskTrios/BBA1.jpg","null","",NA,NA,NA,NA,""
"image-keyboard-response",298,279338,"0.0-3.95-2.95","u6hhur0mxep0u28",253,"10.csv","","null","resources/images/fishbone.png","null","",NA,NA,NA,NA,""
"image-keyboard-response",299,279625,"0.0-3.96-0.96","u6hhur0mxep0u28",253,"10.csv","","285","resources/trios/L4T1A3.jpg","39","restless",0.8,0.3,0.4,0.664984030170654,"false"
"image-keyboard-response",300,280028,"0.0-3.96-1.96","u6hhur0mxep0u28",253,"10.csv","","null","resources/maskTrios/BBA3.jpg","null","",NA,NA,NA,NA,""
"image-keyboard-response",301,281231,"0.0-3.96-2.96","u6hhur0mxep0u28",253,"10.csv","","null","resources/images/fishbone.png","null","",NA,NA,NA,NA,""
"image-keyboard-response",302,281471,"0.0-3.97-0.97","u6hhur0mxep0u28",253,"10.csv","","238","resources/trios/L2T1A1.jpg","37","restless",0.8,0.3,0.4,0.950401150671415,"false"
"image-keyboard-response",303,281874,"0.0-3.97-1.97","u6hhur0mxep0u28",253,"10.csv","","null","resources/maskTrios/L2BB.jpg","null","",NA,NA,NA,NA,""
"image-keyboard-response",304,283077,"0.0-3.97-2.97","u6hhur0mxep0u28",253,"10.csv","","null","resources/images/fishbone.png","null","",NA,NA,NA,NA,""
"image-keyboard-response",305,283205,"0.0-3.98-0.98","u6hhur0mxep0u28",253,"10.csv","","126","resources/trios/L2T4A1.jpg","38","restless",0.8,0.3,0.4,0.967985402093951,"false"
"image-keyboard-response",306,283607,"0.0-3.98-1.98","u6hhur0mxep0u28",253,"10.csv","","null","resources/maskTrios/BT4B.jpg","null","",NA,NA,NA,NA,""
"image-keyboard-response",307,284810,"0.0-3.98-2.98","u6hhur0mxep0u28",253,"10.csv","","null","resources/images/fishbone.png","null","",NA,NA,NA,NA,""
"image-keyboard-response",308,285116,"0.0-3.99-0.99","u6hhur0mxep0u28",253,"10.csv","","304","resources/trios/L2T1A1.jpg","37","restless",0.8,0.3,0.4,0.927197518719265,"false"
"image-keyboard-response",309,285519,"0.0-3.99-1.99","u6hhur0mxep0u28",253,"10.csv","","null","resources/maskTrios/L2BB.jpg","null","",NA,NA,NA,NA,""
"image-keyboard-response",310,286722,"0.0-3.99-2.99","u6hhur0mxep0u28",253,"10.csv","","null","resources/images/fishbone.png","null","",NA,NA,NA,NA,""
"image-keyboard-response",311,286995,"0.0-3.100-0.100","u6hhur0mxep0u28",253,"10.csv","","268","resources/trios/L2T1A3.jpg","37","restless",0.8,0.3,0.4,0.432232619755516,"true"
"image-keyboard-response",312,287399,"0.0-3.100-1.100","u6hhur0mxep0u28",253,"10.csv","","null","resources/maskTrios/L2BB.jpg","null","",NA,NA,NA,NA,""
"image-keyboard-response",313,288602,"0.0-3.100-2.100","u6hhur0mxep0u28",253,"10.csv","","null","resources/images/coin2.png","null","",NA,NA,NA,NA,""
"image-keyboard-response",314,288891,"0.0-3.101-0.101","u6hhur0mxep0u28",253,"10.csv","","287","resources/trios/L4T4A1.jpg","37","restless",0.8,0.3,0.4,0.77292857632707,"true"
"image-keyboard-response",315,289294,"0.0-3.101-1.101","u6hhur0mxep0u28",253,"10.csv","","null","resources/maskTrios/L4BB.jpg","null","",NA,NA,NA,NA,""
"image-keyboard-response",316,290497,"0.0-3.101-2.101","u6hhur0mxep0u28",253,"10.csv","","null","resources/images/coin2.png","null","",NA,NA,NA,NA,""
"image-keyboard-response",317,290775,"0.0-3.102-0.102","u6hhur0mxep0u28",253,"10.csv","","276","resources/trios/L2T1A1.jpg","37","restless",0.8,0.3,0.4,0.0726168249024709,"true"
"image-keyboard-response",318,291178,"0.0-3.102-1.102","u6hhur0mxep0u28",253,"10.csv","","null","resources/maskTrios/L2BB.jpg","null","",NA,NA,NA,NA,""
"image-keyboard-response",319,292380,"0.0-3.102-2.102","u6hhur0mxep0u28",253,"10.csv","","null","resources/images/coin2.png","null","",NA,NA,NA,NA,""
"image-keyboard-response",320,292529,"0.0-3.103-0.103","u6hhur0mxep0u28",253,"10.csv","","146.0000000000582","resources/trios/L4T4A1.jpg","38","restless",0.8,0.4,0.4,0.174769618019114,"true"
"image-keyboard-response",321,292932,"0.0-3.103-1.103","u6hhur0mxep0u28",253,"10.csv","","null","resources/maskTrios/BT4B.jpg","null","",NA,NA,NA,NA,""
"image-keyboard-response",322,294135,"0.0-3.103-2.103","u6hhur0mxep0u28",253,"10.csv","","null","resources/images/coin2.png","null","",NA,NA,NA,NA,""
"image-keyboard-response",323,294473,"0.0-3.104-0.104","u6hhur0mxep0u28",253,"10.csv","","336","resources/trios/L4T1A3.jpg","38","restless",0.8,0.4,0.4,0.599377251178615,"false"
"image-keyboard-response",324,294877,"0.0-3.104-1.104","u6hhur0mxep0u28",253,"10.csv","","null","resources/maskTrios/BT1B.jpg","null","",NA,NA,NA,NA,""
"image-keyboard-response",325,296079,"0.0-3.104-2.104","u6hhur0mxep0u28",253,"10.csv","","null","resources/images/fishbone.png","null","",NA,NA,NA,NA,""
"image-keyboard-response",326,296275,"0.0-3.105-0.105","u6hhur0mxep0u28",253,"10.csv","","194","resources/trios/L4T4A1.jpg","39","restless",0.8,0.4,0.4,0.507794173862944,"false"
"image-keyboard-response",327,296678,"0.0-3.105-1.105","u6hhur0mxep0u28",253,"10.csv","","null","resources/maskTrios/BBA1.jpg","null","",NA,NA,NA,NA,""
"image-keyboard-response",328,297880,"0.0-3.105-2.105","u6hhur0mxep0u28",253,"10.csv","","null","resources/images/fishbone.png","null","",NA,NA,NA,NA,""
"image-keyboard-response",329,298271,"0.0-3.106-0.106","u6hhur0mxep0u28",253,"10.csv","","389","resources/trios/L4T4A3.jpg","37","restless",0.8,0.4,0.4,0.307155481489492,"true"
"image-keyboard-response",330,298673,"0.0-3.106-1.106","u6hhur0mxep0u28",253,"10.csv","","null","resources/maskTrios/L4BB.jpg","null","",NA,NA,NA,NA,""
"image-keyboard-response",331,299876,"0.0-3.106-2.106","u6hhur0mxep0u28",253,"10.csv","","null","resources/images/coin2.png","null","",NA,NA,NA,NA,""
"image-keyboard-response",332,300163,"0.0-3.107-0.107","u6hhur0mxep0u28",253,"10.csv","","285","resources/trios/L4T1A3.jpg","37","restless",0.8,0.4,0.4,0.672364831293608,"true"
"image-keyboard-response",333,300566,"0.0-3.107-1.107","u6hhur0mxep0u28",253,"10.csv","","null","resources/maskTrios/L4BB.jpg","null","",NA,NA,NA,NA,""
"image-keyboard-response",334,301768,"0.0-3.107-2.107","u6hhur0mxep0u28",253,"10.csv","","null","resources/images/coin2.png","null","",NA,NA,NA,NA,""
"image-keyboard-response",335,302404,"0.0-3.108-0.108","u6hhur0mxep0u28",253,"10.csv","","635.0000000000582","resources/trios/L2T4A1.jpg","37","restless",0.8,0.4,0.4,0.604958199403235,"true"
"image-keyboard-response",336,302807,"0.0-3.108-1.108","u6hhur0mxep0u28",253,"10.csv","","null","resources/maskTrios/L2BB.jpg","null","",NA,NA,NA,NA,""
"image-keyboard-response",337,304013,"0.0-3.108-2.108","u6hhur0mxep0u28",253,"10.csv","","null","resources/images/coin2.png","null","",NA,NA,NA,NA,""
"image-keyboard-response",338,304115,"0.0-3.109-0.109","u6hhur0mxep0u28",253,"10.csv","","100","resources/trios/L4T1A3.jpg","38","restless",0.8,0.4,0.4,0.395914279264068,"true"
"image-keyboard-response",339,304517,"0.0-3.109-1.109","u6hhur0mxep0u28",253,"10.csv","","null","resources/maskTrios/BT1B.jpg","null","",NA,NA,NA,NA,""
"image-keyboard-response",340,305720,"0.0-3.109-2.109","u6hhur0mxep0u28",253,"10.csv","","null","resources/images/coin2.png","null","",NA,NA,NA,NA,""
"image-keyboard-response",341,306100,"0.0-3.110-0.110","u6hhur0mxep0u28",253,"10.csv","","377","resources/trios/L2T1A3.jpg","37","restless",0.8,0.4,0.4,0.270934808653868,"true"
"image-keyboard-response",342,306504,"0.0-3.110-1.110","u6hhur0mxep0u28",253,"10.csv","","null","resources/maskTrios/L2BB.jpg","null","",NA,NA,NA,NA,""
"image-keyboard-response",343,307708,"0.0-3.110-2.110","u6hhur0mxep0u28",253,"10.csv","","null","resources/images/coin2.png","null","",NA,NA,NA,NA,""
"image-keyboard-response",344,307957,"0.0-3.111-0.111","u6hhur0mxep0u28",253,"10.csv","","247","resources/trios/L2T4A3.jpg","38","restless",0.8,0.4,0.4,0.388936633452755,"true"
"image-keyboard-response",345,308360,"0.0-3.111-1.111","u6hhur0mxep0u28",253,"10.csv","","null","resources/maskTrios/BT4B.jpg","null","",NA,NA,NA,NA,""
"image-keyboard-response",346,309563,"0.0-3.111-2.111","u6hhur0mxep0u28",253,"10.csv","","null","resources/images/coin2.png","null","",NA,NA,NA,NA,""
"image-keyboard-response",347,309830,"0.0-3.112-0.112","u6hhur0mxep0u28",253,"10.csv","","262","resources/trios/L2T4A3.jpg","37","restless",0.8,0.3,0.4,0.783984753122444,"true"
"image-keyboard-response",348,310232,"0.0-3.112-1.112","u6hhur0mxep0u28",253,"10.csv","","null","resources/maskTrios/L2BB.jpg","null","",NA,NA,NA,NA,""
"image-keyboard-response",349,311435,"0.0-3.112-2.112","u6hhur0mxep0u28",253,"10.csv","","null","resources/images/coin2.png","null","",NA,NA,NA,NA,""
"image-keyboard-response",350,311579,"0.0-3.113-0.113","u6hhur0mxep0u28",253,"10.csv","","142","resources/trios/L2T4A1.jpg","38","restless",0.8,0.3,0.4,0.524643638528221,"false"
"image-keyboard-response",351,311982,"0.0-3.113-1.113","u6hhur0mxep0u28",253,"10.csv","","null","resources/maskTrios/BT4B.jpg","null","",NA,NA,NA,NA,""
"image-keyboard-response",352,313184,"0.0-3.113-2.113","u6hhur0mxep0u28",253,"10.csv","","null","resources/images/fishbone.png","null","",NA,NA,NA,NA,""
"image-keyboard-response",353,313363,"0.0-3.114-0.114","u6hhur0mxep0u28",253,"10.csv","","176.0000000000582","resources/trios/L2T1A3.jpg","37","restless",0.8,0.3,0.5,0.790919318962772,"true"
"image-keyboard-response",354,313766,"0.0-3.114-1.114","u6hhur0mxep0u28",253,"10.csv","","null","resources/maskTrios/L2BB.jpg","null","",NA,NA,NA,NA,""
"image-keyboard-response",355,314970,"0.0-3.114-2.114","u6hhur0mxep0u28",253,"10.csv","","null","resources/images/coin2.png","null","",NA,NA,NA,NA,""
"image-keyboard-response",356,315318,"0.0-3.115-0.115","u6hhur0mxep0u28",253,"10.csv","","346","resources/trios/L2T1A1.jpg","39","restless",0.8,0.3,0.5,0.969124224851795,"false"
"image-keyboard-response",357,315721,"0.0-3.115-1.115","u6hhur0mxep0u28",253,"10.csv","","null","resources/maskTrios/BBA1.jpg","null","",NA,NA,NA,NA,""
"image-keyboard-response",358,316923,"0.0-3.115-2.115","u6hhur0mxep0u28",253,"10.csv","","null","resources/images/fishbone.png","null","",NA,NA,NA,NA,""
"image-keyboard-response",359,317267,"0.0-3.116-0.116","u6hhur0mxep0u28",253,"10.csv","","342.0000000000582","resources/trios/L4T1A3.jpg","38","restless",0.8,0.3,0.5,0.581444219129563,"false"
"image-keyboard-response",360,317669,"0.0-3.116-1.116","u6hhur0mxep0u28",253,"10.csv","","null","resources/maskTrios/BT1B.jpg","null","",NA,NA,NA,NA,""
"image-keyboard-response",361,318871,"0.0-3.116-2.116","u6hhur0mxep0u28",253,"10.csv","","null","resources/images/fishbone.png","null","",NA,NA,NA,NA,""
"image-keyboard-response",362,320365,"0.0-3.117-0.117","u6hhur0mxep0u28",253,"10.csv","","1492","resources/trios/L4T1A1.jpg","37","restless",0.9,0.3,0.5,0.191934546984283,"true"
"image-keyboard-response",363,320769,"0.0-3.117-1.117","u6hhur0mxep0u28",253,"10.csv","","null","resources/maskTrios/L4BB.jpg","null","",NA,NA,NA,NA,""
"image-keyboard-response",364,321972,"0.0-3.117-2.117","u6hhur0mxep0u28",253,"10.csv","","null","resources/images/coin2.png","null","",NA,NA,NA,NA,""
"image-keyboard-response",365,322517,"0.0-3.118-0.118","u6hhur0mxep0u28",253,"10.csv","","543.0000000000582","resources/trios/L4T4A1.jpg","37","restless",0.9,0.3,0.5,0.0797639345436605,"true"
"image-keyboard-response",366,322920,"0.0-3.118-1.118","u6hhur0mxep0u28",253,"10.csv","","null","resources/maskTrios/L4BB.jpg","null","",NA,NA,NA,NA,""
"image-keyboard-response",367,324123,"0.0-3.118-2.118","u6hhur0mxep0u28",253,"10.csv","","null","resources/images/coin2.png","null","",NA,NA,NA,NA,""
"image-keyboard-response",368,324403,"0.0-3.119-0.119","u6hhur0mxep0u28",253,"10.csv","","277.9999999999418","resources/trios/L2T4A3.jpg","38","restless",0.9,0.3,0.5,0.376175527980451,"false"
"image-keyboard-response",369,324806,"0.0-3.119-1.119","u6hhur0mxep0u28",253,"10.csv","","null","resources/maskTrios/BT4B.jpg","null","",NA,NA,NA,NA,""
"image-keyboard-response",370,326008,"0.0-3.119-2.119","u6hhur0mxep0u28",253,"10.csv","","null","resources/images/fishbone.png","null","",NA,NA,NA,NA,""
"image-keyboard-response",371,326067,"0.0-3.120-0.120","u6hhur0mxep0u28",253,"10.csv","","56","resources/trios/L2T1A1.jpg","38","restless",0.9,0.3,0.5,0.711323504921213,"false"
"image-keyboard-response",372,326469,"0.0-3.120-1.120","u6hhur0mxep0u28",253,"10.csv","","null","resources/maskTrios/BT1B.jpg","null","",NA,NA,NA,NA,""
"image-keyboard-response",373,327671,"0.0-3.120-2.120","u6hhur0mxep0u28",253,"10.csv","","null","resources/images/fishbone.png","null","",NA,NA,NA,NA,""
"image-keyboard-response",374,327756,"0.0-3.121-0.121","u6hhur0mxep0u28",253,"10.csv","","83","resources/trios/L2T1A3.jpg","38","restless",0.9,0.3,0.5,0.024868716122304,"true"
"image-keyboard-response",375,328159,"0.0-3.121-1.121","u6hhur0mxep0u28",253,"10.csv","","null","resources/maskTrios/BT1B.jpg","null","",NA,NA,NA,NA,""
"image-keyboard-response",376,329361,"0.0-3.121-2.121","u6hhur0mxep0u28",253,"10.csv","","null","resources/images/coin2.png","null","",NA,NA,NA,NA,""
"image-keyboard-response",377,329795,"0.0-3.122-0.122","u6hhur0mxep0u28",253,"10.csv","","431.9999999999418","resources/trios/L2T1A3.jpg","37","restless",0.9,0.3,0.5,0.680890466769946,"true"
"image-keyboard-response",378,330198,"0.0-3.122-1.122","u6hhur0mxep0u28",253,"10.csv","","null","resources/maskTrios/L2BB.jpg","null","",NA,NA,NA,NA,""
"image-keyboard-response",379,331400,"0.0-3.122-2.122","u6hhur0mxep0u28",253,"10.csv","","null","resources/images/coin2.png","null","",NA,NA,NA,NA,""
"image-keyboard-response",380,331642,"0.0-3.123-0.123","u6hhur0mxep0u28",253,"10.csv","","240.0000000000582","resources/trios/L2T4A1.jpg","38","restless",0.9,0.3,0.5,0.174226364045352,"true"
"image-keyboard-response",381,332045,"0.0-3.123-1.123","u6hhur0mxep0u28",253,"10.csv","","null","resources/maskTrios/BT4B.jpg","null","",NA,NA,NA,NA,""
"image-keyboard-response",382,333247,"0.0-3.123-2.123","u6hhur0mxep0u28",253,"10.csv","","null","resources/images/coin2.png","null","",NA,NA,NA,NA,""
"image-keyboard-response",383,334315,"0.0-3.124-0.124","u6hhur0mxep0u28",253,"10.csv","","1065","resources/trios/L2T1A1.jpg","37","restless",0.9,0.4,0.5,0.178799789220675,"true"
"image-keyboard-response",384,334721,"0.0-3.124-1.124","u6hhur0mxep0u28",253,"10.csv","","null","resources/maskTrios/L2BB.jpg","null","",NA,NA,NA,NA,""
"image-keyboard-response",385,335924,"0.0-3.124-2.124","u6hhur0mxep0u28",253,"10.csv","","null","resources/images/coin2.png","null","",NA,NA,NA,NA,""
"image-keyboard-response",386,336118,"0.0-3.125-0.125","u6hhur0mxep0u28",253,"10.csv","","193.0000000000582","resources/trios/L2T4A3.jpg","37","restless",0.9,0.4,0.5,0.608606319024046,"true"
"image-keyboard-response",387,336521,"0.0-3.125-1.125","u6hhur0mxep0u28",253,"10.csv","","null","resources/maskTrios/L2BB.jpg","null","",NA,NA,NA,NA,""
"image-keyboard-response",388,337723,"0.0-3.125-2.125","u6hhur0mxep0u28",253,"10.csv","","null","resources/images/coin2.png","null","",NA,NA,NA,NA,""
"image-keyboard-response",389,338255,"0.0-3.126-0.126","u6hhur0mxep0u28",253,"10.csv","","530.0000000000582","resources/trios/L2T4A3.jpg","38","restless",0.9,0.4,0.5,0.217970454570479,"true"
"image-keyboard-response",390,338658,"0.0-3.126-1.126","u6hhur0mxep0u28",253,"10.csv","","null","resources/maskTrios/BT4B.jpg","null","",NA,NA,NA,NA,""
"image-keyboard-response",391,339860,"0.0-3.126-2.126","u6hhur0mxep0u28",253,"10.csv","","null","resources/images/coin2.png","null","",NA,NA,NA,NA,""
"image-keyboard-response",392,340079,"0.0-3.127-0.127","u6hhur0mxep0u28",253,"10.csv","","214.9999999999418","resources/trios/L4T4A3.jpg","37","restless",0.9,0.4,0.5,0.283328225566771,"true"
"image-keyboard-response",393,340482,"0.0-3.127-1.127","u6hhur0mxep0u28",253,"10.csv","","null","resources/maskTrios/L4BB.jpg","null","",NA,NA,NA,NA,""
"image-keyboard-response",394,341686,"0.0-3.127-2.127","u6hhur0mxep0u28",253,"10.csv","","null","resources/images/coin2.png","null","",NA,NA,NA,NA,""
"image-keyboard-response",395,342007,"0.0-3.128-0.128","u6hhur0mxep0u28",253,"10.csv","","319","resources/trios/L4T1A3.jpg","37","restless",0.9,0.4,0.5,0.656103751159154,"true"
"image-keyboard-response",396,342410,"0.0-3.128-1.128","u6hhur0mxep0u28",253,"10.csv","","null","resources/maskTrios/L4BB.jpg","null","",NA,NA,NA,NA,""
"image-keyboard-response",397,343613,"0.0-3.128-2.128","u6hhur0mxep0u28",253,"10.csv","","null","resources/images/coin2.png","null","",NA,NA,NA,NA,""
"image-keyboard-response",398,345683,"0.0-3.129-0.129","u6hhur0mxep0u28",253,"10.csv","","2068","resources/trios/L4T1A3.jpg","38","restless",0.8,0.4,0.5,0.758761701150222,"false"
"image-keyboard-response",399,346086,"0.0-3.129-1.129","u6hhur0mxep0u28",253,"10.csv","","null","resources/maskTrios/BT1B.jpg","null","",NA,NA,NA,NA,""
"image-keyboard-response",400,347289,"0.0-3.129-2.129","u6hhur0mxep0u28",253,"10.csv","","null","resources/images/fishbone.png","null","",NA,NA,NA,NA,""
"image-keyboard-response",401,348396,"0.0-3.130-0.130","u6hhur0mxep0u28",253,"10.csv","","1104.9999999999418","resources/trios/L4T1A3.jpg","37","restless",0.8,0.5,0.5,0.422655920461457,"true"
"image-keyboard-response",402,348799,"0.0-3.130-1.130","u6hhur0mxep0u28",253,"10.csv","","null","resources/maskTrios/L4BB.jpg","null","",NA,NA,NA,NA,""
"image-keyboard-response",403,350002,"0.0-3.130-2.130","u6hhur0mxep0u28",253,"10.csv","","null","resources/images/coin2.png","null","",NA,NA,NA,NA,""
"image-keyboard-response",404,350313,"0.0-3.131-0.131","u6hhur0mxep0u28",253,"10.csv","","309","resources/trios/L2T4A3.jpg","37","restless",0.8,0.4,0.5,0.825874527369618,"false"
"image-keyboard-response",405,350716,"0.0-3.131-1.131","u6hhur0mxep0u28",253,"10.csv","","null","resources/maskTrios/L2BB.jpg","null","",NA,NA,NA,NA,""
"image-keyboard-response",406,351919,"0.0-3.131-2.131","u6hhur0mxep0u28",253,"10.csv","","null","resources/images/fishbone.png","null","",NA,NA,NA,NA,""
"image-keyboard-response",407,352018,"0.0-3.132-0.132","u6hhur0mxep0u28",253,"10.csv","","97","resources/trios/L4T1A3.jpg","37","restless",0.8,0.4,0.5,0.0636718915502833,"true"
"image-keyboard-response",408,352420,"0.0-3.132-1.132","u6hhur0mxep0u28",253,"10.csv","","null","resources/maskTrios/L4BB.jpg","null","",NA,NA,NA,NA,""
"image-keyboard-response",409,353622,"0.0-3.132-2.132","u6hhur0mxep0u28",253,"10.csv","","null","resources/images/coin2.png","null","",NA,NA,NA,NA,""
"image-keyboard-response",410,353924,"0.0-3.133-0.133","u6hhur0mxep0u28",253,"10.csv","","300","resources/trios/L4T1A3.jpg","38","restless",0.8,0.4,0.5,0.735643438954582,"false"
"image-keyboard-response",411,354326,"0.0-3.133-1.133","u6hhur0mxep0u28",253,"10.csv","","null","resources/maskTrios/BT1B.jpg","null","",NA,NA,NA,NA,""
"image-keyboard-response",412,355529,"0.0-3.133-2.133","u6hhur0mxep0u28",253,"10.csv","","null","resources/images/fishbone.png","null","",NA,NA,NA,NA,""
"image-keyboard-response",413,356190,"0.0-3.134-0.134","u6hhur0mxep0u28",253,"10.csv","","660.0000000000582","resources/trios/L4T4A3.jpg","38","restless",0.8,0.5,0.6,0.893955121799504,"false"
"image-keyboard-response",414,356592,"0.0-3.134-1.134","u6hhur0mxep0u28",253,"10.csv","","null","resources/maskTrios/BT4B.jpg","null","",NA,NA,NA,NA,""
"image-keyboard-response",415,357794,"0.0-3.134-2.134","u6hhur0mxep0u28",253,"10.csv","","null","resources/images/fishbone.png","null","",NA,NA,NA,NA,""
"image-keyboard-response",416,358058,"0.0-3.135-0.135","u6hhur0mxep0u28",253,"10.csv","","262","resources/trios/L2T4A3.jpg","39","restless",0.8,0.5,0.6,0.70639681028338,"false"
"image-keyboard-response",417,358460,"0.0-3.135-1.135","u6hhur0mxep0u28",253,"10.csv","","null","resources/maskTrios/BBA3.jpg","null","",NA,NA,NA,NA,""
"image-keyboard-response",418,359662,"0.0-3.135-2.135","u6hhur0mxep0u28",253,"10.csv","","null","resources/images/fishbone.png","null","",NA,NA,NA,NA,""
"image-keyboard-response",419,359888,"0.0-3.136-0.136","u6hhur0mxep0u28",253,"10.csv","","224","resources/trios/L2T4A1.jpg","37","restless",0.8,0.5,0.6,0.96622699345514,"false"
"image-keyboard-response",420,360290,"0.0-3.136-1.136","u6hhur0mxep0u28",253,"10.csv","","null","resources/maskTrios/L2BB.jpg","null","",NA,NA,NA,NA,""
"image-keyboard-response",421,361493,"0.0-3.136-2.136","u6hhur0mxep0u28",253,"10.csv","","null","resources/images/fishbone.png","null","",NA,NA,NA,NA,""
"image-keyboard-response",422,362814,"0.0-3.137-0.137","u6hhur0mxep0u28",253,"10.csv","","1319","resources/trios/L2T1A3.jpg","38","restless",0.8,0.5,0.6,0.460178786669456,"true"
"image-keyboard-response",423,363216,"0.0-3.137-1.137","u6hhur0mxep0u28",253,"10.csv","","null","resources/maskTrios/BT1B.jpg","null","",NA,NA,NA,NA,""
"image-keyboard-response",424,364419,"0.0-3.137-2.137","u6hhur0mxep0u28",253,"10.csv","","null","resources/images/coin2.png","null","",NA,NA,NA,NA,""
"image-keyboard-response",425,364422,"0.0-3.138-0.138","u6hhur0mxep0u28",253,"10.csv","","1","resources/trios/L2T1A1.jpg","37","restless",0.8,0.5,0.6,0.936887241931944,"false"
"image-keyboard-response",426,364824,"0.0-3.138-1.138","u6hhur0mxep0u28",253,"10.csv","","null","resources/maskTrios/L2BB.jpg","null","",NA,NA,NA,NA,""
"image-keyboard-response",427,366026,"0.0-3.138-2.138","u6hhur0mxep0u28",253,"10.csv","","null","resources/images/fishbone.png","null","",NA,NA,NA,NA,""
"image-keyboard-response",428,366393,"0.0-3.139-0.139","u6hhur0mxep0u28",253,"10.csv","","365","resources/trios/L4T1A3.jpg","37","restless",0.8,0.5,0.6,0.550088967571429,"true"
"image-keyboard-response",429,366796,"0.0-3.139-1.139","u6hhur0mxep0u28",253,"10.csv","","null","resources/maskTrios/L4BB.jpg","null","",NA,NA,NA,NA,""
"image-keyboard-response",430,367998,"0.0-3.139-2.139","u6hhur0mxep0u28",253,"10.csv","","null","resources/images/coin2.png","null","",NA,NA,NA,NA,""
"image-keyboard-response",431,368320,"0.0-3.140-0.140","u6hhur0mxep0u28",253,"10.csv","","319.9999999999418","resources/trios/L4T4A1.jpg","37","restless",0.8,0.5,0.6,0.984651336266519,"false"
"image-keyboard-response",432,368723,"0.0-3.140-1.140","u6hhur0mxep0u28",253,"10.csv","","null","resources/maskTrios/L4BB.jpg","null","",NA,NA,NA,NA,""
"image-keyboard-response",433,369925,"0.0-3.140-2.140","u6hhur0mxep0u28",253,"10.csv","","null","resources/images/fishbone.png","null","",NA,NA,NA,NA,""
"image-keyboard-response",434,370236,"0.0-3.141-0.141","u6hhur0mxep0u28",253,"10.csv","","309","resources/trios/L2T1A3.jpg","38","restless",0.8,0.5,0.6,0.294124674042478,"true"
"image-keyboard-response",435,370639,"0.0-3.141-1.141","u6hhur0mxep0u28",253,"10.csv","","null","resources/maskTrios/BT1B.jpg","null","",NA,NA,NA,NA,""
"image-keyboard-response",436,371841,"0.0-3.141-2.141","u6hhur0mxep0u28",253,"10.csv","","null","resources/images/coin2.png","null","",NA,NA,NA,NA,""
"image-keyboard-response",437,372174,"0.0-3.142-0.142","u6hhur0mxep0u28",253,"10.csv","","332","resources/trios/L2T4A3.jpg","38","restless",0.8,0.5,0.6,0.589898787027457,"false"
"image-keyboard-response",438,372577,"0.0-3.142-1.142","u6hhur0mxep0u28",253,"10.csv","","null","resources/maskTrios/BT4B.jpg","null","",NA,NA,NA,NA,""
"image-keyboard-response",439,373779,"0.0-3.142-2.142","u6hhur0mxep0u28",253,"10.csv","","null","resources/images/fishbone.png","null","",NA,NA,NA,NA,""
"image-keyboard-response",440,374069,"0.0-3.143-0.143","u6hhur0mxep0u28",253,"10.csv","","288","resources/trios/L2T1A1.jpg","38","restless",0.8,0.5,0.6,0.139403909011025,"true"
"image-keyboard-response",441,374472,"0.0-3.143-1.143","u6hhur0mxep0u28",253,"10.csv","","null","resources/maskTrios/BT1B.jpg","null","",NA,NA,NA,NA,""
"image-keyboard-response",442,375674,"0.0-3.143-2.143","u6hhur0mxep0u28",253,"10.csv","","null","resources/images/coin2.png","null","",NA,NA,NA,NA,""
"image-keyboard-response",443,376058,"0.0-3.144-0.144","u6hhur0mxep0u28",253,"10.csv","","382","resources/trios/L2T1A1.jpg","38","restless",0.8,0.5,0.6,0.838258177975143,"false"
"image-keyboard-response",444,376461,"0.0-3.144-1.144","u6hhur0mxep0u28",253,"10.csv","","null","resources/maskTrios/BT1B.jpg","null","",NA,NA,NA,NA,""
"image-keyboard-response",445,377663,"0.0-3.144-2.144","u6hhur0mxep0u28",253,"10.csv","","null","resources/images/fishbone.png","null","",NA,NA,NA,NA,""
"image-keyboard-response",446,377941,"0.0-3.145-0.145","u6hhur0mxep0u28",253,"10.csv","","276","resources/trios/L2T1A3.jpg","38","restless",0.8,0.5,0.6,0.672614054027706,"false"
"image-keyboard-response",447,378343,"0.0-3.145-1.145","u6hhur0mxep0u28",253,"10.csv","","null","resources/maskTrios/BT1B.jpg","null","",NA,NA,NA,NA,""
"image-keyboard-response",448,379546,"0.0-3.145-2.145","u6hhur0mxep0u28",253,"10.csv","","null","resources/images/fishbone.png","null","",NA,NA,NA,NA,""
"image-keyboard-response",449,379851,"0.0-3.146-0.146","u6hhur0mxep0u28",253,"10.csv","","303.0000000000582","resources/trios/L4T4A3.jpg","38","restless",0.8,0.5,0.6,0.213486478881207,"true"
"image-keyboard-response",450,380254,"0.0-3.146-1.146","u6hhur0mxep0u28",253,"10.csv","","null","resources/maskTrios/BT4B.jpg","null","",NA,NA,NA,NA,""
"image-keyboard-response",451,381457,"0.0-3.146-2.146","u6hhur0mxep0u28",253,"10.csv","","null","resources/images/coin2.png","null","",NA,NA,NA,NA,""
"image-keyboard-response",452,382290,"0.0-3.147-0.147","u6hhur0mxep0u28",253,"10.csv","","831","resources/trios/L4T1A3.jpg","38","restless",0.8,0.5,0.6,0.0606389639044386,"true"
"image-keyboard-response",453,382693,"0.0-3.147-1.147","u6hhur0mxep0u28",253,"10.csv","","null","resources/maskTrios/BT1B.jpg","null","",NA,NA,NA,NA,""
"image-keyboard-response",454,383896,"0.0-3.147-2.147","u6hhur0mxep0u28",253,"10.csv","","null","resources/images/coin2.png","null","",NA,NA,NA,NA,""
"image-keyboard-response",455,385591,"0.0-3.148-0.148","u6hhur0mxep0u28",253,"10.csv","","1693","resources/trios/L4T4A3.jpg","39","restless",0.7,0.5,0.6,0.47343627768424,"true"
"image-keyboard-response",456,385994,"0.0-3.148-1.148","u6hhur0mxep0u28",253,"10.csv","","null","resources/maskTrios/BBA3.jpg","null","",NA,NA,NA,NA,""
"image-keyboard-response",457,387196,"0.0-3.148-2.148","u6hhur0mxep0u28",253,"10.csv","","null","resources/images/coin2.png","null","",NA,NA,NA,NA,""
"image-keyboard-response",458,388329,"0.0-3.149-0.149","u6hhur0mxep0u28",253,"10.csv","","1131","resources/trios/L4T1A1.jpg","37","restless",0.6,0.5,0.7,0.362757691500483,"true"
"image-keyboard-response",459,388732,"0.0-3.149-1.149","u6hhur0mxep0u28",253,"10.csv","","null","resources/maskTrios/L4BB.jpg","null","",NA,NA,NA,NA,""
"image-keyboard-response",460,389934,"0.0-3.149-2.149","u6hhur0mxep0u28",253,"10.csv","","null","resources/images/coin2.png","null","",NA,NA,NA,NA,""
"image-keyboard-response",461,390557,"0.0-3.150-0.150","u6hhur0mxep0u28",253,"10.csv","","621","resources/trios/L4T1A1.jpg","37","restless",0.5,0.6,0.8,0.0167398211959666,"true"
"image-keyboard-response",462,390960,"0.0-3.150-1.150","u6hhur0mxep0u28",253,"10.csv","","null","resources/maskTrios/L4BB.jpg","null","",NA,NA,NA,NA,""
"image-keyboard-response",463,392163,"0.0-3.150-2.150","u6hhur0mxep0u28",253,"10.csv","","null","resources/images/coin2.png","null","",NA,NA,NA,NA,""
"image-keyboard-response",464,392544,"0.0-3.151-0.151","u6hhur0mxep0u28",253,"10.csv","","379","resources/trios/L4T1A1.jpg","37","restless",0.4,0.6,0.8,0.0687580497848046,"true"
"image-keyboard-response",465,392947,"0.0-3.151-1.151","u6hhur0mxep0u28",253,"10.csv","","null","resources/maskTrios/L4BB.jpg","null","",NA,NA,NA,NA,""
"image-keyboard-response",466,394150,"0.0-3.151-2.151","u6hhur0mxep0u28",253,"10.csv","","null","resources/images/coin2.png","null","",NA,NA,NA,NA,""
"image-keyboard-response",467,394533,"0.0-3.152-0.152","u6hhur0mxep0u28",253,"10.csv","","381","resources/trios/L2T1A3.jpg","39","restless",0.4,0.6,0.8,0.410149980765785,"true"
"image-keyboard-response",468,394936,"0.0-3.152-1.152","u6hhur0mxep0u28",253,"10.csv","","null","resources/maskTrios/BBA3.jpg","null","",NA,NA,NA,NA,""
"image-keyboard-response",469,396138,"0.0-3.152-2.152","u6hhur0mxep0u28",253,"10.csv","","null","resources/images/coin2.png","null","",NA,NA,NA,NA,""
"image-keyboard-response",470,396584,"0.0-3.153-0.153","u6hhur0mxep0u28",253,"10.csv","","443","resources/trios/L4T1A3.jpg","39","restless",0.4,0.6,0.8,0.340850859293011,"true"
"image-keyboard-response",471,396986,"0.0-3.153-1.153","u6hhur0mxep0u28",253,"10.csv","","null","resources/maskTrios/BBA3.jpg","null","",NA,NA,NA,NA,""
"image-keyboard-response",472,398189,"0.0-3.153-2.153","u6hhur0mxep0u28",253,"10.csv","","null","resources/images/coin2.png","null","",NA,NA,NA,NA,""
"image-keyboard-response",473,398490,"0.0-3.154-0.154","u6hhur0mxep0u28",253,"10.csv","","298","resources/trios/L4T1A3.jpg","38","restless",0.3,0.6,0.8,0.388709416995463,"true"
"image-keyboard-response",474,398893,"0.0-3.154-1.154","u6hhur0mxep0u28",253,"10.csv","","null","resources/maskTrios/BT1B.jpg","null","",NA,NA,NA,NA,""
"image-keyboard-response",475,400095,"0.0-3.154-2.154","u6hhur0mxep0u28",253,"10.csv","","null","resources/images/coin2.png","null","",NA,NA,NA,NA,""
"image-keyboard-response",476,400542,"0.0-3.155-0.155","u6hhur0mxep0u28",253,"10.csv","","444","resources/trios/L4T4A1.jpg","38","restless",0.3,0.6,0.8,0.989365302651028,"false"
"image-keyboard-response",477,400945,"0.0-3.155-1.155","u6hhur0mxep0u28",253,"10.csv","","null","resources/maskTrios/BT4B.jpg","null","",NA,NA,NA,NA,""
"image-keyboard-response",478,402148,"0.0-3.155-2.155","u6hhur0mxep0u28",253,"10.csv","","null","resources/images/fishbone.png","null","",NA,NA,NA,NA,""
"image-keyboard-response",479,403199,"0.0-3.156-0.156","u6hhur0mxep0u28",253,"10.csv","","1049","resources/trios/L2T1A1.jpg","37","restless",0.3,0.6,0.7,0.0621722362325713,"true"
"image-keyboard-response",480,403602,"0.0-3.156-1.156","u6hhur0mxep0u28",253,"10.csv","","null","resources/maskTrios/L2BB.jpg","null","",NA,NA,NA,NA,""
"image-keyboard-response",481,404805,"0.0-3.156-2.156","u6hhur0mxep0u28",253,"10.csv","","null","resources/images/coin2.png","null","",NA,NA,NA,NA,""
"image-keyboard-response",482,407550,"0.0-3.157-0.157","u6hhur0mxep0u28",253,"10.csv","","2743","resources/trios/L2T1A1.jpg","37","restless",0.3,0.6,0.7,0.167729303471332,"true"
"image-keyboard-response",483,407953,"0.0-3.157-1.157","u6hhur0mxep0u28",253,"10.csv","","null","resources/maskTrios/L2BB.jpg","null","",NA,NA,NA,NA,""
"image-keyboard-response",484,409156,"0.0-3.157-2.157","u6hhur0mxep0u28",253,"10.csv","","null","resources/images/coin2.png","null","",NA,NA,NA,NA,""
"image-keyboard-response",485,414130,"0.0-3.158-0.158","u6hhur0mxep0u28",253,"10.csv","","4972.000000000058","resources/trios/L2T1A3.jpg","37","restless",0.3,0.6,0.7,0.882362402539349,"false"
"image-keyboard-response",486,414534,"0.0-3.158-1.158","u6hhur0mxep0u28",253,"10.csv","","null","resources/maskTrios/L2BB.jpg","null","",NA,NA,NA,NA,""
"image-keyboard-response",487,415736,"0.0-3.158-2.158","u6hhur0mxep0u28",253,"10.csv","","null","resources/images/fishbone.png","null","",NA,NA,NA,NA,""
"image-keyboard-response",488,416239,"0.0-3.159-0.159","u6hhur0mxep0u28",253,"10.csv","","500","resources/trios/L4T1A3.jpg","38","restless",0.3,0.6,0.7,0.0908674739056665,"true"
"image-keyboard-response",489,416642,"0.0-3.159-1.159","u6hhur0mxep0u28",253,"10.csv","","null","resources/maskTrios/BT1B.jpg","null","",NA,NA,NA,NA,""
"image-keyboard-response",490,417845,"0.0-3.159-2.159","u6hhur0mxep0u28",253,"10.csv","","null","resources/images/coin2.png","null","",NA,NA,NA,NA,""
"image-keyboard-response",491,418919,"0.0-3.160-0.160","u6hhur0mxep0u28",253,"10.csv","","1072","resources/trios/L2T4A1.jpg","38","restless",0.3,0.7,0.7,0.773878852103923,"false"
"image-keyboard-response",492,419325,"0.0-3.160-1.160","u6hhur0mxep0u28",253,"10.csv","","null","resources/maskTrios/BT4B.jpg","null","",NA,NA,NA,NA,""
"image-keyboard-response",493,420528,"0.0-3.160-2.160","u6hhur0mxep0u28",253,"10.csv","","null","resources/images/fishbone.png","null","",NA,NA,NA,NA,""
"image-keyboard-response",494,422203,"0.0-3.161-0.161","u6hhur0mxep0u28",253,"10.csv","","1672","resources/trios/L2T1A1.jpg","38","restless",0.3,0.7,0.7,0.433463002190538,"true"
"image-keyboard-response",495,422607,"0.0-3.161-1.161","u6hhur0mxep0u28",253,"10.csv","","null","resources/maskTrios/BT1B.jpg","null","",NA,NA,NA,NA,""
"image-keyboard-response",496,423810,"0.0-3.161-2.161","u6hhur0mxep0u28",253,"10.csv","","null","resources/images/coin2.png","null","",NA,NA,NA,NA,""
"image-keyboard-response",497,424571,"0.0-3.162-0.162","u6hhur0mxep0u28",253,"10.csv","","759","resources/trios/L4T4A1.jpg","37","restless",0.3,0.7,0.7,0.924121104054949,"false"
"image-keyboard-response",498,424974,"0.0-3.162-1.162","u6hhur0mxep0u28",253,"10.csv","","null","resources/maskTrios/L4BB.jpg","null","",NA,NA,NA,NA,""
"image-keyboard-response",499,426177,"0.0-3.162-2.162","u6hhur0mxep0u28",253,"10.csv","","null","resources/images/fishbone.png","null","",NA,NA,NA,NA,""
"image-keyboard-response",500,428374,"0.0-3.163-0.163","u6hhur0mxep0u28",253,"10.csv","","2195","resources/trios/L4T4A1.jpg","37","restless",0.3,0.7,0.7,0.765064769525717,"false"
"image-keyboard-response",501,428777,"0.0-3.163-1.163","u6hhur0mxep0u28",253,"10.csv","","null","resources/maskTrios/L4BB.jpg","null","",NA,NA,NA,NA,""
"image-keyboard-response",502,429979,"0.0-3.163-2.163","u6hhur0mxep0u28",253,"10.csv","","null","resources/images/fishbone.png","null","",NA,NA,NA,NA,""
"image-keyboard-response",503,431543,"0.0-3.164-0.164","u6hhur0mxep0u28",253,"10.csv","","1559","resources/trios/L4T1A1.jpg","39","restless",0.3,0.7,0.7,0.173856503930481,"true"
"image-keyboard-response",504,431946,"0.0-3.164-1.164","u6hhur0mxep0u28",253,"10.csv","","null","resources/maskTrios/BBA1.jpg","null","",NA,NA,NA,NA,""
"image-keyboard-response",505,433149,"0.0-3.164-2.164","u6hhur0mxep0u28",253,"10.csv","","null","resources/images/coin2.png","null","",NA,NA,NA,NA,""
"image-keyboard-response",506,434629,"0.0-3.165-0.165","u6hhur0mxep0u28",253,"10.csv","","1478","resources/trios/L2T1A3.jpg","38","restless",0.3,0.8,0.7,0.649018021635105,"true"
"image-keyboard-response",507,435033,"0.0-3.165-1.165","u6hhur0mxep0u28",253,"10.csv","","null","resources/maskTrios/BT1B.jpg","null","",NA,NA,NA,NA,""
"image-keyboard-response",508,436235,"0.0-3.165-2.165","u6hhur0mxep0u28",253,"10.csv","","null","resources/images/coin2.png","null","",NA,NA,NA,NA,""
"image-keyboard-response",509,436835,"0.0-3.166-0.166","u6hhur0mxep0u28",253,"10.csv","","598","resources/trios/L4T1A1.jpg","37","restless",0.3,0.8,0.7,0.121627093039662,"true"
"image-keyboard-response",510,437237,"0.0-3.166-1.166","u6hhur0mxep0u28",253,"10.csv","","null","resources/maskTrios/L4BB.jpg","null","",NA,NA,NA,NA,""
"image-keyboard-response",511,438440,"0.0-3.166-2.166","u6hhur0mxep0u28",253,"10.csv","","null","resources/images/coin2.png","null","",NA,NA,NA,NA,""
"image-keyboard-response",512,440358,"0.0-3.167-0.167","u6hhur0mxep0u28",253,"10.csv","","1916","resources/trios/L2T4A3.jpg","37","restless",0.3,0.8,0.7,0.415712182804106,"false"
"image-keyboard-response",513,440762,"0.0-3.167-1.167","u6hhur0mxep0u28",253,"10.csv","","null","resources/maskTrios/L2BB.jpg","null","",NA,NA,NA,NA,""
"image-keyboard-response",514,441965,"0.0-3.167-2.167","u6hhur0mxep0u28",253,"10.csv","","null","resources/images/fishbone.png","null","",NA,NA,NA,NA,""
"image-keyboard-response",515,442287,"0.0-3.168-0.168","u6hhur0mxep0u28",253,"10.csv","","319","resources/trios/L2T1A1.jpg","37","restless",0.3,0.8,0.7,0.181969779761352,"true"
"image-keyboard-response",516,442691,"0.0-3.168-1.168","u6hhur0mxep0u28",253,"10.csv","","null","resources/maskTrios/L2BB.jpg","null","",NA,NA,NA,NA,""
"image-keyboard-response",517,443894,"0.0-3.168-2.168","u6hhur0mxep0u28",253,"10.csv","","null","resources/images/coin2.png","null","",NA,NA,NA,NA,""
"image-keyboard-response",518,444185,"0.0-3.169-0.169","u6hhur0mxep0u28",253,"10.csv","","289.0000000000582","resources/trios/L2T4A3.jpg","37","restless",0.3,0.8,0.6,0.169510104408471,"true"
"image-keyboard-response",519,444588,"0.0-3.169-1.169","u6hhur0mxep0u28",253,"10.csv","","null","resources/maskTrios/L2BB.jpg","null","",NA,NA,NA,NA,""
"image-keyboard-response",520,445790,"0.0-3.169-2.169","u6hhur0mxep0u28",253,"10.csv","","null","resources/images/coin2.png","null","",NA,NA,NA,NA,""
"image-keyboard-response",521,446568,"0.0-3.170-0.170","u6hhur0mxep0u28",253,"10.csv","","775","resources/trios/L2T4A3.jpg","37","restless",0.3,0.8,0.5,0.0704488813872007,"true"
"image-keyboard-response",522,446971,"0.0-3.170-1.170","u6hhur0mxep0u28",253,"10.csv","","null","resources/maskTrios/L2BB.jpg","null","",NA,NA,NA,NA,""
"image-keyboard-response",523,448174,"0.0-3.170-2.170","u6hhur0mxep0u28",253,"10.csv","","null","resources/images/coin2.png","null","",NA,NA,NA,NA,""
"image-keyboard-response",524,448449,"0.0-3.171-0.171","u6hhur0mxep0u28",253,"10.csv","","273","resources/trios/L4T4A1.jpg","37","restless",0.3,0.8,0.5,0.11237914568712,"true"
"image-keyboard-response",525,448852,"0.0-3.171-1.171","u6hhur0mxep0u28",253,"10.csv","","null","resources/maskTrios/L4BB.jpg","null","",NA,NA,NA,NA,""
"image-keyboard-response",526,450055,"0.0-3.171-2.171","u6hhur0mxep0u28",253,"10.csv","","null","resources/images/coin2.png","null","",NA,NA,NA,NA,""
"image-keyboard-response",527,450091,"0.0-3.172-0.172","u6hhur0mxep0u28",253,"10.csv","","34","resources/trios/L2T4A1.jpg","37","restless",0.3,0.8,0.5,0.199612625478391,"true"
"image-keyboard-response",528,450493,"0.0-3.172-1.172","u6hhur0mxep0u28",253,"10.csv","","null","resources/maskTrios/L2BB.jpg","null","",NA,NA,NA,NA,""
"image-keyboard-response",529,451695,"0.0-3.172-2.172","u6hhur0mxep0u28",253,"10.csv","","null","resources/images/coin2.png","null","",NA,NA,NA,NA,""
"image-keyboard-response",530,452068,"0.0-3.173-0.173","u6hhur0mxep0u28",253,"10.csv","","370.9999999999418","resources/trios/L4T4A3.jpg","37","restless",0.3,0.8,0.5,0.777321318653465,"false"
"image-keyboard-response",531,452471,"0.0-3.173-1.173","u6hhur0mxep0u28",253,"10.csv","","null","resources/maskTrios/L4BB.jpg","null","",NA,NA,NA,NA,""
"image-keyboard-response",532,453673,"0.0-3.173-2.173","u6hhur0mxep0u28",253,"10.csv","","null","resources/images/fishbone.png","null","",NA,NA,NA,NA,""
"image-keyboard-response",533,454017,"0.0-3.174-0.174","u6hhur0mxep0u28",253,"10.csv","","342.0000000000582","resources/trios/L2T1A1.jpg","37","restless",0.3,0.8,0.5,0.342463184131519,"false"
"image-keyboard-response",534,454419,"0.0-3.174-1.174","u6hhur0mxep0u28",253,"10.csv","","null","resources/maskTrios/L2BB.jpg","null","",NA,NA,NA,NA,""
"image-keyboard-response",535,455621,"0.0-3.174-2.174","u6hhur0mxep0u28",253,"10.csv","","null","resources/images/fishbone.png","null","",NA,NA,NA,NA,""
"image-keyboard-response",536,455862,"0.0-3.175-0.175","u6hhur0mxep0u28",253,"10.csv","","236.9999999999418","resources/trios/L4T1A1.jpg","39","restless",0.3,0.8,0.5,0.554879043171243,"false"
"image-keyboard-response",537,456265,"0.0-3.175-1.175","u6hhur0mxep0u28",253,"10.csv","","null","resources/maskTrios/BBA1.jpg","null","",NA,NA,NA,NA,""
"image-keyboard-response",538,457467,"0.0-3.175-2.175","u6hhur0mxep0u28",253,"10.csv","","null","resources/images/fishbone.png","null","",NA,NA,NA,NA,""
"image-keyboard-response",539,457749,"0.0-3.176-0.176","u6hhur0mxep0u28",253,"10.csv","","280","resources/trios/L2T4A3.jpg","39","restless",0.3,0.8,0.5,0.486867269988486,"true"
"image-keyboard-response",540,458151,"0.0-3.176-1.176","u6hhur0mxep0u28",253,"10.csv","","null","resources/maskTrios/BBA3.jpg","null","",NA,NA,NA,NA,""
"image-keyboard-response",541,459354,"0.0-3.176-2.176","u6hhur0mxep0u28",253,"10.csv","","null","resources/images/coin2.png","null","",NA,NA,NA,NA,""
"image-keyboard-response",542,460425,"0.0-3.177-0.177","u6hhur0mxep0u28",253,"10.csv","","1068","resources/trios/L4T4A1.jpg","37","restless",0.4,0.8,0.5,0.554229618840666,"false"
"image-keyboard-response",543,460829,"0.0-3.177-1.177","u6hhur0mxep0u28",253,"10.csv","","null","resources/maskTrios/L4BB.jpg","null","",NA,NA,NA,NA,""
"image-keyboard-response",544,462031,"0.0-3.177-2.177","u6hhur0mxep0u28",253,"10.csv","","null","resources/images/fishbone.png","null","",NA,NA,NA,NA,""
"image-keyboard-response",545,462528,"0.0-3.178-0.178","u6hhur0mxep0u28",253,"10.csv","","494","resources/trios/L4T1A3.jpg","38","restless",0.4,0.8,0.5,0.316596169794827,"true"
"image-keyboard-response",546,462931,"0.0-3.178-1.178","u6hhur0mxep0u28",253,"10.csv","","null","resources/maskTrios/BT1B.jpg","null","",NA,NA,NA,NA,""
"image-keyboard-response",547,464134,"0.0-3.178-2.178","u6hhur0mxep0u28",253,"10.csv","","null","resources/images/coin2.png","null","",NA,NA,NA,NA,""
"image-keyboard-response",548,465023,"0.0-3.179-0.179","u6hhur0mxep0u28",253,"10.csv","","887","resources/trios/L4T1A1.jpg","39","restless",0.4,0.8,0.5,0.27151223733256,"true"
"image-keyboard-response",549,465426,"0.0-3.179-1.179","u6hhur0mxep0u28",253,"10.csv","","null","resources/maskTrios/BBA1.jpg","null","",NA,NA,NA,NA,""
"image-keyboard-response",550,466629,"0.0-3.179-2.179","u6hhur0mxep0u28",253,"10.csv","","null","resources/images/coin2.png","null","",NA,NA,NA,NA,""
"image-keyboard-response",551,467016,"0.0-3.180-0.180","u6hhur0mxep0u28",253,"10.csv","","385","resources/trios/L2T4A3.jpg","39","restless",0.4,0.8,0.5,0.336807695137828,"true"
"image-keyboard-response",552,467421,"0.0-3.180-1.180","u6hhur0mxep0u28",253,"10.csv","","null","resources/maskTrios/BBA3.jpg","null","",NA,NA,NA,NA,""
"image-keyboard-response",553,468623,"0.0-3.180-2.180","u6hhur0mxep0u28",253,"10.csv","","null","resources/images/coin2.png","null","",NA,NA,NA,NA,""
"image-keyboard-response",554,468967,"0.0-3.181-0.181","u6hhur0mxep0u28",253,"10.csv","","341.9999999999418","resources/trios/L4T4A3.jpg","37","restless",0.4,0.7,0.5,0.575987489608718,"false"
"image-keyboard-response",555,469369,"0.0-3.181-1.181","u6hhur0mxep0u28",253,"10.csv","","null","resources/maskTrios/L4BB.jpg","null","",NA,NA,NA,NA,""
"image-keyboard-response",556,470572,"0.0-3.181-2.181","u6hhur0mxep0u28",253,"10.csv","","null","resources/images/fishbone.png","null","",NA,NA,NA,NA,""
"image-keyboard-response",557,471034,"0.0-3.182-0.182","u6hhur0mxep0u28",253,"10.csv","","460","resources/trios/L4T4A3.jpg","37","restless",0.4,0.7,0.5,0.44560080837659,"false"
"image-keyboard-response",558,471436,"0.0-3.182-1.182","u6hhur0mxep0u28",253,"10.csv","","null","resources/maskTrios/L4BB.jpg","null","",NA,NA,NA,NA,""
"image-keyboard-response",559,472638,"0.0-3.182-2.182","u6hhur0mxep0u28",253,"10.csv","","null","resources/images/fishbone.png","null","",NA,NA,NA,NA,""
"image-keyboard-response",560,473059,"0.0-3.183-0.183","u6hhur0mxep0u28",253,"10.csv","","419","resources/trios/L4T4A3.jpg","38","restless",0.4,0.7,0.5,0.324376414044269,"true"
"image-keyboard-response",561,473462,"0.0-3.183-1.183","u6hhur0mxep0u28",253,"10.csv","","null","resources/maskTrios/BT4B.jpg","null","",NA,NA,NA,NA,""
"image-keyboard-response",562,474664,"0.0-3.183-2.183","u6hhur0mxep0u28",253,"10.csv","","null","resources/images/coin2.png","null","",NA,NA,NA,NA,""
"image-keyboard-response",563,475035,"0.0-3.184-0.184","u6hhur0mxep0u28",253,"10.csv","","368.9999999999418","resources/trios/L4T1A1.jpg","38","restless",0.4,0.7,0.5,0.610208752150068,"true"
"image-keyboard-response",564,475437,"0.0-3.184-1.184","u6hhur0mxep0u28",253,"10.csv","","null","resources/maskTrios/BT1B.jpg","null","",NA,NA,NA,NA,""
"image-keyboard-response",565,476642,"0.0-3.184-2.184","u6hhur0mxep0u28",253,"10.csv","","null","resources/images/coin2.png","null","",NA,NA,NA,NA,""
"image-keyboard-response",566,477541,"0.0-3.185-0.185","u6hhur0mxep0u28",253,"10.csv","","897.0000000000582","resources/trios/L2T1A1.jpg","37","restless",0.4,0.7,0.5,0.324807535676459,"true"
"image-keyboard-response",567,477944,"0.0-3.185-1.185","u6hhur0mxep0u28",253,"10.csv","","null","resources/maskTrios/L2BB.jpg","null","",NA,NA,NA,NA,""
"image-keyboard-response",568,479147,"0.0-3.185-2.185","u6hhur0mxep0u28",253,"10.csv","","null","resources/images/coin2.png","null","",NA,NA,NA,NA,""
"image-keyboard-response",569,479463,"0.0-3.186-0.186","u6hhur0mxep0u28",253,"10.csv","","313.9999999999418","resources/trios/L4T4A1.jpg","38","restless",0.4,0.7,0.5,0.789422149235657,"false"
"image-keyboard-response",570,479866,"0.0-3.186-1.186","u6hhur0mxep0u28",253,"10.csv","","null","resources/maskTrios/BT4B.jpg","null","",NA,NA,NA,NA,""
"image-keyboard-response",571,481069,"0.0-3.186-2.186","u6hhur0mxep0u28",253,"10.csv","","null","resources/images/fishbone.png","null","",NA,NA,NA,NA,""
"image-keyboard-response",572,481552,"0.0-3.187-0.187","u6hhur0mxep0u28",253,"10.csv","","480","resources/trios/L4T1A1.jpg","39","restless",0.4,0.7,0.5,0.670370197203745,"false"
"image-keyboard-response",573,481954,"0.0-3.187-1.187","u6hhur0mxep0u28",253,"10.csv","","null","resources/maskTrios/BBA1.jpg","null","",NA,NA,NA,NA,""
"image-keyboard-response",574,483157,"0.0-3.187-2.187","u6hhur0mxep0u28",253,"10.csv","","null","resources/images/fishbone.png","null","",NA,NA,NA,NA,""
"image-keyboard-response",575,483529,"0.0-3.188-0.188","u6hhur0mxep0u28",253,"10.csv","","370.0000000000582","resources/trios/L2T4A3.jpg","38","restless",0.4,0.6,0.5,0.828519531331488,"false"
"image-keyboard-response",576,483932,"0.0-3.188-1.188","u6hhur0mxep0u28",253,"10.csv","","null","resources/maskTrios/BT4B.jpg","null","",NA,NA,NA,NA,""
"image-keyboard-response",577,485134,"0.0-3.188-2.188","u6hhur0mxep0u28",253,"10.csv","","null","resources/images/fishbone.png","null","",NA,NA,NA,NA,""
"image-keyboard-response",578,485544,"0.0-3.189-0.189","u6hhur0mxep0u28",253,"10.csv","","408","resources/trios/L2T4A1.jpg","38","restless",0.5,0.7,0.6,0.298743147598071,"true"
"image-keyboard-response",579,485949,"0.0-3.189-1.189","u6hhur0mxep0u28",253,"10.csv","","null","resources/maskTrios/BT4B.jpg","null","",NA,NA,NA,NA,""
"image-keyboard-response",580,487152,"0.0-3.189-2.189","u6hhur0mxep0u28",253,"10.csv","","null","resources/images/coin2.png","null","",NA,NA,NA,NA,""
"image-keyboard-response",581,487222,"0.0-3.190-0.190","u6hhur0mxep0u28",253,"10.csv","","67.99999999994179","resources/trios/L4T4A3.jpg","37","restless",0.5,0.7,0.6,0.97932150017758,"false"
"image-keyboard-response",582,487624,"0.0-3.190-1.190","u6hhur0mxep0u28",253,"10.csv","","null","resources/maskTrios/L4BB.jpg","null","",NA,NA,NA,NA,""
"image-keyboard-response",583,488826,"0.0-3.190-2.190","u6hhur0mxep0u28",253,"10.csv","","null","resources/images/fishbone.png","null","",NA,NA,NA,NA,""
"image-keyboard-response",584,489086,"0.0-3.191-0.191","u6hhur0mxep0u28",253,"10.csv","","258.9999999999418","resources/trios/L4T4A1.jpg","39","restless",0.5,0.7,0.6,0.718931682777888,"false"
"image-keyboard-response",585,489489,"0.0-3.191-1.191","u6hhur0mxep0u28",253,"10.csv","","null","resources/maskTrios/BBA1.jpg","null","",NA,NA,NA,NA,""
"image-keyboard-response",586,490691,"0.0-3.191-2.191","u6hhur0mxep0u28",253,"10.csv","","null","resources/images/fishbone.png","null","",NA,NA,NA,NA,""
"image-keyboard-response",587,491026,"0.0-3.192-0.192","u6hhur0mxep0u28",253,"10.csv","","334","resources/trios/L2T4A3.jpg","37","restless",0.4,0.7,0.6,0.227918428038269,"true"
"image-keyboard-response",588,491429,"0.0-3.192-1.192","u6hhur0mxep0u28",253,"10.csv","","null","resources/maskTrios/L2BB.jpg","null","",NA,NA,NA,NA,""
"image-keyboard-response",589,492631,"0.0-3.192-2.192","u6hhur0mxep0u28",253,"10.csv","","null","resources/images/coin2.png","null","",NA,NA,NA,NA,""
"image-keyboard-response",590,492986,"0.0-3.193-0.193","u6hhur0mxep0u28",253,"10.csv","","353","resources/trios/L2T4A1.jpg","38","restless",0.4,0.7,0.6,0.186008461001203,"true"
"image-keyboard-response",591,493388,"0.0-3.193-1.193","u6hhur0mxep0u28",253,"10.csv","","null","resources/maskTrios/BT4B.jpg","null","",NA,NA,NA,NA,""
"image-keyboard-response",592,494593,"0.0-3.193-2.193","u6hhur0mxep0u28",253,"10.csv","","null","resources/images/coin2.png","null","",NA,NA,NA,NA,""
"image-keyboard-response",593,494860,"0.0-3.194-0.194","u6hhur0mxep0u28",253,"10.csv","","265","resources/trios/L4T4A1.jpg","39","restless",0.4,0.7,0.6,0.206099211880048,"true"
"image-keyboard-response",594,495264,"0.0-3.194-1.194","u6hhur0mxep0u28",253,"10.csv","","null","resources/maskTrios/BBA1.jpg","null","",NA,NA,NA,NA,""
"image-keyboard-response",595,496467,"0.0-3.194-2.194","u6hhur0mxep0u28",253,"10.csv","","null","resources/images/coin2.png","null","",NA,NA,NA,NA,""
"image-keyboard-response",596,496732,"0.0-3.195-0.195","u6hhur0mxep0u28",253,"10.csv","","262.0000000000582","resources/trios/L2T1A1.jpg","38","restless",0.4,0.7,0.6,0.204670212474875,"true"
"image-keyboard-response",597,497134,"0.0-3.195-1.195","u6hhur0mxep0u28",253,"10.csv","","null","resources/maskTrios/BT1B.jpg","null","",NA,NA,NA,NA,""
"image-keyboard-response",598,498337,"0.0-3.195-2.195","u6hhur0mxep0u28",253,"10.csv","","null","resources/images/coin2.png","null","",NA,NA,NA,NA,""
"image-keyboard-response",599,498594,"0.0-3.196-0.196","u6hhur0mxep0u28",253,"10.csv","","254.9999999999418","resources/trios/L4T1A3.jpg","37","restless",0.5,0.7,0.6,0.370618087046877,"true"
"image-keyboard-response",600,498997,"0.0-3.196-1.196","u6hhur0mxep0u28",253,"10.csv","","null","resources/maskTrios/L4BB.jpg","null","",NA,NA,NA,NA,""
"image-keyboard-response",601,500200,"0.0-3.196-2.196","u6hhur0mxep0u28",253,"10.csv","","null","resources/images/coin2.png","null","",NA,NA,NA,NA,""
"image-keyboard-response",602,500497,"0.0-3.197-0.197","u6hhur0mxep0u28",253,"10.csv","","292","resources/trios/L4T1A1.jpg","39","restless",0.4,0.7,0.6,0.0906708090904704,"true"
"image-keyboard-response",603,500900,"0.0-3.197-1.197","u6hhur0mxep0u28",253,"10.csv","","null","resources/maskTrios/BBA1.jpg","null","",NA,NA,NA,NA,""
"image-keyboard-response",604,502102,"0.0-3.197-2.197","u6hhur0mxep0u28",253,"10.csv","","null","resources/images/coin2.png","null","",NA,NA,NA,NA,""
"image-keyboard-response",605,502343,"0.0-3.198-0.198","u6hhur0mxep0u28",253,"10.csv","","238","resources/trios/L4T1A3.jpg","38","restless",0.4,0.7,0.6,0.072655521355008,"true"
"image-keyboard-response",606,502747,"0.0-3.198-1.198","u6hhur0mxep0u28",253,"10.csv","","null","resources/maskTrios/BT1B.jpg","null","",NA,NA,NA,NA,""
"image-keyboard-response",607,503950,"0.0-3.198-2.198","u6hhur0mxep0u28",253,"10.csv","","null","resources/images/coin2.png","null","",NA,NA,NA,NA,""
"image-keyboard-response",608,504228,"0.0-3.199-0.199","u6hhur0mxep0u28",253,"10.csv","","275.9999999999418","resources/trios/L2T1A3.jpg","37","restless",0.4,0.7,0.6,0.389011794084437,"true"
"image-keyboard-response",609,504630,"0.0-3.199-1.199","u6hhur0mxep0u28",253,"10.csv","","null","resources/maskTrios/L2BB.jpg","null","",NA,NA,NA,NA,""
"image-keyboard-response",610,505833,"0.0-3.199-2.199","u6hhur0mxep0u28",253,"10.csv","","null","resources/images/coin2.png","null","",NA,NA,NA,NA,""
"image-keyboard-response",611,506125,"0.0-3.200-0.200","u6hhur0mxep0u28",253,"10.csv","","290.0000000000582","resources/trios/L2T4A3.jpg","39","restless",0.4,0.7,0.6,0.647593728254277,"false"
"image-keyboard-response",612,506528,"0.0-3.200-1.200","u6hhur0mxep0u28",253,"10.csv","","null","resources/maskTrios/BBA3.jpg","null","",NA,NA,NA,NA,""
"image-keyboard-response",613,507730,"0.0-3.200-2.200","u6hhur0mxep0u28",253,"10.csv","","null","resources/images/fishbone.png","null","",NA,NA,NA,NA,""
"image-keyboard-response",614,508115,"0.0-3.201-0.201","u6hhur0mxep0u28",253,"10.csv","","382.9999999999418","resources/trios/L4T1A1.jpg","38","restless",0.4,0.7,0.6,0.432672248060104,"true"
"image-keyboard-response",615,508518,"0.0-3.201-1.201","u6hhur0mxep0u28",253,"10.csv","","null","resources/maskTrios/BT1B.jpg","null","",NA,NA,NA,NA,""
"image-keyboard-response",616,509721,"0.0-3.201-2.201","u6hhur0mxep0u28",253,"10.csv","","null","resources/images/coin2.png","null","",NA,NA,NA,NA,""
"image-keyboard-response",617,510081,"0.0-3.202-0.202","u6hhur0mxep0u28",253,"10.csv","","357.9999999999418","resources/trios/L4T1A3.jpg","37","restless",0.4,0.7,0.6,0.755217648975954,"false"
"image-keyboard-response",618,510484,"0.0-3.202-1.202","u6hhur0mxep0u28",253,"10.csv","","null","resources/maskTrios/L4BB.jpg","null","",NA,NA,NA,NA,""
"image-keyboard-response",619,511686,"0.0-3.202-2.202","u6hhur0mxep0u28",253,"10.csv","","null","resources/images/fishbone.png","null","",NA,NA,NA,NA,""
