"trial_type","trial_index","time_elapsed","internal_node_id","subject","participantCode","walkNumber","success","rt","stimulus","key_press","test_part","leftProb","midProb","rightProb","generatedNum","correct"
"pavlovia",0,1606,"0.0-0.0","ayp6u7sqsp63v1g",359,"9.csv","","","","","",NA,NA,NA,NA,""
"fullscreen",1,7244,"0.0-1.0","ayp6u7sqsp63v1g",359,"9.csv","true","","","","",NA,NA,NA,NA,""
"html-keyboard-response",2,28088,"0.0-2.0-0.0","ayp6u7sqsp63v1g",359,"9.csv","","20842.299999952316","<p><font size='6'>Arrrgh!</p></font><p>Can you be the best pirate? Try to find lots of gold! But beware, some islands have more gold than others, and over time, the island with the most gold may change. Can YOU figure it out? </p><font size='6'>GOOD LUCK, CAPTAIN!!!</font><p>Press any key to begin</p>","32","",NA,NA,NA,NA,""
"image-keyboard-response",3,31111,"0.0-2.0-1.0","ayp6u7sqsp63v1g",359,"9.csv","","null","resources/image_sets/111.png","null","",NA,NA,NA,NA,""
"image-keyboard-response",4,58952,"0.0-2.0-2.0","ayp6u7sqsp63v1g",359,"9.csv","","27835.5","resources/image_sets/left_highlight.png","37","",NA,NA,NA,NA,""
"image-keyboard-response",5,69917,"0.0-2.0-3.0","ayp6u7sqsp63v1g",359,"9.csv","","10963.5","resources/image_sets/mid_highlight.png","38","",NA,NA,NA,NA,""
"image-keyboard-response",6,79874,"0.0-2.0-4.0","ayp6u7sqsp63v1g",359,"9.csv","","9955.700000047684","resources/image_sets/right_highlight.png","39","",NA,NA,NA,NA,""
"image-keyboard-response",7,96959,"0.0-2.0-5.0","ayp6u7sqsp63v1g",359,"9.csv","","17083.700000047684","resources/image_sets/111.png","13","",NA,NA,NA,NA,""
"image-keyboard-response",8,101168,"0.0-2.0-6.0","ayp6u7sqsp63v1g",359,"9.csv","","4207.200000047684","resources/images/coin2.png","13","",NA,NA,NA,NA,""
"image-keyboard-response",9,103947,"0.0-2.0-7.0","ayp6u7sqsp63v1g",359,"9.csv","","2778.2000000476837","resources/images/fishbone.png","13","",NA,NA,NA,NA,""
"html-keyboard-response",10,114561,"0.0-2.0-8.0","ayp6u7sqsp63v1g",359,"9.csv","","10612.800000190735","<p>Your first journey will be a long one, but you will get a well deserved break at the end</p><p>After the break you will have four more journeys, but each will be much shorter than the first, and you will have breaks in between each</p><p>Press Enter to begin</p>","13","",NA,NA,NA,NA,""
"image-keyboard-response",11,125876,"0.0-3.0-0.0","ayp6u7sqsp63v1g",359,"9.csv","","11315.5","resources/trios/L4T4A3.jpg","39","restless",0.7,0.9,0.3,0.353821103352273,"false"
"image-keyboard-response",12,126288,"0.0-3.0-1.0","ayp6u7sqsp63v1g",359,"9.csv","","null","resources/maskTrios/BBA3.jpg","null","",NA,NA,NA,NA,""
"image-keyboard-response",13,127498,"0.0-3.0-2.0","ayp6u7sqsp63v1g",359,"9.csv","","null","resources/images/fishbone.png","null","",NA,NA,NA,NA,""
"image-keyboard-response",14,132447,"0.0-3.1-0.1","ayp6u7sqsp63v1g",359,"9.csv","","4946.200000047684","resources/trios/L1T4A1.jpg","37","restless",0.7,0.9,0.3,0.441801107147245,"true"
"image-keyboard-response",15,132864,"0.0-3.1-1.1","ayp6u7sqsp63v1g",359,"9.csv","","null","resources/maskTrios/L1BB.jpg","null","",NA,NA,NA,NA,""
"image-keyboard-response",16,134074,"0.0-3.1-2.1","ayp6u7sqsp63v1g",359,"9.csv","","null","resources/images/coin2.png","null","",NA,NA,NA,NA,""
"image-keyboard-response",17,143628,"0.0-3.2-0.2","ayp6u7sqsp63v1g",359,"9.csv","","9552","resources/trios/L4T4A1.jpg","38","restless",0.6,0.9,0.3,0.96671157369285,"false"
"image-keyboard-response",18,144049,"0.0-3.2-1.2","ayp6u7sqsp63v1g",359,"9.csv","","null","resources/maskTrios/BT4B.jpg","null","",NA,NA,NA,NA,""
"image-keyboard-response",19,145260,"0.0-3.2-2.2","ayp6u7sqsp63v1g",359,"9.csv","","null","resources/images/fishbone.png","null","",NA,NA,NA,NA,""
"image-keyboard-response",20,157669,"0.0-3.3-0.3","ayp6u7sqsp63v1g",359,"9.csv","","12408.200000047684","resources/trios/L4T4A3.jpg","37","restless",0.6,0.8,0.3,0.956017822182734,"false"
"image-keyboard-response",21,158079,"0.0-3.3-1.3","ayp6u7sqsp63v1g",359,"9.csv","","null","resources/maskTrios/L4BB.jpg","null","",NA,NA,NA,NA,""
"image-keyboard-response",22,159286,"0.0-3.3-2.3","ayp6u7sqsp63v1g",359,"9.csv","","null","resources/images/fishbone.png","null","",NA,NA,NA,NA,""
"image-keyboard-response",23,167105,"0.0-3.4-0.4","ayp6u7sqsp63v1g",359,"9.csv","","7817.899999856949","resources/trios/L1T2A3.jpg","38","restless",0.6,0.7,0.3,0.745600136472238,"false"
"image-keyboard-response",24,167516,"0.0-3.4-1.4","ayp6u7sqsp63v1g",359,"9.csv","","null","resources/maskTrios/BT2B.jpg","null","",NA,NA,NA,NA,""
"image-keyboard-response",25,168721,"0.0-3.4-2.4","ayp6u7sqsp63v1g",359,"9.csv","","null","resources/images/fishbone.png","null","",NA,NA,NA,NA,""
"image-keyboard-response",26,171999,"0.0-3.5-0.5","ayp6u7sqsp63v1g",359,"9.csv","","3276.4000000953674","resources/trios/L1T4A3.jpg","37","restless",0.6,0.7,0.3,0.636516130840888,"false"
"image-keyboard-response",27,172405,"0.0-3.5-1.5","ayp6u7sqsp63v1g",359,"9.csv","","null","resources/maskTrios/L1BB.jpg","null","",NA,NA,NA,NA,""
"image-keyboard-response",28,173621,"0.0-3.5-2.5","ayp6u7sqsp63v1g",359,"9.csv","","null","resources/images/fishbone.png","null","",NA,NA,NA,NA,""
"image-keyboard-response",29,179146,"0.0-3.6-0.6","ayp6u7sqsp63v1g",359,"9.csv","","5524","resources/trios/L4T4A1.jpg","39","restless",0.6,0.7,0.3,0.981108864549012,"false"
"image-keyboard-response",30,179556,"0.0-3.6-1.6","ayp6u7sqsp63v1g",359,"9.csv","","null","resources/maskTrios/BBA1.jpg","null","",NA,NA,NA,NA,""
"image-keyboard-response",31,180766,"0.0-3.6-2.6","ayp6u7sqsp63v1g",359,"9.csv","","null","resources/images/fishbone.png","null","",NA,NA,NA,NA,""
"image-keyboard-response",32,181777,"0.0-3.7-0.7","ayp6u7sqsp63v1g",359,"9.csv","","1010.0999999046326","resources/trios/L1T4A3.jpg","38","restless",0.6,0.7,0.3,0.615903401315242,"true"
"image-keyboard-response",33,182184,"0.0-3.7-1.7","ayp6u7sqsp63v1g",359,"9.csv","","null","resources/maskTrios/BT4B.jpg","null","",NA,NA,NA,NA,""
"image-keyboard-response",34,183409,"0.0-3.7-2.7","ayp6u7sqsp63v1g",359,"9.csv","","null","resources/images/coin2.png","null","",NA,NA,NA,NA,""
"image-keyboard-response",35,184610,"0.0-3.8-0.8","ayp6u7sqsp63v1g",359,"9.csv","","1198.6999998092651","resources/trios/L1T4A3.jpg","39","restless",0.6,0.7,0.3,0.415472592883536,"false"
"image-keyboard-response",36,185021,"0.0-3.8-1.8","ayp6u7sqsp63v1g",359,"9.csv","","null","resources/maskTrios/BBA3.jpg","null","",NA,NA,NA,NA,""
"image-keyboard-response",37,186241,"0.0-3.8-2.8","ayp6u7sqsp63v1g",359,"9.csv","","null","resources/images/fishbone.png","null","",NA,NA,NA,NA,""
"image-keyboard-response",38,192537,"0.0-3.9-0.9","ayp6u7sqsp63v1g",359,"9.csv","","6294.099999904633","resources/trios/L1T2A3.jpg","37","restless",0.6,0.7,0.4,0.0778691034769354,"true"
"image-keyboard-response",39,192943,"0.0-3.9-1.9","ayp6u7sqsp63v1g",359,"9.csv","","null","resources/maskTrios/L1BB.jpg","null","",NA,NA,NA,NA,""
"image-keyboard-response",40,194162,"0.0-3.9-2.9","ayp6u7sqsp63v1g",359,"9.csv","","null","resources/images/coin2.png","null","",NA,NA,NA,NA,""
"image-keyboard-response",41,200696,"0.0-3.10-0.10","ayp6u7sqsp63v1g",359,"9.csv","","6533.200000047684","resources/trios/L1T2A1.jpg","39","restless",0.6,0.7,0.4,0.431400580863933,"false"
"image-keyboard-response",42,201110,"0.0-3.10-1.10","ayp6u7sqsp63v1g",359,"9.csv","","null","resources/maskTrios/BBA1.jpg","null","",NA,NA,NA,NA,""
"image-keyboard-response",43,202325,"0.0-3.10-2.10","ayp6u7sqsp63v1g",359,"9.csv","","null","resources/images/fishbone.png","null","",NA,NA,NA,NA,""
"image-keyboard-response",44,206026,"0.0-3.11-0.11","ayp6u7sqsp63v1g",359,"9.csv","","3700","resources/trios/L4T4A3.jpg","38","restless",0.6,0.6,0.4,0.561509041526069,"true"
"image-keyboard-response",45,206441,"0.0-3.11-1.11","ayp6u7sqsp63v1g",359,"9.csv","","null","resources/maskTrios/BT4B.jpg","null","",NA,NA,NA,NA,""
"image-keyboard-response",46,207646,"0.0-3.11-2.11","ayp6u7sqsp63v1g",359,"9.csv","","null","resources/images/coin2.png","null","",NA,NA,NA,NA,""
"image-keyboard-response",47,209719,"0.0-3.12-0.12","ayp6u7sqsp63v1g",359,"9.csv","","2071.5","resources/trios/L1T4A1.jpg","39","restless",0.6,0.6,0.4,0.190220453968783,"true"
"image-keyboard-response",48,210131,"0.0-3.12-1.12","ayp6u7sqsp63v1g",359,"9.csv","","null","resources/maskTrios/BBA1.jpg","null","",NA,NA,NA,NA,""
"image-keyboard-response",49,211346,"0.0-3.12-2.12","ayp6u7sqsp63v1g",359,"9.csv","","null","resources/images/coin2.png","null","",NA,NA,NA,NA,""
"image-keyboard-response",50,212316,"0.0-3.13-0.13","ayp6u7sqsp63v1g",359,"9.csv","","969.2000000476837","resources/trios/L4T2A3.jpg","37","restless",0.6,0.6,0.4,0.154471342665658,"true"
"image-keyboard-response",51,212732,"0.0-3.13-1.13","ayp6u7sqsp63v1g",359,"9.csv","","null","resources/maskTrios/L4BB.jpg","null","",NA,NA,NA,NA,""
"image-keyboard-response",52,213950,"0.0-3.13-2.13","ayp6u7sqsp63v1g",359,"9.csv","","null","resources/images/coin2.png","null","",NA,NA,NA,NA,""
"image-keyboard-response",53,215015,"0.0-3.14-0.14","ayp6u7sqsp63v1g",359,"9.csv","","1064","resources/trios/L4T4A1.jpg","38","restless",0.6,0.6,0.4,0.829666624931979,"false"
"image-keyboard-response",54,215421,"0.0-3.14-1.14","ayp6u7sqsp63v1g",359,"9.csv","","null","resources/maskTrios/BT4B.jpg","null","",NA,NA,NA,NA,""
"image-keyboard-response",55,216640,"0.0-3.14-2.14","ayp6u7sqsp63v1g",359,"9.csv","","null","resources/images/fishbone.png","null","",NA,NA,NA,NA,""
"image-keyboard-response",56,218980,"0.0-3.15-0.15","ayp6u7sqsp63v1g",359,"9.csv","","2338.600000143051","resources/trios/L1T4A1.jpg","39","restless",0.6,0.6,0.4,0.298863049402448,"true"
"image-keyboard-response",57,219393,"0.0-3.15-1.15","ayp6u7sqsp63v1g",359,"9.csv","","null","resources/maskTrios/BBA1.jpg","null","",NA,NA,NA,NA,""
"image-keyboard-response",58,220600,"0.0-3.15-2.15","ayp6u7sqsp63v1g",359,"9.csv","","null","resources/images/coin2.png","null","",NA,NA,NA,NA,""
"image-keyboard-response",59,223067,"0.0-3.16-0.16","ayp6u7sqsp63v1g",359,"9.csv","","2466.199999809265","resources/trios/L4T4A3.jpg","37","restless",0.6,0.6,0.3,0.549150708499349,"true"
"image-keyboard-response",60,223477,"0.0-3.16-1.16","ayp6u7sqsp63v1g",359,"9.csv","","null","resources/maskTrios/L4BB.jpg","null","",NA,NA,NA,NA,""
"image-keyboard-response",61,224694,"0.0-3.16-2.16","ayp6u7sqsp63v1g",359,"9.csv","","null","resources/images/coin2.png","null","",NA,NA,NA,NA,""
"image-keyboard-response",62,225631,"0.0-3.17-0.17","ayp6u7sqsp63v1g",359,"9.csv","","935.7999999523163","resources/trios/L1T4A3.jpg","38","restless",0.6,0.6,0.3,0.551663796376935,"true"
"image-keyboard-response",63,226047,"0.0-3.17-1.17","ayp6u7sqsp63v1g",359,"9.csv","","null","resources/maskTrios/BT4B.jpg","null","",NA,NA,NA,NA,""
"image-keyboard-response",64,227269,"0.0-3.17-2.17","ayp6u7sqsp63v1g",359,"9.csv","","null","resources/images/coin2.png","null","",NA,NA,NA,NA,""
"image-keyboard-response",65,228199,"0.0-3.18-0.18","ayp6u7sqsp63v1g",359,"9.csv","","929.6000001430511","resources/trios/L4T4A1.jpg","39","restless",0.6,0.6,0.3,0.787195879307348,"false"
"image-keyboard-response",66,228614,"0.0-3.18-1.18","ayp6u7sqsp63v1g",359,"9.csv","","null","resources/maskTrios/BBA1.jpg","null","",NA,NA,NA,NA,""
"image-keyboard-response",67,229828,"0.0-3.18-2.18","ayp6u7sqsp63v1g",359,"9.csv","","null","resources/images/fishbone.png","null","",NA,NA,NA,NA,""
"image-keyboard-response",68,231958,"0.0-3.19-0.19","ayp6u7sqsp63v1g",359,"9.csv","","2129.100000143051","resources/trios/L1T2A1.jpg","37","restless",0.6,0.6,0.3,0.400341814458112,"true"
"image-keyboard-response",69,232377,"0.0-3.19-1.19","ayp6u7sqsp63v1g",359,"9.csv","","null","resources/maskTrios/L1BB.jpg","null","",NA,NA,NA,NA,""
"image-keyboard-response",70,233596,"0.0-3.19-2.19","ayp6u7sqsp63v1g",359,"9.csv","","null","resources/images/coin2.png","null","",NA,NA,NA,NA,""
"image-keyboard-response",71,237582,"0.0-3.20-0.20","ayp6u7sqsp63v1g",359,"9.csv","","3984.399999856949","resources/trios/L4T4A1.jpg","38","restless",0.7,0.6,0.3,0.982584214981215,"false"
"image-keyboard-response",72,238000,"0.0-3.20-1.20","ayp6u7sqsp63v1g",359,"9.csv","","null","resources/maskTrios/BT4B.jpg","null","",NA,NA,NA,NA,""
"image-keyboard-response",73,239220,"0.0-3.20-2.20","ayp6u7sqsp63v1g",359,"9.csv","","null","resources/images/fishbone.png","null","",NA,NA,NA,NA,""
"image-keyboard-response",74,244710,"0.0-3.21-0.21","ayp6u7sqsp63v1g",359,"9.csv","","5488.5","resources/trios/L1T4A1.jpg","39","restless",0.7,0.6,0.3,0.856535942388884,"false"
"image-keyboard-response",75,245124,"0.0-3.21-1.21","ayp6u7sqsp63v1g",359,"9.csv","","null","resources/maskTrios/BBA1.jpg","null","",NA,NA,NA,NA,""
"image-keyboard-response",76,246342,"0.0-3.21-2.21","ayp6u7sqsp63v1g",359,"9.csv","","null","resources/images/fishbone.png","null","",NA,NA,NA,NA,""
"image-keyboard-response",77,247603,"0.0-3.22-0.22","ayp6u7sqsp63v1g",359,"9.csv","","1258.8999998569489","resources/trios/L4T4A1.jpg","37","restless",0.7,0.6,0.3,0.921805352894969,"false"
"image-keyboard-response",78,248011,"0.0-3.22-1.22","ayp6u7sqsp63v1g",359,"9.csv","","null","resources/maskTrios/L4BB.jpg","null","",NA,NA,NA,NA,""
"image-keyboard-response",79,249230,"0.0-3.22-2.22","ayp6u7sqsp63v1g",359,"9.csv","","null","resources/images/fishbone.png","null","",NA,NA,NA,NA,""
"image-keyboard-response",80,250255,"0.0-3.23-0.23","ayp6u7sqsp63v1g",359,"9.csv","","1023.7000000476837","resources/trios/L1T4A1.jpg","38","restless",0.7,0.6,0.3,0.838388247723876,"false"
"image-keyboard-response",81,250672,"0.0-3.23-1.23","ayp6u7sqsp63v1g",359,"9.csv","","null","resources/maskTrios/BT4B.jpg","null","",NA,NA,NA,NA,""
"image-keyboard-response",82,251885,"0.0-3.23-2.23","ayp6u7sqsp63v1g",359,"9.csv","","null","resources/images/fishbone.png","null","",NA,NA,NA,NA,""
"image-keyboard-response",83,264465,"0.0-3.24-0.24","ayp6u7sqsp63v1g",359,"9.csv","","12578.799999952316","resources/trios/L4T4A3.jpg","39","restless",0.7,0.7,0.3,0.027917510974127,"true"
"image-keyboard-response",84,264874,"0.0-3.24-1.24","ayp6u7sqsp63v1g",359,"9.csv","","null","resources/maskTrios/BBA3.jpg","null","",NA,NA,NA,NA,""
"image-keyboard-response",85,266079,"0.0-3.24-2.24","ayp6u7sqsp63v1g",359,"9.csv","","null","resources/images/coin2.png","null","",NA,NA,NA,NA,""
"image-keyboard-response",86,272611,"0.0-3.25-0.25","ayp6u7sqsp63v1g",359,"9.csv","","6530.399999856949","resources/trios/L4T2A1.jpg","38","restless",0.7,0.7,0.3,0.960757059726171,"false"
"image-keyboard-response",87,273030,"0.0-3.25-1.25","ayp6u7sqsp63v1g",359,"9.csv","","null","resources/maskTrios/BT2B.jpg","null","",NA,NA,NA,NA,""
"image-keyboard-response",88,274246,"0.0-3.25-2.25","ayp6u7sqsp63v1g",359,"9.csv","","null","resources/images/fishbone.png","null","",NA,NA,NA,NA,""
"image-keyboard-response",89,276061,"0.0-3.26-0.26","ayp6u7sqsp63v1g",359,"9.csv","","1813.8999998569489","resources/trios/L1T2A3.jpg","37","restless",0.7,0.7,0.3,0.0958899255304579,"true"
"image-keyboard-response",90,276479,"0.0-3.26-1.26","ayp6u7sqsp63v1g",359,"9.csv","","null","resources/maskTrios/L1BB.jpg","null","",NA,NA,NA,NA,""
"image-keyboard-response",91,277687,"0.0-3.26-2.26","ayp6u7sqsp63v1g",359,"9.csv","","null","resources/images/coin2.png","null","",NA,NA,NA,NA,""
"image-keyboard-response",92,282611,"0.0-3.27-0.27","ayp6u7sqsp63v1g",359,"9.csv","","4922.299999952316","resources/trios/L1T2A1.jpg","38","restless",0.7,0.7,0.3,0.138745437315512,"true"
"image-keyboard-response",93,283021,"0.0-3.27-1.27","ayp6u7sqsp63v1g",359,"9.csv","","null","resources/maskTrios/BT2B.jpg","null","",NA,NA,NA,NA,""
"image-keyboard-response",94,284231,"0.0-3.27-2.27","ayp6u7sqsp63v1g",359,"9.csv","","null","resources/images/coin2.png","null","",NA,NA,NA,NA,""
"image-keyboard-response",95,287984,"0.0-3.28-0.28","ayp6u7sqsp63v1g",359,"9.csv","","3751.7000000476837","resources/trios/L1T4A1.jpg","39","restless",0.7,0.7,0.3,0.538528424237335,"false"
"image-keyboard-response",96,288396,"0.0-3.28-1.28","ayp6u7sqsp63v1g",359,"9.csv","","null","resources/maskTrios/BBA1.jpg","null","",NA,NA,NA,NA,""
"image-keyboard-response",97,289612,"0.0-3.28-2.28","ayp6u7sqsp63v1g",359,"9.csv","","null","resources/images/fishbone.png","null","",NA,NA,NA,NA,""
"image-keyboard-response",98,292300,"0.0-3.29-0.29","ayp6u7sqsp63v1g",359,"9.csv","","2686.2000000476837","resources/trios/L4T4A3.jpg","38","restless",0.8,0.7,0.3,0.592910631835543,"true"
"image-keyboard-response",99,292713,"0.0-3.29-1.29","ayp6u7sqsp63v1g",359,"9.csv","","null","resources/maskTrios/BT4B.jpg","null","",NA,NA,NA,NA,""
"image-keyboard-response",100,293928,"0.0-3.29-2.29","ayp6u7sqsp63v1g",359,"9.csv","","null","resources/images/coin2.png","null","",NA,NA,NA,NA,""
"image-keyboard-response",101,297129,"0.0-3.30-0.30","ayp6u7sqsp63v1g",359,"9.csv","","3199.2000000476837","resources/trios/L4T4A3.jpg","38","restless",0.9,0.7,0.3,0.0503183904331634,"true"
"image-keyboard-response",102,297542,"0.0-3.30-1.30","ayp6u7sqsp63v1g",359,"9.csv","","null","resources/maskTrios/BT4B.jpg","null","",NA,NA,NA,NA,""
"image-keyboard-response",103,298757,"0.0-3.30-2.30","ayp6u7sqsp63v1g",359,"9.csv","","null","resources/images/coin2.png","null","",NA,NA,NA,NA,""
"image-keyboard-response",104,300569,"0.0-3.31-0.31","ayp6u7sqsp63v1g",359,"9.csv","","1810.3999998569489","resources/trios/L1T4A3.jpg","37","restless",0.9,0.7,0.3,0.172654440863135,"true"
"image-keyboard-response",105,300984,"0.0-3.31-1.31","ayp6u7sqsp63v1g",359,"9.csv","","null","resources/maskTrios/L1BB.jpg","null","",NA,NA,NA,NA,""
"image-keyboard-response",106,302200,"0.0-3.31-2.31","ayp6u7sqsp63v1g",359,"9.csv","","null","resources/images/coin2.png","null","",NA,NA,NA,NA,""
"image-keyboard-response",107,303319,"0.0-3.32-0.32","ayp6u7sqsp63v1g",359,"9.csv","","1118.3999998569489","resources/trios/L1T4A1.jpg","39","restless",0.9,0.7,0.3,0.615839822808674,"false"
"image-keyboard-response",108,303735,"0.0-3.32-1.32","ayp6u7sqsp63v1g",359,"9.csv","","null","resources/maskTrios/BBA1.jpg","null","",NA,NA,NA,NA,""
"image-keyboard-response",109,304942,"0.0-3.32-2.32","ayp6u7sqsp63v1g",359,"9.csv","","null","resources/images/fishbone.png","null","",NA,NA,NA,NA,""
"image-keyboard-response",110,306463,"0.0-3.33-0.33","ayp6u7sqsp63v1g",359,"9.csv","","1521.9000000953674","resources/trios/L1T2A1.jpg","38","restless",0.9,0.7,0.3,0.36608611896186,"true"
"image-keyboard-response",111,306868,"0.0-3.33-1.33","ayp6u7sqsp63v1g",359,"9.csv","","null","resources/maskTrios/BT2B.jpg","null","",NA,NA,NA,NA,""
"image-keyboard-response",112,308082,"0.0-3.33-2.33","ayp6u7sqsp63v1g",359,"9.csv","","null","resources/images/coin2.png","null","",NA,NA,NA,NA,""
"image-keyboard-response",113,313266,"0.0-3.34-0.34","ayp6u7sqsp63v1g",359,"9.csv","","5182.399999856949","resources/trios/L4T2A3.jpg","37","restless",0.9,0.7,0.3,0.717933589953825,"true"
"image-keyboard-response",114,313681,"0.0-3.34-1.34","ayp6u7sqsp63v1g",359,"9.csv","","null","resources/maskTrios/L4BB.jpg","null","",NA,NA,NA,NA,""
"image-keyboard-response",115,314905,"0.0-3.34-2.34","ayp6u7sqsp63v1g",359,"9.csv","","null","resources/images/coin2.png","null","",NA,NA,NA,NA,""
"image-keyboard-response",116,327531,"0.0-3.35-0.35","ayp6u7sqsp63v1g",359,"9.csv","","12624","resources/trios/L1T4A3.jpg","38","restless",0.9,0.7,0.2,0.881536841805915,"false"
"image-keyboard-response",117,327943,"0.0-3.35-1.35","ayp6u7sqsp63v1g",359,"9.csv","","null","resources/maskTrios/BT4B.jpg","null","",NA,NA,NA,NA,""
"image-keyboard-response",118,329155,"0.0-3.35-2.35","ayp6u7sqsp63v1g",359,"9.csv","","null","resources/images/fishbone.png","null","",NA,NA,NA,NA,""
"image-keyboard-response",119,332326,"0.0-3.36-0.36","ayp6u7sqsp63v1g",359,"9.csv","","3170.199999809265","resources/trios/L4T4A3.jpg","39","restless",0.9,0.7,0.2,0.7588902592857,"false"
"image-keyboard-response",120,332736,"0.0-3.36-1.36","ayp6u7sqsp63v1g",359,"9.csv","","null","resources/maskTrios/BBA3.jpg","null","",NA,NA,NA,NA,""
"image-keyboard-response",121,333954,"0.0-3.36-2.36","ayp6u7sqsp63v1g",359,"9.csv","","null","resources/images/fishbone.png","null","",NA,NA,NA,NA,""
"image-keyboard-response",122,335507,"0.0-3.37-0.37","ayp6u7sqsp63v1g",359,"9.csv","","1551.9000000953674","resources/trios/L4T4A3.jpg","37","restless",0.8,0.7,0.2,0.933384526502772,"false"
"image-keyboard-response",123,335921,"0.0-3.37-1.37","ayp6u7sqsp63v1g",359,"9.csv","","null","resources/maskTrios/L4BB.jpg","null","",NA,NA,NA,NA,""
"image-keyboard-response",124,337134,"0.0-3.37-2.37","ayp6u7sqsp63v1g",359,"9.csv","","null","resources/images/fishbone.png","null","",NA,NA,NA,NA,""
"image-keyboard-response",125,338347,"0.0-3.38-0.38","ayp6u7sqsp63v1g",359,"9.csv","","1211.1000001430511","resources/trios/L1T4A3.jpg","37","restless",0.8,0.7,0.2,0.707556487672264,"true"
"image-keyboard-response",126,338762,"0.0-3.38-1.38","ayp6u7sqsp63v1g",359,"9.csv","","null","resources/maskTrios/L1BB.jpg","null","",NA,NA,NA,NA,""
"image-keyboard-response",127,339976,"0.0-3.38-2.38","ayp6u7sqsp63v1g",359,"9.csv","","null","resources/images/coin2.png","null","",NA,NA,NA,NA,""
"image-keyboard-response",128,343524,"0.0-3.39-0.39","ayp6u7sqsp63v1g",359,"9.csv","","3546.199999809265","resources/trios/L1T2A3.jpg","38","restless",0.7,0.7,0.3,0.135751428375867,"true"
"image-keyboard-response",129,343937,"0.0-3.39-1.39","ayp6u7sqsp63v1g",359,"9.csv","","null","resources/maskTrios/BT2B.jpg","null","",NA,NA,NA,NA,""
"image-keyboard-response",130,345155,"0.0-3.39-2.39","ayp6u7sqsp63v1g",359,"9.csv","","null","resources/images/coin2.png","null","",NA,NA,NA,NA,""
"image-keyboard-response",131,351203,"0.0-3.40-0.40","ayp6u7sqsp63v1g",359,"9.csv","","6045.900000095367","resources/trios/L1T2A1.jpg","38","restless",0.7,0.7,0.3,0.223385236458107,"true"
"image-keyboard-response",132,351626,"0.0-3.40-1.40","ayp6u7sqsp63v1g",359,"9.csv","","null","resources/maskTrios/BT2B.jpg","null","",NA,NA,NA,NA,""
"image-keyboard-response",133,352840,"0.0-3.40-2.40","ayp6u7sqsp63v1g",359,"9.csv","","null","resources/images/coin2.png","null","",NA,NA,NA,NA,""
"image-keyboard-response",134,355295,"0.0-3.41-0.41","ayp6u7sqsp63v1g",359,"9.csv","","2453.899999856949","resources/trios/L4T2A1.jpg","39","restless",0.6,0.7,0.3,0.697834628037899,"false"
"image-keyboard-response",135,355699,"0.0-3.41-1.41","ayp6u7sqsp63v1g",359,"9.csv","","null","resources/maskTrios/BBA1.jpg","null","",NA,NA,NA,NA,""
"image-keyboard-response",136,356907,"0.0-3.41-2.41","ayp6u7sqsp63v1g",359,"9.csv","","null","resources/images/fishbone.png","null","",NA,NA,NA,NA,""
"image-keyboard-response",137,358009,"0.0-3.42-0.42","ayp6u7sqsp63v1g",359,"9.csv","","1100.6000001430511","resources/trios/L4T4A1.jpg","38","restless",0.6,0.7,0.3,0.462619804118352,"true"
"image-keyboard-response",138,358429,"0.0-3.42-1.42","ayp6u7sqsp63v1g",359,"9.csv","","null","resources/maskTrios/BT4B.jpg","null","",NA,NA,NA,NA,""
"image-keyboard-response",139,359646,"0.0-3.42-2.42","ayp6u7sqsp63v1g",359,"9.csv","","null","resources/images/coin2.png","null","",NA,NA,NA,NA,""
"image-keyboard-response",140,361798,"0.0-3.43-0.43","ayp6u7sqsp63v1g",359,"9.csv","","2150","resources/trios/L1T4A1.jpg","37","restless",0.6,0.7,0.3,0.0589568672091056,"true"
"image-keyboard-response",141,362211,"0.0-3.43-1.43","ayp6u7sqsp63v1g",359,"9.csv","","null","resources/maskTrios/L1BB.jpg","null","",NA,NA,NA,NA,""
"image-keyboard-response",142,363428,"0.0-3.43-2.43","ayp6u7sqsp63v1g",359,"9.csv","","null","resources/images/coin2.png","null","",NA,NA,NA,NA,""
"image-keyboard-response",143,366282,"0.0-3.44-0.44","ayp6u7sqsp63v1g",359,"9.csv","","2852.5999999046326","resources/trios/L1T4A1.jpg","38","restless",0.5,0.7,0.4,0.97261589823016,"false"
"image-keyboard-response",144,366699,"0.0-3.44-1.44","ayp6u7sqsp63v1g",359,"9.csv","","null","resources/maskTrios/BT4B.jpg","null","",NA,NA,NA,NA,""
"image-keyboard-response",145,367909,"0.0-3.44-2.44","ayp6u7sqsp63v1g",359,"9.csv","","null","resources/images/fishbone.png","null","",NA,NA,NA,NA,""
"image-keyboard-response",146,369341,"0.0-3.45-0.45","ayp6u7sqsp63v1g",359,"9.csv","","1430.5","resources/trios/L4T4A3.jpg","37","restless",0.5,0.7,0.5,0.0360099255494819,"true"
"image-keyboard-response",147,369754,"0.0-3.45-1.45","ayp6u7sqsp63v1g",359,"9.csv","","null","resources/maskTrios/L4BB.jpg","null","",NA,NA,NA,NA,""
"image-keyboard-response",148,370962,"0.0-3.45-2.45","ayp6u7sqsp63v1g",359,"9.csv","","null","resources/images/coin2.png","null","",NA,NA,NA,NA,""
"image-keyboard-response",149,373912,"0.0-3.46-0.46","ayp6u7sqsp63v1g",359,"9.csv","","2947.4000000953674","resources/trios/L4T2A1.jpg","38","restless",0.5,0.7,0.5,0.306591629613564,"true"
"image-keyboard-response",150,374325,"0.0-3.46-1.46","ayp6u7sqsp63v1g",359,"9.csv","","null","resources/maskTrios/BT2B.jpg","null","",NA,NA,NA,NA,""
"image-keyboard-response",151,375548,"0.0-3.46-2.46","ayp6u7sqsp63v1g",359,"9.csv","","null","resources/images/coin2.png","null","",NA,NA,NA,NA,""
"image-keyboard-response",152,377719,"0.0-3.47-0.47","ayp6u7sqsp63v1g",359,"9.csv","","2169.0999999046326","resources/trios/L1T2A3.jpg","37","restless",0.5,0.7,0.5,0.199430278409249,"true"
"image-keyboard-response",153,378138,"0.0-3.47-1.47","ayp6u7sqsp63v1g",359,"9.csv","","null","resources/maskTrios/L1BB.jpg","null","",NA,NA,NA,NA,""
"image-keyboard-response",154,379352,"0.0-3.47-2.47","ayp6u7sqsp63v1g",359,"9.csv","","null","resources/images/coin2.png","null","",NA,NA,NA,NA,""
"image-keyboard-response",155,382834,"0.0-3.48-0.48","ayp6u7sqsp63v1g",359,"9.csv","","3479.800000190735","resources/trios/L4T4A1.jpg","39","restless",0.5,0.7,0.5,0.652149132330878,"false"
"image-keyboard-response",156,383249,"0.0-3.48-1.48","ayp6u7sqsp63v1g",359,"9.csv","","null","resources/maskTrios/BBA1.jpg","null","",NA,NA,NA,NA,""
"image-keyboard-response",157,384456,"0.0-3.48-2.48","ayp6u7sqsp63v1g",359,"9.csv","","null","resources/images/fishbone.png","null","",NA,NA,NA,NA,""
"image-keyboard-response",158,385000,"0.0-3.49-0.49","ayp6u7sqsp63v1g",359,"9.csv","","542.3999998569489","resources/trios/L4T2A1.jpg","37","restless",0.5,0.7,0.4,0.569510886722004,"false"
"image-keyboard-response",159,385414,"0.0-3.49-1.49","ayp6u7sqsp63v1g",359,"9.csv","","null","resources/maskTrios/L4BB.jpg","null","",NA,NA,NA,NA,""
"image-keyboard-response",160,386633,"0.0-3.49-2.49","ayp6u7sqsp63v1g",359,"9.csv","","null","resources/images/fishbone.png","null","",NA,NA,NA,NA,""
"image-keyboard-response",161,387032,"0.0-3.50-0.50","ayp6u7sqsp63v1g",359,"9.csv","","397.80000019073486","resources/trios/L4T2A1.jpg","38","restless",0.5,0.7,0.5,0.397453934938407,"true"
"image-keyboard-response",162,387443,"0.0-3.50-1.50","ayp6u7sqsp63v1g",359,"9.csv","","null","resources/maskTrios/BT2B.jpg","null","",NA,NA,NA,NA,""
"image-keyboard-response",163,388658,"0.0-3.50-2.50","ayp6u7sqsp63v1g",359,"9.csv","","null","resources/images/coin2.png","null","",NA,NA,NA,NA,""
"image-keyboard-response",164,390847,"0.0-3.51-0.51","ayp6u7sqsp63v1g",359,"9.csv","","2187.5","resources/trios/L1T4A3.jpg","37","restless",0.5,0.7,0.6,0.829016442705289,"false"
"image-keyboard-response",165,391263,"0.0-3.51-1.51","ayp6u7sqsp63v1g",359,"9.csv","","null","resources/maskTrios/L1BB.jpg","null","",NA,NA,NA,NA,""
"image-keyboard-response",166,392474,"0.0-3.51-2.51","ayp6u7sqsp63v1g",359,"9.csv","","null","resources/images/fishbone.png","null","",NA,NA,NA,NA,""
"image-keyboard-response",167,399206,"0.0-3.52-0.52","ayp6u7sqsp63v1g",359,"9.csv","","6731.099999904633","resources/trios/L4T2A3.jpg","38","restless",0.5,0.7,0.6,0.848381609204259,"false"
"image-keyboard-response",168,399616,"0.0-3.52-1.52","ayp6u7sqsp63v1g",359,"9.csv","","null","resources/maskTrios/BT2B.jpg","null","",NA,NA,NA,NA,""
"image-keyboard-response",169,400825,"0.0-3.52-2.52","ayp6u7sqsp63v1g",359,"9.csv","","null","resources/images/fishbone.png","null","",NA,NA,NA,NA,""
"image-keyboard-response",170,403096,"0.0-3.53-0.53","ayp6u7sqsp63v1g",359,"9.csv","","2269.2999999523163","resources/trios/L1T4A1.jpg","38","restless",0.5,0.6,0.6,0.484062297200328,"true"
"image-keyboard-response",171,403509,"0.0-3.53-1.53","ayp6u7sqsp63v1g",359,"9.csv","","null","resources/maskTrios/BT4B.jpg","null","",NA,NA,NA,NA,""
"image-keyboard-response",172,404718,"0.0-3.53-2.53","ayp6u7sqsp63v1g",359,"9.csv","","null","resources/images/coin2.png","null","",NA,NA,NA,NA,""
"image-keyboard-response",173,407220,"0.0-3.54-0.54","ayp6u7sqsp63v1g",359,"9.csv","","2500.5","resources/trios/L4T2A3.jpg","39","restless",0.5,0.7,0.6,0.815678857668948,"false"
"image-keyboard-response",174,407635,"0.0-3.54-1.54","ayp6u7sqsp63v1g",359,"9.csv","","null","resources/maskTrios/BBA3.jpg","null","",NA,NA,NA,NA,""
"image-keyboard-response",175,408845,"0.0-3.54-2.54","ayp6u7sqsp63v1g",359,"9.csv","","null","resources/images/fishbone.png","null","",NA,NA,NA,NA,""
"image-keyboard-response",176,410419,"0.0-3.55-0.55","ayp6u7sqsp63v1g",359,"9.csv","","1572.5","resources/trios/L1T4A3.jpg","37","restless",0.4,0.7,0.6,0.620850094111784,"false"
"image-keyboard-response",177,410832,"0.0-3.55-1.55","ayp6u7sqsp63v1g",359,"9.csv","","null","resources/maskTrios/L1BB.jpg","null","",NA,NA,NA,NA,""
"image-keyboard-response",178,412051,"0.0-3.55-2.55","ayp6u7sqsp63v1g",359,"9.csv","","null","resources/images/fishbone.png","null","",NA,NA,NA,NA,""
"image-keyboard-response",179,419463,"0.0-3.56-0.56","ayp6u7sqsp63v1g",359,"9.csv","","7410.699999809265","resources/trios/L1T4A3.jpg","37","restless",0.4,0.7,0.6,0.243790142799763,"true"
"image-keyboard-response",180,419880,"0.0-3.56-1.56","ayp6u7sqsp63v1g",359,"9.csv","","null","resources/maskTrios/L1BB.jpg","null","",NA,NA,NA,NA,""
"image-keyboard-response",181,421093,"0.0-3.56-2.56","ayp6u7sqsp63v1g",359,"9.csv","","null","resources/images/coin2.png","null","",NA,NA,NA,NA,""
"image-keyboard-response",182,424431,"0.0-3.57-0.57","ayp6u7sqsp63v1g",359,"9.csv","","3337","resources/trios/L1T2A1.jpg","38","restless",0.4,0.7,0.6,0.24356796652828,"true"
"image-keyboard-response",183,424848,"0.0-3.57-1.57","ayp6u7sqsp63v1g",359,"9.csv","","null","resources/maskTrios/BT2B.jpg","null","",NA,NA,NA,NA,""
"image-keyboard-response",184,426064,"0.0-3.57-2.57","ayp6u7sqsp63v1g",359,"9.csv","","null","resources/images/coin2.png","null","",NA,NA,NA,NA,""
"image-keyboard-response",185,429525,"0.0-3.58-0.58","ayp6u7sqsp63v1g",359,"9.csv","","3463.199999809265","resources/trios/L4T2A3.jpg","38","restless",0.4,0.7,0.6,0.304844728735707,"true"
"image-keyboard-response",186,429939,"0.0-3.58-1.58","ayp6u7sqsp63v1g",359,"9.csv","","null","resources/maskTrios/BT2B.jpg","null","",NA,NA,NA,NA,""
"image-keyboard-response",187,431147,"0.0-3.58-2.58","ayp6u7sqsp63v1g",359,"9.csv","","null","resources/images/coin2.png","null","",NA,NA,NA,NA,""
"image-keyboard-response",188,435261,"0.0-3.59-0.59","ayp6u7sqsp63v1g",359,"9.csv","","4110.800000190735","resources/trios/L1T2A1.jpg","37","restless",0.4,0.7,0.6,0.6649111318046,"false"
"image-keyboard-response",189,435677,"0.0-3.59-1.59","ayp6u7sqsp63v1g",359,"9.csv","","null","resources/maskTrios/L1BB.jpg","null","",NA,NA,NA,NA,""
"image-keyboard-response",190,436882,"0.0-3.59-2.59","ayp6u7sqsp63v1g",359,"9.csv","","null","resources/images/fishbone.png","null","",NA,NA,NA,NA,""
"image-keyboard-response",191,439042,"0.0-3.60-0.60","ayp6u7sqsp63v1g",359,"9.csv","","2158.9000000953674","resources/trios/L1T2A3.jpg","37","restless",0.3,0.7,0.5,0.0650119357752261,"true"
"image-keyboard-response",192,439454,"0.0-3.60-1.60","ayp6u7sqsp63v1g",359,"9.csv","","null","resources/maskTrios/L1BB.jpg","null","",NA,NA,NA,NA,""
"image-keyboard-response",193,440671,"0.0-3.60-2.60","ayp6u7sqsp63v1g",359,"9.csv","","null","resources/images/coin2.png","null","",NA,NA,NA,NA,""
"image-keyboard-response",194,441969,"0.0-3.61-0.61","ayp6u7sqsp63v1g",359,"9.csv","","1296.2000000476837","resources/trios/L1T4A1.jpg","38","restless",0.3,0.7,0.5,0.918998420511267,"false"
"image-keyboard-response",195,442378,"0.0-3.61-1.61","ayp6u7sqsp63v1g",359,"9.csv","","null","resources/maskTrios/BT4B.jpg","null","",NA,NA,NA,NA,""
"image-keyboard-response",196,443595,"0.0-3.61-2.61","ayp6u7sqsp63v1g",359,"9.csv","","null","resources/images/fishbone.png","null","",NA,NA,NA,NA,""
"image-keyboard-response",197,444813,"0.0-3.62-0.62","ayp6u7sqsp63v1g",359,"9.csv","","1216.5999999046326","resources/trios/L4T2A3.jpg","38","restless",0.3,0.8,0.5,0.4712348112753,"true"
"image-keyboard-response",198,445222,"0.0-3.62-1.62","ayp6u7sqsp63v1g",359,"9.csv","","null","resources/maskTrios/BT2B.jpg","null","",NA,NA,NA,NA,""
"image-keyboard-response",199,446441,"0.0-3.62-2.62","ayp6u7sqsp63v1g",359,"9.csv","","null","resources/images/coin2.png","null","",NA,NA,NA,NA,""
"image-keyboard-response",200,454275,"0.0-3.63-0.63","ayp6u7sqsp63v1g",359,"9.csv","","7832.099999904633","resources/trios/L4T2A1.jpg","39","restless",0.3,0.8,0.5,0.0901108781873325,"true"
"image-keyboard-response",201,454691,"0.0-3.63-1.63","ayp6u7sqsp63v1g",359,"9.csv","","null","resources/maskTrios/BBA1.jpg","null","",NA,NA,NA,NA,""
"image-keyboard-response",202,455908,"0.0-3.63-2.63","ayp6u7sqsp63v1g",359,"9.csv","","null","resources/images/coin2.png","null","",NA,NA,NA,NA,""
"image-keyboard-response",203,458216,"0.0-3.64-0.64","ayp6u7sqsp63v1g",359,"9.csv","","2306.5999999046326","resources/trios/L4T4A3.jpg","38","restless",0.3,0.8,0.5,0.526456516501858,"true"
"image-keyboard-response",204,458628,"0.0-3.64-1.64","ayp6u7sqsp63v1g",359,"9.csv","","null","resources/maskTrios/BT4B.jpg","null","",NA,NA,NA,NA,""
"image-keyboard-response",205,459835,"0.0-3.64-2.64","ayp6u7sqsp63v1g",359,"9.csv","","null","resources/images/coin2.png","null","",NA,NA,NA,NA,""
"image-keyboard-response",206,461373,"0.0-3.65-0.65","ayp6u7sqsp63v1g",359,"9.csv","","1536.4000000953674","resources/trios/L4T4A3.jpg","37","restless",0.3,0.8,0.6,0.648198594064866,"false"
"image-keyboard-response",207,461779,"0.0-3.65-1.65","ayp6u7sqsp63v1g",359,"9.csv","","null","resources/maskTrios/L4BB.jpg","null","",NA,NA,NA,NA,""
"image-keyboard-response",208,462988,"0.0-3.65-2.65","ayp6u7sqsp63v1g",359,"9.csv","","null","resources/images/fishbone.png","null","",NA,NA,NA,NA,""
"image-keyboard-response",209,463910,"0.0-3.66-0.66","ayp6u7sqsp63v1g",359,"9.csv","","920.7999999523163","resources/trios/L1T2A3.jpg","37","restless",0.3,0.8,0.6,0.15900629922707,"true"
"image-keyboard-response",210,464314,"0.0-3.66-1.66","ayp6u7sqsp63v1g",359,"9.csv","","null","resources/maskTrios/L1BB.jpg","null","",NA,NA,NA,NA,""
"image-keyboard-response",211,465524,"0.0-3.66-2.66","ayp6u7sqsp63v1g",359,"9.csv","","null","resources/images/coin2.png","null","",NA,NA,NA,NA,""
"image-keyboard-response",212,466964,"0.0-3.67-0.67","ayp6u7sqsp63v1g",359,"9.csv","","1438.0999999046326","resources/trios/L4T4A1.jpg","38","restless",0.3,0.8,0.6,0.372716501339012,"true"
"image-keyboard-response",213,467372,"0.0-3.67-1.67","ayp6u7sqsp63v1g",359,"9.csv","","null","resources/maskTrios/BT4B.jpg","null","",NA,NA,NA,NA,""
"image-keyboard-response",214,468583,"0.0-3.67-2.67","ayp6u7sqsp63v1g",359,"9.csv","","null","resources/images/coin2.png","null","",NA,NA,NA,NA,""
"image-keyboard-response",215,479169,"0.0-3.68-0.68","ayp6u7sqsp63v1g",359,"9.csv","","10584.300000190735","resources/trios/L1T4A3.jpg","37","restless",0.3,0.8,0.6,0.330693878533824,"false"
"image-keyboard-response",216,479583,"0.0-3.68-1.68","ayp6u7sqsp63v1g",359,"9.csv","","null","resources/maskTrios/L1BB.jpg","null","",NA,NA,NA,NA,""
"image-keyboard-response",217,480794,"0.0-3.68-2.68","ayp6u7sqsp63v1g",359,"9.csv","","null","resources/images/fishbone.png","null","",NA,NA,NA,NA,""
"image-keyboard-response",218,482221,"0.0-3.69-0.69","ayp6u7sqsp63v1g",359,"9.csv","","1425.7999999523163","resources/trios/L4T4A3.jpg","38","restless",0.3,0.8,0.5,0.686814682569296,"true"
"image-keyboard-response",219,482631,"0.0-3.69-1.69","ayp6u7sqsp63v1g",359,"9.csv","","null","resources/maskTrios/BT4B.jpg","null","",NA,NA,NA,NA,""
"image-keyboard-response",220,483842,"0.0-3.69-2.69","ayp6u7sqsp63v1g",359,"9.csv","","null","resources/images/coin2.png","null","",NA,NA,NA,NA,""
"image-keyboard-response",221,485144,"0.0-3.70-0.70","ayp6u7sqsp63v1g",359,"9.csv","","1300.2000000476837","resources/trios/L4T2A1.jpg","38","restless",0.3,0.8,0.5,0.388992248715869,"true"
"image-keyboard-response",222,485560,"0.0-3.70-1.70","ayp6u7sqsp63v1g",359,"9.csv","","null","resources/maskTrios/BT2B.jpg","null","",NA,NA,NA,NA,""
"image-keyboard-response",223,486785,"0.0-3.70-2.70","ayp6u7sqsp63v1g",359,"9.csv","","null","resources/images/coin2.png","null","",NA,NA,NA,NA,""
"image-keyboard-response",224,488506,"0.0-3.71-0.71","ayp6u7sqsp63v1g",359,"9.csv","","1719.4000000953674","resources/trios/L1T2A3.jpg","39","restless",0.3,0.8,0.6,0.192358175405385,"true"
"image-keyboard-response",225,488921,"0.0-3.71-1.71","ayp6u7sqsp63v1g",359,"9.csv","","null","resources/maskTrios/BBA3.jpg","null","",NA,NA,NA,NA,""
"image-keyboard-response",226,490146,"0.0-3.71-2.71","ayp6u7sqsp63v1g",359,"9.csv","","null","resources/images/coin2.png","null","",NA,NA,NA,NA,""
"image-keyboard-response",227,494592,"0.0-3.72-0.72","ayp6u7sqsp63v1g",359,"9.csv","","4444.899999856949","resources/trios/L1T2A3.jpg","37","restless",0.3,0.8,0.6,0.530315480893602,"false"
"image-keyboard-response",228,495009,"0.0-3.72-1.72","ayp6u7sqsp63v1g",359,"9.csv","","null","resources/maskTrios/L1BB.jpg","null","",NA,NA,NA,NA,""
"image-keyboard-response",229,496216,"0.0-3.72-2.72","ayp6u7sqsp63v1g",359,"9.csv","","null","resources/images/fishbone.png","null","",NA,NA,NA,NA,""
"image-keyboard-response",230,497766,"0.0-3.73-0.73","ayp6u7sqsp63v1g",359,"9.csv","","1548.6999998092651","resources/trios/L4T2A1.jpg","38","restless",0.4,0.8,0.6,0.974672410046986,"false"
"image-keyboard-response",231,498177,"0.0-3.73-1.73","ayp6u7sqsp63v1g",359,"9.csv","","null","resources/maskTrios/BT2B.jpg","null","",NA,NA,NA,NA,""
"image-keyboard-response",232,499386,"0.0-3.73-2.73","ayp6u7sqsp63v1g",359,"9.csv","","null","resources/images/fishbone.png","null","",NA,NA,NA,NA,""
"image-keyboard-response",233,499968,"0.0-3.74-0.74","ayp6u7sqsp63v1g",359,"9.csv","","580.7000000476837","resources/trios/L1T2A3.jpg","37","restless",0.4,0.8,0.6,0.353727185100495,"true"
"image-keyboard-response",234,500380,"0.0-3.74-1.74","ayp6u7sqsp63v1g",359,"9.csv","","null","resources/maskTrios/L1BB.jpg","null","",NA,NA,NA,NA,""
"image-keyboard-response",235,501594,"0.0-3.74-2.74","ayp6u7sqsp63v1g",359,"9.csv","","null","resources/images/coin2.png","null","",NA,NA,NA,NA,""
"image-keyboard-response",236,505801,"0.0-3.75-0.75","ayp6u7sqsp63v1g",359,"9.csv","","4205.899999856949","resources/trios/L4T4A3.jpg","38","restless",0.4,0.8,0.6,0.365073425038831,"true"
"image-keyboard-response",237,506213,"0.0-3.75-1.75","ayp6u7sqsp63v1g",359,"9.csv","","null","resources/maskTrios/BT4B.jpg","null","",NA,NA,NA,NA,""
"image-keyboard-response",238,507424,"0.0-3.75-2.75","ayp6u7sqsp63v1g",359,"9.csv","","null","resources/images/coin2.png","null","",NA,NA,NA,NA,""
"image-keyboard-response",239,509227,"0.0-3.76-0.76","ayp6u7sqsp63v1g",359,"9.csv","","1801.7000000476837","resources/trios/L1T2A1.jpg","38","restless",0.4,0.8,0.6,0.682985403980647,"true"
"image-keyboard-response",240,509642,"0.0-3.76-1.76","ayp6u7sqsp63v1g",359,"9.csv","","null","resources/maskTrios/BT2B.jpg","null","",NA,NA,NA,NA,""
"image-keyboard-response",241,510858,"0.0-3.76-2.76","ayp6u7sqsp63v1g",359,"9.csv","","null","resources/images/coin2.png","null","",NA,NA,NA,NA,""
"image-keyboard-response",242,512557,"0.0-3.77-0.77","ayp6u7sqsp63v1g",359,"9.csv","","1696.7000000476837","resources/trios/L1T4A1.jpg","39","restless",0.5,0.8,0.6,0.084435562993693,"true"
"image-keyboard-response",243,512973,"0.0-3.77-1.77","ayp6u7sqsp63v1g",359,"9.csv","","null","resources/maskTrios/BBA1.jpg","null","",NA,NA,NA,NA,""
"image-keyboard-response",244,514190,"0.0-3.77-2.77","ayp6u7sqsp63v1g",359,"9.csv","","null","resources/images/coin2.png","null","",NA,NA,NA,NA,""
"image-keyboard-response",245,516348,"0.0-3.78-0.78","ayp6u7sqsp63v1g",359,"9.csv","","2156.2999999523163","resources/trios/L1T4A1.jpg","37","restless",0.5,0.7,0.6,0.159155639983427,"true"
"image-keyboard-response",246,516755,"0.0-3.78-1.78","ayp6u7sqsp63v1g",359,"9.csv","","null","resources/maskTrios/L1BB.jpg","null","",NA,NA,NA,NA,""
"image-keyboard-response",247,517964,"0.0-3.78-2.78","ayp6u7sqsp63v1g",359,"9.csv","","null","resources/images/coin2.png","null","",NA,NA,NA,NA,""
"image-keyboard-response",248,519585,"0.0-3.79-0.79","ayp6u7sqsp63v1g",359,"9.csv","","1619.9000000953674","resources/trios/L1T4A1.jpg","37","restless",0.5,0.7,0.6,0.266680253781493,"true"
"image-keyboard-response",249,519998,"0.0-3.79-1.79","ayp6u7sqsp63v1g",359,"9.csv","","null","resources/maskTrios/L1BB.jpg","null","",NA,NA,NA,NA,""
"image-keyboard-response",250,521213,"0.0-3.79-2.79","ayp6u7sqsp63v1g",359,"9.csv","","null","resources/images/coin2.png","null","",NA,NA,NA,NA,""
"image-keyboard-response",251,522428,"0.0-3.80-0.80","ayp6u7sqsp63v1g",359,"9.csv","","1213.7000000476837","resources/trios/L4T2A3.jpg","38","restless",0.5,0.7,0.6,0.437667816511915,"true"
"image-keyboard-response",252,522845,"0.0-3.80-1.80","ayp6u7sqsp63v1g",359,"9.csv","","null","resources/maskTrios/BT2B.jpg","null","",NA,NA,NA,NA,""
"image-keyboard-response",253,524057,"0.0-3.80-2.80","ayp6u7sqsp63v1g",359,"9.csv","","null","resources/images/coin2.png","null","",NA,NA,NA,NA,""
"image-keyboard-response",254,525480,"0.0-3.81-0.81","ayp6u7sqsp63v1g",359,"9.csv","","1421.7999999523163","resources/trios/L1T2A1.jpg","38","restless",0.5,0.7,0.6,0.392974876351079,"true"
"image-keyboard-response",255,525887,"0.0-3.81-1.81","ayp6u7sqsp63v1g",359,"9.csv","","null","resources/maskTrios/BT2B.jpg","null","",NA,NA,NA,NA,""
"image-keyboard-response",256,527103,"0.0-3.81-2.81","ayp6u7sqsp63v1g",359,"9.csv","","null","resources/images/coin2.png","null","",NA,NA,NA,NA,""
"image-keyboard-response",257,527870,"0.0-3.82-0.82","ayp6u7sqsp63v1g",359,"9.csv","","765.5999999046326","resources/trios/L1T2A1.jpg","39","restless",0.5,0.7,0.6,0.640844578759154,"false"
"image-keyboard-response",258,528287,"0.0-3.82-1.82","ayp6u7sqsp63v1g",359,"9.csv","","null","resources/maskTrios/BBA1.jpg","null","",NA,NA,NA,NA,""
"image-keyboard-response",259,529501,"0.0-3.82-2.82","ayp6u7sqsp63v1g",359,"9.csv","","null","resources/images/fishbone.png","null","",NA,NA,NA,NA,""
"image-keyboard-response",260,531293,"0.0-3.83-0.83","ayp6u7sqsp63v1g",359,"9.csv","","1790","resources/trios/L1T2A1.jpg","38","restless",0.5,0.7,0.6,0.808713109099438,"false"
"image-keyboard-response",261,531705,"0.0-3.83-1.83","ayp6u7sqsp63v1g",359,"9.csv","","null","resources/maskTrios/BT2B.jpg","null","",NA,NA,NA,NA,""
"image-keyboard-response",262,532923,"0.0-3.83-2.83","ayp6u7sqsp63v1g",359,"9.csv","","null","resources/images/fishbone.png","null","",NA,NA,NA,NA,""
"image-keyboard-response",263,534075,"0.0-3.84-0.84","ayp6u7sqsp63v1g",359,"9.csv","","1150.2000000476837","resources/trios/L4T4A3.jpg","38","restless",0.5,0.7,0.6,0.0923461477916949,"true"
"image-keyboard-response",264,534492,"0.0-3.84-1.84","ayp6u7sqsp63v1g",359,"9.csv","","null","resources/maskTrios/BT4B.jpg","null","",NA,NA,NA,NA,""
"image-keyboard-response",265,535703,"0.0-3.84-2.84","ayp6u7sqsp63v1g",359,"9.csv","","null","resources/images/coin2.png","null","",NA,NA,NA,NA,""
"image-keyboard-response",266,536370,"0.0-3.85-0.85","ayp6u7sqsp63v1g",359,"9.csv","","664.7999999523163","resources/trios/L1T2A3.jpg","38","restless",0.5,0.7,0.6,0.106058012928806,"true"
"image-keyboard-response",267,536784,"0.0-3.85-1.85","ayp6u7sqsp63v1g",359,"9.csv","","null","resources/maskTrios/BT2B.jpg","null","",NA,NA,NA,NA,""
"image-keyboard-response",268,538001,"0.0-3.85-2.85","ayp6u7sqsp63v1g",359,"9.csv","","null","resources/images/coin2.png","null","",NA,NA,NA,NA,""
"image-keyboard-response",269,539042,"0.0-3.86-0.86","ayp6u7sqsp63v1g",359,"9.csv","","1038.7000000476837","resources/trios/L4T2A1.jpg","37","restless",0.5,0.7,0.6,0.430904366137311,"true"
"image-keyboard-response",270,539448,"0.0-3.86-1.86","ayp6u7sqsp63v1g",359,"9.csv","","null","resources/maskTrios/L4BB.jpg","null","",NA,NA,NA,NA,""
"image-keyboard-response",271,540658,"0.0-3.86-2.86","ayp6u7sqsp63v1g",359,"9.csv","","null","resources/images/coin2.png","null","",NA,NA,NA,NA,""
"image-keyboard-response",272,544091,"0.0-3.87-0.87","ayp6u7sqsp63v1g",359,"9.csv","","3431.2000000476837","resources/trios/L1T4A3.jpg","38","restless",0.5,0.7,0.6,0.096645968713035,"true"
"image-keyboard-response",273,544505,"0.0-3.87-1.87","ayp6u7sqsp63v1g",359,"9.csv","","null","resources/maskTrios/BT4B.jpg","null","",NA,NA,NA,NA,""
"image-keyboard-response",274,545722,"0.0-3.87-2.87","ayp6u7sqsp63v1g",359,"9.csv","","null","resources/images/coin2.png","null","",NA,NA,NA,NA,""
"image-keyboard-response",275,546847,"0.0-3.88-0.88","ayp6u7sqsp63v1g",359,"9.csv","","1124.1000001430511","resources/trios/L4T2A1.jpg","38","restless",0.5,0.7,0.6,0.916476411327123,"false"
"image-keyboard-response",276,547258,"0.0-3.88-1.88","ayp6u7sqsp63v1g",359,"9.csv","","null","resources/maskTrios/BT2B.jpg","null","",NA,NA,NA,NA,""
"image-keyboard-response",277,548471,"0.0-3.88-2.88","ayp6u7sqsp63v1g",359,"9.csv","","null","resources/images/fishbone.png","null","",NA,NA,NA,NA,""
"image-keyboard-response",278,549789,"0.0-3.89-0.89","ayp6u7sqsp63v1g",359,"9.csv","","1316.2000000476837","resources/trios/L1T2A1.jpg","38","restless",0.5,0.7,0.6,0.10732981734874,"true"
"image-keyboard-response",279,550205,"0.0-3.89-1.89","ayp6u7sqsp63v1g",359,"9.csv","","null","resources/maskTrios/BT2B.jpg","null","",NA,NA,NA,NA,""
"image-keyboard-response",280,551428,"0.0-3.89-2.89","ayp6u7sqsp63v1g",359,"9.csv","","null","resources/images/coin2.png","null","",NA,NA,NA,NA,""
"image-keyboard-response",281,552329,"0.0-3.90-0.90","ayp6u7sqsp63v1g",359,"9.csv","","898.4000000953674","resources/trios/L4T4A3.jpg","37","restless",0.5,0.7,0.6,0.46766242077945,"true"
"image-keyboard-response",282,552746,"0.0-3.90-1.90","ayp6u7sqsp63v1g",359,"9.csv","","null","resources/maskTrios/L4BB.jpg","null","",NA,NA,NA,NA,""
"image-keyboard-response",283,553952,"0.0-3.90-2.90","ayp6u7sqsp63v1g",359,"9.csv","","null","resources/images/coin2.png","null","",NA,NA,NA,NA,""
"image-keyboard-response",284,556125,"0.0-3.91-0.91","ayp6u7sqsp63v1g",359,"9.csv","","2171.800000190735","resources/trios/L1T2A3.jpg","39","restless",0.5,0.7,0.6,0.0464683128293313,"true"
"image-keyboard-response",285,556545,"0.0-3.91-1.91","ayp6u7sqsp63v1g",359,"9.csv","","null","resources/maskTrios/BBA3.jpg","null","",NA,NA,NA,NA,""
"image-keyboard-response",286,557762,"0.0-3.91-2.91","ayp6u7sqsp63v1g",359,"9.csv","","null","resources/images/coin2.png","null","",NA,NA,NA,NA,""
"image-keyboard-response",287,563753,"0.0-3.92-0.92","ayp6u7sqsp63v1g",359,"9.csv","","5989.399999856949","resources/trios/L1T2A1.jpg","37","restless",0.5,0.7,0.6,0.706735318050083,"false"
"image-keyboard-response",288,564166,"0.0-3.92-1.92","ayp6u7sqsp63v1g",359,"9.csv","","null","resources/maskTrios/L1BB.jpg","null","",NA,NA,NA,NA,""
"image-keyboard-response",289,565375,"0.0-3.92-2.92","ayp6u7sqsp63v1g",359,"9.csv","","null","resources/images/fishbone.png","null","",NA,NA,NA,NA,""
"image-keyboard-response",290,566519,"0.0-3.93-0.93","ayp6u7sqsp63v1g",359,"9.csv","","1142.2000000476837","resources/trios/L4T4A1.jpg","38","restless",0.4,0.7,0.6,0.173815899882856,"true"
"image-keyboard-response",291,566935,"0.0-3.93-1.93","ayp6u7sqsp63v1g",359,"9.csv","","null","resources/maskTrios/BT4B.jpg","null","",NA,NA,NA,NA,""
"image-keyboard-response",292,568154,"0.0-3.93-2.93","ayp6u7sqsp63v1g",359,"9.csv","","null","resources/images/coin2.png","null","",NA,NA,NA,NA,""
"image-keyboard-response",293,569666,"0.0-3.94-0.94","ayp6u7sqsp63v1g",359,"9.csv","","1510.6000001430511","resources/trios/L1T2A1.jpg","37","restless",0.4,0.7,0.6,0.879434580664329,"false"
"image-keyboard-response",294,570070,"0.0-3.94-1.94","ayp6u7sqsp63v1g",359,"9.csv","","null","resources/maskTrios/L1BB.jpg","null","",NA,NA,NA,NA,""
"image-keyboard-response",295,571286,"0.0-3.94-2.94","ayp6u7sqsp63v1g",359,"9.csv","","null","resources/images/fishbone.png","null","",NA,NA,NA,NA,""
"image-keyboard-response",296,571779,"0.0-3.95-0.95","ayp6u7sqsp63v1g",359,"9.csv","","492.10000014305115","resources/trios/L1T2A1.jpg","38","restless",0.4,0.6,0.6,0.934826759428675,"false"
"image-keyboard-response",297,572194,"0.0-3.95-1.95","ayp6u7sqsp63v1g",359,"9.csv","","null","resources/maskTrios/BT2B.jpg","null","",NA,NA,NA,NA,""
"image-keyboard-response",298,573397,"0.0-3.95-2.95","ayp6u7sqsp63v1g",359,"9.csv","","null","resources/images/fishbone.png","null","",NA,NA,NA,NA,""
"image-keyboard-response",299,574787,"0.0-3.96-0.96","ayp6u7sqsp63v1g",359,"9.csv","","1388.2000000476837","resources/trios/L1T2A1.jpg","37","restless",0.4,0.6,0.6,0.191617724923713,"true"
"image-keyboard-response",300,575196,"0.0-3.96-1.96","ayp6u7sqsp63v1g",359,"9.csv","","null","resources/maskTrios/L1BB.jpg","null","",NA,NA,NA,NA,""
"image-keyboard-response",301,576408,"0.0-3.96-2.96","ayp6u7sqsp63v1g",359,"9.csv","","null","resources/images/coin2.png","null","",NA,NA,NA,NA,""
"image-keyboard-response",302,577016,"0.0-3.97-0.97","ayp6u7sqsp63v1g",359,"9.csv","","607.5","resources/trios/L1T2A1.jpg","38","restless",0.4,0.6,0.6,0.359537514366859,"true"
"image-keyboard-response",303,577432,"0.0-3.97-1.97","ayp6u7sqsp63v1g",359,"9.csv","","null","resources/maskTrios/BT2B.jpg","null","",NA,NA,NA,NA,""
"image-keyboard-response",304,578648,"0.0-3.97-2.97","ayp6u7sqsp63v1g",359,"9.csv","","null","resources/images/coin2.png","null","",NA,NA,NA,NA,""
"image-keyboard-response",305,579018,"0.0-3.98-0.98","ayp6u7sqsp63v1g",359,"9.csv","","368","resources/trios/L4T4A3.jpg","38","restless",0.4,0.6,0.6,0.0491729499596136,"true"
"image-keyboard-response",306,579430,"0.0-3.98-1.98","ayp6u7sqsp63v1g",359,"9.csv","","null","resources/maskTrios/BT4B.jpg","null","",NA,NA,NA,NA,""
"image-keyboard-response",307,580645,"0.0-3.98-2.98","ayp6u7sqsp63v1g",359,"9.csv","","null","resources/images/coin2.png","null","",NA,NA,NA,NA,""
"image-keyboard-response",308,581390,"0.0-3.99-0.99","ayp6u7sqsp63v1g",359,"9.csv","","743","resources/trios/L1T4A1.jpg","37","restless",0.4,0.6,0.6,0.900356713071809,"false"
"image-keyboard-response",309,581802,"0.0-3.99-1.99","ayp6u7sqsp63v1g",359,"9.csv","","null","resources/maskTrios/L1BB.jpg","null","",NA,NA,NA,NA,""
"image-keyboard-response",310,583005,"0.0-3.99-2.99","ayp6u7sqsp63v1g",359,"9.csv","","null","resources/images/fishbone.png","null","",NA,NA,NA,NA,""
"image-keyboard-response",311,584056,"0.0-3.100-0.100","ayp6u7sqsp63v1g",359,"9.csv","","1049.6000001430511","resources/trios/L4T2A1.jpg","38","restless",0.4,0.5,0.6,0.825071879878386,"false"
"image-keyboard-response",312,584465,"0.0-3.100-1.100","ayp6u7sqsp63v1g",359,"9.csv","","null","resources/maskTrios/BT2B.jpg","null","",NA,NA,NA,NA,""
"image-keyboard-response",313,585676,"0.0-3.100-2.100","ayp6u7sqsp63v1g",359,"9.csv","","null","resources/images/fishbone.png","null","",NA,NA,NA,NA,""
"image-keyboard-response",314,587099,"0.0-3.101-0.101","ayp6u7sqsp63v1g",359,"9.csv","","1421.2999999523163","resources/trios/L1T4A3.jpg","37","restless",0.4,0.5,0.6,0.427080855212128,"false"
"image-keyboard-response",315,587512,"0.0-3.101-1.101","ayp6u7sqsp63v1g",359,"9.csv","","null","resources/maskTrios/L1BB.jpg","null","",NA,NA,NA,NA,""
"image-keyboard-response",316,588720,"0.0-3.101-2.101","ayp6u7sqsp63v1g",359,"9.csv","","null","resources/images/fishbone.png","null","",NA,NA,NA,NA,""
"image-keyboard-response",317,591164,"0.0-3.102-0.102","ayp6u7sqsp63v1g",359,"9.csv","","2442.5","resources/trios/L4T2A3.jpg","39","restless",0.4,0.5,0.6,0.969003797873269,"false"
"image-keyboard-response",318,591584,"0.0-3.102-1.102","ayp6u7sqsp63v1g",359,"9.csv","","null","resources/maskTrios/BBA3.jpg","null","",NA,NA,NA,NA,""
"image-keyboard-response",319,592805,"0.0-3.102-2.102","ayp6u7sqsp63v1g",359,"9.csv","","null","resources/images/fishbone.png","null","",NA,NA,NA,NA,""
"image-keyboard-response",320,593398,"0.0-3.103-0.103","ayp6u7sqsp63v1g",359,"9.csv","","591.0999999046326","resources/trios/L4T4A3.jpg","38","restless",0.4,0.5,0.6,0.0760157381458542,"true"
"image-keyboard-response",321,593815,"0.0-3.103-1.103","ayp6u7sqsp63v1g",359,"9.csv","","null","resources/maskTrios/BT4B.jpg","null","",NA,NA,NA,NA,""
"image-keyboard-response",322,595035,"0.0-3.103-2.103","ayp6u7sqsp63v1g",359,"9.csv","","null","resources/images/coin2.png","null","",NA,NA,NA,NA,""
"image-keyboard-response",323,596231,"0.0-3.104-0.104","ayp6u7sqsp63v1g",359,"9.csv","","1194.7000000476837","resources/trios/L4T2A3.jpg","38","restless",0.4,0.5,0.6,0.998058725216963,"false"
"image-keyboard-response",324,596640,"0.0-3.104-1.104","ayp6u7sqsp63v1g",359,"9.csv","","null","resources/maskTrios/BT2B.jpg","null","",NA,NA,NA,NA,""
"image-keyboard-response",325,597861,"0.0-3.104-2.104","ayp6u7sqsp63v1g",359,"9.csv","","null","resources/images/fishbone.png","null","",NA,NA,NA,NA,""
"image-keyboard-response",326,599756,"0.0-3.105-0.105","ayp6u7sqsp63v1g",359,"9.csv","","1893.8999998569489","resources/trios/L1T2A3.jpg","38","restless",0.5,0.5,0.6,0.964998017282003,"false"
"image-keyboard-response",327,600170,"0.0-3.105-1.105","ayp6u7sqsp63v1g",359,"9.csv","","null","resources/maskTrios/BT2B.jpg","null","",NA,NA,NA,NA,""
"image-keyboard-response",328,601385,"0.0-3.105-2.105","ayp6u7sqsp63v1g",359,"9.csv","","null","resources/images/fishbone.png","null","",NA,NA,NA,NA,""
"image-keyboard-response",329,604176,"0.0-3.106-0.106","ayp6u7sqsp63v1g",359,"9.csv","","2789.7000000476837","resources/trios/L4T4A3.jpg","38","restless",0.5,0.5,0.6,0.188774471994418,"true"
"image-keyboard-response",330,604585,"0.0-3.106-1.106","ayp6u7sqsp63v1g",359,"9.csv","","null","resources/maskTrios/BT4B.jpg","null","",NA,NA,NA,NA,""
"image-keyboard-response",331,605800,"0.0-3.106-2.106","ayp6u7sqsp63v1g",359,"9.csv","","null","resources/images/coin2.png","null","",NA,NA,NA,NA,""
"image-keyboard-response",332,607237,"0.0-3.107-0.107","ayp6u7sqsp63v1g",359,"9.csv","","1435.4000000953674","resources/trios/L4T2A1.jpg","38","restless",0.5,0.5,0.6,0.0824161270348154,"true"
"image-keyboard-response",333,607653,"0.0-3.107-1.107","ayp6u7sqsp63v1g",359,"9.csv","","null","resources/maskTrios/BT2B.jpg","null","",NA,NA,NA,NA,""
"image-keyboard-response",334,608864,"0.0-3.107-2.107","ayp6u7sqsp63v1g",359,"9.csv","","null","resources/images/coin2.png","null","",NA,NA,NA,NA,""
"image-keyboard-response",335,610912,"0.0-3.108-0.108","ayp6u7sqsp63v1g",359,"9.csv","","2045.7000000476837","resources/trios/L4T4A1.jpg","37","restless",0.5,0.5,0.6,0.622282079952622,"false"
"image-keyboard-response",336,611319,"0.0-3.108-1.108","ayp6u7sqsp63v1g",359,"9.csv","","null","resources/maskTrios/L4BB.jpg","null","",NA,NA,NA,NA,""
"image-keyboard-response",337,612535,"0.0-3.108-2.108","ayp6u7sqsp63v1g",359,"9.csv","","null","resources/images/fishbone.png","null","",NA,NA,NA,NA,""
"image-keyboard-response",338,613881,"0.0-3.109-0.109","ayp6u7sqsp63v1g",359,"9.csv","","1344.7000000476837","resources/trios/L1T4A3.jpg","38","restless",0.5,0.5,0.6,0.123357161744431,"true"
"image-keyboard-response",339,614301,"0.0-3.109-1.109","ayp6u7sqsp63v1g",359,"9.csv","","null","resources/maskTrios/BT4B.jpg","null","",NA,NA,NA,NA,""
"image-keyboard-response",340,615512,"0.0-3.109-2.109","ayp6u7sqsp63v1g",359,"9.csv","","null","resources/images/coin2.png","null","",NA,NA,NA,NA,""
"image-keyboard-response",341,616492,"0.0-3.110-0.110","ayp6u7sqsp63v1g",359,"9.csv","","978.0999999046326","resources/trios/L1T2A3.jpg","38","restless",0.5,0.5,0.6,0.296519196081392,"true"
"image-keyboard-response",342,616895,"0.0-3.110-1.110","ayp6u7sqsp63v1g",359,"9.csv","","null","resources/maskTrios/BT2B.jpg","null","",NA,NA,NA,NA,""
"image-keyboard-response",343,618110,"0.0-3.110-2.110","ayp6u7sqsp63v1g",359,"9.csv","","null","resources/images/coin2.png","null","",NA,NA,NA,NA,""
"image-keyboard-response",344,620477,"0.0-3.111-0.111","ayp6u7sqsp63v1g",359,"9.csv","","2365.2999999523163","resources/trios/L4T2A1.jpg","39","restless",0.5,0.5,0.6,0.346801962510807,"true"
"image-keyboard-response",345,620892,"0.0-3.111-1.111","ayp6u7sqsp63v1g",359,"9.csv","","null","resources/maskTrios/BBA1.jpg","null","",NA,NA,NA,NA,""
"image-keyboard-response",346,622114,"0.0-3.111-2.111","ayp6u7sqsp63v1g",359,"9.csv","","null","resources/images/coin2.png","null","",NA,NA,NA,NA,""
"image-keyboard-response",347,625263,"0.0-3.112-0.112","ayp6u7sqsp63v1g",359,"9.csv","","3146.7999999523163","resources/trios/L1T4A3.jpg","37","restless",0.4,0.5,0.6,0.835603693296027,"false"
"image-keyboard-response",348,625676,"0.0-3.112-1.112","ayp6u7sqsp63v1g",359,"9.csv","","null","resources/maskTrios/L1BB.jpg","null","",NA,NA,NA,NA,""
"image-keyboard-response",349,626889,"0.0-3.112-2.112","ayp6u7sqsp63v1g",359,"9.csv","","null","resources/images/fishbone.png","null","",NA,NA,NA,NA,""
"image-keyboard-response",350,629347,"0.0-3.113-0.113","ayp6u7sqsp63v1g",359,"9.csv","","2456.7999999523163","resources/trios/L4T4A1.jpg","38","restless",0.4,0.5,0.6,0.792934293946109,"false"
"image-keyboard-response",351,629752,"0.0-3.113-1.113","ayp6u7sqsp63v1g",359,"9.csv","","null","resources/maskTrios/BT4B.jpg","null","",NA,NA,NA,NA,""
"image-keyboard-response",352,630969,"0.0-3.113-2.113","ayp6u7sqsp63v1g",359,"9.csv","","null","resources/images/fishbone.png","null","",NA,NA,NA,NA,""
"image-keyboard-response",353,631341,"0.0-3.114-0.114","ayp6u7sqsp63v1g",359,"9.csv","","369.90000009536743","resources/trios/L4T4A3.jpg","37","restless",0.3,0.5,0.6,0.19454457540945,"true"
"image-keyboard-response",354,631764,"0.0-3.114-1.114","ayp6u7sqsp63v1g",359,"9.csv","","null","resources/maskTrios/L4BB.jpg","null","",NA,NA,NA,NA,""
"image-keyboard-response",355,632983,"0.0-3.114-2.114","ayp6u7sqsp63v1g",359,"9.csv","","null","resources/images/coin2.png","null","",NA,NA,NA,NA,""
"image-keyboard-response",356,634519,"0.0-3.115-0.115","ayp6u7sqsp63v1g",359,"9.csv","","1533.7000000476837","resources/trios/L1T2A3.jpg","38","restless",0.3,0.5,0.7,0.622294988474085,"false"
"image-keyboard-response",357,634927,"0.0-3.115-1.115","ayp6u7sqsp63v1g",359,"9.csv","","null","resources/maskTrios/BT2B.jpg","null","",NA,NA,NA,NA,""
"image-keyboard-response",358,636147,"0.0-3.115-2.115","ayp6u7sqsp63v1g",359,"9.csv","","null","resources/images/fishbone.png","null","",NA,NA,NA,NA,""
"image-keyboard-response",359,636567,"0.0-3.116-0.116","ayp6u7sqsp63v1g",359,"9.csv","","418.89999985694885","resources/trios/L4T4A1.jpg","37","restless",0.3,0.5,0.7,0.236331803016754,"true"
"image-keyboard-response",360,636982,"0.0-3.116-1.116","ayp6u7sqsp63v1g",359,"9.csv","","null","resources/maskTrios/L4BB.jpg","null","",NA,NA,NA,NA,""
"image-keyboard-response",361,638193,"0.0-3.116-2.116","ayp6u7sqsp63v1g",359,"9.csv","","null","resources/images/coin2.png","null","",NA,NA,NA,NA,""
"image-keyboard-response",362,638598,"0.0-3.117-0.117","ayp6u7sqsp63v1g",359,"9.csv","","402.7000000476837","resources/trios/L4T4A1.jpg","37","restless",0.3,0.5,0.7,0.268451870121795,"true"
"image-keyboard-response",363,639010,"0.0-3.117-1.117","ayp6u7sqsp63v1g",359,"9.csv","","null","resources/maskTrios/L4BB.jpg","null","",NA,NA,NA,NA,""
"image-keyboard-response",364,640219,"0.0-3.117-2.117","ayp6u7sqsp63v1g",359,"9.csv","","null","resources/images/coin2.png","null","",NA,NA,NA,NA,""
"image-keyboard-response",365,640931,"0.0-3.118-0.118","ayp6u7sqsp63v1g",359,"9.csv","","711","resources/trios/L1T2A1.jpg","37","restless",0.4,0.5,0.7,0.0262564894960438,"true"
"image-keyboard-response",366,641347,"0.0-3.118-1.118","ayp6u7sqsp63v1g",359,"9.csv","","null","resources/maskTrios/L1BB.jpg","null","",NA,NA,NA,NA,""
"image-keyboard-response",367,642551,"0.0-3.118-2.118","ayp6u7sqsp63v1g",359,"9.csv","","null","resources/images/coin2.png","null","",NA,NA,NA,NA,""
"image-keyboard-response",368,642878,"0.0-3.119-0.119","ayp6u7sqsp63v1g",359,"9.csv","","325.90000009536743","resources/trios/L1T4A3.jpg","37","restless",0.4,0.5,0.8,0.791871975999653,"false"
"image-keyboard-response",369,643291,"0.0-3.119-1.119","ayp6u7sqsp63v1g",359,"9.csv","","null","resources/maskTrios/L1BB.jpg","null","",NA,NA,NA,NA,""
"image-keyboard-response",370,644503,"0.0-3.119-2.119","ayp6u7sqsp63v1g",359,"9.csv","","null","resources/images/fishbone.png","null","",NA,NA,NA,NA,""
"image-keyboard-response",371,645909,"0.0-3.120-0.120","ayp6u7sqsp63v1g",359,"9.csv","","1404.3999998569489","resources/trios/L1T2A3.jpg","37","restless",0.4,0.5,0.8,0.310637414524996,"true"
"image-keyboard-response",372,646326,"0.0-3.120-1.120","ayp6u7sqsp63v1g",359,"9.csv","","null","resources/maskTrios/L1BB.jpg","null","",NA,NA,NA,NA,""
"image-keyboard-response",373,647550,"0.0-3.120-2.120","ayp6u7sqsp63v1g",359,"9.csv","","null","resources/images/coin2.png","null","",NA,NA,NA,NA,""
"image-keyboard-response",374,648158,"0.0-3.121-0.121","ayp6u7sqsp63v1g",359,"9.csv","","606.4000000953674","resources/trios/L4T4A3.jpg","37","restless",0.4,0.5,0.8,0.395528787473729,"true"
"image-keyboard-response",375,648574,"0.0-3.121-1.121","ayp6u7sqsp63v1g",359,"9.csv","","null","resources/maskTrios/L4BB.jpg","null","",NA,NA,NA,NA,""
"image-keyboard-response",376,649789,"0.0-3.121-2.121","ayp6u7sqsp63v1g",359,"9.csv","","null","resources/images/coin2.png","null","",NA,NA,NA,NA,""
"image-keyboard-response",377,650402,"0.0-3.122-0.122","ayp6u7sqsp63v1g",359,"9.csv","","611.0999999046326","resources/trios/L4T2A1.jpg","38","restless",0.5,0.5,0.8,0.0738368954781803,"true"
"image-keyboard-response",378,650812,"0.0-3.122-1.122","ayp6u7sqsp63v1g",359,"9.csv","","null","resources/maskTrios/BT2B.jpg","null","",NA,NA,NA,NA,""
"image-keyboard-response",379,652025,"0.0-3.122-2.122","ayp6u7sqsp63v1g",359,"9.csv","","null","resources/images/coin2.png","null","",NA,NA,NA,NA,""
"image-keyboard-response",380,652714,"0.0-3.123-0.123","ayp6u7sqsp63v1g",359,"9.csv","","686.9000000953674","resources/trios/L4T2A1.jpg","38","restless",0.5,0.5,0.8,0.32696329991691,"true"
"image-keyboard-response",381,653126,"0.0-3.123-1.123","ayp6u7sqsp63v1g",359,"9.csv","","null","resources/maskTrios/BT2B.jpg","null","",NA,NA,NA,NA,""
"image-keyboard-response",382,654342,"0.0-3.123-2.123","ayp6u7sqsp63v1g",359,"9.csv","","null","resources/images/coin2.png","null","",NA,NA,NA,NA,""
"image-keyboard-response",383,654921,"0.0-3.124-0.124","ayp6u7sqsp63v1g",359,"9.csv","","578.2999999523163","resources/trios/L4T4A3.jpg","37","restless",0.6,0.5,0.8,0.851672567960965,"false"
"image-keyboard-response",384,655341,"0.0-3.124-1.124","ayp6u7sqsp63v1g",359,"9.csv","","null","resources/maskTrios/L4BB.jpg","null","",NA,NA,NA,NA,""
"image-keyboard-response",385,656564,"0.0-3.124-2.124","ayp6u7sqsp63v1g",359,"9.csv","","null","resources/images/fishbone.png","null","",NA,NA,NA,NA,""
"image-keyboard-response",386,658864,"0.0-3.125-0.125","ayp6u7sqsp63v1g",359,"9.csv","","2298.5999999046326","resources/trios/L4T4A1.jpg","37","restless",0.6,0.5,0.8,0.929802389637432,"false"
"image-keyboard-response",387,659271,"0.0-3.125-1.125","ayp6u7sqsp63v1g",359,"9.csv","","null","resources/maskTrios/L4BB.jpg","null","",NA,NA,NA,NA,""
"image-keyboard-response",388,660481,"0.0-3.125-2.125","ayp6u7sqsp63v1g",359,"9.csv","","null","resources/images/fishbone.png","null","",NA,NA,NA,NA,""
"image-keyboard-response",389,661044,"0.0-3.126-0.126","ayp6u7sqsp63v1g",359,"9.csv","","561.7999999523163","resources/trios/L1T4A3.jpg","37","restless",0.6,0.5,0.8,0.85582368410732,"false"
"image-keyboard-response",390,661453,"0.0-3.126-1.126","ayp6u7sqsp63v1g",359,"9.csv","","null","resources/maskTrios/L1BB.jpg","null","",NA,NA,NA,NA,""
"image-keyboard-response",391,662674,"0.0-3.126-2.126","ayp6u7sqsp63v1g",359,"9.csv","","null","resources/images/fishbone.png","null","",NA,NA,NA,NA,""
"image-keyboard-response",392,663424,"0.0-3.127-0.127","ayp6u7sqsp63v1g",359,"9.csv","","747.8999998569489","resources/trios/L4T2A1.jpg","37","restless",0.6,0.5,0.8,0.86432500186684,"false"
"image-keyboard-response",393,663838,"0.0-3.127-1.127","ayp6u7sqsp63v1g",359,"9.csv","","null","resources/maskTrios/L4BB.jpg","null","",NA,NA,NA,NA,""
"image-keyboard-response",394,665052,"0.0-3.127-2.127","ayp6u7sqsp63v1g",359,"9.csv","","null","resources/images/fishbone.png","null","",NA,NA,NA,NA,""
"image-keyboard-response",395,665358,"0.0-3.128-0.128","ayp6u7sqsp63v1g",359,"9.csv","","304.7000000476837","resources/trios/L4T4A1.jpg","38","restless",0.6,0.4,0.8,0.559779362355393,"false"
"image-keyboard-response",396,665782,"0.0-3.128-1.128","ayp6u7sqsp63v1g",359,"9.csv","","null","resources/maskTrios/BT4B.jpg","null","",NA,NA,NA,NA,""
"image-keyboard-response",397,666985,"0.0-3.128-2.128","ayp6u7sqsp63v1g",359,"9.csv","","null","resources/images/fishbone.png","null","",NA,NA,NA,NA,""
"image-keyboard-response",398,667369,"0.0-3.129-0.129","ayp6u7sqsp63v1g",359,"9.csv","","382.30000019073486","resources/trios/L4T2A3.jpg","37","restless",0.6,0.4,0.8,0.91879140938061,"false"
"image-keyboard-response",399,667780,"0.0-3.129-1.129","ayp6u7sqsp63v1g",359,"9.csv","","null","resources/maskTrios/L4BB.jpg","null","",NA,NA,NA,NA,""
"image-keyboard-response",400,668985,"0.0-3.129-2.129","ayp6u7sqsp63v1g",359,"9.csv","","null","resources/images/fishbone.png","null","",NA,NA,NA,NA,""
"image-keyboard-response",401,669806,"0.0-3.130-0.130","ayp6u7sqsp63v1g",359,"9.csv","","819","resources/trios/L1T2A3.jpg","37","restless",0.6,0.4,0.8,0.955860266575821,"false"
"image-keyboard-response",402,670227,"0.0-3.130-1.130","ayp6u7sqsp63v1g",359,"9.csv","","null","resources/maskTrios/L1BB.jpg","null","",NA,NA,NA,NA,""
"image-keyboard-response",403,671444,"0.0-3.130-2.130","ayp6u7sqsp63v1g",359,"9.csv","","null","resources/images/fishbone.png","null","",NA,NA,NA,NA,""
"image-keyboard-response",404,671759,"0.0-3.131-0.131","ayp6u7sqsp63v1g",359,"9.csv","","313.59999990463257","resources/trios/L1T4A3.jpg","39","restless",0.6,0.4,0.8,0.228019668533589,"true"
"image-keyboard-response",405,672166,"0.0-3.131-1.131","ayp6u7sqsp63v1g",359,"9.csv","","null","resources/maskTrios/BBA3.jpg","null","",NA,NA,NA,NA,""
"image-keyboard-response",406,673389,"0.0-3.131-2.131","ayp6u7sqsp63v1g",359,"9.csv","","null","resources/images/coin2.png","null","",NA,NA,NA,NA,""
"image-keyboard-response",407,673949,"0.0-3.132-0.132","ayp6u7sqsp63v1g",359,"9.csv","","557.9000000953674","resources/trios/L1T2A1.jpg","39","restless",0.6,0.4,0.8,0.107720377456964,"true"
"image-keyboard-response",408,674363,"0.0-3.132-1.132","ayp6u7sqsp63v1g",359,"9.csv","","null","resources/maskTrios/BBA1.jpg","null","",NA,NA,NA,NA,""
"image-keyboard-response",409,675572,"0.0-3.132-2.132","ayp6u7sqsp63v1g",359,"9.csv","","null","resources/images/coin2.png","null","",NA,NA,NA,NA,""
"image-keyboard-response",410,677370,"0.0-3.133-0.133","ayp6u7sqsp63v1g",359,"9.csv","","1795.7999999523163","resources/trios/L4T2A1.jpg","38","restless",0.6,0.4,0.8,0.309968107684697,"true"
"image-keyboard-response",411,677776,"0.0-3.133-1.133","ayp6u7sqsp63v1g",359,"9.csv","","null","resources/maskTrios/BT2B.jpg","null","",NA,NA,NA,NA,""
"image-keyboard-response",412,678986,"0.0-3.133-2.133","ayp6u7sqsp63v1g",359,"9.csv","","null","resources/images/coin2.png","null","",NA,NA,NA,NA,""
"image-keyboard-response",413,683600,"0.0-3.134-0.134","ayp6u7sqsp63v1g",359,"9.csv","","4611.799999952316","resources/trios/L1T2A3.jpg","37","restless",0.6,0.3,0.8,0.763572756564833,"false"
"image-keyboard-response",414,684019,"0.0-3.134-1.134","ayp6u7sqsp63v1g",359,"9.csv","","null","resources/maskTrios/L1BB.jpg","null","",NA,NA,NA,NA,""
"image-keyboard-response",415,685223,"0.0-3.134-2.134","ayp6u7sqsp63v1g",359,"9.csv","","null","resources/images/fishbone.png","null","",NA,NA,NA,NA,""
"image-keyboard-response",416,685798,"0.0-3.135-0.135","ayp6u7sqsp63v1g",359,"9.csv","","572.7999999523163","resources/trios/L4T2A3.jpg","38","restless",0.6,0.3,0.8,0.0131614570728436,"true"
"image-keyboard-response",417,686222,"0.0-3.135-1.135","ayp6u7sqsp63v1g",359,"9.csv","","null","resources/maskTrios/BT2B.jpg","null","",NA,NA,NA,NA,""
"image-keyboard-response",418,687431,"0.0-3.135-2.135","ayp6u7sqsp63v1g",359,"9.csv","","null","resources/images/coin2.png","null","",NA,NA,NA,NA,""
"image-keyboard-response",419,688004,"0.0-3.136-0.136","ayp6u7sqsp63v1g",359,"9.csv","","571.1000001430511","resources/trios/L4T4A1.jpg","38","restless",0.6,0.4,0.8,0.164980867880437,"true"
"image-keyboard-response",420,688417,"0.0-3.136-1.136","ayp6u7sqsp63v1g",359,"9.csv","","null","resources/maskTrios/BT4B.jpg","null","",NA,NA,NA,NA,""
"image-keyboard-response",421,689635,"0.0-3.136-2.136","ayp6u7sqsp63v1g",359,"9.csv","","null","resources/images/coin2.png","null","",NA,NA,NA,NA,""
"image-keyboard-response",422,691630,"0.0-3.137-0.137","ayp6u7sqsp63v1g",359,"9.csv","","1993","resources/trios/L4T2A1.jpg","38","restless",0.6,0.4,0.9,0.209634386910979,"true"
"image-keyboard-response",423,692050,"0.0-3.137-1.137","ayp6u7sqsp63v1g",359,"9.csv","","null","resources/maskTrios/BT2B.jpg","null","",NA,NA,NA,NA,""
"image-keyboard-response",424,693260,"0.0-3.137-2.137","ayp6u7sqsp63v1g",359,"9.csv","","null","resources/images/coin2.png","null","",NA,NA,NA,NA,""
"image-keyboard-response",425,696497,"0.0-3.138-0.138","ayp6u7sqsp63v1g",359,"9.csv","","3236.399999856949","resources/trios/L1T4A3.jpg","39","restless",0.6,0.4,0.9,0.840657553827606,"true"
"image-keyboard-response",426,696912,"0.0-3.138-1.138","ayp6u7sqsp63v1g",359,"9.csv","","null","resources/maskTrios/BBA3.jpg","null","",NA,NA,NA,NA,""
"image-keyboard-response",427,698119,"0.0-3.138-2.138","ayp6u7sqsp63v1g",359,"9.csv","","null","resources/images/coin2.png","null","",NA,NA,NA,NA,""
"image-keyboard-response",428,702975,"0.0-3.139-0.139","ayp6u7sqsp63v1g",359,"9.csv","","4855.299999952316","resources/trios/L4T4A1.jpg","37","restless",0.6,0.4,0.9,0.300872371408099,"true"
"image-keyboard-response",429,703384,"0.0-3.139-1.139","ayp6u7sqsp63v1g",359,"9.csv","","null","resources/maskTrios/L4BB.jpg","null","",NA,NA,NA,NA,""
"image-keyboard-response",430,704589,"0.0-3.139-2.139","ayp6u7sqsp63v1g",359,"9.csv","","null","resources/images/coin2.png","null","",NA,NA,NA,NA,""
"image-keyboard-response",431,707304,"0.0-3.140-0.140","ayp6u7sqsp63v1g",359,"9.csv","","2713.4000000953674","resources/trios/L1T2A3.jpg","37","restless",0.6,0.4,0.9,0.287807822743986,"true"
"image-keyboard-response",432,707712,"0.0-3.140-1.140","ayp6u7sqsp63v1g",359,"9.csv","","null","resources/maskTrios/L1BB.jpg","null","",NA,NA,NA,NA,""
"image-keyboard-response",433,708927,"0.0-3.140-2.140","ayp6u7sqsp63v1g",359,"9.csv","","null","resources/images/coin2.png","null","",NA,NA,NA,NA,""
"image-keyboard-response",434,710313,"0.0-3.141-0.141","ayp6u7sqsp63v1g",359,"9.csv","","1384.9000000953674","resources/trios/L1T4A3.jpg","38","restless",0.6,0.4,0.9,0.628284184207152,"false"
"image-keyboard-response",435,710731,"0.0-3.141-1.141","ayp6u7sqsp63v1g",359,"9.csv","","null","resources/maskTrios/BT4B.jpg","null","",NA,NA,NA,NA,""
"image-keyboard-response",436,711947,"0.0-3.141-2.141","ayp6u7sqsp63v1g",359,"9.csv","","null","resources/images/fishbone.png","null","",NA,NA,NA,NA,""
"image-keyboard-response",437,712397,"0.0-3.142-0.142","ayp6u7sqsp63v1g",359,"9.csv","","448.59999990463257","resources/trios/L1T2A1.jpg","37","restless",0.7,0.4,0.9,0.228253918201651,"true"
"image-keyboard-response",438,712819,"0.0-3.142-1.142","ayp6u7sqsp63v1g",359,"9.csv","","null","resources/maskTrios/L1BB.jpg","null","",NA,NA,NA,NA,""
"image-keyboard-response",439,714029,"0.0-3.142-2.142","ayp6u7sqsp63v1g",359,"9.csv","","null","resources/images/coin2.png","null","",NA,NA,NA,NA,""
"image-keyboard-response",440,714517,"0.0-3.143-0.143","ayp6u7sqsp63v1g",359,"9.csv","","486.80000019073486","resources/trios/L1T2A3.jpg","38","restless",0.7,0.4,0.8,0.734114118906239,"false"
"image-keyboard-response",441,714929,"0.0-3.143-1.143","ayp6u7sqsp63v1g",359,"9.csv","","null","resources/maskTrios/BT2B.jpg","null","",NA,NA,NA,NA,""
"image-keyboard-response",442,716136,"0.0-3.143-2.143","ayp6u7sqsp63v1g",359,"9.csv","","null","resources/images/fishbone.png","null","",NA,NA,NA,NA,""
"image-keyboard-response",443,716526,"0.0-3.144-0.144","ayp6u7sqsp63v1g",359,"9.csv","","388.7000000476837","resources/trios/L4T4A1.jpg","37","restless",0.7,0.4,0.8,0.942934356726414,"false"
"image-keyboard-response",444,716943,"0.0-3.144-1.144","ayp6u7sqsp63v1g",359,"9.csv","","null","resources/maskTrios/L4BB.jpg","null","",NA,NA,NA,NA,""
"image-keyboard-response",445,718154,"0.0-3.144-2.144","ayp6u7sqsp63v1g",359,"9.csv","","null","resources/images/fishbone.png","null","",NA,NA,NA,NA,""
"image-keyboard-response",446,719078,"0.0-3.145-0.145","ayp6u7sqsp63v1g",359,"9.csv","","922.8999998569489","resources/trios/L1T2A1.jpg","37","restless",0.7,0.4,0.8,0.142287126674049,"true"
"image-keyboard-response",447,719499,"0.0-3.145-1.145","ayp6u7sqsp63v1g",359,"9.csv","","null","resources/maskTrios/L1BB.jpg","null","",NA,NA,NA,NA,""
"image-keyboard-response",448,720709,"0.0-3.145-2.145","ayp6u7sqsp63v1g",359,"9.csv","","null","resources/images/coin2.png","null","",NA,NA,NA,NA,""
"image-keyboard-response",449,721436,"0.0-3.146-0.146","ayp6u7sqsp63v1g",359,"9.csv","","725.7000000476837","resources/trios/L1T4A1.jpg","37","restless",0.7,0.4,0.8,0.61131426939798,"true"
"image-keyboard-response",450,721852,"0.0-3.146-1.146","ayp6u7sqsp63v1g",359,"9.csv","","null","resources/maskTrios/L1BB.jpg","null","",NA,NA,NA,NA,""
"image-keyboard-response",451,723063,"0.0-3.146-2.146","ayp6u7sqsp63v1g",359,"9.csv","","null","resources/images/coin2.png","null","",NA,NA,NA,NA,""
"image-keyboard-response",452,724763,"0.0-3.147-0.147","ayp6u7sqsp63v1g",359,"9.csv","","1698.7000000476837","resources/trios/L4T4A3.jpg","38","restless",0.7,0.4,0.8,0.405442731120031,"false"
"image-keyboard-response",453,725179,"0.0-3.147-1.147","ayp6u7sqsp63v1g",359,"9.csv","","null","resources/maskTrios/BT4B.jpg","null","",NA,NA,NA,NA,""
"image-keyboard-response",454,726384,"0.0-3.147-2.147","ayp6u7sqsp63v1g",359,"9.csv","","null","resources/images/fishbone.png","null","",NA,NA,NA,NA,""
"image-keyboard-response",455,728728,"0.0-3.148-0.148","ayp6u7sqsp63v1g",359,"9.csv","","2342.5","resources/trios/L1T2A3.jpg","37","restless",0.7,0.4,0.9,0.0941035455861712,"true"
"image-keyboard-response",456,729146,"0.0-3.148-1.148","ayp6u7sqsp63v1g",359,"9.csv","","null","resources/maskTrios/L1BB.jpg","null","",NA,NA,NA,NA,""
"image-keyboard-response",457,730363,"0.0-3.148-2.148","ayp6u7sqsp63v1g",359,"9.csv","","null","resources/images/coin2.png","null","",NA,NA,NA,NA,""
"image-keyboard-response",458,730813,"0.0-3.149-0.149","ayp6u7sqsp63v1g",359,"9.csv","","449.2999999523163","resources/trios/L1T2A3.jpg","37","restless",0.7,0.4,0.9,0.31009999589642,"true"
"image-keyboard-response",459,731226,"0.0-3.149-1.149","ayp6u7sqsp63v1g",359,"9.csv","","null","resources/maskTrios/L1BB.jpg","null","",NA,NA,NA,NA,""
"image-keyboard-response",460,732431,"0.0-3.149-2.149","ayp6u7sqsp63v1g",359,"9.csv","","null","resources/images/coin2.png","null","",NA,NA,NA,NA,""
"image-keyboard-response",461,733882,"0.0-3.150-0.150","ayp6u7sqsp63v1g",359,"9.csv","","1448.9000000953674","resources/trios/L1T4A3.jpg","37","restless",0.7,0.4,0.8,0.656677215333894,"true"
"image-keyboard-response",462,734295,"0.0-3.150-1.150","ayp6u7sqsp63v1g",359,"9.csv","","null","resources/maskTrios/L1BB.jpg","null","",NA,NA,NA,NA,""
"image-keyboard-response",463,735507,"0.0-3.150-2.150","ayp6u7sqsp63v1g",359,"9.csv","","null","resources/images/coin2.png","null","",NA,NA,NA,NA,""
"image-keyboard-response",464,736432,"0.0-3.151-0.151","ayp6u7sqsp63v1g",359,"9.csv","","923.5","resources/trios/L1T4A1.jpg","37","restless",0.7,0.4,0.8,0.884367848386601,"false"
"image-keyboard-response",465,736845,"0.0-3.151-1.151","ayp6u7sqsp63v1g",359,"9.csv","","null","resources/maskTrios/L1BB.jpg","null","",NA,NA,NA,NA,""
"image-keyboard-response",466,738058,"0.0-3.151-2.151","ayp6u7sqsp63v1g",359,"9.csv","","null","resources/images/fishbone.png","null","",NA,NA,NA,NA,""
"image-keyboard-response",467,741352,"0.0-3.152-0.152","ayp6u7sqsp63v1g",359,"9.csv","","3293.100000143051","resources/trios/L4T4A1.jpg","38","restless",0.6,0.4,0.7,0.808118207561936,"false"
"image-keyboard-response",468,741762,"0.0-3.152-1.152","ayp6u7sqsp63v1g",359,"9.csv","","null","resources/maskTrios/BT4B.jpg","null","",NA,NA,NA,NA,""
"image-keyboard-response",469,742970,"0.0-3.152-2.152","ayp6u7sqsp63v1g",359,"9.csv","","null","resources/images/fishbone.png","null","",NA,NA,NA,NA,""
"image-keyboard-response",470,744017,"0.0-3.153-0.153","ayp6u7sqsp63v1g",359,"9.csv","","1046.1000001430511","resources/trios/L4T2A3.jpg","39","restless",0.6,0.4,0.7,0.528502435411242,"true"
"image-keyboard-response",471,744434,"0.0-3.153-1.153","ayp6u7sqsp63v1g",359,"9.csv","","null","resources/maskTrios/BBA3.jpg","null","",NA,NA,NA,NA,""
"image-keyboard-response",472,745652,"0.0-3.153-2.153","ayp6u7sqsp63v1g",359,"9.csv","","null","resources/images/coin2.png","null","",NA,NA,NA,NA,""
"image-keyboard-response",473,746949,"0.0-3.154-0.154","ayp6u7sqsp63v1g",359,"9.csv","","1296.2999999523163","resources/trios/L4T2A3.jpg","38","restless",0.6,0.4,0.7,0.86100683274215,"false"
"image-keyboard-response",474,747368,"0.0-3.154-1.154","ayp6u7sqsp63v1g",359,"9.csv","","null","resources/maskTrios/BT2B.jpg","null","",NA,NA,NA,NA,""
"image-keyboard-response",475,748589,"0.0-3.154-2.154","ayp6u7sqsp63v1g",359,"9.csv","","null","resources/images/fishbone.png","null","",NA,NA,NA,NA,""
"image-keyboard-response",476,749781,"0.0-3.155-0.155","ayp6u7sqsp63v1g",359,"9.csv","","1190.6999998092651","resources/trios/L1T2A1.jpg","38","restless",0.6,0.4,0.7,0.943106176329522,"false"
"image-keyboard-response",477,750198,"0.0-3.155-1.155","ayp6u7sqsp63v1g",359,"9.csv","","null","resources/maskTrios/BT2B.jpg","null","",NA,NA,NA,NA,""
"image-keyboard-response",478,751419,"0.0-3.155-2.155","ayp6u7sqsp63v1g",359,"9.csv","","null","resources/images/fishbone.png","null","",NA,NA,NA,NA,""
"image-keyboard-response",479,751820,"0.0-3.156-0.156","ayp6u7sqsp63v1g",359,"9.csv","","399.5","resources/trios/L1T4A1.jpg","37","restless",0.6,0.4,0.7,0.642003565725237,"false"
"image-keyboard-response",480,752230,"0.0-3.156-1.156","ayp6u7sqsp63v1g",359,"9.csv","","null","resources/maskTrios/L1BB.jpg","null","",NA,NA,NA,NA,""
"image-keyboard-response",481,753447,"0.0-3.156-2.156","ayp6u7sqsp63v1g",359,"9.csv","","null","resources/images/fishbone.png","null","",NA,NA,NA,NA,""
"image-keyboard-response",482,753762,"0.0-3.157-0.157","ayp6u7sqsp63v1g",359,"9.csv","","313.2000000476837","resources/trios/L4T4A1.jpg","39","restless",0.6,0.4,0.7,0.421435729337652,"true"
"image-keyboard-response",483,754167,"0.0-3.157-1.157","ayp6u7sqsp63v1g",359,"9.csv","","null","resources/maskTrios/BBA1.jpg","null","",NA,NA,NA,NA,""
"image-keyboard-response",484,755385,"0.0-3.157-2.157","ayp6u7sqsp63v1g",359,"9.csv","","null","resources/images/coin2.png","null","",NA,NA,NA,NA,""
"image-keyboard-response",485,756207,"0.0-3.158-0.158","ayp6u7sqsp63v1g",359,"9.csv","","821","resources/trios/L1T4A1.jpg","39","restless",0.6,0.4,0.7,0.201542040666115,"true"
"image-keyboard-response",486,756629,"0.0-3.158-1.158","ayp6u7sqsp63v1g",359,"9.csv","","null","resources/maskTrios/BBA1.jpg","null","",NA,NA,NA,NA,""
"image-keyboard-response",487,757839,"0.0-3.158-2.158","ayp6u7sqsp63v1g",359,"9.csv","","null","resources/images/coin2.png","null","",NA,NA,NA,NA,""
"image-keyboard-response",488,758833,"0.0-3.159-0.159","ayp6u7sqsp63v1g",359,"9.csv","","992","resources/trios/L1T4A1.jpg","39","restless",0.6,0.4,0.7,0.115789326768526,"true"
"image-keyboard-response",489,759248,"0.0-3.159-1.159","ayp6u7sqsp63v1g",359,"9.csv","","null","resources/maskTrios/BBA1.jpg","null","",NA,NA,NA,NA,""
"image-keyboard-response",490,760455,"0.0-3.159-2.159","ayp6u7sqsp63v1g",359,"9.csv","","null","resources/images/coin2.png","null","",NA,NA,NA,NA,""
"image-keyboard-response",491,763189,"0.0-3.160-0.160","ayp6u7sqsp63v1g",359,"9.csv","","2733.2000000476837","resources/trios/L4T2A1.jpg","38","restless",0.6,0.4,0.7,0.150883262392485,"true"
"image-keyboard-response",492,763612,"0.0-3.160-1.160","ayp6u7sqsp63v1g",359,"9.csv","","null","resources/maskTrios/BT2B.jpg","null","",NA,NA,NA,NA,""
"image-keyboard-response",493,764823,"0.0-3.160-2.160","ayp6u7sqsp63v1g",359,"9.csv","","null","resources/images/coin2.png","null","",NA,NA,NA,NA,""
"image-keyboard-response",494,766505,"0.0-3.161-0.161","ayp6u7sqsp63v1g",359,"9.csv","","1681.3999998569489","resources/trios/L1T4A1.jpg","37","restless",0.6,0.4,0.7,0.402135390619464,"true"
"image-keyboard-response",495,766911,"0.0-3.161-1.161","ayp6u7sqsp63v1g",359,"9.csv","","null","resources/maskTrios/L1BB.jpg","null","",NA,NA,NA,NA,""
"image-keyboard-response",496,768126,"0.0-3.161-2.161","ayp6u7sqsp63v1g",359,"9.csv","","null","resources/images/coin2.png","null","",NA,NA,NA,NA,""
"image-keyboard-response",497,769634,"0.0-3.162-0.162","ayp6u7sqsp63v1g",359,"9.csv","","1506.7000000476837","resources/trios/L4T2A1.jpg","38","restless",0.6,0.4,0.7,0.352450196213834,"true"
"image-keyboard-response",498,770049,"0.0-3.162-1.162","ayp6u7sqsp63v1g",359,"9.csv","","null","resources/maskTrios/BT2B.jpg","null","",NA,NA,NA,NA,""
"image-keyboard-response",499,771254,"0.0-3.162-2.162","ayp6u7sqsp63v1g",359,"9.csv","","null","resources/images/coin2.png","null","",NA,NA,NA,NA,""
"image-keyboard-response",500,774570,"0.0-3.163-0.163","ayp6u7sqsp63v1g",359,"9.csv","","3314.7000000476837","resources/trios/L1T2A1.jpg","37","restless",0.6,0.4,0.7,0.178650528952688,"true"
"image-keyboard-response",501,774985,"0.0-3.163-1.163","ayp6u7sqsp63v1g",359,"9.csv","","null","resources/maskTrios/L1BB.jpg","null","",NA,NA,NA,NA,""
"image-keyboard-response",502,776198,"0.0-3.163-2.163","ayp6u7sqsp63v1g",359,"9.csv","","null","resources/images/coin2.png","null","",NA,NA,NA,NA,""
"image-keyboard-response",503,780956,"0.0-3.164-0.164","ayp6u7sqsp63v1g",359,"9.csv","","4756","resources/trios/L1T2A3.jpg","38","restless",0.6,0.4,0.7,0.566954340826934,"false"
"image-keyboard-response",504,781367,"0.0-3.164-1.164","ayp6u7sqsp63v1g",359,"9.csv","","null","resources/maskTrios/BT2B.jpg","null","",NA,NA,NA,NA,""
"image-keyboard-response",505,782579,"0.0-3.164-2.164","ayp6u7sqsp63v1g",359,"9.csv","","null","resources/images/fishbone.png","null","",NA,NA,NA,NA,""
"image-keyboard-response",506,784939,"0.0-3.165-0.165","ayp6u7sqsp63v1g",359,"9.csv","","2358.199999809265","resources/trios/L4T4A3.jpg","38","restless",0.6,0.4,0.7,0.7379194463918,"false"
"image-keyboard-response",507,785342,"0.0-3.165-1.165","ayp6u7sqsp63v1g",359,"9.csv","","null","resources/maskTrios/BT4B.jpg","null","",NA,NA,NA,NA,""
"image-keyboard-response",508,786559,"0.0-3.165-2.165","ayp6u7sqsp63v1g",359,"9.csv","","null","resources/images/fishbone.png","null","",NA,NA,NA,NA,""
"image-keyboard-response",509,787500,"0.0-3.166-0.166","ayp6u7sqsp63v1g",359,"9.csv","","939.3000001907349","resources/trios/L4T4A3.jpg","39","restless",0.6,0.4,0.7,0.460561875853946,"true"
"image-keyboard-response",510,787904,"0.0-3.166-1.166","ayp6u7sqsp63v1g",359,"9.csv","","null","resources/maskTrios/BBA3.jpg","null","",NA,NA,NA,NA,""
"image-keyboard-response",511,789112,"0.0-3.166-2.166","ayp6u7sqsp63v1g",359,"9.csv","","null","resources/images/coin2.png","null","",NA,NA,NA,NA,""
"image-keyboard-response",512,790240,"0.0-3.167-0.167","ayp6u7sqsp63v1g",359,"9.csv","","1125.7999999523163","resources/trios/L4T4A3.jpg","39","restless",0.6,0.4,0.7,0.566460747425141,"true"
"image-keyboard-response",513,790654,"0.0-3.167-1.167","ayp6u7sqsp63v1g",359,"9.csv","","null","resources/maskTrios/BBA3.jpg","null","",NA,NA,NA,NA,""
"image-keyboard-response",514,791870,"0.0-3.167-2.167","ayp6u7sqsp63v1g",359,"9.csv","","null","resources/images/coin2.png","null","",NA,NA,NA,NA,""
"image-keyboard-response",515,794845,"0.0-3.168-0.168","ayp6u7sqsp63v1g",359,"9.csv","","2975","resources/trios/L1T2A3.jpg","37","restless",0.6,0.4,0.7,0.250088781339354,"true"
"image-keyboard-response",516,795260,"0.0-3.168-1.168","ayp6u7sqsp63v1g",359,"9.csv","","null","resources/maskTrios/L1BB.jpg","null","",NA,NA,NA,NA,""
"image-keyboard-response",517,796481,"0.0-3.168-2.168","ayp6u7sqsp63v1g",359,"9.csv","","null","resources/images/coin2.png","null","",NA,NA,NA,NA,""
"image-keyboard-response",518,798436,"0.0-3.169-0.169","ayp6u7sqsp63v1g",359,"9.csv","","1953.8000001907349","resources/trios/L4T4A3.jpg","39","restless",0.6,0.4,0.7,0.739480161085017,"false"
"image-keyboard-response",519,798846,"0.0-3.169-1.169","ayp6u7sqsp63v1g",359,"9.csv","","null","resources/maskTrios/BBA3.jpg","null","",NA,NA,NA,NA,""
"image-keyboard-response",520,800066,"0.0-3.169-2.169","ayp6u7sqsp63v1g",359,"9.csv","","null","resources/images/fishbone.png","null","",NA,NA,NA,NA,""
"image-keyboard-response",521,800986,"0.0-3.170-0.170","ayp6u7sqsp63v1g",359,"9.csv","","917.6999998092651","resources/trios/L1T2A3.jpg","37","restless",0.6,0.4,0.6,0.543270611683147,"true"
"image-keyboard-response",522,801404,"0.0-3.170-1.170","ayp6u7sqsp63v1g",359,"9.csv","","null","resources/maskTrios/L1BB.jpg","null","",NA,NA,NA,NA,""
"image-keyboard-response",523,802614,"0.0-3.170-2.170","ayp6u7sqsp63v1g",359,"9.csv","","null","resources/images/coin2.png","null","",NA,NA,NA,NA,""
"image-keyboard-response",524,803449,"0.0-3.171-0.171","ayp6u7sqsp63v1g",359,"9.csv","","833.6000001430511","resources/trios/L1T2A1.jpg","38","restless",0.5,0.4,0.6,0.773732237023819,"false"
"image-keyboard-response",525,803865,"0.0-3.171-1.171","ayp6u7sqsp63v1g",359,"9.csv","","null","resources/maskTrios/BT2B.jpg","null","",NA,NA,NA,NA,""
"image-keyboard-response",526,805076,"0.0-3.171-2.171","ayp6u7sqsp63v1g",359,"9.csv","","null","resources/images/fishbone.png","null","",NA,NA,NA,NA,""
"image-keyboard-response",527,805412,"0.0-3.172-0.172","ayp6u7sqsp63v1g",359,"9.csv","","335.09999990463257","resources/trios/L1T2A1.jpg","37","restless",0.5,0.4,0.6,0.242559408796779,"true"
"image-keyboard-response",528,805831,"0.0-3.172-1.172","ayp6u7sqsp63v1g",359,"9.csv","","null","resources/maskTrios/L1BB.jpg","null","",NA,NA,NA,NA,""
"image-keyboard-response",529,807051,"0.0-3.172-2.172","ayp6u7sqsp63v1g",359,"9.csv","","null","resources/images/coin2.png","null","",NA,NA,NA,NA,""
"image-keyboard-response",530,807644,"0.0-3.173-0.173","ayp6u7sqsp63v1g",359,"9.csv","","591.0999999046326","resources/trios/L4T2A1.jpg","38","restless",0.5,0.3,0.6,0.217523296256449,"true"
"image-keyboard-response",531,808059,"0.0-3.173-1.173","ayp6u7sqsp63v1g",359,"9.csv","","null","resources/maskTrios/BT2B.jpg","null","",NA,NA,NA,NA,""
"image-keyboard-response",532,809271,"0.0-3.173-2.173","ayp6u7sqsp63v1g",359,"9.csv","","null","resources/images/coin2.png","null","",NA,NA,NA,NA,""
"image-keyboard-response",533,810035,"0.0-3.174-0.174","ayp6u7sqsp63v1g",359,"9.csv","","762.5999999046326","resources/trios/L1T2A1.jpg","37","restless",0.6,0.3,0.6,0.643345798645386,"false"
"image-keyboard-response",534,810445,"0.0-3.174-1.174","ayp6u7sqsp63v1g",359,"9.csv","","null","resources/maskTrios/L1BB.jpg","null","",NA,NA,NA,NA,""
"image-keyboard-response",535,811658,"0.0-3.174-2.174","ayp6u7sqsp63v1g",359,"9.csv","","null","resources/images/fishbone.png","null","",NA,NA,NA,NA,""
"image-keyboard-response",536,812219,"0.0-3.175-0.175","ayp6u7sqsp63v1g",359,"9.csv","","560","resources/trios/L1T2A1.jpg","37","restless",0.6,0.3,0.6,0.332554792854501,"true"
"image-keyboard-response",537,812628,"0.0-3.175-1.175","ayp6u7sqsp63v1g",359,"9.csv","","null","resources/maskTrios/L1BB.jpg","null","",NA,NA,NA,NA,""
"image-keyboard-response",538,813840,"0.0-3.175-2.175","ayp6u7sqsp63v1g",359,"9.csv","","null","resources/images/coin2.png","null","",NA,NA,NA,NA,""
"image-keyboard-response",539,815161,"0.0-3.176-0.176","ayp6u7sqsp63v1g",359,"9.csv","","1319.7999999523163","resources/trios/L4T2A3.jpg","38","restless",0.6,0.3,0.6,0.58332363379852,"false"
"image-keyboard-response",540,815572,"0.0-3.176-1.176","ayp6u7sqsp63v1g",359,"9.csv","","null","resources/maskTrios/BT2B.jpg","null","",NA,NA,NA,NA,""
"image-keyboard-response",541,816791,"0.0-3.176-2.176","ayp6u7sqsp63v1g",359,"9.csv","","null","resources/images/fishbone.png","null","",NA,NA,NA,NA,""
"image-keyboard-response",542,817152,"0.0-3.177-0.177","ayp6u7sqsp63v1g",359,"9.csv","","359.7999999523163","resources/trios/L4T4A3.jpg","37","restless",0.6,0.3,0.6,0.293327215804276,"true"
"image-keyboard-response",543,817557,"0.0-3.177-1.177","ayp6u7sqsp63v1g",359,"9.csv","","null","resources/maskTrios/L4BB.jpg","null","",NA,NA,NA,NA,""
"image-keyboard-response",544,818765,"0.0-3.177-2.177","ayp6u7sqsp63v1g",359,"9.csv","","null","resources/images/coin2.png","null","",NA,NA,NA,NA,""
"image-keyboard-response",545,819250,"0.0-3.178-0.178","ayp6u7sqsp63v1g",359,"9.csv","","483.7000000476837","resources/trios/L1T4A1.jpg","37","restless",0.5,0.3,0.6,0.61729081654868,"false"
"image-keyboard-response",546,819653,"0.0-3.178-1.178","ayp6u7sqsp63v1g",359,"9.csv","","null","resources/maskTrios/L1BB.jpg","null","",NA,NA,NA,NA,""
"image-keyboard-response",547,820860,"0.0-3.178-2.178","ayp6u7sqsp63v1g",359,"9.csv","","null","resources/images/fishbone.png","null","",NA,NA,NA,NA,""
"image-keyboard-response",548,822138,"0.0-3.179-0.179","ayp6u7sqsp63v1g",359,"9.csv","","1277.1000001430511","resources/trios/L4T2A3.jpg","37","restless",0.5,0.3,0.6,0.0451047481654341,"true"
"image-keyboard-response",549,822549,"0.0-3.179-1.179","ayp6u7sqsp63v1g",359,"9.csv","","null","resources/maskTrios/L4BB.jpg","null","",NA,NA,NA,NA,""
"image-keyboard-response",550,823760,"0.0-3.179-2.179","ayp6u7sqsp63v1g",359,"9.csv","","null","resources/images/coin2.png","null","",NA,NA,NA,NA,""
"image-keyboard-response",551,825255,"0.0-3.180-0.180","ayp6u7sqsp63v1g",359,"9.csv","","1493.7000000476837","resources/trios/L1T4A1.jpg","38","restless",0.6,0.3,0.6,0.927319727389882,"false"
"image-keyboard-response",552,825672,"0.0-3.180-1.180","ayp6u7sqsp63v1g",359,"9.csv","","null","resources/maskTrios/BT4B.jpg","null","",NA,NA,NA,NA,""
"image-keyboard-response",553,826891,"0.0-3.180-2.180","ayp6u7sqsp63v1g",359,"9.csv","","null","resources/images/fishbone.png","null","",NA,NA,NA,NA,""
"image-keyboard-response",554,827273,"0.0-3.181-0.181","ayp6u7sqsp63v1g",359,"9.csv","","380.89999985694885","resources/trios/L4T2A1.jpg","37","restless",0.6,0.3,0.6,0.388874914486901,"true"
"image-keyboard-response",555,827683,"0.0-3.181-1.181","ayp6u7sqsp63v1g",359,"9.csv","","null","resources/maskTrios/L4BB.jpg","null","",NA,NA,NA,NA,""
"image-keyboard-response",556,828898,"0.0-3.181-2.181","ayp6u7sqsp63v1g",359,"9.csv","","null","resources/images/coin2.png","null","",NA,NA,NA,NA,""
"image-keyboard-response",557,829328,"0.0-3.182-0.182","ayp6u7sqsp63v1g",359,"9.csv","","428.2000000476837","resources/trios/L4T4A3.jpg","37","restless",0.5,0.3,0.6,0.37750755055477,"true"
"image-keyboard-response",558,829746,"0.0-3.182-1.182","ayp6u7sqsp63v1g",359,"9.csv","","null","resources/maskTrios/L4BB.jpg","null","",NA,NA,NA,NA,""
"image-keyboard-response",559,830960,"0.0-3.182-2.182","ayp6u7sqsp63v1g",359,"9.csv","","null","resources/images/coin2.png","null","",NA,NA,NA,NA,""
"image-keyboard-response",560,834487,"0.0-3.183-0.183","ayp6u7sqsp63v1g",359,"9.csv","","3524.7000000476837","resources/trios/L1T2A3.jpg","39","restless",0.5,0.3,0.6,0.0751420740495952,"true"
"image-keyboard-response",561,834894,"0.0-3.183-1.183","ayp6u7sqsp63v1g",359,"9.csv","","null","resources/maskTrios/BBA3.jpg","null","",NA,NA,NA,NA,""
"image-keyboard-response",562,836108,"0.0-3.183-2.183","ayp6u7sqsp63v1g",359,"9.csv","","null","resources/images/coin2.png","null","",NA,NA,NA,NA,""
"image-keyboard-response",563,837100,"0.0-3.184-0.184","ayp6u7sqsp63v1g",359,"9.csv","","990","resources/trios/L4T2A3.jpg","39","restless",0.5,0.3,0.6,0.00893551236658197,"true"
"image-keyboard-response",564,837519,"0.0-3.184-1.184","ayp6u7sqsp63v1g",359,"9.csv","","null","resources/maskTrios/BBA3.jpg","null","",NA,NA,NA,NA,""
"image-keyboard-response",565,838732,"0.0-3.184-2.184","ayp6u7sqsp63v1g",359,"9.csv","","null","resources/images/coin2.png","null","",NA,NA,NA,NA,""
"image-keyboard-response",566,841906,"0.0-3.185-0.185","ayp6u7sqsp63v1g",359,"9.csv","","3172.4000000953674","resources/trios/L4T4A1.jpg","37","restless",0.5,0.3,0.6,0.401593751680187,"true"
"image-keyboard-response",567,842317,"0.0-3.185-1.185","ayp6u7sqsp63v1g",359,"9.csv","","null","resources/maskTrios/L4BB.jpg","null","",NA,NA,NA,NA,""
"image-keyboard-response",568,843531,"0.0-3.185-2.185","ayp6u7sqsp63v1g",359,"9.csv","","null","resources/images/coin2.png","null","",NA,NA,NA,NA,""
"image-keyboard-response",569,844719,"0.0-3.186-0.186","ayp6u7sqsp63v1g",359,"9.csv","","1187.1000001430511","resources/trios/L4T2A1.jpg","37","restless",0.6,0.2,0.6,0.247690187049713,"true"
"image-keyboard-response",570,845124,"0.0-3.186-1.186","ayp6u7sqsp63v1g",359,"9.csv","","null","resources/maskTrios/L4BB.jpg","null","",NA,NA,NA,NA,""
"image-keyboard-response",571,846337,"0.0-3.186-2.186","ayp6u7sqsp63v1g",359,"9.csv","","null","resources/images/coin2.png","null","",NA,NA,NA,NA,""
"image-keyboard-response",572,847944,"0.0-3.187-0.187","ayp6u7sqsp63v1g",359,"9.csv","","1605","resources/trios/L1T4A1.jpg","39","restless",0.6,0.2,0.5,0.24654130880195,"true"
"image-keyboard-response",573,848354,"0.0-3.187-1.187","ayp6u7sqsp63v1g",359,"9.csv","","null","resources/maskTrios/BBA1.jpg","null","",NA,NA,NA,NA,""
"image-keyboard-response",574,849569,"0.0-3.187-2.187","ayp6u7sqsp63v1g",359,"9.csv","","null","resources/images/coin2.png","null","",NA,NA,NA,NA,""
"image-keyboard-response",575,850794,"0.0-3.188-0.188","ayp6u7sqsp63v1g",359,"9.csv","","1223.7000000476837","resources/trios/L4T4A1.jpg","39","restless",0.5,0.2,0.5,0.722641041855534,"false"
"image-keyboard-response",576,851208,"0.0-3.188-1.188","ayp6u7sqsp63v1g",359,"9.csv","","null","resources/maskTrios/BBA1.jpg","null","",NA,NA,NA,NA,""
"image-keyboard-response",577,852413,"0.0-3.188-2.188","ayp6u7sqsp63v1g",359,"9.csv","","null","resources/images/fishbone.png","null","",NA,NA,NA,NA,""
"image-keyboard-response",578,855174,"0.0-3.189-0.189","ayp6u7sqsp63v1g",359,"9.csv","","2757.600000143051","resources/trios/L1T2A1.jpg","38","restless",0.5,0.2,0.5,0.767810379731055,"false"
"image-keyboard-response",579,855590,"0.0-3.189-1.189","ayp6u7sqsp63v1g",359,"9.csv","","null","resources/maskTrios/BT2B.jpg","null","",NA,NA,NA,NA,""
"image-keyboard-response",580,856813,"0.0-3.189-2.189","ayp6u7sqsp63v1g",359,"9.csv","","null","resources/images/fishbone.png","null","",NA,NA,NA,NA,""
"image-keyboard-response",581,857307,"0.0-3.190-0.190","ayp6u7sqsp63v1g",359,"9.csv","","492.59999990463257","resources/trios/L4T2A1.jpg","37","restless",0.4,0.2,0.5,0.818491540655305,"false"
"image-keyboard-response",582,857723,"0.0-3.190-1.190","ayp6u7sqsp63v1g",359,"9.csv","","null","resources/maskTrios/L4BB.jpg","null","",NA,NA,NA,NA,""
"image-keyboard-response",583,858941,"0.0-3.190-2.190","ayp6u7sqsp63v1g",359,"9.csv","","null","resources/images/fishbone.png","null","",NA,NA,NA,NA,""
"image-keyboard-response",584,859431,"0.0-3.191-0.191","ayp6u7sqsp63v1g",359,"9.csv","","488.5","resources/trios/L4T4A1.jpg","39","restless",0.4,0.2,0.5,0.706434433595705,"false"
"image-keyboard-response",585,859845,"0.0-3.191-1.191","ayp6u7sqsp63v1g",359,"9.csv","","null","resources/maskTrios/BBA1.jpg","null","",NA,NA,NA,NA,""
"image-keyboard-response",586,861067,"0.0-3.191-2.191","ayp6u7sqsp63v1g",359,"9.csv","","null","resources/images/fishbone.png","null","",NA,NA,NA,NA,""
"image-keyboard-response",587,861993,"0.0-3.192-0.192","ayp6u7sqsp63v1g",359,"9.csv","","924.8000001907349","resources/trios/L4T4A1.jpg","37","restless",0.4,0.2,0.4,0.547293647904355,"false"
"image-keyboard-response",588,862401,"0.0-3.192-1.192","ayp6u7sqsp63v1g",359,"9.csv","","null","resources/maskTrios/L4BB.jpg","null","",NA,NA,NA,NA,""
"image-keyboard-response",589,863607,"0.0-3.192-2.192","ayp6u7sqsp63v1g",359,"9.csv","","null","resources/images/fishbone.png","null","",NA,NA,NA,NA,""
"image-keyboard-response",590,866619,"0.0-3.193-0.193","ayp6u7sqsp63v1g",359,"9.csv","","3010.199999809265","resources/trios/L1T2A1.jpg","37","restless",0.4,0.2,0.4,0.635405780765214,"false"
"image-keyboard-response",591,867022,"0.0-3.193-1.193","ayp6u7sqsp63v1g",359,"9.csv","","null","resources/maskTrios/L1BB.jpg","null","",NA,NA,NA,NA,""
"image-keyboard-response",592,868237,"0.0-3.193-2.193","ayp6u7sqsp63v1g",359,"9.csv","","null","resources/images/fishbone.png","null","",NA,NA,NA,NA,""
"image-keyboard-response",593,869519,"0.0-3.194-0.194","ayp6u7sqsp63v1g",359,"9.csv","","1280.2000000476837","resources/trios/L1T2A3.jpg","38","restless",0.4,0.2,0.4,0.440752252276124,"false"
"image-keyboard-response",594,869933,"0.0-3.194-1.194","ayp6u7sqsp63v1g",359,"9.csv","","null","resources/maskTrios/BT2B.jpg","null","",NA,NA,NA,NA,""
"image-keyboard-response",595,871153,"0.0-3.194-2.194","ayp6u7sqsp63v1g",359,"9.csv","","null","resources/images/fishbone.png","null","",NA,NA,NA,NA,""
"image-keyboard-response",596,872942,"0.0-3.195-0.195","ayp6u7sqsp63v1g",359,"9.csv","","1787.7000000476837","resources/trios/L4T4A3.jpg","39","restless",0.4,0.2,0.4,0.340810769130231,"true"
"image-keyboard-response",597,873350,"0.0-3.195-1.195","ayp6u7sqsp63v1g",359,"9.csv","","null","resources/maskTrios/BBA3.jpg","null","",NA,NA,NA,NA,""
"image-keyboard-response",598,874568,"0.0-3.195-2.195","ayp6u7sqsp63v1g",359,"9.csv","","null","resources/images/coin2.png","null","",NA,NA,NA,NA,""
"image-keyboard-response",599,875827,"0.0-3.196-0.196","ayp6u7sqsp63v1g",359,"9.csv","","1257.8999998569489","resources/trios/L4T4A1.jpg","37","restless",0.4,0.1,0.4,0.741006612946918,"false"
"image-keyboard-response",600,876248,"0.0-3.196-1.196","ayp6u7sqsp63v1g",359,"9.csv","","null","resources/maskTrios/L4BB.jpg","null","",NA,NA,NA,NA,""
"image-keyboard-response",601,877454,"0.0-3.196-2.196","ayp6u7sqsp63v1g",359,"9.csv","","null","resources/images/fishbone.png","null","",NA,NA,NA,NA,""
"image-keyboard-response",602,879138,"0.0-3.197-0.197","ayp6u7sqsp63v1g",359,"9.csv","","1682.9000000953674","resources/trios/L4T2A3.jpg","37","restless",0.4,0.1,0.4,0.407004391935069,"false"
"image-keyboard-response",603,879551,"0.0-3.197-1.197","ayp6u7sqsp63v1g",359,"9.csv","","null","resources/maskTrios/L4BB.jpg","null","",NA,NA,NA,NA,""
"image-keyboard-response",604,880767,"0.0-3.197-2.197","ayp6u7sqsp63v1g",359,"9.csv","","null","resources/images/fishbone.png","null","",NA,NA,NA,NA,""
"image-keyboard-response",605,881389,"0.0-3.198-0.198","ayp6u7sqsp63v1g",359,"9.csv","","620.7999999523163","resources/trios/L4T2A1.jpg","39","restless",0.4,0.1,0.4,0.808784496630162,"false"
"image-keyboard-response",606,881804,"0.0-3.198-1.198","ayp6u7sqsp63v1g",359,"9.csv","","null","resources/maskTrios/BBA1.jpg","null","",NA,NA,NA,NA,""
"image-keyboard-response",607,883027,"0.0-3.198-2.198","ayp6u7sqsp63v1g",359,"9.csv","","null","resources/images/fishbone.png","null","",NA,NA,NA,NA,""
"image-keyboard-response",608,883494,"0.0-3.199-0.199","ayp6u7sqsp63v1g",359,"9.csv","","465.40000009536743","resources/trios/L4T4A3.jpg","38","restless",0.4,0.1,0.4,0.738577920259585,"false"
"image-keyboard-response",609,883914,"0.0-3.199-1.199","ayp6u7sqsp63v1g",359,"9.csv","","null","resources/maskTrios/BT4B.jpg","null","",NA,NA,NA,NA,""
"image-keyboard-response",610,885118,"0.0-3.199-2.199","ayp6u7sqsp63v1g",359,"9.csv","","null","resources/images/fishbone.png","null","",NA,NA,NA,NA,""
"image-keyboard-response",611,885489,"0.0-3.200-0.200","ayp6u7sqsp63v1g",359,"9.csv","","368.7999999523163","resources/trios/L1T2A1.jpg","37","restless",0.4,0.1,0.4,0.258184656395347,"true"
"image-keyboard-response",612,885894,"0.0-3.200-1.200","ayp6u7sqsp63v1g",359,"9.csv","","null","resources/maskTrios/L1BB.jpg","null","",NA,NA,NA,NA,""
