"trial_type","trial_index","time_elapsed","internal_node_id","subject","participantCode","walkNumber","success","rt","stimulus","key_press","test_part","leftProb","midProb","rightProb","generatedNum","correct"
"pavlovia",0,943,"0.0-0.0","laaa1x15zoszwl1",432,"4.csv","","","","","",NA,NA,NA,NA,""
"fullscreen",1,7539,"0.0-1.0","laaa1x15zoszwl1",432,"4.csv","true","","","","",NA,NA,NA,NA,""
"html-keyboard-response",2,11698,"0.0-2.0-0.0","laaa1x15zoszwl1",432,"4.csv","","4156","<p><font size='6'>Arrrgh!</p></font><p>Can you be the best pirate? Try to find lots of gold! But beware, some islands have more gold than others, and over time, the island with the most gold may change. Can YOU figure it out? </p><font size='6'>GOOD LUCK, CAPTAIN!!!</font><p>Press any key to begin</p>","32","",NA,NA,NA,NA,""
"image-keyboard-response",3,14703,"0.0-2.0-1.0","laaa1x15zoszwl1",432,"4.csv","","null","resources/image_sets/111.png","null","",NA,NA,NA,NA,""
"image-keyboard-response",4,15848,"0.0-2.0-2.0","laaa1x15zoszwl1",432,"4.csv","","1143","resources/image_sets/left_highlight.png","37","",NA,NA,NA,NA,""
"image-keyboard-response",5,16472,"0.0-2.0-3.0","laaa1x15zoszwl1",432,"4.csv","","622","resources/image_sets/mid_highlight.png","38","",NA,NA,NA,NA,""
"image-keyboard-response",6,16839,"0.0-2.0-4.0","laaa1x15zoszwl1",432,"4.csv","","366","resources/image_sets/right_highlight.png","39","",NA,NA,NA,NA,""
"image-keyboard-response",7,19400,"0.0-2.0-5.0","laaa1x15zoszwl1",432,"4.csv","","2560","resources/image_sets/111.png","13","",NA,NA,NA,NA,""
"image-keyboard-response",8,21617,"0.0-2.0-6.0","laaa1x15zoszwl1",432,"4.csv","","2215.0000000000036","resources/images/coin2.png","13","",NA,NA,NA,NA,""
"image-keyboard-response",9,23063,"0.0-2.0-7.0","laaa1x15zoszwl1",432,"4.csv","","1445","resources/images/fishbone.png","13","",NA,NA,NA,NA,""
"html-keyboard-response",10,24315,"0.0-2.0-8.0","laaa1x15zoszwl1",432,"4.csv","","1251","<p>Your first journey will be a long one, but you will get a well deserved break at the end</p><p>After the break you will have four more journeys, but each will be much shorter than the first, and you will have breaks in between each</p><p>Press Enter to begin</p>","13","",NA,NA,NA,NA,""
"image-keyboard-response",11,25295,"0.0-3.0-0.0","laaa1x15zoszwl1",432,"4.csv","","978","resources/trios/L2T1A2.jpg","38","restless",0.9,0.7,0.3,0.108155510371173,"true"
"image-keyboard-response",12,25701,"0.0-3.0-1.0","laaa1x15zoszwl1",432,"4.csv","","null","resources/maskTrios/BT1B.jpg","null","",NA,NA,NA,NA,""
"image-keyboard-response",13,26908,"0.0-3.0-2.0","laaa1x15zoszwl1",432,"4.csv","","null","resources/images/coin2.png","null","",NA,NA,NA,NA,""
"image-keyboard-response",14,27226,"0.0-3.1-0.1","laaa1x15zoszwl1",432,"4.csv","","315","resources/trios/L1T4A2.jpg","37","restless",0.9,0.7,0.3,0.547835055245314,"true"
"image-keyboard-response",15,27631,"0.0-3.1-1.1","laaa1x15zoszwl1",432,"4.csv","","null","resources/maskTrios/L1BB.jpg","null","",NA,NA,NA,NA,""
"image-keyboard-response",16,28836,"0.0-3.1-2.1","laaa1x15zoszwl1",432,"4.csv","","null","resources/images/coin2.png","null","",NA,NA,NA,NA,""
"image-keyboard-response",17,29385,"0.0-3.2-0.2","laaa1x15zoszwl1",432,"4.csv","","547.9999999999964","resources/trios/L2T4A3.jpg","37","restless",0.9,0.7,0.2,0.394306028495284,"true"
"image-keyboard-response",18,29790,"0.0-3.2-1.2","laaa1x15zoszwl1",432,"4.csv","","null","resources/maskTrios/L2BB.jpg","null","",NA,NA,NA,NA,""
"image-keyboard-response",19,31000,"0.0-3.2-2.2","laaa1x15zoszwl1",432,"4.csv","","null","resources/images/coin2.png","null","",NA,NA,NA,NA,""
"image-keyboard-response",20,31632,"0.0-3.3-0.3","laaa1x15zoszwl1",432,"4.csv","","630.0000000000073","resources/trios/L1T1A2.jpg","37","restless",0.9,0.7,0.2,0.364377717774618,"true"
"image-keyboard-response",21,32037,"0.0-3.3-1.3","laaa1x15zoszwl1",432,"4.csv","","null","resources/maskTrios/L1BB.jpg","null","",NA,NA,NA,NA,""
"image-keyboard-response",22,33242,"0.0-3.3-2.3","laaa1x15zoszwl1",432,"4.csv","","null","resources/images/coin2.png","null","",NA,NA,NA,NA,""
"image-keyboard-response",23,33863,"0.0-3.4-0.4","laaa1x15zoszwl1",432,"4.csv","","618","resources/trios/L1T1A2.jpg","38","restless",0.9,0.7,0.2,0.288197316112877,"true"
"image-keyboard-response",24,34267,"0.0-3.4-1.4","laaa1x15zoszwl1",432,"4.csv","","null","resources/maskTrios/BT1B.jpg","null","",NA,NA,NA,NA,""
"image-keyboard-response",25,35473,"0.0-3.4-2.4","laaa1x15zoszwl1",432,"4.csv","","null","resources/images/coin2.png","null","",NA,NA,NA,NA,""
"image-keyboard-response",26,36015,"0.0-3.5-0.5","laaa1x15zoszwl1",432,"4.csv","","541","resources/trios/L1T4A3.jpg","37","restless",0.9,0.7,0.2,0.397467078902069,"true"
"image-keyboard-response",27,36420,"0.0-3.5-1.5","laaa1x15zoszwl1",432,"4.csv","","null","resources/maskTrios/L1BB.jpg","null","",NA,NA,NA,NA,""
"image-keyboard-response",28,37625,"0.0-3.5-2.5","laaa1x15zoszwl1",432,"4.csv","","null","resources/images/coin2.png","null","",NA,NA,NA,NA,""
"image-keyboard-response",29,38077,"0.0-3.6-0.6","laaa1x15zoszwl1",432,"4.csv","","450.0000000000073","resources/trios/L2T1A2.jpg","37","restless",0.9,0.7,0.2,0.846938647310647,"true"
"image-keyboard-response",30,38482,"0.0-3.6-1.6","laaa1x15zoszwl1",432,"4.csv","","null","resources/maskTrios/L2BB.jpg","null","",NA,NA,NA,NA,""
"image-keyboard-response",31,39687,"0.0-3.6-2.6","laaa1x15zoszwl1",432,"4.csv","","null","resources/images/coin2.png","null","",NA,NA,NA,NA,""
"image-keyboard-response",32,40221,"0.0-3.7-0.7","laaa1x15zoszwl1",432,"4.csv","","532","resources/trios/L1T4A3.jpg","37","restless",0.9,0.7,0.2,0.711204550210064,"true"
"image-keyboard-response",33,40624,"0.0-3.7-1.7","laaa1x15zoszwl1",432,"4.csv","","null","resources/maskTrios/L1BB.jpg","null","",NA,NA,NA,NA,""
"image-keyboard-response",34,41829,"0.0-3.7-2.7","laaa1x15zoszwl1",432,"4.csv","","null","resources/images/coin2.png","null","",NA,NA,NA,NA,""
"image-keyboard-response",35,42251,"0.0-3.8-0.8","laaa1x15zoszwl1",432,"4.csv","","419.0000000000073","resources/trios/L1T4A2.jpg","37","restless",0.9,0.7,0.2,0.459086083974221,"true"
"image-keyboard-response",36,42656,"0.0-3.8-1.8","laaa1x15zoszwl1",432,"4.csv","","null","resources/maskTrios/L1BB.jpg","null","",NA,NA,NA,NA,""
"image-keyboard-response",37,43862,"0.0-3.8-2.8","laaa1x15zoszwl1",432,"4.csv","","null","resources/images/coin2.png","null","",NA,NA,NA,NA,""
"image-keyboard-response",38,44344,"0.0-3.9-0.9","laaa1x15zoszwl1",432,"4.csv","","479","resources/trios/L2T4A2.jpg","37","restless",0.9,0.7,0.2,0.600082525187646,"true"
"image-keyboard-response",39,44747,"0.0-3.9-1.9","laaa1x15zoszwl1",432,"4.csv","","null","resources/maskTrios/L2BB.jpg","null","",NA,NA,NA,NA,""
"image-keyboard-response",40,45952,"0.0-3.9-2.9","laaa1x15zoszwl1",432,"4.csv","","null","resources/images/coin2.png","null","",NA,NA,NA,NA,""
"image-keyboard-response",41,46348,"0.0-3.10-0.10","laaa1x15zoszwl1",432,"4.csv","","395","resources/trios/L1T4A3.jpg","37","restless",0.9,0.6,0.2,0.15724531418464,"true"
"image-keyboard-response",42,46753,"0.0-3.10-1.10","laaa1x15zoszwl1",432,"4.csv","","null","resources/maskTrios/L1BB.jpg","null","",NA,NA,NA,NA,""
"image-keyboard-response",43,47959,"0.0-3.10-2.10","laaa1x15zoszwl1",432,"4.csv","","null","resources/images/coin2.png","null","",NA,NA,NA,NA,""
"image-keyboard-response",44,48434,"0.0-3.11-0.11","laaa1x15zoszwl1",432,"4.csv","","471","resources/trios/L2T4A2.jpg","37","restless",0.9,0.6,0.2,0.487300748989206,"true"
"image-keyboard-response",45,48839,"0.0-3.11-1.11","laaa1x15zoszwl1",432,"4.csv","","null","resources/maskTrios/L2BB.jpg","null","",NA,NA,NA,NA,""
"image-keyboard-response",46,50045,"0.0-3.11-2.11","laaa1x15zoszwl1",432,"4.csv","","null","resources/images/coin2.png","null","",NA,NA,NA,NA,""
"image-keyboard-response",47,50367,"0.0-3.12-0.12","laaa1x15zoszwl1",432,"4.csv","","320","resources/trios/L2T1A3.jpg","37","restless",0.9,0.6,0.2,0.234352571393908,"true"
"image-keyboard-response",48,50771,"0.0-3.12-1.12","laaa1x15zoszwl1",432,"4.csv","","null","resources/maskTrios/L2BB.jpg","null","",NA,NA,NA,NA,""
"image-keyboard-response",49,51977,"0.0-3.12-2.12","laaa1x15zoszwl1",432,"4.csv","","null","resources/images/coin2.png","null","",NA,NA,NA,NA,""
"image-keyboard-response",50,52374,"0.0-3.13-0.13","laaa1x15zoszwl1",432,"4.csv","","396","resources/trios/L2T1A3.jpg","37","restless",0.8,0.6,0.2,0.094401080984957,"true"
"image-keyboard-response",51,52779,"0.0-3.13-1.13","laaa1x15zoszwl1",432,"4.csv","","null","resources/maskTrios/L2BB.jpg","null","",NA,NA,NA,NA,""
"image-keyboard-response",52,53984,"0.0-3.13-2.13","laaa1x15zoszwl1",432,"4.csv","","null","resources/images/coin2.png","null","",NA,NA,NA,NA,""
"image-keyboard-response",53,54367,"0.0-3.14-0.14","laaa1x15zoszwl1",432,"4.csv","","381","resources/trios/L1T4A2.jpg","37","restless",0.8,0.6,0.2,0.819558597898945,"false"
"image-keyboard-response",54,54772,"0.0-3.14-1.14","laaa1x15zoszwl1",432,"4.csv","","null","resources/maskTrios/L1BB.jpg","null","",NA,NA,NA,NA,""
"image-keyboard-response",55,55977,"0.0-3.14-2.14","laaa1x15zoszwl1",432,"4.csv","","null","resources/images/fishbone.png","null","",NA,NA,NA,NA,""
"image-keyboard-response",56,56375,"0.0-3.15-0.15","laaa1x15zoszwl1",432,"4.csv","","397.0000000000073","resources/trios/L1T4A3.jpg","37","restless",0.8,0.6,0.2,0.0918100383823744,"true"
"image-keyboard-response",57,56780,"0.0-3.15-1.15","laaa1x15zoszwl1",432,"4.csv","","null","resources/maskTrios/L1BB.jpg","null","",NA,NA,NA,NA,""
"image-keyboard-response",58,57985,"0.0-3.15-2.15","laaa1x15zoszwl1",432,"4.csv","","null","resources/images/coin2.png","null","",NA,NA,NA,NA,""
"image-keyboard-response",59,58609,"0.0-3.16-0.16","laaa1x15zoszwl1",432,"4.csv","","622","resources/trios/L2T4A3.jpg","37","restless",0.8,0.6,0.2,0.401704421579699,"true"
"image-keyboard-response",60,59014,"0.0-3.16-1.16","laaa1x15zoszwl1",432,"4.csv","","null","resources/maskTrios/L2BB.jpg","null","",NA,NA,NA,NA,""
"image-keyboard-response",61,60219,"0.0-3.16-2.16","laaa1x15zoszwl1",432,"4.csv","","null","resources/images/coin2.png","null","",NA,NA,NA,NA,""
"image-keyboard-response",62,60947,"0.0-3.17-0.17","laaa1x15zoszwl1",432,"4.csv","","727","resources/trios/L2T1A2.jpg","37","restless",0.8,0.6,0.2,0.492462265606739,"true"
"image-keyboard-response",63,61349,"0.0-3.17-1.17","laaa1x15zoszwl1",432,"4.csv","","null","resources/maskTrios/L2BB.jpg","null","",NA,NA,NA,NA,""
"image-keyboard-response",64,62554,"0.0-3.17-2.17","laaa1x15zoszwl1",432,"4.csv","","null","resources/images/coin2.png","null","",NA,NA,NA,NA,""
"image-keyboard-response",65,62991,"0.0-3.18-0.18","laaa1x15zoszwl1",432,"4.csv","","434.9999999999927","resources/trios/L2T1A3.jpg","37","restless",0.8,0.6,0.2,0.619949778531268,"true"
"image-keyboard-response",66,63396,"0.0-3.18-1.18","laaa1x15zoszwl1",432,"4.csv","","null","resources/maskTrios/L2BB.jpg","null","",NA,NA,NA,NA,""
"image-keyboard-response",67,64604,"0.0-3.18-2.18","laaa1x15zoszwl1",432,"4.csv","","null","resources/images/coin2.png","null","",NA,NA,NA,NA,""
"image-keyboard-response",68,65124,"0.0-3.19-0.19","laaa1x15zoszwl1",432,"4.csv","","518","resources/trios/L1T1A3.jpg","37","restless",0.8,0.5,0.3,0.115745558089375,"true"
"image-keyboard-response",69,65528,"0.0-3.19-1.19","laaa1x15zoszwl1",432,"4.csv","","null","resources/maskTrios/L1BB.jpg","null","",NA,NA,NA,NA,""
"image-keyboard-response",70,66733,"0.0-3.19-2.19","laaa1x15zoszwl1",432,"4.csv","","null","resources/images/coin2.png","null","",NA,NA,NA,NA,""
"image-keyboard-response",71,67122,"0.0-3.20-0.20","laaa1x15zoszwl1",432,"4.csv","","387","resources/trios/L2T4A2.jpg","37","restless",0.8,0.5,0.3,0.766566405994425,"true"
"image-keyboard-response",72,67527,"0.0-3.20-1.20","laaa1x15zoszwl1",432,"4.csv","","null","resources/maskTrios/L2BB.jpg","null","",NA,NA,NA,NA,""
"image-keyboard-response",73,68732,"0.0-3.20-2.20","laaa1x15zoszwl1",432,"4.csv","","null","resources/images/coin2.png","null","",NA,NA,NA,NA,""
"image-keyboard-response",74,69120,"0.0-3.21-0.21","laaa1x15zoszwl1",432,"4.csv","","386","resources/trios/L2T4A3.jpg","37","restless",0.7,0.5,0.3,0.800433595898767,"false"
"image-keyboard-response",75,69523,"0.0-3.21-1.21","laaa1x15zoszwl1",432,"4.csv","","null","resources/maskTrios/L2BB.jpg","null","",NA,NA,NA,NA,""
"image-keyboard-response",76,70728,"0.0-3.21-2.21","laaa1x15zoszwl1",432,"4.csv","","null","resources/images/fishbone.png","null","",NA,NA,NA,NA,""
"image-keyboard-response",77,71151,"0.0-3.22-0.22","laaa1x15zoszwl1",432,"4.csv","","422","resources/trios/L1T4A2.jpg","37","restless",0.7,0.4,0.3,0.146517588966394,"true"
"image-keyboard-response",78,71556,"0.0-3.22-1.22","laaa1x15zoszwl1",432,"4.csv","","null","resources/maskTrios/L1BB.jpg","null","",NA,NA,NA,NA,""
"image-keyboard-response",79,72762,"0.0-3.22-2.22","laaa1x15zoszwl1",432,"4.csv","","null","resources/images/coin2.png","null","",NA,NA,NA,NA,""
"image-keyboard-response",80,73251,"0.0-3.23-0.23","laaa1x15zoszwl1",432,"4.csv","","487","resources/trios/L1T1A3.jpg","37","restless",0.7,0.4,0.3,0.0378044513339927,"true"
"image-keyboard-response",81,73655,"0.0-3.23-1.23","laaa1x15zoszwl1",432,"4.csv","","null","resources/maskTrios/L1BB.jpg","null","",NA,NA,NA,NA,""
"image-keyboard-response",82,74860,"0.0-3.23-2.23","laaa1x15zoszwl1",432,"4.csv","","null","resources/images/coin2.png","null","",NA,NA,NA,NA,""
"image-keyboard-response",83,75299,"0.0-3.24-0.24","laaa1x15zoszwl1",432,"4.csv","","436","resources/trios/L2T4A3.jpg","37","restless",0.7,0.4,0.4,0.86285429182609,"false"
"image-keyboard-response",84,75703,"0.0-3.24-1.24","laaa1x15zoszwl1",432,"4.csv","","null","resources/maskTrios/L2BB.jpg","null","",NA,NA,NA,NA,""
"image-keyboard-response",85,76908,"0.0-3.24-2.24","laaa1x15zoszwl1",432,"4.csv","","null","resources/images/fishbone.png","null","",NA,NA,NA,NA,""
"image-keyboard-response",86,77513,"0.0-3.25-0.25","laaa1x15zoszwl1",432,"4.csv","","603","resources/trios/L1T1A3.jpg","37","restless",0.7,0.4,0.4,0.197811689905588,"true"
"image-keyboard-response",87,77918,"0.0-3.25-1.25","laaa1x15zoszwl1",432,"4.csv","","null","resources/maskTrios/L1BB.jpg","null","",NA,NA,NA,NA,""
"image-keyboard-response",88,79121,"0.0-3.25-2.25","laaa1x15zoszwl1",432,"4.csv","","null","resources/images/coin2.png","null","",NA,NA,NA,NA,""
"image-keyboard-response",89,79755,"0.0-3.26-0.26","laaa1x15zoszwl1",432,"4.csv","","633","resources/trios/L1T1A3.jpg","37","restless",0.7,0.4,0.4,0.958455424865386,"false"
"image-keyboard-response",90,80160,"0.0-3.26-1.26","laaa1x15zoszwl1",432,"4.csv","","null","resources/maskTrios/L1BB.jpg","null","",NA,NA,NA,NA,""
"image-keyboard-response",91,81362,"0.0-3.26-2.26","laaa1x15zoszwl1",432,"4.csv","","null","resources/images/fishbone.png","null","",NA,NA,NA,NA,""
"image-keyboard-response",92,81939,"0.0-3.27-0.27","laaa1x15zoszwl1",432,"4.csv","","575.0000000000146","resources/trios/L2T1A3.jpg","38","restless",0.7,0.4,0.4,0.465225980824589,"false"
"image-keyboard-response",93,82342,"0.0-3.27-1.27","laaa1x15zoszwl1",432,"4.csv","","null","resources/maskTrios/BT1B.jpg","null","",NA,NA,NA,NA,""
"image-keyboard-response",94,83545,"0.0-3.27-2.27","laaa1x15zoszwl1",432,"4.csv","","null","resources/images/fishbone.png","null","",NA,NA,NA,NA,""
"image-keyboard-response",95,83976,"0.0-3.28-0.28","laaa1x15zoszwl1",432,"4.csv","","429","resources/trios/L2T4A3.jpg","37","restless",0.7,0.4,0.4,0.513101265063014,"true"
"image-keyboard-response",96,84381,"0.0-3.28-1.28","laaa1x15zoszwl1",432,"4.csv","","null","resources/maskTrios/L2BB.jpg","null","",NA,NA,NA,NA,""
"image-keyboard-response",97,85586,"0.0-3.28-2.28","laaa1x15zoszwl1",432,"4.csv","","null","resources/images/coin2.png","null","",NA,NA,NA,NA,""
"image-keyboard-response",98,86104,"0.0-3.29-0.29","laaa1x15zoszwl1",432,"4.csv","","516","resources/trios/L1T4A3.jpg","37","restless",0.7,0.4,0.4,0.628777977885379,"true"
"image-keyboard-response",99,86509,"0.0-3.29-1.29","laaa1x15zoszwl1",432,"4.csv","","null","resources/maskTrios/L1BB.jpg","null","",NA,NA,NA,NA,""
"image-keyboard-response",100,87714,"0.0-3.29-2.29","laaa1x15zoszwl1",432,"4.csv","","null","resources/images/coin2.png","null","",NA,NA,NA,NA,""
"image-keyboard-response",101,87886,"0.0-3.30-0.30","laaa1x15zoszwl1",432,"4.csv","","170","resources/trios/L1T4A3.jpg","39","restless",0.7,0.4,0.4,0.473158110158221,"false"
"image-keyboard-response",102,88291,"0.0-3.30-1.30","laaa1x15zoszwl1",432,"4.csv","","null","resources/maskTrios/BBA3.jpg","null","",NA,NA,NA,NA,""
"image-keyboard-response",103,89494,"0.0-3.30-2.30","laaa1x15zoszwl1",432,"4.csv","","null","resources/images/fishbone.png","null","",NA,NA,NA,NA,""
"image-keyboard-response",104,89978,"0.0-3.31-0.31","laaa1x15zoszwl1",432,"4.csv","","482","resources/trios/L1T4A2.jpg","38","restless",0.7,0.4,0.4,0.761835942598337,"false"
"image-keyboard-response",105,90381,"0.0-3.31-1.31","laaa1x15zoszwl1",432,"4.csv","","null","resources/maskTrios/BT4B.jpg","null","",NA,NA,NA,NA,""
"image-keyboard-response",106,91583,"0.0-3.31-2.31","laaa1x15zoszwl1",432,"4.csv","","null","resources/images/fishbone.png","null","",NA,NA,NA,NA,""
"image-keyboard-response",107,91914,"0.0-3.32-0.32","laaa1x15zoszwl1",432,"4.csv","","329","resources/trios/L1T1A3.jpg","39","restless",0.6,0.4,0.4,0.601444961819378,"false"
"image-keyboard-response",108,92319,"0.0-3.32-1.32","laaa1x15zoszwl1",432,"4.csv","","null","resources/maskTrios/BBA3.jpg","null","",NA,NA,NA,NA,""
"image-keyboard-response",109,93524,"0.0-3.32-2.32","laaa1x15zoszwl1",432,"4.csv","","null","resources/images/fishbone.png","null","",NA,NA,NA,NA,""
"image-keyboard-response",110,93739,"0.0-3.33-0.33","laaa1x15zoszwl1",432,"4.csv","","214","resources/trios/L2T1A2.jpg","37","restless",0.6,0.4,0.5,0.364565354120145,"true"
"image-keyboard-response",111,94144,"0.0-3.33-1.33","laaa1x15zoszwl1",432,"4.csv","","null","resources/maskTrios/L2BB.jpg","null","",NA,NA,NA,NA,""
"image-keyboard-response",112,95349,"0.0-3.33-2.33","laaa1x15zoszwl1",432,"4.csv","","null","resources/images/coin2.png","null","",NA,NA,NA,NA,""
"image-keyboard-response",113,95482,"0.0-3.34-0.34","laaa1x15zoszwl1",432,"4.csv","","132","resources/trios/L2T1A3.jpg","38","restless",0.6,0.4,0.5,0.35232210137294,"true"
"image-keyboard-response",114,95885,"0.0-3.34-1.34","laaa1x15zoszwl1",432,"4.csv","","null","resources/maskTrios/BT1B.jpg","null","",NA,NA,NA,NA,""
"image-keyboard-response",115,97090,"0.0-3.34-2.34","laaa1x15zoszwl1",432,"4.csv","","null","resources/images/coin2.png","null","",NA,NA,NA,NA,""
"image-keyboard-response",116,97308,"0.0-3.35-0.35","laaa1x15zoszwl1",432,"4.csv","","217","resources/trios/L1T4A2.jpg","38","restless",0.6,0.3,0.5,0.260085369668436,"true"
"image-keyboard-response",117,97711,"0.0-3.35-1.35","laaa1x15zoszwl1",432,"4.csv","","null","resources/maskTrios/BT4B.jpg","null","",NA,NA,NA,NA,""
"image-keyboard-response",118,98917,"0.0-3.35-2.35","laaa1x15zoszwl1",432,"4.csv","","null","resources/images/coin2.png","null","",NA,NA,NA,NA,""
"image-keyboard-response",119,99258,"0.0-3.36-0.36","laaa1x15zoszwl1",432,"4.csv","","339","resources/trios/L1T1A2.jpg","38","restless",0.6,0.3,0.5,0.46885202017225,"false"
"image-keyboard-response",120,99663,"0.0-3.36-1.36","laaa1x15zoszwl1",432,"4.csv","","null","resources/maskTrios/BT1B.jpg","null","",NA,NA,NA,NA,""
"image-keyboard-response",121,100867,"0.0-3.36-2.36","laaa1x15zoszwl1",432,"4.csv","","null","resources/images/fishbone.png","null","",NA,NA,NA,NA,""
"image-keyboard-response",122,101161,"0.0-3.37-0.37","laaa1x15zoszwl1",432,"4.csv","","293.00000000001455","resources/trios/L1T1A3.jpg","37","restless",0.6,0.3,0.5,0.0725775117498042,"true"
"image-keyboard-response",123,101564,"0.0-3.37-1.37","laaa1x15zoszwl1",432,"4.csv","","null","resources/maskTrios/L1BB.jpg","null","",NA,NA,NA,NA,""
"image-keyboard-response",124,102767,"0.0-3.37-2.37","laaa1x15zoszwl1",432,"4.csv","","null","resources/images/coin2.png","null","",NA,NA,NA,NA,""
"image-keyboard-response",125,102902,"0.0-3.38-0.38","laaa1x15zoszwl1",432,"4.csv","","133","resources/trios/L2T1A3.jpg","37","restless",0.6,0.2,0.5,0.765998736257373,"false"
"image-keyboard-response",126,103306,"0.0-3.38-1.38","laaa1x15zoszwl1",432,"4.csv","","null","resources/maskTrios/L2BB.jpg","null","",NA,NA,NA,NA,""
"image-keyboard-response",127,104511,"0.0-3.38-2.38","laaa1x15zoszwl1",432,"4.csv","","null","resources/images/fishbone.png","null","",NA,NA,NA,NA,""
"image-keyboard-response",128,104883,"0.0-3.39-0.39","laaa1x15zoszwl1",432,"4.csv","","370","resources/trios/L1T1A2.jpg","39","restless",0.6,0.2,0.5,0.287757421413597,"true"
"image-keyboard-response",129,105286,"0.0-3.39-1.39","laaa1x15zoszwl1",432,"4.csv","","null","resources/maskTrios/BBA2.jpg","null","",NA,NA,NA,NA,""
"image-keyboard-response",130,106491,"0.0-3.39-2.39","laaa1x15zoszwl1",432,"4.csv","","null","resources/images/coin2.png","null","",NA,NA,NA,NA,""
"image-keyboard-response",131,106622,"0.0-3.40-0.40","laaa1x15zoszwl1",432,"4.csv","","128","resources/trios/L1T4A2.jpg","39","restless",0.5,0.2,0.5,0.677317660895676,"false"
"image-keyboard-response",132,107026,"0.0-3.40-1.40","laaa1x15zoszwl1",432,"4.csv","","null","resources/maskTrios/BBA2.jpg","null","",NA,NA,NA,NA,""
"image-keyboard-response",133,108231,"0.0-3.40-2.40","laaa1x15zoszwl1",432,"4.csv","","null","resources/images/fishbone.png","null","",NA,NA,NA,NA,""
"image-keyboard-response",134,108601,"0.0-3.41-0.41","laaa1x15zoszwl1",432,"4.csv","","368","resources/trios/L1T1A2.jpg","38","restless",0.5,0.2,0.5,0.398134037344906,"false"
"image-keyboard-response",135,109006,"0.0-3.41-1.41","laaa1x15zoszwl1",432,"4.csv","","null","resources/maskTrios/BT1B.jpg","null","",NA,NA,NA,NA,""
"image-keyboard-response",136,110211,"0.0-3.41-2.41","laaa1x15zoszwl1",432,"4.csv","","null","resources/images/fishbone.png","null","",NA,NA,NA,NA,""
"image-keyboard-response",137,110412,"0.0-3.42-0.42","laaa1x15zoszwl1",432,"4.csv","","200","resources/trios/L2T1A3.jpg","37","restless",0.5,0.2,0.5,0.0768115898390804,"true"
"image-keyboard-response",138,110817,"0.0-3.42-1.42","laaa1x15zoszwl1",432,"4.csv","","null","resources/maskTrios/L2BB.jpg","null","",NA,NA,NA,NA,""
"image-keyboard-response",139,112022,"0.0-3.42-2.42","laaa1x15zoszwl1",432,"4.csv","","null","resources/images/coin2.png","null","",NA,NA,NA,NA,""
"image-keyboard-response",140,113310,"0.0-3.43-0.43","laaa1x15zoszwl1",432,"4.csv","","1286.0000000000146","resources/trios/L1T4A2.jpg","39","restless",0.5,0.2,0.5,0.879157732909719,"false"
"image-keyboard-response",141,113714,"0.0-3.43-1.43","laaa1x15zoszwl1",432,"4.csv","","null","resources/maskTrios/BBA2.jpg","null","",NA,NA,NA,NA,""
"image-keyboard-response",142,114917,"0.0-3.43-2.43","laaa1x15zoszwl1",432,"4.csv","","null","resources/images/fishbone.png","null","",NA,NA,NA,NA,""
"image-keyboard-response",143,115036,"0.0-3.44-0.44","laaa1x15zoszwl1",432,"4.csv","","117.00000000001455","resources/trios/L2T4A2.jpg","37","restless",0.5,0.3,0.5,0.245676634024692,"true"
"image-keyboard-response",144,115441,"0.0-3.44-1.44","laaa1x15zoszwl1",432,"4.csv","","null","resources/maskTrios/L2BB.jpg","null","",NA,NA,NA,NA,""
"image-keyboard-response",145,116644,"0.0-3.44-2.44","laaa1x15zoszwl1",432,"4.csv","","null","resources/images/coin2.png","null","",NA,NA,NA,NA,""
"image-keyboard-response",146,117610,"0.0-3.45-0.45","laaa1x15zoszwl1",432,"4.csv","","966","resources/trios/L1T4A2.jpg","39","restless",0.5,0.3,0.5,0.0895197973543552,"true"
"image-keyboard-response",147,118015,"0.0-3.45-1.45","laaa1x15zoszwl1",432,"4.csv","","null","resources/maskTrios/BBA2.jpg","null","",NA,NA,NA,NA,""
"image-keyboard-response",148,119220,"0.0-3.45-2.45","laaa1x15zoszwl1",432,"4.csv","","null","resources/images/coin2.png","null","",NA,NA,NA,NA,""
"image-keyboard-response",149,119552,"0.0-3.46-0.46","laaa1x15zoszwl1",432,"4.csv","","330","resources/trios/L2T1A2.jpg","39","restless",0.5,0.3,0.5,0.353710168664956,"true"
"image-keyboard-response",150,119957,"0.0-3.46-1.46","laaa1x15zoszwl1",432,"4.csv","","null","resources/maskTrios/BBA2.jpg","null","",NA,NA,NA,NA,""
"image-keyboard-response",151,121168,"0.0-3.46-2.46","laaa1x15zoszwl1",432,"4.csv","","null","resources/images/coin2.png","null","",NA,NA,NA,NA,""
"image-keyboard-response",152,121524,"0.0-3.47-0.47","laaa1x15zoszwl1",432,"4.csv","","350.99999999998545","resources/trios/L1T4A3.jpg","37","restless",0.5,0.2,0.6,0.16870199544454,"true"
"image-keyboard-response",153,121929,"0.0-3.47-1.47","laaa1x15zoszwl1",432,"4.csv","","null","resources/maskTrios/L1BB.jpg","null","",NA,NA,NA,NA,""
"image-keyboard-response",154,123134,"0.0-3.47-2.47","laaa1x15zoszwl1",432,"4.csv","","null","resources/images/coin2.png","null","",NA,NA,NA,NA,""
"image-keyboard-response",155,123347,"0.0-3.48-0.48","laaa1x15zoszwl1",432,"4.csv","","210","resources/trios/L1T1A2.jpg","37","restless",0.4,0.2,0.6,0.96578246107471,"false"
"image-keyboard-response",156,123752,"0.0-3.48-1.48","laaa1x15zoszwl1",432,"4.csv","","null","resources/maskTrios/L1BB.jpg","null","",NA,NA,NA,NA,""
"image-keyboard-response",157,124957,"0.0-3.48-2.48","laaa1x15zoszwl1",432,"4.csv","","null","resources/images/fishbone.png","null","",NA,NA,NA,NA,""
"image-keyboard-response",158,125042,"0.0-3.49-0.49","laaa1x15zoszwl1",432,"4.csv","","83","resources/trios/L2T4A3.jpg","39","restless",0.3,0.2,0.6,0.101108691780897,"true"
"image-keyboard-response",159,125447,"0.0-3.49-1.49","laaa1x15zoszwl1",432,"4.csv","","null","resources/maskTrios/BBA3.jpg","null","",NA,NA,NA,NA,""
"image-keyboard-response",160,126650,"0.0-3.49-2.49","laaa1x15zoszwl1",432,"4.csv","","null","resources/images/coin2.png","null","",NA,NA,NA,NA,""
"image-keyboard-response",161,127443,"0.0-3.50-0.50","laaa1x15zoszwl1",432,"4.csv","","789.9999999999854","resources/trios/L1T4A3.jpg","39","restless",0.3,0.2,0.6,0.502095813144581,"true"
"image-keyboard-response",162,127847,"0.0-3.50-1.50","laaa1x15zoszwl1",432,"4.csv","","null","resources/maskTrios/BBA3.jpg","null","",NA,NA,NA,NA,""
"image-keyboard-response",163,129050,"0.0-3.50-2.50","laaa1x15zoszwl1",432,"4.csv","","null","resources/images/coin2.png","null","",NA,NA,NA,NA,""
"image-keyboard-response",164,129504,"0.0-3.51-0.51","laaa1x15zoszwl1",432,"4.csv","","452.0000000000291","resources/trios/L1T4A2.jpg","38","restless",0.3,0.2,0.7,0.403916331676042,"false"
"image-keyboard-response",165,129911,"0.0-3.51-1.51","laaa1x15zoszwl1",432,"4.csv","","null","resources/maskTrios/BT4B.jpg","null","",NA,NA,NA,NA,""
"image-keyboard-response",166,131116,"0.0-3.51-2.51","laaa1x15zoszwl1",432,"4.csv","","null","resources/images/fishbone.png","null","",NA,NA,NA,NA,""
"image-keyboard-response",167,131678,"0.0-3.52-0.52","laaa1x15zoszwl1",432,"4.csv","","559","resources/trios/L1T1A2.jpg","37","restless",0.3,0.2,0.7,0.883418474501533,"false"
"image-keyboard-response",168,132083,"0.0-3.52-1.52","laaa1x15zoszwl1",432,"4.csv","","null","resources/maskTrios/L1BB.jpg","null","",NA,NA,NA,NA,""
"image-keyboard-response",169,133288,"0.0-3.52-2.52","laaa1x15zoszwl1",432,"4.csv","","null","resources/images/fishbone.png","null","",NA,NA,NA,NA,""
"image-keyboard-response",170,133509,"0.0-3.53-0.53","laaa1x15zoszwl1",432,"4.csv","","219","resources/trios/L1T4A2.jpg","37","restless",0.3,0.1,0.7,0.573657729569469,"false"
"image-keyboard-response",171,133912,"0.0-3.53-1.53","laaa1x15zoszwl1",432,"4.csv","","null","resources/maskTrios/L1BB.jpg","null","",NA,NA,NA,NA,""
"image-keyboard-response",172,135118,"0.0-3.53-2.53","laaa1x15zoszwl1",432,"4.csv","","null","resources/images/fishbone.png","null","",NA,NA,NA,NA,""
"image-keyboard-response",173,135375,"0.0-3.54-0.54","laaa1x15zoszwl1",432,"4.csv","","254","resources/trios/L2T1A3.jpg","38","restless",0.3,0.1,0.8,0.514245016686759,"false"
"image-keyboard-response",174,135780,"0.0-3.54-1.54","laaa1x15zoszwl1",432,"4.csv","","null","resources/maskTrios/BT1B.jpg","null","",NA,NA,NA,NA,""
"image-keyboard-response",175,136985,"0.0-3.54-2.54","laaa1x15zoszwl1",432,"4.csv","","null","resources/images/fishbone.png","null","",NA,NA,NA,NA,""
"image-keyboard-response",176,137092,"0.0-3.55-0.55","laaa1x15zoszwl1",432,"4.csv","","105","resources/trios/L2T1A2.jpg","38","restless",0.3,0.1,0.8,0.589166786813462,"false"
"image-keyboard-response",177,137497,"0.0-3.55-1.55","laaa1x15zoszwl1",432,"4.csv","","null","resources/maskTrios/BT1B.jpg","null","",NA,NA,NA,NA,""
"image-keyboard-response",178,138702,"0.0-3.55-2.55","laaa1x15zoszwl1",432,"4.csv","","null","resources/images/fishbone.png","null","",NA,NA,NA,NA,""
"image-keyboard-response",179,138827,"0.0-3.56-0.56","laaa1x15zoszwl1",432,"4.csv","","123","resources/trios/L1T1A3.jpg","38","restless",0.3,0.1,0.8,0.0156215003301481,"true"
"image-keyboard-response",180,139231,"0.0-3.56-1.56","laaa1x15zoszwl1",432,"4.csv","","null","resources/maskTrios/BT1B.jpg","null","",NA,NA,NA,NA,""
"image-keyboard-response",181,140436,"0.0-3.56-2.56","laaa1x15zoszwl1",432,"4.csv","","null","resources/images/coin2.png","null","",NA,NA,NA,NA,""
"image-keyboard-response",182,140748,"0.0-3.57-0.57","laaa1x15zoszwl1",432,"4.csv","","309.0000000000291","resources/trios/L1T4A3.jpg","38","restless",0.3,0.1,0.8,0.890393685306275,"false"
"image-keyboard-response",183,141153,"0.0-3.57-1.57","laaa1x15zoszwl1",432,"4.csv","","null","resources/maskTrios/BT4B.jpg","null","",NA,NA,NA,NA,""
"image-keyboard-response",184,142355,"0.0-3.57-2.57","laaa1x15zoszwl1",432,"4.csv","","null","resources/images/fishbone.png","null","",NA,NA,NA,NA,""
"image-keyboard-response",185,142362,"0.0-3.58-0.58","laaa1x15zoszwl1",432,"4.csv","","2","resources/trios/L2T4A2.jpg","39","restless",0.2,0.1,0.8,0.603227866786154,"true"
"image-keyboard-response",186,142765,"0.0-3.58-1.58","laaa1x15zoszwl1",432,"4.csv","","null","resources/maskTrios/BBA2.jpg","null","",NA,NA,NA,NA,""
"image-keyboard-response",187,143970,"0.0-3.58-2.58","laaa1x15zoszwl1",432,"4.csv","","null","resources/images/coin2.png","null","",NA,NA,NA,NA,""
"image-keyboard-response",188,144291,"0.0-3.59-0.59","laaa1x15zoszwl1",432,"4.csv","","320","resources/trios/L2T4A3.jpg","39","restless",0.2,0.1,0.8,0.39502596279556,"true"
"image-keyboard-response",189,144696,"0.0-3.59-1.59","laaa1x15zoszwl1",432,"4.csv","","null","resources/maskTrios/BBA3.jpg","null","",NA,NA,NA,NA,""
"image-keyboard-response",190,145901,"0.0-3.59-2.59","laaa1x15zoszwl1",432,"4.csv","","null","resources/images/coin2.png","null","",NA,NA,NA,NA,""
"image-keyboard-response",191,146007,"0.0-3.60-0.60","laaa1x15zoszwl1",432,"4.csv","","103.9999999999709","resources/trios/L1T1A3.jpg","39","restless",0.3,0.1,0.8,0.846352598275589,"false"
"image-keyboard-response",192,146409,"0.0-3.60-1.60","laaa1x15zoszwl1",432,"4.csv","","null","resources/maskTrios/BBA3.jpg","null","",NA,NA,NA,NA,""
"image-keyboard-response",193,147612,"0.0-3.60-2.60","laaa1x15zoszwl1",432,"4.csv","","null","resources/images/fishbone.png","null","",NA,NA,NA,NA,""
"image-keyboard-response",194,148259,"0.0-3.61-0.61","laaa1x15zoszwl1",432,"4.csv","","645.0000000000291","resources/trios/L1T4A3.jpg","37","restless",0.3,0.1,0.8,0.672706441023291,"false"
"image-keyboard-response",195,148664,"0.0-3.61-1.61","laaa1x15zoszwl1",432,"4.csv","","null","resources/maskTrios/L1BB.jpg","null","",NA,NA,NA,NA,""
"image-keyboard-response",196,149869,"0.0-3.61-2.61","laaa1x15zoszwl1",432,"4.csv","","null","resources/images/fishbone.png","null","",NA,NA,NA,NA,""
"image-keyboard-response",197,150275,"0.0-3.62-0.62","laaa1x15zoszwl1",432,"4.csv","","405","resources/trios/L1T1A3.jpg","37","restless",0.3,0.1,0.8,0.0324888820690281,"true"
"image-keyboard-response",198,150680,"0.0-3.62-1.62","laaa1x15zoszwl1",432,"4.csv","","null","resources/maskTrios/L1BB.jpg","null","",NA,NA,NA,NA,""
"image-keyboard-response",199,151885,"0.0-3.62-2.62","laaa1x15zoszwl1",432,"4.csv","","null","resources/images/coin2.png","null","",NA,NA,NA,NA,""
"image-keyboard-response",200,152065,"0.0-3.63-0.63","laaa1x15zoszwl1",432,"4.csv","","178","resources/trios/L1T4A2.jpg","38","restless",0.3,0.1,0.8,0.0125231582859184,"true"
"image-keyboard-response",201,152469,"0.0-3.63-1.63","laaa1x15zoszwl1",432,"4.csv","","null","resources/maskTrios/BT4B.jpg","null","",NA,NA,NA,NA,""
"image-keyboard-response",202,153674,"0.0-3.63-2.63","laaa1x15zoszwl1",432,"4.csv","","null","resources/images/coin2.png","null","",NA,NA,NA,NA,""
"image-keyboard-response",203,153949,"0.0-3.64-0.64","laaa1x15zoszwl1",432,"4.csv","","268","resources/trios/L2T4A2.jpg","38","restless",0.3,0.1,0.8,0.450196983265368,"false"
"image-keyboard-response",204,154353,"0.0-3.64-1.64","laaa1x15zoszwl1",432,"4.csv","","null","resources/maskTrios/BT4B.jpg","null","",NA,NA,NA,NA,""
"image-keyboard-response",205,155558,"0.0-3.64-2.64","laaa1x15zoszwl1",432,"4.csv","","null","resources/images/fishbone.png","null","",NA,NA,NA,NA,""
"image-keyboard-response",206,155598,"0.0-3.65-0.65","laaa1x15zoszwl1",432,"4.csv","","38.000000000029104","resources/trios/L2T1A2.jpg","39","restless",0.3,0.1,0.8,0.653236942941725,"true"
"image-keyboard-response",207,156003,"0.0-3.65-1.65","laaa1x15zoszwl1",432,"4.csv","","null","resources/maskTrios/BBA2.jpg","null","",NA,NA,NA,NA,""
"image-keyboard-response",208,157208,"0.0-3.65-2.65","laaa1x15zoszwl1",432,"4.csv","","null","resources/images/coin2.png","null","",NA,NA,NA,NA,""
"image-keyboard-response",209,157818,"0.0-3.66-0.66","laaa1x15zoszwl1",432,"4.csv","","608","resources/trios/L2T4A2.jpg","37","restless",0.3,0.1,0.8,0.447151103260985,"false"
"image-keyboard-response",210,158222,"0.0-3.66-1.66","laaa1x15zoszwl1",432,"4.csv","","null","resources/maskTrios/L2BB.jpg","null","",NA,NA,NA,NA,""
"image-keyboard-response",211,159427,"0.0-3.66-2.66","laaa1x15zoszwl1",432,"4.csv","","null","resources/images/fishbone.png","null","",NA,NA,NA,NA,""
"image-keyboard-response",212,159769,"0.0-3.67-0.67","laaa1x15zoszwl1",432,"4.csv","","338","resources/trios/L1T4A2.jpg","37","restless",0.4,0.1,0.8,0.983537617584235,"false"
"image-keyboard-response",213,160171,"0.0-3.67-1.67","laaa1x15zoszwl1",432,"4.csv","","null","resources/maskTrios/L1BB.jpg","null","",NA,NA,NA,NA,""
"image-keyboard-response",214,161374,"0.0-3.67-2.67","laaa1x15zoszwl1",432,"4.csv","","null","resources/images/fishbone.png","null","",NA,NA,NA,NA,""
"image-keyboard-response",215,161594,"0.0-3.68-0.68","laaa1x15zoszwl1",432,"4.csv","","219","resources/trios/L2T1A3.jpg","38","restless",0.4,0.2,0.8,0.342764362869391,"false"
"image-keyboard-response",216,161997,"0.0-3.68-1.68","laaa1x15zoszwl1",432,"4.csv","","null","resources/maskTrios/BT1B.jpg","null","",NA,NA,NA,NA,""
"image-keyboard-response",217,163201,"0.0-3.68-2.68","laaa1x15zoszwl1",432,"4.csv","","null","resources/images/fishbone.png","null","",NA,NA,NA,NA,""
"image-keyboard-response",218,165017,"0.0-3.69-0.69","laaa1x15zoszwl1",432,"4.csv","","1814","resources/trios/L1T4A2.jpg","37","restless",0.4,0.2,0.8,0.539558138375776,"false"
"image-keyboard-response",219,165419,"0.0-3.69-1.69","laaa1x15zoszwl1",432,"4.csv","","null","resources/maskTrios/L1BB.jpg","null","",NA,NA,NA,NA,""
"image-keyboard-response",220,166624,"0.0-3.69-2.69","laaa1x15zoszwl1",432,"4.csv","","null","resources/images/fishbone.png","null","",NA,NA,NA,NA,""
"image-keyboard-response",221,168108,"0.0-3.70-0.70","laaa1x15zoszwl1",432,"4.csv","","1483","resources/trios/L1T4A3.jpg","37","restless",0.4,0.2,0.8,0.558347188156507,"false"
"image-keyboard-response",222,168511,"0.0-3.70-1.70","laaa1x15zoszwl1",432,"4.csv","","null","resources/maskTrios/L1BB.jpg","null","",NA,NA,NA,NA,""
"image-keyboard-response",223,169715,"0.0-3.70-2.70","laaa1x15zoszwl1",432,"4.csv","","null","resources/images/fishbone.png","null","",NA,NA,NA,NA,""
"image-keyboard-response",224,170315,"0.0-3.71-0.71","laaa1x15zoszwl1",432,"4.csv","","598","resources/trios/L1T4A3.jpg","38","restless",0.4,0.2,0.8,0.29536083778766,"false"
"image-keyboard-response",225,170720,"0.0-3.71-1.71","laaa1x15zoszwl1",432,"4.csv","","null","resources/maskTrios/BT4B.jpg","null","",NA,NA,NA,NA,""
"image-keyboard-response",226,171924,"0.0-3.71-2.71","laaa1x15zoszwl1",432,"4.csv","","null","resources/images/fishbone.png","null","",NA,NA,NA,NA,""
"image-keyboard-response",227,172354,"0.0-3.72-0.72","laaa1x15zoszwl1",432,"4.csv","","424","resources/trios/L2T4A2.jpg","39","restless",0.4,0.2,0.8,0.320058341066225,"true"
"image-keyboard-response",228,172760,"0.0-3.72-1.72","laaa1x15zoszwl1",432,"4.csv","","null","resources/maskTrios/BBA2.jpg","null","",NA,NA,NA,NA,""
"image-keyboard-response",229,173965,"0.0-3.72-2.72","laaa1x15zoszwl1",432,"4.csv","","null","resources/images/coin2.png","null","",NA,NA,NA,NA,""
"image-keyboard-response",230,174290,"0.0-3.73-0.73","laaa1x15zoszwl1",432,"4.csv","","323","resources/trios/L1T1A3.jpg","37","restless",0.3,0.2,0.8,0.146577286608195,"true"
"image-keyboard-response",231,174695,"0.0-3.73-1.73","laaa1x15zoszwl1",432,"4.csv","","null","resources/maskTrios/L1BB.jpg","null","",NA,NA,NA,NA,""
"image-keyboard-response",232,175900,"0.0-3.73-2.73","laaa1x15zoszwl1",432,"4.csv","","null","resources/images/coin2.png","null","",NA,NA,NA,NA,""
"image-keyboard-response",233,176502,"0.0-3.74-0.74","laaa1x15zoszwl1",432,"4.csv","","601","resources/trios/L1T1A3.jpg","38","restless",0.3,0.2,0.8,0.842930819264832,"false"
"image-keyboard-response",234,176905,"0.0-3.74-1.74","laaa1x15zoszwl1",432,"4.csv","","null","resources/maskTrios/BT1B.jpg","null","",NA,NA,NA,NA,""
"image-keyboard-response",235,178108,"0.0-3.74-2.74","laaa1x15zoszwl1",432,"4.csv","","null","resources/images/fishbone.png","null","",NA,NA,NA,NA,""
"image-keyboard-response",236,179225,"0.0-3.75-0.75","laaa1x15zoszwl1",432,"4.csv","","1112","resources/trios/L2T4A3.jpg","39","restless",0.3,0.2,0.8,0.569082306860032,"true"
"image-keyboard-response",237,179629,"0.0-3.75-1.75","laaa1x15zoszwl1",432,"4.csv","","null","resources/maskTrios/BBA3.jpg","null","",NA,NA,NA,NA,""
"image-keyboard-response",238,180832,"0.0-3.75-2.75","laaa1x15zoszwl1",432,"4.csv","","null","resources/images/coin2.png","null","",NA,NA,NA,NA,""
"image-keyboard-response",239,181187,"0.0-3.76-0.76","laaa1x15zoszwl1",432,"4.csv","","353","resources/trios/L1T1A2.jpg","37","restless",0.3,0.2,0.7,0.258075518449487,"true"
"image-keyboard-response",240,181592,"0.0-3.76-1.76","laaa1x15zoszwl1",432,"4.csv","","null","resources/maskTrios/L1BB.jpg","null","",NA,NA,NA,NA,""
"image-keyboard-response",241,182795,"0.0-3.76-2.76","laaa1x15zoszwl1",432,"4.csv","","null","resources/images/coin2.png","null","",NA,NA,NA,NA,""
"image-keyboard-response",242,183562,"0.0-3.77-0.77","laaa1x15zoszwl1",432,"4.csv","","765","resources/trios/L2T1A2.jpg","37","restless",0.3,0.2,0.7,0.978793393668006,"false"
"image-keyboard-response",243,183965,"0.0-3.77-1.77","laaa1x15zoszwl1",432,"4.csv","","null","resources/maskTrios/L2BB.jpg","null","",NA,NA,NA,NA,""
"image-keyboard-response",244,185170,"0.0-3.77-2.77","laaa1x15zoszwl1",432,"4.csv","","null","resources/images/fishbone.png","null","",NA,NA,NA,NA,""
"image-keyboard-response",245,185627,"0.0-3.78-0.78","laaa1x15zoszwl1",432,"4.csv","","453.0000000000291","resources/trios/L2T4A3.jpg","37","restless",0.3,0.2,0.7,0.628547021473491,"false"
"image-keyboard-response",246,186031,"0.0-3.78-1.78","laaa1x15zoszwl1",432,"4.csv","","null","resources/maskTrios/L2BB.jpg","null","",NA,NA,NA,NA,""
"image-keyboard-response",247,187234,"0.0-3.78-2.78","laaa1x15zoszwl1",432,"4.csv","","null","resources/images/fishbone.png","null","",NA,NA,NA,NA,""
"image-keyboard-response",248,187365,"0.0-3.79-0.79","laaa1x15zoszwl1",432,"4.csv","","128.0000000000291","resources/trios/L2T4A3.jpg","37","restless",0.3,0.3,0.6,0.588332938009948,"false"
"image-keyboard-response",249,187770,"0.0-3.79-1.79","laaa1x15zoszwl1",432,"4.csv","","null","resources/maskTrios/L2BB.jpg","null","",NA,NA,NA,NA,""
"image-keyboard-response",250,188973,"0.0-3.79-2.79","laaa1x15zoszwl1",432,"4.csv","","null","resources/images/fishbone.png","null","",NA,NA,NA,NA,""
"image-keyboard-response",251,189908,"0.0-3.80-0.80","laaa1x15zoszwl1",432,"4.csv","","933","resources/trios/L1T1A2.jpg","38","restless",0.3,0.3,0.6,0.254435140155139,"true"
"image-keyboard-response",252,190312,"0.0-3.80-1.80","laaa1x15zoszwl1",432,"4.csv","","null","resources/maskTrios/BT1B.jpg","null","",NA,NA,NA,NA,""
"image-keyboard-response",253,191515,"0.0-3.80-2.80","laaa1x15zoszwl1",432,"4.csv","","null","resources/images/coin2.png","null","",NA,NA,NA,NA,""
"image-keyboard-response",254,191928,"0.0-3.81-0.81","laaa1x15zoszwl1",432,"4.csv","","411","resources/trios/L2T4A2.jpg","38","restless",0.3,0.3,0.6,0.653124037546673,"false"
"image-keyboard-response",255,192329,"0.0-3.81-1.81","laaa1x15zoszwl1",432,"4.csv","","null","resources/maskTrios/BT4B.jpg","null","",NA,NA,NA,NA,""
"image-keyboard-response",256,193532,"0.0-3.81-2.81","laaa1x15zoszwl1",432,"4.csv","","null","resources/images/fishbone.png","null","",NA,NA,NA,NA,""
"image-keyboard-response",257,193726,"0.0-3.82-0.82","laaa1x15zoszwl1",432,"4.csv","","191","resources/trios/L1T4A3.jpg","39","restless",0.3,0.3,0.6,0.0725095967350716,"true"
"image-keyboard-response",258,194130,"0.0-3.82-1.82","laaa1x15zoszwl1",432,"4.csv","","null","resources/maskTrios/BBA3.jpg","null","",NA,NA,NA,NA,""
"image-keyboard-response",259,195335,"0.0-3.82-2.82","laaa1x15zoszwl1",432,"4.csv","","null","resources/images/coin2.png","null","",NA,NA,NA,NA,""
"image-keyboard-response",260,195468,"0.0-3.83-0.83","laaa1x15zoszwl1",432,"4.csv","","130","resources/trios/L2T1A3.jpg","39","restless",0.4,0.3,0.6,0.1711960561083,"true"
"image-keyboard-response",261,195872,"0.0-3.83-1.83","laaa1x15zoszwl1",432,"4.csv","","null","resources/maskTrios/BBA3.jpg","null","",NA,NA,NA,NA,""
"image-keyboard-response",262,197081,"0.0-3.83-2.83","laaa1x15zoszwl1",432,"4.csv","","null","resources/images/coin2.png","null","",NA,NA,NA,NA,""
"image-keyboard-response",263,197515,"0.0-3.84-0.84","laaa1x15zoszwl1",432,"4.csv","","432","resources/trios/L1T1A3.jpg","37","restless",0.5,0.4,0.6,0.260101918964864,"true"
"image-keyboard-response",264,197918,"0.0-3.84-1.84","laaa1x15zoszwl1",432,"4.csv","","null","resources/maskTrios/L1BB.jpg","null","",NA,NA,NA,NA,""
"image-keyboard-response",265,199123,"0.0-3.84-2.84","laaa1x15zoszwl1",432,"4.csv","","null","resources/images/coin2.png","null","",NA,NA,NA,NA,""
"image-keyboard-response",266,199570,"0.0-3.85-0.85","laaa1x15zoszwl1",432,"4.csv","","445","resources/trios/L1T1A3.jpg","37","restless",0.4,0.4,0.6,0.164825117953535,"true"
"image-keyboard-response",267,199978,"0.0-3.85-1.85","laaa1x15zoszwl1",432,"4.csv","","null","resources/maskTrios/L1BB.jpg","null","",NA,NA,NA,NA,""
"image-keyboard-response",268,201181,"0.0-3.85-2.85","laaa1x15zoszwl1",432,"4.csv","","null","resources/images/coin2.png","null","",NA,NA,NA,NA,""
"image-keyboard-response",269,202221,"0.0-3.86-0.86","laaa1x15zoszwl1",432,"4.csv","","1038.000000000029","resources/trios/L1T4A2.jpg","37","restless",0.4,0.4,0.6,0.328404881366417,"true"
"image-keyboard-response",270,202626,"0.0-3.86-1.86","laaa1x15zoszwl1",432,"4.csv","","null","resources/maskTrios/L1BB.jpg","null","",NA,NA,NA,NA,""
"image-keyboard-response",271,203831,"0.0-3.86-2.86","laaa1x15zoszwl1",432,"4.csv","","null","resources/images/coin2.png","null","",NA,NA,NA,NA,""
"image-keyboard-response",272,204159,"0.0-3.87-0.87","laaa1x15zoszwl1",432,"4.csv","","326","resources/trios/L1T4A2.jpg","37","restless",0.4,0.4,0.6,0.19726062142003,"true"
"image-keyboard-response",273,204564,"0.0-3.87-1.87","laaa1x15zoszwl1",432,"4.csv","","null","resources/maskTrios/L1BB.jpg","null","",NA,NA,NA,NA,""
"image-keyboard-response",274,205769,"0.0-3.87-2.87","laaa1x15zoszwl1",432,"4.csv","","null","resources/images/coin2.png","null","",NA,NA,NA,NA,""
"image-keyboard-response",275,206357,"0.0-3.88-0.88","laaa1x15zoszwl1",432,"4.csv","","586","resources/trios/L1T4A3.jpg","38","restless",0.4,0.4,0.6,0.89777364036594,"false"
"image-keyboard-response",276,206763,"0.0-3.88-1.88","laaa1x15zoszwl1",432,"4.csv","","null","resources/maskTrios/BT4B.jpg","null","",NA,NA,NA,NA,""
"image-keyboard-response",277,207966,"0.0-3.88-2.88","laaa1x15zoszwl1",432,"4.csv","","null","resources/images/fishbone.png","null","",NA,NA,NA,NA,""
"image-keyboard-response",278,210271,"0.0-3.89-0.89","laaa1x15zoszwl1",432,"4.csv","","2301","resources/trios/L2T4A3.jpg","37","restless",0.3,0.4,0.6,0.465801541156241,"false"
"image-keyboard-response",279,210677,"0.0-3.89-1.89","laaa1x15zoszwl1",432,"4.csv","","null","resources/maskTrios/L2BB.jpg","null","",NA,NA,NA,NA,""
"image-keyboard-response",280,211882,"0.0-3.89-2.89","laaa1x15zoszwl1",432,"4.csv","","null","resources/images/fishbone.png","null","",NA,NA,NA,NA,""
"image-keyboard-response",281,212443,"0.0-3.90-0.90","laaa1x15zoszwl1",432,"4.csv","","558","resources/trios/L2T1A3.jpg","37","restless",0.3,0.4,0.6,0.772256735456165,"false"
"image-keyboard-response",282,212847,"0.0-3.90-1.90","laaa1x15zoszwl1",432,"4.csv","","null","resources/maskTrios/L2BB.jpg","null","",NA,NA,NA,NA,""
"image-keyboard-response",283,214052,"0.0-3.90-2.90","laaa1x15zoszwl1",432,"4.csv","","null","resources/images/fishbone.png","null","",NA,NA,NA,NA,""
"image-keyboard-response",284,214574,"0.0-3.91-0.91","laaa1x15zoszwl1",432,"4.csv","","519.9999999999709","resources/trios/L2T1A2.jpg","37","restless",0.3,0.4,0.6,0.870313464695301,"false"
"image-keyboard-response",285,214977,"0.0-3.91-1.91","laaa1x15zoszwl1",432,"4.csv","","null","resources/maskTrios/L2BB.jpg","null","",NA,NA,NA,NA,""
"image-keyboard-response",286,216182,"0.0-3.91-2.91","laaa1x15zoszwl1",432,"4.csv","","null","resources/images/fishbone.png","null","",NA,NA,NA,NA,""
"image-keyboard-response",287,217039,"0.0-3.92-0.92","laaa1x15zoszwl1",432,"4.csv","","855","resources/trios/L2T4A3.jpg","37","restless",0.3,0.4,0.6,0.253059536977801,"true"
"image-keyboard-response",288,217444,"0.0-3.92-1.92","laaa1x15zoszwl1",432,"4.csv","","null","resources/maskTrios/L2BB.jpg","null","",NA,NA,NA,NA,""
"image-keyboard-response",289,218649,"0.0-3.92-2.92","laaa1x15zoszwl1",432,"4.csv","","null","resources/images/coin2.png","null","",NA,NA,NA,NA,""
"image-keyboard-response",290,218961,"0.0-3.93-0.93","laaa1x15zoszwl1",432,"4.csv","","309","resources/trios/L2T4A3.jpg","37","restless",0.3,0.4,0.6,0.565159018871021,"false"
"image-keyboard-response",291,219365,"0.0-3.93-1.93","laaa1x15zoszwl1",432,"4.csv","","null","resources/maskTrios/L2BB.jpg","null","",NA,NA,NA,NA,""
"image-keyboard-response",292,220567,"0.0-3.93-2.93","laaa1x15zoszwl1",432,"4.csv","","null","resources/images/fishbone.png","null","",NA,NA,NA,NA,""
"image-keyboard-response",293,221837,"0.0-3.94-0.94","laaa1x15zoszwl1",432,"4.csv","","1266","resources/trios/L1T1A2.jpg","38","restless",0.3,0.4,0.6,0.476184350773627,"false"
"image-keyboard-response",294,222240,"0.0-3.94-1.94","laaa1x15zoszwl1",432,"4.csv","","null","resources/maskTrios/BT1B.jpg","null","",NA,NA,NA,NA,""
"image-keyboard-response",295,223445,"0.0-3.94-2.94","laaa1x15zoszwl1",432,"4.csv","","null","resources/images/fishbone.png","null","",NA,NA,NA,NA,""
"image-keyboard-response",296,223765,"0.0-3.95-0.95","laaa1x15zoszwl1",432,"4.csv","","317.9999999999709","resources/trios/L2T1A3.jpg","37","restless",0.3,0.4,0.6,0.703867076659149,"false"
"image-keyboard-response",297,224170,"0.0-3.95-1.95","laaa1x15zoszwl1",432,"4.csv","","null","resources/maskTrios/L2BB.jpg","null","",NA,NA,NA,NA,""
"image-keyboard-response",298,225374,"0.0-3.95-2.95","laaa1x15zoszwl1",432,"4.csv","","null","resources/images/fishbone.png","null","",NA,NA,NA,NA,""
"image-keyboard-response",299,226650,"0.0-3.96-0.96","laaa1x15zoszwl1",432,"4.csv","","1273","resources/trios/L2T1A3.jpg","37","restless",0.3,0.5,0.6,0.536605061804511,"false"
"image-keyboard-response",300,227055,"0.0-3.96-1.96","laaa1x15zoszwl1",432,"4.csv","","null","resources/maskTrios/L2BB.jpg","null","",NA,NA,NA,NA,""
"image-keyboard-response",301,228260,"0.0-3.96-2.96","laaa1x15zoszwl1",432,"4.csv","","null","resources/images/fishbone.png","null","",NA,NA,NA,NA,""
"image-keyboard-response",302,229556,"0.0-3.97-0.97","laaa1x15zoszwl1",432,"4.csv","","1290","resources/trios/L1T4A2.jpg","37","restless",0.3,0.5,0.6,0.176996191366386,"true"
"image-keyboard-response",303,229961,"0.0-3.97-1.97","laaa1x15zoszwl1",432,"4.csv","","null","resources/maskTrios/L1BB.jpg","null","",NA,NA,NA,NA,""
"image-keyboard-response",304,231166,"0.0-3.97-2.97","laaa1x15zoszwl1",432,"4.csv","","null","resources/images/coin2.png","null","",NA,NA,NA,NA,""
"image-keyboard-response",305,232532,"0.0-3.98-0.98","laaa1x15zoszwl1",432,"4.csv","","1363","resources/trios/L1T1A2.jpg","37","restless",0.3,0.5,0.6,0.919532233635183,"false"
"image-keyboard-response",306,232937,"0.0-3.98-1.98","laaa1x15zoszwl1",432,"4.csv","","null","resources/maskTrios/L1BB.jpg","null","",NA,NA,NA,NA,""
"image-keyboard-response",307,234140,"0.0-3.98-2.98","laaa1x15zoszwl1",432,"4.csv","","null","resources/images/fishbone.png","null","",NA,NA,NA,NA,""
"image-keyboard-response",308,236518,"0.0-3.99-0.99","laaa1x15zoszwl1",432,"4.csv","","2376.000000000029","resources/trios/L2T1A3.jpg","37","restless",0.3,0.5,0.6,0.372239996395925,"false"
"image-keyboard-response",309,236921,"0.0-3.99-1.99","laaa1x15zoszwl1",432,"4.csv","","null","resources/maskTrios/L2BB.jpg","null","",NA,NA,NA,NA,""
"image-keyboard-response",310,238126,"0.0-3.99-2.99","laaa1x15zoszwl1",432,"4.csv","","null","resources/images/fishbone.png","null","",NA,NA,NA,NA,""
"image-keyboard-response",311,238660,"0.0-3.100-0.100","laaa1x15zoszwl1",432,"4.csv","","533.0000000000291","resources/trios/L1T1A2.jpg","37","restless",0.3,0.5,0.6,0.583923608969788,"false"
"image-keyboard-response",312,239063,"0.0-3.100-1.100","laaa1x15zoszwl1",432,"4.csv","","null","resources/maskTrios/L1BB.jpg","null","",NA,NA,NA,NA,""
"image-keyboard-response",313,240271,"0.0-3.100-2.100","laaa1x15zoszwl1",432,"4.csv","","null","resources/images/fishbone.png","null","",NA,NA,NA,NA,""
"image-keyboard-response",314,240564,"0.0-3.101-0.101","laaa1x15zoszwl1",432,"4.csv","","290.9999999999709","resources/trios/L2T1A3.jpg","38","restless",0.3,0.5,0.6,0.508904952598448,"false"
"image-keyboard-response",315,240969,"0.0-3.101-1.101","laaa1x15zoszwl1",432,"4.csv","","null","resources/maskTrios/BT1B.jpg","null","",NA,NA,NA,NA,""
"image-keyboard-response",316,242172,"0.0-3.101-2.101","laaa1x15zoszwl1",432,"4.csv","","null","resources/images/fishbone.png","null","",NA,NA,NA,NA,""
"image-keyboard-response",317,242308,"0.0-3.102-0.102","laaa1x15zoszwl1",432,"4.csv","","133","resources/trios/L2T4A2.jpg","39","restless",0.3,0.5,0.6,0.528402828667573,"true"
"image-keyboard-response",318,242710,"0.0-3.102-1.102","laaa1x15zoszwl1",432,"4.csv","","null","resources/maskTrios/BBA2.jpg","null","",NA,NA,NA,NA,""
"image-keyboard-response",319,243912,"0.0-3.102-2.102","laaa1x15zoszwl1",432,"4.csv","","null","resources/images/coin2.png","null","",NA,NA,NA,NA,""
"image-keyboard-response",320,244170,"0.0-3.103-0.103","laaa1x15zoszwl1",432,"4.csv","","256","resources/trios/L1T1A3.jpg","38","restless",0.3,0.5,0.7,0.510787390466268,"false"
"image-keyboard-response",321,244575,"0.0-3.103-1.103","laaa1x15zoszwl1",432,"4.csv","","null","resources/maskTrios/BT1B.jpg","null","",NA,NA,NA,NA,""
"image-keyboard-response",322,245779,"0.0-3.103-2.103","laaa1x15zoszwl1",432,"4.csv","","null","resources/images/fishbone.png","null","",NA,NA,NA,NA,""
"image-keyboard-response",323,245961,"0.0-3.104-0.104","laaa1x15zoszwl1",432,"4.csv","","180","resources/trios/L1T4A2.jpg","38","restless",0.3,0.5,0.7,0.136989953602544,"true"
"image-keyboard-response",324,246363,"0.0-3.104-1.104","laaa1x15zoszwl1",432,"4.csv","","null","resources/maskTrios/BT4B.jpg","null","",NA,NA,NA,NA,""
"image-keyboard-response",325,247569,"0.0-3.104-2.104","laaa1x15zoszwl1",432,"4.csv","","null","resources/images/coin2.png","null","",NA,NA,NA,NA,""
"image-keyboard-response",326,248728,"0.0-3.105-0.105","laaa1x15zoszwl1",432,"4.csv","","1156","resources/trios/L2T1A3.jpg","38","restless",0.3,0.5,0.6,0.627127326544473,"false"
"image-keyboard-response",327,249131,"0.0-3.105-1.105","laaa1x15zoszwl1",432,"4.csv","","null","resources/maskTrios/BT1B.jpg","null","",NA,NA,NA,NA,""
"image-keyboard-response",328,250337,"0.0-3.105-2.105","laaa1x15zoszwl1",432,"4.csv","","null","resources/images/fishbone.png","null","",NA,NA,NA,NA,""
"image-keyboard-response",329,250367,"0.0-3.106-0.106","laaa1x15zoszwl1",432,"4.csv","","27.999999999970896","resources/trios/L1T1A2.jpg","38","restless",0.3,0.5,0.6,0.6682988964514,"false"
"image-keyboard-response",330,250772,"0.0-3.106-1.106","laaa1x15zoszwl1",432,"4.csv","","null","resources/maskTrios/BT1B.jpg","null","",NA,NA,NA,NA,""
"image-keyboard-response",331,251975,"0.0-3.106-2.106","laaa1x15zoszwl1",432,"4.csv","","null","resources/images/fishbone.png","null","",NA,NA,NA,NA,""
"image-keyboard-response",332,252913,"0.0-3.107-0.107","laaa1x15zoszwl1",432,"4.csv","","935","resources/trios/L1T4A2.jpg","38","restless",0.3,0.5,0.6,0.114809773015013,"true"
"image-keyboard-response",333,253315,"0.0-3.107-1.107","laaa1x15zoszwl1",432,"4.csv","","null","resources/maskTrios/BT4B.jpg","null","",NA,NA,NA,NA,""
"image-keyboard-response",334,254518,"0.0-3.107-2.107","laaa1x15zoszwl1",432,"4.csv","","null","resources/images/coin2.png","null","",NA,NA,NA,NA,""
"image-keyboard-response",335,255878,"0.0-3.108-0.108","laaa1x15zoszwl1",432,"4.csv","","1357.9999999999418","resources/trios/L2T4A3.jpg","37","restless",0.3,0.5,0.6,0.434583154279609,"false"
"image-keyboard-response",336,256285,"0.0-3.108-1.108","laaa1x15zoszwl1",432,"4.csv","","null","resources/maskTrios/L2BB.jpg","null","",NA,NA,NA,NA,""
"image-keyboard-response",337,257490,"0.0-3.108-2.108","laaa1x15zoszwl1",432,"4.csv","","null","resources/images/fishbone.png","null","",NA,NA,NA,NA,""
"image-keyboard-response",338,258119,"0.0-3.109-0.109","laaa1x15zoszwl1",432,"4.csv","","627","resources/trios/L2T4A3.jpg","37","restless",0.3,0.5,0.6,0.0164771331381812,"true"
"image-keyboard-response",339,258521,"0.0-3.109-1.109","laaa1x15zoszwl1",432,"4.csv","","null","resources/maskTrios/L2BB.jpg","null","",NA,NA,NA,NA,""
"image-keyboard-response",340,259724,"0.0-3.109-2.109","laaa1x15zoszwl1",432,"4.csv","","null","resources/images/coin2.png","null","",NA,NA,NA,NA,""
"image-keyboard-response",341,260642,"0.0-3.110-0.110","laaa1x15zoszwl1",432,"4.csv","","915","resources/trios/L2T1A2.jpg","39","restless",0.3,0.5,0.6,0.149896418256987,"true"
"image-keyboard-response",342,261044,"0.0-3.110-1.110","laaa1x15zoszwl1",432,"4.csv","","null","resources/maskTrios/BBA2.jpg","null","",NA,NA,NA,NA,""
"image-keyboard-response",343,262249,"0.0-3.110-2.110","laaa1x15zoszwl1",432,"4.csv","","null","resources/images/coin2.png","null","",NA,NA,NA,NA,""
"image-keyboard-response",344,314956,"0.0-3.111-0.111","laaa1x15zoszwl1",432,"4.csv","","52611","resources/trios/L2T4A2.jpg","39","restless",0.4,0.5,0.6,0.581498777517276,"true"
"image-keyboard-response",345,315362,"0.0-3.111-1.111","laaa1x15zoszwl1",432,"4.csv","","null","resources/maskTrios/BBA2.jpg","null","",NA,NA,NA,NA,""
"image-keyboard-response",346,316567,"0.0-3.111-2.111","laaa1x15zoszwl1",432,"4.csv","","null","resources/images/coin2.png","null","",NA,NA,NA,NA,""
"image-keyboard-response",347,317018,"0.0-3.112-0.112","laaa1x15zoszwl1",432,"4.csv","","447","resources/trios/L1T1A2.jpg","39","restless",0.4,0.5,0.6,0.142666626251908,"true"
"image-keyboard-response",348,317422,"0.0-3.112-1.112","laaa1x15zoszwl1",432,"4.csv","","null","resources/maskTrios/BBA2.jpg","null","",NA,NA,NA,NA,""
"image-keyboard-response",349,318625,"0.0-3.112-2.112","laaa1x15zoszwl1",432,"4.csv","","null","resources/images/coin2.png","null","",NA,NA,NA,NA,""
"image-keyboard-response",350,318629,"0.0-3.113-0.113","laaa1x15zoszwl1",432,"4.csv","","0","resources/trios/L2T4A2.jpg","39","restless",0.3,0.5,0.6,0.153318653776779,"true"
"image-keyboard-response",351,319032,"0.0-3.113-1.113","laaa1x15zoszwl1",432,"4.csv","","null","resources/maskTrios/BBA2.jpg","null","",NA,NA,NA,NA,""
"image-keyboard-response",352,320235,"0.0-3.113-2.113","laaa1x15zoszwl1",432,"4.csv","","null","resources/images/coin2.png","null","",NA,NA,NA,NA,""
"image-keyboard-response",353,321010,"0.0-3.114-0.114","laaa1x15zoszwl1",432,"4.csv","","772.9999999999418","resources/trios/L2T4A2.jpg","39","restless",0.3,0.5,0.6,0.428452110081521,"true"
"image-keyboard-response",354,321413,"0.0-3.114-1.114","laaa1x15zoszwl1",432,"4.csv","","null","resources/maskTrios/BBA2.jpg","null","",NA,NA,NA,NA,""
"image-keyboard-response",355,322616,"0.0-3.114-2.114","laaa1x15zoszwl1",432,"4.csv","","null","resources/images/coin2.png","null","",NA,NA,NA,NA,""
"image-keyboard-response",356,322925,"0.0-3.115-0.115","laaa1x15zoszwl1",432,"4.csv","","306","resources/trios/L1T1A3.jpg","39","restless",0.3,0.5,0.6,0.214154396083007,"true"
"image-keyboard-response",357,323329,"0.0-3.115-1.115","laaa1x15zoszwl1",432,"4.csv","","null","resources/maskTrios/BBA3.jpg","null","",NA,NA,NA,NA,""
"image-keyboard-response",358,324533,"0.0-3.115-2.115","laaa1x15zoszwl1",432,"4.csv","","null","resources/images/coin2.png","null","",NA,NA,NA,NA,""
"image-keyboard-response",359,324929,"0.0-3.116-0.116","laaa1x15zoszwl1",432,"4.csv","","391","resources/trios/L2T1A3.jpg","39","restless",0.3,0.5,0.6,0.779881285312228,"false"
"image-keyboard-response",360,325332,"0.0-3.116-1.116","laaa1x15zoszwl1",432,"4.csv","","null","resources/maskTrios/BBA3.jpg","null","",NA,NA,NA,NA,""
"image-keyboard-response",361,326537,"0.0-3.116-2.116","laaa1x15zoszwl1",432,"4.csv","","null","resources/images/fishbone.png","null","",NA,NA,NA,NA,""
"image-keyboard-response",362,326663,"0.0-3.117-0.117","laaa1x15zoszwl1",432,"4.csv","","124","resources/trios/L1T4A3.jpg","38","restless",0.3,0.5,0.6,0.633296809277851,"false"
"image-keyboard-response",363,327068,"0.0-3.117-1.117","laaa1x15zoszwl1",432,"4.csv","","null","resources/maskTrios/BT4B.jpg","null","",NA,NA,NA,NA,""
"image-keyboard-response",364,328273,"0.0-3.117-2.117","laaa1x15zoszwl1",432,"4.csv","","null","resources/images/fishbone.png","null","",NA,NA,NA,NA,""
"image-keyboard-response",365,328508,"0.0-3.118-0.118","laaa1x15zoszwl1",432,"4.csv","","233","resources/trios/L2T1A2.jpg","37","restless",0.3,0.5,0.6,0.229966202995188,"true"
"image-keyboard-response",366,328913,"0.0-3.118-1.118","laaa1x15zoszwl1",432,"4.csv","","null","resources/maskTrios/L2BB.jpg","null","",NA,NA,NA,NA,""
"image-keyboard-response",367,330118,"0.0-3.118-2.118","laaa1x15zoszwl1",432,"4.csv","","null","resources/images/coin2.png","null","",NA,NA,NA,NA,""
"image-keyboard-response",368,330531,"0.0-3.119-0.119","laaa1x15zoszwl1",432,"4.csv","","411","resources/trios/L2T1A2.jpg","37","restless",0.3,0.5,0.6,0.00785311226528262,"true"
"image-keyboard-response",369,330935,"0.0-3.119-1.119","laaa1x15zoszwl1",432,"4.csv","","null","resources/maskTrios/L2BB.jpg","null","",NA,NA,NA,NA,""
"image-keyboard-response",370,332138,"0.0-3.119-2.119","laaa1x15zoszwl1",432,"4.csv","","null","resources/images/coin2.png","null","",NA,NA,NA,NA,""
"image-keyboard-response",371,332382,"0.0-3.120-0.120","laaa1x15zoszwl1",432,"4.csv","","241","resources/trios/L2T4A2.jpg","37","restless",0.3,0.6,0.6,0.546786865823286,"false"
"image-keyboard-response",372,332784,"0.0-3.120-1.120","laaa1x15zoszwl1",432,"4.csv","","null","resources/maskTrios/L2BB.jpg","null","",NA,NA,NA,NA,""
"image-keyboard-response",373,333989,"0.0-3.120-2.120","laaa1x15zoszwl1",432,"4.csv","","null","resources/images/fishbone.png","null","",NA,NA,NA,NA,""
"image-keyboard-response",374,334295,"0.0-3.121-0.121","laaa1x15zoszwl1",432,"4.csv","","304","resources/trios/L1T1A2.jpg","38","restless",0.3,0.6,0.6,0.0912033670192571,"true"
"image-keyboard-response",375,334698,"0.0-3.121-1.121","laaa1x15zoszwl1",432,"4.csv","","null","resources/maskTrios/BT1B.jpg","null","",NA,NA,NA,NA,""
"image-keyboard-response",376,335901,"0.0-3.121-2.121","laaa1x15zoszwl1",432,"4.csv","","null","resources/images/coin2.png","null","",NA,NA,NA,NA,""
"image-keyboard-response",377,336020,"0.0-3.122-0.122","laaa1x15zoszwl1",432,"4.csv","","118","resources/trios/L2T1A3.jpg","38","restless",0.3,0.6,0.6,0.833649365615569,"false"
"image-keyboard-response",378,336425,"0.0-3.122-1.122","laaa1x15zoszwl1",432,"4.csv","","null","resources/maskTrios/BT1B.jpg","null","",NA,NA,NA,NA,""
"image-keyboard-response",379,337628,"0.0-3.122-2.122","laaa1x15zoszwl1",432,"4.csv","","null","resources/images/fishbone.png","null","",NA,NA,NA,NA,""
"image-keyboard-response",380,339264,"0.0-3.123-0.123","laaa1x15zoszwl1",432,"4.csv","","1634","resources/trios/L2T1A3.jpg","38","restless",0.2,0.6,0.6,0.308508589224634,"true"
"image-keyboard-response",381,339668,"0.0-3.123-1.123","laaa1x15zoszwl1",432,"4.csv","","null","resources/maskTrios/BT1B.jpg","null","",NA,NA,NA,NA,""
"image-keyboard-response",382,340871,"0.0-3.123-2.123","laaa1x15zoszwl1",432,"4.csv","","null","resources/images/coin2.png","null","",NA,NA,NA,NA,""
"image-keyboard-response",383,341433,"0.0-3.124-0.124","laaa1x15zoszwl1",432,"4.csv","","558.0000000000582","resources/trios/L2T1A2.jpg","37","restless",0.2,0.6,0.6,0.478833379018469,"false"
"image-keyboard-response",384,341835,"0.0-3.124-1.124","laaa1x15zoszwl1",432,"4.csv","","null","resources/maskTrios/L2BB.jpg","null","",NA,NA,NA,NA,""
"image-keyboard-response",385,343040,"0.0-3.124-2.124","laaa1x15zoszwl1",432,"4.csv","","null","resources/images/fishbone.png","null","",NA,NA,NA,NA,""
"image-keyboard-response",386,343607,"0.0-3.125-0.125","laaa1x15zoszwl1",432,"4.csv","","565","resources/trios/L2T1A3.jpg","37","restless",0.2,0.6,0.6,0.811085615040805,"false"
"image-keyboard-response",387,344010,"0.0-3.125-1.125","laaa1x15zoszwl1",432,"4.csv","","null","resources/maskTrios/L2BB.jpg","null","",NA,NA,NA,NA,""
"image-keyboard-response",388,345219,"0.0-3.125-2.125","laaa1x15zoszwl1",432,"4.csv","","null","resources/images/fishbone.png","null","",NA,NA,NA,NA,""
"image-keyboard-response",389,345283,"0.0-3.126-0.126","laaa1x15zoszwl1",432,"4.csv","","62","resources/trios/L2T4A3.jpg","38","restless",0.2,0.6,0.6,0.374321244469053,"true"
"image-keyboard-response",390,345687,"0.0-3.126-1.126","laaa1x15zoszwl1",432,"4.csv","","null","resources/maskTrios/BT4B.jpg","null","",NA,NA,NA,NA,""
"image-keyboard-response",391,346893,"0.0-3.126-2.126","laaa1x15zoszwl1",432,"4.csv","","null","resources/images/coin2.png","null","",NA,NA,NA,NA,""
"image-keyboard-response",392,347234,"0.0-3.127-0.127","laaa1x15zoszwl1",432,"4.csv","","340","resources/trios/L1T4A2.jpg","38","restless",0.3,0.6,0.6,0.846690690161247,"false"
"image-keyboard-response",393,347639,"0.0-3.127-1.127","laaa1x15zoszwl1",432,"4.csv","","null","resources/maskTrios/BT4B.jpg","null","",NA,NA,NA,NA,""
"image-keyboard-response",394,348844,"0.0-3.127-2.127","laaa1x15zoszwl1",432,"4.csv","","null","resources/images/fishbone.png","null","",NA,NA,NA,NA,""
"image-keyboard-response",395,349130,"0.0-3.128-0.128","laaa1x15zoszwl1",432,"4.csv","","284","resources/trios/L2T1A2.jpg","39","restless",0.3,0.6,0.6,0.726388199518092,"false"
"image-keyboard-response",396,349535,"0.0-3.128-1.128","laaa1x15zoszwl1",432,"4.csv","","null","resources/maskTrios/BBA2.jpg","null","",NA,NA,NA,NA,""
"image-keyboard-response",397,350739,"0.0-3.128-2.128","laaa1x15zoszwl1",432,"4.csv","","null","resources/images/fishbone.png","null","",NA,NA,NA,NA,""
"image-keyboard-response",398,350843,"0.0-3.129-0.129","laaa1x15zoszwl1",432,"4.csv","","102","resources/trios/L1T4A2.jpg","38","restless",0.3,0.6,0.6,0.999969186266396,"false"
"image-keyboard-response",399,351245,"0.0-3.129-1.129","laaa1x15zoszwl1",432,"4.csv","","null","resources/maskTrios/BT4B.jpg","null","",NA,NA,NA,NA,""
"image-keyboard-response",400,352450,"0.0-3.129-2.129","laaa1x15zoszwl1",432,"4.csv","","null","resources/images/fishbone.png","null","",NA,NA,NA,NA,""
"image-keyboard-response",401,352761,"0.0-3.130-0.130","laaa1x15zoszwl1",432,"4.csv","","309","resources/trios/L2T4A2.jpg","37","restless",0.3,0.6,0.6,0.988091470269307,"false"
"image-keyboard-response",402,353166,"0.0-3.130-1.130","laaa1x15zoszwl1",432,"4.csv","","null","resources/maskTrios/L2BB.jpg","null","",NA,NA,NA,NA,""
"image-keyboard-response",403,354368,"0.0-3.130-2.130","laaa1x15zoszwl1",432,"4.csv","","null","resources/images/fishbone.png","null","",NA,NA,NA,NA,""
"image-keyboard-response",404,354794,"0.0-3.131-0.131","laaa1x15zoszwl1",432,"4.csv","","421.9999999999418","resources/trios/L2T1A2.jpg","38","restless",0.3,0.5,0.5,0.308545055091114,"true"
"image-keyboard-response",405,355199,"0.0-3.131-1.131","laaa1x15zoszwl1",432,"4.csv","","null","resources/maskTrios/BT1B.jpg","null","",NA,NA,NA,NA,""
"image-keyboard-response",406,356402,"0.0-3.131-2.131","laaa1x15zoszwl1",432,"4.csv","","null","resources/images/coin2.png","null","",NA,NA,NA,NA,""
"image-keyboard-response",407,356721,"0.0-3.132-0.132","laaa1x15zoszwl1",432,"4.csv","","316","resources/trios/L2T4A2.jpg","39","restless",0.3,0.5,0.5,0.182797888769126,"true"
"image-keyboard-response",408,357124,"0.0-3.132-1.132","laaa1x15zoszwl1",432,"4.csv","","null","resources/maskTrios/BBA2.jpg","null","",NA,NA,NA,NA,""
"image-keyboard-response",409,358329,"0.0-3.132-2.132","laaa1x15zoszwl1",432,"4.csv","","null","resources/images/coin2.png","null","",NA,NA,NA,NA,""
"image-keyboard-response",410,358853,"0.0-3.133-0.133","laaa1x15zoszwl1",432,"4.csv","","523","resources/trios/L2T1A2.jpg","37","restless",0.3,0.5,0.5,0.964818713522476,"false"
"image-keyboard-response",411,359256,"0.0-3.133-1.133","laaa1x15zoszwl1",432,"4.csv","","null","resources/maskTrios/L2BB.jpg","null","",NA,NA,NA,NA,""
"image-keyboard-response",412,360461,"0.0-3.133-2.133","laaa1x15zoszwl1",432,"4.csv","","null","resources/images/fishbone.png","null","",NA,NA,NA,NA,""
"image-keyboard-response",413,360897,"0.0-3.134-0.134","laaa1x15zoszwl1",432,"4.csv","","431.0000000000582","resources/trios/L1T4A3.jpg","39","restless",0.3,0.5,0.5,0.567649216756304,"false"
"image-keyboard-response",414,361302,"0.0-3.134-1.134","laaa1x15zoszwl1",432,"4.csv","","null","resources/maskTrios/BBA3.jpg","null","",NA,NA,NA,NA,""
"image-keyboard-response",415,362507,"0.0-3.134-2.134","laaa1x15zoszwl1",432,"4.csv","","null","resources/images/fishbone.png","null","",NA,NA,NA,NA,""
"image-keyboard-response",416,363067,"0.0-3.135-0.135","laaa1x15zoszwl1",432,"4.csv","","556.9999999999418","resources/trios/L1T4A2.jpg","38","restless",0.3,0.5,0.5,0.577196667919311,"false"
"image-keyboard-response",417,363471,"0.0-3.135-1.135","laaa1x15zoszwl1",432,"4.csv","","null","resources/maskTrios/BT4B.jpg","null","",NA,NA,NA,NA,""
"image-keyboard-response",418,364676,"0.0-3.135-2.135","laaa1x15zoszwl1",432,"4.csv","","null","resources/images/fishbone.png","null","",NA,NA,NA,NA,""
"image-keyboard-response",419,364900,"0.0-3.136-0.136","laaa1x15zoszwl1",432,"4.csv","","222","resources/trios/L2T4A3.jpg","37","restless",0.3,0.5,0.5,0.545681719693954,"false"
"image-keyboard-response",420,365305,"0.0-3.136-1.136","laaa1x15zoszwl1",432,"4.csv","","null","resources/maskTrios/L2BB.jpg","null","",NA,NA,NA,NA,""
"image-keyboard-response",421,366510,"0.0-3.136-2.136","laaa1x15zoszwl1",432,"4.csv","","null","resources/images/fishbone.png","null","",NA,NA,NA,NA,""
"image-keyboard-response",422,366782,"0.0-3.137-0.137","laaa1x15zoszwl1",432,"4.csv","","270","resources/trios/L1T1A2.jpg","38","restless",0.4,0.5,0.5,0.355688616026517,"true"
"image-keyboard-response",423,367187,"0.0-3.137-1.137","laaa1x15zoszwl1",432,"4.csv","","null","resources/maskTrios/BT1B.jpg","null","",NA,NA,NA,NA,""
"image-keyboard-response",424,368390,"0.0-3.137-2.137","laaa1x15zoszwl1",432,"4.csv","","null","resources/images/coin2.png","null","",NA,NA,NA,NA,""
"image-keyboard-response",425,368721,"0.0-3.138-0.138","laaa1x15zoszwl1",432,"4.csv","","329","resources/trios/L2T1A2.jpg","38","restless",0.4,0.5,0.5,0.761048031007067,"false"
"image-keyboard-response",426,369125,"0.0-3.138-1.138","laaa1x15zoszwl1",432,"4.csv","","null","resources/maskTrios/BT1B.jpg","null","",NA,NA,NA,NA,""
"image-keyboard-response",427,370330,"0.0-3.138-2.138","laaa1x15zoszwl1",432,"4.csv","","null","resources/images/fishbone.png","null","",NA,NA,NA,NA,""
"image-keyboard-response",428,370508,"0.0-3.139-0.139","laaa1x15zoszwl1",432,"4.csv","","176","resources/trios/L2T1A3.jpg","37","restless",0.4,0.6,0.5,0.245302250588069,"true"
"image-keyboard-response",429,370911,"0.0-3.139-1.139","laaa1x15zoszwl1",432,"4.csv","","null","resources/maskTrios/L2BB.jpg","null","",NA,NA,NA,NA,""
"image-keyboard-response",430,372113,"0.0-3.139-2.139","laaa1x15zoszwl1",432,"4.csv","","null","resources/images/coin2.png","null","",NA,NA,NA,NA,""
"image-keyboard-response",431,372480,"0.0-3.140-0.140","laaa1x15zoszwl1",432,"4.csv","","366","resources/trios/L1T1A3.jpg","37","restless",0.3,0.6,0.5,0.478678678875412,"false"
"image-keyboard-response",432,372883,"0.0-3.140-1.140","laaa1x15zoszwl1",432,"4.csv","","null","resources/maskTrios/L1BB.jpg","null","",NA,NA,NA,NA,""
"image-keyboard-response",433,374088,"0.0-3.140-2.140","laaa1x15zoszwl1",432,"4.csv","","null","resources/images/fishbone.png","null","",NA,NA,NA,NA,""
"image-keyboard-response",434,374282,"0.0-3.141-0.141","laaa1x15zoszwl1",432,"4.csv","","192","resources/trios/L1T4A3.jpg","39","restless",0.3,0.6,0.5,0.424976932840802,"true"
"image-keyboard-response",435,374685,"0.0-3.141-1.141","laaa1x15zoszwl1",432,"4.csv","","null","resources/maskTrios/BBA3.jpg","null","",NA,NA,NA,NA,""
"image-keyboard-response",436,375893,"0.0-3.141-2.141","laaa1x15zoszwl1",432,"4.csv","","null","resources/images/coin2.png","null","",NA,NA,NA,NA,""
"image-keyboard-response",437,376272,"0.0-3.142-0.142","laaa1x15zoszwl1",432,"4.csv","","376.9999999999418","resources/trios/L1T4A3.jpg","39","restless",0.3,0.6,0.4,0.774110102514255,"false"
"image-keyboard-response",438,376677,"0.0-3.142-1.142","laaa1x15zoszwl1",432,"4.csv","","null","resources/maskTrios/BBA3.jpg","null","",NA,NA,NA,NA,""
"image-keyboard-response",439,377882,"0.0-3.142-2.142","laaa1x15zoszwl1",432,"4.csv","","null","resources/images/fishbone.png","null","",NA,NA,NA,NA,""
"image-keyboard-response",440,378177,"0.0-3.143-0.143","laaa1x15zoszwl1",432,"4.csv","","292","resources/trios/L1T4A2.jpg","39","restless",0.4,0.6,0.4,0.641555011912797,"false"
"image-keyboard-response",441,378583,"0.0-3.143-1.143","laaa1x15zoszwl1",432,"4.csv","","null","resources/maskTrios/BBA2.jpg","null","",NA,NA,NA,NA,""
"image-keyboard-response",442,379789,"0.0-3.143-2.143","laaa1x15zoszwl1",432,"4.csv","","null","resources/images/fishbone.png","null","",NA,NA,NA,NA,""
"image-keyboard-response",443,380510,"0.0-3.144-0.144","laaa1x15zoszwl1",432,"4.csv","","719","resources/trios/L1T4A3.jpg","38","restless",0.4,0.6,0.4,0.872832131834454,"false"
"image-keyboard-response",444,380912,"0.0-3.144-1.144","laaa1x15zoszwl1",432,"4.csv","","null","resources/maskTrios/BT4B.jpg","null","",NA,NA,NA,NA,""
"image-keyboard-response",445,382114,"0.0-3.144-2.144","laaa1x15zoszwl1",432,"4.csv","","null","resources/images/fishbone.png","null","",NA,NA,NA,NA,""
"image-keyboard-response",446,382749,"0.0-3.145-0.145","laaa1x15zoszwl1",432,"4.csv","","631.9999999999418","resources/trios/L1T4A3.jpg","37","restless",0.4,0.6,0.4,0.121633793521779,"true"
"image-keyboard-response",447,383150,"0.0-3.145-1.145","laaa1x15zoszwl1",432,"4.csv","","null","resources/maskTrios/L1BB.jpg","null","",NA,NA,NA,NA,""
"image-keyboard-response",448,384356,"0.0-3.145-2.145","laaa1x15zoszwl1",432,"4.csv","","null","resources/images/coin2.png","null","",NA,NA,NA,NA,""
"image-keyboard-response",449,384738,"0.0-3.146-0.146","laaa1x15zoszwl1",432,"4.csv","","380","resources/trios/L2T1A3.jpg","37","restless",0.3,0.6,0.4,0.964453078738526,"false"
"image-keyboard-response",450,385141,"0.0-3.146-1.146","laaa1x15zoszwl1",432,"4.csv","","null","resources/maskTrios/L2BB.jpg","null","",NA,NA,NA,NA,""
"image-keyboard-response",451,386345,"0.0-3.146-2.146","laaa1x15zoszwl1",432,"4.csv","","null","resources/images/fishbone.png","null","",NA,NA,NA,NA,""
"image-keyboard-response",452,386739,"0.0-3.147-0.147","laaa1x15zoszwl1",432,"4.csv","","391.9999999999418","resources/trios/L1T1A2.jpg","39","restless",0.3,0.6,0.4,0.351827618975967,"true"
"image-keyboard-response",453,387144,"0.0-3.147-1.147","laaa1x15zoszwl1",432,"4.csv","","null","resources/maskTrios/BBA2.jpg","null","",NA,NA,NA,NA,""
"image-keyboard-response",454,388349,"0.0-3.147-2.147","laaa1x15zoszwl1",432,"4.csv","","null","resources/images/coin2.png","null","",NA,NA,NA,NA,""
"image-keyboard-response",455,388906,"0.0-3.148-0.148","laaa1x15zoszwl1",432,"4.csv","","553","resources/trios/L2T4A2.jpg","39","restless",0.3,0.6,0.4,0.946638282743901,"false"
"image-keyboard-response",456,389310,"0.0-3.148-1.148","laaa1x15zoszwl1",432,"4.csv","","null","resources/maskTrios/BBA2.jpg","null","",NA,NA,NA,NA,""
"image-keyboard-response",457,390516,"0.0-3.148-2.148","laaa1x15zoszwl1",432,"4.csv","","null","resources/images/fishbone.png","null","",NA,NA,NA,NA,""
"image-keyboard-response",458,391131,"0.0-3.149-0.149","laaa1x15zoszwl1",432,"4.csv","","613","resources/trios/L2T4A2.jpg","38","restless",0.3,0.6,0.4,0.0313855047019919,"true"
"image-keyboard-response",459,391536,"0.0-3.149-1.149","laaa1x15zoszwl1",432,"4.csv","","null","resources/maskTrios/BT4B.jpg","null","",NA,NA,NA,NA,""
"image-keyboard-response",460,392740,"0.0-3.149-2.149","laaa1x15zoszwl1",432,"4.csv","","null","resources/images/coin2.png","null","",NA,NA,NA,NA,""
"image-keyboard-response",461,393601,"0.0-3.150-0.150","laaa1x15zoszwl1",432,"4.csv","","858","resources/trios/L2T1A3.jpg","38","restless",0.3,0.6,0.4,0.566948412381135,"true"
"image-keyboard-response",462,394005,"0.0-3.150-1.150","laaa1x15zoszwl1",432,"4.csv","","null","resources/maskTrios/BT1B.jpg","null","",NA,NA,NA,NA,""
"image-keyboard-response",463,395208,"0.0-3.150-2.150","laaa1x15zoszwl1",432,"4.csv","","null","resources/images/coin2.png","null","",NA,NA,NA,NA,""
"image-keyboard-response",464,395685,"0.0-3.151-0.151","laaa1x15zoszwl1",432,"4.csv","","474","resources/trios/L1T4A2.jpg","38","restless",0.3,0.6,0.4,0.950053893150094,"false"
"image-keyboard-response",465,396087,"0.0-3.151-1.151","laaa1x15zoszwl1",432,"4.csv","","null","resources/maskTrios/BT4B.jpg","null","",NA,NA,NA,NA,""
"image-keyboard-response",466,397292,"0.0-3.151-2.151","laaa1x15zoszwl1",432,"4.csv","","null","resources/images/fishbone.png","null","",NA,NA,NA,NA,""
"image-keyboard-response",467,397823,"0.0-3.152-0.152","laaa1x15zoszwl1",432,"4.csv","","528.0000000000582","resources/trios/L1T4A3.jpg","37","restless",0.3,0.6,0.4,0.206257649150703,"true"
"image-keyboard-response",468,398228,"0.0-3.152-1.152","laaa1x15zoszwl1",432,"4.csv","","null","resources/maskTrios/L1BB.jpg","null","",NA,NA,NA,NA,""
"image-keyboard-response",469,399433,"0.0-3.152-2.152","laaa1x15zoszwl1",432,"4.csv","","null","resources/images/coin2.png","null","",NA,NA,NA,NA,""
"image-keyboard-response",470,399685,"0.0-3.153-0.153","laaa1x15zoszwl1",432,"4.csv","","251","resources/trios/L1T4A3.jpg","39","restless",0.3,0.6,0.4,0.105837700577226,"true"
"image-keyboard-response",471,400087,"0.0-3.153-1.153","laaa1x15zoszwl1",432,"4.csv","","null","resources/maskTrios/BBA3.jpg","null","",NA,NA,NA,NA,""
"image-keyboard-response",472,401292,"0.0-3.153-2.153","laaa1x15zoszwl1",432,"4.csv","","null","resources/images/coin2.png","null","",NA,NA,NA,NA,""
"image-keyboard-response",473,401791,"0.0-3.154-0.154","laaa1x15zoszwl1",432,"4.csv","","497","resources/trios/L1T1A2.jpg","37","restless",0.3,0.6,0.4,0.257244493161476,"true"
"image-keyboard-response",474,402193,"0.0-3.154-1.154","laaa1x15zoszwl1",432,"4.csv","","null","resources/maskTrios/L1BB.jpg","null","",NA,NA,NA,NA,""
"image-keyboard-response",475,403401,"0.0-3.154-2.154","laaa1x15zoszwl1",432,"4.csv","","null","resources/images/coin2.png","null","",NA,NA,NA,NA,""
"image-keyboard-response",476,403791,"0.0-3.155-0.155","laaa1x15zoszwl1",432,"4.csv","","388","resources/trios/L1T1A3.jpg","37","restless",0.3,0.7,0.4,0.525738625758284,"false"
"image-keyboard-response",477,404196,"0.0-3.155-1.155","laaa1x15zoszwl1",432,"4.csv","","null","resources/maskTrios/L1BB.jpg","null","",NA,NA,NA,NA,""
"image-keyboard-response",478,405398,"0.0-3.155-2.155","laaa1x15zoszwl1",432,"4.csv","","null","resources/images/fishbone.png","null","",NA,NA,NA,NA,""
"image-keyboard-response",479,405563,"0.0-3.156-0.156","laaa1x15zoszwl1",432,"4.csv","","163","resources/trios/L2T1A3.jpg","37","restless",0.3,0.6,0.4,0.700777512135116,"false"
"image-keyboard-response",480,405966,"0.0-3.156-1.156","laaa1x15zoszwl1",432,"4.csv","","null","resources/maskTrios/L2BB.jpg","null","",NA,NA,NA,NA,""
"image-keyboard-response",481,407172,"0.0-3.156-2.156","laaa1x15zoszwl1",432,"4.csv","","null","resources/images/fishbone.png","null","",NA,NA,NA,NA,""
"image-keyboard-response",482,408071,"0.0-3.157-0.157","laaa1x15zoszwl1",432,"4.csv","","897","resources/trios/L2T1A3.jpg","38","restless",0.3,0.6,0.4,0.895182371013689,"false"
"image-keyboard-response",483,408476,"0.0-3.157-1.157","laaa1x15zoszwl1",432,"4.csv","","null","resources/maskTrios/BT1B.jpg","null","",NA,NA,NA,NA,""
"image-keyboard-response",484,409678,"0.0-3.157-2.157","laaa1x15zoszwl1",432,"4.csv","","null","resources/images/fishbone.png","null","",NA,NA,NA,NA,""
"image-keyboard-response",485,410039,"0.0-3.158-0.158","laaa1x15zoszwl1",432,"4.csv","","358.9999999999418","resources/trios/L1T4A2.jpg","37","restless",0.3,0.6,0.4,0.387842959599514,"false"
"image-keyboard-response",486,410444,"0.0-3.158-1.158","laaa1x15zoszwl1",432,"4.csv","","null","resources/maskTrios/L1BB.jpg","null","",NA,NA,NA,NA,""
"image-keyboard-response",487,411649,"0.0-3.158-2.158","laaa1x15zoszwl1",432,"4.csv","","null","resources/images/fishbone.png","null","",NA,NA,NA,NA,""
"image-keyboard-response",488,415670,"0.0-3.159-0.159","laaa1x15zoszwl1",432,"4.csv","","4019","resources/trios/L1T1A3.jpg","38","restless",0.4,0.6,0.4,0.07081415052613,"true"
"image-keyboard-response",489,416074,"0.0-3.159-1.159","laaa1x15zoszwl1",432,"4.csv","","null","resources/maskTrios/BT1B.jpg","null","",NA,NA,NA,NA,""
"image-keyboard-response",490,417276,"0.0-3.159-2.159","laaa1x15zoszwl1",432,"4.csv","","null","resources/images/coin2.png","null","",NA,NA,NA,NA,""
"image-keyboard-response",491,417277,"0.0-3.160-0.160","laaa1x15zoszwl1",432,"4.csv","","0","resources/trios/L2T4A2.jpg","38","restless",0.4,0.6,0.4,0.156523964410371,"true"
"image-keyboard-response",492,417682,"0.0-3.160-1.160","laaa1x15zoszwl1",432,"4.csv","","null","resources/maskTrios/BT4B.jpg","null","",NA,NA,NA,NA,""
"image-keyboard-response",493,418887,"0.0-3.160-2.160","laaa1x15zoszwl1",432,"4.csv","","null","resources/images/coin2.png","null","",NA,NA,NA,NA,""
"image-keyboard-response",494,420104,"0.0-3.161-0.161","laaa1x15zoszwl1",432,"4.csv","","1212","resources/trios/L1T4A3.jpg","38","restless",0.4,0.6,0.4,0.620270463744679,"false"
"image-keyboard-response",495,420509,"0.0-3.161-1.161","laaa1x15zoszwl1",432,"4.csv","","null","resources/maskTrios/BT4B.jpg","null","",NA,NA,NA,NA,""
"image-keyboard-response",496,421712,"0.0-3.161-2.161","laaa1x15zoszwl1",432,"4.csv","","null","resources/images/fishbone.png","null","",NA,NA,NA,NA,""
"image-keyboard-response",497,421730,"0.0-3.162-0.162","laaa1x15zoszwl1",432,"4.csv","","15","resources/trios/L1T4A2.jpg","37","restless",0.4,0.6,0.4,0.978825065958586,"false"
"image-keyboard-response",498,422133,"0.0-3.162-1.162","laaa1x15zoszwl1",432,"4.csv","","null","resources/maskTrios/L1BB.jpg","null","",NA,NA,NA,NA,""
"image-keyboard-response",499,423338,"0.0-3.162-2.162","laaa1x15zoszwl1",432,"4.csv","","null","resources/images/fishbone.png","null","",NA,NA,NA,NA,""
"image-keyboard-response",500,423369,"0.0-3.163-0.163","laaa1x15zoszwl1",432,"4.csv","","29","resources/trios/L1T4A2.jpg","39","restless",0.4,0.6,0.4,0.526051394590493,"false"
"image-keyboard-response",501,423774,"0.0-3.163-1.163","laaa1x15zoszwl1",432,"4.csv","","null","resources/maskTrios/BBA2.jpg","null","",NA,NA,NA,NA,""
"image-keyboard-response",502,424979,"0.0-3.163-2.163","laaa1x15zoszwl1",432,"4.csv","","null","resources/images/fishbone.png","null","",NA,NA,NA,NA,""
"image-keyboard-response",503,426369,"0.0-3.164-0.164","laaa1x15zoszwl1",432,"4.csv","","1387","resources/trios/L1T4A2.jpg","37","restless",0.4,0.6,0.4,0.81931677077964,"false"
"image-keyboard-response",504,426774,"0.0-3.164-1.164","laaa1x15zoszwl1",432,"4.csv","","null","resources/maskTrios/L1BB.jpg","null","",NA,NA,NA,NA,""
"image-keyboard-response",505,427977,"0.0-3.164-2.164","laaa1x15zoszwl1",432,"4.csv","","null","resources/images/fishbone.png","null","",NA,NA,NA,NA,""
"image-keyboard-response",506,428358,"0.0-3.165-0.165","laaa1x15zoszwl1",432,"4.csv","","380","resources/trios/L1T1A2.jpg","38","restless",0.4,0.6,0.4,0.495838679910078,"true"
"image-keyboard-response",507,428763,"0.0-3.165-1.165","laaa1x15zoszwl1",432,"4.csv","","null","resources/maskTrios/BT1B.jpg","null","",NA,NA,NA,NA,""
"image-keyboard-response",508,429968,"0.0-3.165-2.165","laaa1x15zoszwl1",432,"4.csv","","null","resources/images/coin2.png","null","",NA,NA,NA,NA,""
"image-keyboard-response",509,431006,"0.0-3.166-0.166","laaa1x15zoszwl1",432,"4.csv","","1036","resources/trios/L1T1A3.jpg","37","restless",0.3,0.6,0.4,0.567850920029085,"false"
"image-keyboard-response",510,431411,"0.0-3.166-1.166","laaa1x15zoszwl1",432,"4.csv","","null","resources/maskTrios/L1BB.jpg","null","",NA,NA,NA,NA,""
"image-keyboard-response",511,432614,"0.0-3.166-2.166","laaa1x15zoszwl1",432,"4.csv","","null","resources/images/fishbone.png","null","",NA,NA,NA,NA,""
"image-keyboard-response",512,433192,"0.0-3.167-0.167","laaa1x15zoszwl1",432,"4.csv","","576","resources/trios/L2T4A2.jpg","38","restless",0.3,0.6,0.4,0.00199439325714834,"true"
"image-keyboard-response",513,433595,"0.0-3.167-1.167","laaa1x15zoszwl1",432,"4.csv","","null","resources/maskTrios/BT4B.jpg","null","",NA,NA,NA,NA,""
"image-keyboard-response",514,434798,"0.0-3.167-2.167","laaa1x15zoszwl1",432,"4.csv","","null","resources/images/coin2.png","null","",NA,NA,NA,NA,""
"image-keyboard-response",515,435188,"0.0-3.168-0.168","laaa1x15zoszwl1",432,"4.csv","","388","resources/trios/L2T1A2.jpg","38","restless",0.3,0.6,0.4,0.222977840579693,"true"
"image-keyboard-response",516,435591,"0.0-3.168-1.168","laaa1x15zoszwl1",432,"4.csv","","null","resources/maskTrios/BT1B.jpg","null","",NA,NA,NA,NA,""
"image-keyboard-response",517,436796,"0.0-3.168-2.168","laaa1x15zoszwl1",432,"4.csv","","null","resources/images/coin2.png","null","",NA,NA,NA,NA,""
"image-keyboard-response",518,437193,"0.0-3.169-0.169","laaa1x15zoszwl1",432,"4.csv","","393.0000000000582","resources/trios/L1T4A2.jpg","38","restless",0.3,0.6,0.4,0.0982948421102863,"true"
"image-keyboard-response",519,437595,"0.0-3.169-1.169","laaa1x15zoszwl1",432,"4.csv","","null","resources/maskTrios/BT4B.jpg","null","",NA,NA,NA,NA,""
"image-keyboard-response",520,438798,"0.0-3.169-2.169","laaa1x15zoszwl1",432,"4.csv","","null","resources/images/coin2.png","null","",NA,NA,NA,NA,""
"image-keyboard-response",521,439137,"0.0-3.170-0.170","laaa1x15zoszwl1",432,"4.csv","","336","resources/trios/L2T1A3.jpg","38","restless",0.3,0.6,0.4,0.796043497827365,"false"
"image-keyboard-response",522,439542,"0.0-3.170-1.170","laaa1x15zoszwl1",432,"4.csv","","null","resources/maskTrios/BT1B.jpg","null","",NA,NA,NA,NA,""
"image-keyboard-response",523,440744,"0.0-3.170-2.170","laaa1x15zoszwl1",432,"4.csv","","null","resources/images/fishbone.png","null","",NA,NA,NA,NA,""
"image-keyboard-response",524,441125,"0.0-3.171-0.171","laaa1x15zoszwl1",432,"4.csv","","375","resources/trios/L2T4A2.jpg","37","restless",0.3,0.6,0.4,0.808392690294112,"false"
"image-keyboard-response",525,441527,"0.0-3.171-1.171","laaa1x15zoszwl1",432,"4.csv","","null","resources/maskTrios/L2BB.jpg","null","",NA,NA,NA,NA,""
"image-keyboard-response",526,442732,"0.0-3.171-2.171","laaa1x15zoszwl1",432,"4.csv","","null","resources/images/fishbone.png","null","",NA,NA,NA,NA,""
"image-keyboard-response",527,442856,"0.0-3.172-0.172","laaa1x15zoszwl1",432,"4.csv","","121","resources/trios/L2T1A2.jpg","37","restless",0.3,0.6,0.4,0.684553167727638,"false"
"image-keyboard-response",528,443260,"0.0-3.172-1.172","laaa1x15zoszwl1",432,"4.csv","","null","resources/maskTrios/L2BB.jpg","null","",NA,NA,NA,NA,""
"image-keyboard-response",529,444465,"0.0-3.172-2.172","laaa1x15zoszwl1",432,"4.csv","","null","resources/images/fishbone.png","null","",NA,NA,NA,NA,""
"image-keyboard-response",530,444793,"0.0-3.173-0.173","laaa1x15zoszwl1",432,"4.csv","","325","resources/trios/L2T4A2.jpg","38","restless",0.3,0.6,0.4,0.133894892684625,"true"
"image-keyboard-response",531,445198,"0.0-3.173-1.173","laaa1x15zoszwl1",432,"4.csv","","null","resources/maskTrios/BT4B.jpg","null","",NA,NA,NA,NA,""
"image-keyboard-response",532,446403,"0.0-3.173-2.173","laaa1x15zoszwl1",432,"4.csv","","null","resources/images/coin2.png","null","",NA,NA,NA,NA,""
"image-keyboard-response",533,446762,"0.0-3.174-0.174","laaa1x15zoszwl1",432,"4.csv","","354","resources/trios/L1T1A2.jpg","38","restless",0.3,0.6,0.4,0.0112055579226465,"true"
"image-keyboard-response",534,447166,"0.0-3.174-1.174","laaa1x15zoszwl1",432,"4.csv","","null","resources/maskTrios/BT1B.jpg","null","",NA,NA,NA,NA,""
"image-keyboard-response",535,448369,"0.0-3.174-2.174","laaa1x15zoszwl1",432,"4.csv","","null","resources/images/coin2.png","null","",NA,NA,NA,NA,""
"image-keyboard-response",536,448608,"0.0-3.175-0.175","laaa1x15zoszwl1",432,"4.csv","","237","resources/trios/L2T1A3.jpg","38","restless",0.3,0.6,0.4,0.642189029916776,"false"
"image-keyboard-response",537,449013,"0.0-3.175-1.175","laaa1x15zoszwl1",432,"4.csv","","null","resources/maskTrios/BT1B.jpg","null","",NA,NA,NA,NA,""
"image-keyboard-response",538,450217,"0.0-3.175-2.175","laaa1x15zoszwl1",432,"4.csv","","null","resources/images/fishbone.png","null","",NA,NA,NA,NA,""
"image-keyboard-response",539,450449,"0.0-3.176-0.176","laaa1x15zoszwl1",432,"4.csv","","229.9999999999418","resources/trios/L1T1A3.jpg","39","restless",0.4,0.6,0.5,0.700352872238613,"false"
"image-keyboard-response",540,450854,"0.0-3.176-1.176","laaa1x15zoszwl1",432,"4.csv","","null","resources/maskTrios/BBA3.jpg","null","",NA,NA,NA,NA,""
"image-keyboard-response",541,452057,"0.0-3.176-2.176","laaa1x15zoszwl1",432,"4.csv","","null","resources/images/fishbone.png","null","",NA,NA,NA,NA,""
"image-keyboard-response",542,453921,"0.0-3.177-0.177","laaa1x15zoszwl1",432,"4.csv","","1861","resources/trios/L1T4A2.jpg","37","restless",0.4,0.6,0.5,0.800936315067293,"false"
"image-keyboard-response",543,454325,"0.0-3.177-1.177","laaa1x15zoszwl1",432,"4.csv","","null","resources/maskTrios/L1BB.jpg","null","",NA,NA,NA,NA,""
"image-keyboard-response",544,455530,"0.0-3.177-2.177","laaa1x15zoszwl1",432,"4.csv","","null","resources/images/fishbone.png","null","",NA,NA,NA,NA,""
"image-keyboard-response",545,455860,"0.0-3.178-0.178","laaa1x15zoszwl1",432,"4.csv","","327","resources/trios/L2T4A3.jpg","38","restless",0.4,0.6,0.5,0.564410347373108,"true"
"image-keyboard-response",546,456264,"0.0-3.178-1.178","laaa1x15zoszwl1",432,"4.csv","","null","resources/maskTrios/BT4B.jpg","null","",NA,NA,NA,NA,""
"image-keyboard-response",547,457469,"0.0-3.178-2.178","laaa1x15zoszwl1",432,"4.csv","","null","resources/images/coin2.png","null","",NA,NA,NA,NA,""
"image-keyboard-response",548,457551,"0.0-3.179-0.179","laaa1x15zoszwl1",432,"4.csv","","80","resources/trios/L2T1A2.jpg","37","restless",0.4,0.5,0.5,0.0864047722325163,"true"
"image-keyboard-response",549,457958,"0.0-3.179-1.179","laaa1x15zoszwl1",432,"4.csv","","null","resources/maskTrios/L2BB.jpg","null","",NA,NA,NA,NA,""
"image-keyboard-response",550,459163,"0.0-3.179-2.179","laaa1x15zoszwl1",432,"4.csv","","null","resources/images/coin2.png","null","",NA,NA,NA,NA,""
"image-keyboard-response",551,459588,"0.0-3.180-0.180","laaa1x15zoszwl1",432,"4.csv","","420.9999999999418","resources/trios/L1T4A3.jpg","37","restless",0.4,0.5,0.5,0.726697152481902,"false"
"image-keyboard-response",552,459990,"0.0-3.180-1.180","laaa1x15zoszwl1",432,"4.csv","","null","resources/maskTrios/L1BB.jpg","null","",NA,NA,NA,NA,""
"image-keyboard-response",553,461195,"0.0-3.180-2.180","laaa1x15zoszwl1",432,"4.csv","","null","resources/images/fishbone.png","null","",NA,NA,NA,NA,""
"image-keyboard-response",554,461693,"0.0-3.181-0.181","laaa1x15zoszwl1",432,"4.csv","","496","resources/trios/L2T1A3.jpg","37","restless",0.4,0.5,0.5,0.920580072307705,"false"
"image-keyboard-response",555,462095,"0.0-3.181-1.181","laaa1x15zoszwl1",432,"4.csv","","null","resources/maskTrios/L2BB.jpg","null","",NA,NA,NA,NA,""
"image-keyboard-response",556,463300,"0.0-3.181-2.181","laaa1x15zoszwl1",432,"4.csv","","null","resources/images/fishbone.png","null","",NA,NA,NA,NA,""
"image-keyboard-response",557,464118,"0.0-3.182-0.182","laaa1x15zoszwl1",432,"4.csv","","815","resources/trios/L1T4A2.jpg","37","restless",0.4,0.6,0.5,0.87662452509198,"false"
"image-keyboard-response",558,464520,"0.0-3.182-1.182","laaa1x15zoszwl1",432,"4.csv","","null","resources/maskTrios/L1BB.jpg","null","",NA,NA,NA,NA,""
"image-keyboard-response",559,465725,"0.0-3.182-2.182","laaa1x15zoszwl1",432,"4.csv","","null","resources/images/fishbone.png","null","",NA,NA,NA,NA,""
"image-keyboard-response",560,466191,"0.0-3.183-0.183","laaa1x15zoszwl1",432,"4.csv","","463","resources/trios/L2T1A3.jpg","38","restless",0.4,0.6,0.5,0.389132170031166,"true"
"image-keyboard-response",561,466594,"0.0-3.183-1.183","laaa1x15zoszwl1",432,"4.csv","","null","resources/maskTrios/BT1B.jpg","null","",NA,NA,NA,NA,""
"image-keyboard-response",562,467799,"0.0-3.183-2.183","laaa1x15zoszwl1",432,"4.csv","","null","resources/images/coin2.png","null","",NA,NA,NA,NA,""
"image-keyboard-response",563,468232,"0.0-3.184-0.184","laaa1x15zoszwl1",432,"4.csv","","431","resources/trios/L2T4A3.jpg","38","restless",0.4,0.6,0.5,0.13864422892426,"true"
"image-keyboard-response",564,468638,"0.0-3.184-1.184","laaa1x15zoszwl1",432,"4.csv","","null","resources/maskTrios/BT4B.jpg","null","",NA,NA,NA,NA,""
"image-keyboard-response",565,469844,"0.0-3.184-2.184","laaa1x15zoszwl1",432,"4.csv","","null","resources/images/coin2.png","null","",NA,NA,NA,NA,""
"image-keyboard-response",566,470221,"0.0-3.185-0.185","laaa1x15zoszwl1",432,"4.csv","","374","resources/trios/L2T4A2.jpg","38","restless",0.4,0.6,0.5,0.43549095109343,"true"
"image-keyboard-response",567,470626,"0.0-3.185-1.185","laaa1x15zoszwl1",432,"4.csv","","null","resources/maskTrios/BT4B.jpg","null","",NA,NA,NA,NA,""
"image-keyboard-response",568,471831,"0.0-3.185-2.185","laaa1x15zoszwl1",432,"4.csv","","null","resources/images/coin2.png","null","",NA,NA,NA,NA,""
"image-keyboard-response",569,471839,"0.0-3.186-0.186","laaa1x15zoszwl1",432,"4.csv","","0.9999999999417923","resources/trios/L1T1A2.jpg","39","restless",0.4,0.7,0.4,0.874139946121227,"false"
"image-keyboard-response",570,472244,"0.0-3.186-1.186","laaa1x15zoszwl1",432,"4.csv","","null","resources/maskTrios/BBA2.jpg","null","",NA,NA,NA,NA,""
"image-keyboard-response",571,473449,"0.0-3.186-2.186","laaa1x15zoszwl1",432,"4.csv","","null","resources/images/fishbone.png","null","",NA,NA,NA,NA,""
"image-keyboard-response",572,473862,"0.0-3.187-0.187","laaa1x15zoszwl1",432,"4.csv","","411","resources/trios/L1T4A3.jpg","38","restless",0.5,0.7,0.4,0.537337621552167,"true"
"image-keyboard-response",573,474267,"0.0-3.187-1.187","laaa1x15zoszwl1",432,"4.csv","","null","resources/maskTrios/BT4B.jpg","null","",NA,NA,NA,NA,""
"image-keyboard-response",574,475474,"0.0-3.187-2.187","laaa1x15zoszwl1",432,"4.csv","","null","resources/images/coin2.png","null","",NA,NA,NA,NA,""
"image-keyboard-response",575,475868,"0.0-3.188-0.188","laaa1x15zoszwl1",432,"4.csv","","392","resources/trios/L2T4A3.jpg","37","restless",0.5,0.7,0.4,0.189507922500675,"true"
"image-keyboard-response",576,476273,"0.0-3.188-1.188","laaa1x15zoszwl1",432,"4.csv","","null","resources/maskTrios/L2BB.jpg","null","",NA,NA,NA,NA,""
"image-keyboard-response",577,477478,"0.0-3.188-2.188","laaa1x15zoszwl1",432,"4.csv","","null","resources/images/coin2.png","null","",NA,NA,NA,NA,""
"image-keyboard-response",578,479374,"0.0-3.189-0.189","laaa1x15zoszwl1",432,"4.csv","","1894","resources/trios/L2T1A3.jpg","38","restless",0.5,0.7,0.4,0.91212386356771,"false"
"image-keyboard-response",579,479777,"0.0-3.189-1.189","laaa1x15zoszwl1",432,"4.csv","","null","resources/maskTrios/BT1B.jpg","null","",NA,NA,NA,NA,""
"image-keyboard-response",580,480982,"0.0-3.189-2.189","laaa1x15zoszwl1",432,"4.csv","","null","resources/images/fishbone.png","null","",NA,NA,NA,NA,""
"image-keyboard-response",581,481539,"0.0-3.190-0.190","laaa1x15zoszwl1",432,"4.csv","","555","resources/trios/L2T1A2.jpg","38","restless",0.5,0.8,0.4,0.277836773987299,"true"
"image-keyboard-response",582,481942,"0.0-3.190-1.190","laaa1x15zoszwl1",432,"4.csv","","null","resources/maskTrios/BT1B.jpg","null","",NA,NA,NA,NA,""
"image-keyboard-response",583,483149,"0.0-3.190-2.190","laaa1x15zoszwl1",432,"4.csv","","null","resources/images/coin2.png","null","",NA,NA,NA,NA,""
"image-keyboard-response",584,483681,"0.0-3.191-0.191","laaa1x15zoszwl1",432,"4.csv","","528","resources/trios/L2T4A2.jpg","38","restless",0.5,0.8,0.4,0.569345577319982,"true"
"image-keyboard-response",585,484086,"0.0-3.191-1.191","laaa1x15zoszwl1",432,"4.csv","","null","resources/maskTrios/BT4B.jpg","null","",NA,NA,NA,NA,""
"image-keyboard-response",586,485291,"0.0-3.191-2.191","laaa1x15zoszwl1",432,"4.csv","","null","resources/images/coin2.png","null","",NA,NA,NA,NA,""
"image-keyboard-response",587,485477,"0.0-3.192-0.192","laaa1x15zoszwl1",432,"4.csv","","184","resources/trios/L2T4A2.jpg","38","restless",0.5,0.8,0.4,0.483202658776461,"true"
"image-keyboard-response",588,485882,"0.0-3.192-1.192","laaa1x15zoszwl1",432,"4.csv","","null","resources/maskTrios/BT4B.jpg","null","",NA,NA,NA,NA,""
"image-keyboard-response",589,487087,"0.0-3.192-2.192","laaa1x15zoszwl1",432,"4.csv","","null","resources/images/coin2.png","null","",NA,NA,NA,NA,""
"image-keyboard-response",590,487203,"0.0-3.193-0.193","laaa1x15zoszwl1",432,"4.csv","","114","resources/trios/L1T4A3.jpg","38","restless",0.5,0.8,0.4,0.775156377484681,"true"
"image-keyboard-response",591,487606,"0.0-3.193-1.193","laaa1x15zoszwl1",432,"4.csv","","null","resources/maskTrios/BT4B.jpg","null","",NA,NA,NA,NA,""
"image-keyboard-response",592,488812,"0.0-3.193-2.193","laaa1x15zoszwl1",432,"4.csv","","null","resources/images/coin2.png","null","",NA,NA,NA,NA,""
"image-keyboard-response",593,489605,"0.0-3.194-0.194","laaa1x15zoszwl1",432,"4.csv","","791","resources/trios/L1T4A3.jpg","38","restless",0.5,0.8,0.4,0.164175516722709,"true"
"image-keyboard-response",594,490010,"0.0-3.194-1.194","laaa1x15zoszwl1",432,"4.csv","","null","resources/maskTrios/BT4B.jpg","null","",NA,NA,NA,NA,""
"image-keyboard-response",595,491215,"0.0-3.194-2.194","laaa1x15zoszwl1",432,"4.csv","","null","resources/images/coin2.png","null","",NA,NA,NA,NA,""
"image-keyboard-response",596,491590,"0.0-3.195-0.195","laaa1x15zoszwl1",432,"4.csv","","370","resources/trios/L2T4A2.jpg","38","restless",0.5,0.8,0.4,0.859515427140054,"false"
"image-keyboard-response",597,491993,"0.0-3.195-1.195","laaa1x15zoszwl1",432,"4.csv","","null","resources/maskTrios/BT4B.jpg","null","",NA,NA,NA,NA,""
"image-keyboard-response",598,493198,"0.0-3.195-2.195","laaa1x15zoszwl1",432,"4.csv","","null","resources/images/fishbone.png","null","",NA,NA,NA,NA,""
"image-keyboard-response",599,493547,"0.0-3.196-0.196","laaa1x15zoszwl1",432,"4.csv","","346","resources/trios/L2T1A2.jpg","38","restless",0.6,0.8,0.4,0.13818401596967,"true"
"image-keyboard-response",600,493952,"0.0-3.196-1.196","laaa1x15zoszwl1",432,"4.csv","","null","resources/maskTrios/BT1B.jpg","null","",NA,NA,NA,NA,""
"image-keyboard-response",601,495157,"0.0-3.196-2.196","laaa1x15zoszwl1",432,"4.csv","","null","resources/images/coin2.png","null","",NA,NA,NA,NA,""
"image-keyboard-response",602,495279,"0.0-3.197-0.197","laaa1x15zoszwl1",432,"4.csv","","118.99999999994179","resources/trios/L2T1A3.jpg","38","restless",0.6,0.7,0.4,0.956760168337051,"false"
"image-keyboard-response",603,495681,"0.0-3.197-1.197","laaa1x15zoszwl1",432,"4.csv","","null","resources/maskTrios/BT1B.jpg","null","",NA,NA,NA,NA,""
"image-keyboard-response",604,496886,"0.0-3.197-2.197","laaa1x15zoszwl1",432,"4.csv","","null","resources/images/fishbone.png","null","",NA,NA,NA,NA,""
"image-keyboard-response",605,497203,"0.0-3.198-0.198","laaa1x15zoszwl1",432,"4.csv","","314","resources/trios/L2T1A3.jpg","37","restless",0.7,0.7,0.4,0.170549836705702,"true"
"image-keyboard-response",606,497605,"0.0-3.198-1.198","laaa1x15zoszwl1",432,"4.csv","","null","resources/maskTrios/L2BB.jpg","null","",NA,NA,NA,NA,""
"image-keyboard-response",607,498811,"0.0-3.198-2.198","laaa1x15zoszwl1",432,"4.csv","","null","resources/images/coin2.png","null","",NA,NA,NA,NA,""
"image-keyboard-response",608,498973,"0.0-3.199-0.199","laaa1x15zoszwl1",432,"4.csv","","161","resources/trios/L1T4A3.jpg","39","restless",0.7,0.7,0.5,0.117235009571535,"true"
"image-keyboard-response",609,499378,"0.0-3.199-1.199","laaa1x15zoszwl1",432,"4.csv","","null","resources/maskTrios/BBA3.jpg","null","",NA,NA,NA,NA,""
"image-keyboard-response",610,500584,"0.0-3.199-2.199","laaa1x15zoszwl1",432,"4.csv","","null","resources/images/coin2.png","null","",NA,NA,NA,NA,""
"image-keyboard-response",611,500964,"0.0-3.200-0.200","laaa1x15zoszwl1",432,"4.csv","","379","resources/trios/L2T1A3.jpg","39","restless",0.7,0.7,0.5,0.808131946236742,"false"
"image-keyboard-response",612,501369,"0.0-3.200-1.200","laaa1x15zoszwl1",432,"4.csv","","null","resources/maskTrios/BBA3.jpg","null","",NA,NA,NA,NA,""
"image-keyboard-response",613,502572,"0.0-3.200-2.200","laaa1x15zoszwl1",432,"4.csv","","null","resources/images/fishbone.png","null","",NA,NA,NA,NA,""
"image-keyboard-response",614,503253,"0.0-3.201-0.201","laaa1x15zoszwl1",432,"4.csv","","679.0000000000582","resources/trios/L1T4A3.jpg","37","restless",0.7,0.6,0.5,0.234588789927621,"true"
"image-keyboard-response",615,503658,"0.0-3.201-1.201","laaa1x15zoszwl1",432,"4.csv","","null","resources/maskTrios/L1BB.jpg","null","",NA,NA,NA,NA,""
"image-keyboard-response",616,504864,"0.0-3.201-2.201","laaa1x15zoszwl1",432,"4.csv","","null","resources/images/coin2.png","null","",NA,NA,NA,NA,""
"image-keyboard-response",617,505001,"0.0-3.202-0.202","laaa1x15zoszwl1",432,"4.csv","","134.9999999999418","resources/trios/L2T4A2.jpg","37","restless",0.7,0.6,0.5,0.517750303223566,"true"
"image-keyboard-response",618,505406,"0.0-3.202-1.202","laaa1x15zoszwl1",432,"4.csv","","null","resources/maskTrios/L2BB.jpg","null","",NA,NA,NA,NA,""
"image-keyboard-response",619,506609,"0.0-3.202-2.202","laaa1x15zoszwl1",432,"4.csv","","null","resources/images/coin2.png","null","",NA,NA,NA,NA,""
"image-keyboard-response",620,508543,"0.0-3.203-0.203","laaa1x15zoszwl1",432,"4.csv","","1931.9999999999418","resources/trios/L2T1A2.jpg","37","restless",0.7,0.5,0.5,0.841746191739149,"false"
"image-keyboard-response",621,508948,"0.0-3.203-1.203","laaa1x15zoszwl1",432,"4.csv","","null","resources/maskTrios/L2BB.jpg","null","",NA,NA,NA,NA,""
"image-keyboard-response",622,510150,"0.0-3.203-2.203","laaa1x15zoszwl1",432,"4.csv","","null","resources/images/fishbone.png","null","",NA,NA,NA,NA,""
"image-keyboard-response",623,510612,"0.0-3.204-0.204","laaa1x15zoszwl1",432,"4.csv","","458.9999999999418","resources/trios/L1T1A3.jpg","38","restless",0.7,0.5,0.5,0.104963698379659,"true"
"image-keyboard-response",624,511015,"0.0-3.204-1.204","laaa1x15zoszwl1",432,"4.csv","","null","resources/maskTrios/BT1B.jpg","null","",NA,NA,NA,NA,""
"image-keyboard-response",625,512218,"0.0-3.204-2.204","laaa1x15zoszwl1",432,"4.csv","","null","resources/images/coin2.png","null","",NA,NA,NA,NA,""
