"trial_type","trial_index","time_elapsed","internal_node_id","subject","walkNumber","success","rt","stimulus","key_press","test_part","leftProb","midProb","rightProb","generatedNum","correct"
"pavlovia",0,862,"0.0-0.0","blkoe7koujnjnhx","126.csv","","","","","",NA,NA,NA,NA,""
"fullscreen",1,2894,"0.0-1.0","blkoe7koujnjnhx","126.csv","true","","","","",NA,NA,NA,NA,""
"html-keyboard-response",2,3721,"0.0-2.0-0.0","blkoe7koujnjnhx","126.csv","","826.1000000238419","<p><font size='6'>Arrrgh!</p></font><p>Can you be the best pirate? Try to find lots of gold! But beware, some islands have more gold than others, and over time, the island with the most gold may change. Can YOU figure it out? </p><font size='6'>GOOD LUCK, CAPTAIN!!!</font><p>Press any key to begin</p>","39","",NA,NA,NA,NA,""
"image-keyboard-response",3,6727,"0.0-2.0-1.0","blkoe7koujnjnhx","126.csv","","null","resources/image_sets/111.png","null","",NA,NA,NA,NA,""
"image-keyboard-response",4,7111,"0.0-2.0-2.0","blkoe7koujnjnhx","126.csv","","382.10000002384186","resources/image_sets/left_highlight.png","37","",NA,NA,NA,NA,""
"image-keyboard-response",5,7178,"0.0-2.0-3.0","blkoe7koujnjnhx","126.csv","","65.29999995231628","resources/image_sets/mid_highlight.png","38","",NA,NA,NA,NA,""
"image-keyboard-response",6,7298,"0.0-2.0-4.0","blkoe7koujnjnhx","126.csv","","119.59999990463257","resources/image_sets/right_highlight.png","39","",NA,NA,NA,NA,""
"image-keyboard-response",7,7563,"0.0-2.0-5.0","blkoe7koujnjnhx","126.csv","","263","resources/image_sets/111.png","13","",NA,NA,NA,NA,""
"image-keyboard-response",8,7688,"0.0-2.0-6.0","blkoe7koujnjnhx","126.csv","","122.89999997615814","resources/images/coin2.png","13","",NA,NA,NA,NA,""
"image-keyboard-response",9,7813,"0.0-2.0-7.0","blkoe7koujnjnhx","126.csv","","124","resources/images/fishbone.png","13","",NA,NA,NA,NA,""
"html-keyboard-response",10,7900,"0.0-2.0-8.0","blkoe7koujnjnhx","126.csv","","86.39999997615814","<p>Your first journey will be a long one, but you will get a well deserved break at the end</p><p>After the break you will have four more journeys, but each will be much shorter than the first, and you will have breaks in between each</p><p>Press Enter to begin</p>","13","",NA,NA,NA,NA,""
"image-keyboard-response",11,8191,"0.0-3.0-0.0","blkoe7koujnjnhx","126.csv","","287","resources/trios/L1T1A2.jpg","37","restless",0.9,0.7,0.3,0.551279589662641,"true"
"image-keyboard-response",12,8595,"0.0-3.0-1.0","blkoe7koujnjnhx","126.csv","","null","resources/maskTrios/L1BB.jpg","null","",NA,NA,NA,NA,""
"image-keyboard-response",13,9799,"0.0-3.0-2.0","blkoe7koujnjnhx","126.csv","","null","resources/images/coin2.png","null","",NA,NA,NA,NA,""
"image-keyboard-response",14,10048,"0.0-3.1-0.1","blkoe7koujnjnhx","126.csv","","246","resources/trios/L2T1A2.jpg","39","restless",0.9,0.7,0.3,0.306483038013493,"false"
"image-keyboard-response",15,10454,"0.0-3.1-1.1","blkoe7koujnjnhx","126.csv","","null","resources/maskTrios/BBA2.jpg","null","",NA,NA,NA,NA,""
"image-keyboard-response",16,11657,"0.0-3.1-2.1","blkoe7koujnjnhx","126.csv","","null","resources/images/fishbone.png","null","",NA,NA,NA,NA,""
"image-keyboard-response",17,11741,"0.0-3.2-0.2","blkoe7koujnjnhx","126.csv","","81.10000002384186","resources/trios/L1T1A1.jpg","39","restless",0.9,0.7,0.3,0.85611605513352,"false"
"image-keyboard-response",18,12148,"0.0-3.2-1.2","blkoe7koujnjnhx","126.csv","","null","resources/maskTrios/BBA1.jpg","null","",NA,NA,NA,NA,""
"image-keyboard-response",19,13351,"0.0-3.2-2.2","blkoe7koujnjnhx","126.csv","","null","resources/images/fishbone.png","null","",NA,NA,NA,NA,""
"image-keyboard-response",20,13466,"0.0-3.3-0.3","blkoe7koujnjnhx","126.csv","","112.60000002384186","resources/trios/L1T1A1.jpg","39","restless",0.9,0.7,0.3,0.883183868259041,"false"
"image-keyboard-response",21,13869,"0.0-3.3-1.3","blkoe7koujnjnhx","126.csv","","null","resources/maskTrios/BBA1.jpg","null","",NA,NA,NA,NA,""
"image-keyboard-response",22,15075,"0.0-3.3-2.3","blkoe7koujnjnhx","126.csv","","null","resources/images/fishbone.png","null","",NA,NA,NA,NA,""
"image-keyboard-response",23,15214,"0.0-3.4-0.4","blkoe7koujnjnhx","126.csv","","136.5","resources/trios/L1T1A2.jpg","39","restless",0.9,0.7,0.3,0.616866732375995,"false"
"image-keyboard-response",24,15621,"0.0-3.4-1.4","blkoe7koujnjnhx","126.csv","","null","resources/maskTrios/BBA2.jpg","null","",NA,NA,NA,NA,""
"image-keyboard-response",25,16825,"0.0-3.4-2.4","blkoe7koujnjnhx","126.csv","","null","resources/images/fishbone.png","null","",NA,NA,NA,NA,""
"image-keyboard-response",26,16961,"0.0-3.5-0.5","blkoe7koujnjnhx","126.csv","","133.30000007152557","resources/trios/L1T1A2.jpg","39","restless",0.9,0.7,0.2,0.865321886605154,"false"
"image-keyboard-response",27,17363,"0.0-3.5-1.5","blkoe7koujnjnhx","126.csv","","null","resources/maskTrios/BBA2.jpg","null","",NA,NA,NA,NA,""
"image-keyboard-response",28,18567,"0.0-3.5-2.5","blkoe7koujnjnhx","126.csv","","null","resources/images/fishbone.png","null","",NA,NA,NA,NA,""
"image-keyboard-response",29,18790,"0.0-3.6-0.6","blkoe7koujnjnhx","126.csv","","220.80000007152557","resources/trios/L2T4A2.jpg","39","restless",0.9,0.7,0.2,0.692916504136025,"false"
"image-keyboard-response",30,19195,"0.0-3.6-1.6","blkoe7koujnjnhx","126.csv","","null","resources/maskTrios/BBA2.jpg","null","",NA,NA,NA,NA,""
"image-keyboard-response",31,20400,"0.0-3.6-2.6","blkoe7koujnjnhx","126.csv","","null","resources/images/fishbone.png","null","",NA,NA,NA,NA,""
"image-keyboard-response",32,21258,"0.0-3.7-0.7","blkoe7koujnjnhx","126.csv","","855.6000000238419","resources/trios/L1T4A2.jpg","39","restless",0.8,0.7,0.2,0.0206714449463408,"true"
"image-keyboard-response",33,21661,"0.0-3.7-1.7","blkoe7koujnjnhx","126.csv","","null","resources/maskTrios/BBA2.jpg","null","",NA,NA,NA,NA,""
"image-keyboard-response",34,22866,"0.0-3.7-2.7","blkoe7koujnjnhx","126.csv","","null","resources/images/coin2.png","null","",NA,NA,NA,NA,""
"image-keyboard-response",35,23041,"0.0-3.8-0.8","blkoe7koujnjnhx","126.csv","","172.29999995231628","resources/trios/L2T4A1.jpg","39","restless",0.8,0.7,0.2,0.498496503431601,"false"
"image-keyboard-response",36,23443,"0.0-3.8-1.8","blkoe7koujnjnhx","126.csv","","null","resources/maskTrios/BBA1.jpg","null","",NA,NA,NA,NA,""
"image-keyboard-response",37,24649,"0.0-3.8-2.8","blkoe7koujnjnhx","126.csv","","null","resources/images/fishbone.png","null","",NA,NA,NA,NA,""
"image-keyboard-response",38,24983,"0.0-3.9-0.9","blkoe7koujnjnhx","126.csv","","332.1999999284744","resources/trios/L1T4A1.jpg","39","restless",0.8,0.7,0.3,0.647309885386338,"false"
"image-keyboard-response",39,25388,"0.0-3.9-1.9","blkoe7koujnjnhx","126.csv","","null","resources/maskTrios/BBA1.jpg","null","",NA,NA,NA,NA,""
"image-keyboard-response",40,26591,"0.0-3.9-2.9","blkoe7koujnjnhx","126.csv","","null","resources/images/fishbone.png","null","",NA,NA,NA,NA,""
"image-keyboard-response",41,26790,"0.0-3.10-0.10","blkoe7koujnjnhx","126.csv","","196.80000007152557","resources/trios/L1T1A2.jpg","39","restless",0.8,0.7,0.3,0.784201171803735,"false"
"image-keyboard-response",42,27196,"0.0-3.10-1.10","blkoe7koujnjnhx","126.csv","","null","resources/maskTrios/BBA2.jpg","null","",NA,NA,NA,NA,""
"image-keyboard-response",43,28400,"0.0-3.10-2.10","blkoe7koujnjnhx","126.csv","","null","resources/images/fishbone.png","null","",NA,NA,NA,NA,""
"image-keyboard-response",44,28616,"0.0-3.11-0.11","blkoe7koujnjnhx","126.csv","","213.20000004768372","resources/trios/L1T4A2.jpg","39","restless",0.8,0.7,0.3,0.993225599546824,"false"
"image-keyboard-response",45,29022,"0.0-3.11-1.11","blkoe7koujnjnhx","126.csv","","null","resources/maskTrios/BBA2.jpg","null","",NA,NA,NA,NA,""
"image-keyboard-response",46,30229,"0.0-3.11-2.11","blkoe7koujnjnhx","126.csv","","null","resources/images/fishbone.png","null","",NA,NA,NA,NA,""
"image-keyboard-response",47,30270,"0.0-3.12-0.12","blkoe7koujnjnhx","126.csv","","38.200000047683716","resources/trios/L1T4A2.jpg","39","restless",0.8,0.7,0.3,0.182431196213131,"true"
"image-keyboard-response",48,30674,"0.0-3.12-1.12","blkoe7koujnjnhx","126.csv","","null","resources/maskTrios/BBA2.jpg","null","",NA,NA,NA,NA,""
"image-keyboard-response",49,31880,"0.0-3.12-2.12","blkoe7koujnjnhx","126.csv","","null","resources/images/coin2.png","null","",NA,NA,NA,NA,""
"image-keyboard-response",50,32157,"0.0-3.13-0.13","blkoe7koujnjnhx","126.csv","","275.2000000476837","resources/trios/L2T4A2.jpg","39","restless",0.8,0.7,0.3,0.69815230765586,"false"
"image-keyboard-response",51,32562,"0.0-3.13-1.13","blkoe7koujnjnhx","126.csv","","null","resources/maskTrios/BBA2.jpg","null","",NA,NA,NA,NA,""
"image-keyboard-response",52,33766,"0.0-3.13-2.13","blkoe7koujnjnhx","126.csv","","null","resources/images/fishbone.png","null","",NA,NA,NA,NA,""
"image-keyboard-response",53,33896,"0.0-3.14-0.14","blkoe7koujnjnhx","126.csv","","127.69999992847443","resources/trios/L1T4A2.jpg","39","restless",0.8,0.8,0.3,0.398466800535997,"false"
"image-keyboard-response",54,34301,"0.0-3.14-1.14","blkoe7koujnjnhx","126.csv","","null","resources/maskTrios/BBA2.jpg","null","",NA,NA,NA,NA,""
"image-keyboard-response",55,35504,"0.0-3.14-2.14","blkoe7koujnjnhx","126.csv","","null","resources/images/fishbone.png","null","",NA,NA,NA,NA,""
"image-keyboard-response",56,35592,"0.0-3.15-0.15","blkoe7koujnjnhx","126.csv","","85.09999990463257","resources/trios/L1T4A2.jpg","39","restless",0.7,0.8,0.3,0.715978595511163,"false"
"image-keyboard-response",57,35997,"0.0-3.15-1.15","blkoe7koujnjnhx","126.csv","","null","resources/maskTrios/BBA2.jpg","null","",NA,NA,NA,NA,""
"image-keyboard-response",58,37202,"0.0-3.15-2.15","blkoe7koujnjnhx","126.csv","","null","resources/images/fishbone.png","null","",NA,NA,NA,NA,""
"image-keyboard-response",59,37350,"0.0-3.16-0.16","blkoe7koujnjnhx","126.csv","","145.09999990463257","resources/trios/L1T1A1.jpg","39","restless",0.7,0.9,0.3,0.249318826740619,"true"
"image-keyboard-response",60,37757,"0.0-3.16-1.16","blkoe7koujnjnhx","126.csv","","null","resources/maskTrios/BBA1.jpg","null","",NA,NA,NA,NA,""
"image-keyboard-response",61,38962,"0.0-3.16-2.16","blkoe7koujnjnhx","126.csv","","null","resources/images/coin2.png","null","",NA,NA,NA,NA,""
"image-keyboard-response",62,39043,"0.0-3.17-0.17","blkoe7koujnjnhx","126.csv","","77.90000009536743","resources/trios/L1T4A2.jpg","39","restless",0.7,0.8,0.3,0.892846086117257,"false"
"image-keyboard-response",63,39448,"0.0-3.17-1.17","blkoe7koujnjnhx","126.csv","","null","resources/maskTrios/BBA2.jpg","null","",NA,NA,NA,NA,""
"image-keyboard-response",64,40655,"0.0-3.17-2.17","blkoe7koujnjnhx","126.csv","","null","resources/images/fishbone.png","null","",NA,NA,NA,NA,""
"image-keyboard-response",65,40744,"0.0-3.18-0.18","blkoe7koujnjnhx","126.csv","","86.5","resources/trios/L1T1A1.jpg","39","restless",0.6,0.8,0.3,0.45345878491899,"false"
"image-keyboard-response",66,41151,"0.0-3.18-1.18","blkoe7koujnjnhx","126.csv","","null","resources/maskTrios/BBA1.jpg","null","",NA,NA,NA,NA,""
"image-keyboard-response",67,42356,"0.0-3.18-2.18","blkoe7koujnjnhx","126.csv","","null","resources/images/fishbone.png","null","",NA,NA,NA,NA,""
"image-keyboard-response",68,42566,"0.0-3.19-0.19","blkoe7koujnjnhx","126.csv","","207.89999997615814","resources/trios/L2T1A1.jpg","39","restless",0.6,0.8,0.3,0.771135129574522,"false"
"image-keyboard-response",69,42970,"0.0-3.19-1.19","blkoe7koujnjnhx","126.csv","","null","resources/maskTrios/BBA1.jpg","null","",NA,NA,NA,NA,""
"image-keyboard-response",70,44174,"0.0-3.19-2.19","blkoe7koujnjnhx","126.csv","","null","resources/images/fishbone.png","null","",NA,NA,NA,NA,""
"image-keyboard-response",71,44361,"0.0-3.20-0.20","blkoe7koujnjnhx","126.csv","","184.29999995231628","resources/trios/L1T1A1.jpg","39","restless",0.6,0.8,0.3,0.881823677686852,"false"
"image-keyboard-response",72,44767,"0.0-3.20-1.20","blkoe7koujnjnhx","126.csv","","null","resources/maskTrios/BBA1.jpg","null","",NA,NA,NA,NA,""
"image-keyboard-response",73,45973,"0.0-3.20-2.20","blkoe7koujnjnhx","126.csv","","null","resources/images/fishbone.png","null","",NA,NA,NA,NA,""
"image-keyboard-response",74,46005,"0.0-3.21-0.21","blkoe7koujnjnhx","126.csv","","29.300000071525574","resources/trios/L1T4A2.jpg","39","restless",0.5,0.8,0.3,0.359549360217127,"false"
"image-keyboard-response",75,46408,"0.0-3.21-1.21","blkoe7koujnjnhx","126.csv","","null","resources/maskTrios/BBA2.jpg","null","",NA,NA,NA,NA,""
"image-keyboard-response",76,47613,"0.0-3.21-2.21","blkoe7koujnjnhx","126.csv","","null","resources/images/fishbone.png","null","",NA,NA,NA,NA,""
"image-keyboard-response",77,47925,"0.0-3.22-0.22","blkoe7koujnjnhx","126.csv","","309.10000002384186","resources/trios/L1T1A1.jpg","39","restless",0.5,0.8,0.3,0.409514942397855,"false"
"image-keyboard-response",78,48332,"0.0-3.22-1.22","blkoe7koujnjnhx","126.csv","","null","resources/maskTrios/BBA1.jpg","null","",NA,NA,NA,NA,""
"image-keyboard-response",79,49535,"0.0-3.22-2.22","blkoe7koujnjnhx","126.csv","","null","resources/images/fishbone.png","null","",NA,NA,NA,NA,""
"image-keyboard-response",80,49798,"0.0-3.23-0.23","blkoe7koujnjnhx","126.csv","","260.2999999523163","resources/trios/L1T1A1.jpg","39","restless",0.5,0.7,0.3,0.378351975972493,"false"
"image-keyboard-response",81,50201,"0.0-3.23-1.23","blkoe7koujnjnhx","126.csv","","null","resources/maskTrios/BBA1.jpg","null","",NA,NA,NA,NA,""
"image-keyboard-response",82,51405,"0.0-3.23-2.23","blkoe7koujnjnhx","126.csv","","null","resources/images/fishbone.png","null","",NA,NA,NA,NA,""
"image-keyboard-response",83,51409,"0.0-3.24-0.24","blkoe7koujnjnhx","126.csv","","1.2000000476837158","resources/trios/L2T4A1.jpg","39","restless",0.5,0.7,0.3,0.441824754963265,"false"
"image-keyboard-response",84,51812,"0.0-3.24-1.24","blkoe7koujnjnhx","126.csv","","null","resources/maskTrios/BBA1.jpg","null","",NA,NA,NA,NA,""
"image-keyboard-response",85,53016,"0.0-3.24-2.24","blkoe7koujnjnhx","126.csv","","null","resources/images/fishbone.png","null","",NA,NA,NA,NA,""
"image-keyboard-response",86,53114,"0.0-3.25-0.25","blkoe7koujnjnhx","126.csv","","95.5","resources/trios/L2T1A1.jpg","39","restless",0.5,0.7,0.3,0.409330248751653,"false"
"image-keyboard-response",87,53519,"0.0-3.25-1.25","blkoe7koujnjnhx","126.csv","","null","resources/maskTrios/BBA1.jpg","null","",NA,NA,NA,NA,""
"image-keyboard-response",88,54724,"0.0-3.25-2.25","blkoe7koujnjnhx","126.csv","","null","resources/images/fishbone.png","null","",NA,NA,NA,NA,""
"image-keyboard-response",89,54969,"0.0-3.26-0.26","blkoe7koujnjnhx","126.csv","","242","resources/trios/L1T4A2.jpg","39","restless",0.5,0.7,0.3,0.355673691271441,"false"
"image-keyboard-response",90,55374,"0.0-3.26-1.26","blkoe7koujnjnhx","126.csv","","null","resources/maskTrios/BBA2.jpg","null","",NA,NA,NA,NA,""
"image-keyboard-response",91,56579,"0.0-3.26-2.26","blkoe7koujnjnhx","126.csv","","null","resources/images/fishbone.png","null","",NA,NA,NA,NA,""
"image-keyboard-response",92,56588,"0.0-3.27-0.27","blkoe7koujnjnhx","126.csv","","6.400000095367432","resources/trios/L1T4A1.jpg","39","restless",0.5,0.7,0.3,0.351558826365585,"false"
"image-keyboard-response",93,56990,"0.0-3.27-1.27","blkoe7koujnjnhx","126.csv","","null","resources/maskTrios/BBA1.jpg","null","",NA,NA,NA,NA,""
"image-keyboard-response",94,58195,"0.0-3.27-2.27","blkoe7koujnjnhx","126.csv","","null","resources/images/fishbone.png","null","",NA,NA,NA,NA,""
"image-keyboard-response",95,58306,"0.0-3.28-0.28","blkoe7koujnjnhx","126.csv","","109.30000007152557","resources/trios/L1T1A2.jpg","39","restless",0.5,0.7,0.3,0.243520283788079,"true"
"image-keyboard-response",96,58712,"0.0-3.28-1.28","blkoe7koujnjnhx","126.csv","","null","resources/maskTrios/BBA2.jpg","null","",NA,NA,NA,NA,""
"image-keyboard-response",97,59918,"0.0-3.28-2.28","blkoe7koujnjnhx","126.csv","","null","resources/images/coin2.png","null","",NA,NA,NA,NA,""
"image-keyboard-response",98,60080,"0.0-3.29-0.29","blkoe7koujnjnhx","126.csv","","160.60000002384186","resources/trios/L2T1A1.jpg","39","restless",0.5,0.7,0.3,0.147895093622621,"true"
"image-keyboard-response",99,60484,"0.0-3.29-1.29","blkoe7koujnjnhx","126.csv","","null","resources/maskTrios/BBA1.jpg","null","",NA,NA,NA,NA,""
"image-keyboard-response",100,61688,"0.0-3.29-2.29","blkoe7koujnjnhx","126.csv","","null","resources/images/coin2.png","null","",NA,NA,NA,NA,""
"image-keyboard-response",101,61719,"0.0-3.30-0.30","blkoe7koujnjnhx","126.csv","","29.399999976158142","resources/trios/L2T1A2.jpg","39","restless",0.5,0.7,0.3,0.416878291440913,"false"
"image-keyboard-response",102,62121,"0.0-3.30-1.30","blkoe7koujnjnhx","126.csv","","null","resources/maskTrios/BBA2.jpg","null","",NA,NA,NA,NA,""
"image-keyboard-response",103,63326,"0.0-3.30-2.30","blkoe7koujnjnhx","126.csv","","null","resources/images/fishbone.png","null","",NA,NA,NA,NA,""
"image-keyboard-response",104,63359,"0.0-3.31-0.31","blkoe7koujnjnhx","126.csv","","31.100000023841858","resources/trios/L1T4A2.jpg","39","restless",0.5,0.7,0.3,0.809272485593172,"false"
"image-keyboard-response",105,63763,"0.0-3.31-1.31","blkoe7koujnjnhx","126.csv","","null","resources/maskTrios/BBA2.jpg","null","",NA,NA,NA,NA,""
"image-keyboard-response",106,64966,"0.0-3.31-2.31","blkoe7koujnjnhx","126.csv","","null","resources/images/fishbone.png","null","",NA,NA,NA,NA,""
"image-keyboard-response",107,65080,"0.0-3.32-0.32","blkoe7koujnjnhx","126.csv","","111.19999992847443","resources/trios/L1T1A2.jpg","39","restless",0.5,0.7,0.3,0.304105265926223,"false"
"image-keyboard-response",108,65485,"0.0-3.32-1.32","blkoe7koujnjnhx","126.csv","","null","resources/maskTrios/BBA2.jpg","null","",NA,NA,NA,NA,""
"image-keyboard-response",109,66691,"0.0-3.32-2.32","blkoe7koujnjnhx","126.csv","","null","resources/images/fishbone.png","null","",NA,NA,NA,NA,""
"image-keyboard-response",110,66899,"0.0-3.33-0.33","blkoe7koujnjnhx","126.csv","","205.39999997615814","resources/trios/L1T1A1.jpg","39","restless",0.5,0.7,0.3,0.617583471250667,"false"
"image-keyboard-response",111,67306,"0.0-3.33-1.33","blkoe7koujnjnhx","126.csv","","null","resources/maskTrios/BBA1.jpg","null","",NA,NA,NA,NA,""
"image-keyboard-response",112,68511,"0.0-3.33-2.33","blkoe7koujnjnhx","126.csv","","null","resources/images/fishbone.png","null","",NA,NA,NA,NA,""
"image-keyboard-response",113,68958,"0.0-3.34-0.34","blkoe7koujnjnhx","126.csv","","444.2000000476837","resources/trios/L2T1A2.jpg","39","restless",0.5,0.7,0.3,0.86662453733953,"false"
"image-keyboard-response",114,69363,"0.0-3.34-1.34","blkoe7koujnjnhx","126.csv","","null","resources/maskTrios/BBA2.jpg","null","",NA,NA,NA,NA,""
"image-keyboard-response",115,70568,"0.0-3.34-2.34","blkoe7koujnjnhx","126.csv","","null","resources/images/fishbone.png","null","",NA,NA,NA,NA,""
"image-keyboard-response",116,71961,"0.0-3.35-0.35","blkoe7koujnjnhx","126.csv","","1390.1000000238419","resources/trios/L2T1A2.jpg","39","restless",0.5,0.7,0.3,0.16614153419336,"true"
"image-keyboard-response",117,72365,"0.0-3.35-1.35","blkoe7koujnjnhx","126.csv","","null","resources/maskTrios/BBA2.jpg","null","",NA,NA,NA,NA,""
"image-keyboard-response",118,73571,"0.0-3.35-2.35","blkoe7koujnjnhx","126.csv","","null","resources/images/coin2.png","null","",NA,NA,NA,NA,""
"image-keyboard-response",119,73725,"0.0-3.36-0.36","blkoe7koujnjnhx","126.csv","","151.80000007152557","resources/trios/L1T4A2.jpg","39","restless",0.5,0.7,0.3,0.866178152626397,"false"
"image-keyboard-response",120,74131,"0.0-3.36-1.36","blkoe7koujnjnhx","126.csv","","null","resources/maskTrios/BBA2.jpg","null","",NA,NA,NA,NA,""
"image-keyboard-response",121,75337,"0.0-3.36-2.36","blkoe7koujnjnhx","126.csv","","null","resources/images/fishbone.png","null","",NA,NA,NA,NA,""
"image-keyboard-response",122,75466,"0.0-3.37-0.37","blkoe7koujnjnhx","126.csv","","126.39999997615814","resources/trios/L1T1A2.jpg","39","restless",0.5,0.7,0.3,0.55149483821097,"false"
"image-keyboard-response",123,75870,"0.0-3.37-1.37","blkoe7koujnjnhx","126.csv","","null","resources/maskTrios/BBA2.jpg","null","",NA,NA,NA,NA,""
"image-keyboard-response",124,77076,"0.0-3.37-2.37","blkoe7koujnjnhx","126.csv","","null","resources/images/fishbone.png","null","",NA,NA,NA,NA,""
"image-keyboard-response",125,77235,"0.0-3.38-0.38","blkoe7koujnjnhx","126.csv","","156.20000004768372","resources/trios/L1T1A1.jpg","39","restless",0.5,0.7,0.3,0.899698864932958,"false"
"image-keyboard-response",126,77640,"0.0-3.38-1.38","blkoe7koujnjnhx","126.csv","","null","resources/maskTrios/BBA1.jpg","null","",NA,NA,NA,NA,""
"image-keyboard-response",127,78845,"0.0-3.38-2.38","blkoe7koujnjnhx","126.csv","","null","resources/images/fishbone.png","null","",NA,NA,NA,NA,""
"image-keyboard-response",128,78981,"0.0-3.39-0.39","blkoe7koujnjnhx","126.csv","","133.70000004768372","resources/trios/L2T1A2.jpg","39","restless",0.5,0.7,0.3,0.443632396834944,"false"
"image-keyboard-response",129,79387,"0.0-3.39-1.39","blkoe7koujnjnhx","126.csv","","null","resources/maskTrios/BBA2.jpg","null","",NA,NA,NA,NA,""
"image-keyboard-response",130,80589,"0.0-3.39-2.39","blkoe7koujnjnhx","126.csv","","null","resources/images/fishbone.png","null","",NA,NA,NA,NA,""
"image-keyboard-response",131,80652,"0.0-3.40-0.40","blkoe7koujnjnhx","126.csv","","60.699999928474426","resources/trios/L1T1A1.jpg","39","restless",0.5,0.7,0.3,0.738489951076686,"false"
"image-keyboard-response",132,81057,"0.0-3.40-1.40","blkoe7koujnjnhx","126.csv","","null","resources/maskTrios/BBA1.jpg","null","",NA,NA,NA,NA,""
"image-keyboard-response",133,82259,"0.0-3.40-2.40","blkoe7koujnjnhx","126.csv","","null","resources/images/fishbone.png","null","",NA,NA,NA,NA,""
"image-keyboard-response",134,82295,"0.0-3.41-0.41","blkoe7koujnjnhx","126.csv","","33.199999928474426","resources/trios/L1T4A2.jpg","39","restless",0.4,0.7,0.3,0.725045447102509,"false"
"image-keyboard-response",135,82698,"0.0-3.41-1.41","blkoe7koujnjnhx","126.csv","","null","resources/maskTrios/BBA2.jpg","null","",NA,NA,NA,NA,""
"image-keyboard-response",136,83902,"0.0-3.41-2.41","blkoe7koujnjnhx","126.csv","","null","resources/images/fishbone.png","null","",NA,NA,NA,NA,""
"image-keyboard-response",137,84056,"0.0-3.42-0.42","blkoe7koujnjnhx","126.csv","","151.39999997615814","resources/trios/L2T4A1.jpg","39","restless",0.4,0.6,0.3,0.396592434132001,"false"
"image-keyboard-response",138,84462,"0.0-3.42-1.42","blkoe7koujnjnhx","126.csv","","null","resources/maskTrios/BBA1.jpg","null","",NA,NA,NA,NA,""
"image-keyboard-response",139,85666,"0.0-3.42-2.42","blkoe7koujnjnhx","126.csv","","null","resources/images/fishbone.png","null","",NA,NA,NA,NA,""
"image-keyboard-response",140,85803,"0.0-3.43-0.43","blkoe7koujnjnhx","126.csv","","134.90000009536743","resources/trios/L1T4A1.jpg","39","restless",0.4,0.6,0.3,0.740882859088646,"false"
"image-keyboard-response",141,86209,"0.0-3.43-1.43","blkoe7koujnjnhx","126.csv","","null","resources/maskTrios/BBA1.jpg","null","",NA,NA,NA,NA,""
"image-keyboard-response",142,87412,"0.0-3.43-2.43","blkoe7koujnjnhx","126.csv","","null","resources/images/fishbone.png","null","",NA,NA,NA,NA,""
"image-keyboard-response",143,87560,"0.0-3.44-0.44","blkoe7koujnjnhx","126.csv","","145.80000007152557","resources/trios/L2T4A2.jpg","39","restless",0.4,0.6,0.3,0.199325684372053,"true"
"image-keyboard-response",144,87967,"0.0-3.44-1.44","blkoe7koujnjnhx","126.csv","","null","resources/maskTrios/BBA2.jpg","null","",NA,NA,NA,NA,""
"image-keyboard-response",145,89174,"0.0-3.44-2.44","blkoe7koujnjnhx","126.csv","","null","resources/images/coin2.png","null","",NA,NA,NA,NA,""
"image-keyboard-response",146,89210,"0.0-3.45-0.45","blkoe7koujnjnhx","126.csv","","33","resources/trios/L1T1A2.jpg","39","restless",0.4,0.6,0.3,0.237636968330582,"true"
"image-keyboard-response",147,89614,"0.0-3.45-1.45","blkoe7koujnjnhx","126.csv","","null","resources/maskTrios/BBA2.jpg","null","",NA,NA,NA,NA,""
"image-keyboard-response",148,90822,"0.0-3.45-2.45","blkoe7koujnjnhx","126.csv","","null","resources/images/coin2.png","null","",NA,NA,NA,NA,""
"image-keyboard-response",149,90959,"0.0-3.46-0.46","blkoe7koujnjnhx","126.csv","","134.39999997615814","resources/trios/L1T4A2.jpg","39","restless",0.4,0.6,0.3,0.458124318419344,"false"
"image-keyboard-response",150,91362,"0.0-3.46-1.46","blkoe7koujnjnhx","126.csv","","null","resources/maskTrios/BBA2.jpg","null","",NA,NA,NA,NA,""
"image-keyboard-response",151,92569,"0.0-3.46-2.46","blkoe7koujnjnhx","126.csv","","null","resources/images/fishbone.png","null","",NA,NA,NA,NA,""
"image-keyboard-response",152,92605,"0.0-3.47-0.47","blkoe7koujnjnhx","126.csv","","33.39999997615814","resources/trios/L2T1A2.jpg","39","restless",0.4,0.6,0.3,0.558144116968798,"false"
"image-keyboard-response",153,93012,"0.0-3.47-1.47","blkoe7koujnjnhx","126.csv","","null","resources/maskTrios/BBA2.jpg","null","",NA,NA,NA,NA,""
"image-keyboard-response",154,94217,"0.0-3.47-2.47","blkoe7koujnjnhx","126.csv","","null","resources/images/fishbone.png","null","",NA,NA,NA,NA,""
"image-keyboard-response",155,94448,"0.0-3.48-0.48","blkoe7koujnjnhx","126.csv","","228.40000009536743","resources/trios/L2T4A1.jpg","39","restless",0.4,0.6,0.3,0.740013898268209,"false"
"image-keyboard-response",156,94854,"0.0-3.48-1.48","blkoe7koujnjnhx","126.csv","","null","resources/maskTrios/BBA1.jpg","null","",NA,NA,NA,NA,""
"image-keyboard-response",157,96059,"0.0-3.48-2.48","blkoe7koujnjnhx","126.csv","","null","resources/images/fishbone.png","null","",NA,NA,NA,NA,""
"image-keyboard-response",158,96226,"0.0-3.49-0.49","blkoe7koujnjnhx","126.csv","","164.29999995231628","resources/trios/L1T1A1.jpg","39","restless",0.4,0.7,0.3,0.734468513996254,"false"
"image-keyboard-response",159,96632,"0.0-3.49-1.49","blkoe7koujnjnhx","126.csv","","null","resources/maskTrios/BBA1.jpg","null","",NA,NA,NA,NA,""
"image-keyboard-response",160,97839,"0.0-3.49-2.49","blkoe7koujnjnhx","126.csv","","null","resources/images/fishbone.png","null","",NA,NA,NA,NA,""
"image-keyboard-response",161,97876,"0.0-3.50-0.50","blkoe7koujnjnhx","126.csv","","35.10000002384186","resources/trios/L2T1A2.jpg","39","restless",0.4,0.7,0.3,0.39199972948798,"false"
"image-keyboard-response",162,98281,"0.0-3.50-1.50","blkoe7koujnjnhx","126.csv","","null","resources/maskTrios/BBA2.jpg","null","",NA,NA,NA,NA,""
"image-keyboard-response",163,99486,"0.0-3.50-2.50","blkoe7koujnjnhx","126.csv","","null","resources/images/fishbone.png","null","",NA,NA,NA,NA,""
"image-keyboard-response",164,99674,"0.0-3.51-0.51","blkoe7koujnjnhx","126.csv","","184.90000009536743","resources/trios/L2T4A2.jpg","39","restless",0.4,0.7,0.3,0.48643618874446,"false"
"image-keyboard-response",165,100078,"0.0-3.51-1.51","blkoe7koujnjnhx","126.csv","","null","resources/maskTrios/BBA2.jpg","null","",NA,NA,NA,NA,""
"image-keyboard-response",166,101284,"0.0-3.51-2.51","blkoe7koujnjnhx","126.csv","","null","resources/images/fishbone.png","null","",NA,NA,NA,NA,""
"image-keyboard-response",167,101489,"0.0-3.52-0.52","blkoe7koujnjnhx","126.csv","","202.5","resources/trios/L1T4A1.jpg","39","restless",0.4,0.7,0.3,0.621236537560407,"false"
"image-keyboard-response",168,101892,"0.0-3.52-1.52","blkoe7koujnjnhx","126.csv","","null","resources/maskTrios/BBA1.jpg","null","",NA,NA,NA,NA,""
"image-keyboard-response",169,103094,"0.0-3.52-2.52","blkoe7koujnjnhx","126.csv","","null","resources/images/fishbone.png","null","",NA,NA,NA,NA,""
"image-keyboard-response",170,103240,"0.0-3.53-0.53","blkoe7koujnjnhx","126.csv","","143.39999997615814","resources/trios/L2T1A1.jpg","39","restless",0.5,0.7,0.3,0.797965728980785,"false"
"image-keyboard-response",171,103643,"0.0-3.53-1.53","blkoe7koujnjnhx","126.csv","","null","resources/maskTrios/BBA1.jpg","null","",NA,NA,NA,NA,""
"image-keyboard-response",172,104849,"0.0-3.53-2.53","blkoe7koujnjnhx","126.csv","","null","resources/images/fishbone.png","null","",NA,NA,NA,NA,""
"image-keyboard-response",173,104859,"0.0-3.54-0.54","blkoe7koujnjnhx","126.csv","","8.100000023841858","resources/trios/L1T4A1.jpg","39","restless",0.5,0.7,0.3,0.817193536934862,"false"
"image-keyboard-response",174,105263,"0.0-3.54-1.54","blkoe7koujnjnhx","126.csv","","null","resources/maskTrios/BBA1.jpg","null","",NA,NA,NA,NA,""
"image-keyboard-response",175,106469,"0.0-3.54-2.54","blkoe7koujnjnhx","126.csv","","null","resources/images/fishbone.png","null","",NA,NA,NA,NA,""
"image-keyboard-response",176,106706,"0.0-3.55-0.55","blkoe7koujnjnhx","126.csv","","234.19999992847443","resources/trios/L1T1A2.jpg","39","restless",0.5,0.6,0.3,0.766610423993267,"false"
"image-keyboard-response",177,107113,"0.0-3.55-1.55","blkoe7koujnjnhx","126.csv","","null","resources/maskTrios/BBA2.jpg","null","",NA,NA,NA,NA,""
"image-keyboard-response",178,108319,"0.0-3.55-2.55","blkoe7koujnjnhx","126.csv","","null","resources/images/fishbone.png","null","",NA,NA,NA,NA,""
"image-keyboard-response",179,108344,"0.0-3.56-0.56","blkoe7koujnjnhx","126.csv","","22.200000047683716","resources/trios/L2T1A1.jpg","39","restless",0.5,0.6,0.3,0.56105264977702,"false"
"image-keyboard-response",180,108745,"0.0-3.56-1.56","blkoe7koujnjnhx","126.csv","","null","resources/maskTrios/BBA1.jpg","null","",NA,NA,NA,NA,""
"image-keyboard-response",181,109951,"0.0-3.56-2.56","blkoe7koujnjnhx","126.csv","","null","resources/images/fishbone.png","null","",NA,NA,NA,NA,""
"image-keyboard-response",182,110165,"0.0-3.57-0.57","blkoe7koujnjnhx","126.csv","","211.5","resources/trios/L2T4A2.jpg","39","restless",0.5,0.6,0.3,0.805833436305034,"false"
"image-keyboard-response",183,110569,"0.0-3.57-1.57","blkoe7koujnjnhx","126.csv","","null","resources/maskTrios/BBA2.jpg","null","",NA,NA,NA,NA,""
"image-keyboard-response",184,111776,"0.0-3.57-2.57","blkoe7koujnjnhx","126.csv","","null","resources/images/fishbone.png","null","",NA,NA,NA,NA,""
"image-keyboard-response",185,111806,"0.0-3.58-0.58","blkoe7koujnjnhx","126.csv","","27.5","resources/trios/L2T4A2.jpg","39","restless",0.5,0.6,0.3,0.996869649205818,"false"
"image-keyboard-response",186,112212,"0.0-3.58-1.58","blkoe7koujnjnhx","126.csv","","null","resources/maskTrios/BBA2.jpg","null","",NA,NA,NA,NA,""
"image-keyboard-response",187,113418,"0.0-3.58-2.58","blkoe7koujnjnhx","126.csv","","null","resources/images/fishbone.png","null","",NA,NA,NA,NA,""
"image-keyboard-response",188,113427,"0.0-3.59-0.59","blkoe7koujnjnhx","126.csv","","6.900000095367432","resources/trios/L1T4A1.jpg","39","restless",0.5,0.6,0.3,0.919283405872881,"false"
"image-keyboard-response",189,113829,"0.0-3.59-1.59","blkoe7koujnjnhx","126.csv","","null","resources/maskTrios/BBA1.jpg","null","",NA,NA,NA,NA,""
"image-keyboard-response",190,115034,"0.0-3.59-2.59","blkoe7koujnjnhx","126.csv","","null","resources/images/fishbone.png","null","",NA,NA,NA,NA,""
"image-keyboard-response",191,116404,"0.0-3.60-0.60","blkoe7koujnjnhx","126.csv","","1366.8999999761581","resources/trios/L1T1A1.jpg","37","restless",0.5,0.6,0.3,0.0635770029577085,"true"
"image-keyboard-response",192,116809,"0.0-3.60-1.60","blkoe7koujnjnhx","126.csv","","null","resources/maskTrios/L1BB.jpg","null","",NA,NA,NA,NA,""
"image-keyboard-response",193,118015,"0.0-3.60-2.60","blkoe7koujnjnhx","126.csv","","null","resources/images/coin2.png","null","",NA,NA,NA,NA,""
"image-keyboard-response",194,118027,"0.0-3.61-0.61","blkoe7koujnjnhx","126.csv","","9.5","resources/trios/L2T1A1.jpg","37","restless",0.5,0.6,0.3,0.0643371333893379,"true"
"image-keyboard-response",195,118431,"0.0-3.61-1.61","blkoe7koujnjnhx","126.csv","","null","resources/maskTrios/L2BB.jpg","null","",NA,NA,NA,NA,""
"image-keyboard-response",196,119637,"0.0-3.61-2.61","blkoe7koujnjnhx","126.csv","","null","resources/images/coin2.png","null","",NA,NA,NA,NA,""
"image-keyboard-response",197,119692,"0.0-3.62-0.62","blkoe7koujnjnhx","126.csv","","52.300000071525574","resources/trios/L2T1A1.jpg","37","restless",0.5,0.6,0.3,0.730081709190089,"false"
"image-keyboard-response",198,120099,"0.0-3.62-1.62","blkoe7koujnjnhx","126.csv","","null","resources/maskTrios/L2BB.jpg","null","",NA,NA,NA,NA,""
"image-keyboard-response",199,121306,"0.0-3.62-2.62","blkoe7koujnjnhx","126.csv","","null","resources/images/fishbone.png","null","",NA,NA,NA,NA,""
"image-keyboard-response",200,121345,"0.0-3.63-0.63","blkoe7koujnjnhx","126.csv","","37.10000002384186","resources/trios/L2T4A1.jpg","37","restless",0.5,0.6,0.3,0.538374722161767,"false"
"image-keyboard-response",201,121750,"0.0-3.63-1.63","blkoe7koujnjnhx","126.csv","","null","resources/maskTrios/L2BB.jpg","null","",NA,NA,NA,NA,""
"image-keyboard-response",202,122956,"0.0-3.63-2.63","blkoe7koujnjnhx","126.csv","","null","resources/images/fishbone.png","null","",NA,NA,NA,NA,""
"image-keyboard-response",203,123049,"0.0-3.64-0.64","blkoe7koujnjnhx","126.csv","","90.40000009536743","resources/trios/L1T1A2.jpg","38","restless",0.5,0.5,0.3,0.429977975876154,"true"
"image-keyboard-response",204,123452,"0.0-3.64-1.64","blkoe7koujnjnhx","126.csv","","null","resources/maskTrios/BT1B.jpg","null","",NA,NA,NA,NA,""
"image-keyboard-response",205,124657,"0.0-3.64-2.64","blkoe7koujnjnhx","126.csv","","null","resources/images/coin2.png","null","",NA,NA,NA,NA,""
"image-keyboard-response",206,124745,"0.0-3.65-0.65","blkoe7koujnjnhx","126.csv","","85.60000002384186","resources/trios/L1T1A1.jpg","38","restless",0.5,0.5,0.3,0.000224128246572031,"true"
"image-keyboard-response",207,125147,"0.0-3.65-1.65","blkoe7koujnjnhx","126.csv","","null","resources/maskTrios/BT1B.jpg","null","",NA,NA,NA,NA,""
"image-keyboard-response",208,126353,"0.0-3.65-2.65","blkoe7koujnjnhx","126.csv","","null","resources/images/coin2.png","null","",NA,NA,NA,NA,""
"image-keyboard-response",209,126583,"0.0-3.66-0.66","blkoe7koujnjnhx","126.csv","","227.29999995231628","resources/trios/L2T4A2.jpg","38","restless",0.5,0.5,0.2,0.776970896914577,"false"
"image-keyboard-response",210,126986,"0.0-3.66-1.66","blkoe7koujnjnhx","126.csv","","null","resources/maskTrios/BT4B.jpg","null","",NA,NA,NA,NA,""
"image-keyboard-response",211,128190,"0.0-3.66-2.66","blkoe7koujnjnhx","126.csv","","null","resources/images/fishbone.png","null","",NA,NA,NA,NA,""
"image-keyboard-response",212,128313,"0.0-3.67-0.67","blkoe7koujnjnhx","126.csv","","120.10000002384186","resources/trios/L2T4A1.jpg","38","restless",0.5,0.5,0.2,0.53639863605383,"false"
"image-keyboard-response",213,128719,"0.0-3.67-1.67","blkoe7koujnjnhx","126.csv","","null","resources/maskTrios/BT4B.jpg","null","",NA,NA,NA,NA,""
"image-keyboard-response",214,129925,"0.0-3.67-2.67","blkoe7koujnjnhx","126.csv","","null","resources/images/fishbone.png","null","",NA,NA,NA,NA,""
"image-keyboard-response",215,130007,"0.0-3.68-0.68","blkoe7koujnjnhx","126.csv","","79.29999995231628","resources/trios/L1T1A1.jpg","38","restless",0.5,0.5,0.2,0.496214342904568,"true"
"image-keyboard-response",216,130413,"0.0-3.68-1.68","blkoe7koujnjnhx","126.csv","","null","resources/maskTrios/BT1B.jpg","null","",NA,NA,NA,NA,""
"image-keyboard-response",217,131620,"0.0-3.68-2.68","blkoe7koujnjnhx","126.csv","","null","resources/images/coin2.png","null","",NA,NA,NA,NA,""
"image-keyboard-response",218,131801,"0.0-3.69-0.69","blkoe7koujnjnhx","126.csv","","179.19999992847443","resources/trios/L2T4A2.jpg","38","restless",0.5,0.5,0.3,0.0443897122973937,"true"
"image-keyboard-response",219,132207,"0.0-3.69-1.69","blkoe7koujnjnhx","126.csv","","null","resources/maskTrios/BT4B.jpg","null","",NA,NA,NA,NA,""
"image-keyboard-response",220,133413,"0.0-3.69-2.69","blkoe7koujnjnhx","126.csv","","null","resources/images/coin2.png","null","",NA,NA,NA,NA,""
"image-keyboard-response",221,134128,"0.0-3.70-0.70","blkoe7koujnjnhx","126.csv","","713.2000000476837","resources/trios/L1T1A2.jpg","38","restless",0.5,0.5,0.3,0.00679830840914653,"true"
"image-keyboard-response",222,134533,"0.0-3.70-1.70","blkoe7koujnjnhx","126.csv","","null","resources/maskTrios/BT1B.jpg","null","",NA,NA,NA,NA,""
"image-keyboard-response",223,135739,"0.0-3.70-2.70","blkoe7koujnjnhx","126.csv","","null","resources/images/coin2.png","null","",NA,NA,NA,NA,""
"image-keyboard-response",224,135756,"0.0-3.71-0.71","blkoe7koujnjnhx","126.csv","","14.600000023841858","resources/trios/L1T4A2.jpg","38","restless",0.5,0.5,0.3,0.560293854633598,"false"
"image-keyboard-response",225,136159,"0.0-3.71-1.71","blkoe7koujnjnhx","126.csv","","null","resources/maskTrios/BT4B.jpg","null","",NA,NA,NA,NA,""
"image-keyboard-response",226,137362,"0.0-3.71-2.71","blkoe7koujnjnhx","126.csv","","null","resources/images/fishbone.png","null","",NA,NA,NA,NA,""
"image-keyboard-response",227,137606,"0.0-3.72-0.72","blkoe7koujnjnhx","126.csv","","241.70000004768372","resources/trios/L1T1A1.jpg","37","restless",0.6,0.6,0.3,0.0883952241262116,"true"
"image-keyboard-response",228,138010,"0.0-3.72-1.72","blkoe7koujnjnhx","126.csv","","null","resources/maskTrios/L1BB.jpg","null","",NA,NA,NA,NA,""
"image-keyboard-response",229,139216,"0.0-3.72-2.72","blkoe7koujnjnhx","126.csv","","null","resources/images/coin2.png","null","",NA,NA,NA,NA,""
"image-keyboard-response",230,139287,"0.0-3.73-0.73","blkoe7koujnjnhx","126.csv","","69","resources/trios/L1T1A1.jpg","38","restless",0.6,0.6,0.3,0.851077403686159,"false"
"image-keyboard-response",231,139694,"0.0-3.73-1.73","blkoe7koujnjnhx","126.csv","","null","resources/maskTrios/BT1B.jpg","null","",NA,NA,NA,NA,""
"image-keyboard-response",232,140899,"0.0-3.73-2.73","blkoe7koujnjnhx","126.csv","","null","resources/images/fishbone.png","null","",NA,NA,NA,NA,""
"image-keyboard-response",233,141091,"0.0-3.74-0.74","blkoe7koujnjnhx","126.csv","","190.20000004768372","resources/trios/L1T1A2.jpg","38","restless",0.6,0.6,0.3,0.685976885573959,"false"
"image-keyboard-response",234,141498,"0.0-3.74-1.74","blkoe7koujnjnhx","126.csv","","null","resources/maskTrios/BT1B.jpg","null","",NA,NA,NA,NA,""
"image-keyboard-response",235,142705,"0.0-3.74-2.74","blkoe7koujnjnhx","126.csv","","null","resources/images/fishbone.png","null","",NA,NA,NA,NA,""
"image-keyboard-response",236,142810,"0.0-3.75-0.75","blkoe7koujnjnhx","126.csv","","103","resources/trios/L1T1A2.jpg","37","restless",0.5,0.6,0.3,0.533140593044088,"false"
"image-keyboard-response",237,143215,"0.0-3.75-1.75","blkoe7koujnjnhx","126.csv","","null","resources/maskTrios/L1BB.jpg","null","",NA,NA,NA,NA,""
"image-keyboard-response",238,144422,"0.0-3.75-2.75","blkoe7koujnjnhx","126.csv","","null","resources/images/fishbone.png","null","",NA,NA,NA,NA,""
"image-keyboard-response",239,145246,"0.0-3.76-0.76","blkoe7koujnjnhx","126.csv","","821.5","resources/trios/L1T4A1.jpg","37","restless",0.5,0.6,0.3,0.475821471550706,"true"
"image-keyboard-response",240,145653,"0.0-3.76-1.76","blkoe7koujnjnhx","126.csv","","null","resources/maskTrios/L1BB.jpg","null","",NA,NA,NA,NA,""
"image-keyboard-response",241,146858,"0.0-3.76-2.76","blkoe7koujnjnhx","126.csv","","null","resources/images/coin2.png","null","",NA,NA,NA,NA,""
"image-keyboard-response",242,147559,"0.0-3.77-0.77","blkoe7koujnjnhx","126.csv","","698.7999999523163","resources/trios/L2T1A2.jpg","37","restless",0.5,0.6,0.3,0.472027878087911,"true"
"image-keyboard-response",243,147965,"0.0-3.77-1.77","blkoe7koujnjnhx","126.csv","","null","resources/maskTrios/L2BB.jpg","null","",NA,NA,NA,NA,""
"image-keyboard-response",244,149169,"0.0-3.77-2.77","blkoe7koujnjnhx","126.csv","","null","resources/images/coin2.png","null","",NA,NA,NA,NA,""
"image-keyboard-response",245,149226,"0.0-3.78-0.78","blkoe7koujnjnhx","126.csv","","54.89999997615814","resources/trios/L1T1A1.jpg","37","restless",0.5,0.6,0.3,0.0839581500623277,"true"
"image-keyboard-response",246,149631,"0.0-3.78-1.78","blkoe7koujnjnhx","126.csv","","null","resources/maskTrios/L1BB.jpg","null","",NA,NA,NA,NA,""
"image-keyboard-response",247,150838,"0.0-3.78-2.78","blkoe7koujnjnhx","126.csv","","null","resources/images/coin2.png","null","",NA,NA,NA,NA,""
"image-keyboard-response",248,151153,"0.0-3.79-0.79","blkoe7koujnjnhx","126.csv","","312.60000002384186","resources/trios/L1T1A1.jpg","37","restless",0.5,0.6,0.3,0.00728755899360167,"true"
"image-keyboard-response",249,151559,"0.0-3.79-1.79","blkoe7koujnjnhx","126.csv","","null","resources/maskTrios/L1BB.jpg","null","",NA,NA,NA,NA,""
"image-keyboard-response",250,152764,"0.0-3.79-2.79","blkoe7koujnjnhx","126.csv","","null","resources/images/coin2.png","null","",NA,NA,NA,NA,""
"image-keyboard-response",251,152855,"0.0-3.80-0.80","blkoe7koujnjnhx","126.csv","","88.79999995231628","resources/trios/L2T4A2.jpg","37","restless",0.5,0.6,0.3,0.00513548319675095,"true"
"image-keyboard-response",252,153261,"0.0-3.80-1.80","blkoe7koujnjnhx","126.csv","","null","resources/maskTrios/L2BB.jpg","null","",NA,NA,NA,NA,""
"image-keyboard-response",253,154468,"0.0-3.80-2.80","blkoe7koujnjnhx","126.csv","","null","resources/images/coin2.png","null","",NA,NA,NA,NA,""
"image-keyboard-response",254,154477,"0.0-3.81-0.81","blkoe7koujnjnhx","126.csv","","6.899999976158142","resources/trios/L1T1A2.jpg","37","restless",0.5,0.6,0.3,0.488675384763458,"true"
"image-keyboard-response",255,154880,"0.0-3.81-1.81","blkoe7koujnjnhx","126.csv","","null","resources/maskTrios/L1BB.jpg","null","",NA,NA,NA,NA,""
"image-keyboard-response",256,156085,"0.0-3.81-2.81","blkoe7koujnjnhx","126.csv","","null","resources/images/coin2.png","null","",NA,NA,NA,NA,""
"image-keyboard-response",257,156272,"0.0-3.82-0.82","blkoe7koujnjnhx","126.csv","","184.89999997615814","resources/trios/L2T1A1.jpg","38","restless",0.5,0.6,0.3,0.877874547682703,"false"
"image-keyboard-response",258,156678,"0.0-3.82-1.82","blkoe7koujnjnhx","126.csv","","null","resources/maskTrios/BT1B.jpg","null","",NA,NA,NA,NA,""
"image-keyboard-response",259,157882,"0.0-3.82-2.82","blkoe7koujnjnhx","126.csv","","null","resources/images/fishbone.png","null","",NA,NA,NA,NA,""
"image-keyboard-response",260,157956,"0.0-3.83-0.83","blkoe7koujnjnhx","126.csv","","70.89999997615814","resources/trios/L2T1A1.jpg","38","restless",0.5,0.6,0.2,0.622864676691688,"false"
"image-keyboard-response",261,158362,"0.0-3.83-1.83","blkoe7koujnjnhx","126.csv","","null","resources/maskTrios/BT1B.jpg","null","",NA,NA,NA,NA,""
"image-keyboard-response",262,159568,"0.0-3.83-2.83","blkoe7koujnjnhx","126.csv","","null","resources/images/fishbone.png","null","",NA,NA,NA,NA,""
"image-keyboard-response",263,159590,"0.0-3.84-0.84","blkoe7koujnjnhx","126.csv","","20.399999976158142","resources/trios/L1T1A2.jpg","38","restless",0.5,0.6,0.2,0.726747651339787,"false"
"image-keyboard-response",264,159995,"0.0-3.84-1.84","blkoe7koujnjnhx","126.csv","","null","resources/maskTrios/BT1B.jpg","null","",NA,NA,NA,NA,""
"image-keyboard-response",265,161200,"0.0-3.84-2.84","blkoe7koujnjnhx","126.csv","","null","resources/images/fishbone.png","null","",NA,NA,NA,NA,""
"image-keyboard-response",266,161239,"0.0-3.85-0.85","blkoe7koujnjnhx","126.csv","","37.09999990463257","resources/trios/L1T4A2.jpg","38","restless",0.5,0.7,0.2,0.155765368955036,"true"
"image-keyboard-response",267,161642,"0.0-3.85-1.85","blkoe7koujnjnhx","126.csv","","null","resources/maskTrios/BT4B.jpg","null","",NA,NA,NA,NA,""
"image-keyboard-response",268,162848,"0.0-3.85-2.85","blkoe7koujnjnhx","126.csv","","null","resources/images/coin2.png","null","",NA,NA,NA,NA,""
"image-keyboard-response",269,162904,"0.0-3.86-0.86","blkoe7koujnjnhx","126.csv","","54.40000009536743","resources/trios/L1T1A2.jpg","38","restless",0.5,0.7,0.2,0.0450095482007853,"true"
"image-keyboard-response",270,163310,"0.0-3.86-1.86","blkoe7koujnjnhx","126.csv","","null","resources/maskTrios/BT1B.jpg","null","",NA,NA,NA,NA,""
"image-keyboard-response",271,164515,"0.0-3.86-2.86","blkoe7koujnjnhx","126.csv","","null","resources/images/coin2.png","null","",NA,NA,NA,NA,""
"image-keyboard-response",272,166584,"0.0-3.87-0.87","blkoe7koujnjnhx","126.csv","","2066.4000000953674","resources/trios/L1T4A2.jpg","37","restless",0.5,0.7,0.2,0.593874288836783,"false"
"image-keyboard-response",273,166990,"0.0-3.87-1.87","blkoe7koujnjnhx","126.csv","","null","resources/maskTrios/L1BB.jpg","null","",NA,NA,NA,NA,""
"image-keyboard-response",274,168196,"0.0-3.87-2.87","blkoe7koujnjnhx","126.csv","","null","resources/images/fishbone.png","null","",NA,NA,NA,NA,""
"image-keyboard-response",275,168501,"0.0-3.88-0.88","blkoe7koujnjnhx","126.csv","","301.7000000476837","resources/trios/L2T4A2.jpg","37","restless",0.5,0.7,0.2,0.589747614876621,"false"
"image-keyboard-response",276,168907,"0.0-3.88-1.88","blkoe7koujnjnhx","126.csv","","null","resources/maskTrios/L2BB.jpg","null","",NA,NA,NA,NA,""
"image-keyboard-response",277,170113,"0.0-3.88-2.88","blkoe7koujnjnhx","126.csv","","null","resources/images/fishbone.png","null","",NA,NA,NA,NA,""
"image-keyboard-response",278,170268,"0.0-3.89-0.89","blkoe7koujnjnhx","126.csv","","152.40000009536743","resources/trios/L1T4A2.jpg","37","restless",0.5,0.7,0.2,0.342173081513677,"true"
"image-keyboard-response",279,170675,"0.0-3.89-1.89","blkoe7koujnjnhx","126.csv","","null","resources/maskTrios/L1BB.jpg","null","",NA,NA,NA,NA,""
"image-keyboard-response",280,171882,"0.0-3.89-2.89","blkoe7koujnjnhx","126.csv","","null","resources/images/coin2.png","null","",NA,NA,NA,NA,""
"image-keyboard-response",281,172273,"0.0-3.90-0.90","blkoe7koujnjnhx","126.csv","","388.2999999523163","resources/trios/L1T1A1.jpg","37","restless",0.5,0.7,0.2,0.299483350365731,"true"
"image-keyboard-response",282,172677,"0.0-3.90-1.90","blkoe7koujnjnhx","126.csv","","null","resources/maskTrios/L1BB.jpg","null","",NA,NA,NA,NA,""
"image-keyboard-response",283,173883,"0.0-3.90-2.90","blkoe7koujnjnhx","126.csv","","null","resources/images/coin2.png","null","",NA,NA,NA,NA,""
"image-keyboard-response",284,174344,"0.0-3.91-0.91","blkoe7koujnjnhx","126.csv","","458.89999997615814","resources/trios/L2T1A2.jpg","37","restless",0.5,0.7,0.2,0.10883386043281,"true"
"image-keyboard-response",285,174749,"0.0-3.91-1.91","blkoe7koujnjnhx","126.csv","","null","resources/maskTrios/L2BB.jpg","null","",NA,NA,NA,NA,""
"image-keyboard-response",286,175955,"0.0-3.91-2.91","blkoe7koujnjnhx","126.csv","","null","resources/images/coin2.png","null","",NA,NA,NA,NA,""
"image-keyboard-response",287,176064,"0.0-3.92-0.92","blkoe7koujnjnhx","126.csv","","106.70000004768372","resources/trios/L2T1A1.jpg","37","restless",0.5,0.7,0.2,0.164874296392855,"true"
"image-keyboard-response",288,176472,"0.0-3.92-1.92","blkoe7koujnjnhx","126.csv","","null","resources/maskTrios/L2BB.jpg","null","",NA,NA,NA,NA,""
"image-keyboard-response",289,177677,"0.0-3.92-2.92","blkoe7koujnjnhx","126.csv","","null","resources/images/coin2.png","null","",NA,NA,NA,NA,""
"image-keyboard-response",290,178162,"0.0-3.93-0.93","blkoe7koujnjnhx","126.csv","","482.60000002384186","resources/trios/L1T4A2.jpg","37","restless",0.5,0.7,0.2,0.3249695751582,"true"
"image-keyboard-response",291,178569,"0.0-3.93-1.93","blkoe7koujnjnhx","126.csv","","null","resources/maskTrios/L1BB.jpg","null","",NA,NA,NA,NA,""
"image-keyboard-response",292,179776,"0.0-3.93-2.93","blkoe7koujnjnhx","126.csv","","null","resources/images/coin2.png","null","",NA,NA,NA,NA,""
"image-keyboard-response",293,180521,"0.0-3.94-0.94","blkoe7koujnjnhx","126.csv","","742.6000000238419","resources/trios/L2T1A2.jpg","37","restless",0.4,0.7,0.3,0.59634353131266,"false"
"image-keyboard-response",294,180928,"0.0-3.94-1.94","blkoe7koujnjnhx","126.csv","","null","resources/maskTrios/L2BB.jpg","null","",NA,NA,NA,NA,""
"image-keyboard-response",295,182134,"0.0-3.94-2.94","blkoe7koujnjnhx","126.csv","","null","resources/images/fishbone.png","null","",NA,NA,NA,NA,""
"image-keyboard-response",296,183309,"0.0-3.95-0.95","blkoe7koujnjnhx","126.csv","","1173.1000000238419","resources/trios/L1T4A2.jpg","37","restless",0.4,0.7,0.3,0.775517025675448,"false"
"image-keyboard-response",297,183714,"0.0-3.95-1.95","blkoe7koujnjnhx","126.csv","","null","resources/maskTrios/L1BB.jpg","null","",NA,NA,NA,NA,""
"image-keyboard-response",298,184918,"0.0-3.95-2.95","blkoe7koujnjnhx","126.csv","","null","resources/images/fishbone.png","null","",NA,NA,NA,NA,""
"image-keyboard-response",299,185077,"0.0-3.96-0.96","blkoe7koujnjnhx","126.csv","","157.10000002384186","resources/trios/L1T4A2.jpg","37","restless",0.4,0.7,0.3,0.940946240281629,"false"
"image-keyboard-response",300,185483,"0.0-3.96-1.96","blkoe7koujnjnhx","126.csv","","null","resources/maskTrios/L1BB.jpg","null","",NA,NA,NA,NA,""
"image-keyboard-response",301,186686,"0.0-3.96-2.96","blkoe7koujnjnhx","126.csv","","null","resources/images/fishbone.png","null","",NA,NA,NA,NA,""
"image-keyboard-response",302,186720,"0.0-3.97-0.97","blkoe7koujnjnhx","126.csv","","31.600000023841858","resources/trios/L2T4A1.jpg","37","restless",0.4,0.6,0.3,0.680996407651711,"false"
"image-keyboard-response",303,187126,"0.0-3.97-1.97","blkoe7koujnjnhx","126.csv","","null","resources/maskTrios/L2BB.jpg","null","",NA,NA,NA,NA,""
"image-keyboard-response",304,188331,"0.0-3.97-2.97","blkoe7koujnjnhx","126.csv","","null","resources/images/fishbone.png","null","",NA,NA,NA,NA,""
"image-keyboard-response",305,188411,"0.0-3.98-0.98","blkoe7koujnjnhx","126.csv","","77.79999995231628","resources/trios/L2T1A1.jpg","37","restless",0.4,0.6,0.3,0.772759500384144,"false"
"image-keyboard-response",306,188817,"0.0-3.98-1.98","blkoe7koujnjnhx","126.csv","","null","resources/maskTrios/L2BB.jpg","null","",NA,NA,NA,NA,""
"image-keyboard-response",307,190021,"0.0-3.98-2.98","blkoe7koujnjnhx","126.csv","","null","resources/images/fishbone.png","null","",NA,NA,NA,NA,""
"image-keyboard-response",308,190205,"0.0-3.99-0.99","blkoe7koujnjnhx","126.csv","","181.89999997615814","resources/trios/L1T1A1.jpg","37","restless",0.4,0.6,0.3,0.401957125775042,"false"
"image-keyboard-response",309,190610,"0.0-3.99-1.99","blkoe7koujnjnhx","126.csv","","null","resources/maskTrios/L1BB.jpg","null","",NA,NA,NA,NA,""
"image-keyboard-response",310,191814,"0.0-3.99-2.99","blkoe7koujnjnhx","126.csv","","null","resources/images/fishbone.png","null","",NA,NA,NA,NA,""
"image-keyboard-response",311,191861,"0.0-3.100-0.100","blkoe7koujnjnhx","126.csv","","45.39999997615814","resources/trios/L2T1A1.jpg","37","restless",0.4,0.6,0.3,0.104738059324084,"true"
"image-keyboard-response",312,192264,"0.0-3.100-1.100","blkoe7koujnjnhx","126.csv","","null","resources/maskTrios/L2BB.jpg","null","",NA,NA,NA,NA,""
"image-keyboard-response",313,193470,"0.0-3.100-2.100","blkoe7koujnjnhx","126.csv","","null","resources/images/coin2.png","null","",NA,NA,NA,NA,""
"image-keyboard-response",314,193901,"0.0-3.101-0.101","blkoe7koujnjnhx","126.csv","","429.1999999284744","resources/trios/L2T4A1.jpg","37","restless",0.4,0.6,0.3,0.968248997953836,"false"
"image-keyboard-response",315,194305,"0.0-3.101-1.101","blkoe7koujnjnhx","126.csv","","null","resources/maskTrios/L2BB.jpg","null","",NA,NA,NA,NA,""
"image-keyboard-response",316,195510,"0.0-3.101-2.101","blkoe7koujnjnhx","126.csv","","null","resources/images/fishbone.png","null","",NA,NA,NA,NA,""
"image-keyboard-response",317,195542,"0.0-3.102-0.102","blkoe7koujnjnhx","126.csv","","29.90000009536743","resources/trios/L1T4A1.jpg","37","restless",0.4,0.6,0.3,0.11911402567918,"true"
"image-keyboard-response",318,195947,"0.0-3.102-1.102","blkoe7koujnjnhx","126.csv","","null","resources/maskTrios/L1BB.jpg","null","",NA,NA,NA,NA,""
"image-keyboard-response",319,197153,"0.0-3.102-2.102","blkoe7koujnjnhx","126.csv","","null","resources/images/coin2.png","null","",NA,NA,NA,NA,""
"image-keyboard-response",320,197667,"0.0-3.103-0.103","blkoe7koujnjnhx","126.csv","","511.89999997615814","resources/trios/L1T1A2.jpg","37","restless",0.4,0.6,0.3,0.854074300980407,"false"
"image-keyboard-response",321,198074,"0.0-3.103-1.103","blkoe7koujnjnhx","126.csv","","null","resources/maskTrios/L1BB.jpg","null","",NA,NA,NA,NA,""
"image-keyboard-response",322,199282,"0.0-3.103-2.103","blkoe7koujnjnhx","126.csv","","null","resources/images/fishbone.png","null","",NA,NA,NA,NA,""
"image-keyboard-response",323,199430,"0.0-3.104-0.104","blkoe7koujnjnhx","126.csv","","145.09999990463257","resources/trios/L2T1A1.jpg","37","restless",0.4,0.6,0.3,0.997049779737685,"false"
"image-keyboard-response",324,199835,"0.0-3.104-1.104","blkoe7koujnjnhx","126.csv","","null","resources/maskTrios/L2BB.jpg","null","",NA,NA,NA,NA,""
"image-keyboard-response",325,201041,"0.0-3.104-2.104","blkoe7koujnjnhx","126.csv","","null","resources/images/fishbone.png","null","",NA,NA,NA,NA,""
"image-keyboard-response",326,201636,"0.0-3.105-0.105","blkoe7koujnjnhx","126.csv","","592.5","resources/trios/L1T1A1.jpg","37","restless",0.4,0.6,0.2,0.439572927655973,"false"
"image-keyboard-response",327,202041,"0.0-3.105-1.105","blkoe7koujnjnhx","126.csv","","null","resources/maskTrios/L1BB.jpg","null","",NA,NA,NA,NA,""
"image-keyboard-response",328,203247,"0.0-3.105-2.105","blkoe7koujnjnhx","126.csv","","null","resources/images/fishbone.png","null","",NA,NA,NA,NA,""
"image-keyboard-response",329,203515,"0.0-3.106-0.106","blkoe7koujnjnhx","126.csv","","265.3000000715256","resources/trios/L1T4A2.jpg","38","restless",0.3,0.6,0.2,0.690386512521692,"false"
"image-keyboard-response",330,203922,"0.0-3.106-1.106","blkoe7koujnjnhx","126.csv","","null","resources/maskTrios/BT4B.jpg","null","",NA,NA,NA,NA,""
"image-keyboard-response",331,205126,"0.0-3.106-2.106","blkoe7koujnjnhx","126.csv","","null","resources/images/fishbone.png","null","",NA,NA,NA,NA,""
"image-keyboard-response",332,205202,"0.0-3.107-0.107","blkoe7koujnjnhx","126.csv","","72.89999997615814","resources/trios/L2T4A2.jpg","39","restless",0.3,0.6,0.2,0.755740164577846,"false"
"image-keyboard-response",333,205607,"0.0-3.107-1.107","blkoe7koujnjnhx","126.csv","","null","resources/maskTrios/BBA2.jpg","null","",NA,NA,NA,NA,""
"image-keyboard-response",334,206813,"0.0-3.107-2.107","blkoe7koujnjnhx","126.csv","","null","resources/images/fishbone.png","null","",NA,NA,NA,NA,""
"image-keyboard-response",335,206938,"0.0-3.108-0.108","blkoe7koujnjnhx","126.csv","","122","resources/trios/L1T1A2.jpg","37","restless",0.3,0.6,0.2,0.448045838839842,"false"
"image-keyboard-response",336,207342,"0.0-3.108-1.108","blkoe7koujnjnhx","126.csv","","null","resources/maskTrios/L1BB.jpg","null","",NA,NA,NA,NA,""
"image-keyboard-response",337,208545,"0.0-3.108-2.108","blkoe7koujnjnhx","126.csv","","null","resources/images/fishbone.png","null","",NA,NA,NA,NA,""
"image-keyboard-response",338,208654,"0.0-3.109-0.109","blkoe7koujnjnhx","126.csv","","105.39999997615814","resources/trios/L1T1A1.jpg","38","restless",0.2,0.6,0.2,0.2805080855215,"true"
"image-keyboard-response",339,209058,"0.0-3.109-1.109","blkoe7koujnjnhx","126.csv","","null","resources/maskTrios/BT1B.jpg","null","",NA,NA,NA,NA,""
"image-keyboard-response",340,210262,"0.0-3.109-2.109","blkoe7koujnjnhx","126.csv","","null","resources/images/coin2.png","null","",NA,NA,NA,NA,""
"image-keyboard-response",341,210324,"0.0-3.110-0.110","blkoe7koujnjnhx","126.csv","","59.60000002384186","resources/trios/L2T1A2.jpg","38","restless",0.2,0.6,0.1,0.878672176128752,"false"
"image-keyboard-response",342,210726,"0.0-3.110-1.110","blkoe7koujnjnhx","126.csv","","null","resources/maskTrios/BT1B.jpg","null","",NA,NA,NA,NA,""
"image-keyboard-response",343,211932,"0.0-3.110-2.110","blkoe7koujnjnhx","126.csv","","null","resources/images/fishbone.png","null","",NA,NA,NA,NA,""
"image-keyboard-response",344,212020,"0.0-3.111-0.111","blkoe7koujnjnhx","126.csv","","85.79999995231628","resources/trios/L2T1A1.jpg","37","restless",0.2,0.6,0.1,0.256057544414247,"false"
"image-keyboard-response",345,212423,"0.0-3.111-1.111","blkoe7koujnjnhx","126.csv","","null","resources/maskTrios/L2BB.jpg","null","",NA,NA,NA,NA,""
"image-keyboard-response",346,213628,"0.0-3.111-2.111","blkoe7koujnjnhx","126.csv","","null","resources/images/fishbone.png","null","",NA,NA,NA,NA,""
"image-keyboard-response",347,214467,"0.0-3.112-0.112","blkoe7koujnjnhx","126.csv","","837","resources/trios/L1T1A1.jpg","37","restless",0.1,0.6,0.1,0.825878011902302,"false"
"image-keyboard-response",348,214874,"0.0-3.112-1.112","blkoe7koujnjnhx","126.csv","","null","resources/maskTrios/L1BB.jpg","null","",NA,NA,NA,NA,""
"image-keyboard-response",349,216081,"0.0-3.112-2.112","blkoe7koujnjnhx","126.csv","","null","resources/images/fishbone.png","null","",NA,NA,NA,NA,""
"image-keyboard-response",350,216378,"0.0-3.113-0.113","blkoe7koujnjnhx","126.csv","","294.5","resources/trios/L2T1A1.jpg","38","restless",0.1,0.6,0.1,0.740654409451779,"false"
"image-keyboard-response",351,216785,"0.0-3.113-1.113","blkoe7koujnjnhx","126.csv","","null","resources/maskTrios/BT1B.jpg","null","",NA,NA,NA,NA,""
"image-keyboard-response",352,217990,"0.0-3.113-2.113","blkoe7koujnjnhx","126.csv","","null","resources/images/fishbone.png","null","",NA,NA,NA,NA,""
"image-keyboard-response",353,218000,"0.0-3.114-0.114","blkoe7koujnjnhx","126.csv","","7.299999952316284","resources/trios/L1T1A2.jpg","38","restless",0.1,0.6,0.1,0.77097608955078,"false"
"image-keyboard-response",354,218403,"0.0-3.114-1.114","blkoe7koujnjnhx","126.csv","","null","resources/maskTrios/BT1B.jpg","null","",NA,NA,NA,NA,""
"image-keyboard-response",355,219607,"0.0-3.114-2.114","blkoe7koujnjnhx","126.csv","","null","resources/images/fishbone.png","null","",NA,NA,NA,NA,""
"image-keyboard-response",356,219612,"0.0-3.115-0.115","blkoe7koujnjnhx","126.csv","","3.600000023841858","resources/trios/L2T4A1.jpg","38","restless",0.2,0.6,0.2,0.941267197327392,"false"
"image-keyboard-response",357,220017,"0.0-3.115-1.115","blkoe7koujnjnhx","126.csv","","null","resources/maskTrios/BT4B.jpg","null","",NA,NA,NA,NA,""
"image-keyboard-response",358,221223,"0.0-3.115-2.115","blkoe7koujnjnhx","126.csv","","null","resources/images/fishbone.png","null","",NA,NA,NA,NA,""
"image-keyboard-response",359,222172,"0.0-3.116-0.116","blkoe7koujnjnhx","126.csv","","946.5","resources/trios/L2T4A1.jpg","39","restless",0.2,0.6,0.2,0.911502948404184,"false"
"image-keyboard-response",360,222579,"0.0-3.116-1.116","blkoe7koujnjnhx","126.csv","","null","resources/maskTrios/BBA1.jpg","null","",NA,NA,NA,NA,""
"image-keyboard-response",361,223786,"0.0-3.116-2.116","blkoe7koujnjnhx","126.csv","","null","resources/images/fishbone.png","null","",NA,NA,NA,NA,""
"image-keyboard-response",362,223983,"0.0-3.117-0.117","blkoe7koujnjnhx","126.csv","","194.80000007152557","resources/trios/L2T1A1.jpg","37","restless",0.2,0.6,0.2,0.748461214763718,"false"
"image-keyboard-response",363,224390,"0.0-3.117-1.117","blkoe7koujnjnhx","126.csv","","null","resources/maskTrios/L2BB.jpg","null","",NA,NA,NA,NA,""
"image-keyboard-response",364,225596,"0.0-3.117-2.117","blkoe7koujnjnhx","126.csv","","null","resources/images/fishbone.png","null","",NA,NA,NA,NA,""
"image-keyboard-response",365,225729,"0.0-3.118-0.118","blkoe7koujnjnhx","126.csv","","129.29999995231628","resources/trios/L2T1A1.jpg","39","restless",0.3,0.6,0.2,0.722067950315985,"false"
"image-keyboard-response",366,226135,"0.0-3.118-1.118","blkoe7koujnjnhx","126.csv","","null","resources/maskTrios/BBA1.jpg","null","",NA,NA,NA,NA,""
"image-keyboard-response",367,227340,"0.0-3.118-2.118","blkoe7koujnjnhx","126.csv","","null","resources/images/fishbone.png","null","",NA,NA,NA,NA,""
"image-keyboard-response",368,227365,"0.0-3.119-0.119","blkoe7koujnjnhx","126.csv","","21.899999976158142","resources/trios/L2T4A1.jpg","38","restless",0.3,0.6,0.3,0.909025667728167,"false"
"image-keyboard-response",369,227767,"0.0-3.119-1.119","blkoe7koujnjnhx","126.csv","","null","resources/maskTrios/BT4B.jpg","null","",NA,NA,NA,NA,""
"image-keyboard-response",370,228973,"0.0-3.119-2.119","blkoe7koujnjnhx","126.csv","","null","resources/images/fishbone.png","null","",NA,NA,NA,NA,""
"image-keyboard-response",371,229687,"0.0-3.120-0.120","blkoe7koujnjnhx","126.csv","","710.7999999523163","resources/trios/L1T1A2.jpg","37","restless",0.3,0.6,0.3,0.905291476328213,"false"
"image-keyboard-response",372,230093,"0.0-3.120-1.120","blkoe7koujnjnhx","126.csv","","null","resources/maskTrios/L1BB.jpg","null","",NA,NA,NA,NA,""
"image-keyboard-response",373,231298,"0.0-3.120-2.120","blkoe7koujnjnhx","126.csv","","null","resources/images/fishbone.png","null","",NA,NA,NA,NA,""
"image-keyboard-response",374,231406,"0.0-3.121-0.121","blkoe7koujnjnhx","126.csv","","104.80000007152557","resources/trios/L2T4A1.jpg","38","restless",0.3,0.6,0.3,0.673450461421606,"false"
"image-keyboard-response",375,231811,"0.0-3.121-1.121","blkoe7koujnjnhx","126.csv","","null","resources/maskTrios/BT4B.jpg","null","",NA,NA,NA,NA,""
"image-keyboard-response",376,233016,"0.0-3.121-2.121","blkoe7koujnjnhx","126.csv","","null","resources/images/fishbone.png","null","",NA,NA,NA,NA,""
"image-keyboard-response",377,233091,"0.0-3.122-0.122","blkoe7koujnjnhx","126.csv","","72.09999990463257","resources/trios/L2T1A2.jpg","37","restless",0.3,0.6,0.3,0.709603997604785,"false"
"image-keyboard-response",378,233499,"0.0-3.122-1.122","blkoe7koujnjnhx","126.csv","","null","resources/maskTrios/L2BB.jpg","null","",NA,NA,NA,NA,""
"image-keyboard-response",379,234705,"0.0-3.122-2.122","blkoe7koujnjnhx","126.csv","","null","resources/images/fishbone.png","null","",NA,NA,NA,NA,""
"image-keyboard-response",380,235119,"0.0-3.123-0.123","blkoe7koujnjnhx","126.csv","","411","resources/trios/L1T1A2.jpg","37","restless",0.4,0.6,0.4,0.610630081368529,"false"
"image-keyboard-response",381,235523,"0.0-3.123-1.123","blkoe7koujnjnhx","126.csv","","null","resources/maskTrios/L1BB.jpg","null","",NA,NA,NA,NA,""
"image-keyboard-response",382,236727,"0.0-3.123-2.123","blkoe7koujnjnhx","126.csv","","null","resources/images/fishbone.png","null","",NA,NA,NA,NA,""
"image-keyboard-response",383,240598,"0.0-3.124-0.124","blkoe7koujnjnhx","126.csv","","3870.899999976158","resources/trios/L1T4A1.jpg","37","restless",0.4,0.5,0.4,0.4675036473668,"false"
"image-keyboard-response",384,241005,"0.0-3.124-1.124","blkoe7koujnjnhx","126.csv","","null","resources/maskTrios/L1BB.jpg","null","",NA,NA,NA,NA,""
"image-keyboard-response",385,242211,"0.0-3.124-2.124","blkoe7koujnjnhx","126.csv","","null","resources/images/fishbone.png","null","",NA,NA,NA,NA,""
"image-keyboard-response",386,242816,"0.0-3.125-0.125","blkoe7koujnjnhx","126.csv","","601.7999999523163","resources/trios/L2T4A2.jpg","38","restless",0.4,0.5,0.5,0.635378875878409,"false"
"image-keyboard-response",387,243218,"0.0-3.125-1.125","blkoe7koujnjnhx","126.csv","","null","resources/maskTrios/BT4B.jpg","null","",NA,NA,NA,NA,""
"image-keyboard-response",388,244424,"0.0-3.125-2.125","blkoe7koujnjnhx","126.csv","","null","resources/images/fishbone.png","null","",NA,NA,NA,NA,""
"image-keyboard-response",389,244594,"0.0-3.126-0.126","blkoe7koujnjnhx","126.csv","","167","resources/trios/L1T1A2.jpg","39","restless",0.4,0.5,0.5,0.358082496332486,"true"
"image-keyboard-response",390,244999,"0.0-3.126-1.126","blkoe7koujnjnhx","126.csv","","null","resources/maskTrios/BBA2.jpg","null","",NA,NA,NA,NA,""
"image-keyboard-response",391,246205,"0.0-3.126-2.126","blkoe7koujnjnhx","126.csv","","null","resources/images/coin2.png","null","",NA,NA,NA,NA,""
"image-keyboard-response",392,246284,"0.0-3.127-0.127","blkoe7koujnjnhx","126.csv","","76.20000004768372","resources/trios/L1T1A1.jpg","39","restless",0.4,0.6,0.5,0.659280492339366,"false"
"image-keyboard-response",393,246690,"0.0-3.127-1.127","blkoe7koujnjnhx","126.csv","","null","resources/maskTrios/BBA1.jpg","null","",NA,NA,NA,NA,""
"image-keyboard-response",394,247896,"0.0-3.127-2.127","blkoe7koujnjnhx","126.csv","","null","resources/images/fishbone.png","null","",NA,NA,NA,NA,""
"image-keyboard-response",395,247944,"0.0-3.128-0.128","blkoe7koujnjnhx","126.csv","","45.299999952316284","resources/trios/L1T1A1.jpg","39","restless",0.4,0.6,0.5,0.226020452931934,"true"
"image-keyboard-response",396,248349,"0.0-3.128-1.128","blkoe7koujnjnhx","126.csv","","null","resources/maskTrios/BBA1.jpg","null","",NA,NA,NA,NA,""
"image-keyboard-response",397,249556,"0.0-3.128-2.128","blkoe7koujnjnhx","126.csv","","null","resources/images/coin2.png","null","",NA,NA,NA,NA,""
"image-keyboard-response",398,249679,"0.0-3.129-0.129","blkoe7koujnjnhx","126.csv","","121","resources/trios/L1T4A1.jpg","39","restless",0.4,0.6,0.4,0.47299712141339,"false"
"image-keyboard-response",399,250083,"0.0-3.129-1.129","blkoe7koujnjnhx","126.csv","","null","resources/maskTrios/BBA1.jpg","null","",NA,NA,NA,NA,""
"image-keyboard-response",400,251287,"0.0-3.129-2.129","blkoe7koujnjnhx","126.csv","","null","resources/images/fishbone.png","null","",NA,NA,NA,NA,""
"image-keyboard-response",401,251746,"0.0-3.130-0.130","blkoe7koujnjnhx","126.csv","","455.7000000476837","resources/trios/L1T1A1.jpg","39","restless",0.4,0.5,0.4,0.915856710327793,"false"
"image-keyboard-response",402,252153,"0.0-3.130-1.130","blkoe7koujnjnhx","126.csv","","null","resources/maskTrios/BBA1.jpg","null","",NA,NA,NA,NA,""
"image-keyboard-response",403,253357,"0.0-3.130-2.130","blkoe7koujnjnhx","126.csv","","null","resources/images/fishbone.png","null","",NA,NA,NA,NA,""
"image-keyboard-response",404,253362,"0.0-3.131-0.131","blkoe7koujnjnhx","126.csv","","2.9000000953674316","resources/trios/L2T1A2.jpg","39","restless",0.4,0.5,0.3,0.149587757748049,"true"
"image-keyboard-response",405,253767,"0.0-3.131-1.131","blkoe7koujnjnhx","126.csv","","null","resources/maskTrios/BBA2.jpg","null","",NA,NA,NA,NA,""
"image-keyboard-response",406,254973,"0.0-3.131-2.131","blkoe7koujnjnhx","126.csv","","null","resources/images/coin2.png","null","",NA,NA,NA,NA,""
"image-keyboard-response",407,255013,"0.0-3.132-0.132","blkoe7koujnjnhx","126.csv","","37.799999952316284","resources/trios/L2T4A2.jpg","39","restless",0.4,0.5,0.4,0.358490935303025,"true"
"image-keyboard-response",408,255419,"0.0-3.132-1.132","blkoe7koujnjnhx","126.csv","","null","resources/maskTrios/BBA2.jpg","null","",NA,NA,NA,NA,""
"image-keyboard-response",409,256626,"0.0-3.132-2.132","blkoe7koujnjnhx","126.csv","","null","resources/images/coin2.png","null","",NA,NA,NA,NA,""
"image-keyboard-response",410,256694,"0.0-3.133-0.133","blkoe7koujnjnhx","126.csv","","65.19999992847443","resources/trios/L1T4A1.jpg","39","restless",0.4,0.5,0.4,0.0548481308611881,"true"
"image-keyboard-response",411,257101,"0.0-3.133-1.133","blkoe7koujnjnhx","126.csv","","null","resources/maskTrios/BBA1.jpg","null","",NA,NA,NA,NA,""
"image-keyboard-response",412,258306,"0.0-3.133-2.133","blkoe7koujnjnhx","126.csv","","null","resources/images/coin2.png","null","",NA,NA,NA,NA,""
"image-keyboard-response",413,258484,"0.0-3.134-0.134","blkoe7koujnjnhx","126.csv","","174.89999997615814","resources/trios/L2T4A2.jpg","39","restless",0.4,0.5,0.4,0.17805668557064,"true"
"image-keyboard-response",414,258890,"0.0-3.134-1.134","blkoe7koujnjnhx","126.csv","","null","resources/maskTrios/BBA2.jpg","null","",NA,NA,NA,NA,""
"image-keyboard-response",415,260096,"0.0-3.134-2.134","blkoe7koujnjnhx","126.csv","","null","resources/images/coin2.png","null","",NA,NA,NA,NA,""
"image-keyboard-response",416,260181,"0.0-3.135-0.135","blkoe7koujnjnhx","126.csv","","82.40000009536743","resources/trios/L1T4A1.jpg","39","restless",0.4,0.5,0.5,0.402108955951577,"true"
"image-keyboard-response",417,260586,"0.0-3.135-1.135","blkoe7koujnjnhx","126.csv","","null","resources/maskTrios/BBA1.jpg","null","",NA,NA,NA,NA,""
"image-keyboard-response",418,261789,"0.0-3.135-2.135","blkoe7koujnjnhx","126.csv","","null","resources/images/coin2.png","null","",NA,NA,NA,NA,""
"image-keyboard-response",419,262109,"0.0-3.136-0.136","blkoe7koujnjnhx","126.csv","","317.59999990463257","resources/trios/L1T4A1.jpg","39","restless",0.4,0.5,0.5,0.807560150471067,"false"
"image-keyboard-response",420,262514,"0.0-3.136-1.136","blkoe7koujnjnhx","126.csv","","null","resources/maskTrios/BBA1.jpg","null","",NA,NA,NA,NA,""
"image-keyboard-response",421,263719,"0.0-3.136-2.136","blkoe7koujnjnhx","126.csv","","null","resources/images/fishbone.png","null","",NA,NA,NA,NA,""
"image-keyboard-response",422,264003,"0.0-3.137-0.137","blkoe7koujnjnhx","126.csv","","281.5","resources/trios/L2T1A2.jpg","39","restless",0.4,0.5,0.5,0.725978932907291,"false"
"image-keyboard-response",423,264411,"0.0-3.137-1.137","blkoe7koujnjnhx","126.csv","","null","resources/maskTrios/BBA2.jpg","null","",NA,NA,NA,NA,""
"image-keyboard-response",424,265616,"0.0-3.137-2.137","blkoe7koujnjnhx","126.csv","","null","resources/images/fishbone.png","null","",NA,NA,NA,NA,""
"image-keyboard-response",425,265730,"0.0-3.138-0.138","blkoe7koujnjnhx","126.csv","","111.29999995231628","resources/trios/L1T1A1.jpg","39","restless",0.5,0.5,0.6,0.29113717036655,"true"
"image-keyboard-response",426,266138,"0.0-3.138-1.138","blkoe7koujnjnhx","126.csv","","null","resources/maskTrios/BBA1.jpg","null","",NA,NA,NA,NA,""
"image-keyboard-response",427,267343,"0.0-3.138-2.138","blkoe7koujnjnhx","126.csv","","null","resources/images/coin2.png","null","",NA,NA,NA,NA,""
"image-keyboard-response",428,267793,"0.0-3.139-0.139","blkoe7koujnjnhx","126.csv","","447.60000002384186","resources/trios/L1T1A2.jpg","39","restless",0.5,0.4,0.7,0.0213782799454381,"true"
"image-keyboard-response",429,268200,"0.0-3.139-1.139","blkoe7koujnjnhx","126.csv","","null","resources/maskTrios/BBA2.jpg","null","",NA,NA,NA,NA,""
"image-keyboard-response",430,269407,"0.0-3.139-2.139","blkoe7koujnjnhx","126.csv","","null","resources/images/coin2.png","null","",NA,NA,NA,NA,""
"image-keyboard-response",431,269445,"0.0-3.140-0.140","blkoe7koujnjnhx","126.csv","","35.89999997615814","resources/trios/L1T4A2.jpg","39","restless",0.5,0.4,0.7,0.233394522506795,"true"
"image-keyboard-response",432,269851,"0.0-3.140-1.140","blkoe7koujnjnhx","126.csv","","null","resources/maskTrios/BBA2.jpg","null","",NA,NA,NA,NA,""
"image-keyboard-response",433,271057,"0.0-3.140-2.140","blkoe7koujnjnhx","126.csv","","null","resources/images/coin2.png","null","",NA,NA,NA,NA,""
"image-keyboard-response",434,271060,"0.0-3.141-0.141","blkoe7koujnjnhx","126.csv","","0.10000002384185791","resources/trios/L1T1A1.jpg","39","restless",0.5,0.4,0.7,0.619650698251284,"true"
"image-keyboard-response",435,271466,"0.0-3.141-1.141","blkoe7koujnjnhx","126.csv","","null","resources/maskTrios/BBA1.jpg","null","",NA,NA,NA,NA,""
"image-keyboard-response",436,272673,"0.0-3.141-2.141","blkoe7koujnjnhx","126.csv","","null","resources/images/coin2.png","null","",NA,NA,NA,NA,""
"image-keyboard-response",437,272847,"0.0-3.142-0.142","blkoe7koujnjnhx","126.csv","","169.69999992847443","resources/trios/L1T1A2.jpg","39","restless",0.5,0.4,0.7,0.926760809186899,"false"
"image-keyboard-response",438,273253,"0.0-3.142-1.142","blkoe7koujnjnhx","126.csv","","null","resources/maskTrios/BBA2.jpg","null","",NA,NA,NA,NA,""
"image-keyboard-response",439,274457,"0.0-3.142-2.142","blkoe7koujnjnhx","126.csv","","null","resources/images/fishbone.png","null","",NA,NA,NA,NA,""
"image-keyboard-response",440,275896,"0.0-3.143-0.143","blkoe7koujnjnhx","126.csv","","1435.8000000715256","resources/trios/L1T1A1.jpg","39","restless",0.5,0.4,0.7,0.123995253381584,"true"
"image-keyboard-response",441,276301,"0.0-3.143-1.143","blkoe7koujnjnhx","126.csv","","null","resources/maskTrios/BBA1.jpg","null","",NA,NA,NA,NA,""
"image-keyboard-response",442,277507,"0.0-3.143-2.143","blkoe7koujnjnhx","126.csv","","null","resources/images/coin2.png","null","",NA,NA,NA,NA,""
"image-keyboard-response",443,277529,"0.0-3.144-0.144","blkoe7koujnjnhx","126.csv","","19.200000047683716","resources/trios/L2T4A2.jpg","39","restless",0.5,0.5,0.7,0.861700332936714,"false"
"image-keyboard-response",444,277935,"0.0-3.144-1.144","blkoe7koujnjnhx","126.csv","","null","resources/maskTrios/BBA2.jpg","null","",NA,NA,NA,NA,""
"image-keyboard-response",445,279142,"0.0-3.144-2.144","blkoe7koujnjnhx","126.csv","","null","resources/images/fishbone.png","null","",NA,NA,NA,NA,""
"image-keyboard-response",446,279388,"0.0-3.145-0.145","blkoe7koujnjnhx","126.csv","","243.80000007152557","resources/trios/L1T1A1.jpg","39","restless",0.5,0.5,0.7,0.886529365047283,"false"
"image-keyboard-response",447,279792,"0.0-3.145-1.145","blkoe7koujnjnhx","126.csv","","null","resources/maskTrios/BBA1.jpg","null","",NA,NA,NA,NA,""
"image-keyboard-response",448,280994,"0.0-3.145-2.145","blkoe7koujnjnhx","126.csv","","null","resources/images/fishbone.png","null","",NA,NA,NA,NA,""
"image-keyboard-response",449,281098,"0.0-3.146-0.146","blkoe7koujnjnhx","126.csv","","102.30000007152557","resources/trios/L1T4A1.jpg","39","restless",0.5,0.4,0.7,0.443614565551091,"true"
"image-keyboard-response",450,281506,"0.0-3.146-1.146","blkoe7koujnjnhx","126.csv","","null","resources/maskTrios/BBA1.jpg","null","",NA,NA,NA,NA,""
"image-keyboard-response",451,282712,"0.0-3.146-2.146","blkoe7koujnjnhx","126.csv","","null","resources/images/coin2.png","null","",NA,NA,NA,NA,""
"image-keyboard-response",452,282747,"0.0-3.147-0.147","blkoe7koujnjnhx","126.csv","","32.799999952316284","resources/trios/L1T1A1.jpg","39","restless",0.5,0.4,0.8,0.537359071020133,"true"
"image-keyboard-response",453,283154,"0.0-3.147-1.147","blkoe7koujnjnhx","126.csv","","null","resources/maskTrios/BBA1.jpg","null","",NA,NA,NA,NA,""
"image-keyboard-response",454,284360,"0.0-3.147-2.147","blkoe7koujnjnhx","126.csv","","null","resources/images/coin2.png","null","",NA,NA,NA,NA,""
"image-keyboard-response",455,284487,"0.0-3.148-0.148","blkoe7koujnjnhx","126.csv","","124.5","resources/trios/L1T4A2.jpg","39","restless",0.5,0.4,0.8,0.655747600011705,"true"
"image-keyboard-response",456,284893,"0.0-3.148-1.148","blkoe7koujnjnhx","126.csv","","null","resources/maskTrios/BBA2.jpg","null","",NA,NA,NA,NA,""
"image-keyboard-response",457,286101,"0.0-3.148-2.148","blkoe7koujnjnhx","126.csv","","null","resources/images/coin2.png","null","",NA,NA,NA,NA,""
"image-keyboard-response",458,286494,"0.0-3.149-0.149","blkoe7koujnjnhx","126.csv","","390.3000000715256","resources/trios/L1T4A2.jpg","39","restless",0.5,0.4,0.8,0.965534958717557,"false"
"image-keyboard-response",459,286900,"0.0-3.149-1.149","blkoe7koujnjnhx","126.csv","","null","resources/maskTrios/BBA2.jpg","null","",NA,NA,NA,NA,""
"image-keyboard-response",460,288107,"0.0-3.149-2.149","blkoe7koujnjnhx","126.csv","","null","resources/images/fishbone.png","null","",NA,NA,NA,NA,""
"image-keyboard-response",461,288364,"0.0-3.150-0.150","blkoe7koujnjnhx","126.csv","","254.20000004768372","resources/trios/L2T4A2.jpg","39","restless",0.5,0.4,0.8,0.746677979727121,"true"
"image-keyboard-response",462,288771,"0.0-3.150-1.150","blkoe7koujnjnhx","126.csv","","null","resources/maskTrios/BBA2.jpg","null","",NA,NA,NA,NA,""
"image-keyboard-response",463,289976,"0.0-3.150-2.150","blkoe7koujnjnhx","126.csv","","null","resources/images/coin2.png","null","",NA,NA,NA,NA,""
"image-keyboard-response",464,290065,"0.0-3.151-0.151","blkoe7koujnjnhx","126.csv","","86.30000007152557","resources/trios/L2T4A2.jpg","39","restless",0.5,0.4,0.8,0.477971707581335,"true"
"image-keyboard-response",465,290472,"0.0-3.151-1.151","blkoe7koujnjnhx","126.csv","","null","resources/maskTrios/BBA2.jpg","null","",NA,NA,NA,NA,""
"image-keyboard-response",466,291677,"0.0-3.151-2.151","blkoe7koujnjnhx","126.csv","","null","resources/images/coin2.png","null","",NA,NA,NA,NA,""
"image-keyboard-response",467,291728,"0.0-3.152-0.152","blkoe7koujnjnhx","126.csv","","48.799999952316284","resources/trios/L2T1A1.jpg","39","restless",0.5,0.4,0.8,0.471554991988172,"true"
"image-keyboard-response",468,292131,"0.0-3.152-1.152","blkoe7koujnjnhx","126.csv","","null","resources/maskTrios/BBA1.jpg","null","",NA,NA,NA,NA,""
"image-keyboard-response",469,293337,"0.0-3.152-2.152","blkoe7koujnjnhx","126.csv","","null","resources/images/coin2.png","null","",NA,NA,NA,NA,""
"image-keyboard-response",470,293568,"0.0-3.153-0.153","blkoe7koujnjnhx","126.csv","","228.10000002384186","resources/trios/L2T1A2.jpg","39","restless",0.5,0.4,0.8,0.455165483373952,"true"
"image-keyboard-response",471,293974,"0.0-3.153-1.153","blkoe7koujnjnhx","126.csv","","null","resources/maskTrios/BBA2.jpg","null","",NA,NA,NA,NA,""
"image-keyboard-response",472,295182,"0.0-3.153-2.153","blkoe7koujnjnhx","126.csv","","null","resources/images/coin2.png","null","",NA,NA,NA,NA,""
"image-keyboard-response",473,295310,"0.0-3.154-0.154","blkoe7koujnjnhx","126.csv","","125.70000004768372","resources/trios/L1T1A1.jpg","39","restless",0.5,0.5,0.8,0.662004427162976,"true"
"image-keyboard-response",474,295717,"0.0-3.154-1.154","blkoe7koujnjnhx","126.csv","","null","resources/maskTrios/BBA1.jpg","null","",NA,NA,NA,NA,""
"image-keyboard-response",475,296920,"0.0-3.154-2.154","blkoe7koujnjnhx","126.csv","","null","resources/images/coin2.png","null","",NA,NA,NA,NA,""
"image-keyboard-response",476,297146,"0.0-3.155-0.155","blkoe7koujnjnhx","126.csv","","223.79999995231628","resources/trios/L1T1A1.jpg","39","restless",0.5,0.5,0.8,0.897202387772487,"false"
"image-keyboard-response",477,297551,"0.0-3.155-1.155","blkoe7koujnjnhx","126.csv","","null","resources/maskTrios/BBA1.jpg","null","",NA,NA,NA,NA,""
"image-keyboard-response",478,298758,"0.0-3.155-2.155","blkoe7koujnjnhx","126.csv","","null","resources/images/fishbone.png","null","",NA,NA,NA,NA,""
"image-keyboard-response",479,299112,"0.0-3.156-0.156","blkoe7koujnjnhx","126.csv","","351.89999997615814","resources/trios/L2T4A1.jpg","39","restless",0.5,0.5,0.8,0.807604380322801,"false"
"image-keyboard-response",480,299518,"0.0-3.156-1.156","blkoe7koujnjnhx","126.csv","","null","resources/maskTrios/BBA1.jpg","null","",NA,NA,NA,NA,""
"image-keyboard-response",481,300723,"0.0-3.156-2.156","blkoe7koujnjnhx","126.csv","","null","resources/images/fishbone.png","null","",NA,NA,NA,NA,""
"image-keyboard-response",482,301446,"0.0-3.157-0.157","blkoe7koujnjnhx","126.csv","","720.2999999523163","resources/trios/L1T1A2.jpg","39","restless",0.5,0.5,0.8,0.831943555573938,"false"
"image-keyboard-response",483,301854,"0.0-3.157-1.157","blkoe7koujnjnhx","126.csv","","null","resources/maskTrios/BBA2.jpg","null","",NA,NA,NA,NA,""
"image-keyboard-response",484,303061,"0.0-3.157-2.157","blkoe7koujnjnhx","126.csv","","null","resources/images/fishbone.png","null","",NA,NA,NA,NA,""
"image-keyboard-response",485,303735,"0.0-3.158-0.158","blkoe7koujnjnhx","126.csv","","672","resources/trios/L2T4A1.jpg","39","restless",0.5,0.5,0.8,0.782656153890198,"true"
"image-keyboard-response",486,304142,"0.0-3.158-1.158","blkoe7koujnjnhx","126.csv","","null","resources/maskTrios/BBA1.jpg","null","",NA,NA,NA,NA,""
"image-keyboard-response",487,305347,"0.0-3.158-2.158","blkoe7koujnjnhx","126.csv","","null","resources/images/coin2.png","null","",NA,NA,NA,NA,""
"image-keyboard-response",488,305542,"0.0-3.159-0.159","blkoe7koujnjnhx","126.csv","","191.60000002384186","resources/trios/L1T4A1.jpg","39","restless",0.5,0.5,0.8,0.266599851707068,"true"
"image-keyboard-response",489,305945,"0.0-3.159-1.159","blkoe7koujnjnhx","126.csv","","null","resources/maskTrios/BBA1.jpg","null","",NA,NA,NA,NA,""
"image-keyboard-response",490,307150,"0.0-3.159-2.159","blkoe7koujnjnhx","126.csv","","null","resources/images/coin2.png","null","",NA,NA,NA,NA,""
"image-keyboard-response",491,307278,"0.0-3.160-0.160","blkoe7koujnjnhx","126.csv","","124.89999997615814","resources/trios/L1T1A2.jpg","39","restless",0.5,0.5,0.8,0.161587618187284,"true"
"image-keyboard-response",492,307683,"0.0-3.160-1.160","blkoe7koujnjnhx","126.csv","","null","resources/maskTrios/BBA2.jpg","null","",NA,NA,NA,NA,""
"image-keyboard-response",493,308891,"0.0-3.160-2.160","blkoe7koujnjnhx","126.csv","","null","resources/images/coin2.png","null","",NA,NA,NA,NA,""
"image-keyboard-response",494,309085,"0.0-3.161-0.161","blkoe7koujnjnhx","126.csv","","191.10000002384186","resources/trios/L1T4A1.jpg","39","restless",0.5,0.5,0.8,0.000202420823735672,"true"
"image-keyboard-response",495,309491,"0.0-3.161-1.161","blkoe7koujnjnhx","126.csv","","null","resources/maskTrios/BBA1.jpg","null","",NA,NA,NA,NA,""
"image-keyboard-response",496,310697,"0.0-3.161-2.161","blkoe7koujnjnhx","126.csv","","null","resources/images/coin2.png","null","",NA,NA,NA,NA,""
"image-keyboard-response",497,310804,"0.0-3.162-0.162","blkoe7koujnjnhx","126.csv","","104.5","resources/trios/L1T1A2.jpg","39","restless",0.5,0.5,0.8,0.841073814194808,"false"
"image-keyboard-response",498,311209,"0.0-3.162-1.162","blkoe7koujnjnhx","126.csv","","null","resources/maskTrios/BBA2.jpg","null","",NA,NA,NA,NA,""
"image-keyboard-response",499,312414,"0.0-3.162-2.162","blkoe7koujnjnhx","126.csv","","null","resources/images/fishbone.png","null","",NA,NA,NA,NA,""
"image-keyboard-response",500,312467,"0.0-3.163-0.163","blkoe7koujnjnhx","126.csv","","50.40000009536743","resources/trios/L2T1A1.jpg","39","restless",0.5,0.5,0.8,0.211774243738662,"true"
"image-keyboard-response",501,312871,"0.0-3.163-1.163","blkoe7koujnjnhx","126.csv","","null","resources/maskTrios/BBA1.jpg","null","",NA,NA,NA,NA,""
"image-keyboard-response",502,314078,"0.0-3.163-2.163","blkoe7koujnjnhx","126.csv","","null","resources/images/coin2.png","null","",NA,NA,NA,NA,""
"image-keyboard-response",503,314325,"0.0-3.164-0.164","blkoe7koujnjnhx","126.csv","","243.89999997615814","resources/trios/L2T1A1.jpg","39","restless",0.5,0.5,0.8,0.831982733644977,"false"
"image-keyboard-response",504,314730,"0.0-3.164-1.164","blkoe7koujnjnhx","126.csv","","null","resources/maskTrios/BBA1.jpg","null","",NA,NA,NA,NA,""
"image-keyboard-response",505,315936,"0.0-3.164-2.164","blkoe7koujnjnhx","126.csv","","null","resources/images/fishbone.png","null","",NA,NA,NA,NA,""
"image-keyboard-response",506,316059,"0.0-3.165-0.165","blkoe7koujnjnhx","126.csv","","120.39999997615814","resources/trios/L1T4A1.jpg","39","restless",0.5,0.5,0.8,0.308220826050059,"true"
"image-keyboard-response",507,316463,"0.0-3.165-1.165","blkoe7koujnjnhx","126.csv","","null","resources/maskTrios/BBA1.jpg","null","",NA,NA,NA,NA,""
"image-keyboard-response",508,317669,"0.0-3.165-2.165","blkoe7koujnjnhx","126.csv","","null","resources/images/coin2.png","null","",NA,NA,NA,NA,""
"image-keyboard-response",509,318274,"0.0-3.166-0.166","blkoe7koujnjnhx","126.csv","","602.5","resources/trios/L2T4A1.jpg","39","restless",0.5,0.5,0.8,0.554010918305046,"true"
"image-keyboard-response",510,318680,"0.0-3.166-1.166","blkoe7koujnjnhx","126.csv","","null","resources/maskTrios/BBA1.jpg","null","",NA,NA,NA,NA,""
"image-keyboard-response",511,319886,"0.0-3.166-2.166","blkoe7koujnjnhx","126.csv","","null","resources/images/coin2.png","null","",NA,NA,NA,NA,""
"image-keyboard-response",512,320081,"0.0-3.167-0.167","blkoe7koujnjnhx","126.csv","","192.70000004768372","resources/trios/L2T4A2.jpg","39","restless",0.5,0.5,0.7,0.926663039437776,"false"
"image-keyboard-response",513,320488,"0.0-3.167-1.167","blkoe7koujnjnhx","126.csv","","null","resources/maskTrios/BBA2.jpg","null","",NA,NA,NA,NA,""
"image-keyboard-response",514,321693,"0.0-3.167-2.167","blkoe7koujnjnhx","126.csv","","null","resources/images/fishbone.png","null","",NA,NA,NA,NA,""
"image-keyboard-response",515,321880,"0.0-3.168-0.168","blkoe7koujnjnhx","126.csv","","183.80000007152557","resources/trios/L2T4A1.jpg","37","restless",0.6,0.5,0.7,0.82261879216202,"false"
"image-keyboard-response",516,322285,"0.0-3.168-1.168","blkoe7koujnjnhx","126.csv","","null","resources/maskTrios/L2BB.jpg","null","",NA,NA,NA,NA,""
"image-keyboard-response",517,323488,"0.0-3.168-2.168","blkoe7koujnjnhx","126.csv","","null","resources/images/fishbone.png","null","",NA,NA,NA,NA,""
"image-keyboard-response",518,323496,"0.0-3.169-0.169","blkoe7koujnjnhx","126.csv","","5.300000071525574","resources/trios/L1T4A2.jpg","39","restless",0.6,0.5,0.7,0.642424276165507,"true"
"image-keyboard-response",519,323901,"0.0-3.169-1.169","blkoe7koujnjnhx","126.csv","","null","resources/maskTrios/BBA2.jpg","null","",NA,NA,NA,NA,""
"image-keyboard-response",520,325107,"0.0-3.169-2.169","blkoe7koujnjnhx","126.csv","","null","resources/images/coin2.png","null","",NA,NA,NA,NA,""
"image-keyboard-response",521,325729,"0.0-3.170-0.170","blkoe7koujnjnhx","126.csv","","619.8999999761581","resources/trios/L2T4A1.jpg","39","restless",0.6,0.5,0.7,0.27225200494093,"true"
"image-keyboard-response",522,326132,"0.0-3.170-1.170","blkoe7koujnjnhx","126.csv","","null","resources/maskTrios/BBA1.jpg","null","",NA,NA,NA,NA,""
"image-keyboard-response",523,327337,"0.0-3.170-2.170","blkoe7koujnjnhx","126.csv","","null","resources/images/coin2.png","null","",NA,NA,NA,NA,""
"image-keyboard-response",524,327369,"0.0-3.171-0.171","blkoe7koujnjnhx","126.csv","","29.700000047683716","resources/trios/L2T1A1.jpg","39","restless",0.6,0.5,0.7,0.199093172411231,"true"
"image-keyboard-response",525,327776,"0.0-3.171-1.171","blkoe7koujnjnhx","126.csv","","null","resources/maskTrios/BBA1.jpg","null","",NA,NA,NA,NA,""
"image-keyboard-response",526,328982,"0.0-3.171-2.171","blkoe7koujnjnhx","126.csv","","null","resources/images/coin2.png","null","",NA,NA,NA,NA,""
"image-keyboard-response",527,329080,"0.0-3.172-0.172","blkoe7koujnjnhx","126.csv","","94.5","resources/trios/L2T1A2.jpg","39","restless",0.6,0.5,0.7,0.365706168941701,"true"
"image-keyboard-response",528,329483,"0.0-3.172-1.172","blkoe7koujnjnhx","126.csv","","null","resources/maskTrios/BBA2.jpg","null","",NA,NA,NA,NA,""
"image-keyboard-response",529,330686,"0.0-3.172-2.172","blkoe7koujnjnhx","126.csv","","null","resources/images/coin2.png","null","",NA,NA,NA,NA,""
"image-keyboard-response",530,330782,"0.0-3.173-0.173","blkoe7koujnjnhx","126.csv","","93.39999997615814","resources/trios/L2T1A2.jpg","39","restless",0.6,0.4,0.7,0.0214043399574517,"true"
"image-keyboard-response",531,331189,"0.0-3.173-1.173","blkoe7koujnjnhx","126.csv","","null","resources/maskTrios/BBA2.jpg","null","",NA,NA,NA,NA,""
"image-keyboard-response",532,332395,"0.0-3.173-2.173","blkoe7koujnjnhx","126.csv","","null","resources/images/coin2.png","null","",NA,NA,NA,NA,""
"image-keyboard-response",533,332868,"0.0-3.174-0.174","blkoe7koujnjnhx","126.csv","","470.5","resources/trios/L2T4A1.jpg","39","restless",0.6,0.4,0.7,0.146472401196812,"true"
"image-keyboard-response",534,333274,"0.0-3.174-1.174","blkoe7koujnjnhx","126.csv","","null","resources/maskTrios/BBA1.jpg","null","",NA,NA,NA,NA,""
"image-keyboard-response",535,334478,"0.0-3.174-2.174","blkoe7koujnjnhx","126.csv","","null","resources/images/coin2.png","null","",NA,NA,NA,NA,""
"image-keyboard-response",536,334606,"0.0-3.175-0.175","blkoe7koujnjnhx","126.csv","","125.10000002384186","resources/trios/L1T4A2.jpg","39","restless",0.6,0.4,0.7,0.526714879644613,"true"
"image-keyboard-response",537,335011,"0.0-3.175-1.175","blkoe7koujnjnhx","126.csv","","null","resources/maskTrios/BBA2.jpg","null","",NA,NA,NA,NA,""
"image-keyboard-response",538,336218,"0.0-3.175-2.175","blkoe7koujnjnhx","126.csv","","null","resources/images/coin2.png","null","",NA,NA,NA,NA,""
"image-keyboard-response",539,336337,"0.0-3.176-0.176","blkoe7koujnjnhx","126.csv","","116.10000002384186","resources/trios/L1T4A1.jpg","39","restless",0.6,0.4,0.7,0.63073469339577,"true"
"image-keyboard-response",540,336744,"0.0-3.176-1.176","blkoe7koujnjnhx","126.csv","","null","resources/maskTrios/BBA1.jpg","null","",NA,NA,NA,NA,""
"image-keyboard-response",541,337948,"0.0-3.176-2.176","blkoe7koujnjnhx","126.csv","","null","resources/images/coin2.png","null","",NA,NA,NA,NA,""
"image-keyboard-response",542,338309,"0.0-3.177-0.177","blkoe7koujnjnhx","126.csv","","358.39999997615814","resources/trios/L1T4A1.jpg","39","restless",0.6,0.4,0.7,0.343472338852909,"true"
"image-keyboard-response",543,338712,"0.0-3.177-1.177","blkoe7koujnjnhx","126.csv","","null","resources/maskTrios/BBA1.jpg","null","",NA,NA,NA,NA,""
"image-keyboard-response",544,339919,"0.0-3.177-2.177","blkoe7koujnjnhx","126.csv","","null","resources/images/coin2.png","null","",NA,NA,NA,NA,""
"image-keyboard-response",545,340439,"0.0-3.178-0.178","blkoe7koujnjnhx","126.csv","","517","resources/trios/L2T1A2.jpg","39","restless",0.6,0.4,0.7,0.103440834849369,"true"
"image-keyboard-response",546,340842,"0.0-3.178-1.178","blkoe7koujnjnhx","126.csv","","null","resources/maskTrios/BBA2.jpg","null","",NA,NA,NA,NA,""
"image-keyboard-response",547,342048,"0.0-3.178-2.178","blkoe7koujnjnhx","126.csv","","null","resources/images/coin2.png","null","",NA,NA,NA,NA,""
"image-keyboard-response",548,342647,"0.0-3.179-0.179","blkoe7koujnjnhx","126.csv","","595.2999999523163","resources/trios/L2T4A1.jpg","39","restless",0.6,0.4,0.7,0.953526294780159,"false"
"image-keyboard-response",549,343051,"0.0-3.179-1.179","blkoe7koujnjnhx","126.csv","","null","resources/maskTrios/BBA1.jpg","null","",NA,NA,NA,NA,""
"image-keyboard-response",550,344257,"0.0-3.179-2.179","blkoe7koujnjnhx","126.csv","","null","resources/images/fishbone.png","null","",NA,NA,NA,NA,""
"image-keyboard-response",551,344692,"0.0-3.180-0.180","blkoe7koujnjnhx","126.csv","","432","resources/trios/L2T1A1.jpg","39","restless",0.6,0.4,0.7,0.297635047452928,"true"
"image-keyboard-response",552,345098,"0.0-3.180-1.180","blkoe7koujnjnhx","126.csv","","null","resources/maskTrios/BBA1.jpg","null","",NA,NA,NA,NA,""
"image-keyboard-response",553,346303,"0.0-3.180-2.180","blkoe7koujnjnhx","126.csv","","null","resources/images/coin2.png","null","",NA,NA,NA,NA,""
"image-keyboard-response",554,346734,"0.0-3.181-0.181","blkoe7koujnjnhx","126.csv","","428.10000002384186","resources/trios/L1T1A1.jpg","38","restless",0.6,0.4,0.7,0.630853486508252,"false"
"image-keyboard-response",555,347141,"0.0-3.181-1.181","blkoe7koujnjnhx","126.csv","","null","resources/maskTrios/BT1B.jpg","null","",NA,NA,NA,NA,""
"image-keyboard-response",556,348347,"0.0-3.181-2.181","blkoe7koujnjnhx","126.csv","","null","resources/images/fishbone.png","null","",NA,NA,NA,NA,""
"image-keyboard-response",557,348443,"0.0-3.182-0.182","blkoe7koujnjnhx","126.csv","","93.60000002384186","resources/trios/L2T1A1.jpg","39","restless",0.6,0.3,0.7,0.201461490714584,"true"
"image-keyboard-response",558,348846,"0.0-3.182-1.182","blkoe7koujnjnhx","126.csv","","null","resources/maskTrios/BBA1.jpg","null","",NA,NA,NA,NA,""
"image-keyboard-response",559,350052,"0.0-3.182-2.182","blkoe7koujnjnhx","126.csv","","null","resources/images/coin2.png","null","",NA,NA,NA,NA,""
"image-keyboard-response",560,350342,"0.0-3.183-0.183","blkoe7koujnjnhx","126.csv","","287.90000009536743","resources/trios/L1T1A2.jpg","39","restless",0.6,0.3,0.7,0.714278310585323,"false"
"image-keyboard-response",561,350746,"0.0-3.183-1.183","blkoe7koujnjnhx","126.csv","","null","resources/maskTrios/BBA2.jpg","null","",NA,NA,NA,NA,""
"image-keyboard-response",562,351950,"0.0-3.183-2.183","blkoe7koujnjnhx","126.csv","","null","resources/images/fishbone.png","null","",NA,NA,NA,NA,""
"image-keyboard-response",563,352326,"0.0-3.184-0.184","blkoe7koujnjnhx","126.csv","","373.2000000476837","resources/trios/L1T1A1.jpg","37","restless",0.6,0.3,0.7,0.416412437761288,"true"
"image-keyboard-response",564,352734,"0.0-3.184-1.184","blkoe7koujnjnhx","126.csv","","null","resources/maskTrios/L1BB.jpg","null","",NA,NA,NA,NA,""
"image-keyboard-response",565,353939,"0.0-3.184-2.184","blkoe7koujnjnhx","126.csv","","null","resources/images/coin2.png","null","",NA,NA,NA,NA,""
"image-keyboard-response",566,354661,"0.0-3.185-0.185","blkoe7koujnjnhx","126.csv","","719.1000000238419","resources/trios/L1T1A2.jpg","37","restless",0.6,0.3,0.7,0.638932299194561,"false"
"image-keyboard-response",567,355067,"0.0-3.185-1.185","blkoe7koujnjnhx","126.csv","","null","resources/maskTrios/L1BB.jpg","null","",NA,NA,NA,NA,""
"image-keyboard-response",568,356272,"0.0-3.185-2.185","blkoe7koujnjnhx","126.csv","","null","resources/images/fishbone.png","null","",NA,NA,NA,NA,""
"image-keyboard-response",569,356435,"0.0-3.186-0.186","blkoe7koujnjnhx","126.csv","","159.20000004768372","resources/trios/L2T4A1.jpg","38","restless",0.5,0.3,0.6,0.592423262496433,"false"
"image-keyboard-response",570,356840,"0.0-3.186-1.186","blkoe7koujnjnhx","126.csv","","null","resources/maskTrios/BT4B.jpg","null","",NA,NA,NA,NA,""
"image-keyboard-response",571,358045,"0.0-3.186-2.186","blkoe7koujnjnhx","126.csv","","null","resources/images/fishbone.png","null","",NA,NA,NA,NA,""
"image-keyboard-response",572,358052,"0.0-3.187-0.187","blkoe7koujnjnhx","126.csv","","4","resources/trios/L1T4A1.jpg","37","restless",0.5,0.3,0.6,0.683715357349359,"false"
"image-keyboard-response",573,358456,"0.0-3.187-1.187","blkoe7koujnjnhx","126.csv","","null","resources/maskTrios/L1BB.jpg","null","",NA,NA,NA,NA,""
"image-keyboard-response",574,359663,"0.0-3.187-2.187","blkoe7koujnjnhx","126.csv","","null","resources/images/fishbone.png","null","",NA,NA,NA,NA,""
"image-keyboard-response",575,360213,"0.0-3.188-0.188","blkoe7koujnjnhx","126.csv","","546.6000000238419","resources/trios/L1T4A2.jpg","39","restless",0.5,0.3,0.6,0.990270646345374,"false"
"image-keyboard-response",576,360617,"0.0-3.188-1.188","blkoe7koujnjnhx","126.csv","","null","resources/maskTrios/BBA2.jpg","null","",NA,NA,NA,NA,""
"image-keyboard-response",577,361821,"0.0-3.188-2.188","blkoe7koujnjnhx","126.csv","","null","resources/images/fishbone.png","null","",NA,NA,NA,NA,""
"image-keyboard-response",578,363416,"0.0-3.189-0.189","blkoe7koujnjnhx","126.csv","","1594.2000000476837","resources/trios/L1T4A2.jpg","39","restless",0.5,0.3,0.5,0.267046892437189,"true"
"image-keyboard-response",579,363823,"0.0-3.189-1.189","blkoe7koujnjnhx","126.csv","","null","resources/maskTrios/BBA2.jpg","null","",NA,NA,NA,NA,""
"image-keyboard-response",580,365030,"0.0-3.189-2.189","blkoe7koujnjnhx","126.csv","","null","resources/images/coin2.png","null","",NA,NA,NA,NA,""
"image-keyboard-response",581,365452,"0.0-3.190-0.190","blkoe7koujnjnhx","126.csv","","419.60000002384186","resources/trios/L2T1A1.jpg","39","restless",0.5,0.3,0.5,0.637754926723658,"false"
"image-keyboard-response",582,365858,"0.0-3.190-1.190","blkoe7koujnjnhx","126.csv","","null","resources/maskTrios/BBA1.jpg","null","",NA,NA,NA,NA,""
"image-keyboard-response",583,367065,"0.0-3.190-2.190","blkoe7koujnjnhx","126.csv","","null","resources/images/fishbone.png","null","",NA,NA,NA,NA,""
"image-keyboard-response",584,368831,"0.0-3.191-0.191","blkoe7koujnjnhx","126.csv","","1762.8999999761581","resources/trios/L1T1A1.jpg","39","restless",0.5,0.2,0.5,0.688330583315708,"false"
"image-keyboard-response",585,369238,"0.0-3.191-1.191","blkoe7koujnjnhx","126.csv","","null","resources/maskTrios/BBA1.jpg","null","",NA,NA,NA,NA,""
"image-keyboard-response",586,370443,"0.0-3.191-2.191","blkoe7koujnjnhx","126.csv","","null","resources/images/fishbone.png","null","",NA,NA,NA,NA,""
"image-keyboard-response",587,370776,"0.0-3.192-0.192","blkoe7koujnjnhx","126.csv","","330.5","resources/trios/L1T1A1.jpg","38","restless",0.5,0.2,0.4,0.202062597324999,"false"
"image-keyboard-response",588,371182,"0.0-3.192-1.192","blkoe7koujnjnhx","126.csv","","null","resources/maskTrios/BT1B.jpg","null","",NA,NA,NA,NA,""
"image-keyboard-response",589,372387,"0.0-3.192-2.192","blkoe7koujnjnhx","126.csv","","null","resources/images/fishbone.png","null","",NA,NA,NA,NA,""
"image-keyboard-response",590,372698,"0.0-3.193-0.193","blkoe7koujnjnhx","126.csv","","308.10000002384186","resources/trios/L2T1A2.jpg","38","restless",0.5,0.2,0.4,0.249850010268001,"false"
"image-keyboard-response",591,373104,"0.0-3.193-1.193","blkoe7koujnjnhx","126.csv","","null","resources/maskTrios/BT1B.jpg","null","",NA,NA,NA,NA,""
"image-keyboard-response",592,374311,"0.0-3.193-2.193","blkoe7koujnjnhx","126.csv","","null","resources/images/fishbone.png","null","",NA,NA,NA,NA,""
"image-keyboard-response",593,374482,"0.0-3.194-0.194","blkoe7koujnjnhx","126.csv","","167.80000007152557","resources/trios/L1T4A1.jpg","38","restless",0.5,0.2,0.4,0.70553489155856,"false"
"image-keyboard-response",594,374887,"0.0-3.194-1.194","blkoe7koujnjnhx","126.csv","","null","resources/maskTrios/BT4B.jpg","null","",NA,NA,NA,NA,""
"image-keyboard-response",595,376092,"0.0-3.194-2.194","blkoe7koujnjnhx","126.csv","","null","resources/images/fishbone.png","null","",NA,NA,NA,NA,""
"image-keyboard-response",596,376204,"0.0-3.195-0.195","blkoe7koujnjnhx","126.csv","","108.60000002384186","resources/trios/L2T4A2.jpg","39","restless",0.5,0.2,0.4,0.445807728382943,"false"
"image-keyboard-response",597,376608,"0.0-3.195-1.195","blkoe7koujnjnhx","126.csv","","null","resources/maskTrios/BBA2.jpg","null","",NA,NA,NA,NA,""
"image-keyboard-response",598,377811,"0.0-3.195-2.195","blkoe7koujnjnhx","126.csv","","null","resources/images/fishbone.png","null","",NA,NA,NA,NA,""
"image-keyboard-response",599,377928,"0.0-3.196-0.196","blkoe7koujnjnhx","126.csv","","114.70000004768372","resources/trios/L2T4A2.jpg","38","restless",0.5,0.2,0.4,0.161384913930025,"true"
"image-keyboard-response",600,378334,"0.0-3.196-1.196","blkoe7koujnjnhx","126.csv","","null","resources/maskTrios/BT4B.jpg","null","",NA,NA,NA,NA,""
"image-keyboard-response",601,379541,"0.0-3.196-2.196","blkoe7koujnjnhx","126.csv","","null","resources/images/coin2.png","null","",NA,NA,NA,NA,""
"image-keyboard-response",602,379546,"0.0-3.197-0.197","blkoe7koujnjnhx","126.csv","","2","resources/trios/L2T1A1.jpg","38","restless",0.6,0.2,0.4,0.652664353605183,"false"
"image-keyboard-response",603,379949,"0.0-3.197-1.197","blkoe7koujnjnhx","126.csv","","null","resources/maskTrios/BT1B.jpg","null","",NA,NA,NA,NA,""
"image-keyboard-response",604,381155,"0.0-3.197-2.197","blkoe7koujnjnhx","126.csv","","null","resources/images/fishbone.png","null","",NA,NA,NA,NA,""
"image-keyboard-response",605,381717,"0.0-3.198-0.198","blkoe7koujnjnhx","126.csv","","559.5","resources/trios/L2T4A2.jpg","37","restless",0.6,0.2,0.4,0.72923201846776,"false"
"image-keyboard-response",606,382124,"0.0-3.198-1.198","blkoe7koujnjnhx","126.csv","","null","resources/maskTrios/L2BB.jpg","null","",NA,NA,NA,NA,""
"image-keyboard-response",607,383328,"0.0-3.198-2.198","blkoe7koujnjnhx","126.csv","","null","resources/images/fishbone.png","null","",NA,NA,NA,NA,""
"image-keyboard-response",608,383525,"0.0-3.199-0.199","blkoe7koujnjnhx","126.csv","","194.19999992847443","resources/trios/L1T4A2.jpg","37","restless",0.6,0.2,0.4,0.829766332037092,"false"
"image-keyboard-response",609,383930,"0.0-3.199-1.199","blkoe7koujnjnhx","126.csv","","null","resources/maskTrios/L1BB.jpg","null","",NA,NA,NA,NA,""
"image-keyboard-response",610,385136,"0.0-3.199-2.199","blkoe7koujnjnhx","126.csv","","null","resources/images/fishbone.png","null","",NA,NA,NA,NA,""
"image-keyboard-response",611,385256,"0.0-3.200-0.200","blkoe7koujnjnhx","126.csv","","116.70000004768372","resources/trios/L1T4A1.jpg","37","restless",0.6,0.2,0.4,0.873165275467977,"false"
"image-keyboard-response",612,385664,"0.0-3.200-1.200","blkoe7koujnjnhx","126.csv","","null","resources/maskTrios/L1BB.jpg","null","",NA,NA,NA,NA,""
"image-keyboard-response",613,386871,"0.0-3.200-2.200","blkoe7koujnjnhx","126.csv","","null","resources/images/fishbone.png","null","",NA,NA,NA,NA,""
"image-keyboard-response",614,387174,"0.0-3.201-0.201","blkoe7koujnjnhx","126.csv","","299.60000002384186","resources/trios/L1T1A2.jpg","38","restless",0.6,0.2,0.4,0.805141483145236,"false"
"image-keyboard-response",615,387580,"0.0-3.201-1.201","blkoe7koujnjnhx","126.csv","","null","resources/maskTrios/BT1B.jpg","null","",NA,NA,NA,NA,""
"image-keyboard-response",616,388787,"0.0-3.201-2.201","blkoe7koujnjnhx","126.csv","","null","resources/images/fishbone.png","null","",NA,NA,NA,NA,""
"image-keyboard-response",617,388937,"0.0-3.202-0.202","blkoe7koujnjnhx","126.csv","","146.69999992847443","resources/trios/L2T1A2.jpg","38","restless",0.6,0.2,0.4,0.0102597542173188,"true"
"image-keyboard-response",618,389344,"0.0-3.202-1.202","blkoe7koujnjnhx","126.csv","","null","resources/maskTrios/BT1B.jpg","null","",NA,NA,NA,NA,""
"image-keyboard-response",619,390547,"0.0-3.202-2.202","blkoe7koujnjnhx","126.csv","","null","resources/images/coin2.png","null","",NA,NA,NA,NA,""
"image-keyboard-response",620,390550,"0.0-3.203-0.203","blkoe7koujnjnhx","126.csv","","0.19999992847442627","resources/trios/L1T1A1.jpg","38","restless",0.6,0.2,0.4,0.531013237960506,"false"
