"trial_type","trial_index","time_elapsed","internal_node_id","subject","participantCode","walkNumber","success","rt","stimulus","key_press","test_part","leftProb","midProb","rightProb","generatedNum","correct"
"pavlovia",0,1127,"0.0-0.0","kwh4ucl74w2l0k4",383,"37.csv","","","","","",NA,NA,NA,NA,""
"fullscreen",1,4144,"0.0-1.0","kwh4ucl74w2l0k4",383,"37.csv","true","","","","",NA,NA,NA,NA,""
"html-keyboard-response",2,11215,"0.0-2.0-0.0","kwh4ucl74w2l0k4",383,"37.csv","","7067.300000011921","<p><font size='6'>Arrrgh!</p></font><p>Can you be the best pirate? Try to find lots of gold! But beware, some islands have more gold than others, and over time, the island with the most gold may change. Can YOU figure it out? </p><font size='6'>GOOD LUCK, CAPTAIN!!!</font><p>Press any key to begin</p>","32","",NA,NA,NA,NA,""
"image-keyboard-response",3,14217,"0.0-2.0-1.0","kwh4ucl74w2l0k4",383,"37.csv","","null","resources/image_sets/111.png","null","",NA,NA,NA,NA,""
"image-keyboard-response",4,27713,"0.0-2.0-2.0","kwh4ucl74w2l0k4",383,"37.csv","","13493","resources/image_sets/left_highlight.png","37","",NA,NA,NA,NA,""
"image-keyboard-response",5,29469,"0.0-2.0-3.0","kwh4ucl74w2l0k4",383,"37.csv","","1753.800000011921","resources/image_sets/mid_highlight.png","38","",NA,NA,NA,NA,""
"image-keyboard-response",6,30829,"0.0-2.0-4.0","kwh4ucl74w2l0k4",383,"37.csv","","1357.800000011921","resources/image_sets/right_highlight.png","39","",NA,NA,NA,NA,""
"image-keyboard-response",7,34764,"0.0-2.0-5.0","kwh4ucl74w2l0k4",383,"37.csv","","3933.199999988079","resources/image_sets/111.png","13","",NA,NA,NA,NA,""
"image-keyboard-response",8,38295,"0.0-2.0-6.0","kwh4ucl74w2l0k4",383,"37.csv","","3527.800000011921","resources/images/coin2.png","13","",NA,NA,NA,NA,""
"image-keyboard-response",9,39661,"0.0-2.0-7.0","kwh4ucl74w2l0k4",383,"37.csv","","1363.699999988079","resources/images/fishbone.png","13","",NA,NA,NA,NA,""
"html-keyboard-response",10,41053,"0.0-2.0-8.0","kwh4ucl74w2l0k4",383,"37.csv","","1391","<p>Your first journey will be a long one, but you will get a well deserved break at the end</p><p>After the break you will have four more journeys, but each will be much shorter than the first, and you will have breaks in between each</p><p>Press Enter to begin</p>","13","",NA,NA,NA,NA,""
"image-keyboard-response",11,43082,"0.0-3.0-0.0","kwh4ucl74w2l0k4",383,"37.csv","","2026.2999999523163","resources/trios/L2T2A1.jpg","37","restless",0.7,0.3,0.9,0.0241589068285177,"true"
"image-keyboard-response",12,43488,"0.0-3.0-1.0","kwh4ucl74w2l0k4",383,"37.csv","","null","resources/maskTrios/L2BB.jpg","null","",NA,NA,NA,NA,""
"image-keyboard-response",13,44698,"0.0-3.0-2.0","kwh4ucl74w2l0k4",383,"37.csv","","null","resources/images/coin2.png","null","",NA,NA,NA,NA,""
"image-keyboard-response",14,46929,"0.0-3.1-0.1","kwh4ucl74w2l0k4",383,"37.csv","","2227.099999964237","resources/trios/L2T4A1.jpg","38","restless",0.7,0.3,0.8,0.122337806842965,"true"
"image-keyboard-response",15,47334,"0.0-3.1-1.1","kwh4ucl74w2l0k4",383,"37.csv","","null","resources/maskTrios/BT4B.jpg","null","",NA,NA,NA,NA,""
"image-keyboard-response",16,48542,"0.0-3.1-2.1","kwh4ucl74w2l0k4",383,"37.csv","","null","resources/images/coin2.png","null","",NA,NA,NA,NA,""
"image-keyboard-response",17,50516,"0.0-3.2-0.2","kwh4ucl74w2l0k4",383,"37.csv","","1971.199999988079","resources/trios/L2T2A2.jpg","38","restless",0.7,0.3,0.8,0.609677923438928,"false"
"image-keyboard-response",18,50924,"0.0-3.2-1.2","kwh4ucl74w2l0k4",383,"37.csv","","null","resources/maskTrios/BT2B.jpg","null","",NA,NA,NA,NA,""
"image-keyboard-response",19,52127,"0.0-3.2-2.2","kwh4ucl74w2l0k4",383,"37.csv","","null","resources/images/fishbone.png","null","",NA,NA,NA,NA,""
"image-keyboard-response",20,52974,"0.0-3.3-0.3","kwh4ucl74w2l0k4",383,"37.csv","","844.4000000357628","resources/trios/L1T4A1.jpg","37","restless",0.7,0.3,0.8,0.597498472762877,"true"
"image-keyboard-response",21,53381,"0.0-3.3-1.3","kwh4ucl74w2l0k4",383,"37.csv","","null","resources/maskTrios/L1BB.jpg","null","",NA,NA,NA,NA,""
"image-keyboard-response",22,54585,"0.0-3.3-2.3","kwh4ucl74w2l0k4",383,"37.csv","","null","resources/images/coin2.png","null","",NA,NA,NA,NA,""
"image-keyboard-response",23,56615,"0.0-3.4-0.4","kwh4ucl74w2l0k4",383,"37.csv","","2028.9000000357628","resources/trios/L2T4A1.jpg","38","restless",0.6,0.4,0.8,0.662969801319875,"false"
"image-keyboard-response",24,57017,"0.0-3.4-1.4","kwh4ucl74w2l0k4",383,"37.csv","","null","resources/maskTrios/BT4B.jpg","null","",NA,NA,NA,NA,""
"image-keyboard-response",25,58220,"0.0-3.4-2.4","kwh4ucl74w2l0k4",383,"37.csv","","null","resources/images/fishbone.png","null","",NA,NA,NA,NA,""
"image-keyboard-response",26,58862,"0.0-3.5-0.5","kwh4ucl74w2l0k4",383,"37.csv","","638.6999999880791","resources/trios/L1T2A1.jpg","37","restless",0.6,0.4,0.8,0.708447830497108,"false"
"image-keyboard-response",27,59268,"0.0-3.5-1.5","kwh4ucl74w2l0k4",383,"37.csv","","null","resources/maskTrios/L1BB.jpg","null","",NA,NA,NA,NA,""
"image-keyboard-response",28,60476,"0.0-3.5-2.5","kwh4ucl74w2l0k4",383,"37.csv","","null","resources/images/fishbone.png","null","",NA,NA,NA,NA,""
"image-keyboard-response",29,60931,"0.0-3.6-0.6","kwh4ucl74w2l0k4",383,"37.csv","","453","resources/trios/L2T4A1.jpg","39","restless",0.6,0.4,0.8,0.769151751216652,"true"
"image-keyboard-response",30,61335,"0.0-3.6-1.6","kwh4ucl74w2l0k4",383,"37.csv","","null","resources/maskTrios/BBA1.jpg","null","",NA,NA,NA,NA,""
"image-keyboard-response",31,62542,"0.0-3.6-2.6","kwh4ucl74w2l0k4",383,"37.csv","","null","resources/images/coin2.png","null","",NA,NA,NA,NA,""
"image-keyboard-response",32,63069,"0.0-3.7-0.7","kwh4ucl74w2l0k4",383,"37.csv","","523.6000000238419","resources/trios/L2T4A2.jpg","38","restless",0.6,0.4,0.7,0.477352909229952,"false"
"image-keyboard-response",33,63476,"0.0-3.7-1.7","kwh4ucl74w2l0k4",383,"37.csv","","null","resources/maskTrios/BT4B.jpg","null","",NA,NA,NA,NA,""
"image-keyboard-response",34,64679,"0.0-3.7-2.7","kwh4ucl74w2l0k4",383,"37.csv","","null","resources/images/fishbone.png","null","",NA,NA,NA,NA,""
"image-keyboard-response",35,64986,"0.0-3.8-0.8","kwh4ucl74w2l0k4",383,"37.csv","","303.19999998807907","resources/trios/L1T2A2.jpg","39","restless",0.6,0.5,0.7,0.873796664034037,"false"
"image-keyboard-response",36,65392,"0.0-3.8-1.8","kwh4ucl74w2l0k4",383,"37.csv","","null","resources/maskTrios/BBA2.jpg","null","",NA,NA,NA,NA,""
"image-keyboard-response",37,66599,"0.0-3.8-2.8","kwh4ucl74w2l0k4",383,"37.csv","","null","resources/images/fishbone.png","null","",NA,NA,NA,NA,""
"image-keyboard-response",38,66975,"0.0-3.9-0.9","kwh4ucl74w2l0k4",383,"37.csv","","372.2999999523163","resources/trios/L1T4A1.jpg","37","restless",0.6,0.5,0.6,0.289033755713044,"true"
"image-keyboard-response",39,67378,"0.0-3.9-1.9","kwh4ucl74w2l0k4",383,"37.csv","","null","resources/maskTrios/L1BB.jpg","null","",NA,NA,NA,NA,""
"image-keyboard-response",40,68586,"0.0-3.9-2.9","kwh4ucl74w2l0k4",383,"37.csv","","null","resources/images/coin2.png","null","",NA,NA,NA,NA,""
"image-keyboard-response",41,69354,"0.0-3.10-0.10","kwh4ucl74w2l0k4",383,"37.csv","","765.6000000238419","resources/trios/L1T4A1.jpg","37","restless",0.6,0.5,0.6,0.252638994942521,"true"
"image-keyboard-response",42,69760,"0.0-3.10-1.10","kwh4ucl74w2l0k4",383,"37.csv","","null","resources/maskTrios/L1BB.jpg","null","",NA,NA,NA,NA,""
"image-keyboard-response",43,70968,"0.0-3.10-2.10","kwh4ucl74w2l0k4",383,"37.csv","","null","resources/images/coin2.png","null","",NA,NA,NA,NA,""
"image-keyboard-response",44,72287,"0.0-3.11-0.11","kwh4ucl74w2l0k4",383,"37.csv","","1316.4000000357628","resources/trios/L2T4A2.jpg","38","restless",0.6,0.5,0.6,0.0054883502316132,"true"
"image-keyboard-response",45,72692,"0.0-3.11-1.11","kwh4ucl74w2l0k4",383,"37.csv","","null","resources/maskTrios/BT4B.jpg","null","",NA,NA,NA,NA,""
"image-keyboard-response",46,73896,"0.0-3.11-2.11","kwh4ucl74w2l0k4",383,"37.csv","","null","resources/images/coin2.png","null","",NA,NA,NA,NA,""
"image-keyboard-response",47,74826,"0.0-3.12-0.12","kwh4ucl74w2l0k4",383,"37.csv","","927.1999999880791","resources/trios/L1T4A2.jpg","39","restless",0.5,0.5,0.6,0.424623870310676,"true"
"image-keyboard-response",48,75234,"0.0-3.12-1.12","kwh4ucl74w2l0k4",383,"37.csv","","null","resources/maskTrios/BBA2.jpg","null","",NA,NA,NA,NA,""
"image-keyboard-response",49,76442,"0.0-3.12-2.12","kwh4ucl74w2l0k4",383,"37.csv","","null","resources/images/coin2.png","null","",NA,NA,NA,NA,""
"image-keyboard-response",50,76935,"0.0-3.13-0.13","kwh4ucl74w2l0k4",383,"37.csv","","490","resources/trios/L2T2A2.jpg","38","restless",0.4,0.5,0.6,0.309479077965266,"true"
"image-keyboard-response",51,77342,"0.0-3.13-1.13","kwh4ucl74w2l0k4",383,"37.csv","","null","resources/maskTrios/BT2B.jpg","null","",NA,NA,NA,NA,""
"image-keyboard-response",52,78546,"0.0-3.13-2.13","kwh4ucl74w2l0k4",383,"37.csv","","null","resources/images/coin2.png","null","",NA,NA,NA,NA,""
"image-keyboard-response",53,78983,"0.0-3.14-0.14","kwh4ucl74w2l0k4",383,"37.csv","","434.2000000476837","resources/trios/L2T4A2.jpg","37","restless",0.4,0.5,0.6,0.0212290939002371,"true"
"image-keyboard-response",54,79390,"0.0-3.14-1.14","kwh4ucl74w2l0k4",383,"37.csv","","null","resources/maskTrios/L2BB.jpg","null","",NA,NA,NA,NA,""
"image-keyboard-response",55,80594,"0.0-3.14-2.14","kwh4ucl74w2l0k4",383,"37.csv","","null","resources/images/coin2.png","null","",NA,NA,NA,NA,""
"image-keyboard-response",56,81017,"0.0-3.15-0.15","kwh4ucl74w2l0k4",383,"37.csv","","420.10000002384186","resources/trios/L2T2A2.jpg","38","restless",0.4,0.5,0.5,0.802800928754325,"false"
"image-keyboard-response",57,81419,"0.0-3.15-1.15","kwh4ucl74w2l0k4",383,"37.csv","","null","resources/maskTrios/BT2B.jpg","null","",NA,NA,NA,NA,""
"image-keyboard-response",58,82626,"0.0-3.15-2.15","kwh4ucl74w2l0k4",383,"37.csv","","null","resources/images/fishbone.png","null","",NA,NA,NA,NA,""
"image-keyboard-response",59,82874,"0.0-3.16-0.16","kwh4ucl74w2l0k4",383,"37.csv","","245.89999997615814","resources/trios/L2T4A2.jpg","39","restless",0.4,0.5,0.5,0.411811040644623,"true"
"image-keyboard-response",60,83281,"0.0-3.16-1.16","kwh4ucl74w2l0k4",383,"37.csv","","null","resources/maskTrios/BBA2.jpg","null","",NA,NA,NA,NA,""
"image-keyboard-response",61,84485,"0.0-3.16-2.16","kwh4ucl74w2l0k4",383,"37.csv","","null","resources/images/coin2.png","null","",NA,NA,NA,NA,""
"image-keyboard-response",62,85512,"0.0-3.17-0.17","kwh4ucl74w2l0k4",383,"37.csv","","1024.199999988079","resources/trios/L2T4A2.jpg","38","restless",0.4,0.5,0.5,0.215845886626459,"true"
"image-keyboard-response",63,85919,"0.0-3.17-1.17","kwh4ucl74w2l0k4",383,"37.csv","","null","resources/maskTrios/BT4B.jpg","null","",NA,NA,NA,NA,""
"image-keyboard-response",64,87122,"0.0-3.17-2.17","kwh4ucl74w2l0k4",383,"37.csv","","null","resources/images/coin2.png","null","",NA,NA,NA,NA,""
"image-keyboard-response",65,87550,"0.0-3.18-0.18","kwh4ucl74w2l0k4",383,"37.csv","","425","resources/trios/L2T4A1.jpg","39","restless",0.4,0.4,0.5,0.831238630843763,"false"
"image-keyboard-response",66,87951,"0.0-3.18-1.18","kwh4ucl74w2l0k4",383,"37.csv","","null","resources/maskTrios/BBA1.jpg","null","",NA,NA,NA,NA,""
"image-keyboard-response",67,89155,"0.0-3.18-2.18","kwh4ucl74w2l0k4",383,"37.csv","","null","resources/images/fishbone.png","null","",NA,NA,NA,NA,""
"image-keyboard-response",68,89548,"0.0-3.19-0.19","kwh4ucl74w2l0k4",383,"37.csv","","390.30000001192093","resources/trios/L1T2A1.jpg","38","restless",0.4,0.4,0.5,0.621068294523347,"false"
"image-keyboard-response",69,89951,"0.0-3.19-1.19","kwh4ucl74w2l0k4",383,"37.csv","","null","resources/maskTrios/BT2B.jpg","null","",NA,NA,NA,NA,""
"image-keyboard-response",70,91155,"0.0-3.19-2.19","kwh4ucl74w2l0k4",383,"37.csv","","null","resources/images/fishbone.png","null","",NA,NA,NA,NA,""
"image-keyboard-response",71,91311,"0.0-3.20-0.20","kwh4ucl74w2l0k4",383,"37.csv","","153.4000000357628","resources/trios/L2T2A2.jpg","37","restless",0.4,0.4,0.5,0.968818067443536,"false"
"image-keyboard-response",72,91718,"0.0-3.20-1.20","kwh4ucl74w2l0k4",383,"37.csv","","null","resources/maskTrios/L2BB.jpg","null","",NA,NA,NA,NA,""
"image-keyboard-response",73,92926,"0.0-3.20-2.20","kwh4ucl74w2l0k4",383,"37.csv","","null","resources/images/fishbone.png","null","",NA,NA,NA,NA,""
"image-keyboard-response",74,93382,"0.0-3.21-0.21","kwh4ucl74w2l0k4",383,"37.csv","","453.5","resources/trios/L1T2A2.jpg","38","restless",0.4,0.4,0.4,0.0746645925683866,"true"
"image-keyboard-response",75,93787,"0.0-3.21-1.21","kwh4ucl74w2l0k4",383,"37.csv","","null","resources/maskTrios/BT2B.jpg","null","",NA,NA,NA,NA,""
"image-keyboard-response",76,94993,"0.0-3.21-2.21","kwh4ucl74w2l0k4",383,"37.csv","","null","resources/images/coin2.png","null","",NA,NA,NA,NA,""
"image-keyboard-response",77,95305,"0.0-3.22-0.22","kwh4ucl74w2l0k4",383,"37.csv","","309.30000001192093","resources/trios/L1T4A2.jpg","39","restless",0.4,0.4,0.4,0.325202708092719,"true"
"image-keyboard-response",78,95709,"0.0-3.22-1.22","kwh4ucl74w2l0k4",383,"37.csv","","null","resources/maskTrios/BBA2.jpg","null","",NA,NA,NA,NA,""
"image-keyboard-response",79,96918,"0.0-3.22-2.22","kwh4ucl74w2l0k4",383,"37.csv","","null","resources/images/coin2.png","null","",NA,NA,NA,NA,""
"image-keyboard-response",80,97236,"0.0-3.23-0.23","kwh4ucl74w2l0k4",383,"37.csv","","315.39999997615814","resources/trios/L1T2A2.jpg","37","restless",0.4,0.4,0.4,0.211047578598369,"true"
"image-keyboard-response",81,97643,"0.0-3.23-1.23","kwh4ucl74w2l0k4",383,"37.csv","","null","resources/maskTrios/L1BB.jpg","null","",NA,NA,NA,NA,""
"image-keyboard-response",82,98851,"0.0-3.23-2.23","kwh4ucl74w2l0k4",383,"37.csv","","null","resources/images/coin2.png","null","",NA,NA,NA,NA,""
"image-keyboard-response",83,99183,"0.0-3.24-0.24","kwh4ucl74w2l0k4",383,"37.csv","","328.80000001192093","resources/trios/L1T4A1.jpg","38","restless",0.4,0.4,0.4,0.783794000554244,"false"
"image-keyboard-response",84,99586,"0.0-3.24-1.24","kwh4ucl74w2l0k4",383,"37.csv","","null","resources/maskTrios/BT4B.jpg","null","",NA,NA,NA,NA,""
"image-keyboard-response",85,100793,"0.0-3.24-2.24","kwh4ucl74w2l0k4",383,"37.csv","","null","resources/images/fishbone.png","null","",NA,NA,NA,NA,""
"image-keyboard-response",86,101080,"0.0-3.25-0.25","kwh4ucl74w2l0k4",383,"37.csv","","284.30000001192093","resources/trios/L1T2A1.jpg","39","restless",0.4,0.4,0.4,0.0239723812649582,"true"
"image-keyboard-response",87,101485,"0.0-3.25-1.25","kwh4ucl74w2l0k4",383,"37.csv","","null","resources/maskTrios/BBA1.jpg","null","",NA,NA,NA,NA,""
"image-keyboard-response",88,102688,"0.0-3.25-2.25","kwh4ucl74w2l0k4",383,"37.csv","","null","resources/images/coin2.png","null","",NA,NA,NA,NA,""
"image-keyboard-response",89,103157,"0.0-3.26-0.26","kwh4ucl74w2l0k4",383,"37.csv","","466.9000000357628","resources/trios/L1T2A1.jpg","37","restless",0.4,0.4,0.4,0.0182731403725629,"true"
"image-keyboard-response",90,103563,"0.0-3.26-1.26","kwh4ucl74w2l0k4",383,"37.csv","","null","resources/maskTrios/L1BB.jpg","null","",NA,NA,NA,NA,""
"image-keyboard-response",91,104768,"0.0-3.26-2.26","kwh4ucl74w2l0k4",383,"37.csv","","null","resources/images/coin2.png","null","",NA,NA,NA,NA,""
"image-keyboard-response",92,105441,"0.0-3.27-0.27","kwh4ucl74w2l0k4",383,"37.csv","","670.9000000357628","resources/trios/L1T2A1.jpg","39","restless",0.4,0.4,0.4,0.122261312648059,"true"
"image-keyboard-response",93,105846,"0.0-3.27-1.27","kwh4ucl74w2l0k4",383,"37.csv","","null","resources/maskTrios/BBA1.jpg","null","",NA,NA,NA,NA,""
"image-keyboard-response",94,107051,"0.0-3.27-2.27","kwh4ucl74w2l0k4",383,"37.csv","","null","resources/images/coin2.png","null","",NA,NA,NA,NA,""
"image-keyboard-response",95,107304,"0.0-3.28-0.28","kwh4ucl74w2l0k4",383,"37.csv","","249","resources/trios/L1T4A2.jpg","38","restless",0.4,0.4,0.4,0.0904920455258462,"true"
"image-keyboard-response",96,107709,"0.0-3.28-1.28","kwh4ucl74w2l0k4",383,"37.csv","","null","resources/maskTrios/BT4B.jpg","null","",NA,NA,NA,NA,""
"image-keyboard-response",97,108914,"0.0-3.28-2.28","kwh4ucl74w2l0k4",383,"37.csv","","null","resources/images/coin2.png","null","",NA,NA,NA,NA,""
"image-keyboard-response",98,109398,"0.0-3.29-0.29","kwh4ucl74w2l0k4",383,"37.csv","","481.4000000357628","resources/trios/L1T2A1.jpg","37","restless",0.4,0.4,0.4,0.931983452161754,"false"
"image-keyboard-response",99,109803,"0.0-3.29-1.29","kwh4ucl74w2l0k4",383,"37.csv","","null","resources/maskTrios/L1BB.jpg","null","",NA,NA,NA,NA,""
"image-keyboard-response",100,111009,"0.0-3.29-2.29","kwh4ucl74w2l0k4",383,"37.csv","","null","resources/images/fishbone.png","null","",NA,NA,NA,NA,""
"image-keyboard-response",101,111296,"0.0-3.30-0.30","kwh4ucl74w2l0k4",383,"37.csv","","283.69999998807907","resources/trios/L2T4A1.jpg","38","restless",0.5,0.4,0.4,0.136501450670539,"true"
"image-keyboard-response",102,111701,"0.0-3.30-1.30","kwh4ucl74w2l0k4",383,"37.csv","","null","resources/maskTrios/BT4B.jpg","null","",NA,NA,NA,NA,""
"image-keyboard-response",103,112906,"0.0-3.30-2.30","kwh4ucl74w2l0k4",383,"37.csv","","null","resources/images/coin2.png","null","",NA,NA,NA,NA,""
"image-keyboard-response",104,113041,"0.0-3.31-0.31","kwh4ucl74w2l0k4",383,"37.csv","","132.69999998807907","resources/trios/L1T2A1.jpg","39","restless",0.5,0.4,0.4,0.609408327945979,"false"
"image-keyboard-response",105,113448,"0.0-3.31-1.31","kwh4ucl74w2l0k4",383,"37.csv","","null","resources/maskTrios/BBA1.jpg","null","",NA,NA,NA,NA,""
"image-keyboard-response",106,114653,"0.0-3.31-2.31","kwh4ucl74w2l0k4",383,"37.csv","","null","resources/images/fishbone.png","null","",NA,NA,NA,NA,""
"image-keyboard-response",107,115039,"0.0-3.32-0.32","kwh4ucl74w2l0k4",383,"37.csv","","383.89999997615814","resources/trios/L2T4A1.jpg","38","restless",0.5,0.4,0.4,0.106051013573521,"true"
"image-keyboard-response",108,115443,"0.0-3.32-1.32","kwh4ucl74w2l0k4",383,"37.csv","","null","resources/maskTrios/BT4B.jpg","null","",NA,NA,NA,NA,""
"image-keyboard-response",109,116648,"0.0-3.32-2.32","kwh4ucl74w2l0k4",383,"37.csv","","null","resources/images/coin2.png","null","",NA,NA,NA,NA,""
"image-keyboard-response",110,116975,"0.0-3.33-0.33","kwh4ucl74w2l0k4",383,"37.csv","","323.10000002384186","resources/trios/L1T2A1.jpg","37","restless",0.6,0.4,0.4,0.750550259039334,"false"
"image-keyboard-response",111,117383,"0.0-3.33-1.33","kwh4ucl74w2l0k4",383,"37.csv","","null","resources/maskTrios/L1BB.jpg","null","",NA,NA,NA,NA,""
"image-keyboard-response",112,118586,"0.0-3.33-2.33","kwh4ucl74w2l0k4",383,"37.csv","","null","resources/images/fishbone.png","null","",NA,NA,NA,NA,""
"image-keyboard-response",113,118875,"0.0-3.34-0.34","kwh4ucl74w2l0k4",383,"37.csv","","286.0999999642372","resources/trios/L1T4A2.jpg","38","restless",0.6,0.4,0.4,0.309249848548638,"true"
"image-keyboard-response",114,119281,"0.0-3.34-1.34","kwh4ucl74w2l0k4",383,"37.csv","","null","resources/maskTrios/BT4B.jpg","null","",NA,NA,NA,NA,""
"image-keyboard-response",115,120485,"0.0-3.34-2.34","kwh4ucl74w2l0k4",383,"37.csv","","null","resources/images/coin2.png","null","",NA,NA,NA,NA,""
"image-keyboard-response",116,120750,"0.0-3.35-0.35","kwh4ucl74w2l0k4",383,"37.csv","","262.5","resources/trios/L2T4A2.jpg","39","restless",0.6,0.4,0.4,0.223936632584821,"true"
"image-keyboard-response",117,121158,"0.0-3.35-1.35","kwh4ucl74w2l0k4",383,"37.csv","","null","resources/maskTrios/BBA2.jpg","null","",NA,NA,NA,NA,""
"image-keyboard-response",118,122362,"0.0-3.35-2.35","kwh4ucl74w2l0k4",383,"37.csv","","null","resources/images/coin2.png","null","",NA,NA,NA,NA,""
"image-keyboard-response",119,122610,"0.0-3.36-0.36","kwh4ucl74w2l0k4",383,"37.csv","","244.39999997615814","resources/trios/L2T4A2.jpg","38","restless",0.6,0.5,0.4,0.273670165146662,"true"
"image-keyboard-response",120,123018,"0.0-3.36-1.36","kwh4ucl74w2l0k4",383,"37.csv","","null","resources/maskTrios/BT4B.jpg","null","",NA,NA,NA,NA,""
"image-keyboard-response",121,124223,"0.0-3.36-2.36","kwh4ucl74w2l0k4",383,"37.csv","","null","resources/images/coin2.png","null","",NA,NA,NA,NA,""
"image-keyboard-response",122,124393,"0.0-3.37-0.37","kwh4ucl74w2l0k4",383,"37.csv","","167.89999997615814","resources/trios/L1T2A2.jpg","39","restless",0.5,0.4,0.4,0.654495344513915,"false"
"image-keyboard-response",123,124796,"0.0-3.37-1.37","kwh4ucl74w2l0k4",383,"37.csv","","null","resources/maskTrios/BBA2.jpg","null","",NA,NA,NA,NA,""
"image-keyboard-response",124,126001,"0.0-3.37-2.37","kwh4ucl74w2l0k4",383,"37.csv","","null","resources/images/fishbone.png","null","",NA,NA,NA,NA,""
"image-keyboard-response",125,126240,"0.0-3.38-0.38","kwh4ucl74w2l0k4",383,"37.csv","","235.80000001192093","resources/trios/L1T4A2.jpg","38","restless",0.5,0.4,0.4,0.481580320843553,"false"
"image-keyboard-response",126,126643,"0.0-3.38-1.38","kwh4ucl74w2l0k4",383,"37.csv","","null","resources/maskTrios/BT4B.jpg","null","",NA,NA,NA,NA,""
"image-keyboard-response",127,127846,"0.0-3.38-2.38","kwh4ucl74w2l0k4",383,"37.csv","","null","resources/images/fishbone.png","null","",NA,NA,NA,NA,""
"image-keyboard-response",128,128141,"0.0-3.39-0.39","kwh4ucl74w2l0k4",383,"37.csv","","293.0999999642372","resources/trios/L2T2A2.jpg","37","restless",0.5,0.4,0.3,0.0516961810284233,"true"
"image-keyboard-response",129,128543,"0.0-3.39-1.39","kwh4ucl74w2l0k4",383,"37.csv","","null","resources/maskTrios/L2BB.jpg","null","",NA,NA,NA,NA,""
"image-keyboard-response",130,129751,"0.0-3.39-2.39","kwh4ucl74w2l0k4",383,"37.csv","","null","resources/images/coin2.png","null","",NA,NA,NA,NA,""
"image-keyboard-response",131,130005,"0.0-3.40-0.40","kwh4ucl74w2l0k4",383,"37.csv","","251.5","resources/trios/L2T2A1.jpg","37","restless",0.5,0.4,0.3,0.432333687740376,"true"
"image-keyboard-response",132,130410,"0.0-3.40-1.40","kwh4ucl74w2l0k4",383,"37.csv","","null","resources/maskTrios/L2BB.jpg","null","",NA,NA,NA,NA,""
"image-keyboard-response",133,131614,"0.0-3.40-2.40","kwh4ucl74w2l0k4",383,"37.csv","","null","resources/images/coin2.png","null","",NA,NA,NA,NA,""
"image-keyboard-response",134,131929,"0.0-3.41-0.41","kwh4ucl74w2l0k4",383,"37.csv","","313.10000002384186","resources/trios/L1T4A2.jpg","38","restless",0.6,0.4,0.3,0.348633228045848,"true"
"image-keyboard-response",135,132335,"0.0-3.41-1.41","kwh4ucl74w2l0k4",383,"37.csv","","null","resources/maskTrios/BT4B.jpg","null","",NA,NA,NA,NA,""
"image-keyboard-response",136,133543,"0.0-3.41-2.41","kwh4ucl74w2l0k4",383,"37.csv","","null","resources/images/coin2.png","null","",NA,NA,NA,NA,""
"image-keyboard-response",137,133850,"0.0-3.42-0.42","kwh4ucl74w2l0k4",383,"37.csv","","304.39999997615814","resources/trios/L2T4A2.jpg","38","restless",0.6,0.4,0.3,0.429840319985009,"false"
"image-keyboard-response",138,134256,"0.0-3.42-1.42","kwh4ucl74w2l0k4",383,"37.csv","","null","resources/maskTrios/BT4B.jpg","null","",NA,NA,NA,NA,""
"image-keyboard-response",139,135460,"0.0-3.42-2.42","kwh4ucl74w2l0k4",383,"37.csv","","null","resources/images/fishbone.png","null","",NA,NA,NA,NA,""
"image-keyboard-response",140,135699,"0.0-3.43-0.43","kwh4ucl74w2l0k4",383,"37.csv","","236.30000001192093","resources/trios/L1T2A2.jpg","39","restless",0.6,0.3,0.3,0.550012103299992,"false"
"image-keyboard-response",141,136103,"0.0-3.43-1.43","kwh4ucl74w2l0k4",383,"37.csv","","null","resources/maskTrios/BBA2.jpg","null","",NA,NA,NA,NA,""
"image-keyboard-response",142,137310,"0.0-3.43-2.43","kwh4ucl74w2l0k4",383,"37.csv","","null","resources/images/fishbone.png","null","",NA,NA,NA,NA,""
"image-keyboard-response",143,137545,"0.0-3.44-0.44","kwh4ucl74w2l0k4",383,"37.csv","","232.69999998807907","resources/trios/L2T4A2.jpg","37","restless",0.5,0.4,0.3,0.667842019538283,"false"
"image-keyboard-response",144,137952,"0.0-3.44-1.44","kwh4ucl74w2l0k4",383,"37.csv","","null","resources/maskTrios/L2BB.jpg","null","",NA,NA,NA,NA,""
"image-keyboard-response",145,139155,"0.0-3.44-2.44","kwh4ucl74w2l0k4",383,"37.csv","","null","resources/images/fishbone.png","null","",NA,NA,NA,NA,""
"image-keyboard-response",146,139496,"0.0-3.45-0.45","kwh4ucl74w2l0k4",383,"37.csv","","338.4000000357628","resources/trios/L1T4A1.jpg","38","restless",0.5,0.4,0.3,0.128840560615678,"true"
"image-keyboard-response",147,139902,"0.0-3.45-1.45","kwh4ucl74w2l0k4",383,"37.csv","","null","resources/maskTrios/BT4B.jpg","null","",NA,NA,NA,NA,""
"image-keyboard-response",148,141108,"0.0-3.45-2.45","kwh4ucl74w2l0k4",383,"37.csv","","null","resources/images/coin2.png","null","",NA,NA,NA,NA,""
"image-keyboard-response",149,141437,"0.0-3.46-0.46","kwh4ucl74w2l0k4",383,"37.csv","","325.69999998807907","resources/trios/L2T2A2.jpg","38","restless",0.5,0.4,0.3,0.927248395921564,"false"
"image-keyboard-response",150,141844,"0.0-3.46-1.46","kwh4ucl74w2l0k4",383,"37.csv","","null","resources/maskTrios/BT2B.jpg","null","",NA,NA,NA,NA,""
"image-keyboard-response",151,143051,"0.0-3.46-2.46","kwh4ucl74w2l0k4",383,"37.csv","","null","resources/images/fishbone.png","null","",NA,NA,NA,NA,""
"image-keyboard-response",152,143180,"0.0-3.47-0.47","kwh4ucl74w2l0k4",383,"37.csv","","125.30000001192093","resources/trios/L1T2A2.jpg","39","restless",0.5,0.4,0.3,0.430602267005425,"false"
"image-keyboard-response",153,143584,"0.0-3.47-1.47","kwh4ucl74w2l0k4",383,"37.csv","","null","resources/maskTrios/BBA2.jpg","null","",NA,NA,NA,NA,""
"image-keyboard-response",154,144788,"0.0-3.47-2.47","kwh4ucl74w2l0k4",383,"37.csv","","null","resources/images/fishbone.png","null","",NA,NA,NA,NA,""
"image-keyboard-response",155,145042,"0.0-3.48-0.48","kwh4ucl74w2l0k4",383,"37.csv","","251.30000001192093","resources/trios/L1T4A1.jpg","37","restless",0.6,0.4,0.3,0.917221780270288,"false"
"image-keyboard-response",156,145449,"0.0-3.48-1.48","kwh4ucl74w2l0k4",383,"37.csv","","null","resources/maskTrios/L1BB.jpg","null","",NA,NA,NA,NA,""
"image-keyboard-response",157,146654,"0.0-3.48-2.48","kwh4ucl74w2l0k4",383,"37.csv","","null","resources/images/fishbone.png","null","",NA,NA,NA,NA,""
"image-keyboard-response",158,146941,"0.0-3.49-0.49","kwh4ucl74w2l0k4",383,"37.csv","","284.5999999642372","resources/trios/L1T2A1.jpg","39","restless",0.6,0.4,0.3,0.194725748696549,"true"
"image-keyboard-response",159,147349,"0.0-3.49-1.49","kwh4ucl74w2l0k4",383,"37.csv","","null","resources/maskTrios/BBA1.jpg","null","",NA,NA,NA,NA,""
"image-keyboard-response",160,148555,"0.0-3.49-2.49","kwh4ucl74w2l0k4",383,"37.csv","","null","resources/images/coin2.png","null","",NA,NA,NA,NA,""
"image-keyboard-response",161,149077,"0.0-3.50-0.50","kwh4ucl74w2l0k4",383,"37.csv","","518.8000000119209","resources/trios/L2T4A2.jpg","37","restless",0.6,0.4,0.3,0.631719988016074,"false"
"image-keyboard-response",162,149485,"0.0-3.50-1.50","kwh4ucl74w2l0k4",383,"37.csv","","null","resources/maskTrios/L2BB.jpg","null","",NA,NA,NA,NA,""
"image-keyboard-response",163,150689,"0.0-3.50-2.50","kwh4ucl74w2l0k4",383,"37.csv","","null","resources/images/fishbone.png","null","",NA,NA,NA,NA,""
"image-keyboard-response",164,150915,"0.0-3.51-0.51","kwh4ucl74w2l0k4",383,"37.csv","","223.5999999642372","resources/trios/L2T4A1.jpg","38","restless",0.7,0.4,0.3,0.222185545503464,"true"
"image-keyboard-response",165,151318,"0.0-3.51-1.51","kwh4ucl74w2l0k4",383,"37.csv","","null","resources/maskTrios/BT4B.jpg","null","",NA,NA,NA,NA,""
"image-keyboard-response",166,152522,"0.0-3.51-2.51","kwh4ucl74w2l0k4",383,"37.csv","","null","resources/images/coin2.png","null","",NA,NA,NA,NA,""
"image-keyboard-response",167,152726,"0.0-3.52-0.52","kwh4ucl74w2l0k4",383,"37.csv","","201.29999995231628","resources/trios/L1T4A2.jpg","39","restless",0.7,0.4,0.3,0.152072148266586,"true"
"image-keyboard-response",168,153130,"0.0-3.52-1.52","kwh4ucl74w2l0k4",383,"37.csv","","null","resources/maskTrios/BBA2.jpg","null","",NA,NA,NA,NA,""
"image-keyboard-response",169,154335,"0.0-3.52-2.52","kwh4ucl74w2l0k4",383,"37.csv","","null","resources/images/coin2.png","null","",NA,NA,NA,NA,""
"image-keyboard-response",170,154513,"0.0-3.53-0.53","kwh4ucl74w2l0k4",383,"37.csv","","175.39999997615814","resources/trios/L1T4A1.jpg","38","restless",0.7,0.4,0.4,0.82109362265545,"false"
"image-keyboard-response",171,154918,"0.0-3.53-1.53","kwh4ucl74w2l0k4",383,"37.csv","","null","resources/maskTrios/BT4B.jpg","null","",NA,NA,NA,NA,""
"image-keyboard-response",172,156122,"0.0-3.53-2.53","kwh4ucl74w2l0k4",383,"37.csv","","null","resources/images/fishbone.png","null","",NA,NA,NA,NA,""
"image-keyboard-response",173,156616,"0.0-3.54-0.54","kwh4ucl74w2l0k4",383,"37.csv","","492.10000002384186","resources/trios/L1T2A2.jpg","39","restless",0.7,0.5,0.4,0.428013646647204,"false"
"image-keyboard-response",174,157020,"0.0-3.54-1.54","kwh4ucl74w2l0k4",383,"37.csv","","null","resources/maskTrios/BBA2.jpg","null","",NA,NA,NA,NA,""
"image-keyboard-response",175,158226,"0.0-3.54-2.54","kwh4ucl74w2l0k4",383,"37.csv","","null","resources/images/fishbone.png","null","",NA,NA,NA,NA,""
"image-keyboard-response",176,158245,"0.0-3.55-0.55","kwh4ucl74w2l0k4",383,"37.csv","","16.19999998807907","resources/trios/L2T4A1.jpg","37","restless",0.7,0.5,0.4,0.174086658455376,"true"
"image-keyboard-response",177,158652,"0.0-3.55-1.55","kwh4ucl74w2l0k4",383,"37.csv","","null","resources/maskTrios/L2BB.jpg","null","",NA,NA,NA,NA,""
"image-keyboard-response",178,159854,"0.0-3.55-2.55","kwh4ucl74w2l0k4",383,"37.csv","","null","resources/images/coin2.png","null","",NA,NA,NA,NA,""
"image-keyboard-response",179,160207,"0.0-3.56-0.56","kwh4ucl74w2l0k4",383,"37.csv","","350.30000001192093","resources/trios/L1T4A2.jpg","38","restless",0.7,0.5,0.5,0.0927445238703608,"true"
"image-keyboard-response",180,160612,"0.0-3.56-1.56","kwh4ucl74w2l0k4",383,"37.csv","","null","resources/maskTrios/BT4B.jpg","null","",NA,NA,NA,NA,""
"image-keyboard-response",181,161818,"0.0-3.56-2.56","kwh4ucl74w2l0k4",383,"37.csv","","null","resources/images/coin2.png","null","",NA,NA,NA,NA,""
"image-keyboard-response",182,162174,"0.0-3.57-0.57","kwh4ucl74w2l0k4",383,"37.csv","","355.2999999523163","resources/trios/L1T2A2.jpg","38","restless",0.7,0.5,0.5,0.772678477238121,"false"
"image-keyboard-response",183,162581,"0.0-3.57-1.57","kwh4ucl74w2l0k4",383,"37.csv","","null","resources/maskTrios/BT2B.jpg","null","",NA,NA,NA,NA,""
"image-keyboard-response",184,163785,"0.0-3.57-2.57","kwh4ucl74w2l0k4",383,"37.csv","","null","resources/images/fishbone.png","null","",NA,NA,NA,NA,""
"image-keyboard-response",185,164155,"0.0-3.58-0.58","kwh4ucl74w2l0k4",383,"37.csv","","367","resources/trios/L2T2A1.jpg","39","restless",0.7,0.5,0.6,0.801188438527815,"false"
"image-keyboard-response",186,164560,"0.0-3.58-1.58","kwh4ucl74w2l0k4",383,"37.csv","","null","resources/maskTrios/BBA1.jpg","null","",NA,NA,NA,NA,""
"image-keyboard-response",187,165766,"0.0-3.58-2.58","kwh4ucl74w2l0k4",383,"37.csv","","null","resources/images/fishbone.png","null","",NA,NA,NA,NA,""
"image-keyboard-response",188,166067,"0.0-3.59-0.59","kwh4ucl74w2l0k4",383,"37.csv","","297.5","resources/trios/L1T4A1.jpg","37","restless",0.7,0.5,0.6,0.581025859891852,"true"
"image-keyboard-response",189,166475,"0.0-3.59-1.59","kwh4ucl74w2l0k4",383,"37.csv","","null","resources/maskTrios/L1BB.jpg","null","",NA,NA,NA,NA,""
"image-keyboard-response",190,167680,"0.0-3.59-2.59","kwh4ucl74w2l0k4",383,"37.csv","","null","resources/images/coin2.png","null","",NA,NA,NA,NA,""
"image-keyboard-response",191,167770,"0.0-3.60-0.60","kwh4ucl74w2l0k4",383,"37.csv","","86.70000004768372","resources/trios/L2T2A1.jpg","37","restless",0.7,0.5,0.6,0.995633229398634,"false"
"image-keyboard-response",192,168176,"0.0-3.60-1.60","kwh4ucl74w2l0k4",383,"37.csv","","null","resources/maskTrios/L2BB.jpg","null","",NA,NA,NA,NA,""
"image-keyboard-response",193,169384,"0.0-3.60-2.60","kwh4ucl74w2l0k4",383,"37.csv","","null","resources/images/fishbone.png","null","",NA,NA,NA,NA,""
"image-keyboard-response",194,169675,"0.0-3.61-0.61","kwh4ucl74w2l0k4",383,"37.csv","","288","resources/trios/L2T2A2.jpg","38","restless",0.7,0.5,0.6,0.412159448684412,"true"
"image-keyboard-response",195,170086,"0.0-3.61-1.61","kwh4ucl74w2l0k4",383,"37.csv","","null","resources/maskTrios/BT2B.jpg","null","",NA,NA,NA,NA,""
"image-keyboard-response",196,171294,"0.0-3.61-2.61","kwh4ucl74w2l0k4",383,"37.csv","","null","resources/images/coin2.png","null","",NA,NA,NA,NA,""
"image-keyboard-response",197,171617,"0.0-3.62-0.62","kwh4ucl74w2l0k4",383,"37.csv","","320.30000001192093","resources/trios/L1T2A2.jpg","39","restless",0.8,0.5,0.6,0.964884585928377,"false"
"image-keyboard-response",198,172024,"0.0-3.62-1.62","kwh4ucl74w2l0k4",383,"37.csv","","null","resources/maskTrios/BBA2.jpg","null","",NA,NA,NA,NA,""
"image-keyboard-response",199,173227,"0.0-3.62-2.62","kwh4ucl74w2l0k4",383,"37.csv","","null","resources/images/fishbone.png","null","",NA,NA,NA,NA,""
"image-keyboard-response",200,173477,"0.0-3.63-0.63","kwh4ucl74w2l0k4",383,"37.csv","","247.89999997615814","resources/trios/L1T4A2.jpg","38","restless",0.8,0.5,0.6,0.374186265119353,"true"
"image-keyboard-response",201,173885,"0.0-3.63-1.63","kwh4ucl74w2l0k4",383,"37.csv","","null","resources/maskTrios/BT4B.jpg","null","",NA,NA,NA,NA,""
"image-keyboard-response",202,175088,"0.0-3.63-2.63","kwh4ucl74w2l0k4",383,"37.csv","","null","resources/images/coin2.png","null","",NA,NA,NA,NA,""
"image-keyboard-response",203,175178,"0.0-3.64-0.64","kwh4ucl74w2l0k4",383,"37.csv","","87.39999997615814","resources/trios/L1T4A2.jpg","37","restless",0.8,0.5,0.6,0.602535907231892,"true"
"image-keyboard-response",204,175585,"0.0-3.64-1.64","kwh4ucl74w2l0k4",383,"37.csv","","null","resources/maskTrios/L1BB.jpg","null","",NA,NA,NA,NA,""
"image-keyboard-response",205,176793,"0.0-3.64-2.64","kwh4ucl74w2l0k4",383,"37.csv","","null","resources/images/coin2.png","null","",NA,NA,NA,NA,""
"image-keyboard-response",206,176813,"0.0-3.65-0.65","kwh4ucl74w2l0k4",383,"37.csv","","17.5","resources/trios/L1T2A1.jpg","38","restless",0.8,0.5,0.6,0.0090675014729642,"true"
"image-keyboard-response",207,177218,"0.0-3.65-1.65","kwh4ucl74w2l0k4",383,"37.csv","","null","resources/maskTrios/BT2B.jpg","null","",NA,NA,NA,NA,""
"image-keyboard-response",208,178421,"0.0-3.65-2.65","kwh4ucl74w2l0k4",383,"37.csv","","null","resources/images/coin2.png","null","",NA,NA,NA,NA,""
"image-keyboard-response",209,178779,"0.0-3.66-0.66","kwh4ucl74w2l0k4",383,"37.csv","","355.10000002384186","resources/trios/L2T4A2.jpg","39","restless",0.8,0.5,0.6,0.149656045719609,"true"
"image-keyboard-response",210,179186,"0.0-3.66-1.66","kwh4ucl74w2l0k4",383,"37.csv","","null","resources/maskTrios/BBA2.jpg","null","",NA,NA,NA,NA,""
"image-keyboard-response",211,180393,"0.0-3.66-2.66","kwh4ucl74w2l0k4",383,"37.csv","","null","resources/images/coin2.png","null","",NA,NA,NA,NA,""
"image-keyboard-response",212,180696,"0.0-3.67-0.67","kwh4ucl74w2l0k4",383,"37.csv","","299.5","resources/trios/L1T4A2.jpg","38","restless",0.8,0.5,0.6,0.843113623375201,"false"
"image-keyboard-response",213,181102,"0.0-3.67-1.67","kwh4ucl74w2l0k4",383,"37.csv","","null","resources/maskTrios/BT4B.jpg","null","",NA,NA,NA,NA,""
"image-keyboard-response",214,182304,"0.0-3.67-2.67","kwh4ucl74w2l0k4",383,"37.csv","","null","resources/images/fishbone.png","null","",NA,NA,NA,NA,""
"image-keyboard-response",215,182594,"0.0-3.68-0.68","kwh4ucl74w2l0k4",383,"37.csv","","286.19999998807907","resources/trios/L2T2A2.jpg","37","restless",0.8,0.5,0.6,0.0689700047666799,"true"
"image-keyboard-response",216,182995,"0.0-3.68-1.68","kwh4ucl74w2l0k4",383,"37.csv","","null","resources/maskTrios/L2BB.jpg","null","",NA,NA,NA,NA,""
"image-keyboard-response",217,184202,"0.0-3.68-2.68","kwh4ucl74w2l0k4",383,"37.csv","","null","resources/images/coin2.png","null","",NA,NA,NA,NA,""
"image-keyboard-response",218,184514,"0.0-3.69-0.69","kwh4ucl74w2l0k4",383,"37.csv","","309.2000000476837","resources/trios/L2T2A2.jpg","38","restless",0.8,0.5,0.6,0.22056157933464,"true"
"image-keyboard-response",219,184920,"0.0-3.69-1.69","kwh4ucl74w2l0k4",383,"37.csv","","null","resources/maskTrios/BT2B.jpg","null","",NA,NA,NA,NA,""
"image-keyboard-response",220,186127,"0.0-3.69-2.69","kwh4ucl74w2l0k4",383,"37.csv","","null","resources/images/coin2.png","null","",NA,NA,NA,NA,""
"image-keyboard-response",221,186276,"0.0-3.70-0.70","kwh4ucl74w2l0k4",383,"37.csv","","146.10000002384186","resources/trios/L2T2A2.jpg","39","restless",0.8,0.5,0.7,0.998055620935792,"false"
"image-keyboard-response",222,186681,"0.0-3.70-1.70","kwh4ucl74w2l0k4",383,"37.csv","","null","resources/maskTrios/BBA2.jpg","null","",NA,NA,NA,NA,""
"image-keyboard-response",223,187885,"0.0-3.70-2.70","kwh4ucl74w2l0k4",383,"37.csv","","null","resources/images/fishbone.png","null","",NA,NA,NA,NA,""
"image-keyboard-response",224,188137,"0.0-3.71-0.71","kwh4ucl74w2l0k4",383,"37.csv","","249.19999998807907","resources/trios/L2T4A1.jpg","38","restless",0.8,0.5,0.7,0.0191196349282761,"true"
"image-keyboard-response",225,188543,"0.0-3.71-1.71","kwh4ucl74w2l0k4",383,"37.csv","","null","resources/maskTrios/BT4B.jpg","null","",NA,NA,NA,NA,""
"image-keyboard-response",226,189747,"0.0-3.71-2.71","kwh4ucl74w2l0k4",383,"37.csv","","null","resources/images/coin2.png","null","",NA,NA,NA,NA,""
"image-keyboard-response",227,189807,"0.0-3.72-0.72","kwh4ucl74w2l0k4",383,"37.csv","","56.5","resources/trios/L2T4A2.jpg","37","restless",0.8,0.5,0.7,0.96697892405412,"false"
"image-keyboard-response",228,190210,"0.0-3.72-1.72","kwh4ucl74w2l0k4",383,"37.csv","","null","resources/maskTrios/L2BB.jpg","null","",NA,NA,NA,NA,""
"image-keyboard-response",229,191413,"0.0-3.72-2.72","kwh4ucl74w2l0k4",383,"37.csv","","null","resources/images/fishbone.png","null","",NA,NA,NA,NA,""
"image-keyboard-response",230,192563,"0.0-3.73-0.73","kwh4ucl74w2l0k4",383,"37.csv","","1147.300000011921","resources/trios/L1T4A2.jpg","38","restless",0.8,0.5,0.7,0.271430485491317,"true"
"image-keyboard-response",231,192969,"0.0-3.73-1.73","kwh4ucl74w2l0k4",383,"37.csv","","null","resources/maskTrios/BT4B.jpg","null","",NA,NA,NA,NA,""
"image-keyboard-response",232,194176,"0.0-3.73-2.73","kwh4ucl74w2l0k4",383,"37.csv","","null","resources/images/coin2.png","null","",NA,NA,NA,NA,""
"image-keyboard-response",233,194475,"0.0-3.74-0.74","kwh4ucl74w2l0k4",383,"37.csv","","297.19999998807907","resources/trios/L1T2A1.jpg","38","restless",0.8,0.5,0.7,0.806511132520337,"false"
"image-keyboard-response",234,194882,"0.0-3.74-1.74","kwh4ucl74w2l0k4",383,"37.csv","","null","resources/maskTrios/BT2B.jpg","null","",NA,NA,NA,NA,""
"image-keyboard-response",235,196087,"0.0-3.74-2.74","kwh4ucl74w2l0k4",383,"37.csv","","null","resources/images/fishbone.png","null","",NA,NA,NA,NA,""
"image-keyboard-response",236,196768,"0.0-3.75-0.75","kwh4ucl74w2l0k4",383,"37.csv","","677.3000000119209","resources/trios/L1T4A1.jpg","39","restless",0.8,0.5,0.7,0.033366530195349,"true"
"image-keyboard-response",237,197175,"0.0-3.75-1.75","kwh4ucl74w2l0k4",383,"37.csv","","null","resources/maskTrios/BBA1.jpg","null","",NA,NA,NA,NA,""
"image-keyboard-response",238,198379,"0.0-3.75-2.75","kwh4ucl74w2l0k4",383,"37.csv","","null","resources/images/coin2.png","null","",NA,NA,NA,NA,""
"image-keyboard-response",239,198688,"0.0-3.76-0.76","kwh4ucl74w2l0k4",383,"37.csv","","306.5999999642372","resources/trios/L1T4A1.jpg","38","restless",0.8,0.5,0.7,0.129063167200185,"true"
"image-keyboard-response",240,199093,"0.0-3.76-1.76","kwh4ucl74w2l0k4",383,"37.csv","","null","resources/maskTrios/BT4B.jpg","null","",NA,NA,NA,NA,""
"image-keyboard-response",241,200302,"0.0-3.76-2.76","kwh4ucl74w2l0k4",383,"37.csv","","null","resources/images/coin2.png","null","",NA,NA,NA,NA,""
"image-keyboard-response",242,200654,"0.0-3.77-0.77","kwh4ucl74w2l0k4",383,"37.csv","","350.10000002384186","resources/trios/L1T2A2.jpg","38","restless",0.8,0.5,0.6,0.0679710145531507,"true"
"image-keyboard-response",243,201060,"0.0-3.77-1.77","kwh4ucl74w2l0k4",383,"37.csv","","null","resources/maskTrios/BT2B.jpg","null","",NA,NA,NA,NA,""
"image-keyboard-response",244,202265,"0.0-3.77-2.77","kwh4ucl74w2l0k4",383,"37.csv","","null","resources/images/coin2.png","null","",NA,NA,NA,NA,""
"image-keyboard-response",245,202954,"0.0-3.78-0.78","kwh4ucl74w2l0k4",383,"37.csv","","686.3999999761581","resources/trios/L1T2A2.jpg","38","restless",0.8,0.5,0.6,0.378397998979305,"true"
"image-keyboard-response",246,203360,"0.0-3.78-1.78","kwh4ucl74w2l0k4",383,"37.csv","","null","resources/maskTrios/BT2B.jpg","null","",NA,NA,NA,NA,""
"image-keyboard-response",247,204568,"0.0-3.78-2.78","kwh4ucl74w2l0k4",383,"37.csv","","null","resources/images/coin2.png","null","",NA,NA,NA,NA,""
"image-keyboard-response",248,205322,"0.0-3.79-0.79","kwh4ucl74w2l0k4",383,"37.csv","","751.1999999880791","resources/trios/L2T2A1.jpg","38","restless",0.8,0.5,0.6,0.218009705589492,"true"
"image-keyboard-response",249,205727,"0.0-3.79-1.79","kwh4ucl74w2l0k4",383,"37.csv","","null","resources/maskTrios/BT2B.jpg","null","",NA,NA,NA,NA,""
"image-keyboard-response",250,206934,"0.0-3.79-2.79","kwh4ucl74w2l0k4",383,"37.csv","","null","resources/images/coin2.png","null","",NA,NA,NA,NA,""
"image-keyboard-response",251,207292,"0.0-3.80-0.80","kwh4ucl74w2l0k4",383,"37.csv","","354.5999999642372","resources/trios/L1T2A2.jpg","38","restless",0.8,0.5,0.6,0.172895322251964,"true"
"image-keyboard-response",252,207697,"0.0-3.80-1.80","kwh4ucl74w2l0k4",383,"37.csv","","null","resources/maskTrios/BT2B.jpg","null","",NA,NA,NA,NA,""
"image-keyboard-response",253,208903,"0.0-3.80-2.80","kwh4ucl74w2l0k4",383,"37.csv","","null","resources/images/coin2.png","null","",NA,NA,NA,NA,""
"image-keyboard-response",254,209266,"0.0-3.81-0.81","kwh4ucl74w2l0k4",383,"37.csv","","358.10000002384186","resources/trios/L2T2A1.jpg","38","restless",0.8,0.5,0.5,0.402632228597659,"true"
"image-keyboard-response",255,209671,"0.0-3.81-1.81","kwh4ucl74w2l0k4",383,"37.csv","","null","resources/maskTrios/BT2B.jpg","null","",NA,NA,NA,NA,""
"image-keyboard-response",256,210876,"0.0-3.81-2.81","kwh4ucl74w2l0k4",383,"37.csv","","null","resources/images/coin2.png","null","",NA,NA,NA,NA,""
"image-keyboard-response",257,211225,"0.0-3.82-0.82","kwh4ucl74w2l0k4",383,"37.csv","","345.60000002384186","resources/trios/L2T2A2.jpg","38","restless",0.8,0.5,0.4,0.933399798082289,"false"
"image-keyboard-response",258,211628,"0.0-3.82-1.82","kwh4ucl74w2l0k4",383,"37.csv","","null","resources/maskTrios/BT2B.jpg","null","",NA,NA,NA,NA,""
"image-keyboard-response",259,212834,"0.0-3.82-2.82","kwh4ucl74w2l0k4",383,"37.csv","","null","resources/images/fishbone.png","null","",NA,NA,NA,NA,""
"image-keyboard-response",260,212982,"0.0-3.83-0.83","kwh4ucl74w2l0k4",383,"37.csv","","145.20000004768372","resources/trios/L2T2A2.jpg","37","restless",0.8,0.5,0.4,0.58449100911303,"true"
"image-keyboard-response",261,213386,"0.0-3.83-1.83","kwh4ucl74w2l0k4",383,"37.csv","","null","resources/maskTrios/L2BB.jpg","null","",NA,NA,NA,NA,""
"image-keyboard-response",262,214592,"0.0-3.83-2.83","kwh4ucl74w2l0k4",383,"37.csv","","null","resources/images/coin2.png","null","",NA,NA,NA,NA,""
"image-keyboard-response",263,214971,"0.0-3.84-0.84","kwh4ucl74w2l0k4",383,"37.csv","","375.19999998807907","resources/trios/L1T4A1.jpg","38","restless",0.8,0.5,0.4,0.489660841785239,"true"
"image-keyboard-response",264,215378,"0.0-3.84-1.84","kwh4ucl74w2l0k4",383,"37.csv","","null","resources/maskTrios/BT4B.jpg","null","",NA,NA,NA,NA,""
"image-keyboard-response",265,216584,"0.0-3.84-2.84","kwh4ucl74w2l0k4",383,"37.csv","","null","resources/images/coin2.png","null","",NA,NA,NA,NA,""
"image-keyboard-response",266,216923,"0.0-3.85-0.85","kwh4ucl74w2l0k4",383,"37.csv","","335.80000001192093","resources/trios/L1T2A2.jpg","38","restless",0.8,0.5,0.4,0.242344417881607,"true"
"image-keyboard-response",267,217327,"0.0-3.85-1.85","kwh4ucl74w2l0k4",383,"37.csv","","null","resources/maskTrios/BT2B.jpg","null","",NA,NA,NA,NA,""
"image-keyboard-response",268,218534,"0.0-3.85-2.85","kwh4ucl74w2l0k4",383,"37.csv","","null","resources/images/coin2.png","null","",NA,NA,NA,NA,""
"image-keyboard-response",269,218895,"0.0-3.86-0.86","kwh4ucl74w2l0k4",383,"37.csv","","357.69999998807907","resources/trios/L1T4A1.jpg","39","restless",0.8,0.5,0.4,0.960185850748994,"false"
"image-keyboard-response",270,219302,"0.0-3.86-1.86","kwh4ucl74w2l0k4",383,"37.csv","","null","resources/maskTrios/BBA1.jpg","null","",NA,NA,NA,NA,""
"image-keyboard-response",271,220509,"0.0-3.86-2.86","kwh4ucl74w2l0k4",383,"37.csv","","null","resources/images/fishbone.png","null","",NA,NA,NA,NA,""
"image-keyboard-response",272,220728,"0.0-3.87-0.87","kwh4ucl74w2l0k4",383,"37.csv","","216.30000001192093","resources/trios/L1T4A1.jpg","38","restless",0.8,0.5,0.5,0.673343558141572,"false"
"image-keyboard-response",273,221135,"0.0-3.87-1.87","kwh4ucl74w2l0k4",383,"37.csv","","null","resources/maskTrios/BT4B.jpg","null","",NA,NA,NA,NA,""
"image-keyboard-response",274,222342,"0.0-3.87-2.87","kwh4ucl74w2l0k4",383,"37.csv","","null","resources/images/fishbone.png","null","",NA,NA,NA,NA,""
"image-keyboard-response",275,222690,"0.0-3.88-0.88","kwh4ucl74w2l0k4",383,"37.csv","","345.10000002384186","resources/trios/L2T2A2.jpg","37","restless",0.9,0.5,0.5,0.0673083238986316,"true"
"image-keyboard-response",276,223094,"0.0-3.88-1.88","kwh4ucl74w2l0k4",383,"37.csv","","null","resources/maskTrios/L2BB.jpg","null","",NA,NA,NA,NA,""
"image-keyboard-response",277,224301,"0.0-3.88-2.88","kwh4ucl74w2l0k4",383,"37.csv","","null","resources/images/coin2.png","null","",NA,NA,NA,NA,""
"image-keyboard-response",278,224419,"0.0-3.89-0.89","kwh4ucl74w2l0k4",383,"37.csv","","114.60000002384186","resources/trios/L1T4A1.jpg","38","restless",0.9,0.5,0.5,0.457157265578937,"true"
"image-keyboard-response",279,224821,"0.0-3.89-1.89","kwh4ucl74w2l0k4",383,"37.csv","","null","resources/maskTrios/BT4B.jpg","null","",NA,NA,NA,NA,""
"image-keyboard-response",280,226027,"0.0-3.89-2.89","kwh4ucl74w2l0k4",383,"37.csv","","null","resources/images/coin2.png","null","",NA,NA,NA,NA,""
"image-keyboard-response",281,226307,"0.0-3.90-0.90","kwh4ucl74w2l0k4",383,"37.csv","","278.80000001192093","resources/trios/L2T4A2.jpg","39","restless",0.9,0.5,0.5,0.0893759367046336,"true"
"image-keyboard-response",282,226713,"0.0-3.90-1.90","kwh4ucl74w2l0k4",383,"37.csv","","null","resources/maskTrios/BBA2.jpg","null","",NA,NA,NA,NA,""
"image-keyboard-response",283,227919,"0.0-3.90-2.90","kwh4ucl74w2l0k4",383,"37.csv","","null","resources/images/coin2.png","null","",NA,NA,NA,NA,""
"image-keyboard-response",284,228328,"0.0-3.91-0.91","kwh4ucl74w2l0k4",383,"37.csv","","406.80000001192093","resources/trios/L1T2A1.jpg","38","restless",0.9,0.5,0.5,0.467886840281981,"true"
"image-keyboard-response",285,228734,"0.0-3.91-1.91","kwh4ucl74w2l0k4",383,"37.csv","","null","resources/maskTrios/BT2B.jpg","null","",NA,NA,NA,NA,""
"image-keyboard-response",286,229938,"0.0-3.91-2.91","kwh4ucl74w2l0k4",383,"37.csv","","null","resources/images/coin2.png","null","",NA,NA,NA,NA,""
"image-keyboard-response",287,230382,"0.0-3.92-0.92","kwh4ucl74w2l0k4",383,"37.csv","","440.39999997615814","resources/trios/L2T4A2.jpg","37","restless",0.9,0.5,0.5,0.420531134642505,"true"
"image-keyboard-response",288,230787,"0.0-3.92-1.92","kwh4ucl74w2l0k4",383,"37.csv","","null","resources/maskTrios/L2BB.jpg","null","",NA,NA,NA,NA,""
"image-keyboard-response",289,231993,"0.0-3.92-2.92","kwh4ucl74w2l0k4",383,"37.csv","","null","resources/images/coin2.png","null","",NA,NA,NA,NA,""
"image-keyboard-response",290,232296,"0.0-3.93-0.93","kwh4ucl74w2l0k4",383,"37.csv","","300.69999998807907","resources/trios/L2T4A2.jpg","38","restless",0.9,0.5,0.5,0.0974744156231719,"true"
"image-keyboard-response",291,232701,"0.0-3.93-1.93","kwh4ucl74w2l0k4",383,"37.csv","","null","resources/maskTrios/BT4B.jpg","null","",NA,NA,NA,NA,""
"image-keyboard-response",292,233906,"0.0-3.93-2.93","kwh4ucl74w2l0k4",383,"37.csv","","null","resources/images/coin2.png","null","",NA,NA,NA,NA,""
"image-keyboard-response",293,234175,"0.0-3.94-0.94","kwh4ucl74w2l0k4",383,"37.csv","","266.2999999523163","resources/trios/L2T2A1.jpg","39","restless",0.9,0.5,0.5,0.760106137715203,"false"
"image-keyboard-response",294,234584,"0.0-3.94-1.94","kwh4ucl74w2l0k4",383,"37.csv","","null","resources/maskTrios/BBA1.jpg","null","",NA,NA,NA,NA,""
"image-keyboard-response",295,235787,"0.0-3.94-2.94","kwh4ucl74w2l0k4",383,"37.csv","","null","resources/images/fishbone.png","null","",NA,NA,NA,NA,""
"image-keyboard-response",296,236042,"0.0-3.95-0.95","kwh4ucl74w2l0k4",383,"37.csv","","251.80000001192093","resources/trios/L2T4A1.jpg","38","restless",0.8,0.5,0.5,0.625646414743786,"false"
"image-keyboard-response",297,236449,"0.0-3.95-1.95","kwh4ucl74w2l0k4",383,"37.csv","","null","resources/maskTrios/BT4B.jpg","null","",NA,NA,NA,NA,""
"image-keyboard-response",298,237657,"0.0-3.95-2.95","kwh4ucl74w2l0k4",383,"37.csv","","null","resources/images/fishbone.png","null","",NA,NA,NA,NA,""
"image-keyboard-response",299,238603,"0.0-3.96-0.96","kwh4ucl74w2l0k4",383,"37.csv","","943.3000000119209","resources/trios/L1T4A1.jpg","38","restless",0.8,0.5,0.5,0.47167451967483,"true"
"image-keyboard-response",300,239009,"0.0-3.96-1.96","kwh4ucl74w2l0k4",383,"37.csv","","null","resources/maskTrios/BT4B.jpg","null","",NA,NA,NA,NA,""
"image-keyboard-response",301,240217,"0.0-3.96-2.96","kwh4ucl74w2l0k4",383,"37.csv","","null","resources/images/coin2.png","null","",NA,NA,NA,NA,""
"image-keyboard-response",302,240791,"0.0-3.97-0.97","kwh4ucl74w2l0k4",383,"37.csv","","570.6999999880791","resources/trios/L2T2A1.jpg","38","restless",0.7,0.5,0.5,0.333380404403841,"true"
"image-keyboard-response",303,241199,"0.0-3.97-1.97","kwh4ucl74w2l0k4",383,"37.csv","","null","resources/maskTrios/BT2B.jpg","null","",NA,NA,NA,NA,""
"image-keyboard-response",304,242408,"0.0-3.97-2.97","kwh4ucl74w2l0k4",383,"37.csv","","null","resources/images/coin2.png","null","",NA,NA,NA,NA,""
"image-keyboard-response",305,244125,"0.0-3.98-0.98","kwh4ucl74w2l0k4",383,"37.csv","","1713.699999988079","resources/trios/L2T4A2.jpg","38","restless",0.7,0.5,0.5,0.119905295391146,"true"
"image-keyboard-response",306,244528,"0.0-3.98-1.98","kwh4ucl74w2l0k4",383,"37.csv","","null","resources/maskTrios/BT4B.jpg","null","",NA,NA,NA,NA,""
"image-keyboard-response",307,245734,"0.0-3.98-2.98","kwh4ucl74w2l0k4",383,"37.csv","","null","resources/images/coin2.png","null","",NA,NA,NA,NA,""
"image-keyboard-response",308,249998,"0.0-3.99-0.99","kwh4ucl74w2l0k4",383,"37.csv","","4261.100000023842","resources/trios/L1T4A1.jpg","38","restless",0.7,0.5,0.5,0.705195638068169,"false"
"image-keyboard-response",309,250401,"0.0-3.99-1.99","kwh4ucl74w2l0k4",383,"37.csv","","null","resources/maskTrios/BT4B.jpg","null","",NA,NA,NA,NA,""
"image-keyboard-response",310,251605,"0.0-3.99-2.99","kwh4ucl74w2l0k4",383,"37.csv","","null","resources/images/fishbone.png","null","",NA,NA,NA,NA,""
"image-keyboard-response",311,252249,"0.0-3.100-0.100","kwh4ucl74w2l0k4",383,"37.csv","","640.7999999523163","resources/trios/L2T2A1.jpg","39","restless",0.7,0.5,0.5,0.536267823579363,"false"
"image-keyboard-response",312,252655,"0.0-3.100-1.100","kwh4ucl74w2l0k4",383,"37.csv","","null","resources/maskTrios/BBA1.jpg","null","",NA,NA,NA,NA,""
"image-keyboard-response",313,253861,"0.0-3.100-2.100","kwh4ucl74w2l0k4",383,"37.csv","","null","resources/images/fishbone.png","null","",NA,NA,NA,NA,""
"image-keyboard-response",314,253891,"0.0-3.101-0.101","kwh4ucl74w2l0k4",383,"37.csv","","27.600000023841858","resources/trios/L1T2A2.jpg","38","restless",0.7,0.5,0.6,0.0719750649621522,"true"
"image-keyboard-response",315,254298,"0.0-3.101-1.101","kwh4ucl74w2l0k4",383,"37.csv","","null","resources/maskTrios/BT2B.jpg","null","",NA,NA,NA,NA,""
"image-keyboard-response",316,255502,"0.0-3.101-2.101","kwh4ucl74w2l0k4",383,"37.csv","","null","resources/images/coin2.png","null","",NA,NA,NA,NA,""
"image-keyboard-response",317,255742,"0.0-3.102-0.102","kwh4ucl74w2l0k4",383,"37.csv","","236.4000000357628","resources/trios/L1T2A2.jpg","37","restless",0.7,0.5,0.6,0.220951459686747,"true"
"image-keyboard-response",318,256145,"0.0-3.102-1.102","kwh4ucl74w2l0k4",383,"37.csv","","null","resources/maskTrios/L1BB.jpg","null","",NA,NA,NA,NA,""
"image-keyboard-response",319,257353,"0.0-3.102-2.102","kwh4ucl74w2l0k4",383,"37.csv","","null","resources/images/coin2.png","null","",NA,NA,NA,NA,""
"image-keyboard-response",320,257496,"0.0-3.103-0.103","kwh4ucl74w2l0k4",383,"37.csv","","139.69999998807907","resources/trios/L2T2A1.jpg","38","restless",0.7,0.5,0.6,0.362019153122669,"true"
"image-keyboard-response",321,257901,"0.0-3.103-1.103","kwh4ucl74w2l0k4",383,"37.csv","","null","resources/maskTrios/BT2B.jpg","null","",NA,NA,NA,NA,""
"image-keyboard-response",322,259109,"0.0-3.103-2.103","kwh4ucl74w2l0k4",383,"37.csv","","null","resources/images/coin2.png","null","",NA,NA,NA,NA,""
"image-keyboard-response",323,259674,"0.0-3.104-0.104","kwh4ucl74w2l0k4",383,"37.csv","","562.2000000476837","resources/trios/L1T4A1.jpg","39","restless",0.7,0.5,0.5,0.531181537061559,"false"
"image-keyboard-response",324,260077,"0.0-3.104-1.104","kwh4ucl74w2l0k4",383,"37.csv","","null","resources/maskTrios/BBA1.jpg","null","",NA,NA,NA,NA,""
"image-keyboard-response",325,261284,"0.0-3.104-2.104","kwh4ucl74w2l0k4",383,"37.csv","","null","resources/images/fishbone.png","null","",NA,NA,NA,NA,""
"image-keyboard-response",326,261595,"0.0-3.105-0.105","kwh4ucl74w2l0k4",383,"37.csv","","308","resources/trios/L1T4A1.jpg","38","restless",0.7,0.5,0.5,0.653526225251116,"false"
"image-keyboard-response",327,262001,"0.0-3.105-1.105","kwh4ucl74w2l0k4",383,"37.csv","","null","resources/maskTrios/BT4B.jpg","null","",NA,NA,NA,NA,""
"image-keyboard-response",328,263204,"0.0-3.105-2.105","kwh4ucl74w2l0k4",383,"37.csv","","null","resources/images/fishbone.png","null","",NA,NA,NA,NA,""
"image-keyboard-response",329,263408,"0.0-3.106-0.106","kwh4ucl74w2l0k4",383,"37.csv","","201.39999997615814","resources/trios/L2T4A1.jpg","37","restless",0.7,0.5,0.5,0.16035407407521,"true"
"image-keyboard-response",330,263814,"0.0-3.106-1.106","kwh4ucl74w2l0k4",383,"37.csv","","null","resources/maskTrios/L2BB.jpg","null","",NA,NA,NA,NA,""
"image-keyboard-response",331,265018,"0.0-3.106-2.106","kwh4ucl74w2l0k4",383,"37.csv","","null","resources/images/coin2.png","null","",NA,NA,NA,NA,""
"image-keyboard-response",332,265282,"0.0-3.107-0.107","kwh4ucl74w2l0k4",383,"37.csv","","261.69999998807907","resources/trios/L2T4A1.jpg","38","restless",0.7,0.5,0.5,0.565066974519437,"false"
"image-keyboard-response",333,265688,"0.0-3.107-1.107","kwh4ucl74w2l0k4",383,"37.csv","","null","resources/maskTrios/BT4B.jpg","null","",NA,NA,NA,NA,""
"image-keyboard-response",334,266892,"0.0-3.107-2.107","kwh4ucl74w2l0k4",383,"37.csv","","null","resources/images/fishbone.png","null","",NA,NA,NA,NA,""
"image-keyboard-response",335,267107,"0.0-3.108-0.108","kwh4ucl74w2l0k4",383,"37.csv","","213.30000001192093","resources/trios/L1T4A1.jpg","39","restless",0.7,0.4,0.5,0.477657025453876,"true"
"image-keyboard-response",336,267513,"0.0-3.108-1.108","kwh4ucl74w2l0k4",383,"37.csv","","null","resources/maskTrios/BBA1.jpg","null","",NA,NA,NA,NA,""
"image-keyboard-response",337,268718,"0.0-3.108-2.108","kwh4ucl74w2l0k4",383,"37.csv","","null","resources/images/coin2.png","null","",NA,NA,NA,NA,""
"image-keyboard-response",338,269015,"0.0-3.109-0.109","kwh4ucl74w2l0k4",383,"37.csv","","294.5","resources/trios/L2T4A1.jpg","38","restless",0.7,0.4,0.6,0.269322489077138,"true"
"image-keyboard-response",339,269418,"0.0-3.109-1.109","kwh4ucl74w2l0k4",383,"37.csv","","null","resources/maskTrios/BT4B.jpg","null","",NA,NA,NA,NA,""
"image-keyboard-response",340,270626,"0.0-3.109-2.109","kwh4ucl74w2l0k4",383,"37.csv","","null","resources/images/coin2.png","null","",NA,NA,NA,NA,""
"image-keyboard-response",341,270868,"0.0-3.110-0.110","kwh4ucl74w2l0k4",383,"37.csv","","238.5","resources/trios/L1T4A2.jpg","38","restless",0.7,0.4,0.7,0.920539616586883,"false"
"image-keyboard-response",342,271274,"0.0-3.110-1.110","kwh4ucl74w2l0k4",383,"37.csv","","null","resources/maskTrios/BT4B.jpg","null","",NA,NA,NA,NA,""
"image-keyboard-response",343,272480,"0.0-3.110-2.110","kwh4ucl74w2l0k4",383,"37.csv","","null","resources/images/fishbone.png","null","",NA,NA,NA,NA,""
"image-keyboard-response",344,272684,"0.0-3.111-0.111","kwh4ucl74w2l0k4",383,"37.csv","","201.39999997615814","resources/trios/L1T2A1.jpg","37","restless",0.7,0.4,0.7,0.684088274904692,"true"
"image-keyboard-response",345,273086,"0.0-3.111-1.111","kwh4ucl74w2l0k4",383,"37.csv","","null","resources/maskTrios/L1BB.jpg","null","",NA,NA,NA,NA,""
"image-keyboard-response",346,274293,"0.0-3.111-2.111","kwh4ucl74w2l0k4",383,"37.csv","","null","resources/images/coin2.png","null","",NA,NA,NA,NA,""
"image-keyboard-response",347,274541,"0.0-3.112-0.112","kwh4ucl74w2l0k4",383,"37.csv","","245.4000000357628","resources/trios/L2T4A2.jpg","38","restless",0.7,0.4,0.6,0.157840175147479,"true"
"image-keyboard-response",348,274949,"0.0-3.112-1.112","kwh4ucl74w2l0k4",383,"37.csv","","null","resources/maskTrios/BT4B.jpg","null","",NA,NA,NA,NA,""
"image-keyboard-response",349,276158,"0.0-3.112-2.112","kwh4ucl74w2l0k4",383,"37.csv","","null","resources/images/coin2.png","null","",NA,NA,NA,NA,""
"image-keyboard-response",350,276405,"0.0-3.113-0.113","kwh4ucl74w2l0k4",383,"37.csv","","243.69999998807907","resources/trios/L1T2A2.jpg","39","restless",0.7,0.4,0.5,0.54543575398758,"false"
"image-keyboard-response",351,276809,"0.0-3.113-1.113","kwh4ucl74w2l0k4",383,"37.csv","","null","resources/maskTrios/BBA2.jpg","null","",NA,NA,NA,NA,""
"image-keyboard-response",352,278012,"0.0-3.113-2.113","kwh4ucl74w2l0k4",383,"37.csv","","null","resources/images/fishbone.png","null","",NA,NA,NA,NA,""
"image-keyboard-response",353,278090,"0.0-3.114-0.114","kwh4ucl74w2l0k4",383,"37.csv","","75.69999998807907","resources/trios/L2T2A1.jpg","38","restless",0.7,0.4,0.5,0.571409312141842,"false"
"image-keyboard-response",354,278493,"0.0-3.114-1.114","kwh4ucl74w2l0k4",383,"37.csv","","null","resources/maskTrios/BT2B.jpg","null","",NA,NA,NA,NA,""
"image-keyboard-response",355,279698,"0.0-3.114-2.114","kwh4ucl74w2l0k4",383,"37.csv","","null","resources/images/fishbone.png","null","",NA,NA,NA,NA,""
"image-keyboard-response",356,280054,"0.0-3.115-0.115","kwh4ucl74w2l0k4",383,"37.csv","","352","resources/trios/L1T4A2.jpg","37","restless",0.7,0.4,0.5,0.751896148772485,"false"
"image-keyboard-response",357,280459,"0.0-3.115-1.115","kwh4ucl74w2l0k4",383,"37.csv","","null","resources/maskTrios/L1BB.jpg","null","",NA,NA,NA,NA,""
"image-keyboard-response",358,281663,"0.0-3.115-2.115","kwh4ucl74w2l0k4",383,"37.csv","","null","resources/images/fishbone.png","null","",NA,NA,NA,NA,""
"image-keyboard-response",359,282024,"0.0-3.116-0.116","kwh4ucl74w2l0k4",383,"37.csv","","358.89999997615814","resources/trios/L1T4A2.jpg","38","restless",0.7,0.4,0.5,0.164763406714227,"true"
"image-keyboard-response",360,282427,"0.0-3.116-1.116","kwh4ucl74w2l0k4",383,"37.csv","","null","resources/maskTrios/BT4B.jpg","null","",NA,NA,NA,NA,""
"image-keyboard-response",361,283634,"0.0-3.116-2.116","kwh4ucl74w2l0k4",383,"37.csv","","null","resources/images/coin2.png","null","",NA,NA,NA,NA,""
"image-keyboard-response",362,284357,"0.0-3.117-0.117","kwh4ucl74w2l0k4",383,"37.csv","","720","resources/trios/L1T2A1.jpg","39","restless",0.7,0.4,0.5,0.534797252812915,"false"
"image-keyboard-response",363,284766,"0.0-3.117-1.117","kwh4ucl74w2l0k4",383,"37.csv","","null","resources/maskTrios/BBA1.jpg","null","",NA,NA,NA,NA,""
"image-keyboard-response",364,285970,"0.0-3.117-2.117","kwh4ucl74w2l0k4",383,"37.csv","","null","resources/images/fishbone.png","null","",NA,NA,NA,NA,""
"image-keyboard-response",365,286656,"0.0-3.118-0.118","kwh4ucl74w2l0k4",383,"37.csv","","682.5999999642372","resources/trios/L1T4A2.jpg","38","restless",0.7,0.4,0.5,0.976549413849643,"false"
"image-keyboard-response",366,287059,"0.0-3.118-1.118","kwh4ucl74w2l0k4",383,"37.csv","","null","resources/maskTrios/BT4B.jpg","null","",NA,NA,NA,NA,""
"image-keyboard-response",367,288262,"0.0-3.118-2.118","kwh4ucl74w2l0k4",383,"37.csv","","null","resources/images/fishbone.png","null","",NA,NA,NA,NA,""
"image-keyboard-response",368,288489,"0.0-3.119-0.119","kwh4ucl74w2l0k4",383,"37.csv","","224.5","resources/trios/L1T4A2.jpg","37","restless",0.7,0.4,0.5,0.940389912949308,"false"
"image-keyboard-response",369,288891,"0.0-3.119-1.119","kwh4ucl74w2l0k4",383,"37.csv","","null","resources/maskTrios/L1BB.jpg","null","",NA,NA,NA,NA,""
"image-keyboard-response",370,290094,"0.0-3.119-2.119","kwh4ucl74w2l0k4",383,"37.csv","","null","resources/images/fishbone.png","null","",NA,NA,NA,NA,""
"image-keyboard-response",371,290467,"0.0-3.120-0.120","kwh4ucl74w2l0k4",383,"37.csv","","369.60000002384186","resources/trios/L1T4A2.jpg","38","restless",0.7,0.4,0.5,0.974098119025998,"false"
"image-keyboard-response",372,290871,"0.0-3.120-1.120","kwh4ucl74w2l0k4",383,"37.csv","","null","resources/maskTrios/BT4B.jpg","null","",NA,NA,NA,NA,""
"image-keyboard-response",373,292076,"0.0-3.120-2.120","kwh4ucl74w2l0k4",383,"37.csv","","null","resources/images/fishbone.png","null","",NA,NA,NA,NA,""
"image-keyboard-response",374,292152,"0.0-3.121-0.121","kwh4ucl74w2l0k4",383,"37.csv","","73.5","resources/trios/L1T2A1.jpg","39","restless",0.7,0.4,0.5,0.87824227070594,"false"
"image-keyboard-response",375,292559,"0.0-3.121-1.121","kwh4ucl74w2l0k4",383,"37.csv","","null","resources/maskTrios/BBA1.jpg","null","",NA,NA,NA,NA,""
"image-keyboard-response",376,293766,"0.0-3.121-2.121","kwh4ucl74w2l0k4",383,"37.csv","","null","resources/images/fishbone.png","null","",NA,NA,NA,NA,""
"image-keyboard-response",377,293808,"0.0-3.122-0.122","kwh4ucl74w2l0k4",383,"37.csv","","38.09999996423721","resources/trios/L2T2A1.jpg","37","restless",0.7,0.4,0.5,0.973573884196307,"false"
"image-keyboard-response",378,294211,"0.0-3.122-1.122","kwh4ucl74w2l0k4",383,"37.csv","","null","resources/maskTrios/L2BB.jpg","null","",NA,NA,NA,NA,""
"image-keyboard-response",379,295418,"0.0-3.122-2.122","kwh4ucl74w2l0k4",383,"37.csv","","null","resources/images/fishbone.png","null","",NA,NA,NA,NA,""
"image-keyboard-response",380,295918,"0.0-3.123-0.123","kwh4ucl74w2l0k4",383,"37.csv","","497.5999999642372","resources/trios/L2T4A1.jpg","38","restless",0.7,0.4,0.5,0.130770235676135,"true"
"image-keyboard-response",381,296323,"0.0-3.123-1.123","kwh4ucl74w2l0k4",383,"37.csv","","null","resources/maskTrios/BT4B.jpg","null","",NA,NA,NA,NA,""
"image-keyboard-response",382,297528,"0.0-3.123-2.123","kwh4ucl74w2l0k4",383,"37.csv","","null","resources/images/coin2.png","null","",NA,NA,NA,NA,""
"image-keyboard-response",383,297916,"0.0-3.124-0.124","kwh4ucl74w2l0k4",383,"37.csv","","385.10000002384186","resources/trios/L1T4A1.jpg","39","restless",0.7,0.4,0.5,0.00215092852970145,"true"
"image-keyboard-response",384,298322,"0.0-3.124-1.124","kwh4ucl74w2l0k4",383,"37.csv","","null","resources/maskTrios/BBA1.jpg","null","",NA,NA,NA,NA,""
"image-keyboard-response",385,299528,"0.0-3.124-2.124","kwh4ucl74w2l0k4",383,"37.csv","","null","resources/images/coin2.png","null","",NA,NA,NA,NA,""
"image-keyboard-response",386,299717,"0.0-3.125-0.125","kwh4ucl74w2l0k4",383,"37.csv","","185.30000001192093","resources/trios/L1T2A1.jpg","38","restless",0.7,0.4,0.5,0.387851870635275,"true"
"image-keyboard-response",387,300120,"0.0-3.125-1.125","kwh4ucl74w2l0k4",383,"37.csv","","null","resources/maskTrios/BT2B.jpg","null","",NA,NA,NA,NA,""
"image-keyboard-response",388,301328,"0.0-3.125-2.125","kwh4ucl74w2l0k4",383,"37.csv","","null","resources/images/coin2.png","null","",NA,NA,NA,NA,""
"image-keyboard-response",389,301403,"0.0-3.126-0.126","kwh4ucl74w2l0k4",383,"37.csv","","71.69999998807907","resources/trios/L2T4A2.jpg","37","restless",0.7,0.4,0.5,0.125427663329793,"true"
"image-keyboard-response",390,301807,"0.0-3.126-1.126","kwh4ucl74w2l0k4",383,"37.csv","","null","resources/maskTrios/L2BB.jpg","null","",NA,NA,NA,NA,""
"image-keyboard-response",391,303011,"0.0-3.126-2.126","kwh4ucl74w2l0k4",383,"37.csv","","null","resources/images/coin2.png","null","",NA,NA,NA,NA,""
"image-keyboard-response",392,303022,"0.0-3.127-0.127","kwh4ucl74w2l0k4",383,"37.csv","","9.600000023841858","resources/trios/L2T4A1.jpg","38","restless",0.7,0.4,0.5,0.932966261625491,"false"
"image-keyboard-response",393,303423,"0.0-3.127-1.127","kwh4ucl74w2l0k4",383,"37.csv","","null","resources/maskTrios/BT4B.jpg","null","",NA,NA,NA,NA,""
"image-keyboard-response",394,304629,"0.0-3.127-2.127","kwh4ucl74w2l0k4",383,"37.csv","","null","resources/images/fishbone.png","null","",NA,NA,NA,NA,""
"image-keyboard-response",395,304695,"0.0-3.128-0.128","kwh4ucl74w2l0k4",383,"37.csv","","62.19999998807907","resources/trios/L2T2A1.jpg","39","restless",0.7,0.4,0.5,0.401387471525651,"true"
"image-keyboard-response",396,305098,"0.0-3.128-1.128","kwh4ucl74w2l0k4",383,"37.csv","","null","resources/maskTrios/BBA1.jpg","null","",NA,NA,NA,NA,""
"image-keyboard-response",397,306304,"0.0-3.128-2.128","kwh4ucl74w2l0k4",383,"37.csv","","null","resources/images/coin2.png","null","",NA,NA,NA,NA,""
"image-keyboard-response",398,307250,"0.0-3.129-0.129","kwh4ucl74w2l0k4",383,"37.csv","","944.5","resources/trios/L2T2A1.jpg","37","restless",0.7,0.4,0.5,0.495519011946379,"true"
"image-keyboard-response",399,307654,"0.0-3.129-1.129","kwh4ucl74w2l0k4",383,"37.csv","","null","resources/maskTrios/L2BB.jpg","null","",NA,NA,NA,NA,""
"image-keyboard-response",400,308861,"0.0-3.129-2.129","kwh4ucl74w2l0k4",383,"37.csv","","null","resources/images/coin2.png","null","",NA,NA,NA,NA,""
"image-keyboard-response",401,310038,"0.0-3.130-0.130","kwh4ucl74w2l0k4",383,"37.csv","","1174.4000000357628","resources/trios/L1T4A1.jpg","39","restless",0.7,0.4,0.5,0.548725433594121,"false"
"image-keyboard-response",402,310444,"0.0-3.130-1.130","kwh4ucl74w2l0k4",383,"37.csv","","null","resources/maskTrios/BBA1.jpg","null","",NA,NA,NA,NA,""
"image-keyboard-response",403,311647,"0.0-3.130-2.130","kwh4ucl74w2l0k4",383,"37.csv","","null","resources/images/fishbone.png","null","",NA,NA,NA,NA,""
"image-keyboard-response",404,312850,"0.0-3.131-0.131","kwh4ucl74w2l0k4",383,"37.csv","","1199.4000000357628","resources/trios/L2T2A2.jpg","38","restless",0.7,0.4,0.5,0.768423421068318,"false"
"image-keyboard-response",405,313256,"0.0-3.131-1.131","kwh4ucl74w2l0k4",383,"37.csv","","null","resources/maskTrios/BT2B.jpg","null","",NA,NA,NA,NA,""
"image-keyboard-response",406,314460,"0.0-3.131-2.131","kwh4ucl74w2l0k4",383,"37.csv","","null","resources/images/fishbone.png","null","",NA,NA,NA,NA,""
"image-keyboard-response",407,317124,"0.0-3.132-0.132","kwh4ucl74w2l0k4",383,"37.csv","","2661.600000023842","resources/trios/L2T2A1.jpg","38","restless",0.7,0.4,0.6,0.151673227832716,"true"
"image-keyboard-response",408,317528,"0.0-3.132-1.132","kwh4ucl74w2l0k4",383,"37.csv","","null","resources/maskTrios/BT2B.jpg","null","",NA,NA,NA,NA,""
"image-keyboard-response",409,318735,"0.0-3.132-2.132","kwh4ucl74w2l0k4",383,"37.csv","","null","resources/images/coin2.png","null","",NA,NA,NA,NA,""
"image-keyboard-response",410,319786,"0.0-3.133-0.133","kwh4ucl74w2l0k4",383,"37.csv","","1048.699999988079","resources/trios/L1T4A1.jpg","39","restless",0.7,0.4,0.6,0.83298880063902,"false"
"image-keyboard-response",411,320193,"0.0-3.133-1.133","kwh4ucl74w2l0k4",383,"37.csv","","null","resources/maskTrios/BBA1.jpg","null","",NA,NA,NA,NA,""
"image-keyboard-response",412,321398,"0.0-3.133-2.133","kwh4ucl74w2l0k4",383,"37.csv","","null","resources/images/fishbone.png","null","",NA,NA,NA,NA,""
"image-keyboard-response",413,331248,"0.0-3.134-0.134","kwh4ucl74w2l0k4",383,"37.csv","","9847.199999988079","resources/trios/L1T2A1.jpg","39","restless",0.7,0.4,0.6,0.347990114298624,"true"
"image-keyboard-response",414,331654,"0.0-3.134-1.134","kwh4ucl74w2l0k4",383,"37.csv","","null","resources/maskTrios/BBA1.jpg","null","",NA,NA,NA,NA,""
"image-keyboard-response",415,332861,"0.0-3.134-2.134","kwh4ucl74w2l0k4",383,"37.csv","","null","resources/images/coin2.png","null","",NA,NA,NA,NA,""
"image-keyboard-response",416,333171,"0.0-3.135-0.135","kwh4ucl74w2l0k4",383,"37.csv","","306.39999997615814","resources/trios/L2T4A2.jpg","37","restless",0.7,0.4,0.7,0.994592009180036,"false"
"image-keyboard-response",417,333577,"0.0-3.135-1.135","kwh4ucl74w2l0k4",383,"37.csv","","null","resources/maskTrios/L2BB.jpg","null","",NA,NA,NA,NA,""
"image-keyboard-response",418,334784,"0.0-3.135-2.135","kwh4ucl74w2l0k4",383,"37.csv","","null","resources/images/fishbone.png","null","",NA,NA,NA,NA,""
"image-keyboard-response",419,335149,"0.0-3.136-0.136","kwh4ucl74w2l0k4",383,"37.csv","","362","resources/trios/L2T2A1.jpg","38","restless",0.7,0.4,0.7,0.780216637857328,"false"
"image-keyboard-response",420,335555,"0.0-3.136-1.136","kwh4ucl74w2l0k4",383,"37.csv","","null","resources/maskTrios/BT2B.jpg","null","",NA,NA,NA,NA,""
"image-keyboard-response",421,336761,"0.0-3.136-2.136","kwh4ucl74w2l0k4",383,"37.csv","","null","resources/images/fishbone.png","null","",NA,NA,NA,NA,""
"image-keyboard-response",422,337242,"0.0-3.137-0.137","kwh4ucl74w2l0k4",383,"37.csv","","478.39999997615814","resources/trios/L2T4A1.jpg","38","restless",0.6,0.5,0.7,0.00785018863593168,"true"
"image-keyboard-response",423,337650,"0.0-3.137-1.137","kwh4ucl74w2l0k4",383,"37.csv","","null","resources/maskTrios/BT4B.jpg","null","",NA,NA,NA,NA,""
"image-keyboard-response",424,338857,"0.0-3.137-2.137","kwh4ucl74w2l0k4",383,"37.csv","","null","resources/images/coin2.png","null","",NA,NA,NA,NA,""
"image-keyboard-response",425,338885,"0.0-3.138-0.138","kwh4ucl74w2l0k4",383,"37.csv","","23.80000001192093","resources/trios/L1T2A2.jpg","39","restless",0.6,0.5,0.7,0.856575936130224,"false"
"image-keyboard-response",426,339288,"0.0-3.138-1.138","kwh4ucl74w2l0k4",383,"37.csv","","null","resources/maskTrios/BBA2.jpg","null","",NA,NA,NA,NA,""
"image-keyboard-response",427,340493,"0.0-3.138-2.138","kwh4ucl74w2l0k4",383,"37.csv","","null","resources/images/fishbone.png","null","",NA,NA,NA,NA,""
"image-keyboard-response",428,340738,"0.0-3.139-0.139","kwh4ucl74w2l0k4",383,"37.csv","","241.5","resources/trios/L1T4A1.jpg","38","restless",0.6,0.5,0.7,0.609447865924818,"false"
"image-keyboard-response",429,341144,"0.0-3.139-1.139","kwh4ucl74w2l0k4",383,"37.csv","","null","resources/maskTrios/BT4B.jpg","null","",NA,NA,NA,NA,""
"image-keyboard-response",430,342352,"0.0-3.139-2.139","kwh4ucl74w2l0k4",383,"37.csv","","null","resources/images/fishbone.png","null","",NA,NA,NA,NA,""
"image-keyboard-response",431,342565,"0.0-3.140-0.140","kwh4ucl74w2l0k4",383,"37.csv","","209.80000001192093","resources/trios/L2T2A1.jpg","37","restless",0.6,0.5,0.7,0.291691828409046,"true"
"image-keyboard-response",432,342969,"0.0-3.140-1.140","kwh4ucl74w2l0k4",383,"37.csv","","null","resources/maskTrios/L2BB.jpg","null","",NA,NA,NA,NA,""
"image-keyboard-response",433,344176,"0.0-3.140-2.140","kwh4ucl74w2l0k4",383,"37.csv","","null","resources/images/coin2.png","null","",NA,NA,NA,NA,""
"image-keyboard-response",434,344916,"0.0-3.141-0.141","kwh4ucl74w2l0k4",383,"37.csv","","739.0999999642372","resources/trios/L1T2A1.jpg","38","restless",0.6,0.5,0.7,0.933667969589204,"false"
"image-keyboard-response",435,345322,"0.0-3.141-1.141","kwh4ucl74w2l0k4",383,"37.csv","","null","resources/maskTrios/BT2B.jpg","null","",NA,NA,NA,NA,""
"image-keyboard-response",436,346529,"0.0-3.141-2.141","kwh4ucl74w2l0k4",383,"37.csv","","null","resources/images/fishbone.png","null","",NA,NA,NA,NA,""
"image-keyboard-response",437,346663,"0.0-3.142-0.142","kwh4ucl74w2l0k4",383,"37.csv","","131.19999998807907","resources/trios/L2T2A2.jpg","39","restless",0.5,0.6,0.7,0.454535488712474,"true"
"image-keyboard-response",438,347068,"0.0-3.142-1.142","kwh4ucl74w2l0k4",383,"37.csv","","null","resources/maskTrios/BBA2.jpg","null","",NA,NA,NA,NA,""
"image-keyboard-response",439,348275,"0.0-3.142-2.142","kwh4ucl74w2l0k4",383,"37.csv","","null","resources/images/coin2.png","null","",NA,NA,NA,NA,""
"image-keyboard-response",440,353514,"0.0-3.143-0.143","kwh4ucl74w2l0k4",383,"37.csv","","5236.300000011921","resources/trios/L2T2A1.jpg","37","restless",0.5,0.6,0.8,0.299569913287661,"true"
"image-keyboard-response",441,353920,"0.0-3.143-1.143","kwh4ucl74w2l0k4",383,"37.csv","","null","resources/maskTrios/L2BB.jpg","null","",NA,NA,NA,NA,""
"image-keyboard-response",442,355128,"0.0-3.143-2.143","kwh4ucl74w2l0k4",383,"37.csv","","null","resources/images/coin2.png","null","",NA,NA,NA,NA,""
"image-keyboard-response",443,355386,"0.0-3.144-0.144","kwh4ucl74w2l0k4",383,"37.csv","","256","resources/trios/L2T4A1.jpg","38","restless",0.5,0.6,0.8,0.222349465389732,"true"
"image-keyboard-response",444,355793,"0.0-3.144-1.144","kwh4ucl74w2l0k4",383,"37.csv","","null","resources/maskTrios/BT4B.jpg","null","",NA,NA,NA,NA,""
"image-keyboard-response",445,356997,"0.0-3.144-2.144","kwh4ucl74w2l0k4",383,"37.csv","","null","resources/images/coin2.png","null","",NA,NA,NA,NA,""
"image-keyboard-response",446,357072,"0.0-3.145-0.145","kwh4ucl74w2l0k4",383,"37.csv","","72.40000003576279","resources/trios/L1T2A2.jpg","39","restless",0.4,0.6,0.7,0.760709156753348,"false"
"image-keyboard-response",447,357477,"0.0-3.145-1.145","kwh4ucl74w2l0k4",383,"37.csv","","null","resources/maskTrios/BBA2.jpg","null","",NA,NA,NA,NA,""
"image-keyboard-response",448,358681,"0.0-3.145-2.145","kwh4ucl74w2l0k4",383,"37.csv","","null","resources/images/fishbone.png","null","",NA,NA,NA,NA,""
"image-keyboard-response",449,358696,"0.0-3.146-0.146","kwh4ucl74w2l0k4",383,"37.csv","","12.600000023841858","resources/trios/L2T4A2.jpg","38","restless",0.4,0.6,0.7,0.293821494142177,"true"
"image-keyboard-response",450,359102,"0.0-3.146-1.146","kwh4ucl74w2l0k4",383,"37.csv","","null","resources/maskTrios/BT4B.jpg","null","",NA,NA,NA,NA,""
"image-keyboard-response",451,360305,"0.0-3.146-2.146","kwh4ucl74w2l0k4",383,"37.csv","","null","resources/images/coin2.png","null","",NA,NA,NA,NA,""
"image-keyboard-response",452,360767,"0.0-3.147-0.147","kwh4ucl74w2l0k4",383,"37.csv","","459.30000001192093","resources/trios/L1T4A1.jpg","38","restless",0.4,0.6,0.7,0.783588883245287,"false"
"image-keyboard-response",453,361175,"0.0-3.147-1.147","kwh4ucl74w2l0k4",383,"37.csv","","null","resources/maskTrios/BT4B.jpg","null","",NA,NA,NA,NA,""
"image-keyboard-response",454,362379,"0.0-3.147-2.147","kwh4ucl74w2l0k4",383,"37.csv","","null","resources/images/fishbone.png","null","",NA,NA,NA,NA,""
"image-keyboard-response",455,362447,"0.0-3.148-0.148","kwh4ucl74w2l0k4",383,"37.csv","","65.5","resources/trios/L1T4A1.jpg","37","restless",0.4,0.6,0.7,0.888930308861068,"false"
"image-keyboard-response",456,362852,"0.0-3.148-1.148","kwh4ucl74w2l0k4",383,"37.csv","","null","resources/maskTrios/L1BB.jpg","null","",NA,NA,NA,NA,""
"image-keyboard-response",457,364057,"0.0-3.148-2.148","kwh4ucl74w2l0k4",383,"37.csv","","null","resources/images/fishbone.png","null","",NA,NA,NA,NA,""
"image-keyboard-response",458,364095,"0.0-3.149-0.149","kwh4ucl74w2l0k4",383,"37.csv","","34.60000002384186","resources/trios/L1T4A1.jpg","39","restless",0.4,0.6,0.7,0.350552535451495,"true"
"image-keyboard-response",459,364499,"0.0-3.149-1.149","kwh4ucl74w2l0k4",383,"37.csv","","null","resources/maskTrios/BBA1.jpg","null","",NA,NA,NA,NA,""
"image-keyboard-response",460,365708,"0.0-3.149-2.149","kwh4ucl74w2l0k4",383,"37.csv","","null","resources/images/coin2.png","null","",NA,NA,NA,NA,""
"image-keyboard-response",461,365889,"0.0-3.150-0.150","kwh4ucl74w2l0k4",383,"37.csv","","177.9000000357628","resources/trios/L2T4A2.jpg","38","restless",0.4,0.5,0.7,0.21859416066765,"true"
"image-keyboard-response",462,366294,"0.0-3.150-1.150","kwh4ucl74w2l0k4",383,"37.csv","","null","resources/maskTrios/BT4B.jpg","null","",NA,NA,NA,NA,""
"image-keyboard-response",463,367499,"0.0-3.150-2.150","kwh4ucl74w2l0k4",383,"37.csv","","null","resources/images/coin2.png","null","",NA,NA,NA,NA,""
"image-keyboard-response",464,367784,"0.0-3.151-0.151","kwh4ucl74w2l0k4",383,"37.csv","","280.60000002384186","resources/trios/L1T4A2.jpg","37","restless",0.4,0.5,0.7,0.986521901766901,"false"
"image-keyboard-response",465,368192,"0.0-3.151-1.151","kwh4ucl74w2l0k4",383,"37.csv","","null","resources/maskTrios/L1BB.jpg","null","",NA,NA,NA,NA,""
"image-keyboard-response",466,369395,"0.0-3.151-2.151","kwh4ucl74w2l0k4",383,"37.csv","","null","resources/images/fishbone.png","null","",NA,NA,NA,NA,""
"image-keyboard-response",467,369484,"0.0-3.152-0.152","kwh4ucl74w2l0k4",383,"37.csv","","85.39999997615814","resources/trios/L1T4A1.jpg","39","restless",0.4,0.5,0.7,0.00584167484926224,"true"
"image-keyboard-response",468,369891,"0.0-3.152-1.152","kwh4ucl74w2l0k4",383,"37.csv","","null","resources/maskTrios/BBA1.jpg","null","",NA,NA,NA,NA,""
"image-keyboard-response",469,371095,"0.0-3.152-2.152","kwh4ucl74w2l0k4",383,"37.csv","","null","resources/images/coin2.png","null","",NA,NA,NA,NA,""
"image-keyboard-response",470,371396,"0.0-3.153-0.153","kwh4ucl74w2l0k4",383,"37.csv","","297.30000001192093","resources/trios/L2T4A2.jpg","38","restless",0.4,0.5,0.7,0.489143575136888,"true"
"image-keyboard-response",471,371802,"0.0-3.153-1.153","kwh4ucl74w2l0k4",383,"37.csv","","null","resources/maskTrios/BT4B.jpg","null","",NA,NA,NA,NA,""
"image-keyboard-response",472,373006,"0.0-3.153-2.153","kwh4ucl74w2l0k4",383,"37.csv","","null","resources/images/coin2.png","null","",NA,NA,NA,NA,""
"image-keyboard-response",473,373514,"0.0-3.154-0.154","kwh4ucl74w2l0k4",383,"37.csv","","504.30000001192093","resources/trios/L2T4A1.jpg","38","restless",0.4,0.5,0.7,0.660920282811879,"false"
"image-keyboard-response",474,373920,"0.0-3.154-1.154","kwh4ucl74w2l0k4",383,"37.csv","","null","resources/maskTrios/BT4B.jpg","null","",NA,NA,NA,NA,""
"image-keyboard-response",475,375127,"0.0-3.154-2.154","kwh4ucl74w2l0k4",383,"37.csv","","null","resources/images/fishbone.png","null","",NA,NA,NA,NA,""
"image-keyboard-response",476,375254,"0.0-3.155-0.155","kwh4ucl74w2l0k4",383,"37.csv","","124.60000002384186","resources/trios/L2T4A2.jpg","37","restless",0.4,0.5,0.7,0.721343978497412,"false"
"image-keyboard-response",477,375660,"0.0-3.155-1.155","kwh4ucl74w2l0k4",383,"37.csv","","null","resources/maskTrios/L2BB.jpg","null","",NA,NA,NA,NA,""
"image-keyboard-response",478,376867,"0.0-3.155-2.155","kwh4ucl74w2l0k4",383,"37.csv","","null","resources/images/fishbone.png","null","",NA,NA,NA,NA,""
"image-keyboard-response",479,377270,"0.0-3.156-0.156","kwh4ucl74w2l0k4",383,"37.csv","","399.80000001192093","resources/trios/L1T2A1.jpg","39","restless",0.4,0.5,0.6,0.128058758368402,"true"
"image-keyboard-response",480,377677,"0.0-3.156-1.156","kwh4ucl74w2l0k4",383,"37.csv","","null","resources/maskTrios/BBA1.jpg","null","",NA,NA,NA,NA,""
"image-keyboard-response",481,378881,"0.0-3.156-2.156","kwh4ucl74w2l0k4",383,"37.csv","","null","resources/images/coin2.png","null","",NA,NA,NA,NA,""
"image-keyboard-response",482,379051,"0.0-3.157-0.157","kwh4ucl74w2l0k4",383,"37.csv","","167.60000002384186","resources/trios/L1T4A2.jpg","38","restless",0.4,0.5,0.6,0.306125071656938,"true"
"image-keyboard-response",483,379455,"0.0-3.157-1.157","kwh4ucl74w2l0k4",383,"37.csv","","null","resources/maskTrios/BT4B.jpg","null","",NA,NA,NA,NA,""
"image-keyboard-response",484,380660,"0.0-3.157-2.157","kwh4ucl74w2l0k4",383,"37.csv","","null","resources/images/coin2.png","null","",NA,NA,NA,NA,""
"image-keyboard-response",485,380708,"0.0-3.158-0.158","kwh4ucl74w2l0k4",383,"37.csv","","44.30000001192093","resources/trios/L2T2A2.jpg","37","restless",0.4,0.6,0.6,0.0355278015474172,"true"
"image-keyboard-response",486,381115,"0.0-3.158-1.158","kwh4ucl74w2l0k4",383,"37.csv","","null","resources/maskTrios/L2BB.jpg","null","",NA,NA,NA,NA,""
"image-keyboard-response",487,382319,"0.0-3.158-2.158","kwh4ucl74w2l0k4",383,"37.csv","","null","resources/images/coin2.png","null","",NA,NA,NA,NA,""
"image-keyboard-response",488,382382,"0.0-3.159-0.159","kwh4ucl74w2l0k4",383,"37.csv","","60","resources/trios/L2T2A2.jpg","39","restless",0.4,0.6,0.6,0.618478304288517,"false"
"image-keyboard-response",489,382789,"0.0-3.159-1.159","kwh4ucl74w2l0k4",383,"37.csv","","null","resources/maskTrios/BBA2.jpg","null","",NA,NA,NA,NA,""
"image-keyboard-response",490,383992,"0.0-3.159-2.159","kwh4ucl74w2l0k4",383,"37.csv","","null","resources/images/fishbone.png","null","",NA,NA,NA,NA,""
"image-keyboard-response",491,384064,"0.0-3.160-0.160","kwh4ucl74w2l0k4",383,"37.csv","","68.80000001192093","resources/trios/L2T4A2.jpg","38","restless",0.4,0.6,0.6,0.245672046353926,"true"
"image-keyboard-response",492,384469,"0.0-3.160-1.160","kwh4ucl74w2l0k4",383,"37.csv","","null","resources/maskTrios/BT4B.jpg","null","",NA,NA,NA,NA,""
"image-keyboard-response",493,385672,"0.0-3.160-2.160","kwh4ucl74w2l0k4",383,"37.csv","","null","resources/images/coin2.png","null","",NA,NA,NA,NA,""
"image-keyboard-response",494,386580,"0.0-3.161-0.161","kwh4ucl74w2l0k4",383,"37.csv","","904.8000000119209","resources/trios/L1T4A2.jpg","37","restless",0.4,0.6,0.6,0.0524205450569917,"true"
"image-keyboard-response",495,386985,"0.0-3.161-1.161","kwh4ucl74w2l0k4",383,"37.csv","","null","resources/maskTrios/L1BB.jpg","null","",NA,NA,NA,NA,""
"image-keyboard-response",496,388192,"0.0-3.161-2.161","kwh4ucl74w2l0k4",383,"37.csv","","null","resources/images/coin2.png","null","",NA,NA,NA,NA,""
"image-keyboard-response",497,389994,"0.0-3.162-0.162","kwh4ucl74w2l0k4",383,"37.csv","","1798","resources/trios/L2T2A1.jpg","39","restless",0.5,0.6,0.6,0.687875510122963,"false"
"image-keyboard-response",498,390398,"0.0-3.162-1.162","kwh4ucl74w2l0k4",383,"37.csv","","null","resources/maskTrios/BBA1.jpg","null","",NA,NA,NA,NA,""
"image-keyboard-response",499,391604,"0.0-3.162-2.162","kwh4ucl74w2l0k4",383,"37.csv","","null","resources/images/fishbone.png","null","",NA,NA,NA,NA,""
"image-keyboard-response",500,392627,"0.0-3.163-0.163","kwh4ucl74w2l0k4",383,"37.csv","","1019.8000000119209","resources/trios/L1T2A1.jpg","39","restless",0.5,0.6,0.6,0.378772963782458,"true"
"image-keyboard-response",501,393035,"0.0-3.163-1.163","kwh4ucl74w2l0k4",383,"37.csv","","null","resources/maskTrios/BBA1.jpg","null","",NA,NA,NA,NA,""
"image-keyboard-response",502,394243,"0.0-3.163-2.163","kwh4ucl74w2l0k4",383,"37.csv","","null","resources/images/coin2.png","null","",NA,NA,NA,NA,""
"image-keyboard-response",503,394983,"0.0-3.164-0.164","kwh4ucl74w2l0k4",383,"37.csv","","737.8999999761581","resources/trios/L1T4A2.jpg","38","restless",0.5,0.6,0.6,0.892105196984994,"false"
"image-keyboard-response",504,395385,"0.0-3.164-1.164","kwh4ucl74w2l0k4",383,"37.csv","","null","resources/maskTrios/BT4B.jpg","null","",NA,NA,NA,NA,""
"image-keyboard-response",505,396587,"0.0-3.164-2.164","kwh4ucl74w2l0k4",383,"37.csv","","null","resources/images/fishbone.png","null","",NA,NA,NA,NA,""
"image-keyboard-response",506,396944,"0.0-3.165-0.165","kwh4ucl74w2l0k4",383,"37.csv","","353.0999999642372","resources/trios/L2T4A1.jpg","37","restless",0.5,0.6,0.6,0.415375645344126,"true"
"image-keyboard-response",507,397348,"0.0-3.165-1.165","kwh4ucl74w2l0k4",383,"37.csv","","null","resources/maskTrios/L2BB.jpg","null","",NA,NA,NA,NA,""
"image-keyboard-response",508,398553,"0.0-3.165-2.165","kwh4ucl74w2l0k4",383,"37.csv","","null","resources/images/coin2.png","null","",NA,NA,NA,NA,""
"image-keyboard-response",509,399604,"0.0-3.166-0.166","kwh4ucl74w2l0k4",383,"37.csv","","1047.8999999761581","resources/trios/L1T2A2.jpg","38","restless",0.5,0.6,0.6,0.323238997061613,"true"
"image-keyboard-response",510,400011,"0.0-3.166-1.166","kwh4ucl74w2l0k4",383,"37.csv","","null","resources/maskTrios/BT2B.jpg","null","",NA,NA,NA,NA,""
"image-keyboard-response",511,401219,"0.0-3.166-2.166","kwh4ucl74w2l0k4",383,"37.csv","","null","resources/images/coin2.png","null","",NA,NA,NA,NA,""
"image-keyboard-response",512,401341,"0.0-3.167-0.167","kwh4ucl74w2l0k4",383,"37.csv","","119","resources/trios/L2T2A2.jpg","39","restless",0.5,0.6,0.6,0.823703539258746,"false"
"image-keyboard-response",513,401744,"0.0-3.167-1.167","kwh4ucl74w2l0k4",383,"37.csv","","null","resources/maskTrios/BBA2.jpg","null","",NA,NA,NA,NA,""
"image-keyboard-response",514,402951,"0.0-3.167-2.167","kwh4ucl74w2l0k4",383,"37.csv","","null","resources/images/fishbone.png","null","",NA,NA,NA,NA,""
"image-keyboard-response",515,403184,"0.0-3.168-0.168","kwh4ucl74w2l0k4",383,"37.csv","","229.39999997615814","resources/trios/L1T2A2.jpg","38","restless",0.6,0.6,0.6,0.0177632364421687,"true"
"image-keyboard-response",516,403593,"0.0-3.168-1.168","kwh4ucl74w2l0k4",383,"37.csv","","null","resources/maskTrios/BT2B.jpg","null","",NA,NA,NA,NA,""
"image-keyboard-response",517,404797,"0.0-3.168-2.168","kwh4ucl74w2l0k4",383,"37.csv","","null","resources/images/coin2.png","null","",NA,NA,NA,NA,""
"image-keyboard-response",518,404872,"0.0-3.169-0.169","kwh4ucl74w2l0k4",383,"37.csv","","72.20000004768372","resources/trios/L2T4A1.jpg","37","restless",0.6,0.7,0.6,0.523407992080354,"true"
"image-keyboard-response",519,405277,"0.0-3.169-1.169","kwh4ucl74w2l0k4",383,"37.csv","","null","resources/maskTrios/L2BB.jpg","null","",NA,NA,NA,NA,""
"image-keyboard-response",520,406481,"0.0-3.169-2.169","kwh4ucl74w2l0k4",383,"37.csv","","null","resources/images/coin2.png","null","",NA,NA,NA,NA,""
"image-keyboard-response",521,407359,"0.0-3.170-0.170","kwh4ucl74w2l0k4",383,"37.csv","","875.0999999642372","resources/trios/L2T2A1.jpg","38","restless",0.6,0.7,0.6,0.171611795461052,"true"
"image-keyboard-response",522,407762,"0.0-3.170-1.170","kwh4ucl74w2l0k4",383,"37.csv","","null","resources/maskTrios/BT2B.jpg","null","",NA,NA,NA,NA,""
"image-keyboard-response",523,408970,"0.0-3.170-2.170","kwh4ucl74w2l0k4",383,"37.csv","","null","resources/images/coin2.png","null","",NA,NA,NA,NA,""
"image-keyboard-response",524,410257,"0.0-3.171-0.171","kwh4ucl74w2l0k4",383,"37.csv","","1283.7999999523163","resources/trios/L2T4A1.jpg","38","restless",0.6,0.7,0.6,0.889588503055482,"false"
"image-keyboard-response",525,410664,"0.0-3.171-1.171","kwh4ucl74w2l0k4",383,"37.csv","","null","resources/maskTrios/BT4B.jpg","null","",NA,NA,NA,NA,""
"image-keyboard-response",526,411868,"0.0-3.171-2.171","kwh4ucl74w2l0k4",383,"37.csv","","null","resources/images/fishbone.png","null","",NA,NA,NA,NA,""
"image-keyboard-response",527,413874,"0.0-3.172-0.172","kwh4ucl74w2l0k4",383,"37.csv","","2002.699999988079","resources/trios/L1T4A2.jpg","38","restless",0.6,0.7,0.6,0.0613454158960742,"true"
"image-keyboard-response",528,414277,"0.0-3.172-1.172","kwh4ucl74w2l0k4",383,"37.csv","","null","resources/maskTrios/BT4B.jpg","null","",NA,NA,NA,NA,""
"image-keyboard-response",529,415481,"0.0-3.172-2.172","kwh4ucl74w2l0k4",383,"37.csv","","null","resources/images/coin2.png","null","",NA,NA,NA,NA,""
"image-keyboard-response",530,415766,"0.0-3.173-0.173","kwh4ucl74w2l0k4",383,"37.csv","","281.80000001192093","resources/trios/L2T4A2.jpg","39","restless",0.5,0.7,0.6,0.856530912944203,"false"
"image-keyboard-response",531,416169,"0.0-3.173-1.173","kwh4ucl74w2l0k4",383,"37.csv","","null","resources/maskTrios/BBA2.jpg","null","",NA,NA,NA,NA,""
"image-keyboard-response",532,417371,"0.0-3.173-2.173","kwh4ucl74w2l0k4",383,"37.csv","","null","resources/images/fishbone.png","null","",NA,NA,NA,NA,""
"image-keyboard-response",533,418324,"0.0-3.174-0.174","kwh4ucl74w2l0k4",383,"37.csv","","949.8000000119209","resources/trios/L1T4A2.jpg","38","restless",0.5,0.7,0.6,0.215961417646725,"true"
"image-keyboard-response",534,418729,"0.0-3.174-1.174","kwh4ucl74w2l0k4",383,"37.csv","","null","resources/maskTrios/BT4B.jpg","null","",NA,NA,NA,NA,""
"image-keyboard-response",535,419936,"0.0-3.174-2.174","kwh4ucl74w2l0k4",383,"37.csv","","null","resources/images/coin2.png","null","",NA,NA,NA,NA,""
"image-keyboard-response",536,420226,"0.0-3.175-0.175","kwh4ucl74w2l0k4",383,"37.csv","","287.69999998807907","resources/trios/L1T4A2.jpg","37","restless",0.5,0.7,0.6,0.13615159306817,"true"
"image-keyboard-response",537,420630,"0.0-3.175-1.175","kwh4ucl74w2l0k4",383,"37.csv","","null","resources/maskTrios/L1BB.jpg","null","",NA,NA,NA,NA,""
"image-keyboard-response",538,421836,"0.0-3.175-2.175","kwh4ucl74w2l0k4",383,"37.csv","","null","resources/images/coin2.png","null","",NA,NA,NA,NA,""
"image-keyboard-response",539,422867,"0.0-3.176-0.176","kwh4ucl74w2l0k4",383,"37.csv","","1028.0999999642372","resources/trios/L2T4A1.jpg","38","restless",0.5,0.7,0.6,0.318162028185728,"true"
"image-keyboard-response",540,423270,"0.0-3.176-1.176","kwh4ucl74w2l0k4",383,"37.csv","","null","resources/maskTrios/BT4B.jpg","null","",NA,NA,NA,NA,""
"image-keyboard-response",541,424478,"0.0-3.176-2.176","kwh4ucl74w2l0k4",383,"37.csv","","null","resources/images/coin2.png","null","",NA,NA,NA,NA,""
"image-keyboard-response",542,425089,"0.0-3.177-0.177","kwh4ucl74w2l0k4",383,"37.csv","","608.3999999761581","resources/trios/L1T2A1.jpg","38","restless",0.5,0.7,0.6,0.374692942870356,"true"
"image-keyboard-response",543,425494,"0.0-3.177-1.177","kwh4ucl74w2l0k4",383,"37.csv","","null","resources/maskTrios/BT2B.jpg","null","",NA,NA,NA,NA,""
"image-keyboard-response",544,426698,"0.0-3.177-2.177","kwh4ucl74w2l0k4",383,"37.csv","","null","resources/images/coin2.png","null","",NA,NA,NA,NA,""
"image-keyboard-response",545,427896,"0.0-3.178-0.178","kwh4ucl74w2l0k4",383,"37.csv","","1196.5","resources/trios/L2T4A1.jpg","38","restless",0.5,0.8,0.6,0.870974480033213,"false"
"image-keyboard-response",546,428303,"0.0-3.178-1.178","kwh4ucl74w2l0k4",383,"37.csv","","null","resources/maskTrios/BT4B.jpg","null","",NA,NA,NA,NA,""
"image-keyboard-response",547,429511,"0.0-3.178-2.178","kwh4ucl74w2l0k4",383,"37.csv","","null","resources/images/fishbone.png","null","",NA,NA,NA,NA,""
"image-keyboard-response",548,429734,"0.0-3.179-0.179","kwh4ucl74w2l0k4",383,"37.csv","","220.30000001192093","resources/trios/L2T2A1.jpg","39","restless",0.4,0.8,0.6,0.777110187148353,"false"
"image-keyboard-response",549,430136,"0.0-3.179-1.179","kwh4ucl74w2l0k4",383,"37.csv","","null","resources/maskTrios/BBA1.jpg","null","",NA,NA,NA,NA,""
"image-keyboard-response",550,431344,"0.0-3.179-2.179","kwh4ucl74w2l0k4",383,"37.csv","","null","resources/images/fishbone.png","null","",NA,NA,NA,NA,""
"image-keyboard-response",551,433092,"0.0-3.180-0.180","kwh4ucl74w2l0k4",383,"37.csv","","1744.8999999761581","resources/trios/L1T2A2.jpg","38","restless",0.4,0.8,0.6,0.395923902998338,"true"
"image-keyboard-response",552,433494,"0.0-3.180-1.180","kwh4ucl74w2l0k4",383,"37.csv","","null","resources/maskTrios/BT2B.jpg","null","",NA,NA,NA,NA,""
"image-keyboard-response",553,434700,"0.0-3.180-2.180","kwh4ucl74w2l0k4",383,"37.csv","","null","resources/images/coin2.png","null","",NA,NA,NA,NA,""
"image-keyboard-response",554,435757,"0.0-3.181-0.181","kwh4ucl74w2l0k4",383,"37.csv","","1053.199999988079","resources/trios/L1T4A1.jpg","37","restless",0.4,0.8,0.6,0.606875610705397,"false"
"image-keyboard-response",555,436161,"0.0-3.181-1.181","kwh4ucl74w2l0k4",383,"37.csv","","null","resources/maskTrios/L1BB.jpg","null","",NA,NA,NA,NA,""
"image-keyboard-response",556,437364,"0.0-3.181-2.181","kwh4ucl74w2l0k4",383,"37.csv","","null","resources/images/fishbone.png","null","",NA,NA,NA,NA,""
"image-keyboard-response",557,437705,"0.0-3.182-0.182","kwh4ucl74w2l0k4",383,"37.csv","","338.5999999642372","resources/trios/L2T2A1.jpg","38","restless",0.4,0.8,0.6,0.838479512402714,"false"
"image-keyboard-response",558,438109,"0.0-3.182-1.182","kwh4ucl74w2l0k4",383,"37.csv","","null","resources/maskTrios/BT2B.jpg","null","",NA,NA,NA,NA,""
"image-keyboard-response",559,439316,"0.0-3.182-2.182","kwh4ucl74w2l0k4",383,"37.csv","","null","resources/images/fishbone.png","null","",NA,NA,NA,NA,""
"image-keyboard-response",560,439474,"0.0-3.183-0.183","kwh4ucl74w2l0k4",383,"37.csv","","155.19999998807907","resources/trios/L1T2A1.jpg","39","restless",0.4,0.9,0.6,0.859719897990191,"false"
"image-keyboard-response",561,439878,"0.0-3.183-1.183","kwh4ucl74w2l0k4",383,"37.csv","","null","resources/maskTrios/BBA1.jpg","null","",NA,NA,NA,NA,""
"image-keyboard-response",562,441082,"0.0-3.183-2.183","kwh4ucl74w2l0k4",383,"37.csv","","null","resources/images/fishbone.png","null","",NA,NA,NA,NA,""
"image-keyboard-response",563,441434,"0.0-3.184-0.184","kwh4ucl74w2l0k4",383,"37.csv","","348.9000000357628","resources/trios/L1T4A1.jpg","38","restless",0.3,0.8,0.6,0.649531015432609,"true"
"image-keyboard-response",564,441840,"0.0-3.184-1.184","kwh4ucl74w2l0k4",383,"37.csv","","null","resources/maskTrios/BT4B.jpg","null","",NA,NA,NA,NA,""
"image-keyboard-response",565,443044,"0.0-3.184-2.184","kwh4ucl74w2l0k4",383,"37.csv","","null","resources/images/coin2.png","null","",NA,NA,NA,NA,""
"image-keyboard-response",566,443408,"0.0-3.185-0.185","kwh4ucl74w2l0k4",383,"37.csv","","360.69999998807907","resources/trios/L2T4A2.jpg","37","restless",0.3,0.8,0.6,0.539686313515506,"false"
"image-keyboard-response",567,443813,"0.0-3.185-1.185","kwh4ucl74w2l0k4",383,"37.csv","","null","resources/maskTrios/L2BB.jpg","null","",NA,NA,NA,NA,""
"image-keyboard-response",568,445019,"0.0-3.185-2.185","kwh4ucl74w2l0k4",383,"37.csv","","null","resources/images/fishbone.png","null","",NA,NA,NA,NA,""
"image-keyboard-response",569,445248,"0.0-3.186-0.186","kwh4ucl74w2l0k4",383,"37.csv","","224.9000000357628","resources/trios/L2T4A2.jpg","38","restless",0.4,0.8,0.6,0.078445593985971,"true"
"image-keyboard-response",570,445653,"0.0-3.186-1.186","kwh4ucl74w2l0k4",383,"37.csv","","null","resources/maskTrios/BT4B.jpg","null","",NA,NA,NA,NA,""
"image-keyboard-response",571,446860,"0.0-3.186-2.186","kwh4ucl74w2l0k4",383,"37.csv","","null","resources/images/coin2.png","null","",NA,NA,NA,NA,""
"image-keyboard-response",572,446943,"0.0-3.187-0.187","kwh4ucl74w2l0k4",383,"37.csv","","81.19999998807907","resources/trios/L1T2A1.jpg","39","restless",0.4,0.8,0.6,0.686889720989799,"false"
"image-keyboard-response",573,447350,"0.0-3.187-1.187","kwh4ucl74w2l0k4",383,"37.csv","","null","resources/maskTrios/BBA1.jpg","null","",NA,NA,NA,NA,""
"image-keyboard-response",574,448554,"0.0-3.187-2.187","kwh4ucl74w2l0k4",383,"37.csv","","null","resources/images/fishbone.png","null","",NA,NA,NA,NA,""
"image-keyboard-response",575,448667,"0.0-3.188-0.188","kwh4ucl74w2l0k4",383,"37.csv","","111.59999996423721","resources/trios/L1T2A1.jpg","38","restless",0.4,0.8,0.6,0.0800817610606765,"true"
"image-keyboard-response",576,449073,"0.0-3.188-1.188","kwh4ucl74w2l0k4",383,"37.csv","","null","resources/maskTrios/BT2B.jpg","null","",NA,NA,NA,NA,""
"image-keyboard-response",577,450278,"0.0-3.188-2.188","kwh4ucl74w2l0k4",383,"37.csv","","null","resources/images/coin2.png","null","",NA,NA,NA,NA,""
"image-keyboard-response",578,451226,"0.0-3.189-0.189","kwh4ucl74w2l0k4",383,"37.csv","","944.6999999880791","resources/trios/L2T2A2.jpg","38","restless",0.4,0.8,0.6,0.342983939841085,"true"
"image-keyboard-response",579,451630,"0.0-3.189-1.189","kwh4ucl74w2l0k4",383,"37.csv","","null","resources/maskTrios/BT2B.jpg","null","",NA,NA,NA,NA,""
"image-keyboard-response",580,452836,"0.0-3.189-2.189","kwh4ucl74w2l0k4",383,"37.csv","","null","resources/images/coin2.png","null","",NA,NA,NA,NA,""
"image-keyboard-response",581,453084,"0.0-3.190-0.190","kwh4ucl74w2l0k4",383,"37.csv","","244.80000001192093","resources/trios/L2T2A2.jpg","38","restless",0.4,0.8,0.6,0.643841801977866,"true"
"image-keyboard-response",582,453487,"0.0-3.190-1.190","kwh4ucl74w2l0k4",383,"37.csv","","null","resources/maskTrios/BT2B.jpg","null","",NA,NA,NA,NA,""
"image-keyboard-response",583,454694,"0.0-3.190-2.190","kwh4ucl74w2l0k4",383,"37.csv","","null","resources/images/coin2.png","null","",NA,NA,NA,NA,""
"image-keyboard-response",584,454959,"0.0-3.191-0.191","kwh4ucl74w2l0k4",383,"37.csv","","261.7999999523163","resources/trios/L1T4A1.jpg","38","restless",0.4,0.8,0.6,0.921330478646463,"false"
"image-keyboard-response",585,455361,"0.0-3.191-1.191","kwh4ucl74w2l0k4",383,"37.csv","","null","resources/maskTrios/BT4B.jpg","null","",NA,NA,NA,NA,""
"image-keyboard-response",586,456565,"0.0-3.191-2.191","kwh4ucl74w2l0k4",383,"37.csv","","null","resources/images/fishbone.png","null","",NA,NA,NA,NA,""
"image-keyboard-response",587,456638,"0.0-3.192-0.192","kwh4ucl74w2l0k4",383,"37.csv","","71.60000002384186","resources/trios/L1T2A1.jpg","39","restless",0.4,0.9,0.6,0.400058591912535,"true"
"image-keyboard-response",588,457045,"0.0-3.192-1.192","kwh4ucl74w2l0k4",383,"37.csv","","null","resources/maskTrios/BBA1.jpg","null","",NA,NA,NA,NA,""
"image-keyboard-response",589,458253,"0.0-3.192-2.192","kwh4ucl74w2l0k4",383,"37.csv","","null","resources/images/coin2.png","null","",NA,NA,NA,NA,""
"image-keyboard-response",590,458592,"0.0-3.193-0.193","kwh4ucl74w2l0k4",383,"37.csv","","335.7999999523163","resources/trios/L1T4A1.jpg","39","restless",0.4,0.9,0.6,0.607745477995734,"false"
"image-keyboard-response",591,458995,"0.0-3.193-1.193","kwh4ucl74w2l0k4",383,"37.csv","","null","resources/maskTrios/BBA1.jpg","null","",NA,NA,NA,NA,""
"image-keyboard-response",592,460203,"0.0-3.193-2.193","kwh4ucl74w2l0k4",383,"37.csv","","null","resources/images/fishbone.png","null","",NA,NA,NA,NA,""
"image-keyboard-response",593,460510,"0.0-3.194-0.194","kwh4ucl74w2l0k4",383,"37.csv","","304.2000000476837","resources/trios/L1T2A2.jpg","37","restless",0.4,0.9,0.6,0.437686320298603,"false"
"image-keyboard-response",594,460911,"0.0-3.194-1.194","kwh4ucl74w2l0k4",383,"37.csv","","null","resources/maskTrios/L1BB.jpg","null","",NA,NA,NA,NA,""
"image-keyboard-response",595,462116,"0.0-3.194-2.194","kwh4ucl74w2l0k4",383,"37.csv","","null","resources/images/fishbone.png","null","",NA,NA,NA,NA,""
"image-keyboard-response",596,462309,"0.0-3.195-0.195","kwh4ucl74w2l0k4",383,"37.csv","","190.30000001192093","resources/trios/L2T2A2.jpg","38","restless",0.4,0.9,0.6,0.232656462855989,"true"
"image-keyboard-response",597,462716,"0.0-3.195-1.195","kwh4ucl74w2l0k4",383,"37.csv","","null","resources/maskTrios/BT2B.jpg","null","",NA,NA,NA,NA,""
"image-keyboard-response",598,463922,"0.0-3.195-2.195","kwh4ucl74w2l0k4",383,"37.csv","","null","resources/images/coin2.png","null","",NA,NA,NA,NA,""
"image-keyboard-response",599,464118,"0.0-3.196-0.196","kwh4ucl74w2l0k4",383,"37.csv","","193.19999998807907","resources/trios/L1T2A2.jpg","38","restless",0.4,0.8,0.6,0.935649489757234,"false"
"image-keyboard-response",600,464523,"0.0-3.196-1.196","kwh4ucl74w2l0k4",383,"37.csv","","null","resources/maskTrios/BT2B.jpg","null","",NA,NA,NA,NA,""
"image-keyboard-response",601,465729,"0.0-3.196-2.196","kwh4ucl74w2l0k4",383,"37.csv","","null","resources/images/fishbone.png","null","",NA,NA,NA,NA,""
"image-keyboard-response",602,465815,"0.0-3.197-0.197","kwh4ucl74w2l0k4",383,"37.csv","","82.39999997615814","resources/trios/L2T2A2.jpg","39","restless",0.4,0.9,0.6,0.467447530996283,"true"
"image-keyboard-response",603,466219,"0.0-3.197-1.197","kwh4ucl74w2l0k4",383,"37.csv","","null","resources/maskTrios/BBA2.jpg","null","",NA,NA,NA,NA,""
"image-keyboard-response",604,467423,"0.0-3.197-2.197","kwh4ucl74w2l0k4",383,"37.csv","","null","resources/images/coin2.png","null","",NA,NA,NA,NA,""
"image-keyboard-response",605,467723,"0.0-3.198-0.198","kwh4ucl74w2l0k4",383,"37.csv","","296.60000002384186","resources/trios/L1T4A1.jpg","38","restless",0.4,0.9,0.6,0.472473906456498,"true"
"image-keyboard-response",606,468128,"0.0-3.198-1.198","kwh4ucl74w2l0k4",383,"37.csv","","null","resources/maskTrios/BT4B.jpg","null","",NA,NA,NA,NA,""
"image-keyboard-response",607,469332,"0.0-3.198-2.198","kwh4ucl74w2l0k4",383,"37.csv","","null","resources/images/coin2.png","null","",NA,NA,NA,NA,""
"image-keyboard-response",608,469583,"0.0-3.199-0.199","kwh4ucl74w2l0k4",383,"37.csv","","247.5","resources/trios/L2T4A2.jpg","38","restless",0.4,0.9,0.6,0.301453937912207,"true"
"image-keyboard-response",609,469988,"0.0-3.199-1.199","kwh4ucl74w2l0k4",383,"37.csv","","null","resources/maskTrios/BT4B.jpg","null","",NA,NA,NA,NA,""
