"trial_type","trial_index","time_elapsed","internal_node_id","subject","participantCode","walkNumber","success","rt","stimulus","key_press","test_part","leftProb","midProb","rightProb","generatedNum","correct"
"pavlovia",0,1021,"0.0-0.0","10alp2msjpqseyc",0,"6.csv","","","","","",NA,NA,NA,NA,""
"fullscreen",1,4603,"0.0-1.0","10alp2msjpqseyc",0,"6.csv","true","","","","",NA,NA,NA,NA,""
"html-keyboard-response",2,13621,"0.0-2.0-0.0","10alp2msjpqseyc",0,"6.csv","","9015.89999999851","<p><font size='6'>Arrrgh!</p></font><p>Can you be the best pirate? Try to find lots of gold! But beware, some islands have more gold than others, and over time, the island with the most gold may change. Can YOU figure it out? </p><font size='6'>GOOD LUCK, CAPTAIN!!!</font><p>Press any key to begin</p>","32","",NA,NA,NA,NA,""
"image-keyboard-response",3,16625,"0.0-2.0-1.0","10alp2msjpqseyc",0,"6.csv","","null","resources/image_sets/111.png","null","",NA,NA,NA,NA,""
"image-keyboard-response",4,21002,"0.0-2.0-2.0","10alp2msjpqseyc",0,"6.csv","","4375.599999997765","resources/image_sets/left_highlight.png","37","",NA,NA,NA,NA,""
"image-keyboard-response",5,22862,"0.0-2.0-3.0","10alp2msjpqseyc",0,"6.csv","","1857","resources/image_sets/mid_highlight.png","38","",NA,NA,NA,NA,""
"image-keyboard-response",6,23990,"0.0-2.0-4.0","10alp2msjpqseyc",0,"6.csv","","1126","resources/image_sets/right_highlight.png","39","",NA,NA,NA,NA,""
"image-keyboard-response",7,29277,"0.0-2.0-5.0","10alp2msjpqseyc",0,"6.csv","","5286.099999997765","resources/image_sets/111.png","13","",NA,NA,NA,NA,""
"image-keyboard-response",8,32553,"0.0-2.0-6.0","10alp2msjpqseyc",0,"6.csv","","3274.800000000745","resources/images/coin2.png","13","",NA,NA,NA,NA,""
"image-keyboard-response",9,34866,"0.0-2.0-7.0","10alp2msjpqseyc",0,"6.csv","","2311","resources/images/fishbone.png","13","",NA,NA,NA,NA,""
"html-keyboard-response",10,49176,"0.0-2.0-8.0","10alp2msjpqseyc",0,"6.csv","","14308.699999999255","<p>Your first journey will be a long one, but you will get a well deserved break at the end</p><p>After the break you will have four more journeys, but each will be much shorter than the first, and you will have breaks in between each</p><p>Press Enter to begin</p>","13","",NA,NA,NA,NA,""
"image-keyboard-response",11,50660,"0.0-3.0-0.0","10alp2msjpqseyc",0,"6.csv","","1481.1000000014901","resources/trios/L4T4A1.jpg","38","restless",0.9,0.3,0.7,0.558339409322749,"false"
"image-keyboard-response",12,51064,"0.0-3.0-1.0","10alp2msjpqseyc",0,"6.csv","","null","resources/maskTrios/BT4B.jpg","null","",NA,NA,NA,NA,""
"image-keyboard-response",13,52267,"0.0-3.0-2.0","10alp2msjpqseyc",0,"6.csv","","null","resources/images/fishbone.png","null","",NA,NA,NA,NA,""
"image-keyboard-response",14,53432,"0.0-3.1-0.1","10alp2msjpqseyc",0,"6.csv","","1163.4000000022352","resources/trios/L4T2A3.jpg","39","restless",0.8,0.3,0.7,0.479328922846303,"true"
"image-keyboard-response",15,53840,"0.0-3.1-1.1","10alp2msjpqseyc",0,"6.csv","","null","resources/maskTrios/BBA3.jpg","null","",NA,NA,NA,NA,""
"image-keyboard-response",16,55048,"0.0-3.1-2.1","10alp2msjpqseyc",0,"6.csv","","null","resources/images/coin2.png","null","",NA,NA,NA,NA,""
"image-keyboard-response",17,56321,"0.0-3.2-0.2","10alp2msjpqseyc",0,"6.csv","","1270.800000000745","resources/trios/L1T2A1.jpg","37","restless",0.8,0.3,0.7,0.93571444972055,"false"
"image-keyboard-response",18,56728,"0.0-3.2-1.2","10alp2msjpqseyc",0,"6.csv","","null","resources/maskTrios/L1BB.jpg","null","",NA,NA,NA,NA,""
"image-keyboard-response",19,57934,"0.0-3.2-2.2","10alp2msjpqseyc",0,"6.csv","","null","resources/images/fishbone.png","null","",NA,NA,NA,NA,""
"image-keyboard-response",20,58794,"0.0-3.3-0.3","10alp2msjpqseyc",0,"6.csv","","857.0999999977648","resources/trios/L4T4A1.jpg","38","restless",0.8,0.3,0.7,0.600326244505071,"false"
"image-keyboard-response",21,59198,"0.0-3.3-1.3","10alp2msjpqseyc",0,"6.csv","","null","resources/maskTrios/BT4B.jpg","null","",NA,NA,NA,NA,""
"image-keyboard-response",22,60405,"0.0-3.3-2.3","10alp2msjpqseyc",0,"6.csv","","null","resources/images/fishbone.png","null","",NA,NA,NA,NA,""
"image-keyboard-response",23,60921,"0.0-3.4-0.4","10alp2msjpqseyc",0,"6.csv","","514.6999999992549","resources/trios/L4T4A1.jpg","37","restless",0.8,0.3,0.7,0.465375436255303,"true"
"image-keyboard-response",24,61329,"0.0-3.4-1.4","10alp2msjpqseyc",0,"6.csv","","null","resources/maskTrios/L4BB.jpg","null","",NA,NA,NA,NA,""
"image-keyboard-response",25,62536,"0.0-3.4-2.4","10alp2msjpqseyc",0,"6.csv","","null","resources/images/coin2.png","null","",NA,NA,NA,NA,""
"image-keyboard-response",26,63458,"0.0-3.5-0.5","10alp2msjpqseyc",0,"6.csv","","919.8000000007451","resources/trios/L1T4A3.jpg","39","restless",0.8,0.2,0.7,0.0254528689550386,"true"
"image-keyboard-response",27,63865,"0.0-3.5-1.5","10alp2msjpqseyc",0,"6.csv","","null","resources/maskTrios/BBA3.jpg","null","",NA,NA,NA,NA,""
"image-keyboard-response",28,65072,"0.0-3.5-2.5","10alp2msjpqseyc",0,"6.csv","","null","resources/images/coin2.png","null","",NA,NA,NA,NA,""
"image-keyboard-response",29,65662,"0.0-3.6-0.6","10alp2msjpqseyc",0,"6.csv","","587.8000000007451","resources/trios/L1T4A3.jpg","37","restless",0.8,0.2,0.7,0.787483036533456,"true"
"image-keyboard-response",30,66070,"0.0-3.6-1.6","10alp2msjpqseyc",0,"6.csv","","null","resources/maskTrios/L1BB.jpg","null","",NA,NA,NA,NA,""
"image-keyboard-response",31,67277,"0.0-3.6-2.6","10alp2msjpqseyc",0,"6.csv","","null","resources/images/coin2.png","null","",NA,NA,NA,NA,""
"image-keyboard-response",32,67741,"0.0-3.7-0.7","10alp2msjpqseyc",0,"6.csv","","462","resources/trios/L1T2A3.jpg","39","restless",0.8,0.2,0.7,0.616581956651889,"true"
"image-keyboard-response",33,68148,"0.0-3.7-1.7","10alp2msjpqseyc",0,"6.csv","","null","resources/maskTrios/BBA3.jpg","null","",NA,NA,NA,NA,""
"image-keyboard-response",34,69355,"0.0-3.7-2.7","10alp2msjpqseyc",0,"6.csv","","null","resources/images/coin2.png","null","",NA,NA,NA,NA,""
"image-keyboard-response",35,69723,"0.0-3.8-0.8","10alp2msjpqseyc",0,"6.csv","","365.79999999701977","resources/trios/L4T2A3.jpg","37","restless",0.8,0.1,0.7,0.110244166010995,"true"
"image-keyboard-response",36,70130,"0.0-3.8-1.8","10alp2msjpqseyc",0,"6.csv","","null","resources/maskTrios/L4BB.jpg","null","",NA,NA,NA,NA,""
"image-keyboard-response",37,71337,"0.0-3.8-2.8","10alp2msjpqseyc",0,"6.csv","","null","resources/images/coin2.png","null","",NA,NA,NA,NA,""
"image-keyboard-response",38,71888,"0.0-3.9-0.9","10alp2msjpqseyc",0,"6.csv","","549.6000000014901","resources/trios/L4T2A1.jpg","39","restless",0.8,0.1,0.7,0.139434279991197,"true"
"image-keyboard-response",39,72292,"0.0-3.9-1.9","10alp2msjpqseyc",0,"6.csv","","null","resources/maskTrios/BBA1.jpg","null","",NA,NA,NA,NA,""
"image-keyboard-response",40,73499,"0.0-3.9-2.9","10alp2msjpqseyc",0,"6.csv","","null","resources/images/coin2.png","null","",NA,NA,NA,NA,""
"image-keyboard-response",41,73908,"0.0-3.10-0.10","10alp2msjpqseyc",0,"6.csv","","406.4000000022352","resources/trios/L1T4A3.jpg","37","restless",0.7,0.2,0.7,0.349925658466424,"true"
"image-keyboard-response",42,74311,"0.0-3.10-1.10","10alp2msjpqseyc",0,"6.csv","","null","resources/maskTrios/L1BB.jpg","null","",NA,NA,NA,NA,""
"image-keyboard-response",43,75515,"0.0-3.10-2.10","10alp2msjpqseyc",0,"6.csv","","null","resources/images/coin2.png","null","",NA,NA,NA,NA,""
"image-keyboard-response",44,75922,"0.0-3.11-0.11","10alp2msjpqseyc",0,"6.csv","","405.1000000014901","resources/trios/L4T2A1.jpg","39","restless",0.7,0.2,0.7,0.725317630924859,"false"
"image-keyboard-response",45,76328,"0.0-3.11-1.11","10alp2msjpqseyc",0,"6.csv","","null","resources/maskTrios/BBA1.jpg","null","",NA,NA,NA,NA,""
"image-keyboard-response",46,77530,"0.0-3.11-2.11","10alp2msjpqseyc",0,"6.csv","","null","resources/images/fishbone.png","null","",NA,NA,NA,NA,""
"image-keyboard-response",47,78829,"0.0-3.12-0.12","10alp2msjpqseyc",0,"6.csv","","1296.6000000014901","resources/trios/L1T2A3.jpg","39","restless",0.7,0.2,0.6,0.939778606516366,"false"
"image-keyboard-response",48,79235,"0.0-3.12-1.12","10alp2msjpqseyc",0,"6.csv","","null","resources/maskTrios/BBA3.jpg","null","",NA,NA,NA,NA,""
"image-keyboard-response",49,80441,"0.0-3.12-2.12","10alp2msjpqseyc",0,"6.csv","","null","resources/images/fishbone.png","null","",NA,NA,NA,NA,""
"image-keyboard-response",50,80972,"0.0-3.13-0.13","10alp2msjpqseyc",0,"6.csv","","529.2999999970198","resources/trios/L4T4A3.jpg","37","restless",0.7,0.2,0.6,0.373206432275996,"true"
"image-keyboard-response",51,81380,"0.0-3.13-1.13","10alp2msjpqseyc",0,"6.csv","","null","resources/maskTrios/L4BB.jpg","null","",NA,NA,NA,NA,""
"image-keyboard-response",52,82587,"0.0-3.13-2.13","10alp2msjpqseyc",0,"6.csv","","null","resources/images/coin2.png","null","",NA,NA,NA,NA,""
"image-keyboard-response",53,82933,"0.0-3.14-0.14","10alp2msjpqseyc",0,"6.csv","","344.5","resources/trios/L1T2A3.jpg","38","restless",0.7,0.2,0.5,0.675034390619244,"false"
"image-keyboard-response",54,83340,"0.0-3.14-1.14","10alp2msjpqseyc",0,"6.csv","","null","resources/maskTrios/BT2B.jpg","null","",NA,NA,NA,NA,""
"image-keyboard-response",55,84547,"0.0-3.14-2.14","10alp2msjpqseyc",0,"6.csv","","null","resources/images/fishbone.png","null","",NA,NA,NA,NA,""
"image-keyboard-response",56,85116,"0.0-3.15-0.15","10alp2msjpqseyc",0,"6.csv","","567.1999999992549","resources/trios/L1T2A3.jpg","37","restless",0.7,0.2,0.5,0.740577354757575,"false"
"image-keyboard-response",57,85523,"0.0-3.15-1.15","10alp2msjpqseyc",0,"6.csv","","null","resources/maskTrios/L1BB.jpg","null","",NA,NA,NA,NA,""
"image-keyboard-response",58,86727,"0.0-3.15-2.15","10alp2msjpqseyc",0,"6.csv","","null","resources/images/fishbone.png","null","",NA,NA,NA,NA,""
"image-keyboard-response",59,87008,"0.0-3.16-0.16","10alp2msjpqseyc",0,"6.csv","","279.30000000074506","resources/trios/L4T2A3.jpg","39","restless",0.7,0.3,0.5,0.963955266670629,"false"
"image-keyboard-response",60,87412,"0.0-3.16-1.16","10alp2msjpqseyc",0,"6.csv","","null","resources/maskTrios/BBA3.jpg","null","",NA,NA,NA,NA,""
"image-keyboard-response",61,88619,"0.0-3.16-2.16","10alp2msjpqseyc",0,"6.csv","","null","resources/images/fishbone.png","null","",NA,NA,NA,NA,""
"image-keyboard-response",62,89310,"0.0-3.17-0.17","10alp2msjpqseyc",0,"6.csv","","689","resources/trios/L1T2A1.jpg","38","restless",0.7,0.4,0.5,0.352981154819929,"true"
"image-keyboard-response",63,89718,"0.0-3.17-1.17","10alp2msjpqseyc",0,"6.csv","","null","resources/maskTrios/BT2B.jpg","null","",NA,NA,NA,NA,""
"image-keyboard-response",64,90922,"0.0-3.17-2.17","10alp2msjpqseyc",0,"6.csv","","null","resources/images/coin2.png","null","",NA,NA,NA,NA,""
"image-keyboard-response",65,92441,"0.0-3.18-0.18","10alp2msjpqseyc",0,"6.csv","","1517.4000000022352","resources/trios/L1T4A1.jpg","37","restless",0.7,0.4,0.5,0.253579317062786,"true"
"image-keyboard-response",66,92848,"0.0-3.18-1.18","10alp2msjpqseyc",0,"6.csv","","null","resources/maskTrios/L1BB.jpg","null","",NA,NA,NA,NA,""
"image-keyboard-response",67,94054,"0.0-3.18-2.18","10alp2msjpqseyc",0,"6.csv","","null","resources/images/coin2.png","null","",NA,NA,NA,NA,""
"image-keyboard-response",68,94528,"0.0-3.19-0.19","10alp2msjpqseyc",0,"6.csv","","471.6000000014901","resources/trios/L1T4A3.jpg","39","restless",0.7,0.4,0.5,0.346568150357933,"true"
"image-keyboard-response",69,94935,"0.0-3.19-1.19","10alp2msjpqseyc",0,"6.csv","","null","resources/maskTrios/BBA3.jpg","null","",NA,NA,NA,NA,""
"image-keyboard-response",70,96142,"0.0-3.19-2.19","10alp2msjpqseyc",0,"6.csv","","null","resources/images/coin2.png","null","",NA,NA,NA,NA,""
"image-keyboard-response",71,96701,"0.0-3.20-0.20","10alp2msjpqseyc",0,"6.csv","","557","resources/trios/L1T2A1.jpg","37","restless",0.6,0.4,0.6,0.869336034742989,"false"
"image-keyboard-response",72,97109,"0.0-3.20-1.20","10alp2msjpqseyc",0,"6.csv","","null","resources/maskTrios/L1BB.jpg","null","",NA,NA,NA,NA,""
"image-keyboard-response",73,98312,"0.0-3.20-2.20","10alp2msjpqseyc",0,"6.csv","","null","resources/images/fishbone.png","null","",NA,NA,NA,NA,""
"image-keyboard-response",74,98947,"0.0-3.21-0.21","10alp2msjpqseyc",0,"6.csv","","632.3999999985099","resources/trios/L4T4A3.jpg","38","restless",0.6,0.5,0.6,0.452255899844004,"true"
"image-keyboard-response",75,99350,"0.0-3.21-1.21","10alp2msjpqseyc",0,"6.csv","","null","resources/maskTrios/BT4B.jpg","null","",NA,NA,NA,NA,""
"image-keyboard-response",76,100557,"0.0-3.21-2.21","10alp2msjpqseyc",0,"6.csv","","null","resources/images/coin2.png","null","",NA,NA,NA,NA,""
"image-keyboard-response",77,100976,"0.0-3.22-0.22","10alp2msjpqseyc",0,"6.csv","","417","resources/trios/L4T2A1.jpg","38","restless",0.6,0.5,0.6,0.864022262704765,"false"
"image-keyboard-response",78,101384,"0.0-3.22-1.22","10alp2msjpqseyc",0,"6.csv","","null","resources/maskTrios/BT2B.jpg","null","",NA,NA,NA,NA,""
"image-keyboard-response",79,102590,"0.0-3.22-2.22","10alp2msjpqseyc",0,"6.csv","","null","resources/images/fishbone.png","null","",NA,NA,NA,NA,""
"image-keyboard-response",80,103090,"0.0-3.23-0.23","10alp2msjpqseyc",0,"6.csv","","497.69999999925494","resources/trios/L1T4A1.jpg","39","restless",0.6,0.5,0.6,0.630703094286605,"false"
"image-keyboard-response",81,103497,"0.0-3.23-1.23","10alp2msjpqseyc",0,"6.csv","","null","resources/maskTrios/BBA1.jpg","null","",NA,NA,NA,NA,""
"image-keyboard-response",82,104704,"0.0-3.23-2.23","10alp2msjpqseyc",0,"6.csv","","null","resources/images/fishbone.png","null","",NA,NA,NA,NA,""
"image-keyboard-response",83,105011,"0.0-3.24-0.24","10alp2msjpqseyc",0,"6.csv","","304.5","resources/trios/L1T4A1.jpg","37","restless",0.6,0.5,0.6,0.495104757405855,"true"
"image-keyboard-response",84,105418,"0.0-3.24-1.24","10alp2msjpqseyc",0,"6.csv","","null","resources/maskTrios/L1BB.jpg","null","",NA,NA,NA,NA,""
"image-keyboard-response",85,106624,"0.0-3.24-2.24","10alp2msjpqseyc",0,"6.csv","","null","resources/images/coin2.png","null","",NA,NA,NA,NA,""
"image-keyboard-response",86,107042,"0.0-3.25-0.25","10alp2msjpqseyc",0,"6.csv","","416.1000000014901","resources/trios/L4T4A3.jpg","37","restless",0.6,0.5,0.6,0.149423195450641,"true"
"image-keyboard-response",87,107450,"0.0-3.25-1.25","10alp2msjpqseyc",0,"6.csv","","null","resources/maskTrios/L4BB.jpg","null","",NA,NA,NA,NA,""
"image-keyboard-response",88,108657,"0.0-3.25-2.25","10alp2msjpqseyc",0,"6.csv","","null","resources/images/coin2.png","null","",NA,NA,NA,NA,""
"image-keyboard-response",89,108976,"0.0-3.26-0.26","10alp2msjpqseyc",0,"6.csv","","316.69999999925494","resources/trios/L1T2A3.jpg","37","restless",0.7,0.5,0.6,0.356010371976976,"true"
"image-keyboard-response",90,109382,"0.0-3.26-1.26","10alp2msjpqseyc",0,"6.csv","","null","resources/maskTrios/L1BB.jpg","null","",NA,NA,NA,NA,""
"image-keyboard-response",91,110589,"0.0-3.26-2.26","10alp2msjpqseyc",0,"6.csv","","null","resources/images/coin2.png","null","",NA,NA,NA,NA,""
"image-keyboard-response",92,110942,"0.0-3.27-0.27","10alp2msjpqseyc",0,"6.csv","","350.8999999985099","resources/trios/L1T2A1.jpg","37","restless",0.7,0.5,0.6,0.122347771087572,"true"
"image-keyboard-response",93,111347,"0.0-3.27-1.27","10alp2msjpqseyc",0,"6.csv","","null","resources/maskTrios/L1BB.jpg","null","",NA,NA,NA,NA,""
"image-keyboard-response",94,112554,"0.0-3.27-2.27","10alp2msjpqseyc",0,"6.csv","","null","resources/images/coin2.png","null","",NA,NA,NA,NA,""
"image-keyboard-response",95,112868,"0.0-3.28-0.28","10alp2msjpqseyc",0,"6.csv","","312.30000000074506","resources/trios/L4T4A1.jpg","37","restless",0.7,0.5,0.6,0.704311531178006,"false"
"image-keyboard-response",96,113275,"0.0-3.28-1.28","10alp2msjpqseyc",0,"6.csv","","null","resources/maskTrios/L4BB.jpg","null","",NA,NA,NA,NA,""
"image-keyboard-response",97,114482,"0.0-3.28-2.28","10alp2msjpqseyc",0,"6.csv","","null","resources/images/fishbone.png","null","",NA,NA,NA,NA,""
"image-keyboard-response",98,114852,"0.0-3.29-0.29","10alp2msjpqseyc",0,"6.csv","","367.80000000074506","resources/trios/L4T2A3.jpg","39","restless",0.7,0.5,0.6,0.0831912954548006,"true"
"image-keyboard-response",99,115255,"0.0-3.29-1.29","10alp2msjpqseyc",0,"6.csv","","null","resources/maskTrios/BBA3.jpg","null","",NA,NA,NA,NA,""
"image-keyboard-response",100,116458,"0.0-3.29-2.29","10alp2msjpqseyc",0,"6.csv","","null","resources/images/coin2.png","null","",NA,NA,NA,NA,""
"image-keyboard-response",101,116821,"0.0-3.30-0.30","10alp2msjpqseyc",0,"6.csv","","360.80000000074506","resources/trios/L4T4A3.jpg","39","restless",0.7,0.5,0.7,0.272347639390661,"true"
"image-keyboard-response",102,117228,"0.0-3.30-1.30","10alp2msjpqseyc",0,"6.csv","","null","resources/maskTrios/BBA3.jpg","null","",NA,NA,NA,NA,""
"image-keyboard-response",103,118434,"0.0-3.30-2.30","10alp2msjpqseyc",0,"6.csv","","null","resources/images/coin2.png","null","",NA,NA,NA,NA,""
"image-keyboard-response",104,118797,"0.0-3.31-0.31","10alp2msjpqseyc",0,"6.csv","","360.29999999701977","resources/trios/L1T4A3.jpg","39","restless",0.7,0.5,0.7,0.272290022957968,"true"
"image-keyboard-response",105,119202,"0.0-3.31-1.31","10alp2msjpqseyc",0,"6.csv","","null","resources/maskTrios/BBA3.jpg","null","",NA,NA,NA,NA,""
"image-keyboard-response",106,120409,"0.0-3.31-2.31","10alp2msjpqseyc",0,"6.csv","","null","resources/images/coin2.png","null","",NA,NA,NA,NA,""
"image-keyboard-response",107,120908,"0.0-3.32-0.32","10alp2msjpqseyc",0,"6.csv","","496.5","resources/trios/L4T4A1.jpg","39","restless",0.7,0.5,0.7,0.966720851981382,"false"
"image-keyboard-response",108,121311,"0.0-3.32-1.32","10alp2msjpqseyc",0,"6.csv","","null","resources/maskTrios/BBA1.jpg","null","",NA,NA,NA,NA,""
"image-keyboard-response",109,122518,"0.0-3.32-2.32","10alp2msjpqseyc",0,"6.csv","","null","resources/images/fishbone.png","null","",NA,NA,NA,NA,""
"image-keyboard-response",110,122889,"0.0-3.33-0.33","10alp2msjpqseyc",0,"6.csv","","368.70000000298023","resources/trios/L1T4A1.jpg","38","restless",0.6,0.5,0.7,0.421651352107643,"true"
"image-keyboard-response",111,123295,"0.0-3.33-1.33","10alp2msjpqseyc",0,"6.csv","","null","resources/maskTrios/BT4B.jpg","null","",NA,NA,NA,NA,""
"image-keyboard-response",112,124502,"0.0-3.33-2.33","10alp2msjpqseyc",0,"6.csv","","null","resources/images/coin2.png","null","",NA,NA,NA,NA,""
"image-keyboard-response",113,124908,"0.0-3.34-0.34","10alp2msjpqseyc",0,"6.csv","","404.69999999925494","resources/trios/L4T4A1.jpg","38","restless",0.6,0.6,0.7,0.0490862840031758,"true"
"image-keyboard-response",114,125315,"0.0-3.34-1.34","10alp2msjpqseyc",0,"6.csv","","null","resources/maskTrios/BT4B.jpg","null","",NA,NA,NA,NA,""
"image-keyboard-response",115,126522,"0.0-3.34-2.34","10alp2msjpqseyc",0,"6.csv","","null","resources/images/coin2.png","null","",NA,NA,NA,NA,""
"image-keyboard-response",116,126985,"0.0-3.35-0.35","10alp2msjpqseyc",0,"6.csv","","460.8999999985099","resources/trios/L1T4A1.jpg","38","restless",0.6,0.6,0.7,0.425292385735585,"true"
"image-keyboard-response",117,127392,"0.0-3.35-1.35","10alp2msjpqseyc",0,"6.csv","","null","resources/maskTrios/BT4B.jpg","null","",NA,NA,NA,NA,""
"image-keyboard-response",118,128595,"0.0-3.35-2.35","10alp2msjpqseyc",0,"6.csv","","null","resources/images/coin2.png","null","",NA,NA,NA,NA,""
"image-keyboard-response",119,129074,"0.0-3.36-0.36","10alp2msjpqseyc",0,"6.csv","","476.1000000014901","resources/trios/L4T2A1.jpg","38","restless",0.6,0.6,0.7,0.441559151096206,"true"
"image-keyboard-response",120,129481,"0.0-3.36-1.36","10alp2msjpqseyc",0,"6.csv","","null","resources/maskTrios/BT2B.jpg","null","",NA,NA,NA,NA,""
"image-keyboard-response",121,130687,"0.0-3.36-2.36","10alp2msjpqseyc",0,"6.csv","","null","resources/images/coin2.png","null","",NA,NA,NA,NA,""
"image-keyboard-response",122,131075,"0.0-3.37-0.37","10alp2msjpqseyc",0,"6.csv","","385.30000000074506","resources/trios/L1T4A1.jpg","38","restless",0.6,0.6,0.7,0.0611592596709221,"true"
"image-keyboard-response",123,131479,"0.0-3.37-1.37","10alp2msjpqseyc",0,"6.csv","","null","resources/maskTrios/BT4B.jpg","null","",NA,NA,NA,NA,""
"image-keyboard-response",124,132686,"0.0-3.37-2.37","10alp2msjpqseyc",0,"6.csv","","null","resources/images/coin2.png","null","",NA,NA,NA,NA,""
"image-keyboard-response",125,133061,"0.0-3.38-0.38","10alp2msjpqseyc",0,"6.csv","","373.19999999925494","resources/trios/L4T2A3.jpg","38","restless",0.5,0.6,0.7,0.405390969247415,"true"
"image-keyboard-response",126,133466,"0.0-3.38-1.38","10alp2msjpqseyc",0,"6.csv","","null","resources/maskTrios/BT2B.jpg","null","",NA,NA,NA,NA,""
"image-keyboard-response",127,134672,"0.0-3.38-2.38","10alp2msjpqseyc",0,"6.csv","","null","resources/images/coin2.png","null","",NA,NA,NA,NA,""
"image-keyboard-response",128,135011,"0.0-3.39-0.39","10alp2msjpqseyc",0,"6.csv","","337","resources/trios/L1T2A1.jpg","38","restless",0.5,0.6,0.7,0.770355648726413,"false"
"image-keyboard-response",129,135418,"0.0-3.39-1.39","10alp2msjpqseyc",0,"6.csv","","null","resources/maskTrios/BT2B.jpg","null","",NA,NA,NA,NA,""
"image-keyboard-response",130,136625,"0.0-3.39-2.39","10alp2msjpqseyc",0,"6.csv","","null","resources/images/fishbone.png","null","",NA,NA,NA,NA,""
"image-keyboard-response",131,137101,"0.0-3.40-0.40","10alp2msjpqseyc",0,"6.csv","","474.1000000014901","resources/trios/L1T4A1.jpg","37","restless",0.5,0.5,0.7,0.986661836110865,"false"
"image-keyboard-response",132,137508,"0.0-3.40-1.40","10alp2msjpqseyc",0,"6.csv","","null","resources/maskTrios/L1BB.jpg","null","",NA,NA,NA,NA,""
"image-keyboard-response",133,138713,"0.0-3.40-2.40","10alp2msjpqseyc",0,"6.csv","","null","resources/images/fishbone.png","null","",NA,NA,NA,NA,""
"image-keyboard-response",134,139207,"0.0-3.41-0.41","10alp2msjpqseyc",0,"6.csv","","492.5","resources/trios/L4T4A3.jpg","39","restless",0.5,0.6,0.7,0.641825625623943,"true"
"image-keyboard-response",135,139614,"0.0-3.41-1.41","10alp2msjpqseyc",0,"6.csv","","null","resources/maskTrios/BBA3.jpg","null","",NA,NA,NA,NA,""
"image-keyboard-response",136,140821,"0.0-3.41-2.41","10alp2msjpqseyc",0,"6.csv","","null","resources/images/coin2.png","null","",NA,NA,NA,NA,""
"image-keyboard-response",137,141212,"0.0-3.42-0.42","10alp2msjpqseyc",0,"6.csv","","388.9000000022352","resources/trios/L1T4A1.jpg","39","restless",0.5,0.6,0.7,0.284354515854708,"true"
"image-keyboard-response",138,141618,"0.0-3.42-1.42","10alp2msjpqseyc",0,"6.csv","","null","resources/maskTrios/BBA1.jpg","null","",NA,NA,NA,NA,""
"image-keyboard-response",139,142825,"0.0-3.42-2.42","10alp2msjpqseyc",0,"6.csv","","null","resources/images/coin2.png","null","",NA,NA,NA,NA,""
"image-keyboard-response",140,143189,"0.0-3.43-0.43","10alp2msjpqseyc",0,"6.csv","","362.30000000074506","resources/trios/L1T2A3.jpg","39","restless",0.5,0.6,0.7,0.0928635917304368,"true"
"image-keyboard-response",141,143592,"0.0-3.43-1.43","10alp2msjpqseyc",0,"6.csv","","null","resources/maskTrios/BBA3.jpg","null","",NA,NA,NA,NA,""
"image-keyboard-response",142,144799,"0.0-3.43-2.43","10alp2msjpqseyc",0,"6.csv","","null","resources/images/coin2.png","null","",NA,NA,NA,NA,""
"image-keyboard-response",143,145153,"0.0-3.44-0.44","10alp2msjpqseyc",0,"6.csv","","352.1000000014901","resources/trios/L1T4A1.jpg","39","restless",0.5,0.6,0.7,0.329566268784466,"true"
"image-keyboard-response",144,145560,"0.0-3.44-1.44","10alp2msjpqseyc",0,"6.csv","","null","resources/maskTrios/BBA1.jpg","null","",NA,NA,NA,NA,""
"image-keyboard-response",145,146767,"0.0-3.44-2.44","10alp2msjpqseyc",0,"6.csv","","null","resources/images/coin2.png","null","",NA,NA,NA,NA,""
"image-keyboard-response",146,147126,"0.0-3.45-0.45","10alp2msjpqseyc",0,"6.csv","","357.1000000014901","resources/trios/L4T2A3.jpg","39","restless",0.5,0.6,0.7,0.301941102149452,"true"
"image-keyboard-response",147,147531,"0.0-3.45-1.45","10alp2msjpqseyc",0,"6.csv","","null","resources/maskTrios/BBA3.jpg","null","",NA,NA,NA,NA,""
"image-keyboard-response",148,148738,"0.0-3.45-2.45","10alp2msjpqseyc",0,"6.csv","","null","resources/images/coin2.png","null","",NA,NA,NA,NA,""
"image-keyboard-response",149,149144,"0.0-3.46-0.46","10alp2msjpqseyc",0,"6.csv","","404.5","resources/trios/L4T4A3.jpg","39","restless",0.5,0.6,0.7,0.898082430772266,"false"
"image-keyboard-response",150,149550,"0.0-3.46-1.46","10alp2msjpqseyc",0,"6.csv","","null","resources/maskTrios/BBA3.jpg","null","",NA,NA,NA,NA,""
"image-keyboard-response",151,150756,"0.0-3.46-2.46","10alp2msjpqseyc",0,"6.csv","","null","resources/images/fishbone.png","null","",NA,NA,NA,NA,""
"image-keyboard-response",152,151424,"0.0-3.47-0.47","10alp2msjpqseyc",0,"6.csv","","665.8999999985099","resources/trios/L4T4A1.jpg","37","restless",0.5,0.7,0.7,0.744628388673555,"false"
"image-keyboard-response",153,151831,"0.0-3.47-1.47","10alp2msjpqseyc",0,"6.csv","","null","resources/maskTrios/L4BB.jpg","null","",NA,NA,NA,NA,""
"image-keyboard-response",154,153038,"0.0-3.47-2.47","10alp2msjpqseyc",0,"6.csv","","null","resources/images/fishbone.png","null","",NA,NA,NA,NA,""
"image-keyboard-response",155,153338,"0.0-3.48-0.48","10alp2msjpqseyc",0,"6.csv","","298.5","resources/trios/L4T2A1.jpg","38","restless",0.5,0.7,0.7,0.617096371587143,"true"
"image-keyboard-response",156,153745,"0.0-3.48-1.48","10alp2msjpqseyc",0,"6.csv","","null","resources/maskTrios/BT2B.jpg","null","",NA,NA,NA,NA,""
"image-keyboard-response",157,154952,"0.0-3.48-2.48","10alp2msjpqseyc",0,"6.csv","","null","resources/images/coin2.png","null","",NA,NA,NA,NA,""
"image-keyboard-response",158,155278,"0.0-3.49-0.49","10alp2msjpqseyc",0,"6.csv","","324.5","resources/trios/L4T4A1.jpg","38","restless",0.5,0.7,0.7,0.111663995228098,"true"
"image-keyboard-response",159,155683,"0.0-3.49-1.49","10alp2msjpqseyc",0,"6.csv","","null","resources/maskTrios/BT4B.jpg","null","",NA,NA,NA,NA,""
"image-keyboard-response",160,156889,"0.0-3.49-2.49","10alp2msjpqseyc",0,"6.csv","","null","resources/images/coin2.png","null","",NA,NA,NA,NA,""
"image-keyboard-response",161,157304,"0.0-3.50-0.50","10alp2msjpqseyc",0,"6.csv","","412.4000000022352","resources/trios/L4T2A3.jpg","38","restless",0.5,0.8,0.7,0.39085769558205,"true"
"image-keyboard-response",162,157710,"0.0-3.50-1.50","10alp2msjpqseyc",0,"6.csv","","null","resources/maskTrios/BT2B.jpg","null","",NA,NA,NA,NA,""
"image-keyboard-response",163,158916,"0.0-3.50-2.50","10alp2msjpqseyc",0,"6.csv","","null","resources/images/coin2.png","null","",NA,NA,NA,NA,""
"image-keyboard-response",164,159437,"0.0-3.51-0.51","10alp2msjpqseyc",0,"6.csv","","519.5","resources/trios/L4T2A1.jpg","38","restless",0.5,0.8,0.7,0.755942954989925,"true"
"image-keyboard-response",165,159844,"0.0-3.51-1.51","10alp2msjpqseyc",0,"6.csv","","null","resources/maskTrios/BT2B.jpg","null","",NA,NA,NA,NA,""
"image-keyboard-response",166,161051,"0.0-3.51-2.51","10alp2msjpqseyc",0,"6.csv","","null","resources/images/coin2.png","null","",NA,NA,NA,NA,""
"image-keyboard-response",167,161429,"0.0-3.52-0.52","10alp2msjpqseyc",0,"6.csv","","376","resources/trios/L4T2A3.jpg","38","restless",0.5,0.8,0.7,0.668122894599172,"true"
"image-keyboard-response",168,161836,"0.0-3.52-1.52","10alp2msjpqseyc",0,"6.csv","","null","resources/maskTrios/BT2B.jpg","null","",NA,NA,NA,NA,""
"image-keyboard-response",169,163043,"0.0-3.52-2.52","10alp2msjpqseyc",0,"6.csv","","null","resources/images/coin2.png","null","",NA,NA,NA,NA,""
"image-keyboard-response",170,163304,"0.0-3.53-0.53","10alp2msjpqseyc",0,"6.csv","","259.3999999985099","resources/trios/L1T4A3.jpg","38","restless",0.5,0.8,0.7,0.550920660596605,"true"
"image-keyboard-response",171,163711,"0.0-3.53-1.53","10alp2msjpqseyc",0,"6.csv","","null","resources/maskTrios/BT4B.jpg","null","",NA,NA,NA,NA,""
"image-keyboard-response",172,164918,"0.0-3.53-2.53","10alp2msjpqseyc",0,"6.csv","","null","resources/images/coin2.png","null","",NA,NA,NA,NA,""
"image-keyboard-response",173,165249,"0.0-3.54-0.54","10alp2msjpqseyc",0,"6.csv","","329.29999999701977","resources/trios/L1T2A3.jpg","38","restless",0.5,0.8,0.7,0.0575917386233118,"true"
"image-keyboard-response",174,165656,"0.0-3.54-1.54","10alp2msjpqseyc",0,"6.csv","","null","resources/maskTrios/BT2B.jpg","null","",NA,NA,NA,NA,""
"image-keyboard-response",175,166863,"0.0-3.54-2.54","10alp2msjpqseyc",0,"6.csv","","null","resources/images/coin2.png","null","",NA,NA,NA,NA,""
"image-keyboard-response",176,167183,"0.0-3.55-0.55","10alp2msjpqseyc",0,"6.csv","","318.3999999985099","resources/trios/L1T4A3.jpg","38","restless",0.6,0.8,0.7,0.301253566166626,"true"
"image-keyboard-response",177,167590,"0.0-3.55-1.55","10alp2msjpqseyc",0,"6.csv","","null","resources/maskTrios/BT4B.jpg","null","",NA,NA,NA,NA,""
"image-keyboard-response",178,168797,"0.0-3.55-2.55","10alp2msjpqseyc",0,"6.csv","","null","resources/images/coin2.png","null","",NA,NA,NA,NA,""
"image-keyboard-response",179,169149,"0.0-3.56-0.56","10alp2msjpqseyc",0,"6.csv","","349.80000000074506","resources/trios/L4T2A1.jpg","38","restless",0.6,0.8,0.7,0.999687080077212,"false"
"image-keyboard-response",180,169556,"0.0-3.56-1.56","10alp2msjpqseyc",0,"6.csv","","null","resources/maskTrios/BT2B.jpg","null","",NA,NA,NA,NA,""
"image-keyboard-response",181,170762,"0.0-3.56-2.56","10alp2msjpqseyc",0,"6.csv","","null","resources/images/fishbone.png","null","",NA,NA,NA,NA,""
"image-keyboard-response",182,171091,"0.0-3.57-0.57","10alp2msjpqseyc",0,"6.csv","","326.5","resources/trios/L1T2A3.jpg","39","restless",0.5,0.8,0.7,0.965065727382348,"false"
"image-keyboard-response",183,171497,"0.0-3.57-1.57","10alp2msjpqseyc",0,"6.csv","","null","resources/maskTrios/BBA3.jpg","null","",NA,NA,NA,NA,""
"image-keyboard-response",184,172704,"0.0-3.57-2.57","10alp2msjpqseyc",0,"6.csv","","null","resources/images/fishbone.png","null","",NA,NA,NA,NA,""
"image-keyboard-response",185,173487,"0.0-3.58-0.58","10alp2msjpqseyc",0,"6.csv","","781.0999999977648","resources/trios/L1T2A3.jpg","37","restless",0.5,0.8,0.7,0.764215131265692,"false"
"image-keyboard-response",186,173894,"0.0-3.58-1.58","10alp2msjpqseyc",0,"6.csv","","null","resources/maskTrios/L1BB.jpg","null","",NA,NA,NA,NA,""
"image-keyboard-response",187,175101,"0.0-3.58-2.58","10alp2msjpqseyc",0,"6.csv","","null","resources/images/fishbone.png","null","",NA,NA,NA,NA,""
"image-keyboard-response",188,175449,"0.0-3.59-0.59","10alp2msjpqseyc",0,"6.csv","","345.69999999925494","resources/trios/L1T2A3.jpg","39","restless",0.5,0.8,0.7,0.218285080010872,"true"
"image-keyboard-response",189,175856,"0.0-3.59-1.59","10alp2msjpqseyc",0,"6.csv","","null","resources/maskTrios/BBA3.jpg","null","",NA,NA,NA,NA,""
"image-keyboard-response",190,177063,"0.0-3.59-2.59","10alp2msjpqseyc",0,"6.csv","","null","resources/images/coin2.png","null","",NA,NA,NA,NA,""
"image-keyboard-response",191,177459,"0.0-3.60-0.60","10alp2msjpqseyc",0,"6.csv","","393.9000000022352","resources/trios/L1T2A1.jpg","39","restless",0.5,0.8,0.7,0.684479911556434,"true"
"image-keyboard-response",192,177866,"0.0-3.60-1.60","10alp2msjpqseyc",0,"6.csv","","null","resources/maskTrios/BBA1.jpg","null","",NA,NA,NA,NA,""
"image-keyboard-response",193,179073,"0.0-3.60-2.60","10alp2msjpqseyc",0,"6.csv","","null","resources/images/coin2.png","null","",NA,NA,NA,NA,""
"image-keyboard-response",194,179440,"0.0-3.61-0.61","10alp2msjpqseyc",0,"6.csv","","365.80000000074506","resources/trios/L1T2A1.jpg","39","restless",0.5,0.8,0.7,0.0686802300199547,"true"
"image-keyboard-response",195,179847,"0.0-3.61-1.61","10alp2msjpqseyc",0,"6.csv","","null","resources/maskTrios/BBA1.jpg","null","",NA,NA,NA,NA,""
"image-keyboard-response",196,181054,"0.0-3.61-2.61","10alp2msjpqseyc",0,"6.csv","","null","resources/images/coin2.png","null","",NA,NA,NA,NA,""
"image-keyboard-response",197,181387,"0.0-3.62-0.62","10alp2msjpqseyc",0,"6.csv","","330.30000000074506","resources/trios/L1T4A3.jpg","39","restless",0.5,0.7,0.8,0.0983089507070485,"true"
"image-keyboard-response",198,181793,"0.0-3.62-1.62","10alp2msjpqseyc",0,"6.csv","","null","resources/maskTrios/BBA3.jpg","null","",NA,NA,NA,NA,""
"image-keyboard-response",199,183000,"0.0-3.62-2.62","10alp2msjpqseyc",0,"6.csv","","null","resources/images/coin2.png","null","",NA,NA,NA,NA,""
"image-keyboard-response",200,183287,"0.0-3.63-0.63","10alp2msjpqseyc",0,"6.csv","","285.19999999925494","resources/trios/L4T4A1.jpg","39","restless",0.5,0.8,0.8,0.0318667854212462,"true"
"image-keyboard-response",201,183694,"0.0-3.63-1.63","10alp2msjpqseyc",0,"6.csv","","null","resources/maskTrios/BBA1.jpg","null","",NA,NA,NA,NA,""
"image-keyboard-response",202,184901,"0.0-3.63-2.63","10alp2msjpqseyc",0,"6.csv","","null","resources/images/coin2.png","null","",NA,NA,NA,NA,""
"image-keyboard-response",203,185400,"0.0-3.64-0.64","10alp2msjpqseyc",0,"6.csv","","496.8999999985099","resources/trios/L4T4A3.jpg","39","restless",0.5,0.8,0.8,0.705529509984372,"true"
"image-keyboard-response",204,185808,"0.0-3.64-1.64","10alp2msjpqseyc",0,"6.csv","","null","resources/maskTrios/BBA3.jpg","null","",NA,NA,NA,NA,""
"image-keyboard-response",205,187015,"0.0-3.64-2.64","10alp2msjpqseyc",0,"6.csv","","null","resources/images/coin2.png","null","",NA,NA,NA,NA,""
"image-keyboard-response",206,187887,"0.0-3.65-0.65","10alp2msjpqseyc",0,"6.csv","","870.6000000014901","resources/trios/L1T4A1.jpg","39","restless",0.6,0.8,0.8,0.493047203624167,"true"
"image-keyboard-response",207,188294,"0.0-3.65-1.65","10alp2msjpqseyc",0,"6.csv","","null","resources/maskTrios/BBA1.jpg","null","",NA,NA,NA,NA,""
"image-keyboard-response",208,189501,"0.0-3.65-2.65","10alp2msjpqseyc",0,"6.csv","","null","resources/images/coin2.png","null","",NA,NA,NA,NA,""
"image-keyboard-response",209,189862,"0.0-3.66-0.66","10alp2msjpqseyc",0,"6.csv","","358.3999999985099","resources/trios/L4T4A1.jpg","39","restless",0.6,0.8,0.8,0.938796096516437,"false"
"image-keyboard-response",210,190269,"0.0-3.66-1.66","10alp2msjpqseyc",0,"6.csv","","null","resources/maskTrios/BBA1.jpg","null","",NA,NA,NA,NA,""
"image-keyboard-response",211,191475,"0.0-3.66-2.66","10alp2msjpqseyc",0,"6.csv","","null","resources/images/fishbone.png","null","",NA,NA,NA,NA,""
"image-keyboard-response",212,191751,"0.0-3.67-0.67","10alp2msjpqseyc",0,"6.csv","","273.80000000074506","resources/trios/L4T4A3.jpg","38","restless",0.6,0.8,0.8,0.595546083669547,"true"
"image-keyboard-response",213,192157,"0.0-3.67-1.67","10alp2msjpqseyc",0,"6.csv","","null","resources/maskTrios/BT4B.jpg","null","",NA,NA,NA,NA,""
"image-keyboard-response",214,193360,"0.0-3.67-2.67","10alp2msjpqseyc",0,"6.csv","","null","resources/images/coin2.png","null","",NA,NA,NA,NA,""
"image-keyboard-response",215,193764,"0.0-3.68-0.68","10alp2msjpqseyc",0,"6.csv","","402","resources/trios/L1T4A3.jpg","38","restless",0.6,0.8,0.8,0.149462328807048,"true"
"image-keyboard-response",216,194171,"0.0-3.68-1.68","10alp2msjpqseyc",0,"6.csv","","null","resources/maskTrios/BT4B.jpg","null","",NA,NA,NA,NA,""
"image-keyboard-response",217,195374,"0.0-3.68-2.68","10alp2msjpqseyc",0,"6.csv","","null","resources/images/coin2.png","null","",NA,NA,NA,NA,""
"image-keyboard-response",218,195722,"0.0-3.69-0.69","10alp2msjpqseyc",0,"6.csv","","346.30000000074506","resources/trios/L4T4A1.jpg","38","restless",0.6,0.8,0.7,0.687861490226446,"true"
"image-keyboard-response",219,196130,"0.0-3.69-1.69","10alp2msjpqseyc",0,"6.csv","","null","resources/maskTrios/BT4B.jpg","null","",NA,NA,NA,NA,""
"image-keyboard-response",220,197337,"0.0-3.69-2.69","10alp2msjpqseyc",0,"6.csv","","null","resources/images/coin2.png","null","",NA,NA,NA,NA,""
"image-keyboard-response",221,197720,"0.0-3.70-0.70","10alp2msjpqseyc",0,"6.csv","","381.8999999985099","resources/trios/L4T4A1.jpg","38","restless",0.6,0.8,0.7,0.409580136839158,"true"
"image-keyboard-response",222,198126,"0.0-3.70-1.70","10alp2msjpqseyc",0,"6.csv","","null","resources/maskTrios/BT4B.jpg","null","",NA,NA,NA,NA,""
"image-keyboard-response",223,199333,"0.0-3.70-2.70","10alp2msjpqseyc",0,"6.csv","","null","resources/images/coin2.png","null","",NA,NA,NA,NA,""
"image-keyboard-response",224,199674,"0.0-3.71-0.71","10alp2msjpqseyc",0,"6.csv","","338.4000000022352","resources/trios/L4T4A1.jpg","38","restless",0.6,0.8,0.7,0.885378297041758,"false"
"image-keyboard-response",225,200081,"0.0-3.71-1.71","10alp2msjpqseyc",0,"6.csv","","null","resources/maskTrios/BT4B.jpg","null","",NA,NA,NA,NA,""
"image-keyboard-response",226,201288,"0.0-3.71-2.71","10alp2msjpqseyc",0,"6.csv","","null","resources/images/fishbone.png","null","",NA,NA,NA,NA,""
"image-keyboard-response",227,201308,"0.0-3.72-0.72","10alp2msjpqseyc",0,"6.csv","","18.299999997019768","resources/trios/L1T2A3.jpg","37","restless",0.6,0.8,0.7,0.236897920247712,"true"
"image-keyboard-response",228,201714,"0.0-3.72-1.72","10alp2msjpqseyc",0,"6.csv","","null","resources/maskTrios/L1BB.jpg","null","",NA,NA,NA,NA,""
"image-keyboard-response",229,202921,"0.0-3.72-2.72","10alp2msjpqseyc",0,"6.csv","","null","resources/images/coin2.png","null","",NA,NA,NA,NA,""
"image-keyboard-response",230,203234,"0.0-3.73-0.73","10alp2msjpqseyc",0,"6.csv","","311.19999999925494","resources/trios/L4T4A1.jpg","37","restless",0.6,0.8,0.7,0.639804171777167,"false"
"image-keyboard-response",231,203641,"0.0-3.73-1.73","10alp2msjpqseyc",0,"6.csv","","null","resources/maskTrios/L4BB.jpg","null","",NA,NA,NA,NA,""
"image-keyboard-response",232,204848,"0.0-3.73-2.73","10alp2msjpqseyc",0,"6.csv","","null","resources/images/fishbone.png","null","",NA,NA,NA,NA,""
"image-keyboard-response",233,205201,"0.0-3.74-0.74","10alp2msjpqseyc",0,"6.csv","","351.5999999977648","resources/trios/L4T2A3.jpg","39","restless",0.6,0.8,0.7,0.711417391077179,"false"
"image-keyboard-response",234,205608,"0.0-3.74-1.74","10alp2msjpqseyc",0,"6.csv","","null","resources/maskTrios/BBA3.jpg","null","",NA,NA,NA,NA,""
"image-keyboard-response",235,206815,"0.0-3.74-2.74","10alp2msjpqseyc",0,"6.csv","","null","resources/images/fishbone.png","null","",NA,NA,NA,NA,""
"image-keyboard-response",236,206830,"0.0-3.75-0.75","10alp2msjpqseyc",0,"6.csv","","13.800000000745058","resources/trios/L4T4A3.jpg","38","restless",0.6,0.7,0.7,0.400698187973139,"true"
"image-keyboard-response",237,207236,"0.0-3.75-1.75","10alp2msjpqseyc",0,"6.csv","","null","resources/maskTrios/BT4B.jpg","null","",NA,NA,NA,NA,""
"image-keyboard-response",238,208439,"0.0-3.75-2.75","10alp2msjpqseyc",0,"6.csv","","null","resources/images/coin2.png","null","",NA,NA,NA,NA,""
"image-keyboard-response",239,208872,"0.0-3.76-0.76","10alp2msjpqseyc",0,"6.csv","","431.19999999925494","resources/trios/L4T2A3.jpg","38","restless",0.6,0.7,0.8,0.601894911654767,"true"
"image-keyboard-response",240,209277,"0.0-3.76-1.76","10alp2msjpqseyc",0,"6.csv","","null","resources/maskTrios/BT2B.jpg","null","",NA,NA,NA,NA,""
"image-keyboard-response",241,210482,"0.0-3.76-2.76","10alp2msjpqseyc",0,"6.csv","","null","resources/images/coin2.png","null","",NA,NA,NA,NA,""
"image-keyboard-response",242,210793,"0.0-3.77-0.77","10alp2msjpqseyc",0,"6.csv","","309.1000000014901","resources/trios/L4T2A1.jpg","38","restless",0.6,0.7,0.8,0.961359711506028,"false"
"image-keyboard-response",243,211199,"0.0-3.77-1.77","10alp2msjpqseyc",0,"6.csv","","null","resources/maskTrios/BT2B.jpg","null","",NA,NA,NA,NA,""
"image-keyboard-response",244,212406,"0.0-3.77-2.77","10alp2msjpqseyc",0,"6.csv","","null","resources/images/fishbone.png","null","",NA,NA,NA,NA,""
"image-keyboard-response",245,212880,"0.0-3.78-0.78","10alp2msjpqseyc",0,"6.csv","","472.69999999925494","resources/trios/L1T4A1.jpg","39","restless",0.6,0.7,0.8,0.547749047834404,"true"
"image-keyboard-response",246,213287,"0.0-3.78-1.78","10alp2msjpqseyc",0,"6.csv","","null","resources/maskTrios/BBA1.jpg","null","",NA,NA,NA,NA,""
"image-keyboard-response",247,214493,"0.0-3.78-2.78","10alp2msjpqseyc",0,"6.csv","","null","resources/images/coin2.png","null","",NA,NA,NA,NA,""
"image-keyboard-response",248,214825,"0.0-3.79-0.79","10alp2msjpqseyc",0,"6.csv","","330.0999999977648","resources/trios/L4T4A3.jpg","39","restless",0.6,0.7,0.8,0.188662458990921,"true"
"image-keyboard-response",249,215232,"0.0-3.79-1.79","10alp2msjpqseyc",0,"6.csv","","null","resources/maskTrios/BBA3.jpg","null","",NA,NA,NA,NA,""
"image-keyboard-response",250,216439,"0.0-3.79-2.79","10alp2msjpqseyc",0,"6.csv","","null","resources/images/coin2.png","null","",NA,NA,NA,NA,""
"image-keyboard-response",251,216746,"0.0-3.80-0.80","10alp2msjpqseyc",0,"6.csv","","305.1000000014901","resources/trios/L4T4A3.jpg","39","restless",0.6,0.7,0.8,0.882972006600649,"false"
"image-keyboard-response",252,217148,"0.0-3.80-1.80","10alp2msjpqseyc",0,"6.csv","","null","resources/maskTrios/BBA3.jpg","null","",NA,NA,NA,NA,""
"image-keyboard-response",253,218352,"0.0-3.80-2.80","10alp2msjpqseyc",0,"6.csv","","null","resources/images/fishbone.png","null","",NA,NA,NA,NA,""
"image-keyboard-response",254,218760,"0.0-3.81-0.81","10alp2msjpqseyc",0,"6.csv","","405.3999999985099","resources/trios/L4T2A1.jpg","37","restless",0.6,0.7,0.8,0.0659128843031549,"true"
"image-keyboard-response",255,219162,"0.0-3.81-1.81","10alp2msjpqseyc",0,"6.csv","","null","resources/maskTrios/L4BB.jpg","null","",NA,NA,NA,NA,""
"image-keyboard-response",256,220369,"0.0-3.81-2.81","10alp2msjpqseyc",0,"6.csv","","null","resources/images/coin2.png","null","",NA,NA,NA,NA,""
"image-keyboard-response",257,220717,"0.0-3.82-0.82","10alp2msjpqseyc",0,"6.csv","","345.19999999925494","resources/trios/L1T2A1.jpg","37","restless",0.6,0.7,0.8,0.319773367099741,"true"
"image-keyboard-response",258,221123,"0.0-3.82-1.82","10alp2msjpqseyc",0,"6.csv","","null","resources/maskTrios/L1BB.jpg","null","",NA,NA,NA,NA,""
"image-keyboard-response",259,222330,"0.0-3.82-2.82","10alp2msjpqseyc",0,"6.csv","","null","resources/images/coin2.png","null","",NA,NA,NA,NA,""
"image-keyboard-response",260,222647,"0.0-3.83-0.83","10alp2msjpqseyc",0,"6.csv","","314.6000000014901","resources/trios/L1T2A1.jpg","38","restless",0.6,0.7,0.8,0.8345023036637,"false"
"image-keyboard-response",261,223054,"0.0-3.83-1.83","10alp2msjpqseyc",0,"6.csv","","null","resources/maskTrios/BT2B.jpg","null","",NA,NA,NA,NA,""
"image-keyboard-response",262,224259,"0.0-3.83-2.83","10alp2msjpqseyc",0,"6.csv","","null","resources/images/fishbone.png","null","",NA,NA,NA,NA,""
"image-keyboard-response",263,224761,"0.0-3.84-0.84","10alp2msjpqseyc",0,"6.csv","","499.9000000022352","resources/trios/L1T2A3.jpg","37","restless",0.6,0.7,0.8,0.606212235447386,"false"
"image-keyboard-response",264,225168,"0.0-3.84-1.84","10alp2msjpqseyc",0,"6.csv","","null","resources/maskTrios/L1BB.jpg","null","",NA,NA,NA,NA,""
"image-keyboard-response",265,226375,"0.0-3.84-2.84","10alp2msjpqseyc",0,"6.csv","","null","resources/images/fishbone.png","null","",NA,NA,NA,NA,""
"image-keyboard-response",266,226720,"0.0-3.85-0.85","10alp2msjpqseyc",0,"6.csv","","342.30000000074506","resources/trios/L4T2A1.jpg","38","restless",0.6,0.7,0.8,0.671569526540846,"true"
"image-keyboard-response",267,227126,"0.0-3.85-1.85","10alp2msjpqseyc",0,"6.csv","","null","resources/maskTrios/BT2B.jpg","null","",NA,NA,NA,NA,""
"image-keyboard-response",268,228331,"0.0-3.85-2.85","10alp2msjpqseyc",0,"6.csv","","null","resources/images/coin2.png","null","",NA,NA,NA,NA,""
"image-keyboard-response",269,229285,"0.0-3.86-0.86","10alp2msjpqseyc",0,"6.csv","","952.1000000014901","resources/trios/L4T4A1.jpg","38","restless",0.6,0.7,0.8,0.97021683530356,"false"
"image-keyboard-response",270,229689,"0.0-3.86-1.86","10alp2msjpqseyc",0,"6.csv","","null","resources/maskTrios/BT4B.jpg","null","",NA,NA,NA,NA,""
"image-keyboard-response",271,230895,"0.0-3.86-2.86","10alp2msjpqseyc",0,"6.csv","","null","resources/images/fishbone.png","null","",NA,NA,NA,NA,""
"image-keyboard-response",272,231312,"0.0-3.87-0.87","10alp2msjpqseyc",0,"6.csv","","414.30000000074506","resources/trios/L4T4A1.jpg","37","restless",0.6,0.7,0.8,0.0638874843693131,"true"
"image-keyboard-response",273,231719,"0.0-3.87-1.87","10alp2msjpqseyc",0,"6.csv","","null","resources/maskTrios/L4BB.jpg","null","",NA,NA,NA,NA,""
"image-keyboard-response",274,232925,"0.0-3.87-2.87","10alp2msjpqseyc",0,"6.csv","","null","resources/images/coin2.png","null","",NA,NA,NA,NA,""
"image-keyboard-response",275,233380,"0.0-3.88-0.88","10alp2msjpqseyc",0,"6.csv","","452.29999999701977","resources/trios/L1T4A1.jpg","37","restless",0.6,0.7,0.7,0.383936649856811,"true"
"image-keyboard-response",276,233787,"0.0-3.88-1.88","10alp2msjpqseyc",0,"6.csv","","null","resources/maskTrios/L1BB.jpg","null","",NA,NA,NA,NA,""
"image-keyboard-response",277,234994,"0.0-3.88-2.88","10alp2msjpqseyc",0,"6.csv","","null","resources/images/coin2.png","null","",NA,NA,NA,NA,""
"image-keyboard-response",278,235292,"0.0-3.89-0.89","10alp2msjpqseyc",0,"6.csv","","296.19999999925494","resources/trios/L4T4A1.jpg","37","restless",0.6,0.7,0.7,0.7290648508655,"false"
"image-keyboard-response",279,235697,"0.0-3.89-1.89","10alp2msjpqseyc",0,"6.csv","","null","resources/maskTrios/L4BB.jpg","null","",NA,NA,NA,NA,""
"image-keyboard-response",280,236904,"0.0-3.89-2.89","10alp2msjpqseyc",0,"6.csv","","null","resources/images/fishbone.png","null","",NA,NA,NA,NA,""
"image-keyboard-response",281,237261,"0.0-3.90-0.90","10alp2msjpqseyc",0,"6.csv","","355.19999999925494","resources/trios/L4T2A3.jpg","39","restless",0.5,0.7,0.8,0.943838331136543,"false"
"image-keyboard-response",282,237668,"0.0-3.90-1.90","10alp2msjpqseyc",0,"6.csv","","null","resources/maskTrios/BBA3.jpg","null","",NA,NA,NA,NA,""
"image-keyboard-response",283,238874,"0.0-3.90-2.90","10alp2msjpqseyc",0,"6.csv","","null","resources/images/fishbone.png","null","",NA,NA,NA,NA,""
"image-keyboard-response",284,239180,"0.0-3.91-0.91","10alp2msjpqseyc",0,"6.csv","","303.19999999925494","resources/trios/L1T4A3.jpg","39","restless",0.5,0.7,0.8,0.22642272976349,"true"
"image-keyboard-response",285,239584,"0.0-3.91-1.91","10alp2msjpqseyc",0,"6.csv","","null","resources/maskTrios/BBA3.jpg","null","",NA,NA,NA,NA,""
"image-keyboard-response",286,240791,"0.0-3.91-2.91","10alp2msjpqseyc",0,"6.csv","","null","resources/images/coin2.png","null","",NA,NA,NA,NA,""
"image-keyboard-response",287,241166,"0.0-3.92-0.92","10alp2msjpqseyc",0,"6.csv","","373.9000000022352","resources/trios/L4T4A1.jpg","39","restless",0.4,0.7,0.8,0.828698050370748,"false"
"image-keyboard-response",288,241573,"0.0-3.92-1.92","10alp2msjpqseyc",0,"6.csv","","null","resources/maskTrios/BBA1.jpg","null","",NA,NA,NA,NA,""
"image-keyboard-response",289,242779,"0.0-3.92-2.92","10alp2msjpqseyc",0,"6.csv","","null","resources/images/fishbone.png","null","",NA,NA,NA,NA,""
"image-keyboard-response",290,243113,"0.0-3.93-0.93","10alp2msjpqseyc",0,"6.csv","","331.8999999985099","resources/trios/L1T4A1.jpg","38","restless",0.4,0.6,0.8,0.578007840726884,"true"
"image-keyboard-response",291,243520,"0.0-3.93-1.93","10alp2msjpqseyc",0,"6.csv","","null","resources/maskTrios/BT4B.jpg","null","",NA,NA,NA,NA,""
"image-keyboard-response",292,244726,"0.0-3.93-2.93","10alp2msjpqseyc",0,"6.csv","","null","resources/images/coin2.png","null","",NA,NA,NA,NA,""
"image-keyboard-response",293,245125,"0.0-3.94-0.94","10alp2msjpqseyc",0,"6.csv","","397.6000000014901","resources/trios/L4T4A3.jpg","37","restless",0.4,0.6,0.8,0.0996579359214824,"true"
"image-keyboard-response",294,245532,"0.0-3.94-1.94","10alp2msjpqseyc",0,"6.csv","","null","resources/maskTrios/L4BB.jpg","null","",NA,NA,NA,NA,""
"image-keyboard-response",295,246739,"0.0-3.94-2.94","10alp2msjpqseyc",0,"6.csv","","null","resources/images/coin2.png","null","",NA,NA,NA,NA,""
"image-keyboard-response",296,247160,"0.0-3.95-0.95","10alp2msjpqseyc",0,"6.csv","","418.6000000014901","resources/trios/L4T2A3.jpg","39","restless",0.4,0.6,0.8,0.741968413989387,"true"
"image-keyboard-response",297,247565,"0.0-3.95-1.95","10alp2msjpqseyc",0,"6.csv","","null","resources/maskTrios/BBA3.jpg","null","",NA,NA,NA,NA,""
"image-keyboard-response",298,248772,"0.0-3.95-2.95","10alp2msjpqseyc",0,"6.csv","","null","resources/images/coin2.png","null","",NA,NA,NA,NA,""
"image-keyboard-response",299,249157,"0.0-3.96-0.96","10alp2msjpqseyc",0,"6.csv","","383.5","resources/trios/L1T2A1.jpg","39","restless",0.4,0.6,0.8,0.891803918875128,"false"
"image-keyboard-response",300,249560,"0.0-3.96-1.96","10alp2msjpqseyc",0,"6.csv","","null","resources/maskTrios/BBA1.jpg","null","",NA,NA,NA,NA,""
"image-keyboard-response",301,250767,"0.0-3.96-2.96","10alp2msjpqseyc",0,"6.csv","","null","resources/images/fishbone.png","null","",NA,NA,NA,NA,""
"image-keyboard-response",302,251174,"0.0-3.97-0.97","10alp2msjpqseyc",0,"6.csv","","405.9000000022352","resources/trios/L4T2A3.jpg","38","restless",0.3,0.6,0.8,0.560792563444307,"true"
"image-keyboard-response",303,251582,"0.0-3.97-1.97","10alp2msjpqseyc",0,"6.csv","","null","resources/maskTrios/BT2B.jpg","null","",NA,NA,NA,NA,""
"image-keyboard-response",304,252788,"0.0-3.97-2.97","10alp2msjpqseyc",0,"6.csv","","null","resources/images/coin2.png","null","",NA,NA,NA,NA,""
"image-keyboard-response",305,253226,"0.0-3.98-0.98","10alp2msjpqseyc",0,"6.csv","","435.80000000074506","resources/trios/L4T4A3.jpg","37","restless",0.3,0.6,0.8,0.128377251395341,"true"
"image-keyboard-response",306,253633,"0.0-3.98-1.98","10alp2msjpqseyc",0,"6.csv","","null","resources/maskTrios/L4BB.jpg","null","",NA,NA,NA,NA,""
"image-keyboard-response",307,254835,"0.0-3.98-2.98","10alp2msjpqseyc",0,"6.csv","","null","resources/images/coin2.png","null","",NA,NA,NA,NA,""
"image-keyboard-response",308,255223,"0.0-3.99-0.99","10alp2msjpqseyc",0,"6.csv","","385.9000000022352","resources/trios/L1T4A1.jpg","39","restless",0.2,0.6,0.8,0.458787098899986,"true"
"image-keyboard-response",309,255630,"0.0-3.99-1.99","10alp2msjpqseyc",0,"6.csv","","null","resources/maskTrios/BBA1.jpg","null","",NA,NA,NA,NA,""
"image-keyboard-response",310,256837,"0.0-3.99-2.99","10alp2msjpqseyc",0,"6.csv","","null","resources/images/coin2.png","null","",NA,NA,NA,NA,""
"image-keyboard-response",311,257198,"0.0-3.100-0.100","10alp2msjpqseyc",0,"6.csv","","358.5","resources/trios/L4T4A3.jpg","38","restless",0.2,0.6,0.8,0.731645707730599,"false"
"image-keyboard-response",312,257605,"0.0-3.100-1.100","10alp2msjpqseyc",0,"6.csv","","null","resources/maskTrios/BT4B.jpg","null","",NA,NA,NA,NA,""
"image-keyboard-response",313,258812,"0.0-3.100-2.100","10alp2msjpqseyc",0,"6.csv","","null","resources/images/fishbone.png","null","",NA,NA,NA,NA,""
"image-keyboard-response",314,259604,"0.0-3.101-0.101","10alp2msjpqseyc",0,"6.csv","","790.6000000014901","resources/trios/L1T4A3.jpg","37","restless",0.2,0.6,0.8,0.0076827963567232,"true"
"image-keyboard-response",315,260009,"0.0-3.101-1.101","10alp2msjpqseyc",0,"6.csv","","null","resources/maskTrios/L1BB.jpg","null","",NA,NA,NA,NA,""
"image-keyboard-response",316,261216,"0.0-3.101-2.101","10alp2msjpqseyc",0,"6.csv","","null","resources/images/coin2.png","null","",NA,NA,NA,NA,""
"image-keyboard-response",317,261640,"0.0-3.102-0.102","10alp2msjpqseyc",0,"6.csv","","421.8999999985099","resources/trios/L1T4A3.jpg","37","restless",0.3,0.6,0.8,0.836885641008589,"false"
"image-keyboard-response",318,262047,"0.0-3.102-1.102","10alp2msjpqseyc",0,"6.csv","","null","resources/maskTrios/L1BB.jpg","null","",NA,NA,NA,NA,""
"image-keyboard-response",319,263254,"0.0-3.102-2.102","10alp2msjpqseyc",0,"6.csv","","null","resources/images/fishbone.png","null","",NA,NA,NA,NA,""
"image-keyboard-response",320,263597,"0.0-3.103-0.103","10alp2msjpqseyc",0,"6.csv","","340.8999999985099","resources/trios/L4T2A1.jpg","39","restless",0.3,0.6,0.8,0.641317936017705,"true"
"image-keyboard-response",321,264004,"0.0-3.103-1.103","10alp2msjpqseyc",0,"6.csv","","null","resources/maskTrios/BBA1.jpg","null","",NA,NA,NA,NA,""
"image-keyboard-response",322,265210,"0.0-3.103-2.103","10alp2msjpqseyc",0,"6.csv","","null","resources/images/coin2.png","null","",NA,NA,NA,NA,""
"image-keyboard-response",323,265582,"0.0-3.104-0.104","10alp2msjpqseyc",0,"6.csv","","369.9000000022352","resources/trios/L1T2A1.jpg","37","restless",0.4,0.6,0.8,0.570496684907907,"false"
"image-keyboard-response",324,265989,"0.0-3.104-1.104","10alp2msjpqseyc",0,"6.csv","","null","resources/maskTrios/L1BB.jpg","null","",NA,NA,NA,NA,""
"image-keyboard-response",325,267196,"0.0-3.104-2.104","10alp2msjpqseyc",0,"6.csv","","null","resources/images/fishbone.png","null","",NA,NA,NA,NA,""
"image-keyboard-response",326,267563,"0.0-3.105-0.105","10alp2msjpqseyc",0,"6.csv","","364.9000000022352","resources/trios/L4T4A1.jpg","38","restless",0.4,0.6,0.9,0.151283777460296,"true"
"image-keyboard-response",327,267969,"0.0-3.105-1.105","10alp2msjpqseyc",0,"6.csv","","null","resources/maskTrios/BT4B.jpg","null","",NA,NA,NA,NA,""
"image-keyboard-response",328,269171,"0.0-3.105-2.105","10alp2msjpqseyc",0,"6.csv","","null","resources/images/coin2.png","null","",NA,NA,NA,NA,""
"image-keyboard-response",329,269644,"0.0-3.106-0.106","10alp2msjpqseyc",0,"6.csv","","471","resources/trios/L1T2A3.jpg","39","restless",0.4,0.6,0.9,0.379174982854796,"true"
"image-keyboard-response",330,270051,"0.0-3.106-1.106","10alp2msjpqseyc",0,"6.csv","","null","resources/maskTrios/BBA3.jpg","null","",NA,NA,NA,NA,""
"image-keyboard-response",331,271258,"0.0-3.106-2.106","10alp2msjpqseyc",0,"6.csv","","null","resources/images/coin2.png","null","",NA,NA,NA,NA,""
"image-keyboard-response",332,271573,"0.0-3.107-0.107","10alp2msjpqseyc",0,"6.csv","","312.80000000074506","resources/trios/L1T2A3.jpg","37","restless",0.4,0.6,0.9,0.0703318604941465,"true"
"image-keyboard-response",333,271978,"0.0-3.107-1.107","10alp2msjpqseyc",0,"6.csv","","null","resources/maskTrios/L1BB.jpg","null","",NA,NA,NA,NA,""
"image-keyboard-response",334,273185,"0.0-3.107-2.107","10alp2msjpqseyc",0,"6.csv","","null","resources/images/coin2.png","null","",NA,NA,NA,NA,""
"image-keyboard-response",335,273561,"0.0-3.108-0.108","10alp2msjpqseyc",0,"6.csv","","374.4000000022352","resources/trios/L4T4A1.jpg","38","restless",0.4,0.6,0.9,0.0427725308140974,"true"
"image-keyboard-response",336,273968,"0.0-3.108-1.108","10alp2msjpqseyc",0,"6.csv","","null","resources/maskTrios/BT4B.jpg","null","",NA,NA,NA,NA,""
"image-keyboard-response",337,275175,"0.0-3.108-2.108","10alp2msjpqseyc",0,"6.csv","","null","resources/images/coin2.png","null","",NA,NA,NA,NA,""
"image-keyboard-response",338,275506,"0.0-3.109-0.109","10alp2msjpqseyc",0,"6.csv","","328.5","resources/trios/L1T2A3.jpg","39","restless",0.4,0.6,0.9,0.38512913988878,"true"
"image-keyboard-response",339,275913,"0.0-3.109-1.109","10alp2msjpqseyc",0,"6.csv","","null","resources/maskTrios/BBA3.jpg","null","",NA,NA,NA,NA,""
"image-keyboard-response",340,277120,"0.0-3.109-2.109","10alp2msjpqseyc",0,"6.csv","","null","resources/images/coin2.png","null","",NA,NA,NA,NA,""
"image-keyboard-response",341,277490,"0.0-3.110-0.110","10alp2msjpqseyc",0,"6.csv","","367.80000000074506","resources/trios/L1T2A3.jpg","37","restless",0.4,0.6,0.9,0.118414566178298,"true"
"image-keyboard-response",342,277894,"0.0-3.110-1.110","10alp2msjpqseyc",0,"6.csv","","null","resources/maskTrios/L1BB.jpg","null","",NA,NA,NA,NA,""
"image-keyboard-response",343,279101,"0.0-3.110-2.110","10alp2msjpqseyc",0,"6.csv","","null","resources/images/coin2.png","null","",NA,NA,NA,NA,""
"image-keyboard-response",344,279503,"0.0-3.111-0.111","10alp2msjpqseyc",0,"6.csv","","400.69999999925494","resources/trios/L1T4A1.jpg","38","restless",0.4,0.6,0.8,0.732004494178532,"false"
"image-keyboard-response",345,279911,"0.0-3.111-1.111","10alp2msjpqseyc",0,"6.csv","","null","resources/maskTrios/BT4B.jpg","null","",NA,NA,NA,NA,""
"image-keyboard-response",346,281117,"0.0-3.111-2.111","10alp2msjpqseyc",0,"6.csv","","null","resources/images/fishbone.png","null","",NA,NA,NA,NA,""
"image-keyboard-response",347,281891,"0.0-3.112-0.112","10alp2msjpqseyc",0,"6.csv","","771.6000000014901","resources/trios/L1T4A1.jpg","37","restless",0.4,0.6,0.7,0.523645194711272,"false"
"image-keyboard-response",348,282298,"0.0-3.112-1.112","10alp2msjpqseyc",0,"6.csv","","null","resources/maskTrios/L1BB.jpg","null","",NA,NA,NA,NA,""
"image-keyboard-response",349,283505,"0.0-3.112-2.112","10alp2msjpqseyc",0,"6.csv","","null","resources/images/fishbone.png","null","",NA,NA,NA,NA,""
"image-keyboard-response",350,283810,"0.0-3.113-0.113","10alp2msjpqseyc",0,"6.csv","","302.6000000014901","resources/trios/L1T4A1.jpg","39","restless",0.4,0.6,0.7,0.148725966104189,"true"
"image-keyboard-response",351,284216,"0.0-3.113-1.113","10alp2msjpqseyc",0,"6.csv","","null","resources/maskTrios/BBA1.jpg","null","",NA,NA,NA,NA,""
"image-keyboard-response",352,285423,"0.0-3.113-2.113","10alp2msjpqseyc",0,"6.csv","","null","resources/images/coin2.png","null","",NA,NA,NA,NA,""
"image-keyboard-response",353,285843,"0.0-3.114-0.114","10alp2msjpqseyc",0,"6.csv","","417.6000000014901","resources/trios/L1T2A1.jpg","38","restless",0.4,0.6,0.7,0.994144673096865,"false"
"image-keyboard-response",354,286250,"0.0-3.114-1.114","10alp2msjpqseyc",0,"6.csv","","null","resources/maskTrios/BT2B.jpg","null","",NA,NA,NA,NA,""
"image-keyboard-response",355,287452,"0.0-3.114-2.114","10alp2msjpqseyc",0,"6.csv","","null","resources/images/fishbone.png","null","",NA,NA,NA,NA,""
"image-keyboard-response",356,287773,"0.0-3.115-0.115","10alp2msjpqseyc",0,"6.csv","","318.5","resources/trios/L1T4A3.jpg","37","restless",0.5,0.6,0.7,0.24510259508309,"true"
"image-keyboard-response",357,288175,"0.0-3.115-1.115","10alp2msjpqseyc",0,"6.csv","","null","resources/maskTrios/L1BB.jpg","null","",NA,NA,NA,NA,""
"image-keyboard-response",358,289380,"0.0-3.115-2.115","10alp2msjpqseyc",0,"6.csv","","null","resources/images/coin2.png","null","",NA,NA,NA,NA,""
"image-keyboard-response",359,289836,"0.0-3.116-0.116","10alp2msjpqseyc",0,"6.csv","","453.30000000074506","resources/trios/L1T2A3.jpg","39","restless",0.5,0.6,0.7,0.439178670932168,"true"
"image-keyboard-response",360,290243,"0.0-3.116-1.116","10alp2msjpqseyc",0,"6.csv","","null","resources/maskTrios/BBA3.jpg","null","",NA,NA,NA,NA,""
"image-keyboard-response",361,291450,"0.0-3.116-2.116","10alp2msjpqseyc",0,"6.csv","","null","resources/images/coin2.png","null","",NA,NA,NA,NA,""
"image-keyboard-response",362,292261,"0.0-3.117-0.117","10alp2msjpqseyc",0,"6.csv","","808.8000000007451","resources/trios/L4T4A1.jpg","37","restless",0.4,0.6,0.6,0.150761450135606,"true"
"image-keyboard-response",363,292665,"0.0-3.117-1.117","10alp2msjpqseyc",0,"6.csv","","null","resources/maskTrios/L4BB.jpg","null","",NA,NA,NA,NA,""
"image-keyboard-response",364,293872,"0.0-3.117-2.117","10alp2msjpqseyc",0,"6.csv","","null","resources/images/coin2.png","null","",NA,NA,NA,NA,""
"image-keyboard-response",365,294272,"0.0-3.118-0.118","10alp2msjpqseyc",0,"6.csv","","398.19999999925494","resources/trios/L1T4A1.jpg","39","restless",0.4,0.6,0.6,0.625194784143304,"false"
"image-keyboard-response",366,294680,"0.0-3.118-1.118","10alp2msjpqseyc",0,"6.csv","","null","resources/maskTrios/BBA1.jpg","null","",NA,NA,NA,NA,""
"image-keyboard-response",367,295886,"0.0-3.118-2.118","10alp2msjpqseyc",0,"6.csv","","null","resources/images/fishbone.png","null","",NA,NA,NA,NA,""
"image-keyboard-response",368,296297,"0.0-3.119-0.119","10alp2msjpqseyc",0,"6.csv","","408.79999999701977","resources/trios/L1T4A1.jpg","37","restless",0.4,0.6,0.6,0.798406124341273,"false"
"image-keyboard-response",369,296704,"0.0-3.119-1.119","10alp2msjpqseyc",0,"6.csv","","null","resources/maskTrios/L1BB.jpg","null","",NA,NA,NA,NA,""
"image-keyboard-response",370,297911,"0.0-3.119-2.119","10alp2msjpqseyc",0,"6.csv","","null","resources/images/fishbone.png","null","",NA,NA,NA,NA,""
"image-keyboard-response",371,298239,"0.0-3.120-0.120","10alp2msjpqseyc",0,"6.csv","","326.5","resources/trios/L1T4A3.jpg","38","restless",0.4,0.6,0.6,0.355539778971343,"true"
"image-keyboard-response",372,298646,"0.0-3.120-1.120","10alp2msjpqseyc",0,"6.csv","","null","resources/maskTrios/BT4B.jpg","null","",NA,NA,NA,NA,""
"image-keyboard-response",373,299853,"0.0-3.120-2.120","10alp2msjpqseyc",0,"6.csv","","null","resources/images/coin2.png","null","",NA,NA,NA,NA,""
"image-keyboard-response",374,300325,"0.0-3.121-0.121","10alp2msjpqseyc",0,"6.csv","","470.20000000298023","resources/trios/L1T4A1.jpg","38","restless",0.4,0.6,0.6,0.195807699670147,"true"
"image-keyboard-response",375,300732,"0.0-3.121-1.121","10alp2msjpqseyc",0,"6.csv","","null","resources/maskTrios/BT4B.jpg","null","",NA,NA,NA,NA,""
"image-keyboard-response",376,301939,"0.0-3.121-2.121","10alp2msjpqseyc",0,"6.csv","","null","resources/images/coin2.png","null","",NA,NA,NA,NA,""
"image-keyboard-response",377,302268,"0.0-3.122-0.122","10alp2msjpqseyc",0,"6.csv","","326.8999999985099","resources/trios/L1T4A3.jpg","38","restless",0.4,0.6,0.6,0.11532621360073,"true"
"image-keyboard-response",378,302675,"0.0-3.122-1.122","10alp2msjpqseyc",0,"6.csv","","null","resources/maskTrios/BT4B.jpg","null","",NA,NA,NA,NA,""
"image-keyboard-response",379,303882,"0.0-3.122-2.122","10alp2msjpqseyc",0,"6.csv","","null","resources/images/coin2.png","null","",NA,NA,NA,NA,""
"image-keyboard-response",380,304188,"0.0-3.123-0.123","10alp2msjpqseyc",0,"6.csv","","304","resources/trios/L4T4A3.jpg","38","restless",0.3,0.6,0.7,0.693888840906612,"false"
"image-keyboard-response",381,304593,"0.0-3.123-1.123","10alp2msjpqseyc",0,"6.csv","","null","resources/maskTrios/BT4B.jpg","null","",NA,NA,NA,NA,""
"image-keyboard-response",382,305800,"0.0-3.123-2.123","10alp2msjpqseyc",0,"6.csv","","null","resources/images/fishbone.png","null","",NA,NA,NA,NA,""
"image-keyboard-response",383,306119,"0.0-3.124-0.124","10alp2msjpqseyc",0,"6.csv","","317.19999999925494","resources/trios/L1T2A1.jpg","39","restless",0.3,0.5,0.7,0.315583803652198,"true"
"image-keyboard-response",384,306527,"0.0-3.124-1.124","10alp2msjpqseyc",0,"6.csv","","null","resources/maskTrios/BBA1.jpg","null","",NA,NA,NA,NA,""
"image-keyboard-response",385,307733,"0.0-3.124-2.124","10alp2msjpqseyc",0,"6.csv","","null","resources/images/coin2.png","null","",NA,NA,NA,NA,""
"image-keyboard-response",386,308177,"0.0-3.125-0.125","10alp2msjpqseyc",0,"6.csv","","441.80000000074506","resources/trios/L1T2A1.jpg","37","restless",0.3,0.4,0.7,0.784967145931227,"false"
"image-keyboard-response",387,308585,"0.0-3.125-1.125","10alp2msjpqseyc",0,"6.csv","","null","resources/maskTrios/L1BB.jpg","null","",NA,NA,NA,NA,""
"image-keyboard-response",388,309789,"0.0-3.125-2.125","10alp2msjpqseyc",0,"6.csv","","null","resources/images/fishbone.png","null","",NA,NA,NA,NA,""
"image-keyboard-response",389,310095,"0.0-3.126-0.126","10alp2msjpqseyc",0,"6.csv","","304","resources/trios/L1T2A3.jpg","39","restless",0.3,0.4,0.6,0.362580360887861,"true"
"image-keyboard-response",390,310502,"0.0-3.126-1.126","10alp2msjpqseyc",0,"6.csv","","null","resources/maskTrios/BBA3.jpg","null","",NA,NA,NA,NA,""
"image-keyboard-response",391,311709,"0.0-3.126-2.126","10alp2msjpqseyc",0,"6.csv","","null","resources/images/coin2.png","null","",NA,NA,NA,NA,""
"image-keyboard-response",392,312135,"0.0-3.127-0.127","10alp2msjpqseyc",0,"6.csv","","423.80000000074506","resources/trios/L1T4A3.jpg","38","restless",0.3,0.4,0.7,0.739405954780711,"false"
"image-keyboard-response",393,312540,"0.0-3.127-1.127","10alp2msjpqseyc",0,"6.csv","","null","resources/maskTrios/BT4B.jpg","null","",NA,NA,NA,NA,""
"image-keyboard-response",394,313747,"0.0-3.127-2.127","10alp2msjpqseyc",0,"6.csv","","null","resources/images/fishbone.png","null","",NA,NA,NA,NA,""
"image-keyboard-response",395,314153,"0.0-3.128-0.128","10alp2msjpqseyc",0,"6.csv","","404.5","resources/trios/L4T2A3.jpg","37","restless",0.3,0.4,0.7,0.512778600997969,"false"
"image-keyboard-response",396,314560,"0.0-3.128-1.128","10alp2msjpqseyc",0,"6.csv","","null","resources/maskTrios/L4BB.jpg","null","",NA,NA,NA,NA,""
"image-keyboard-response",397,315767,"0.0-3.128-2.128","10alp2msjpqseyc",0,"6.csv","","null","resources/images/fishbone.png","null","",NA,NA,NA,NA,""
"image-keyboard-response",398,316307,"0.0-3.129-0.129","10alp2msjpqseyc",0,"6.csv","","538.1999999992549","resources/trios/L1T4A3.jpg","39","restless",0.2,0.4,0.7,0.138081303642731,"true"
"image-keyboard-response",399,316710,"0.0-3.129-1.129","10alp2msjpqseyc",0,"6.csv","","null","resources/maskTrios/BBA3.jpg","null","",NA,NA,NA,NA,""
"image-keyboard-response",400,317917,"0.0-3.129-2.129","10alp2msjpqseyc",0,"6.csv","","null","resources/images/coin2.png","null","",NA,NA,NA,NA,""
"image-keyboard-response",401,318289,"0.0-3.130-0.130","10alp2msjpqseyc",0,"6.csv","","369.6000000014901","resources/trios/L1T2A3.jpg","39","restless",0.2,0.4,0.7,0.472539823460609,"true"
"image-keyboard-response",402,318696,"0.0-3.130-1.130","10alp2msjpqseyc",0,"6.csv","","null","resources/maskTrios/BBA3.jpg","null","",NA,NA,NA,NA,""
"image-keyboard-response",403,319903,"0.0-3.130-2.130","10alp2msjpqseyc",0,"6.csv","","null","resources/images/coin2.png","null","",NA,NA,NA,NA,""
"image-keyboard-response",404,320275,"0.0-3.131-0.131","10alp2msjpqseyc",0,"6.csv","","369.70000000298023","resources/trios/L1T4A1.jpg","39","restless",0.2,0.4,0.7,0.516664574893529,"true"
"image-keyboard-response",405,320682,"0.0-3.131-1.131","10alp2msjpqseyc",0,"6.csv","","null","resources/maskTrios/BBA1.jpg","null","",NA,NA,NA,NA,""
"image-keyboard-response",406,321887,"0.0-3.131-2.131","10alp2msjpqseyc",0,"6.csv","","null","resources/images/coin2.png","null","",NA,NA,NA,NA,""
"image-keyboard-response",407,322231,"0.0-3.132-0.132","10alp2msjpqseyc",0,"6.csv","","341.69999999925494","resources/trios/L1T4A1.jpg","39","restless",0.2,0.4,0.7,0.589827833613316,"true"
"image-keyboard-response",408,322638,"0.0-3.132-1.132","10alp2msjpqseyc",0,"6.csv","","null","resources/maskTrios/BBA1.jpg","null","",NA,NA,NA,NA,""
"image-keyboard-response",409,323842,"0.0-3.132-2.132","10alp2msjpqseyc",0,"6.csv","","null","resources/images/coin2.png","null","",NA,NA,NA,NA,""
"image-keyboard-response",410,324150,"0.0-3.133-0.133","10alp2msjpqseyc",0,"6.csv","","305.80000000074506","resources/trios/L4T4A3.jpg","39","restless",0.2,0.4,0.7,0.17127387989218,"true"
"image-keyboard-response",411,324554,"0.0-3.133-1.133","10alp2msjpqseyc",0,"6.csv","","null","resources/maskTrios/BBA3.jpg","null","",NA,NA,NA,NA,""
"image-keyboard-response",412,325761,"0.0-3.133-2.133","10alp2msjpqseyc",0,"6.csv","","null","resources/images/coin2.png","null","",NA,NA,NA,NA,""
"image-keyboard-response",413,326098,"0.0-3.134-0.134","10alp2msjpqseyc",0,"6.csv","","334.8999999985099","resources/trios/L1T2A3.jpg","39","restless",0.2,0.4,0.7,0.510133587259583,"true"
"image-keyboard-response",414,326505,"0.0-3.134-1.134","10alp2msjpqseyc",0,"6.csv","","null","resources/maskTrios/BBA3.jpg","null","",NA,NA,NA,NA,""
"image-keyboard-response",415,327712,"0.0-3.134-2.134","10alp2msjpqseyc",0,"6.csv","","null","resources/images/coin2.png","null","",NA,NA,NA,NA,""
"image-keyboard-response",416,328157,"0.0-3.135-0.135","10alp2msjpqseyc",0,"6.csv","","442.29999999701977","resources/trios/L4T4A1.jpg","39","restless",0.2,0.4,0.7,0.356596723557929,"true"
"image-keyboard-response",417,328564,"0.0-3.135-1.135","10alp2msjpqseyc",0,"6.csv","","null","resources/maskTrios/BBA1.jpg","null","",NA,NA,NA,NA,""
"image-keyboard-response",418,329766,"0.0-3.135-2.135","10alp2msjpqseyc",0,"6.csv","","null","resources/images/coin2.png","null","",NA,NA,NA,NA,""
"image-keyboard-response",419,330117,"0.0-3.136-0.136","10alp2msjpqseyc",0,"6.csv","","348.8999999985099","resources/trios/L4T4A1.jpg","39","restless",0.2,0.4,0.7,0.384672022006462,"true"
"image-keyboard-response",420,330524,"0.0-3.136-1.136","10alp2msjpqseyc",0,"6.csv","","null","resources/maskTrios/BBA1.jpg","null","",NA,NA,NA,NA,""
"image-keyboard-response",421,331726,"0.0-3.136-2.136","10alp2msjpqseyc",0,"6.csv","","null","resources/images/coin2.png","null","",NA,NA,NA,NA,""
"image-keyboard-response",422,332001,"0.0-3.137-0.137","10alp2msjpqseyc",0,"6.csv","","272.4000000022352","resources/trios/L1T4A3.jpg","39","restless",0.2,0.4,0.7,0.851263637156587,"false"
"image-keyboard-response",423,332408,"0.0-3.137-1.137","10alp2msjpqseyc",0,"6.csv","","null","resources/maskTrios/BBA3.jpg","null","",NA,NA,NA,NA,""
"image-keyboard-response",424,333615,"0.0-3.137-2.137","10alp2msjpqseyc",0,"6.csv","","null","resources/images/fishbone.png","null","",NA,NA,NA,NA,""
"image-keyboard-response",425,333977,"0.0-3.138-0.138","10alp2msjpqseyc",0,"6.csv","","360.69999999925494","resources/trios/L1T2A1.jpg","38","restless",0.2,0.4,0.7,0.28576251585196,"true"
"image-keyboard-response",426,334383,"0.0-3.138-1.138","10alp2msjpqseyc",0,"6.csv","","null","resources/maskTrios/BT2B.jpg","null","",NA,NA,NA,NA,""
"image-keyboard-response",427,335590,"0.0-3.138-2.138","10alp2msjpqseyc",0,"6.csv","","null","resources/images/coin2.png","null","",NA,NA,NA,NA,""
"image-keyboard-response",428,335892,"0.0-3.139-0.139","10alp2msjpqseyc",0,"6.csv","","300","resources/trios/L1T2A1.jpg","38","restless",0.2,0.4,0.7,0.215384407761121,"true"
"image-keyboard-response",429,336299,"0.0-3.139-1.139","10alp2msjpqseyc",0,"6.csv","","null","resources/maskTrios/BT2B.jpg","null","",NA,NA,NA,NA,""
"image-keyboard-response",430,337506,"0.0-3.139-2.139","10alp2msjpqseyc",0,"6.csv","","null","resources/images/coin2.png","null","",NA,NA,NA,NA,""
"image-keyboard-response",431,337958,"0.0-3.140-0.140","10alp2msjpqseyc",0,"6.csv","","450","resources/trios/L4T4A1.jpg","38","restless",0.2,0.4,0.7,0.181864131418023,"true"
"image-keyboard-response",432,338365,"0.0-3.140-1.140","10alp2msjpqseyc",0,"6.csv","","null","resources/maskTrios/BT4B.jpg","null","",NA,NA,NA,NA,""
"image-keyboard-response",433,339570,"0.0-3.140-2.140","10alp2msjpqseyc",0,"6.csv","","null","resources/images/coin2.png","null","",NA,NA,NA,NA,""
"image-keyboard-response",434,339972,"0.0-3.141-0.141","10alp2msjpqseyc",0,"6.csv","","399.6000000014901","resources/trios/L1T4A1.jpg","38","restless",0.2,0.4,0.7,0.34039986616415,"true"
"image-keyboard-response",435,340379,"0.0-3.141-1.141","10alp2msjpqseyc",0,"6.csv","","null","resources/maskTrios/BT4B.jpg","null","",NA,NA,NA,NA,""
"image-keyboard-response",436,341581,"0.0-3.141-2.141","10alp2msjpqseyc",0,"6.csv","","null","resources/images/coin2.png","null","",NA,NA,NA,NA,""
"image-keyboard-response",437,341913,"0.0-3.142-0.142","10alp2msjpqseyc",0,"6.csv","","329.5","resources/trios/L4T4A1.jpg","38","restless",0.3,0.4,0.6,0.567958621677627,"false"
"image-keyboard-response",438,342315,"0.0-3.142-1.142","10alp2msjpqseyc",0,"6.csv","","null","resources/maskTrios/BT4B.jpg","null","",NA,NA,NA,NA,""
"image-keyboard-response",439,343522,"0.0-3.142-2.142","10alp2msjpqseyc",0,"6.csv","","null","resources/images/fishbone.png","null","",NA,NA,NA,NA,""
"image-keyboard-response",440,343813,"0.0-3.143-0.143","10alp2msjpqseyc",0,"6.csv","","289.19999999925494","resources/trios/L4T2A1.jpg","37","restless",0.3,0.4,0.6,0.19406652568472,"true"
"image-keyboard-response",441,344220,"0.0-3.143-1.143","10alp2msjpqseyc",0,"6.csv","","null","resources/maskTrios/L4BB.jpg","null","",NA,NA,NA,NA,""
"image-keyboard-response",442,345423,"0.0-3.143-2.143","10alp2msjpqseyc",0,"6.csv","","null","resources/images/coin2.png","null","",NA,NA,NA,NA,""
"image-keyboard-response",443,345806,"0.0-3.144-0.144","10alp2msjpqseyc",0,"6.csv","","380.30000000074506","resources/trios/L1T4A3.jpg","37","restless",0.4,0.4,0.6,0.185065542789983,"true"
"image-keyboard-response",444,346211,"0.0-3.144-1.144","10alp2msjpqseyc",0,"6.csv","","null","resources/maskTrios/L1BB.jpg","null","",NA,NA,NA,NA,""
"image-keyboard-response",445,347418,"0.0-3.144-2.144","10alp2msjpqseyc",0,"6.csv","","null","resources/images/coin2.png","null","",NA,NA,NA,NA,""
"image-keyboard-response",446,347756,"0.0-3.145-0.145","10alp2msjpqseyc",0,"6.csv","","336.5","resources/trios/L4T2A3.jpg","37","restless",0.4,0.4,0.6,0.57567085580621,"false"
"image-keyboard-response",447,348164,"0.0-3.145-1.145","10alp2msjpqseyc",0,"6.csv","","null","resources/maskTrios/L4BB.jpg","null","",NA,NA,NA,NA,""
"image-keyboard-response",448,349370,"0.0-3.145-2.145","10alp2msjpqseyc",0,"6.csv","","null","resources/images/fishbone.png","null","",NA,NA,NA,NA,""
"image-keyboard-response",449,353144,"0.0-3.146-0.146","10alp2msjpqseyc",0,"6.csv","","3772.099999997765","resources/trios/L4T2A3.jpg","39","restless",0.4,0.3,0.6,0.313181192358196,"true"
"image-keyboard-response",450,353549,"0.0-3.146-1.146","10alp2msjpqseyc",0,"6.csv","","null","resources/maskTrios/BBA3.jpg","null","",NA,NA,NA,NA,""
"image-keyboard-response",451,354755,"0.0-3.146-2.146","10alp2msjpqseyc",0,"6.csv","","null","resources/images/coin2.png","null","",NA,NA,NA,NA,""
"image-keyboard-response",452,356477,"0.0-3.147-0.147","10alp2msjpqseyc",0,"6.csv","","1720.300000000745","resources/trios/L4T2A1.jpg","39","restless",0.4,0.3,0.6,0.276995859860389,"true"
"image-keyboard-response",453,356884,"0.0-3.147-1.147","10alp2msjpqseyc",0,"6.csv","","null","resources/maskTrios/BBA1.jpg","null","",NA,NA,NA,NA,""
"image-keyboard-response",454,358089,"0.0-3.147-2.147","10alp2msjpqseyc",0,"6.csv","","null","resources/images/coin2.png","null","",NA,NA,NA,NA,""
"image-keyboard-response",455,358603,"0.0-3.148-0.148","10alp2msjpqseyc",0,"6.csv","","511.5","resources/trios/L4T4A1.jpg","39","restless",0.5,0.3,0.6,0.792111573081283,"false"
"image-keyboard-response",456,359009,"0.0-3.148-1.148","10alp2msjpqseyc",0,"6.csv","","null","resources/maskTrios/BBA1.jpg","null","",NA,NA,NA,NA,""
"image-keyboard-response",457,360216,"0.0-3.148-2.148","10alp2msjpqseyc",0,"6.csv","","null","resources/images/fishbone.png","null","",NA,NA,NA,NA,""
"image-keyboard-response",458,360573,"0.0-3.149-0.149","10alp2msjpqseyc",0,"6.csv","","354.69999999925494","resources/trios/L4T2A1.jpg","38","restless",0.5,0.3,0.6,0.223648345832281,"true"
"image-keyboard-response",459,360979,"0.0-3.149-1.149","10alp2msjpqseyc",0,"6.csv","","null","resources/maskTrios/BT2B.jpg","null","",NA,NA,NA,NA,""
"image-keyboard-response",460,362186,"0.0-3.149-2.149","10alp2msjpqseyc",0,"6.csv","","null","resources/images/coin2.png","null","",NA,NA,NA,NA,""
"image-keyboard-response",461,362689,"0.0-3.150-0.150","10alp2msjpqseyc",0,"6.csv","","500.8999999985099","resources/trios/L4T4A1.jpg","38","restless",0.5,0.3,0.6,0.896843575115291,"false"
"image-keyboard-response",462,363096,"0.0-3.150-1.150","10alp2msjpqseyc",0,"6.csv","","null","resources/maskTrios/BT4B.jpg","null","",NA,NA,NA,NA,""
"image-keyboard-response",463,364303,"0.0-3.150-2.150","10alp2msjpqseyc",0,"6.csv","","null","resources/images/fishbone.png","null","",NA,NA,NA,NA,""
"image-keyboard-response",464,364668,"0.0-3.151-0.151","10alp2msjpqseyc",0,"6.csv","","362.79999999701977","resources/trios/L4T2A3.jpg","37","restless",0.5,0.3,0.6,0.562255617512841,"false"
"image-keyboard-response",465,365074,"0.0-3.151-1.151","10alp2msjpqseyc",0,"6.csv","","null","resources/maskTrios/L4BB.jpg","null","",NA,NA,NA,NA,""
"image-keyboard-response",466,366281,"0.0-3.151-2.151","10alp2msjpqseyc",0,"6.csv","","null","resources/images/fishbone.png","null","",NA,NA,NA,NA,""
"image-keyboard-response",467,366561,"0.0-3.152-0.152","10alp2msjpqseyc",0,"6.csv","","277.30000000074506","resources/trios/L4T4A1.jpg","38","restless",0.5,0.3,0.5,0.86327048729908,"false"
"image-keyboard-response",468,366968,"0.0-3.152-1.152","10alp2msjpqseyc",0,"6.csv","","null","resources/maskTrios/BT4B.jpg","null","",NA,NA,NA,NA,""
"image-keyboard-response",469,368174,"0.0-3.152-2.152","10alp2msjpqseyc",0,"6.csv","","null","resources/images/fishbone.png","null","",NA,NA,NA,NA,""
"image-keyboard-response",470,368525,"0.0-3.153-0.153","10alp2msjpqseyc",0,"6.csv","","348.1000000014901","resources/trios/L4T2A3.jpg","37","restless",0.5,0.3,0.5,0.91060373035506,"false"
"image-keyboard-response",471,368928,"0.0-3.153-1.153","10alp2msjpqseyc",0,"6.csv","","null","resources/maskTrios/L4BB.jpg","null","",NA,NA,NA,NA,""
"image-keyboard-response",472,370135,"0.0-3.153-2.153","10alp2msjpqseyc",0,"6.csv","","null","resources/images/fishbone.png","null","",NA,NA,NA,NA,""
"image-keyboard-response",473,370444,"0.0-3.154-0.154","10alp2msjpqseyc",0,"6.csv","","307.1000000014901","resources/trios/L1T4A3.jpg","39","restless",0.5,0.3,0.5,0.727061395803398,"false"
"image-keyboard-response",474,370849,"0.0-3.154-1.154","10alp2msjpqseyc",0,"6.csv","","null","resources/maskTrios/BBA3.jpg","null","",NA,NA,NA,NA,""
"image-keyboard-response",475,372056,"0.0-3.154-2.154","10alp2msjpqseyc",0,"6.csv","","null","resources/images/fishbone.png","null","",NA,NA,NA,NA,""
"image-keyboard-response",476,372352,"0.0-3.155-0.155","10alp2msjpqseyc",0,"6.csv","","293.5","resources/trios/L1T2A3.jpg","38","restless",0.5,0.3,0.5,0.769464070411567,"false"
"image-keyboard-response",477,372759,"0.0-3.155-1.155","10alp2msjpqseyc",0,"6.csv","","null","resources/maskTrios/BT2B.jpg","null","",NA,NA,NA,NA,""
"image-keyboard-response",478,373965,"0.0-3.155-2.155","10alp2msjpqseyc",0,"6.csv","","null","resources/images/fishbone.png","null","",NA,NA,NA,NA,""
"image-keyboard-response",479,374238,"0.0-3.156-0.156","10alp2msjpqseyc",0,"6.csv","","270.0999999977648","resources/trios/L1T4A3.jpg","39","restless",0.5,0.3,0.5,0.188986860164429,"true"
"image-keyboard-response",480,374645,"0.0-3.156-1.156","10alp2msjpqseyc",0,"6.csv","","null","resources/maskTrios/BBA3.jpg","null","",NA,NA,NA,NA,""
"image-keyboard-response",481,375852,"0.0-3.156-2.156","10alp2msjpqseyc",0,"6.csv","","null","resources/images/coin2.png","null","",NA,NA,NA,NA,""
"image-keyboard-response",482,376152,"0.0-3.157-0.157","10alp2msjpqseyc",0,"6.csv","","298","resources/trios/L1T2A3.jpg","39","restless",0.5,0.4,0.6,0.950951436757915,"false"
"image-keyboard-response",483,376559,"0.0-3.157-1.157","10alp2msjpqseyc",0,"6.csv","","null","resources/maskTrios/BBA3.jpg","null","",NA,NA,NA,NA,""
"image-keyboard-response",484,377765,"0.0-3.157-2.157","10alp2msjpqseyc",0,"6.csv","","null","resources/images/fishbone.png","null","",NA,NA,NA,NA,""
"image-keyboard-response",485,378094,"0.0-3.158-0.158","10alp2msjpqseyc",0,"6.csv","","326.8999999985099","resources/trios/L4T4A1.jpg","37","restless",0.5,0.4,0.6,0.251680773056772,"true"
"image-keyboard-response",486,378501,"0.0-3.158-1.158","10alp2msjpqseyc",0,"6.csv","","null","resources/maskTrios/L4BB.jpg","null","",NA,NA,NA,NA,""
"image-keyboard-response",487,379708,"0.0-3.158-2.158","10alp2msjpqseyc",0,"6.csv","","null","resources/images/coin2.png","null","",NA,NA,NA,NA,""
"image-keyboard-response",488,380045,"0.0-3.159-0.159","10alp2msjpqseyc",0,"6.csv","","334.0999999977648","resources/trios/L4T4A3.jpg","39","restless",0.6,0.4,0.6,0.0559641814533345,"true"
"image-keyboard-response",489,380449,"0.0-3.159-1.159","10alp2msjpqseyc",0,"6.csv","","null","resources/maskTrios/BBA3.jpg","null","",NA,NA,NA,NA,""
"image-keyboard-response",490,381656,"0.0-3.159-2.159","10alp2msjpqseyc",0,"6.csv","","null","resources/images/coin2.png","null","",NA,NA,NA,NA,""
"image-keyboard-response",491,381999,"0.0-3.160-0.160","10alp2msjpqseyc",0,"6.csv","","341.19999999925494","resources/trios/L1T2A1.jpg","37","restless",0.6,0.4,0.5,0.16724753914096,"true"
"image-keyboard-response",492,382405,"0.0-3.160-1.160","10alp2msjpqseyc",0,"6.csv","","null","resources/maskTrios/L1BB.jpg","null","",NA,NA,NA,NA,""
"image-keyboard-response",493,383612,"0.0-3.160-2.160","10alp2msjpqseyc",0,"6.csv","","null","resources/images/coin2.png","null","",NA,NA,NA,NA,""
"image-keyboard-response",494,383888,"0.0-3.161-0.161","10alp2msjpqseyc",0,"6.csv","","274.69999999925494","resources/trios/L4T2A1.jpg","39","restless",0.6,0.4,0.5,0.610871795428684,"false"
"image-keyboard-response",495,384296,"0.0-3.161-1.161","10alp2msjpqseyc",0,"6.csv","","null","resources/maskTrios/BBA1.jpg","null","",NA,NA,NA,NA,""
"image-keyboard-response",496,385500,"0.0-3.161-2.161","10alp2msjpqseyc",0,"6.csv","","null","resources/images/fishbone.png","null","",NA,NA,NA,NA,""
"image-keyboard-response",497,385869,"0.0-3.162-0.162","10alp2msjpqseyc",0,"6.csv","","366.19999999925494","resources/trios/L1T4A3.jpg","38","restless",0.6,0.4,0.4,0.895454544347287,"false"
"image-keyboard-response",498,386276,"0.0-3.162-1.162","10alp2msjpqseyc",0,"6.csv","","null","resources/maskTrios/BT4B.jpg","null","",NA,NA,NA,NA,""
"image-keyboard-response",499,387483,"0.0-3.162-2.162","10alp2msjpqseyc",0,"6.csv","","null","resources/images/fishbone.png","null","",NA,NA,NA,NA,""
"image-keyboard-response",500,387756,"0.0-3.163-0.163","10alp2msjpqseyc",0,"6.csv","","271.5","resources/trios/L1T4A1.jpg","37","restless",0.6,0.4,0.4,0.0416235391933333,"true"
"image-keyboard-response",501,388162,"0.0-3.163-1.163","10alp2msjpqseyc",0,"6.csv","","null","resources/maskTrios/L1BB.jpg","null","",NA,NA,NA,NA,""
"image-keyboard-response",502,389369,"0.0-3.163-2.163","10alp2msjpqseyc",0,"6.csv","","null","resources/images/coin2.png","null","",NA,NA,NA,NA,""
"image-keyboard-response",503,389694,"0.0-3.164-0.164","10alp2msjpqseyc",0,"6.csv","","323.1000000014901","resources/trios/L4T2A3.jpg","37","restless",0.6,0.4,0.4,0.56475198301718,"true"
"image-keyboard-response",504,390101,"0.0-3.164-1.164","10alp2msjpqseyc",0,"6.csv","","null","resources/maskTrios/L4BB.jpg","null","",NA,NA,NA,NA,""
"image-keyboard-response",505,391307,"0.0-3.164-2.164","10alp2msjpqseyc",0,"6.csv","","null","resources/images/coin2.png","null","",NA,NA,NA,NA,""
"image-keyboard-response",506,391595,"0.0-3.165-0.165","10alp2msjpqseyc",0,"6.csv","","286.5","resources/trios/L4T4A1.jpg","37","restless",0.6,0.4,0.4,0.626548742676531,"false"
"image-keyboard-response",507,392001,"0.0-3.165-1.165","10alp2msjpqseyc",0,"6.csv","","null","resources/maskTrios/L4BB.jpg","null","",NA,NA,NA,NA,""
"image-keyboard-response",508,393208,"0.0-3.165-2.165","10alp2msjpqseyc",0,"6.csv","","null","resources/images/fishbone.png","null","",NA,NA,NA,NA,""
"image-keyboard-response",509,393570,"0.0-3.166-0.166","10alp2msjpqseyc",0,"6.csv","","360.69999999925494","resources/trios/L4T2A1.jpg","39","restless",0.6,0.4,0.4,0.681106168669045,"false"
"image-keyboard-response",510,393978,"0.0-3.166-1.166","10alp2msjpqseyc",0,"6.csv","","null","resources/maskTrios/BBA1.jpg","null","",NA,NA,NA,NA,""
"image-keyboard-response",511,395184,"0.0-3.166-2.166","10alp2msjpqseyc",0,"6.csv","","null","resources/images/fishbone.png","null","",NA,NA,NA,NA,""
"image-keyboard-response",512,395510,"0.0-3.167-0.167","10alp2msjpqseyc",0,"6.csv","","323.5999999977648","resources/trios/L4T4A1.jpg","37","restless",0.6,0.4,0.4,0.288302545571692,"true"
"image-keyboard-response",513,395917,"0.0-3.167-1.167","10alp2msjpqseyc",0,"6.csv","","null","resources/maskTrios/L4BB.jpg","null","",NA,NA,NA,NA,""
"image-keyboard-response",514,397124,"0.0-3.167-2.167","10alp2msjpqseyc",0,"6.csv","","null","resources/images/coin2.png","null","",NA,NA,NA,NA,""
"image-keyboard-response",515,397463,"0.0-3.168-0.168","10alp2msjpqseyc",0,"6.csv","","337","resources/trios/L4T2A1.jpg","37","restless",0.6,0.4,0.4,0.428450534956476,"true"
"image-keyboard-response",516,397866,"0.0-3.168-1.168","10alp2msjpqseyc",0,"6.csv","","null","resources/maskTrios/L4BB.jpg","null","",NA,NA,NA,NA,""
"image-keyboard-response",517,399070,"0.0-3.168-2.168","10alp2msjpqseyc",0,"6.csv","","null","resources/images/coin2.png","null","",NA,NA,NA,NA,""
"image-keyboard-response",518,399450,"0.0-3.169-0.169","10alp2msjpqseyc",0,"6.csv","","377.3999999985099","resources/trios/L4T4A1.jpg","38","restless",0.6,0.4,0.3,0.580624467841489,"false"
"image-keyboard-response",519,399855,"0.0-3.169-1.169","10alp2msjpqseyc",0,"6.csv","","null","resources/maskTrios/BT4B.jpg","null","",NA,NA,NA,NA,""
"image-keyboard-response",520,401062,"0.0-3.169-2.169","10alp2msjpqseyc",0,"6.csv","","null","resources/images/fishbone.png","null","",NA,NA,NA,NA,""
"image-keyboard-response",521,401421,"0.0-3.170-0.170","10alp2msjpqseyc",0,"6.csv","","356.8999999985099","resources/trios/L4T4A1.jpg","37","restless",0.6,0.4,0.3,0.895102333028001,"false"
"image-keyboard-response",522,401828,"0.0-3.170-1.170","10alp2msjpqseyc",0,"6.csv","","null","resources/maskTrios/L4BB.jpg","null","",NA,NA,NA,NA,""
"image-keyboard-response",523,403034,"0.0-3.170-2.170","10alp2msjpqseyc",0,"6.csv","","null","resources/images/fishbone.png","null","",NA,NA,NA,NA,""
"image-keyboard-response",524,403385,"0.0-3.171-0.171","10alp2msjpqseyc",0,"6.csv","","348.69999999925494","resources/trios/L1T2A3.jpg","39","restless",0.7,0.4,0.3,0.484792776073375,"false"
"image-keyboard-response",525,403787,"0.0-3.171-1.171","10alp2msjpqseyc",0,"6.csv","","null","resources/maskTrios/BBA3.jpg","null","",NA,NA,NA,NA,""
"image-keyboard-response",526,404992,"0.0-3.171-2.171","10alp2msjpqseyc",0,"6.csv","","null","resources/images/fishbone.png","null","",NA,NA,NA,NA,""
"image-keyboard-response",527,405323,"0.0-3.172-0.172","10alp2msjpqseyc",0,"6.csv","","328.69999999925494","resources/trios/L4T4A3.jpg","37","restless",0.7,0.4,0.3,0.330321663646205,"true"
"image-keyboard-response",528,405725,"0.0-3.172-1.172","10alp2msjpqseyc",0,"6.csv","","null","resources/maskTrios/L4BB.jpg","null","",NA,NA,NA,NA,""
"image-keyboard-response",529,406932,"0.0-3.172-2.172","10alp2msjpqseyc",0,"6.csv","","null","resources/images/coin2.png","null","",NA,NA,NA,NA,""
"image-keyboard-response",530,407390,"0.0-3.173-0.173","10alp2msjpqseyc",0,"6.csv","","455.8999999985099","resources/trios/L1T4A3.jpg","37","restless",0.7,0.4,0.3,0.709172332659023,"false"
"image-keyboard-response",531,407797,"0.0-3.173-1.173","10alp2msjpqseyc",0,"6.csv","","null","resources/maskTrios/L1BB.jpg","null","",NA,NA,NA,NA,""
"image-keyboard-response",532,409003,"0.0-3.173-2.173","10alp2msjpqseyc",0,"6.csv","","null","resources/images/fishbone.png","null","",NA,NA,NA,NA,""
"image-keyboard-response",533,409294,"0.0-3.174-0.174","10alp2msjpqseyc",0,"6.csv","","289","resources/trios/L1T2A1.jpg","38","restless",0.6,0.4,0.2,0.201621132124475,"true"
"image-keyboard-response",534,409701,"0.0-3.174-1.174","10alp2msjpqseyc",0,"6.csv","","null","resources/maskTrios/BT2B.jpg","null","",NA,NA,NA,NA,""
"image-keyboard-response",535,410908,"0.0-3.174-2.174","10alp2msjpqseyc",0,"6.csv","","null","resources/images/coin2.png","null","",NA,NA,NA,NA,""
"image-keyboard-response",536,411276,"0.0-3.175-0.175","10alp2msjpqseyc",0,"6.csv","","366.30000000074506","resources/trios/L1T2A3.jpg","38","restless",0.6,0.4,0.2,0.11003640059275,"true"
"image-keyboard-response",537,411683,"0.0-3.175-1.175","10alp2msjpqseyc",0,"6.csv","","null","resources/maskTrios/BT2B.jpg","null","",NA,NA,NA,NA,""
"image-keyboard-response",538,412888,"0.0-3.175-2.175","10alp2msjpqseyc",0,"6.csv","","null","resources/images/coin2.png","null","",NA,NA,NA,NA,""
"image-keyboard-response",539,413266,"0.0-3.176-0.176","10alp2msjpqseyc",0,"6.csv","","375.5","resources/trios/L1T2A1.jpg","38","restless",0.6,0.4,0.2,0.0170538673546816,"true"
"image-keyboard-response",540,413673,"0.0-3.176-1.176","10alp2msjpqseyc",0,"6.csv","","null","resources/maskTrios/BT2B.jpg","null","",NA,NA,NA,NA,""
"image-keyboard-response",541,414880,"0.0-3.176-2.176","10alp2msjpqseyc",0,"6.csv","","null","resources/images/coin2.png","null","",NA,NA,NA,NA,""
"image-keyboard-response",542,415268,"0.0-3.177-0.177","10alp2msjpqseyc",0,"6.csv","","386.3999999985099","resources/trios/L4T2A1.jpg","38","restless",0.6,0.4,0.2,0.224358392467944,"true"
"image-keyboard-response",543,415675,"0.0-3.177-1.177","10alp2msjpqseyc",0,"6.csv","","null","resources/maskTrios/BT2B.jpg","null","",NA,NA,NA,NA,""
"image-keyboard-response",544,416882,"0.0-3.177-2.177","10alp2msjpqseyc",0,"6.csv","","null","resources/images/coin2.png","null","",NA,NA,NA,NA,""
"image-keyboard-response",545,417168,"0.0-3.178-0.178","10alp2msjpqseyc",0,"6.csv","","283.80000000074506","resources/trios/L1T2A1.jpg","38","restless",0.6,0.4,0.2,0.0286681687950081,"true"
"image-keyboard-response",546,417574,"0.0-3.178-1.178","10alp2msjpqseyc",0,"6.csv","","null","resources/maskTrios/BT2B.jpg","null","",NA,NA,NA,NA,""
"image-keyboard-response",547,418778,"0.0-3.178-2.178","10alp2msjpqseyc",0,"6.csv","","null","resources/images/coin2.png","null","",NA,NA,NA,NA,""
"image-keyboard-response",548,419105,"0.0-3.179-0.179","10alp2msjpqseyc",0,"6.csv","","324.80000000074506","resources/trios/L1T4A3.jpg","38","restless",0.6,0.4,0.2,0.811474392853758,"false"
"image-keyboard-response",549,419512,"0.0-3.179-1.179","10alp2msjpqseyc",0,"6.csv","","null","resources/maskTrios/BT4B.jpg","null","",NA,NA,NA,NA,""
"image-keyboard-response",550,420718,"0.0-3.179-2.179","10alp2msjpqseyc",0,"6.csv","","null","resources/images/fishbone.png","null","",NA,NA,NA,NA,""
"image-keyboard-response",551,421015,"0.0-3.180-0.180","10alp2msjpqseyc",0,"6.csv","","294.5","resources/trios/L1T2A1.jpg","39","restless",0.6,0.4,0.2,0.222460351587256,"false"
"image-keyboard-response",552,421417,"0.0-3.180-1.180","10alp2msjpqseyc",0,"6.csv","","null","resources/maskTrios/BBA1.jpg","null","",NA,NA,NA,NA,""
"image-keyboard-response",553,422623,"0.0-3.180-2.180","10alp2msjpqseyc",0,"6.csv","","null","resources/images/fishbone.png","null","",NA,NA,NA,NA,""
"image-keyboard-response",554,422928,"0.0-3.181-0.181","10alp2msjpqseyc",0,"6.csv","","302.4000000022352","resources/trios/L1T2A3.jpg","37","restless",0.6,0.4,0.2,0.804071899558553,"false"
"image-keyboard-response",555,423335,"0.0-3.181-1.181","10alp2msjpqseyc",0,"6.csv","","null","resources/maskTrios/L1BB.jpg","null","",NA,NA,NA,NA,""
"image-keyboard-response",556,424538,"0.0-3.181-2.181","10alp2msjpqseyc",0,"6.csv","","null","resources/images/fishbone.png","null","",NA,NA,NA,NA,""
"image-keyboard-response",557,424990,"0.0-3.182-0.182","10alp2msjpqseyc",0,"6.csv","","449.3999999985099","resources/trios/L4T4A1.jpg","38","restless",0.6,0.4,0.2,0.16046917688696,"true"
"image-keyboard-response",558,425397,"0.0-3.182-1.182","10alp2msjpqseyc",0,"6.csv","","null","resources/maskTrios/BT4B.jpg","null","",NA,NA,NA,NA,""
"image-keyboard-response",559,426603,"0.0-3.182-2.182","10alp2msjpqseyc",0,"6.csv","","null","resources/images/coin2.png","null","",NA,NA,NA,NA,""
"image-keyboard-response",560,427075,"0.0-3.183-0.183","10alp2msjpqseyc",0,"6.csv","","470","resources/trios/L1T2A3.jpg","38","restless",0.5,0.4,0.2,0.437092822628587,"false"
"image-keyboard-response",561,427483,"0.0-3.183-1.183","10alp2msjpqseyc",0,"6.csv","","null","resources/maskTrios/BT2B.jpg","null","",NA,NA,NA,NA,""
"image-keyboard-response",562,428689,"0.0-3.183-2.183","10alp2msjpqseyc",0,"6.csv","","null","resources/images/fishbone.png","null","",NA,NA,NA,NA,""
"image-keyboard-response",563,428956,"0.0-3.184-0.184","10alp2msjpqseyc",0,"6.csv","","264.30000000074506","resources/trios/L4T2A1.jpg","39","restless",0.5,0.4,0.2,0.0510225134204247,"true"
"image-keyboard-response",564,429363,"0.0-3.184-1.184","10alp2msjpqseyc",0,"6.csv","","null","resources/maskTrios/BBA1.jpg","null","",NA,NA,NA,NA,""
"image-keyboard-response",565,430570,"0.0-3.184-2.184","10alp2msjpqseyc",0,"6.csv","","null","resources/images/coin2.png","null","",NA,NA,NA,NA,""
"image-keyboard-response",566,431138,"0.0-3.185-0.185","10alp2msjpqseyc",0,"6.csv","","566.1999999992549","resources/trios/L1T4A1.jpg","39","restless",0.5,0.4,0.2,0.204963958608248,"false"
"image-keyboard-response",567,431545,"0.0-3.185-1.185","10alp2msjpqseyc",0,"6.csv","","null","resources/maskTrios/BBA1.jpg","null","",NA,NA,NA,NA,""
"image-keyboard-response",568,432751,"0.0-3.185-2.185","10alp2msjpqseyc",0,"6.csv","","null","resources/images/fishbone.png","null","",NA,NA,NA,NA,""
"image-keyboard-response",569,432989,"0.0-3.186-0.186","10alp2msjpqseyc",0,"6.csv","","235.5","resources/trios/L4T4A1.jpg","37","restless",0.5,0.4,0.3,0.101927384541119,"true"
"image-keyboard-response",570,433396,"0.0-3.186-1.186","10alp2msjpqseyc",0,"6.csv","","null","resources/maskTrios/L4BB.jpg","null","",NA,NA,NA,NA,""
"image-keyboard-response",571,434603,"0.0-3.186-2.186","10alp2msjpqseyc",0,"6.csv","","null","resources/images/coin2.png","null","",NA,NA,NA,NA,""
"image-keyboard-response",572,435187,"0.0-3.187-0.187","10alp2msjpqseyc",0,"6.csv","","582.5","resources/trios/L1T2A3.jpg","38","restless",0.5,0.5,0.3,0.236951022360703,"true"
"image-keyboard-response",573,435594,"0.0-3.187-1.187","10alp2msjpqseyc",0,"6.csv","","null","resources/maskTrios/BT2B.jpg","null","",NA,NA,NA,NA,""
"image-keyboard-response",574,436801,"0.0-3.187-2.187","10alp2msjpqseyc",0,"6.csv","","null","resources/images/coin2.png","null","",NA,NA,NA,NA,""
"image-keyboard-response",575,437479,"0.0-3.188-0.188","10alp2msjpqseyc",0,"6.csv","","676.3000000007451","resources/trios/L4T2A3.jpg","38","restless",0.5,0.5,0.3,0.199958031659763,"true"
"image-keyboard-response",576,437885,"0.0-3.188-1.188","10alp2msjpqseyc",0,"6.csv","","null","resources/maskTrios/BT2B.jpg","null","",NA,NA,NA,NA,""
"image-keyboard-response",577,439087,"0.0-3.188-2.188","10alp2msjpqseyc",0,"6.csv","","null","resources/images/coin2.png","null","",NA,NA,NA,NA,""
"image-keyboard-response",578,440737,"0.0-3.189-0.189","10alp2msjpqseyc",0,"6.csv","","1648.1000000014901","resources/trios/L4T2A1.jpg","39","restless",0.5,0.6,0.3,0.858929194758319,"false"
"image-keyboard-response",579,441145,"0.0-3.189-1.189","10alp2msjpqseyc",0,"6.csv","","null","resources/maskTrios/BBA1.jpg","null","",NA,NA,NA,NA,""
"image-keyboard-response",580,442351,"0.0-3.189-2.189","10alp2msjpqseyc",0,"6.csv","","null","resources/images/fishbone.png","null","",NA,NA,NA,NA,""
"image-keyboard-response",581,442827,"0.0-3.190-0.190","10alp2msjpqseyc",0,"6.csv","","473.9000000022352","resources/trios/L1T2A3.jpg","37","restless",0.5,0.6,0.3,0.552722848345178,"false"
"image-keyboard-response",582,443232,"0.0-3.190-1.190","10alp2msjpqseyc",0,"6.csv","","null","resources/maskTrios/L1BB.jpg","null","",NA,NA,NA,NA,""
"image-keyboard-response",583,444436,"0.0-3.190-2.190","10alp2msjpqseyc",0,"6.csv","","null","resources/images/fishbone.png","null","",NA,NA,NA,NA,""
"image-keyboard-response",584,444822,"0.0-3.191-0.191","10alp2msjpqseyc",0,"6.csv","","384.5999999977648","resources/trios/L1T4A1.jpg","38","restless",0.6,0.6,0.3,0.216761094206019,"true"
"image-keyboard-response",585,445225,"0.0-3.191-1.191","10alp2msjpqseyc",0,"6.csv","","null","resources/maskTrios/BT4B.jpg","null","",NA,NA,NA,NA,""
"image-keyboard-response",586,446432,"0.0-3.191-2.191","10alp2msjpqseyc",0,"6.csv","","null","resources/images/coin2.png","null","",NA,NA,NA,NA,""
"image-keyboard-response",587,446876,"0.0-3.192-0.192","10alp2msjpqseyc",0,"6.csv","","442.80000000074506","resources/trios/L4T2A1.jpg","38","restless",0.6,0.6,0.3,0.168925724739647,"true"
"image-keyboard-response",588,447283,"0.0-3.192-1.192","10alp2msjpqseyc",0,"6.csv","","null","resources/maskTrios/BT2B.jpg","null","",NA,NA,NA,NA,""
"image-keyboard-response",589,448490,"0.0-3.192-2.192","10alp2msjpqseyc",0,"6.csv","","null","resources/images/coin2.png","null","",NA,NA,NA,NA,""
"image-keyboard-response",590,448929,"0.0-3.193-0.193","10alp2msjpqseyc",0,"6.csv","","436.9000000022352","resources/trios/L4T4A3.jpg","38","restless",0.5,0.6,0.3,0.838649180813532,"false"
"image-keyboard-response",591,449336,"0.0-3.193-1.193","10alp2msjpqseyc",0,"6.csv","","null","resources/maskTrios/BT4B.jpg","null","",NA,NA,NA,NA,""
"image-keyboard-response",592,450542,"0.0-3.193-2.193","10alp2msjpqseyc",0,"6.csv","","null","resources/images/fishbone.png","null","",NA,NA,NA,NA,""
"image-keyboard-response",593,450954,"0.0-3.194-0.194","10alp2msjpqseyc",0,"6.csv","","409.9000000022352","resources/trios/L4T4A3.jpg","39","restless",0.5,0.6,0.3,0.945061682582434,"false"
"image-keyboard-response",594,451361,"0.0-3.194-1.194","10alp2msjpqseyc",0,"6.csv","","null","resources/maskTrios/BBA3.jpg","null","",NA,NA,NA,NA,""
"image-keyboard-response",595,452566,"0.0-3.194-2.194","10alp2msjpqseyc",0,"6.csv","","null","resources/images/fishbone.png","null","",NA,NA,NA,NA,""
"image-keyboard-response",596,452929,"0.0-3.195-0.195","10alp2msjpqseyc",0,"6.csv","","361.3999999985099","resources/trios/L4T4A1.jpg","37","restless",0.5,0.6,0.3,0.247047440986154,"true"
"image-keyboard-response",597,453335,"0.0-3.195-1.195","10alp2msjpqseyc",0,"6.csv","","null","resources/maskTrios/L4BB.jpg","null","",NA,NA,NA,NA,""
"image-keyboard-response",598,454539,"0.0-3.195-2.195","10alp2msjpqseyc",0,"6.csv","","null","resources/images/coin2.png","null","",NA,NA,NA,NA,""
"image-keyboard-response",599,454993,"0.0-3.196-0.196","10alp2msjpqseyc",0,"6.csv","","452.69999999925494","resources/trios/L1T2A3.jpg","37","restless",0.4,0.6,0.3,0.832899685073042,"false"
"image-keyboard-response",600,455401,"0.0-3.196-1.196","10alp2msjpqseyc",0,"6.csv","","null","resources/maskTrios/L1BB.jpg","null","",NA,NA,NA,NA,""
"image-keyboard-response",601,456607,"0.0-3.196-2.196","10alp2msjpqseyc",0,"6.csv","","null","resources/images/fishbone.png","null","",NA,NA,NA,NA,""
"image-keyboard-response",602,456977,"0.0-3.197-0.197","10alp2msjpqseyc",0,"6.csv","","368","resources/trios/L4T4A1.jpg","38","restless",0.4,0.6,0.3,0.287412820903606,"true"
"image-keyboard-response",603,457384,"0.0-3.197-1.197","10alp2msjpqseyc",0,"6.csv","","null","resources/maskTrios/BT4B.jpg","null","",NA,NA,NA,NA,""
"image-keyboard-response",604,458587,"0.0-3.197-2.197","10alp2msjpqseyc",0,"6.csv","","null","resources/images/coin2.png","null","",NA,NA,NA,NA,""
"image-keyboard-response",605,458969,"0.0-3.198-0.198","10alp2msjpqseyc",0,"6.csv","","380.3999999985099","resources/trios/L1T4A1.jpg","38","restless",0.4,0.6,0.3,0.715814298725313,"false"
"image-keyboard-response",606,459376,"0.0-3.198-1.198","10alp2msjpqseyc",0,"6.csv","","null","resources/maskTrios/BT4B.jpg","null","",NA,NA,NA,NA,""
"image-keyboard-response",607,460583,"0.0-3.198-2.198","10alp2msjpqseyc",0,"6.csv","","null","resources/images/fishbone.png","null","",NA,NA,NA,NA,""
"image-keyboard-response",608,460892,"0.0-3.199-0.199","10alp2msjpqseyc",0,"6.csv","","307.30000000074506","resources/trios/L1T4A3.jpg","37","restless",0.4,0.6,0.3,0.653070480476045,"false"
"image-keyboard-response",609,461299,"0.0-3.199-1.199","10alp2msjpqseyc",0,"6.csv","","null","resources/maskTrios/L1BB.jpg","null","",NA,NA,NA,NA,""
"image-keyboard-response",610,462505,"0.0-3.199-2.199","10alp2msjpqseyc",0,"6.csv","","null","resources/images/fishbone.png","null","",NA,NA,NA,NA,""
"image-keyboard-response",611,462844,"0.0-3.200-0.200","10alp2msjpqseyc",0,"6.csv","","336","resources/trios/L1T4A1.jpg","39","restless",0.4,0.6,0.3,0.346142352811011,"false"
"image-keyboard-response",612,463251,"0.0-3.200-1.200","10alp2msjpqseyc",0,"6.csv","","null","resources/maskTrios/BBA1.jpg","null","",NA,NA,NA,NA,""
"image-keyboard-response",613,464457,"0.0-3.200-2.200","10alp2msjpqseyc",0,"6.csv","","null","resources/images/fishbone.png","null","",NA,NA,NA,NA,""
"image-keyboard-response",614,464723,"0.0-3.201-0.201","10alp2msjpqseyc",0,"6.csv","","263.30000000074506","resources/trios/L1T2A1.jpg","38","restless",0.4,0.5,0.3,0.000579171614483842,"true"
"image-keyboard-response",615,465130,"0.0-3.201-1.201","10alp2msjpqseyc",0,"6.csv","","null","resources/maskTrios/BT2B.jpg","null","",NA,NA,NA,NA,""
"image-keyboard-response",616,466335,"0.0-3.201-2.201","10alp2msjpqseyc",0,"6.csv","","null","resources/images/coin2.png","null","",NA,NA,NA,NA,""
"image-keyboard-response",617,466749,"0.0-3.202-0.202","10alp2msjpqseyc",0,"6.csv","","412","resources/trios/L1T2A3.jpg","38","restless",0.3,0.5,0.3,0.612765502651082,"false"
"image-keyboard-response",618,467156,"0.0-3.202-1.202","10alp2msjpqseyc",0,"6.csv","","null","resources/maskTrios/BT2B.jpg","null","",NA,NA,NA,NA,""
"image-keyboard-response",619,468363,"0.0-3.202-2.202","10alp2msjpqseyc",0,"6.csv","","null","resources/images/fishbone.png","null","",NA,NA,NA,NA,""
"image-keyboard-response",620,468595,"0.0-3.203-0.203","10alp2msjpqseyc",0,"6.csv","","230.39999999850988","resources/trios/L1T2A1.jpg","37","restless",0.3,0.5,0.3,0.249564350518244,"true"
"image-keyboard-response",621,469002,"0.0-3.203-1.203","10alp2msjpqseyc",0,"6.csv","","null","resources/maskTrios/L1BB.jpg","null","",NA,NA,NA,NA,""
"image-keyboard-response",622,470206,"0.0-3.203-2.203","10alp2msjpqseyc",0,"6.csv","","null","resources/images/coin2.png","null","",NA,NA,NA,NA,""
