"trial_type","trial_index","time_elapsed","internal_node_id","subject","participantCode","walkNumber","success","rt","stimulus","key_press","test_part","leftProb","midProb","rightProb","generatedNum","correct"
"pavlovia",0,1434,"0.0-0.0","oz8pc8v9okbrd34",528,"98.csv","","","","","",NA,NA,NA,NA,""
"fullscreen",1,4497,"0.0-1.0","oz8pc8v9okbrd34",528,"98.csv","true","","","","",NA,NA,NA,NA,""
"html-keyboard-response",2,16099,"0.0-2.0-0.0","oz8pc8v9okbrd34",528,"98.csv","","11599.5","<p><font size='6'>Arrrgh!</p></font><p>Can you be the best pirate? Try to find lots of gold! But beware, some islands have more gold than others, and over time, the island with the most gold may change. Can YOU figure it out? </p><font size='6'>GOOD LUCK, CAPTAIN!!!</font><p>Press any key to begin</p>","32","",NA,NA,NA,NA,""
"image-keyboard-response",3,19102,"0.0-2.0-1.0","oz8pc8v9okbrd34",528,"98.csv","","null","resources/image_sets/111.png","null","",NA,NA,NA,NA,""
"image-keyboard-response",4,26941,"0.0-2.0-2.0","oz8pc8v9okbrd34",528,"98.csv","","7836.799999237061","resources/image_sets/left_highlight.png","37","",NA,NA,NA,NA,""
"image-keyboard-response",5,29858,"0.0-2.0-3.0","oz8pc8v9okbrd34",528,"98.csv","","2911.2999992370605","resources/image_sets/mid_highlight.png","38","",NA,NA,NA,NA,""
"image-keyboard-response",6,31889,"0.0-2.0-4.0","oz8pc8v9okbrd34",528,"98.csv","","2029.099998474121","resources/image_sets/right_highlight.png","39","",NA,NA,NA,NA,""
"image-keyboard-response",7,34522,"0.0-2.0-5.0","oz8pc8v9okbrd34",528,"98.csv","","2632.1000022888184","resources/image_sets/111.png","13","",NA,NA,NA,NA,""
"image-keyboard-response",8,37839,"0.0-2.0-6.0","oz8pc8v9okbrd34",528,"98.csv","","3315.2999992370605","resources/images/coin2.png","13","",NA,NA,NA,NA,""
"image-keyboard-response",9,39716,"0.0-2.0-7.0","oz8pc8v9okbrd34",528,"98.csv","","1875.400001525879","resources/images/fishbone.png","13","",NA,NA,NA,NA,""
"html-keyboard-response",10,41941,"0.0-2.0-8.0","oz8pc8v9okbrd34",528,"98.csv","","2224","<p>Your first journey will be a long one, but you will get a well deserved break at the end</p><p>After the break you will have four more journeys, but each will be much shorter than the first, and you will have breaks in between each</p><p>Press Enter to begin</p>","13","",NA,NA,NA,NA,""
"image-keyboard-response",11,43676,"0.0-3.0-0.0","oz8pc8v9okbrd34",528,"98.csv","","1733.7999992370605","resources/trios/L4T2A3.jpg","39","restless",0.3,0.7,0.9,0.222429370321161,"true"
"image-keyboard-response",12,44091,"0.0-3.0-1.0","oz8pc8v9okbrd34",528,"98.csv","","null","resources/maskTrios/BBA3.jpg","null","",NA,NA,NA,NA,""
"image-keyboard-response",13,45310,"0.0-3.0-2.0","oz8pc8v9okbrd34",528,"98.csv","","null","resources/images/coin2.png","null","",NA,NA,NA,NA,""
"image-keyboard-response",14,48224,"0.0-3.1-0.1","oz8pc8v9okbrd34",528,"98.csv","","2911.2000007629395","resources/trios/L1T2A3.jpg","39","restless",0.3,0.7,0.9,0.554357129357799,"true"
"image-keyboard-response",15,48641,"0.0-3.1-1.1","oz8pc8v9okbrd34",528,"98.csv","","null","resources/maskTrios/BBA3.jpg","null","",NA,NA,NA,NA,""
"image-keyboard-response",16,49860,"0.0-3.1-2.1","oz8pc8v9okbrd34",528,"98.csv","","null","resources/images/coin2.png","null","",NA,NA,NA,NA,""
"image-keyboard-response",17,51470,"0.0-3.2-0.2","oz8pc8v9okbrd34",528,"98.csv","","1606.3999977111816","resources/trios/L4T2A3.jpg","37","restless",0.3,0.7,0.9,0.352073227429241,"false"
"image-keyboard-response",18,51881,"0.0-3.2-1.2","oz8pc8v9okbrd34",528,"98.csv","","null","resources/maskTrios/L4BB.jpg","null","",NA,NA,NA,NA,""
"image-keyboard-response",19,53091,"0.0-3.2-2.2","oz8pc8v9okbrd34",528,"98.csv","","null","resources/images/fishbone.png","null","",NA,NA,NA,NA,""
"image-keyboard-response",20,54481,"0.0-3.3-0.3","oz8pc8v9okbrd34",528,"98.csv","","1387.5","resources/trios/L1T1A3.jpg","39","restless",0.3,0.7,0.9,0.778004746640051,"true"
"image-keyboard-response",21,54900,"0.0-3.3-1.3","oz8pc8v9okbrd34",528,"98.csv","","null","resources/maskTrios/BBA3.jpg","null","",NA,NA,NA,NA,""
"image-keyboard-response",22,56120,"0.0-3.3-2.3","oz8pc8v9okbrd34",528,"98.csv","","null","resources/images/coin2.png","null","",NA,NA,NA,NA,""
"image-keyboard-response",23,57028,"0.0-3.4-0.4","oz8pc8v9okbrd34",528,"98.csv","","905.5","resources/trios/L4T2A1.jpg","39","restless",0.3,0.7,0.9,0.478310589550574,"true"
"image-keyboard-response",24,57440,"0.0-3.4-1.4","oz8pc8v9okbrd34",528,"98.csv","","null","resources/maskTrios/BBA1.jpg","null","",NA,NA,NA,NA,""
"image-keyboard-response",25,58660,"0.0-3.4-2.4","oz8pc8v9okbrd34",528,"98.csv","","null","resources/images/coin2.png","null","",NA,NA,NA,NA,""
"image-keyboard-response",26,59285,"0.0-3.5-0.5","oz8pc8v9okbrd34",528,"98.csv","","622.2999992370605","resources/trios/L4T2A3.jpg","39","restless",0.3,0.7,0.8,0.718012488791235,"true"
"image-keyboard-response",27,59690,"0.0-3.5-1.5","oz8pc8v9okbrd34",528,"98.csv","","null","resources/maskTrios/BBA3.jpg","null","",NA,NA,NA,NA,""
"image-keyboard-response",28,60900,"0.0-3.5-2.5","oz8pc8v9okbrd34",528,"98.csv","","null","resources/images/coin2.png","null","",NA,NA,NA,NA,""
"image-keyboard-response",29,62045,"0.0-3.6-0.6","oz8pc8v9okbrd34",528,"98.csv","","1143.2000007629395","resources/trios/L4T2A1.jpg","39","restless",0.3,0.7,0.8,0.349513805261335,"true"
"image-keyboard-response",30,62467,"0.0-3.6-1.6","oz8pc8v9okbrd34",528,"98.csv","","null","resources/maskTrios/BBA1.jpg","null","",NA,NA,NA,NA,""
"image-keyboard-response",31,63691,"0.0-3.6-2.6","oz8pc8v9okbrd34",528,"98.csv","","null","resources/images/coin2.png","null","",NA,NA,NA,NA,""
"image-keyboard-response",32,64495,"0.0-3.7-0.7","oz8pc8v9okbrd34",528,"98.csv","","802.5","resources/trios/L1T2A3.jpg","39","restless",0.3,0.7,0.8,0.549437021546034,"true"
"image-keyboard-response",33,64911,"0.0-3.7-1.7","oz8pc8v9okbrd34",528,"98.csv","","null","resources/maskTrios/BBA3.jpg","null","",NA,NA,NA,NA,""
"image-keyboard-response",34,66127,"0.0-3.7-2.7","oz8pc8v9okbrd34",528,"98.csv","","null","resources/images/coin2.png","null","",NA,NA,NA,NA,""
"image-keyboard-response",35,67099,"0.0-3.8-0.8","oz8pc8v9okbrd34",528,"98.csv","","969.7000007629395","resources/trios/L1T1A1.jpg","39","restless",0.3,0.7,0.8,0.0125411698129385,"true"
"image-keyboard-response",36,67520,"0.0-3.8-1.8","oz8pc8v9okbrd34",528,"98.csv","","null","resources/maskTrios/BBA1.jpg","null","",NA,NA,NA,NA,""
"image-keyboard-response",37,68741,"0.0-3.8-2.8","oz8pc8v9okbrd34",528,"98.csv","","null","resources/images/coin2.png","null","",NA,NA,NA,NA,""
"image-keyboard-response",38,69515,"0.0-3.9-0.9","oz8pc8v9okbrd34",528,"98.csv","","772.3999977111816","resources/trios/L4T1A3.jpg","39","restless",0.3,0.7,0.8,0.627437045894767,"true"
"image-keyboard-response",39,69920,"0.0-3.9-1.9","oz8pc8v9okbrd34",528,"98.csv","","null","resources/maskTrios/BBA3.jpg","null","",NA,NA,NA,NA,""
"image-keyboard-response",40,71125,"0.0-3.9-2.9","oz8pc8v9okbrd34",528,"98.csv","","null","resources/images/coin2.png","null","",NA,NA,NA,NA,""
"image-keyboard-response",41,71805,"0.0-3.10-0.10","oz8pc8v9okbrd34",528,"98.csv","","678.1000022888184","resources/trios/L1T1A3.jpg","39","restless",0.3,0.7,0.8,0.257545438921898,"true"
"image-keyboard-response",42,72221,"0.0-3.10-1.10","oz8pc8v9okbrd34",528,"98.csv","","null","resources/maskTrios/BBA3.jpg","null","",NA,NA,NA,NA,""
"image-keyboard-response",43,73440,"0.0-3.10-2.10","oz8pc8v9okbrd34",528,"98.csv","","null","resources/images/coin2.png","null","",NA,NA,NA,NA,""
"image-keyboard-response",44,74291,"0.0-3.11-0.11","oz8pc8v9okbrd34",528,"98.csv","","847.8999977111816","resources/trios/L4T2A1.jpg","39","restless",0.3,0.7,0.8,0.891080269730338,"false"
"image-keyboard-response",45,74711,"0.0-3.11-1.11","oz8pc8v9okbrd34",528,"98.csv","","null","resources/maskTrios/BBA1.jpg","null","",NA,NA,NA,NA,""
"image-keyboard-response",46,75931,"0.0-3.11-2.11","oz8pc8v9okbrd34",528,"98.csv","","null","resources/images/fishbone.png","null","",NA,NA,NA,NA,""
"image-keyboard-response",47,77017,"0.0-3.12-0.12","oz8pc8v9okbrd34",528,"98.csv","","1084","resources/trios/L4T2A1.jpg","38","restless",0.3,0.7,0.8,0.476542729617754,"true"
"image-keyboard-response",48,77421,"0.0-3.12-1.12","oz8pc8v9okbrd34",528,"98.csv","","null","resources/maskTrios/BT2B.jpg","null","",NA,NA,NA,NA,""
"image-keyboard-response",49,78626,"0.0-3.12-2.12","oz8pc8v9okbrd34",528,"98.csv","","null","resources/images/coin2.png","null","",NA,NA,NA,NA,""
"image-keyboard-response",50,79796,"0.0-3.13-0.13","oz8pc8v9okbrd34",528,"98.csv","","1167.7000007629395","resources/trios/L1T2A3.jpg","38","restless",0.2,0.8,0.8,0.264465360573743,"true"
"image-keyboard-response",51,80211,"0.0-3.13-1.13","oz8pc8v9okbrd34",528,"98.csv","","null","resources/maskTrios/BT2B.jpg","null","",NA,NA,NA,NA,""
"image-keyboard-response",52,81420,"0.0-3.13-2.13","oz8pc8v9okbrd34",528,"98.csv","","null","resources/images/coin2.png","null","",NA,NA,NA,NA,""
"image-keyboard-response",53,81926,"0.0-3.14-0.14","oz8pc8v9okbrd34",528,"98.csv","","503.29999923706055","resources/trios/L1T2A1.jpg","38","restless",0.2,0.8,0.8,0.422142744587078,"true"
"image-keyboard-response",54,82330,"0.0-3.14-1.14","oz8pc8v9okbrd34",528,"98.csv","","null","resources/maskTrios/BT2B.jpg","null","",NA,NA,NA,NA,""
"image-keyboard-response",55,83540,"0.0-3.14-2.14","oz8pc8v9okbrd34",528,"98.csv","","null","resources/images/coin2.png","null","",NA,NA,NA,NA,""
"image-keyboard-response",56,84719,"0.0-3.15-0.15","oz8pc8v9okbrd34",528,"98.csv","","1174.7999992370605","resources/trios/L4T1A1.jpg","38","restless",0.2,0.8,0.8,0.50814021613845,"true"
"image-keyboard-response",57,85137,"0.0-3.15-1.15","oz8pc8v9okbrd34",528,"98.csv","","null","resources/maskTrios/BT1B.jpg","null","",NA,NA,NA,NA,""
"image-keyboard-response",58,86340,"0.0-3.15-2.15","oz8pc8v9okbrd34",528,"98.csv","","null","resources/images/coin2.png","null","",NA,NA,NA,NA,""
"image-keyboard-response",59,86682,"0.0-3.16-0.16","oz8pc8v9okbrd34",528,"98.csv","","339.5999984741211","resources/trios/L4T1A3.jpg","38","restless",0.2,0.8,0.8,0.063698329645101,"true"
"image-keyboard-response",60,87101,"0.0-3.16-1.16","oz8pc8v9okbrd34",528,"98.csv","","null","resources/maskTrios/BT1B.jpg","null","",NA,NA,NA,NA,""
"image-keyboard-response",61,88312,"0.0-3.16-2.16","oz8pc8v9okbrd34",528,"98.csv","","null","resources/images/coin2.png","null","",NA,NA,NA,NA,""
"image-keyboard-response",62,88585,"0.0-3.17-0.17","oz8pc8v9okbrd34",528,"98.csv","","271.29999923706055","resources/trios/L4T2A3.jpg","38","restless",0.2,0.8,0.8,0.324562649885874,"true"
"image-keyboard-response",63,89000,"0.0-3.17-1.17","oz8pc8v9okbrd34",528,"98.csv","","null","resources/maskTrios/BT2B.jpg","null","",NA,NA,NA,NA,""
"image-keyboard-response",64,90220,"0.0-3.17-2.17","oz8pc8v9okbrd34",528,"98.csv","","null","resources/images/coin2.png","null","",NA,NA,NA,NA,""
"image-keyboard-response",65,90490,"0.0-3.18-0.18","oz8pc8v9okbrd34",528,"98.csv","","266.70000076293945","resources/trios/L4T1A3.jpg","38","restless",0.2,0.8,0.8,0.165501435890479,"true"
"image-keyboard-response",66,90911,"0.0-3.18-1.18","oz8pc8v9okbrd34",528,"98.csv","","null","resources/maskTrios/BT1B.jpg","null","",NA,NA,NA,NA,""
"image-keyboard-response",67,92120,"0.0-3.18-2.18","oz8pc8v9okbrd34",528,"98.csv","","null","resources/images/coin2.png","null","",NA,NA,NA,NA,""
"image-keyboard-response",68,92420,"0.0-3.19-0.19","oz8pc8v9okbrd34",528,"98.csv","","297.60000228881836","resources/trios/L4T1A1.jpg","38","restless",0.2,0.9,0.8,0.912800569973308,"false"
"image-keyboard-response",69,92830,"0.0-3.19-1.19","oz8pc8v9okbrd34",528,"98.csv","","null","resources/maskTrios/BT1B.jpg","null","",NA,NA,NA,NA,""
"image-keyboard-response",70,94046,"0.0-3.19-2.19","oz8pc8v9okbrd34",528,"98.csv","","null","resources/images/fishbone.png","null","",NA,NA,NA,NA,""
"image-keyboard-response",71,94360,"0.0-3.20-0.20","oz8pc8v9okbrd34",528,"98.csv","","306.89999771118164","resources/trios/L1T2A3.jpg","37","restless",0.2,0.9,0.8,0.0910343505629967,"true"
"image-keyboard-response",72,94770,"0.0-3.20-1.20","oz8pc8v9okbrd34",528,"98.csv","","null","resources/maskTrios/L1BB.jpg","null","",NA,NA,NA,NA,""
"image-keyboard-response",73,95980,"0.0-3.20-2.20","oz8pc8v9okbrd34",528,"98.csv","","null","resources/images/coin2.png","null","",NA,NA,NA,NA,""
"image-keyboard-response",74,96257,"0.0-3.21-0.21","oz8pc8v9okbrd34",528,"98.csv","","273.60000228881836","resources/trios/L4T1A3.jpg","37","restless",0.2,0.9,0.8,0.756102333871814,"false"
"image-keyboard-response",75,96670,"0.0-3.21-1.21","oz8pc8v9okbrd34",528,"98.csv","","null","resources/maskTrios/L4BB.jpg","null","",NA,NA,NA,NA,""
"image-keyboard-response",76,97874,"0.0-3.21-2.21","oz8pc8v9okbrd34",528,"98.csv","","null","resources/images/fishbone.png","null","",NA,NA,NA,NA,""
"image-keyboard-response",77,98136,"0.0-3.22-0.22","oz8pc8v9okbrd34",528,"98.csv","","259.79999923706055","resources/trios/L1T1A3.jpg","38","restless",0.2,0.9,0.8,0.166346042650416,"true"
"image-keyboard-response",78,98543,"0.0-3.22-1.22","oz8pc8v9okbrd34",528,"98.csv","","null","resources/maskTrios/BT1B.jpg","null","",NA,NA,NA,NA,""
"image-keyboard-response",79,99759,"0.0-3.22-2.22","oz8pc8v9okbrd34",528,"98.csv","","null","resources/images/coin2.png","null","",NA,NA,NA,NA,""
"image-keyboard-response",80,100148,"0.0-3.23-0.23","oz8pc8v9okbrd34",528,"98.csv","","386.5","resources/trios/L1T2A1.jpg","38","restless",0.3,0.9,0.8,0.705630270881278,"true"
"image-keyboard-response",81,100551,"0.0-3.23-1.23","oz8pc8v9okbrd34",528,"98.csv","","null","resources/maskTrios/BT2B.jpg","null","",NA,NA,NA,NA,""
"image-keyboard-response",82,101767,"0.0-3.23-2.23","oz8pc8v9okbrd34",528,"98.csv","","null","resources/images/coin2.png","null","",NA,NA,NA,NA,""
"image-keyboard-response",83,102041,"0.0-3.24-0.24","oz8pc8v9okbrd34",528,"98.csv","","271.0999984741211","resources/trios/L4T2A3.jpg","38","restless",0.3,0.9,0.7,0.370788147323532,"true"
"image-keyboard-response",84,102455,"0.0-3.24-1.24","oz8pc8v9okbrd34",528,"98.csv","","null","resources/maskTrios/BT2B.jpg","null","",NA,NA,NA,NA,""
"image-keyboard-response",85,103660,"0.0-3.24-2.24","oz8pc8v9okbrd34",528,"98.csv","","null","resources/images/coin2.png","null","",NA,NA,NA,NA,""
"image-keyboard-response",86,103966,"0.0-3.25-0.25","oz8pc8v9okbrd34",528,"98.csv","","302.5","resources/trios/L1T1A3.jpg","38","restless",0.3,0.9,0.6,0.242855337721621,"true"
"image-keyboard-response",87,104375,"0.0-3.25-1.25","oz8pc8v9okbrd34",528,"98.csv","","null","resources/maskTrios/BT1B.jpg","null","",NA,NA,NA,NA,""
"image-keyboard-response",88,105580,"0.0-3.25-2.25","oz8pc8v9okbrd34",528,"98.csv","","null","resources/images/coin2.png","null","",NA,NA,NA,NA,""
"image-keyboard-response",89,105820,"0.0-3.26-0.26","oz8pc8v9okbrd34",528,"98.csv","","237.5","resources/trios/L4T2A3.jpg","38","restless",0.3,0.9,0.6,0.19612307325066,"true"
"image-keyboard-response",90,106231,"0.0-3.26-1.26","oz8pc8v9okbrd34",528,"98.csv","","null","resources/maskTrios/BT2B.jpg","null","",NA,NA,NA,NA,""
"image-keyboard-response",91,107442,"0.0-3.26-2.26","oz8pc8v9okbrd34",528,"98.csv","","null","resources/images/coin2.png","null","",NA,NA,NA,NA,""
"image-keyboard-response",92,107685,"0.0-3.27-0.27","oz8pc8v9okbrd34",528,"98.csv","","240.8000030517578","resources/trios/L4T1A3.jpg","38","restless",0.3,0.9,0.6,0.889859809530896,"true"
"image-keyboard-response",93,108095,"0.0-3.27-1.27","oz8pc8v9okbrd34",528,"98.csv","","null","resources/maskTrios/BT1B.jpg","null","",NA,NA,NA,NA,""
"image-keyboard-response",94,109300,"0.0-3.27-2.27","oz8pc8v9okbrd34",528,"98.csv","","null","resources/images/coin2.png","null","",NA,NA,NA,NA,""
"image-keyboard-response",95,109563,"0.0-3.28-0.28","oz8pc8v9okbrd34",528,"98.csv","","260.29999923706055","resources/trios/L4T1A1.jpg","38","restless",0.3,0.9,0.5,0.99344634218746,"false"
"image-keyboard-response",96,109980,"0.0-3.28-1.28","oz8pc8v9okbrd34",528,"98.csv","","null","resources/maskTrios/BT1B.jpg","null","",NA,NA,NA,NA,""
"image-keyboard-response",97,111200,"0.0-3.28-2.28","oz8pc8v9okbrd34",528,"98.csv","","null","resources/images/fishbone.png","null","",NA,NA,NA,NA,""
"image-keyboard-response",98,111452,"0.0-3.29-0.29","oz8pc8v9okbrd34",528,"98.csv","","246.60000228881836","resources/trios/L1T1A3.jpg","39","restless",0.3,0.9,0.5,0.253307694107429,"true"
"image-keyboard-response",99,111858,"0.0-3.29-1.29","oz8pc8v9okbrd34",528,"98.csv","","null","resources/maskTrios/BBA3.jpg","null","",NA,NA,NA,NA,""
"image-keyboard-response",100,113065,"0.0-3.29-2.29","oz8pc8v9okbrd34",528,"98.csv","","null","resources/images/coin2.png","null","",NA,NA,NA,NA,""
"image-keyboard-response",101,113359,"0.0-3.30-0.30","oz8pc8v9okbrd34",528,"98.csv","","291.1999969482422","resources/trios/L4T1A3.jpg","39","restless",0.3,0.9,0.5,0.0817344786109344,"true"
"image-keyboard-response",102,113777,"0.0-3.30-1.30","oz8pc8v9okbrd34",528,"98.csv","","null","resources/maskTrios/BBA3.jpg","null","",NA,NA,NA,NA,""
"image-keyboard-response",103,114991,"0.0-3.30-2.30","oz8pc8v9okbrd34",528,"98.csv","","null","resources/images/coin2.png","null","",NA,NA,NA,NA,""
"image-keyboard-response",104,115293,"0.0-3.31-0.31","oz8pc8v9okbrd34",528,"98.csv","","296.5999984741211","resources/trios/L1T2A3.jpg","39","restless",0.3,0.9,0.5,0.660540906706462,"false"
"image-keyboard-response",105,115711,"0.0-3.31-1.31","oz8pc8v9okbrd34",528,"98.csv","","null","resources/maskTrios/BBA3.jpg","null","",NA,NA,NA,NA,""
"image-keyboard-response",106,116926,"0.0-3.31-2.31","oz8pc8v9okbrd34",528,"98.csv","","null","resources/images/fishbone.png","null","",NA,NA,NA,NA,""
"image-keyboard-response",107,117181,"0.0-3.32-0.32","oz8pc8v9okbrd34",528,"98.csv","","252.5999984741211","resources/trios/L4T2A1.jpg","39","restless",0.3,0.9,0.5,0.561702918375074,"false"
"image-keyboard-response",108,117590,"0.0-3.32-1.32","oz8pc8v9okbrd34",528,"98.csv","","null","resources/maskTrios/BBA1.jpg","null","",NA,NA,NA,NA,""
"image-keyboard-response",109,118810,"0.0-3.32-2.32","oz8pc8v9okbrd34",528,"98.csv","","null","resources/images/fishbone.png","null","",NA,NA,NA,NA,""
"image-keyboard-response",110,119212,"0.0-3.33-0.33","oz8pc8v9okbrd34",528,"98.csv","","397.9000015258789","resources/trios/L4T1A3.jpg","38","restless",0.3,0.9,0.5,0.0903197948209202,"true"
"image-keyboard-response",111,119625,"0.0-3.33-1.33","oz8pc8v9okbrd34",528,"98.csv","","null","resources/maskTrios/BT1B.jpg","null","",NA,NA,NA,NA,""
"image-keyboard-response",112,120841,"0.0-3.33-2.33","oz8pc8v9okbrd34",528,"98.csv","","null","resources/images/coin2.png","null","",NA,NA,NA,NA,""
"image-keyboard-response",113,121112,"0.0-3.34-0.34","oz8pc8v9okbrd34",528,"98.csv","","269.29999923706055","resources/trios/L1T1A1.jpg","38","restless",0.3,0.9,0.5,0.108825134396658,"true"
"image-keyboard-response",114,121516,"0.0-3.34-1.34","oz8pc8v9okbrd34",528,"98.csv","","null","resources/maskTrios/BT1B.jpg","null","",NA,NA,NA,NA,""
"image-keyboard-response",115,122726,"0.0-3.34-2.34","oz8pc8v9okbrd34",528,"98.csv","","null","resources/images/coin2.png","null","",NA,NA,NA,NA,""
"image-keyboard-response",116,122982,"0.0-3.35-0.35","oz8pc8v9okbrd34",528,"98.csv","","253.79999923706055","resources/trios/L4T1A3.jpg","38","restless",0.2,0.9,0.5,0.705732392272361,"true"
"image-keyboard-response",117,123400,"0.0-3.35-1.35","oz8pc8v9okbrd34",528,"98.csv","","null","resources/maskTrios/BT1B.jpg","null","",NA,NA,NA,NA,""
"image-keyboard-response",118,124621,"0.0-3.35-2.35","oz8pc8v9okbrd34",528,"98.csv","","null","resources/images/coin2.png","null","",NA,NA,NA,NA,""
"image-keyboard-response",119,124845,"0.0-3.36-0.36","oz8pc8v9okbrd34",528,"98.csv","","223.3000030517578","resources/trios/L1T2A1.jpg","38","restless",0.2,0.9,0.5,0.198506555949231,"true"
"image-keyboard-response",120,125261,"0.0-3.36-1.36","oz8pc8v9okbrd34",528,"98.csv","","null","resources/maskTrios/BT2B.jpg","null","",NA,NA,NA,NA,""
"image-keyboard-response",121,126481,"0.0-3.36-2.36","oz8pc8v9okbrd34",528,"98.csv","","null","resources/images/coin2.png","null","",NA,NA,NA,NA,""
"image-keyboard-response",122,126516,"0.0-3.37-0.37","oz8pc8v9okbrd34",528,"98.csv","","32.20000076293945","resources/trios/L1T1A3.jpg","38","restless",0.3,0.9,0.5,0.120313105534913,"true"
"image-keyboard-response",123,126931,"0.0-3.37-1.37","oz8pc8v9okbrd34",528,"98.csv","","null","resources/maskTrios/BT1B.jpg","null","",NA,NA,NA,NA,""
"image-keyboard-response",124,128151,"0.0-3.37-2.37","oz8pc8v9okbrd34",528,"98.csv","","null","resources/images/coin2.png","null","",NA,NA,NA,NA,""
"image-keyboard-response",125,128412,"0.0-3.38-0.38","oz8pc8v9okbrd34",528,"98.csv","","258.79999923706055","resources/trios/L4T2A1.jpg","38","restless",0.3,0.9,0.5,0.745886814936308,"true"
"image-keyboard-response",126,128820,"0.0-3.38-1.38","oz8pc8v9okbrd34",528,"98.csv","","null","resources/maskTrios/BT2B.jpg","null","",NA,NA,NA,NA,""
"image-keyboard-response",127,130025,"0.0-3.38-2.38","oz8pc8v9okbrd34",528,"98.csv","","null","resources/images/coin2.png","null","",NA,NA,NA,NA,""
"image-keyboard-response",128,130372,"0.0-3.39-0.39","oz8pc8v9okbrd34",528,"98.csv","","344","resources/trios/L4T1A3.jpg","38","restless",0.3,0.9,0.5,0.0188862558283194,"true"
"image-keyboard-response",129,130781,"0.0-3.39-1.39","oz8pc8v9okbrd34",528,"98.csv","","null","resources/maskTrios/BT1B.jpg","null","",NA,NA,NA,NA,""
"image-keyboard-response",130,131991,"0.0-3.39-2.39","oz8pc8v9okbrd34",528,"98.csv","","null","resources/images/coin2.png","null","",NA,NA,NA,NA,""
"image-keyboard-response",131,132352,"0.0-3.40-0.40","oz8pc8v9okbrd34",528,"98.csv","","359","resources/trios/L1T1A3.jpg","38","restless",0.3,0.9,0.6,0.114517009263022,"true"
"image-keyboard-response",132,132770,"0.0-3.40-1.40","oz8pc8v9okbrd34",528,"98.csv","","null","resources/maskTrios/BT1B.jpg","null","",NA,NA,NA,NA,""
"image-keyboard-response",133,133976,"0.0-3.40-2.40","oz8pc8v9okbrd34",528,"98.csv","","null","resources/images/coin2.png","null","",NA,NA,NA,NA,""
"image-keyboard-response",134,134241,"0.0-3.41-0.41","oz8pc8v9okbrd34",528,"98.csv","","259.70000076293945","resources/trios/L4T2A3.jpg","38","restless",0.3,0.9,0.6,0.842985786947367,"true"
"image-keyboard-response",135,134651,"0.0-3.41-1.41","oz8pc8v9okbrd34",528,"98.csv","","null","resources/maskTrios/BT2B.jpg","null","",NA,NA,NA,NA,""
"image-keyboard-response",136,135862,"0.0-3.41-2.41","oz8pc8v9okbrd34",528,"98.csv","","null","resources/images/coin2.png","null","",NA,NA,NA,NA,""
"image-keyboard-response",137,136157,"0.0-3.42-0.42","oz8pc8v9okbrd34",528,"98.csv","","293.5999984741211","resources/trios/L1T1A1.jpg","38","restless",0.3,0.9,0.6,0.676637295958131,"true"
"image-keyboard-response",138,136571,"0.0-3.42-1.42","oz8pc8v9okbrd34",528,"98.csv","","null","resources/maskTrios/BT1B.jpg","null","",NA,NA,NA,NA,""
"image-keyboard-response",139,137787,"0.0-3.42-2.42","oz8pc8v9okbrd34",528,"98.csv","","null","resources/images/coin2.png","null","",NA,NA,NA,NA,""
"image-keyboard-response",140,138103,"0.0-3.43-0.43","oz8pc8v9okbrd34",528,"98.csv","","313.1999969482422","resources/trios/L1T2A3.jpg","38","restless",0.3,0.9,0.6,0.519123215502843,"true"
"image-keyboard-response",141,138520,"0.0-3.43-1.43","oz8pc8v9okbrd34",528,"98.csv","","null","resources/maskTrios/BT2B.jpg","null","",NA,NA,NA,NA,""
"image-keyboard-response",142,139730,"0.0-3.43-2.43","oz8pc8v9okbrd34",528,"98.csv","","null","resources/images/coin2.png","null","",NA,NA,NA,NA,""
"image-keyboard-response",143,139768,"0.0-3.44-0.44","oz8pc8v9okbrd34",528,"98.csv","","36","resources/trios/L4T2A3.jpg","38","restless",0.3,0.9,0.6,0.183927196487721,"true"
"image-keyboard-response",144,140180,"0.0-3.44-1.44","oz8pc8v9okbrd34",528,"98.csv","","null","resources/maskTrios/BT2B.jpg","null","",NA,NA,NA,NA,""
"image-keyboard-response",145,141386,"0.0-3.44-2.44","oz8pc8v9okbrd34",528,"98.csv","","null","resources/images/coin2.png","null","",NA,NA,NA,NA,""
"image-keyboard-response",146,141389,"0.0-3.45-0.45","oz8pc8v9okbrd34",528,"98.csv","","0.20000076293945312","resources/trios/L4T1A1.jpg","38","restless",0.3,0.9,0.6,0.0571021806308327,"true"
"image-keyboard-response",147,141796,"0.0-3.45-1.45","oz8pc8v9okbrd34",528,"98.csv","","null","resources/maskTrios/BT1B.jpg","null","",NA,NA,NA,NA,""
"image-keyboard-response",148,143000,"0.0-3.45-2.45","oz8pc8v9okbrd34",528,"98.csv","","null","resources/images/coin2.png","null","",NA,NA,NA,NA,""
"image-keyboard-response",149,143545,"0.0-3.46-0.46","oz8pc8v9okbrd34",528,"98.csv","","542.7000007629395","resources/trios/L4T1A3.jpg","38","restless",0.3,0.9,0.6,0.323408785999863,"true"
"image-keyboard-response",150,143950,"0.0-3.46-1.46","oz8pc8v9okbrd34",528,"98.csv","","null","resources/maskTrios/BT1B.jpg","null","",NA,NA,NA,NA,""
"image-keyboard-response",151,145161,"0.0-3.46-2.46","oz8pc8v9okbrd34",528,"98.csv","","null","resources/images/coin2.png","null","",NA,NA,NA,NA,""
"image-keyboard-response",152,147250,"0.0-3.47-0.47","oz8pc8v9okbrd34",528,"98.csv","","2085.400001525879","resources/trios/L4T1A1.jpg","38","restless",0.3,0.9,0.6,0.945396225854193,"false"
"image-keyboard-response",153,147670,"0.0-3.47-1.47","oz8pc8v9okbrd34",528,"98.csv","","null","resources/maskTrios/BT1B.jpg","null","",NA,NA,NA,NA,""
"image-keyboard-response",154,148875,"0.0-3.47-2.47","oz8pc8v9okbrd34",528,"98.csv","","null","resources/images/fishbone.png","null","",NA,NA,NA,NA,""
"image-keyboard-response",155,149163,"0.0-3.48-0.48","oz8pc8v9okbrd34",528,"98.csv","","286.3000030517578","resources/trios/L4T1A3.jpg","39","restless",0.3,0.9,0.6,0.700755899692668,"false"
"image-keyboard-response",156,149576,"0.0-3.48-1.48","oz8pc8v9okbrd34",528,"98.csv","","null","resources/maskTrios/BBA3.jpg","null","",NA,NA,NA,NA,""
"image-keyboard-response",157,150790,"0.0-3.48-2.48","oz8pc8v9okbrd34",528,"98.csv","","null","resources/images/fishbone.png","null","",NA,NA,NA,NA,""
"image-keyboard-response",158,151104,"0.0-3.49-0.49","oz8pc8v9okbrd34",528,"98.csv","","308.9000015258789","resources/trios/L4T2A3.jpg","37","restless",0.3,0.8,0.6,0.622097573929434,"false"
"image-keyboard-response",159,151521,"0.0-3.49-1.49","oz8pc8v9okbrd34",528,"98.csv","","null","resources/maskTrios/L4BB.jpg","null","",NA,NA,NA,NA,""
"image-keyboard-response",160,152731,"0.0-3.49-2.49","oz8pc8v9okbrd34",528,"98.csv","","null","resources/images/fishbone.png","null","",NA,NA,NA,NA,""
"image-keyboard-response",161,152981,"0.0-3.50-0.50","oz8pc8v9okbrd34",528,"98.csv","","248.4000015258789","resources/trios/L4T2A3.jpg","38","restless",0.3,0.8,0.6,0.374273574031869,"true"
"image-keyboard-response",162,153391,"0.0-3.50-1.50","oz8pc8v9okbrd34",528,"98.csv","","null","resources/maskTrios/BT2B.jpg","null","",NA,NA,NA,NA,""
"image-keyboard-response",163,154611,"0.0-3.50-2.50","oz8pc8v9okbrd34",528,"98.csv","","null","resources/images/coin2.png","null","",NA,NA,NA,NA,""
"image-keyboard-response",164,155003,"0.0-3.51-0.51","oz8pc8v9okbrd34",528,"98.csv","","390","resources/trios/L4T1A3.jpg","38","restless",0.3,0.7,0.6,0.30755350305551,"true"
"image-keyboard-response",165,155425,"0.0-3.51-1.51","oz8pc8v9okbrd34",528,"98.csv","","null","resources/maskTrios/BT1B.jpg","null","",NA,NA,NA,NA,""
"image-keyboard-response",166,156640,"0.0-3.51-2.51","oz8pc8v9okbrd34",528,"98.csv","","null","resources/images/coin2.png","null","",NA,NA,NA,NA,""
"image-keyboard-response",167,156977,"0.0-3.52-0.52","oz8pc8v9okbrd34",528,"98.csv","","335.4000015258789","resources/trios/L1T1A3.jpg","38","restless",0.3,0.7,0.6,0.209424766546111,"true"
"image-keyboard-response",168,157391,"0.0-3.52-1.52","oz8pc8v9okbrd34",528,"98.csv","","null","resources/maskTrios/BT1B.jpg","null","",NA,NA,NA,NA,""
"image-keyboard-response",169,158611,"0.0-3.52-2.52","oz8pc8v9okbrd34",528,"98.csv","","null","resources/images/coin2.png","null","",NA,NA,NA,NA,""
"image-keyboard-response",170,158911,"0.0-3.53-0.53","oz8pc8v9okbrd34",528,"98.csv","","297.4000015258789","resources/trios/L4T1A3.jpg","38","restless",0.3,0.7,0.6,0.882002717780835,"false"
"image-keyboard-response",171,159330,"0.0-3.53-1.53","oz8pc8v9okbrd34",528,"98.csv","","null","resources/maskTrios/BT1B.jpg","null","",NA,NA,NA,NA,""
"image-keyboard-response",172,160540,"0.0-3.53-2.53","oz8pc8v9okbrd34",528,"98.csv","","null","resources/images/fishbone.png","null","",NA,NA,NA,NA,""
"image-keyboard-response",173,160709,"0.0-3.54-0.54","oz8pc8v9okbrd34",528,"98.csv","","165.70000076293945","resources/trios/L4T2A1.jpg","39","restless",0.3,0.7,0.6,0.535250644789099,"true"
"image-keyboard-response",174,161121,"0.0-3.54-1.54","oz8pc8v9okbrd34",528,"98.csv","","null","resources/maskTrios/BBA1.jpg","null","",NA,NA,NA,NA,""
"image-keyboard-response",175,162341,"0.0-3.54-2.54","oz8pc8v9okbrd34",528,"98.csv","","null","resources/images/coin2.png","null","",NA,NA,NA,NA,""
"image-keyboard-response",176,162693,"0.0-3.55-0.55","oz8pc8v9okbrd34",528,"98.csv","","349.5999984741211","resources/trios/L1T1A3.jpg","39","restless",0.3,0.7,0.6,0.498318153269218,"true"
"image-keyboard-response",177,163095,"0.0-3.55-1.55","oz8pc8v9okbrd34",528,"98.csv","","null","resources/maskTrios/BBA3.jpg","null","",NA,NA,NA,NA,""
"image-keyboard-response",178,164311,"0.0-3.55-2.55","oz8pc8v9okbrd34",528,"98.csv","","null","resources/images/coin2.png","null","",NA,NA,NA,NA,""
"image-keyboard-response",179,164550,"0.0-3.56-0.56","oz8pc8v9okbrd34",528,"98.csv","","236.89999771118164","resources/trios/L1T1A1.jpg","39","restless",0.3,0.7,0.6,0.255943337348941,"true"
"image-keyboard-response",180,164961,"0.0-3.56-1.56","oz8pc8v9okbrd34",528,"98.csv","","null","resources/maskTrios/BBA1.jpg","null","",NA,NA,NA,NA,""
"image-keyboard-response",181,166170,"0.0-3.56-2.56","oz8pc8v9okbrd34",528,"98.csv","","null","resources/images/coin2.png","null","",NA,NA,NA,NA,""
"image-keyboard-response",182,166428,"0.0-3.57-0.57","oz8pc8v9okbrd34",528,"98.csv","","256.70000076293945","resources/trios/L1T1A3.jpg","39","restless",0.3,0.7,0.6,0.982894772914009,"false"
"image-keyboard-response",183,166840,"0.0-3.57-1.57","oz8pc8v9okbrd34",528,"98.csv","","null","resources/maskTrios/BBA3.jpg","null","",NA,NA,NA,NA,""
"image-keyboard-response",184,168051,"0.0-3.57-2.57","oz8pc8v9okbrd34",528,"98.csv","","null","resources/images/fishbone.png","null","",NA,NA,NA,NA,""
"image-keyboard-response",185,168336,"0.0-3.58-0.58","oz8pc8v9okbrd34",528,"98.csv","","279.4000015258789","resources/trios/L1T1A3.jpg","37","restless",0.3,0.7,0.6,0.780488186720164,"false"
"image-keyboard-response",186,168741,"0.0-3.58-1.58","oz8pc8v9okbrd34",528,"98.csv","","null","resources/maskTrios/L1BB.jpg","null","",NA,NA,NA,NA,""
"image-keyboard-response",187,169959,"0.0-3.58-2.58","oz8pc8v9okbrd34",528,"98.csv","","null","resources/images/fishbone.png","null","",NA,NA,NA,NA,""
"image-keyboard-response",188,170235,"0.0-3.59-0.59","oz8pc8v9okbrd34",528,"98.csv","","273.1999969482422","resources/trios/L4T1A1.jpg","38","restless",0.3,0.7,0.6,0.523351985693466,"true"
"image-keyboard-response",189,170650,"0.0-3.59-1.59","oz8pc8v9okbrd34",528,"98.csv","","null","resources/maskTrios/BT1B.jpg","null","",NA,NA,NA,NA,""
"image-keyboard-response",190,171861,"0.0-3.59-2.59","oz8pc8v9okbrd34",528,"98.csv","","null","resources/images/coin2.png","null","",NA,NA,NA,NA,""
"image-keyboard-response",191,172306,"0.0-3.60-0.60","oz8pc8v9okbrd34",528,"98.csv","","442.8000030517578","resources/trios/L4T2A1.jpg","38","restless",0.3,0.7,0.5,0.277411991801328,"true"
"image-keyboard-response",192,172725,"0.0-3.60-1.60","oz8pc8v9okbrd34",528,"98.csv","","null","resources/maskTrios/BT2B.jpg","null","",NA,NA,NA,NA,""
"image-keyboard-response",193,173940,"0.0-3.60-2.60","oz8pc8v9okbrd34",528,"98.csv","","null","resources/images/coin2.png","null","",NA,NA,NA,NA,""
"image-keyboard-response",194,174292,"0.0-3.61-0.61","oz8pc8v9okbrd34",528,"98.csv","","348.0999984741211","resources/trios/L1T2A1.jpg","38","restless",0.3,0.6,0.6,0.762043792302407,"false"
"image-keyboard-response",195,174696,"0.0-3.61-1.61","oz8pc8v9okbrd34",528,"98.csv","","null","resources/maskTrios/BT2B.jpg","null","",NA,NA,NA,NA,""
"image-keyboard-response",196,175901,"0.0-3.61-2.61","oz8pc8v9okbrd34",528,"98.csv","","null","resources/images/fishbone.png","null","",NA,NA,NA,NA,""
"image-keyboard-response",197,176163,"0.0-3.62-0.62","oz8pc8v9okbrd34",528,"98.csv","","258.79999923706055","resources/trios/L1T2A3.jpg","37","restless",0.3,0.6,0.6,0.856092586978654,"false"
"image-keyboard-response",198,176570,"0.0-3.62-1.62","oz8pc8v9okbrd34",528,"98.csv","","null","resources/maskTrios/L1BB.jpg","null","",NA,NA,NA,NA,""
"image-keyboard-response",199,177781,"0.0-3.62-2.62","oz8pc8v9okbrd34",528,"98.csv","","null","resources/images/fishbone.png","null","",NA,NA,NA,NA,""
"image-keyboard-response",200,177848,"0.0-3.63-0.63","oz8pc8v9okbrd34",528,"98.csv","","65","resources/trios/L1T2A3.jpg","39","restless",0.2,0.6,0.6,0.33588690523412,"true"
"image-keyboard-response",201,178256,"0.0-3.63-1.63","oz8pc8v9okbrd34",528,"98.csv","","null","resources/maskTrios/BBA3.jpg","null","",NA,NA,NA,NA,""
"image-keyboard-response",202,179463,"0.0-3.63-2.63","oz8pc8v9okbrd34",528,"98.csv","","null","resources/images/coin2.png","null","",NA,NA,NA,NA,""
"image-keyboard-response",203,179627,"0.0-3.64-0.64","oz8pc8v9okbrd34",528,"98.csv","","161.89999771118164","resources/trios/L4T2A1.jpg","39","restless",0.2,0.6,0.7,0.933505298822708,"false"
"image-keyboard-response",204,180041,"0.0-3.64-1.64","oz8pc8v9okbrd34",528,"98.csv","","null","resources/maskTrios/BBA1.jpg","null","",NA,NA,NA,NA,""
"image-keyboard-response",205,181250,"0.0-3.64-2.64","oz8pc8v9okbrd34",528,"98.csv","","null","resources/images/fishbone.png","null","",NA,NA,NA,NA,""
"image-keyboard-response",206,181836,"0.0-3.65-0.65","oz8pc8v9okbrd34",528,"98.csv","","583","resources/trios/L1T2A1.jpg","38","restless",0.2,0.6,0.7,0.093938571046563,"true"
"image-keyboard-response",207,182240,"0.0-3.65-1.65","oz8pc8v9okbrd34",528,"98.csv","","null","resources/maskTrios/BT2B.jpg","null","",NA,NA,NA,NA,""
"image-keyboard-response",208,183460,"0.0-3.65-2.65","oz8pc8v9okbrd34",528,"98.csv","","null","resources/images/coin2.png","null","",NA,NA,NA,NA,""
"image-keyboard-response",209,183783,"0.0-3.66-0.66","oz8pc8v9okbrd34",528,"98.csv","","320.1999969482422","resources/trios/L4T2A1.jpg","37","restless",0.2,0.6,0.7,0.632181297455794,"false"
"image-keyboard-response",210,184189,"0.0-3.66-1.66","oz8pc8v9okbrd34",528,"98.csv","","null","resources/maskTrios/L4BB.jpg","null","",NA,NA,NA,NA,""
"image-keyboard-response",211,185400,"0.0-3.66-2.66","oz8pc8v9okbrd34",528,"98.csv","","null","resources/images/fishbone.png","null","",NA,NA,NA,NA,""
"image-keyboard-response",212,185675,"0.0-3.67-0.67","oz8pc8v9okbrd34",528,"98.csv","","269.89999771118164","resources/trios/L4T2A1.jpg","37","restless",0.2,0.6,0.7,0.512423350367621,"false"
"image-keyboard-response",213,186088,"0.0-3.67-1.67","oz8pc8v9okbrd34",528,"98.csv","","null","resources/maskTrios/L4BB.jpg","null","",NA,NA,NA,NA,""
"image-keyboard-response",214,187300,"0.0-3.67-2.67","oz8pc8v9okbrd34",528,"98.csv","","null","resources/images/fishbone.png","null","",NA,NA,NA,NA,""
"image-keyboard-response",215,187566,"0.0-3.68-0.68","oz8pc8v9okbrd34",528,"98.csv","","262.60000228881836","resources/trios/L4T1A1.jpg","37","restless",0.2,0.6,0.7,0.0859935857654288,"true"
"image-keyboard-response",216,187980,"0.0-3.68-1.68","oz8pc8v9okbrd34",528,"98.csv","","null","resources/maskTrios/L4BB.jpg","null","",NA,NA,NA,NA,""
"image-keyboard-response",217,189190,"0.0-3.68-2.68","oz8pc8v9okbrd34",528,"98.csv","","null","resources/images/coin2.png","null","",NA,NA,NA,NA,""
"image-keyboard-response",218,189548,"0.0-3.69-0.69","oz8pc8v9okbrd34",528,"98.csv","","355","resources/trios/L1T2A1.jpg","38","restless",0.2,0.6,0.7,0.73577208733732,"false"
"image-keyboard-response",219,189950,"0.0-3.69-1.69","oz8pc8v9okbrd34",528,"98.csv","","null","resources/maskTrios/BT2B.jpg","null","",NA,NA,NA,NA,""
"image-keyboard-response",220,191170,"0.0-3.69-2.69","oz8pc8v9okbrd34",528,"98.csv","","null","resources/images/fishbone.png","null","",NA,NA,NA,NA,""
"image-keyboard-response",221,191379,"0.0-3.70-0.70","oz8pc8v9okbrd34",528,"98.csv","","206.5999984741211","resources/trios/L4T1A3.jpg","39","restless",0.3,0.6,0.7,0.8062617453157,"false"
"image-keyboard-response",222,191796,"0.0-3.70-1.70","oz8pc8v9okbrd34",528,"98.csv","","null","resources/maskTrios/BBA3.jpg","null","",NA,NA,NA,NA,""
"image-keyboard-response",223,193007,"0.0-3.70-2.70","oz8pc8v9okbrd34",528,"98.csv","","null","resources/images/fishbone.png","null","",NA,NA,NA,NA,""
"image-keyboard-response",224,194003,"0.0-3.71-0.71","oz8pc8v9okbrd34",528,"98.csv","","994.2000007629395","resources/trios/L4T1A3.jpg","37","restless",0.3,0.5,0.7,0.0321601671061602,"true"
"image-keyboard-response",225,194410,"0.0-3.71-1.71","oz8pc8v9okbrd34",528,"98.csv","","null","resources/maskTrios/L4BB.jpg","null","",NA,NA,NA,NA,""
"image-keyboard-response",226,195620,"0.0-3.71-2.71","oz8pc8v9okbrd34",528,"98.csv","","null","resources/images/coin2.png","null","",NA,NA,NA,NA,""
"image-keyboard-response",227,196118,"0.0-3.72-0.72","oz8pc8v9okbrd34",528,"98.csv","","495.70000076293945","resources/trios/L4T2A1.jpg","37","restless",0.4,0.5,0.7,0.0973790476385676,"true"
"image-keyboard-response",228,196541,"0.0-3.72-1.72","oz8pc8v9okbrd34",528,"98.csv","","null","resources/maskTrios/L4BB.jpg","null","",NA,NA,NA,NA,""
"image-keyboard-response",229,197750,"0.0-3.72-2.72","oz8pc8v9okbrd34",528,"98.csv","","null","resources/images/coin2.png","null","",NA,NA,NA,NA,""
"image-keyboard-response",230,201243,"0.0-3.73-0.73","oz8pc8v9okbrd34",528,"98.csv","","3490.099998474121","resources/trios/L1T1A3.jpg","37","restless",0.4,0.5,0.7,0.705508815904109,"false"
"image-keyboard-response",231,201648,"0.0-3.73-1.73","oz8pc8v9okbrd34",528,"98.csv","","null","resources/maskTrios/L1BB.jpg","null","",NA,NA,NA,NA,""
"image-keyboard-response",232,202860,"0.0-3.73-2.73","oz8pc8v9okbrd34",528,"98.csv","","null","resources/images/fishbone.png","null","",NA,NA,NA,NA,""
"image-keyboard-response",233,203228,"0.0-3.74-0.74","oz8pc8v9okbrd34",528,"98.csv","","366.6999969482422","resources/trios/L1T1A3.jpg","39","restless",0.4,0.5,0.6,0.0391160104853594,"true"
"image-keyboard-response",234,203635,"0.0-3.74-1.74","oz8pc8v9okbrd34",528,"98.csv","","null","resources/maskTrios/BBA3.jpg","null","",NA,NA,NA,NA,""
"image-keyboard-response",235,204840,"0.0-3.74-2.74","oz8pc8v9okbrd34",528,"98.csv","","null","resources/images/coin2.png","null","",NA,NA,NA,NA,""
"image-keyboard-response",236,205286,"0.0-3.75-0.75","oz8pc8v9okbrd34",528,"98.csv","","443.79999923706055","resources/trios/L4T1A3.jpg","39","restless",0.4,0.5,0.5,0.720826564714401,"false"
"image-keyboard-response",237,205705,"0.0-3.75-1.75","oz8pc8v9okbrd34",528,"98.csv","","null","resources/maskTrios/BBA3.jpg","null","",NA,NA,NA,NA,""
"image-keyboard-response",238,206916,"0.0-3.75-2.75","oz8pc8v9okbrd34",528,"98.csv","","null","resources/images/fishbone.png","null","",NA,NA,NA,NA,""
"image-keyboard-response",239,207068,"0.0-3.76-0.76","oz8pc8v9okbrd34",528,"98.csv","","149.39999771118164","resources/trios/L4T2A3.jpg","38","restless",0.5,0.5,0.5,0.949085454899721,"false"
"image-keyboard-response",240,207470,"0.0-3.76-1.76","oz8pc8v9okbrd34",528,"98.csv","","null","resources/maskTrios/BT2B.jpg","null","",NA,NA,NA,NA,""
"image-keyboard-response",241,208680,"0.0-3.76-2.76","oz8pc8v9okbrd34",528,"98.csv","","null","resources/images/fishbone.png","null","",NA,NA,NA,NA,""
"image-keyboard-response",242,209286,"0.0-3.77-0.77","oz8pc8v9okbrd34",528,"98.csv","","603.2999992370605","resources/trios/L1T2A3.jpg","37","restless",0.5,0.5,0.5,0.415548865016271,"true"
"image-keyboard-response",243,209700,"0.0-3.77-1.77","oz8pc8v9okbrd34",528,"98.csv","","null","resources/maskTrios/L1BB.jpg","null","",NA,NA,NA,NA,""
"image-keyboard-response",244,210910,"0.0-3.77-2.77","oz8pc8v9okbrd34",528,"98.csv","","null","resources/images/coin2.png","null","",NA,NA,NA,NA,""
"image-keyboard-response",245,211290,"0.0-3.78-0.78","oz8pc8v9okbrd34",528,"98.csv","","376.89999771118164","resources/trios/L1T1A3.jpg","37","restless",0.5,0.5,0.5,0.0248826991425286,"true"
"image-keyboard-response",246,211701,"0.0-3.78-1.78","oz8pc8v9okbrd34",528,"98.csv","","null","resources/maskTrios/L1BB.jpg","null","",NA,NA,NA,NA,""
"image-keyboard-response",247,212910,"0.0-3.78-2.78","oz8pc8v9okbrd34",528,"98.csv","","null","resources/images/coin2.png","null","",NA,NA,NA,NA,""
"image-keyboard-response",248,213594,"0.0-3.79-0.79","oz8pc8v9okbrd34",528,"98.csv","","681","resources/trios/L1T2A1.jpg","37","restless",0.5,0.5,0.5,0.403536472977814,"true"
"image-keyboard-response",249,214010,"0.0-3.79-1.79","oz8pc8v9okbrd34",528,"98.csv","","null","resources/maskTrios/L1BB.jpg","null","",NA,NA,NA,NA,""
"image-keyboard-response",250,215220,"0.0-3.79-2.79","oz8pc8v9okbrd34",528,"98.csv","","null","resources/images/coin2.png","null","",NA,NA,NA,NA,""
"image-keyboard-response",251,215533,"0.0-3.80-0.80","oz8pc8v9okbrd34",528,"98.csv","","311.0999984741211","resources/trios/L1T2A3.jpg","37","restless",0.5,0.5,0.5,0.622902024440561,"false"
"image-keyboard-response",252,215947,"0.0-3.80-1.80","oz8pc8v9okbrd34",528,"98.csv","","null","resources/maskTrios/L1BB.jpg","null","",NA,NA,NA,NA,""
"image-keyboard-response",253,217160,"0.0-3.80-2.80","oz8pc8v9okbrd34",528,"98.csv","","null","resources/images/fishbone.png","null","",NA,NA,NA,NA,""
"image-keyboard-response",254,217533,"0.0-3.81-0.81","oz8pc8v9okbrd34",528,"98.csv","","370.1999969482422","resources/trios/L1T2A3.jpg","39","restless",0.5,0.5,0.5,0.349449375543757,"true"
"image-keyboard-response",255,217936,"0.0-3.81-1.81","oz8pc8v9okbrd34",528,"98.csv","","null","resources/maskTrios/BBA3.jpg","null","",NA,NA,NA,NA,""
"image-keyboard-response",256,219150,"0.0-3.81-2.81","oz8pc8v9okbrd34",528,"98.csv","","null","resources/images/coin2.png","null","",NA,NA,NA,NA,""
"image-keyboard-response",257,219478,"0.0-3.82-0.82","oz8pc8v9okbrd34",528,"98.csv","","324.5","resources/trios/L4T2A3.jpg","39","restless",0.5,0.5,0.5,0.240279780388595,"true"
"image-keyboard-response",258,219900,"0.0-3.82-1.82","oz8pc8v9okbrd34",528,"98.csv","","null","resources/maskTrios/BBA3.jpg","null","",NA,NA,NA,NA,""
"image-keyboard-response",259,221114,"0.0-3.82-2.82","oz8pc8v9okbrd34",528,"98.csv","","null","resources/images/coin2.png","null","",NA,NA,NA,NA,""
"image-keyboard-response",260,221288,"0.0-3.83-0.83","oz8pc8v9okbrd34",528,"98.csv","","165.9000015258789","resources/trios/L4T2A3.jpg","39","restless",0.5,0.6,0.5,0.477804877540901,"true"
"image-keyboard-response",261,221698,"0.0-3.83-1.83","oz8pc8v9okbrd34",528,"98.csv","","null","resources/maskTrios/BBA3.jpg","null","",NA,NA,NA,NA,""
"image-keyboard-response",262,222918,"0.0-3.83-2.83","oz8pc8v9okbrd34",528,"98.csv","","null","resources/images/coin2.png","null","",NA,NA,NA,NA,""
"image-keyboard-response",263,223219,"0.0-3.84-0.84","oz8pc8v9okbrd34",528,"98.csv","","298.9000015258789","resources/trios/L4T1A3.jpg","39","restless",0.5,0.6,0.5,0.461820227628144,"true"
"image-keyboard-response",264,223630,"0.0-3.84-1.84","oz8pc8v9okbrd34",528,"98.csv","","null","resources/maskTrios/BBA3.jpg","null","",NA,NA,NA,NA,""
"image-keyboard-response",265,224835,"0.0-3.84-2.84","oz8pc8v9okbrd34",528,"98.csv","","null","resources/images/coin2.png","null","",NA,NA,NA,NA,""
"image-keyboard-response",266,224996,"0.0-3.85-0.85","oz8pc8v9okbrd34",528,"98.csv","","159.70000076293945","resources/trios/L4T2A1.jpg","39","restless",0.5,0.6,0.5,0.900538711607854,"false"
"image-keyboard-response",267,225401,"0.0-3.85-1.85","oz8pc8v9okbrd34",528,"98.csv","","null","resources/maskTrios/BBA1.jpg","null","",NA,NA,NA,NA,""
"image-keyboard-response",268,226610,"0.0-3.85-2.85","oz8pc8v9okbrd34",528,"98.csv","","null","resources/images/fishbone.png","null","",NA,NA,NA,NA,""
"image-keyboard-response",269,226905,"0.0-3.86-0.86","oz8pc8v9okbrd34",528,"98.csv","","290.9000015258789","resources/trios/L1T1A3.jpg","38","restless",0.5,0.6,0.5,0.511335635536829,"true"
"image-keyboard-response",270,227320,"0.0-3.86-1.86","oz8pc8v9okbrd34",528,"98.csv","","null","resources/maskTrios/BT1B.jpg","null","",NA,NA,NA,NA,""
"image-keyboard-response",271,228525,"0.0-3.86-2.86","oz8pc8v9okbrd34",528,"98.csv","","null","resources/images/coin2.png","null","",NA,NA,NA,NA,""
"image-keyboard-response",272,229171,"0.0-3.87-0.87","oz8pc8v9okbrd34",528,"98.csv","","643.0999984741211","resources/trios/L1T1A3.jpg","38","restless",0.5,0.6,0.5,0.62713544399931,"false"
"image-keyboard-response",273,229580,"0.0-3.87-1.87","oz8pc8v9okbrd34",528,"98.csv","","null","resources/maskTrios/BT1B.jpg","null","",NA,NA,NA,NA,""
"image-keyboard-response",274,230796,"0.0-3.87-2.87","oz8pc8v9okbrd34",528,"98.csv","","null","resources/images/fishbone.png","null","",NA,NA,NA,NA,""
"image-keyboard-response",275,231073,"0.0-3.88-0.88","oz8pc8v9okbrd34",528,"98.csv","","274.20000076293945","resources/trios/L1T2A1.jpg","37","restless",0.5,0.6,0.5,0.837616954727282,"false"
"image-keyboard-response",276,231485,"0.0-3.88-1.88","oz8pc8v9okbrd34",528,"98.csv","","null","resources/maskTrios/L1BB.jpg","null","",NA,NA,NA,NA,""
"image-keyboard-response",277,232701,"0.0-3.88-2.88","oz8pc8v9okbrd34",528,"98.csv","","null","resources/images/fishbone.png","null","",NA,NA,NA,NA,""
"image-keyboard-response",278,232922,"0.0-3.89-0.89","oz8pc8v9okbrd34",528,"98.csv","","217.79999923706055","resources/trios/L4T2A1.jpg","39","restless",0.5,0.6,0.5,0.0386215989154137,"true"
"image-keyboard-response",279,233330,"0.0-3.89-1.89","oz8pc8v9okbrd34",528,"98.csv","","null","resources/maskTrios/BBA1.jpg","null","",NA,NA,NA,NA,""
"image-keyboard-response",280,234535,"0.0-3.89-2.89","oz8pc8v9okbrd34",528,"98.csv","","null","resources/images/coin2.png","null","",NA,NA,NA,NA,""
"image-keyboard-response",281,234831,"0.0-3.90-0.90","oz8pc8v9okbrd34",528,"98.csv","","295.0999984741211","resources/trios/L1T2A1.jpg","39","restless",0.5,0.6,0.5,0.648226563329505,"false"
"image-keyboard-response",282,235250,"0.0-3.90-1.90","oz8pc8v9okbrd34",528,"98.csv","","null","resources/maskTrios/BBA1.jpg","null","",NA,NA,NA,NA,""
"image-keyboard-response",283,236470,"0.0-3.90-2.90","oz8pc8v9okbrd34",528,"98.csv","","null","resources/images/fishbone.png","null","",NA,NA,NA,NA,""
"image-keyboard-response",284,237094,"0.0-3.91-0.91","oz8pc8v9okbrd34",528,"98.csv","","622.2000007629395","resources/trios/L4T2A1.jpg","38","restless",0.6,0.6,0.5,0.758031461963408,"false"
"image-keyboard-response",285,237500,"0.0-3.91-1.91","oz8pc8v9okbrd34",528,"98.csv","","null","resources/maskTrios/BT2B.jpg","null","",NA,NA,NA,NA,""
"image-keyboard-response",286,238710,"0.0-3.91-2.91","oz8pc8v9okbrd34",528,"98.csv","","null","resources/images/fishbone.png","null","",NA,NA,NA,NA,""
"image-keyboard-response",287,239044,"0.0-3.92-0.92","oz8pc8v9okbrd34",528,"98.csv","","331.1999969482422","resources/trios/L4T2A1.jpg","37","restless",0.6,0.5,0.5,0.106308510258778,"true"
"image-keyboard-response",288,239456,"0.0-3.92-1.92","oz8pc8v9okbrd34",528,"98.csv","","null","resources/maskTrios/L4BB.jpg","null","",NA,NA,NA,NA,""
"image-keyboard-response",289,240670,"0.0-3.92-2.92","oz8pc8v9okbrd34",528,"98.csv","","null","resources/images/coin2.png","null","",NA,NA,NA,NA,""
"image-keyboard-response",290,241050,"0.0-3.93-0.93","oz8pc8v9okbrd34",528,"98.csv","","373.70000076293945","resources/trios/L1T2A1.jpg","37","restless",0.6,0.4,0.5,0.559585659851863,"true"
"image-keyboard-response",291,241468,"0.0-3.93-1.93","oz8pc8v9okbrd34",528,"98.csv","","null","resources/maskTrios/L1BB.jpg","null","",NA,NA,NA,NA,""
"image-keyboard-response",292,242680,"0.0-3.93-2.93","oz8pc8v9okbrd34",528,"98.csv","","null","resources/images/coin2.png","null","",NA,NA,NA,NA,""
"image-keyboard-response",293,243164,"0.0-3.94-0.94","oz8pc8v9okbrd34",528,"98.csv","","481.1999969482422","resources/trios/L1T2A3.jpg","37","restless",0.6,0.4,0.5,0.618390452651551,"false"
"image-keyboard-response",294,243575,"0.0-3.94-1.94","oz8pc8v9okbrd34",528,"98.csv","","null","resources/maskTrios/L1BB.jpg","null","",NA,NA,NA,NA,""
"image-keyboard-response",295,244780,"0.0-3.94-2.94","oz8pc8v9okbrd34",528,"98.csv","","null","resources/images/fishbone.png","null","",NA,NA,NA,NA,""
"image-keyboard-response",296,246094,"0.0-3.95-0.95","oz8pc8v9okbrd34",528,"98.csv","","1311.2000007629395","resources/trios/L1T1A3.jpg","38","restless",0.6,0.4,0.5,0.945211197004238,"false"
"image-keyboard-response",297,246505,"0.0-3.95-1.95","oz8pc8v9okbrd34",528,"98.csv","","null","resources/maskTrios/BT1B.jpg","null","",NA,NA,NA,NA,""
"image-keyboard-response",298,247720,"0.0-3.95-2.95","oz8pc8v9okbrd34",528,"98.csv","","null","resources/images/fishbone.png","null","",NA,NA,NA,NA,""
"image-keyboard-response",299,248163,"0.0-3.96-0.96","oz8pc8v9okbrd34",528,"98.csv","","439.70000076293945","resources/trios/L4T1A1.jpg","39","restless",0.6,0.4,0.5,0.34876731877091,"true"
"image-keyboard-response",300,248580,"0.0-3.96-1.96","oz8pc8v9okbrd34",528,"98.csv","","null","resources/maskTrios/BBA1.jpg","null","",NA,NA,NA,NA,""
"image-keyboard-response",301,249800,"0.0-3.96-2.96","oz8pc8v9okbrd34",528,"98.csv","","null","resources/images/coin2.png","null","",NA,NA,NA,NA,""
"image-keyboard-response",302,250739,"0.0-3.97-0.97","oz8pc8v9okbrd34",528,"98.csv","","936.7000007629395","resources/trios/L1T2A1.jpg","39","restless",0.6,0.4,0.5,0.0583905527618114,"true"
"image-keyboard-response",303,251161,"0.0-3.97-1.97","oz8pc8v9okbrd34",528,"98.csv","","null","resources/maskTrios/BBA1.jpg","null","",NA,NA,NA,NA,""
"image-keyboard-response",304,252375,"0.0-3.97-2.97","oz8pc8v9okbrd34",528,"98.csv","","null","resources/images/coin2.png","null","",NA,NA,NA,NA,""
"image-keyboard-response",305,261573,"0.0-3.98-0.98","oz8pc8v9okbrd34",528,"98.csv","","9197","resources/trios/L4T1A1.jpg","38","restless",0.6,0.4,0.5,0.557745149172654,"false"
"image-keyboard-response",306,261977,"0.0-3.98-1.98","oz8pc8v9okbrd34",528,"98.csv","","null","resources/maskTrios/BT1B.jpg","null","",NA,NA,NA,NA,""
"image-keyboard-response",307,263190,"0.0-3.98-2.98","oz8pc8v9okbrd34",528,"98.csv","","null","resources/images/fishbone.png","null","",NA,NA,NA,NA,""
"image-keyboard-response",308,264108,"0.0-3.99-0.99","oz8pc8v9okbrd34",528,"98.csv","","914.6000022888184","resources/trios/L4T1A3.jpg","38","restless",0.6,0.4,0.5,0.318879136813001,"true"
"image-keyboard-response",309,264520,"0.0-3.99-1.99","oz8pc8v9okbrd34",528,"98.csv","","null","resources/maskTrios/BT1B.jpg","null","",NA,NA,NA,NA,""
"image-keyboard-response",310,265731,"0.0-3.99-2.99","oz8pc8v9okbrd34",528,"98.csv","","null","resources/images/coin2.png","null","",NA,NA,NA,NA,""
"image-keyboard-response",311,266105,"0.0-3.100-0.100","oz8pc8v9okbrd34",528,"98.csv","","371.79999923706055","resources/trios/L1T2A3.jpg","38","restless",0.6,0.4,0.5,0.900540784505891,"false"
"image-keyboard-response",312,266520,"0.0-3.100-1.100","oz8pc8v9okbrd34",528,"98.csv","","null","resources/maskTrios/BT2B.jpg","null","",NA,NA,NA,NA,""
"image-keyboard-response",313,267740,"0.0-3.100-2.100","oz8pc8v9okbrd34",528,"98.csv","","null","resources/images/fishbone.png","null","",NA,NA,NA,NA,""
"image-keyboard-response",314,268191,"0.0-3.101-0.101","oz8pc8v9okbrd34",528,"98.csv","","447.5999984741211","resources/trios/L4T1A1.jpg","39","restless",0.6,0.3,0.5,0.611179536987255,"false"
"image-keyboard-response",315,268600,"0.0-3.101-1.101","oz8pc8v9okbrd34",528,"98.csv","","null","resources/maskTrios/BBA1.jpg","null","",NA,NA,NA,NA,""
"image-keyboard-response",316,269815,"0.0-3.101-2.101","oz8pc8v9okbrd34",528,"98.csv","","null","resources/images/fishbone.png","null","",NA,NA,NA,NA,""
"image-keyboard-response",317,270093,"0.0-3.102-0.102","oz8pc8v9okbrd34",528,"98.csv","","275.10000228881836","resources/trios/L1T1A1.jpg","39","restless",0.6,0.3,0.5,0.440543722152751,"true"
"image-keyboard-response",318,270499,"0.0-3.102-1.102","oz8pc8v9okbrd34",528,"98.csv","","null","resources/maskTrios/BBA1.jpg","null","",NA,NA,NA,NA,""
"image-keyboard-response",319,271710,"0.0-3.102-2.102","oz8pc8v9okbrd34",528,"98.csv","","null","resources/images/coin2.png","null","",NA,NA,NA,NA,""
"image-keyboard-response",320,272033,"0.0-3.103-0.103","oz8pc8v9okbrd34",528,"98.csv","","320.20000076293945","resources/trios/L4T2A1.jpg","39","restless",0.6,0.3,0.5,0.448225460152979,"true"
"image-keyboard-response",321,272440,"0.0-3.103-1.103","oz8pc8v9okbrd34",528,"98.csv","","null","resources/maskTrios/BBA1.jpg","null","",NA,NA,NA,NA,""
"image-keyboard-response",322,273660,"0.0-3.103-2.103","oz8pc8v9okbrd34",528,"98.csv","","null","resources/images/coin2.png","null","",NA,NA,NA,NA,""
"image-keyboard-response",323,274184,"0.0-3.104-0.104","oz8pc8v9okbrd34",528,"98.csv","","522.0999984741211","resources/trios/L1T1A3.jpg","39","restless",0.6,0.3,0.6,0.829823727934089,"false"
"image-keyboard-response",324,274590,"0.0-3.104-1.104","oz8pc8v9okbrd34",528,"98.csv","","null","resources/maskTrios/BBA3.jpg","null","",NA,NA,NA,NA,""
"image-keyboard-response",325,275800,"0.0-3.104-2.104","oz8pc8v9okbrd34",528,"98.csv","","null","resources/images/fishbone.png","null","",NA,NA,NA,NA,""
"image-keyboard-response",326,276169,"0.0-3.105-0.105","oz8pc8v9okbrd34",528,"98.csv","","366","resources/trios/L4T2A3.jpg","38","restless",0.6,0.3,0.7,0.103213826502982,"true"
"image-keyboard-response",327,276581,"0.0-3.105-1.105","oz8pc8v9okbrd34",528,"98.csv","","null","resources/maskTrios/BT2B.jpg","null","",NA,NA,NA,NA,""
"image-keyboard-response",328,277791,"0.0-3.105-2.105","oz8pc8v9okbrd34",528,"98.csv","","null","resources/images/coin2.png","null","",NA,NA,NA,NA,""
"image-keyboard-response",329,278139,"0.0-3.106-0.106","oz8pc8v9okbrd34",528,"98.csv","","343.5999984741211","resources/trios/L1T2A1.jpg","38","restless",0.6,0.2,0.7,0.567746595382452,"false"
"image-keyboard-response",330,278561,"0.0-3.106-1.106","oz8pc8v9okbrd34",528,"98.csv","","null","resources/maskTrios/BT2B.jpg","null","",NA,NA,NA,NA,""
"image-keyboard-response",331,279770,"0.0-3.106-2.106","oz8pc8v9okbrd34",528,"98.csv","","null","resources/images/fishbone.png","null","",NA,NA,NA,NA,""
"image-keyboard-response",332,280211,"0.0-3.107-0.107","oz8pc8v9okbrd34",528,"98.csv","","438.79999923706055","resources/trios/L4T2A3.jpg","37","restless",0.7,0.2,0.7,0.865894887414168,"false"
"image-keyboard-response",333,280620,"0.0-3.107-1.107","oz8pc8v9okbrd34",528,"98.csv","","null","resources/maskTrios/L4BB.jpg","null","",NA,NA,NA,NA,""
"image-keyboard-response",334,281826,"0.0-3.107-2.107","oz8pc8v9okbrd34",528,"98.csv","","null","resources/images/fishbone.png","null","",NA,NA,NA,NA,""
"image-keyboard-response",335,282048,"0.0-3.108-0.108","oz8pc8v9okbrd34",528,"98.csv","","219","resources/trios/L1T1A1.jpg","37","restless",0.7,0.2,0.6,0.256098508379518,"true"
"image-keyboard-response",336,282470,"0.0-3.108-1.108","oz8pc8v9okbrd34",528,"98.csv","","null","resources/maskTrios/L1BB.jpg","null","",NA,NA,NA,NA,""
"image-keyboard-response",337,283686,"0.0-3.108-2.108","oz8pc8v9okbrd34",528,"98.csv","","null","resources/images/coin2.png","null","",NA,NA,NA,NA,""
"image-keyboard-response",338,283964,"0.0-3.109-0.109","oz8pc8v9okbrd34",528,"98.csv","","274.60000228881836","resources/trios/L1T1A1.jpg","37","restless",0.7,0.2,0.6,0.544490655698995,"true"
"image-keyboard-response",339,284380,"0.0-3.109-1.109","oz8pc8v9okbrd34",528,"98.csv","","null","resources/maskTrios/L1BB.jpg","null","",NA,NA,NA,NA,""
"image-keyboard-response",340,285601,"0.0-3.109-2.109","oz8pc8v9okbrd34",528,"98.csv","","null","resources/images/coin2.png","null","",NA,NA,NA,NA,""
"image-keyboard-response",341,285807,"0.0-3.110-0.110","oz8pc8v9okbrd34",528,"98.csv","","204.0999984741211","resources/trios/L1T1A3.jpg","37","restless",0.7,0.2,0.6,0.416252222499755,"true"
"image-keyboard-response",342,286225,"0.0-3.110-1.110","oz8pc8v9okbrd34",528,"98.csv","","null","resources/maskTrios/L1BB.jpg","null","",NA,NA,NA,NA,""
"image-keyboard-response",343,287441,"0.0-3.110-2.110","oz8pc8v9okbrd34",528,"98.csv","","null","resources/images/coin2.png","null","",NA,NA,NA,NA,""
"image-keyboard-response",344,287718,"0.0-3.111-0.111","oz8pc8v9okbrd34",528,"98.csv","","275.20000076293945","resources/trios/L4T2A3.jpg","37","restless",0.7,0.2,0.5,0.574297354912248,"true"
"image-keyboard-response",345,288140,"0.0-3.111-1.111","oz8pc8v9okbrd34",528,"98.csv","","null","resources/maskTrios/L4BB.jpg","null","",NA,NA,NA,NA,""
"image-keyboard-response",346,289360,"0.0-3.111-2.111","oz8pc8v9okbrd34",528,"98.csv","","null","resources/images/coin2.png","null","",NA,NA,NA,NA,""
"image-keyboard-response",347,289663,"0.0-3.112-0.112","oz8pc8v9okbrd34",528,"98.csv","","300.29999923706055","resources/trios/L1T2A1.jpg","37","restless",0.7,0.2,0.5,0.82566886212652,"false"
"image-keyboard-response",348,290075,"0.0-3.112-1.112","oz8pc8v9okbrd34",528,"98.csv","","null","resources/maskTrios/L1BB.jpg","null","",NA,NA,NA,NA,""
"image-keyboard-response",349,291285,"0.0-3.112-2.112","oz8pc8v9okbrd34",528,"98.csv","","null","resources/images/fishbone.png","null","",NA,NA,NA,NA,""
"image-keyboard-response",350,291553,"0.0-3.113-0.113","oz8pc8v9okbrd34",528,"98.csv","","265.29999923706055","resources/trios/L1T1A1.jpg","38","restless",0.7,0.2,0.5,0.0264824219469231,"true"
"image-keyboard-response",351,291968,"0.0-3.113-1.113","oz8pc8v9okbrd34",528,"98.csv","","null","resources/maskTrios/BT1B.jpg","null","",NA,NA,NA,NA,""
"image-keyboard-response",352,293190,"0.0-3.113-2.113","oz8pc8v9okbrd34",528,"98.csv","","null","resources/images/coin2.png","null","",NA,NA,NA,NA,""
"image-keyboard-response",353,293477,"0.0-3.114-0.114","oz8pc8v9okbrd34",528,"98.csv","","284.5","resources/trios/L4T2A1.jpg","38","restless",0.7,0.2,0.6,0.271662822438683,"false"
"image-keyboard-response",354,293891,"0.0-3.114-1.114","oz8pc8v9okbrd34",528,"98.csv","","null","resources/maskTrios/BT2B.jpg","null","",NA,NA,NA,NA,""
"image-keyboard-response",355,295100,"0.0-3.114-2.114","oz8pc8v9okbrd34",528,"98.csv","","null","resources/images/fishbone.png","null","",NA,NA,NA,NA,""
"image-keyboard-response",356,295369,"0.0-3.115-0.115","oz8pc8v9okbrd34",528,"98.csv","","266.20000076293945","resources/trios/L4T2A1.jpg","38","restless",0.7,0.2,0.6,0.228299362149019,"false"
"image-keyboard-response",357,295780,"0.0-3.115-1.115","oz8pc8v9okbrd34",528,"98.csv","","null","resources/maskTrios/BT2B.jpg","null","",NA,NA,NA,NA,""
"image-keyboard-response",358,296995,"0.0-3.115-2.115","oz8pc8v9okbrd34",528,"98.csv","","null","resources/images/fishbone.png","null","",NA,NA,NA,NA,""
"image-keyboard-response",359,297265,"0.0-3.116-0.116","oz8pc8v9okbrd34",528,"98.csv","","268.4000015258789","resources/trios/L4T1A3.jpg","38","restless",0.7,0.2,0.6,0.107306363276914,"true"
"image-keyboard-response",360,297669,"0.0-3.116-1.116","oz8pc8v9okbrd34",528,"98.csv","","null","resources/maskTrios/BT1B.jpg","null","",NA,NA,NA,NA,""
"image-keyboard-response",361,298880,"0.0-3.116-2.116","oz8pc8v9okbrd34",528,"98.csv","","null","resources/images/coin2.png","null","",NA,NA,NA,NA,""
"image-keyboard-response",362,299111,"0.0-3.117-0.117","oz8pc8v9okbrd34",528,"98.csv","","224.20000076293945","resources/trios/L4T2A1.jpg","38","restless",0.7,0.2,0.6,0.561730407847405,"false"
"image-keyboard-response",363,299520,"0.0-3.117-1.117","oz8pc8v9okbrd34",528,"98.csv","","null","resources/maskTrios/BT2B.jpg","null","",NA,NA,NA,NA,""
"image-keyboard-response",364,300730,"0.0-3.117-2.117","oz8pc8v9okbrd34",528,"98.csv","","null","resources/images/fishbone.png","null","",NA,NA,NA,NA,""
"image-keyboard-response",365,300771,"0.0-3.118-0.118","oz8pc8v9okbrd34",528,"98.csv","","34.29999923706055","resources/trios/L4T2A1.jpg","39","restless",0.7,0.3,0.6,0.378173382302158,"true"
"image-keyboard-response",366,301180,"0.0-3.118-1.118","oz8pc8v9okbrd34",528,"98.csv","","null","resources/maskTrios/BBA1.jpg","null","",NA,NA,NA,NA,""
"image-keyboard-response",367,302390,"0.0-3.118-2.118","oz8pc8v9okbrd34",528,"98.csv","","null","resources/images/coin2.png","null","",NA,NA,NA,NA,""
"image-keyboard-response",368,302717,"0.0-3.119-0.119","oz8pc8v9okbrd34",528,"98.csv","","324.70000076293945","resources/trios/L4T1A3.jpg","39","restless",0.7,0.3,0.6,0.894637857471681,"false"
"image-keyboard-response",369,303140,"0.0-3.119-1.119","oz8pc8v9okbrd34",528,"98.csv","","null","resources/maskTrios/BBA3.jpg","null","",NA,NA,NA,NA,""
"image-keyboard-response",370,304355,"0.0-3.119-2.119","oz8pc8v9okbrd34",528,"98.csv","","null","resources/images/fishbone.png","null","",NA,NA,NA,NA,""
"image-keyboard-response",371,304603,"0.0-3.120-0.120","oz8pc8v9okbrd34",528,"98.csv","","245.79999923706055","resources/trios/L1T1A1.jpg","37","restless",0.7,0.3,0.5,0.92474810788595,"false"
"image-keyboard-response",372,305020,"0.0-3.120-1.120","oz8pc8v9okbrd34",528,"98.csv","","null","resources/maskTrios/L1BB.jpg","null","",NA,NA,NA,NA,""
"image-keyboard-response",373,306236,"0.0-3.120-2.120","oz8pc8v9okbrd34",528,"98.csv","","null","resources/images/fishbone.png","null","",NA,NA,NA,NA,""
"image-keyboard-response",374,306499,"0.0-3.121-0.121","oz8pc8v9okbrd34",528,"98.csv","","260.0999984741211","resources/trios/L1T2A1.jpg","37","restless",0.7,0.3,0.5,0.0979643876666991,"true"
"image-keyboard-response",375,306910,"0.0-3.121-1.121","oz8pc8v9okbrd34",528,"98.csv","","null","resources/maskTrios/L1BB.jpg","null","",NA,NA,NA,NA,""
"image-keyboard-response",376,308120,"0.0-3.121-2.121","oz8pc8v9okbrd34",528,"98.csv","","null","resources/images/coin2.png","null","",NA,NA,NA,NA,""
"image-keyboard-response",377,308410,"0.0-3.122-0.122","oz8pc8v9okbrd34",528,"98.csv","","286.70000076293945","resources/trios/L1T1A3.jpg","37","restless",0.7,0.3,0.5,0.129857356094158,"true"
"image-keyboard-response",378,308820,"0.0-3.122-1.122","oz8pc8v9okbrd34",528,"98.csv","","null","resources/maskTrios/L1BB.jpg","null","",NA,NA,NA,NA,""
"image-keyboard-response",379,310030,"0.0-3.122-2.122","oz8pc8v9okbrd34",528,"98.csv","","null","resources/images/coin2.png","null","",NA,NA,NA,NA,""
"image-keyboard-response",380,310310,"0.0-3.123-0.123","oz8pc8v9okbrd34",528,"98.csv","","277.0999984741211","resources/trios/L1T2A1.jpg","37","restless",0.7,0.3,0.5,0.71500869758334,"false"
"image-keyboard-response",381,310726,"0.0-3.123-1.123","oz8pc8v9okbrd34",528,"98.csv","","null","resources/maskTrios/L1BB.jpg","null","",NA,NA,NA,NA,""
"image-keyboard-response",382,311930,"0.0-3.123-2.123","oz8pc8v9okbrd34",528,"98.csv","","null","resources/images/fishbone.png","null","",NA,NA,NA,NA,""
"image-keyboard-response",383,312192,"0.0-3.124-0.124","oz8pc8v9okbrd34",528,"98.csv","","259.70000076293945","resources/trios/L4T1A3.jpg","38","restless",0.8,0.3,0.5,0.791823704169358,"false"
"image-keyboard-response",384,312600,"0.0-3.124-1.124","oz8pc8v9okbrd34",528,"98.csv","","null","resources/maskTrios/BT1B.jpg","null","",NA,NA,NA,NA,""
"image-keyboard-response",385,313806,"0.0-3.124-2.124","oz8pc8v9okbrd34",528,"98.csv","","null","resources/images/fishbone.png","null","",NA,NA,NA,NA,""
"image-keyboard-response",386,314070,"0.0-3.125-0.125","oz8pc8v9okbrd34",528,"98.csv","","260.39999771118164","resources/trios/L1T1A1.jpg","37","restless",0.8,0.3,0.4,0.00378188043899041,"true"
"image-keyboard-response",387,314480,"0.0-3.125-1.125","oz8pc8v9okbrd34",528,"98.csv","","null","resources/maskTrios/L1BB.jpg","null","",NA,NA,NA,NA,""
"image-keyboard-response",388,315690,"0.0-3.125-2.125","oz8pc8v9okbrd34",528,"98.csv","","null","resources/images/coin2.png","null","",NA,NA,NA,NA,""
"image-keyboard-response",389,315932,"0.0-3.126-0.126","oz8pc8v9okbrd34",528,"98.csv","","236.8000030517578","resources/trios/L4T1A1.jpg","37","restless",0.8,0.3,0.4,0.4622508964622,"true"
"image-keyboard-response",390,316340,"0.0-3.126-1.126","oz8pc8v9okbrd34",528,"98.csv","","null","resources/maskTrios/L4BB.jpg","null","",NA,NA,NA,NA,""
"image-keyboard-response",391,317555,"0.0-3.126-2.126","oz8pc8v9okbrd34",528,"98.csv","","null","resources/images/coin2.png","null","",NA,NA,NA,NA,""
"image-keyboard-response",392,317860,"0.0-3.127-0.127","oz8pc8v9okbrd34",528,"98.csv","","302.89999771118164","resources/trios/L1T1A3.jpg","37","restless",0.7,0.3,0.4,0.376540573011934,"true"
"image-keyboard-response",393,318276,"0.0-3.127-1.127","oz8pc8v9okbrd34",528,"98.csv","","null","resources/maskTrios/L1BB.jpg","null","",NA,NA,NA,NA,""
"image-keyboard-response",394,319490,"0.0-3.127-2.127","oz8pc8v9okbrd34",528,"98.csv","","null","resources/images/coin2.png","null","",NA,NA,NA,NA,""
"image-keyboard-response",395,319499,"0.0-3.128-0.128","oz8pc8v9okbrd34",528,"98.csv","","0.9000015258789062","resources/trios/L4T1A3.jpg","37","restless",0.7,0.3,0.4,0.36791598352264,"true"
"image-keyboard-response",396,319910,"0.0-3.128-1.128","oz8pc8v9okbrd34",528,"98.csv","","null","resources/maskTrios/L4BB.jpg","null","",NA,NA,NA,NA,""
"image-keyboard-response",397,321126,"0.0-3.128-2.128","oz8pc8v9okbrd34",528,"98.csv","","null","resources/images/coin2.png","null","",NA,NA,NA,NA,""
"image-keyboard-response",398,321534,"0.0-3.129-0.129","oz8pc8v9okbrd34",528,"98.csv","","406.20000076293945","resources/trios/L4T1A1.jpg","37","restless",0.7,0.3,0.3,0.936977550206164,"false"
"image-keyboard-response",399,321940,"0.0-3.129-1.129","oz8pc8v9okbrd34",528,"98.csv","","null","resources/maskTrios/L4BB.jpg","null","",NA,NA,NA,NA,""
"image-keyboard-response",400,323150,"0.0-3.129-2.129","oz8pc8v9okbrd34",528,"98.csv","","null","resources/images/fishbone.png","null","",NA,NA,NA,NA,""
"image-keyboard-response",401,323507,"0.0-3.130-0.130","oz8pc8v9okbrd34",528,"98.csv","","355","resources/trios/L4T1A1.jpg","39","restless",0.7,0.3,0.3,0.977419251749123,"false"
"image-keyboard-response",402,323920,"0.0-3.130-1.130","oz8pc8v9okbrd34",528,"98.csv","","null","resources/maskTrios/BBA1.jpg","null","",NA,NA,NA,NA,""
"image-keyboard-response",403,325125,"0.0-3.130-2.130","oz8pc8v9okbrd34",528,"98.csv","","null","resources/images/fishbone.png","null","",NA,NA,NA,NA,""
"image-keyboard-response",404,325313,"0.0-3.131-0.131","oz8pc8v9okbrd34",528,"98.csv","","185.0999984741211","resources/trios/L1T2A1.jpg","39","restless",0.7,0.4,0.3,0.818100582740135,"false"
"image-keyboard-response",405,325730,"0.0-3.131-1.131","oz8pc8v9okbrd34",528,"98.csv","","null","resources/maskTrios/BBA1.jpg","null","",NA,NA,NA,NA,""
"image-keyboard-response",406,326948,"0.0-3.131-2.131","oz8pc8v9okbrd34",528,"98.csv","","null","resources/images/fishbone.png","null","",NA,NA,NA,NA,""
"image-keyboard-response",407,326989,"0.0-3.132-0.132","oz8pc8v9okbrd34",528,"98.csv","","37.79999923706055","resources/trios/L1T2A1.jpg","39","restless",0.7,0.4,0.3,0.158811786917394,"true"
"image-keyboard-response",408,327410,"0.0-3.132-1.132","oz8pc8v9okbrd34",528,"98.csv","","null","resources/maskTrios/BBA1.jpg","null","",NA,NA,NA,NA,""
"image-keyboard-response",409,328631,"0.0-3.132-2.132","oz8pc8v9okbrd34",528,"98.csv","","null","resources/images/coin2.png","null","",NA,NA,NA,NA,""
"image-keyboard-response",410,328634,"0.0-3.133-0.133","oz8pc8v9okbrd34",528,"98.csv","","0.40000152587890625","resources/trios/L1T1A3.jpg","39","restless",0.7,0.4,0.3,0.724693043744729,"false"
"image-keyboard-response",411,329040,"0.0-3.133-1.133","oz8pc8v9okbrd34",528,"98.csv","","null","resources/maskTrios/BBA3.jpg","null","",NA,NA,NA,NA,""
"image-keyboard-response",412,330250,"0.0-3.133-2.133","oz8pc8v9okbrd34",528,"98.csv","","null","resources/images/fishbone.png","null","",NA,NA,NA,NA,""
"image-keyboard-response",413,330531,"0.0-3.134-0.134","oz8pc8v9okbrd34",528,"98.csv","","277.79999923706055","resources/trios/L1T1A3.jpg","38","restless",0.7,0.4,0.3,0.578537394504971,"false"
"image-keyboard-response",414,330937,"0.0-3.134-1.134","oz8pc8v9okbrd34",528,"98.csv","","null","resources/maskTrios/BT1B.jpg","null","",NA,NA,NA,NA,""
"image-keyboard-response",415,332150,"0.0-3.134-2.134","oz8pc8v9okbrd34",528,"98.csv","","null","resources/images/fishbone.png","null","",NA,NA,NA,NA,""
"image-keyboard-response",416,332415,"0.0-3.135-0.135","oz8pc8v9okbrd34",528,"98.csv","","263.29999923706055","resources/trios/L4T1A1.jpg","39","restless",0.7,0.4,0.3,0.316297794731424,"false"
"image-keyboard-response",417,332830,"0.0-3.135-1.135","oz8pc8v9okbrd34",528,"98.csv","","null","resources/maskTrios/BBA1.jpg","null","",NA,NA,NA,NA,""
"image-keyboard-response",418,334035,"0.0-3.135-2.135","oz8pc8v9okbrd34",528,"98.csv","","null","resources/images/fishbone.png","null","",NA,NA,NA,NA,""
"image-keyboard-response",419,334239,"0.0-3.136-0.136","oz8pc8v9okbrd34",528,"98.csv","","200.5","resources/trios/L1T2A3.jpg","39","restless",0.7,0.4,0.3,0.84794921506145,"false"
"image-keyboard-response",420,334650,"0.0-3.136-1.136","oz8pc8v9okbrd34",528,"98.csv","","null","resources/maskTrios/BBA3.jpg","null","",NA,NA,NA,NA,""
"image-keyboard-response",421,335860,"0.0-3.136-2.136","oz8pc8v9okbrd34",528,"98.csv","","null","resources/images/fishbone.png","null","",NA,NA,NA,NA,""
"image-keyboard-response",422,336136,"0.0-3.137-0.137","oz8pc8v9okbrd34",528,"98.csv","","274","resources/trios/L4T1A1.jpg","39","restless",0.7,0.4,0.3,0.846646654408419,"false"
"image-keyboard-response",423,336551,"0.0-3.137-1.137","oz8pc8v9okbrd34",528,"98.csv","","null","resources/maskTrios/BBA1.jpg","null","",NA,NA,NA,NA,""
"image-keyboard-response",424,337766,"0.0-3.137-2.137","oz8pc8v9okbrd34",528,"98.csv","","null","resources/images/fishbone.png","null","",NA,NA,NA,NA,""
"image-keyboard-response",425,337786,"0.0-3.138-0.138","oz8pc8v9okbrd34",528,"98.csv","","16.299999237060547","resources/trios/L4T2A3.jpg","39","restless",0.7,0.4,0.3,0.539891106248938,"false"
"image-keyboard-response",426,338198,"0.0-3.138-1.138","oz8pc8v9okbrd34",528,"98.csv","","null","resources/maskTrios/BBA3.jpg","null","",NA,NA,NA,NA,""
"image-keyboard-response",427,339420,"0.0-3.138-2.138","oz8pc8v9okbrd34",528,"98.csv","","null","resources/images/fishbone.png","null","",NA,NA,NA,NA,""
"image-keyboard-response",428,339621,"0.0-3.139-0.139","oz8pc8v9okbrd34",528,"98.csv","","198","resources/trios/L1T2A1.jpg","39","restless",0.7,0.4,0.3,0.669691451161256,"false"
"image-keyboard-response",429,340038,"0.0-3.139-1.139","oz8pc8v9okbrd34",528,"98.csv","","null","resources/maskTrios/BBA1.jpg","null","",NA,NA,NA,NA,""
"image-keyboard-response",430,341250,"0.0-3.139-2.139","oz8pc8v9okbrd34",528,"98.csv","","null","resources/images/fishbone.png","null","",NA,NA,NA,NA,""
"image-keyboard-response",431,341315,"0.0-3.140-0.140","oz8pc8v9okbrd34",528,"98.csv","","60.400001525878906","resources/trios/L1T1A1.jpg","39","restless",0.7,0.4,0.3,0.118968349444102,"true"
"image-keyboard-response",432,341725,"0.0-3.140-1.140","oz8pc8v9okbrd34",528,"98.csv","","null","resources/maskTrios/BBA1.jpg","null","",NA,NA,NA,NA,""
"image-keyboard-response",433,342945,"0.0-3.140-2.140","oz8pc8v9okbrd34",528,"98.csv","","null","resources/images/coin2.png","null","",NA,NA,NA,NA,""
"image-keyboard-response",434,343120,"0.0-3.141-0.141","oz8pc8v9okbrd34",528,"98.csv","","173.5","resources/trios/L4T1A1.jpg","39","restless",0.7,0.4,0.3,0.737219611917686,"false"
"image-keyboard-response",435,343539,"0.0-3.141-1.141","oz8pc8v9okbrd34",528,"98.csv","","null","resources/maskTrios/BBA1.jpg","null","",NA,NA,NA,NA,""
"image-keyboard-response",436,344755,"0.0-3.141-2.141","oz8pc8v9okbrd34",528,"98.csv","","null","resources/images/fishbone.png","null","",NA,NA,NA,NA,""
"image-keyboard-response",437,345143,"0.0-3.142-0.142","oz8pc8v9okbrd34",528,"98.csv","","386","resources/trios/L1T2A3.jpg","38","restless",0.7,0.5,0.3,0.771072675547809,"false"
"image-keyboard-response",438,345555,"0.0-3.142-1.142","oz8pc8v9okbrd34",528,"98.csv","","null","resources/maskTrios/BT2B.jpg","null","",NA,NA,NA,NA,""
"image-keyboard-response",439,346760,"0.0-3.142-2.142","oz8pc8v9okbrd34",528,"98.csv","","null","resources/images/fishbone.png","null","",NA,NA,NA,NA,""
"image-keyboard-response",440,347026,"0.0-3.143-0.143","oz8pc8v9okbrd34",528,"98.csv","","263.0999984741211","resources/trios/L1T1A3.jpg","37","restless",0.7,0.5,0.3,0.216800659033242,"true"
"image-keyboard-response",441,347430,"0.0-3.143-1.143","oz8pc8v9okbrd34",528,"98.csv","","null","resources/maskTrios/L1BB.jpg","null","",NA,NA,NA,NA,""
"image-keyboard-response",442,348636,"0.0-3.143-2.143","oz8pc8v9okbrd34",528,"98.csv","","null","resources/images/coin2.png","null","",NA,NA,NA,NA,""
"image-keyboard-response",443,348926,"0.0-3.144-0.144","oz8pc8v9okbrd34",528,"98.csv","","287.3000030517578","resources/trios/L4T1A3.jpg","37","restless",0.7,0.5,0.3,0.201244333150606,"true"
"image-keyboard-response",444,349340,"0.0-3.144-1.144","oz8pc8v9okbrd34",528,"98.csv","","null","resources/maskTrios/L4BB.jpg","null","",NA,NA,NA,NA,""
"image-keyboard-response",445,350560,"0.0-3.144-2.144","oz8pc8v9okbrd34",528,"98.csv","","null","resources/images/coin2.png","null","",NA,NA,NA,NA,""
"image-keyboard-response",446,350713,"0.0-3.145-0.145","oz8pc8v9okbrd34",528,"98.csv","","150.5","resources/trios/L4T2A1.jpg","37","restless",0.6,0.5,0.2,0.837027825550624,"false"
"image-keyboard-response",447,351131,"0.0-3.145-1.145","oz8pc8v9okbrd34",528,"98.csv","","null","resources/maskTrios/L4BB.jpg","null","",NA,NA,NA,NA,""
"image-keyboard-response",448,352345,"0.0-3.145-2.145","oz8pc8v9okbrd34",528,"98.csv","","null","resources/images/fishbone.png","null","",NA,NA,NA,NA,""
"image-keyboard-response",449,353419,"0.0-3.146-0.146","oz8pc8v9okbrd34",528,"98.csv","","1069.6000022888184","resources/trios/L4T2A3.jpg","38","restless",0.6,0.5,0.2,0.244471840314371,"true"
"image-keyboard-response",450,353825,"0.0-3.146-1.146","oz8pc8v9okbrd34",528,"98.csv","","null","resources/maskTrios/BT2B.jpg","null","",NA,NA,NA,NA,""
"image-keyboard-response",451,355045,"0.0-3.146-2.146","oz8pc8v9okbrd34",528,"98.csv","","null","resources/images/coin2.png","null","",NA,NA,NA,NA,""
"image-keyboard-response",452,355591,"0.0-3.147-0.147","oz8pc8v9okbrd34",528,"98.csv","","543.2000007629395","resources/trios/L1T1A3.jpg","38","restless",0.6,0.5,0.2,0.448115355749543,"true"
"image-keyboard-response",453,356010,"0.0-3.147-1.147","oz8pc8v9okbrd34",528,"98.csv","","null","resources/maskTrios/BT1B.jpg","null","",NA,NA,NA,NA,""
"image-keyboard-response",454,357220,"0.0-3.147-2.147","oz8pc8v9okbrd34",528,"98.csv","","null","resources/images/coin2.png","null","",NA,NA,NA,NA,""
"image-keyboard-response",455,357282,"0.0-3.148-0.148","oz8pc8v9okbrd34",528,"98.csv","","54.79999923706055","resources/trios/L4T1A1.jpg","38","restless",0.6,0.5,0.2,0.333735948348126,"true"
"image-keyboard-response",456,357701,"0.0-3.148-1.148","oz8pc8v9okbrd34",528,"98.csv","","null","resources/maskTrios/BT1B.jpg","null","",NA,NA,NA,NA,""
"image-keyboard-response",457,358910,"0.0-3.148-2.148","oz8pc8v9okbrd34",528,"98.csv","","null","resources/images/coin2.png","null","",NA,NA,NA,NA,""
"image-keyboard-response",458,359273,"0.0-3.149-0.149","oz8pc8v9okbrd34",528,"98.csv","","360.5999984741211","resources/trios/L1T1A3.jpg","38","restless",0.6,0.5,0.2,0.515084811621279,"false"
"image-keyboard-response",459,359690,"0.0-3.149-1.149","oz8pc8v9okbrd34",528,"98.csv","","null","resources/maskTrios/BT1B.jpg","null","",NA,NA,NA,NA,""
"image-keyboard-response",460,360906,"0.0-3.149-2.149","oz8pc8v9okbrd34",528,"98.csv","","null","resources/images/fishbone.png","null","",NA,NA,NA,NA,""
"image-keyboard-response",461,361241,"0.0-3.150-0.150","oz8pc8v9okbrd34",528,"98.csv","","333.4000015258789","resources/trios/L1T2A3.jpg","39","restless",0.6,0.5,0.3,0.592488059323563,"false"
"image-keyboard-response",462,361650,"0.0-3.150-1.150","oz8pc8v9okbrd34",528,"98.csv","","null","resources/maskTrios/BBA3.jpg","null","",NA,NA,NA,NA,""
"image-keyboard-response",463,362870,"0.0-3.150-2.150","oz8pc8v9okbrd34",528,"98.csv","","null","resources/images/fishbone.png","null","",NA,NA,NA,NA,""
"image-keyboard-response",464,363372,"0.0-3.151-0.151","oz8pc8v9okbrd34",528,"98.csv","","499.70000076293945","resources/trios/L4T2A3.jpg","39","restless",0.6,0.5,0.3,0.747207015477794,"false"
"image-keyboard-response",465,363779,"0.0-3.151-1.151","oz8pc8v9okbrd34",528,"98.csv","","null","resources/maskTrios/BBA3.jpg","null","",NA,NA,NA,NA,""
"image-keyboard-response",466,364994,"0.0-3.151-2.151","oz8pc8v9okbrd34",528,"98.csv","","null","resources/images/fishbone.png","null","",NA,NA,NA,NA,""
"image-keyboard-response",467,365375,"0.0-3.152-0.152","oz8pc8v9okbrd34",528,"98.csv","","379.20000076293945","resources/trios/L1T2A3.jpg","39","restless",0.6,0.5,0.3,0.292081829444398,"true"
"image-keyboard-response",468,365790,"0.0-3.152-1.152","oz8pc8v9okbrd34",528,"98.csv","","null","resources/maskTrios/BBA3.jpg","null","",NA,NA,NA,NA,""
"image-keyboard-response",469,367010,"0.0-3.152-2.152","oz8pc8v9okbrd34",528,"98.csv","","null","resources/images/coin2.png","null","",NA,NA,NA,NA,""
"image-keyboard-response",470,367443,"0.0-3.153-0.153","oz8pc8v9okbrd34",528,"98.csv","","430.39999771118164","resources/trios/L4T2A3.jpg","39","restless",0.6,0.5,0.3,0.753639228731005,"false"
"image-keyboard-response",471,367860,"0.0-3.153-1.153","oz8pc8v9okbrd34",528,"98.csv","","null","resources/maskTrios/BBA3.jpg","null","",NA,NA,NA,NA,""
"image-keyboard-response",472,369065,"0.0-3.153-2.153","oz8pc8v9okbrd34",528,"98.csv","","null","resources/images/fishbone.png","null","",NA,NA,NA,NA,""
"image-keyboard-response",473,369371,"0.0-3.154-0.154","oz8pc8v9okbrd34",528,"98.csv","","304.20000076293945","resources/trios/L4T1A1.jpg","38","restless",0.6,0.5,0.3,0.507686578736935,"false"
"image-keyboard-response",474,369790,"0.0-3.154-1.154","oz8pc8v9okbrd34",528,"98.csv","","null","resources/maskTrios/BT1B.jpg","null","",NA,NA,NA,NA,""
"image-keyboard-response",475,371010,"0.0-3.154-2.154","oz8pc8v9okbrd34",528,"98.csv","","null","resources/images/fishbone.png","null","",NA,NA,NA,NA,""
"image-keyboard-response",476,371477,"0.0-3.155-0.155","oz8pc8v9okbrd34",528,"98.csv","","464.8000030517578","resources/trios/L1T1A3.jpg","38","restless",0.6,0.5,0.4,0.666417651119479,"false"
"image-keyboard-response",477,371895,"0.0-3.155-1.155","oz8pc8v9okbrd34",528,"98.csv","","null","resources/maskTrios/BT1B.jpg","null","",NA,NA,NA,NA,""
"image-keyboard-response",478,373100,"0.0-3.155-2.155","oz8pc8v9okbrd34",528,"98.csv","","null","resources/images/fishbone.png","null","",NA,NA,NA,NA,""
"image-keyboard-response",479,373340,"0.0-3.156-0.156","oz8pc8v9okbrd34",528,"98.csv","","238.60000228881836","resources/trios/L4T2A3.jpg","38","restless",0.6,0.5,0.4,0.401173276650313,"true"
"image-keyboard-response",480,373759,"0.0-3.156-1.156","oz8pc8v9okbrd34",528,"98.csv","","null","resources/maskTrios/BT2B.jpg","null","",NA,NA,NA,NA,""
"image-keyboard-response",481,374966,"0.0-3.156-2.156","oz8pc8v9okbrd34",528,"98.csv","","null","resources/images/coin2.png","null","",NA,NA,NA,NA,""
"image-keyboard-response",482,375482,"0.0-3.157-0.157","oz8pc8v9okbrd34",528,"98.csv","","514.7000007629395","resources/trios/L1T1A1.jpg","38","restless",0.6,0.5,0.4,0.628576248391864,"false"
"image-keyboard-response",483,375900,"0.0-3.157-1.157","oz8pc8v9okbrd34",528,"98.csv","","null","resources/maskTrios/BT1B.jpg","null","",NA,NA,NA,NA,""
"image-keyboard-response",484,377119,"0.0-3.157-2.157","oz8pc8v9okbrd34",528,"98.csv","","null","resources/images/fishbone.png","null","",NA,NA,NA,NA,""
"image-keyboard-response",485,377175,"0.0-3.158-0.158","oz8pc8v9okbrd34",528,"98.csv","","53.79999923706055","resources/trios/L4T1A1.jpg","38","restless",0.6,0.5,0.4,0.440620559972551,"true"
"image-keyboard-response",486,377590,"0.0-3.158-1.158","oz8pc8v9okbrd34",528,"98.csv","","null","resources/maskTrios/BT1B.jpg","null","",NA,NA,NA,NA,""
"image-keyboard-response",487,378794,"0.0-3.158-2.158","oz8pc8v9okbrd34",528,"98.csv","","null","resources/images/coin2.png","null","",NA,NA,NA,NA,""
"image-keyboard-response",488,379264,"0.0-3.159-0.159","oz8pc8v9okbrd34",528,"98.csv","","468.5999984741211","resources/trios/L1T2A3.jpg","38","restless",0.6,0.5,0.4,0.644373629223348,"false"
"image-keyboard-response",489,379670,"0.0-3.159-1.159","oz8pc8v9okbrd34",528,"98.csv","","null","resources/maskTrios/BT2B.jpg","null","",NA,NA,NA,NA,""
"image-keyboard-response",490,380880,"0.0-3.159-2.159","oz8pc8v9okbrd34",528,"98.csv","","null","resources/images/fishbone.png","null","",NA,NA,NA,NA,""
"image-keyboard-response",491,381632,"0.0-3.160-0.160","oz8pc8v9okbrd34",528,"98.csv","","750.2999992370605","resources/trios/L1T2A3.jpg","38","restless",0.6,0.5,0.4,0.135626387484891,"true"
"image-keyboard-response",492,382050,"0.0-3.160-1.160","oz8pc8v9okbrd34",528,"98.csv","","null","resources/maskTrios/BT2B.jpg","null","",NA,NA,NA,NA,""
"image-keyboard-response",493,383270,"0.0-3.160-2.160","oz8pc8v9okbrd34",528,"98.csv","","null","resources/images/coin2.png","null","",NA,NA,NA,NA,""
"image-keyboard-response",494,385208,"0.0-3.161-0.161","oz8pc8v9okbrd34",528,"98.csv","","1935","resources/trios/L1T2A3.jpg","38","restless",0.6,0.5,0.4,0.508945545985326,"false"
"image-keyboard-response",495,385614,"0.0-3.161-1.161","oz8pc8v9okbrd34",528,"98.csv","","null","resources/maskTrios/BT2B.jpg","null","",NA,NA,NA,NA,""
"image-keyboard-response",496,386825,"0.0-3.161-2.161","oz8pc8v9okbrd34",528,"98.csv","","null","resources/images/fishbone.png","null","",NA,NA,NA,NA,""
"image-keyboard-response",497,387487,"0.0-3.162-0.162","oz8pc8v9okbrd34",528,"98.csv","","659","resources/trios/L1T2A3.jpg","37","restless",0.6,0.5,0.4,0.630277898312773,"false"
"image-keyboard-response",498,387900,"0.0-3.162-1.162","oz8pc8v9okbrd34",528,"98.csv","","null","resources/maskTrios/L1BB.jpg","null","",NA,NA,NA,NA,""
"image-keyboard-response",499,389120,"0.0-3.162-2.162","oz8pc8v9okbrd34",528,"98.csv","","null","resources/images/fishbone.png","null","",NA,NA,NA,NA,""
"image-keyboard-response",500,389396,"0.0-3.163-0.163","oz8pc8v9okbrd34",528,"98.csv","","274.29999923706055","resources/trios/L4T1A3.jpg","38","restless",0.6,0.5,0.5,0.402755990521462,"true"
"image-keyboard-response",501,389801,"0.0-3.163-1.163","oz8pc8v9okbrd34",528,"98.csv","","null","resources/maskTrios/BT1B.jpg","null","",NA,NA,NA,NA,""
"image-keyboard-response",502,391009,"0.0-3.163-2.163","oz8pc8v9okbrd34",528,"98.csv","","null","resources/images/coin2.png","null","",NA,NA,NA,NA,""
"image-keyboard-response",503,391268,"0.0-3.164-0.164","oz8pc8v9okbrd34",528,"98.csv","","256.39999771118164","resources/trios/L4T1A3.jpg","38","restless",0.6,0.5,0.5,0.0848272652843871,"true"
"image-keyboard-response",504,391680,"0.0-3.164-1.164","oz8pc8v9okbrd34",528,"98.csv","","null","resources/maskTrios/BT1B.jpg","null","",NA,NA,NA,NA,""
"image-keyboard-response",505,392899,"0.0-3.164-2.164","oz8pc8v9okbrd34",528,"98.csv","","null","resources/images/coin2.png","null","",NA,NA,NA,NA,""
"image-keyboard-response",506,393115,"0.0-3.165-0.165","oz8pc8v9okbrd34",528,"98.csv","","212.79999923706055","resources/trios/L4T2A1.jpg","38","restless",0.6,0.4,0.5,0.410319662886535,"false"
"image-keyboard-response",507,393530,"0.0-3.165-1.165","oz8pc8v9okbrd34",528,"98.csv","","null","resources/maskTrios/BT2B.jpg","null","",NA,NA,NA,NA,""
"image-keyboard-response",508,394750,"0.0-3.165-2.165","oz8pc8v9okbrd34",528,"98.csv","","null","resources/images/fishbone.png","null","",NA,NA,NA,NA,""
"image-keyboard-response",509,394847,"0.0-3.166-0.166","oz8pc8v9okbrd34",528,"98.csv","","94.5","resources/trios/L4T2A1.jpg","38","restless",0.6,0.4,0.5,0.282361700143927,"true"
"image-keyboard-response",510,395260,"0.0-3.166-1.166","oz8pc8v9okbrd34",528,"98.csv","","null","resources/maskTrios/BT2B.jpg","null","",NA,NA,NA,NA,""
"image-keyboard-response",511,396470,"0.0-3.166-2.166","oz8pc8v9okbrd34",528,"98.csv","","null","resources/images/coin2.png","null","",NA,NA,NA,NA,""
"image-keyboard-response",512,396658,"0.0-3.167-0.167","oz8pc8v9okbrd34",528,"98.csv","","181","resources/trios/L4T2A1.jpg","38","restless",0.6,0.4,0.5,0.301049672466292,"true"
"image-keyboard-response",513,397069,"0.0-3.167-1.167","oz8pc8v9okbrd34",528,"98.csv","","null","resources/maskTrios/BT2B.jpg","null","",NA,NA,NA,NA,""
"image-keyboard-response",514,398280,"0.0-3.167-2.167","oz8pc8v9okbrd34",528,"98.csv","","null","resources/images/coin2.png","null","",NA,NA,NA,NA,""
"image-keyboard-response",515,398785,"0.0-3.168-0.168","oz8pc8v9okbrd34",528,"98.csv","","504","resources/trios/L4T1A1.jpg","38","restless",0.6,0.4,0.5,0.742123975091112,"false"
"image-keyboard-response",516,399200,"0.0-3.168-1.168","oz8pc8v9okbrd34",528,"98.csv","","null","resources/maskTrios/BT1B.jpg","null","",NA,NA,NA,NA,""
"image-keyboard-response",517,400420,"0.0-3.168-2.168","oz8pc8v9okbrd34",528,"98.csv","","null","resources/images/fishbone.png","null","",NA,NA,NA,NA,""
"image-keyboard-response",518,400565,"0.0-3.169-0.169","oz8pc8v9okbrd34",528,"98.csv","","143.0999984741211","resources/trios/L1T1A3.jpg","38","restless",0.5,0.4,0.5,0.439500283647727,"false"
"image-keyboard-response",519,400979,"0.0-3.169-1.169","oz8pc8v9okbrd34",528,"98.csv","","null","resources/maskTrios/BT1B.jpg","null","",NA,NA,NA,NA,""
"image-keyboard-response",520,402200,"0.0-3.169-2.169","oz8pc8v9okbrd34",528,"98.csv","","null","resources/images/fishbone.png","null","",NA,NA,NA,NA,""
"image-keyboard-response",521,402234,"0.0-3.170-0.170","oz8pc8v9okbrd34",528,"98.csv","","31.099998474121094","resources/trios/L4T2A1.jpg","38","restless",0.5,0.4,0.6,0.913314133657389,"false"
"image-keyboard-response",522,402650,"0.0-3.170-1.170","oz8pc8v9okbrd34",528,"98.csv","","null","resources/maskTrios/BT2B.jpg","null","",NA,NA,NA,NA,""
"image-keyboard-response",523,403869,"0.0-3.170-2.170","oz8pc8v9okbrd34",528,"98.csv","","null","resources/images/fishbone.png","null","",NA,NA,NA,NA,""
"image-keyboard-response",524,404814,"0.0-3.171-0.171","oz8pc8v9okbrd34",528,"98.csv","","942.4000015258789","resources/trios/L4T2A1.jpg","39","restless",0.5,0.4,0.6,0.99419327368354,"false"
"image-keyboard-response",525,405219,"0.0-3.171-1.171","oz8pc8v9okbrd34",528,"98.csv","","null","resources/maskTrios/BBA1.jpg","null","",NA,NA,NA,NA,""
"image-keyboard-response",526,406435,"0.0-3.171-2.171","oz8pc8v9okbrd34",528,"98.csv","","null","resources/images/fishbone.png","null","",NA,NA,NA,NA,""
"image-keyboard-response",527,407487,"0.0-3.172-0.172","oz8pc8v9okbrd34",528,"98.csv","","1049.8000030517578","resources/trios/L4T1A1.jpg","39","restless",0.5,0.5,0.6,0.343245072993835,"true"
"image-keyboard-response",528,407899,"0.0-3.172-1.172","oz8pc8v9okbrd34",528,"98.csv","","null","resources/maskTrios/BBA1.jpg","null","",NA,NA,NA,NA,""
"image-keyboard-response",529,409120,"0.0-3.172-2.172","oz8pc8v9okbrd34",528,"98.csv","","null","resources/images/coin2.png","null","",NA,NA,NA,NA,""
"image-keyboard-response",530,410247,"0.0-3.173-0.173","oz8pc8v9okbrd34",528,"98.csv","","1123.7000007629395","resources/trios/L4T1A3.jpg","39","restless",0.5,0.5,0.6,0.0837896485782885,"true"
"image-keyboard-response",531,410670,"0.0-3.173-1.173","oz8pc8v9okbrd34",528,"98.csv","","null","resources/maskTrios/BBA3.jpg","null","",NA,NA,NA,NA,""
"image-keyboard-response",532,411874,"0.0-3.173-2.173","oz8pc8v9okbrd34",528,"98.csv","","null","resources/images/coin2.png","null","",NA,NA,NA,NA,""
"image-keyboard-response",533,412849,"0.0-3.174-0.174","oz8pc8v9okbrd34",528,"98.csv","","972","resources/trios/L4T2A3.jpg","39","restless",0.5,0.5,0.6,0.358766896779442,"true"
"image-keyboard-response",534,413255,"0.0-3.174-1.174","oz8pc8v9okbrd34",528,"98.csv","","null","resources/maskTrios/BBA3.jpg","null","",NA,NA,NA,NA,""
"image-keyboard-response",535,414460,"0.0-3.174-2.174","oz8pc8v9okbrd34",528,"98.csv","","null","resources/images/coin2.png","null","",NA,NA,NA,NA,""
"image-keyboard-response",536,415672,"0.0-3.175-0.175","oz8pc8v9okbrd34",528,"98.csv","","1208.599998474121","resources/trios/L1T2A1.jpg","38","restless",0.4,0.5,0.6,0.853722894266211,"false"
"image-keyboard-response",537,416090,"0.0-3.175-1.175","oz8pc8v9okbrd34",528,"98.csv","","null","resources/maskTrios/BT2B.jpg","null","",NA,NA,NA,NA,""
"image-keyboard-response",538,417306,"0.0-3.175-2.175","oz8pc8v9okbrd34",528,"98.csv","","null","resources/images/fishbone.png","null","",NA,NA,NA,NA,""
"image-keyboard-response",539,417968,"0.0-3.176-0.176","oz8pc8v9okbrd34",528,"98.csv","","659","resources/trios/L4T2A3.jpg","38","restless",0.4,0.5,0.6,0.282838709770158,"true"
"image-keyboard-response",540,418380,"0.0-3.176-1.176","oz8pc8v9okbrd34",528,"98.csv","","null","resources/maskTrios/BT2B.jpg","null","",NA,NA,NA,NA,""
"image-keyboard-response",541,419591,"0.0-3.176-2.176","oz8pc8v9okbrd34",528,"98.csv","","null","resources/images/coin2.png","null","",NA,NA,NA,NA,""
"image-keyboard-response",542,421087,"0.0-3.177-0.177","oz8pc8v9okbrd34",528,"98.csv","","1493.8000030517578","resources/trios/L1T2A1.jpg","38","restless",0.4,0.5,0.6,0.326211596479999,"true"
"image-keyboard-response",543,421510,"0.0-3.177-1.177","oz8pc8v9okbrd34",528,"98.csv","","null","resources/maskTrios/BT2B.jpg","null","",NA,NA,NA,NA,""
"image-keyboard-response",544,422720,"0.0-3.177-2.177","oz8pc8v9okbrd34",528,"98.csv","","null","resources/images/coin2.png","null","",NA,NA,NA,NA,""
"image-keyboard-response",545,424300,"0.0-3.178-0.178","oz8pc8v9okbrd34",528,"98.csv","","1577.8999977111816","resources/trios/L4T1A1.jpg","39","restless",0.4,0.5,0.6,0.530671262700419,"true"
"image-keyboard-response",546,424720,"0.0-3.178-1.178","oz8pc8v9okbrd34",528,"98.csv","","null","resources/maskTrios/BBA1.jpg","null","",NA,NA,NA,NA,""
"image-keyboard-response",547,425942,"0.0-3.178-2.178","oz8pc8v9okbrd34",528,"98.csv","","null","resources/images/coin2.png","null","",NA,NA,NA,NA,""
"image-keyboard-response",548,427672,"0.0-3.179-0.179","oz8pc8v9okbrd34",528,"98.csv","","1728.099998474121","resources/trios/L4T1A1.jpg","39","restless",0.4,0.5,0.6,0.857989161402136,"false"
"image-keyboard-response",549,428080,"0.0-3.179-1.179","oz8pc8v9okbrd34",528,"98.csv","","null","resources/maskTrios/BBA1.jpg","null","",NA,NA,NA,NA,""
"image-keyboard-response",550,429300,"0.0-3.179-2.179","oz8pc8v9okbrd34",528,"98.csv","","null","resources/images/fishbone.png","null","",NA,NA,NA,NA,""
"image-keyboard-response",551,430519,"0.0-3.180-0.180","oz8pc8v9okbrd34",528,"98.csv","","1215.8999977111816","resources/trios/L1T1A3.jpg","39","restless",0.4,0.5,0.6,0.579897382819937,"true"
"image-keyboard-response",552,430930,"0.0-3.180-1.180","oz8pc8v9okbrd34",528,"98.csv","","null","resources/maskTrios/BBA3.jpg","null","",NA,NA,NA,NA,""
"image-keyboard-response",553,432144,"0.0-3.180-2.180","oz8pc8v9okbrd34",528,"98.csv","","null","resources/images/coin2.png","null","",NA,NA,NA,NA,""
"image-keyboard-response",554,433318,"0.0-3.181-0.181","oz8pc8v9okbrd34",528,"98.csv","","1170.7000007629395","resources/trios/L1T2A1.jpg","38","restless",0.4,0.5,0.6,0.633560188191277,"false"
"image-keyboard-response",555,433730,"0.0-3.181-1.181","oz8pc8v9okbrd34",528,"98.csv","","null","resources/maskTrios/BT2B.jpg","null","",NA,NA,NA,NA,""
"image-keyboard-response",556,434940,"0.0-3.181-2.181","oz8pc8v9okbrd34",528,"98.csv","","null","resources/images/fishbone.png","null","",NA,NA,NA,NA,""
"image-keyboard-response",557,438075,"0.0-3.182-0.182","oz8pc8v9okbrd34",528,"98.csv","","3132.2000007629395","resources/trios/L1T2A1.jpg","39","restless",0.4,0.5,0.6,0.423563598191123,"true"
"image-keyboard-response",558,438495,"0.0-3.182-1.182","oz8pc8v9okbrd34",528,"98.csv","","null","resources/maskTrios/BBA1.jpg","null","",NA,NA,NA,NA,""
"image-keyboard-response",559,439710,"0.0-3.182-2.182","oz8pc8v9okbrd34",528,"98.csv","","null","resources/images/coin2.png","null","",NA,NA,NA,NA,""
"image-keyboard-response",560,440817,"0.0-3.183-0.183","oz8pc8v9okbrd34",528,"98.csv","","1104.599998474121","resources/trios/L4T1A1.jpg","39","restless",0.4,0.5,0.6,0.259461740548606,"true"
"image-keyboard-response",561,441230,"0.0-3.183-1.183","oz8pc8v9okbrd34",528,"98.csv","","null","resources/maskTrios/BBA1.jpg","null","",NA,NA,NA,NA,""
"image-keyboard-response",562,442441,"0.0-3.183-2.183","oz8pc8v9okbrd34",528,"98.csv","","null","resources/images/coin2.png","null","",NA,NA,NA,NA,""
"image-keyboard-response",563,444426,"0.0-3.184-0.184","oz8pc8v9okbrd34",528,"98.csv","","1981","resources/trios/L4T1A3.jpg","39","restless",0.4,0.5,0.6,0.229231675878413,"true"
"image-keyboard-response",564,444840,"0.0-3.184-1.184","oz8pc8v9okbrd34",528,"98.csv","","null","resources/maskTrios/BBA3.jpg","null","",NA,NA,NA,NA,""
"image-keyboard-response",565,446044,"0.0-3.184-2.184","oz8pc8v9okbrd34",528,"98.csv","","null","resources/images/coin2.png","null","",NA,NA,NA,NA,""
"image-keyboard-response",566,446946,"0.0-3.185-0.185","oz8pc8v9okbrd34",528,"98.csv","","898.8999977111816","resources/trios/L1T2A1.jpg","39","restless",0.4,0.5,0.6,0.721261220585342,"false"
"image-keyboard-response",567,447361,"0.0-3.185-1.185","oz8pc8v9okbrd34",528,"98.csv","","null","resources/maskTrios/BBA1.jpg","null","",NA,NA,NA,NA,""
"image-keyboard-response",568,448570,"0.0-3.185-2.185","oz8pc8v9okbrd34",528,"98.csv","","null","resources/images/fishbone.png","null","",NA,NA,NA,NA,""
"image-keyboard-response",569,450392,"0.0-3.186-0.186","oz8pc8v9okbrd34",528,"98.csv","","1819.7999992370605","resources/trios/L1T1A1.jpg","39","restless",0.4,0.4,0.6,0.983841804797713,"false"
"image-keyboard-response",570,450810,"0.0-3.186-1.186","oz8pc8v9okbrd34",528,"98.csv","","null","resources/maskTrios/BBA1.jpg","null","",NA,NA,NA,NA,""
"image-keyboard-response",571,452030,"0.0-3.186-2.186","oz8pc8v9okbrd34",528,"98.csv","","null","resources/images/fishbone.png","null","",NA,NA,NA,NA,""
"image-keyboard-response",572,456910,"0.0-3.187-0.187","oz8pc8v9okbrd34",528,"98.csv","","4877.100002288818","resources/trios/L4T2A3.jpg","39","restless",0.4,0.4,0.6,0.835580546774477,"false"
"image-keyboard-response",573,457330,"0.0-3.187-1.187","oz8pc8v9okbrd34",528,"98.csv","","null","resources/maskTrios/BBA3.jpg","null","",NA,NA,NA,NA,""
"image-keyboard-response",574,458550,"0.0-3.187-2.187","oz8pc8v9okbrd34",528,"98.csv","","null","resources/images/fishbone.png","null","",NA,NA,NA,NA,""
"image-keyboard-response",575,459589,"0.0-3.188-0.188","oz8pc8v9okbrd34",528,"98.csv","","1036.599998474121","resources/trios/L4T1A1.jpg","38","restless",0.4,0.4,0.6,0.326347637333671,"true"
"image-keyboard-response",576,460010,"0.0-3.188-1.188","oz8pc8v9okbrd34",528,"98.csv","","null","resources/maskTrios/BT1B.jpg","null","",NA,NA,NA,NA,""
"image-keyboard-response",577,461220,"0.0-3.188-2.188","oz8pc8v9okbrd34",528,"98.csv","","null","resources/images/coin2.png","null","",NA,NA,NA,NA,""
"image-keyboard-response",578,462272,"0.0-3.189-0.189","oz8pc8v9okbrd34",528,"98.csv","","1049.5","resources/trios/L4T2A3.jpg","38","restless",0.4,0.4,0.5,0.711612162381374,"false"
"image-keyboard-response",579,462680,"0.0-3.189-1.189","oz8pc8v9okbrd34",528,"98.csv","","null","resources/maskTrios/BT2B.jpg","null","",NA,NA,NA,NA,""
"image-keyboard-response",580,463897,"0.0-3.189-2.189","oz8pc8v9okbrd34",528,"98.csv","","null","resources/images/fishbone.png","null","",NA,NA,NA,NA,""
"image-keyboard-response",581,464375,"0.0-3.190-0.190","oz8pc8v9okbrd34",528,"98.csv","","475.4000015258789","resources/trios/L1T2A1.jpg","39","restless",0.4,0.4,0.4,0.169005474538112,"true"
"image-keyboard-response",582,464800,"0.0-3.190-1.190","oz8pc8v9okbrd34",528,"98.csv","","null","resources/maskTrios/BBA1.jpg","null","",NA,NA,NA,NA,""
"image-keyboard-response",583,466011,"0.0-3.190-2.190","oz8pc8v9okbrd34",528,"98.csv","","null","resources/images/coin2.png","null","",NA,NA,NA,NA,""
"image-keyboard-response",584,466602,"0.0-3.191-0.191","oz8pc8v9okbrd34",528,"98.csv","","588.5","resources/trios/L1T1A3.jpg","39","restless",0.4,0.4,0.4,0.534192675500063,"false"
"image-keyboard-response",585,467010,"0.0-3.191-1.191","oz8pc8v9okbrd34",528,"98.csv","","null","resources/maskTrios/BBA3.jpg","null","",NA,NA,NA,NA,""
"image-keyboard-response",586,468220,"0.0-3.191-2.191","oz8pc8v9okbrd34",528,"98.csv","","null","resources/images/fishbone.png","null","",NA,NA,NA,NA,""
"image-keyboard-response",587,468717,"0.0-3.192-0.192","oz8pc8v9okbrd34",528,"98.csv","","494.5999984741211","resources/trios/L1T2A1.jpg","38","restless",0.4,0.3,0.4,0.225364155938438,"true"
"image-keyboard-response",588,469131,"0.0-3.192-1.192","oz8pc8v9okbrd34",528,"98.csv","","null","resources/maskTrios/BT2B.jpg","null","",NA,NA,NA,NA,""
"image-keyboard-response",589,470342,"0.0-3.192-2.192","oz8pc8v9okbrd34",528,"98.csv","","null","resources/images/coin2.png","null","",NA,NA,NA,NA,""
"image-keyboard-response",590,470893,"0.0-3.193-0.193","oz8pc8v9okbrd34",528,"98.csv","","545.2000007629395","resources/trios/L4T2A3.jpg","38","restless",0.4,0.3,0.4,0.724654450978328,"false"
"image-keyboard-response",591,471300,"0.0-3.193-1.193","oz8pc8v9okbrd34",528,"98.csv","","null","resources/maskTrios/BT2B.jpg","null","",NA,NA,NA,NA,""
"image-keyboard-response",592,472511,"0.0-3.193-2.193","oz8pc8v9okbrd34",528,"98.csv","","null","resources/images/fishbone.png","null","",NA,NA,NA,NA,""
"image-keyboard-response",593,472849,"0.0-3.194-0.194","oz8pc8v9okbrd34",528,"98.csv","","335.5","resources/trios/L1T2A3.jpg","38","restless",0.4,0.3,0.4,0.910567196783282,"false"
"image-keyboard-response",594,473256,"0.0-3.194-1.194","oz8pc8v9okbrd34",528,"98.csv","","null","resources/maskTrios/BT2B.jpg","null","",NA,NA,NA,NA,""
"image-keyboard-response",595,474470,"0.0-3.194-2.194","oz8pc8v9okbrd34",528,"98.csv","","null","resources/images/fishbone.png","null","",NA,NA,NA,NA,""
"image-keyboard-response",596,474768,"0.0-3.195-0.195","oz8pc8v9okbrd34",528,"98.csv","","296.5","resources/trios/L1T2A1.jpg","38","restless",0.4,0.4,0.4,0.712963876136174,"false"
"image-keyboard-response",597,475181,"0.0-3.195-1.195","oz8pc8v9okbrd34",528,"98.csv","","null","resources/maskTrios/BT2B.jpg","null","",NA,NA,NA,NA,""
"image-keyboard-response",598,476390,"0.0-3.195-2.195","oz8pc8v9okbrd34",528,"98.csv","","null","resources/images/fishbone.png","null","",NA,NA,NA,NA,""
"image-keyboard-response",599,476865,"0.0-3.196-0.196","oz8pc8v9okbrd34",528,"98.csv","","472.29999923706055","resources/trios/L1T1A1.jpg","39","restless",0.4,0.4,0.4,0.501620207350242,"false"
"image-keyboard-response",600,477269,"0.0-3.196-1.196","oz8pc8v9okbrd34",528,"98.csv","","null","resources/maskTrios/BBA1.jpg","null","",NA,NA,NA,NA,""
"image-keyboard-response",601,478475,"0.0-3.196-2.196","oz8pc8v9okbrd34",528,"98.csv","","null","resources/images/fishbone.png","null","",NA,NA,NA,NA,""
"image-keyboard-response",602,478761,"0.0-3.197-0.197","oz8pc8v9okbrd34",528,"98.csv","","284.10000228881836","resources/trios/L4T1A3.jpg","37","restless",0.4,0.4,0.3,0.0960493512211236,"true"
"image-keyboard-response",603,479170,"0.0-3.197-1.197","oz8pc8v9okbrd34",528,"98.csv","","null","resources/maskTrios/L4BB.jpg","null","",NA,NA,NA,NA,""
"image-keyboard-response",604,480390,"0.0-3.197-2.197","oz8pc8v9okbrd34",528,"98.csv","","null","resources/images/coin2.png","null","",NA,NA,NA,NA,""
"image-keyboard-response",605,481608,"0.0-3.198-0.198","oz8pc8v9okbrd34",528,"98.csv","","1215.2999992370605","resources/trios/L1T2A1.jpg","37","restless",0.4,0.4,0.3,0.900327181296135,"false"
"image-keyboard-response",606,482029,"0.0-3.198-1.198","oz8pc8v9okbrd34",528,"98.csv","","null","resources/maskTrios/L1BB.jpg","null","",NA,NA,NA,NA,""
"image-keyboard-response",607,483238,"0.0-3.198-2.198","oz8pc8v9okbrd34",528,"98.csv","","null","resources/images/fishbone.png","null","",NA,NA,NA,NA,""
"image-keyboard-response",608,483999,"0.0-3.199-0.199","oz8pc8v9okbrd34",528,"98.csv","","759.7999992370605","resources/trios/L4T1A3.jpg","38","restless",0.4,0.4,0.3,0.258011395488326,"true"
"image-keyboard-response",609,484410,"0.0-3.199-1.199","oz8pc8v9okbrd34",528,"98.csv","","null","resources/maskTrios/BT1B.jpg","null","",NA,NA,NA,NA,""
