"trial_type","trial_index","time_elapsed","internal_node_id","subject","participantCode","walkNumber","success","rt","stimulus","key_press","test_part","leftProb","midProb","rightProb","generatedNum","correct"
"pavlovia",0,1304,"0.0-0.0","8f78wor05r9dn3u",943,"167.csv","","","","","",NA,NA,NA,NA,""
"fullscreen",1,409573,"0.0-1.0","8f78wor05r9dn3u",943,"167.csv","true","","","","",NA,NA,NA,NA,""
"html-keyboard-response",2,427893,"0.0-2.0-0.0","8f78wor05r9dn3u",943,"167.csv","","18318.40000000596","<p><font size='6'>Arrrgh!</p></font><p>Can you be the best pirate? Try to find lots of gold! But beware, some islands have more gold than others, and over time, the island with the most gold may change. Can YOU figure it out? </p><font size='6'>GOOD LUCK, CAPTAIN!!!</font><p>Press any key to begin</p>","32","",NA,NA,NA,NA,""
"image-keyboard-response",3,430898,"0.0-2.0-1.0","8f78wor05r9dn3u",943,"167.csv","","null","resources/image_sets/111.png","null","",NA,NA,NA,NA,""
"image-keyboard-response",4,444203,"0.0-2.0-2.0","8f78wor05r9dn3u",943,"167.csv","","13303.700000017881","resources/image_sets/left_highlight.png","37","",NA,NA,NA,NA,""
"image-keyboard-response",5,452789,"0.0-2.0-3.0","8f78wor05r9dn3u",943,"167.csv","","8585.200000017881","resources/image_sets/mid_highlight.png","38","",NA,NA,NA,NA,""
"image-keyboard-response",6,454750,"0.0-2.0-4.0","8f78wor05r9dn3u",943,"167.csv","","1960.4000000059605","resources/image_sets/right_highlight.png","39","",NA,NA,NA,NA,""
"image-keyboard-response",7,459154,"0.0-2.0-5.0","8f78wor05r9dn3u",943,"167.csv","","4403","resources/image_sets/111.png","13","",NA,NA,NA,NA,""
"image-keyboard-response",8,462358,"0.0-2.0-6.0","8f78wor05r9dn3u",943,"167.csv","","3203.300000011921","resources/images/coin2.png","13","",NA,NA,NA,NA,""
"image-keyboard-response",9,465257,"0.0-2.0-7.0","8f78wor05r9dn3u",943,"167.csv","","2898.7000000178814","resources/images/fishbone.png","13","",NA,NA,NA,NA,""
"html-keyboard-response",10,468065,"0.0-2.0-8.0","8f78wor05r9dn3u",943,"167.csv","","2806.5999999940395","<p>Your first journey will be a long one, but you will get a well deserved break at the end</p><p>After the break you will have four more journeys, but each will be much shorter than the first, and you will have breaks in between each</p><p>Press Enter to begin</p>","13","",NA,NA,NA,NA,""
"image-keyboard-response",11,470899,"0.0-3.0-0.0","8f78wor05r9dn3u",943,"167.csv","","2832","resources/trios/L4T2A1.jpg","38","restless",0.9,0.3,0.7,0.698415430577458,"false"
"image-keyboard-response",12,471306,"0.0-3.0-1.0","8f78wor05r9dn3u",943,"167.csv","","null","resources/maskTrios/BT2B.jpg","null","",NA,NA,NA,NA,""
"image-keyboard-response",13,472510,"0.0-3.0-2.0","8f78wor05r9dn3u",943,"167.csv","","null","resources/images/fishbone.png","null","",NA,NA,NA,NA,""
"image-keyboard-response",14,476621,"0.0-3.1-0.1","8f78wor05r9dn3u",943,"167.csv","","4108.5999999940395","resources/trios/L2T4A3.jpg","37","restless",0.9,0.3,0.8,0.262793915487521,"true"
"image-keyboard-response",15,477022,"0.0-3.1-1.1","8f78wor05r9dn3u",943,"167.csv","","null","resources/maskTrios/L2BB.jpg","null","",NA,NA,NA,NA,""
"image-keyboard-response",16,478227,"0.0-3.1-2.1","8f78wor05r9dn3u",943,"167.csv","","null","resources/images/coin2.png","null","",NA,NA,NA,NA,""
"image-keyboard-response",17,481162,"0.0-3.2-0.2","8f78wor05r9dn3u",943,"167.csv","","2933.600000023842","resources/trios/L2T4A3.jpg","37","restless",0.9,0.3,0.8,0.281057210411642,"true"
"image-keyboard-response",18,481569,"0.0-3.2-1.2","8f78wor05r9dn3u",943,"167.csv","","null","resources/maskTrios/L2BB.jpg","null","",NA,NA,NA,NA,""
"image-keyboard-response",19,482772,"0.0-3.2-2.2","8f78wor05r9dn3u",943,"167.csv","","null","resources/images/coin2.png","null","",NA,NA,NA,NA,""
"image-keyboard-response",20,486029,"0.0-3.3-0.3","8f78wor05r9dn3u",943,"167.csv","","3256.2000000178814","resources/trios/L4T2A1.jpg","38","restless",0.9,0.3,0.8,0.151097805797921,"true"
"image-keyboard-response",21,486436,"0.0-3.3-1.3","8f78wor05r9dn3u",943,"167.csv","","null","resources/maskTrios/BT2B.jpg","null","",NA,NA,NA,NA,""
"image-keyboard-response",22,487643,"0.0-3.3-2.3","8f78wor05r9dn3u",943,"167.csv","","null","resources/images/coin2.png","null","",NA,NA,NA,NA,""
"image-keyboard-response",23,489555,"0.0-3.4-0.4","8f78wor05r9dn3u",943,"167.csv","","1910.7000000178814","resources/trios/L4T4A3.jpg","38","restless",0.8,0.3,0.8,0.893062176304393,"false"
"image-keyboard-response",24,489960,"0.0-3.4-1.4","8f78wor05r9dn3u",943,"167.csv","","null","resources/maskTrios/BT4B.jpg","null","",NA,NA,NA,NA,""
"image-keyboard-response",25,491163,"0.0-3.4-2.4","8f78wor05r9dn3u",943,"167.csv","","null","resources/images/fishbone.png","null","",NA,NA,NA,NA,""
"image-keyboard-response",26,492061,"0.0-3.5-0.5","8f78wor05r9dn3u",943,"167.csv","","896.3999999761581","resources/trios/L4T2A1.jpg","38","restless",0.8,0.4,0.8,0.461613384896236,"false"
"image-keyboard-response",27,492462,"0.0-3.5-1.5","8f78wor05r9dn3u",943,"167.csv","","null","resources/maskTrios/BT2B.jpg","null","",NA,NA,NA,NA,""
"image-keyboard-response",28,493664,"0.0-3.5-2.5","8f78wor05r9dn3u",943,"167.csv","","null","resources/images/fishbone.png","null","",NA,NA,NA,NA,""
"image-keyboard-response",29,495991,"0.0-3.6-0.6","8f78wor05r9dn3u",943,"167.csv","","2325.5999999940395","resources/trios/L4T4A3.jpg","37","restless",0.8,0.4,0.8,0.555395686775988,"true"
"image-keyboard-response",30,496393,"0.0-3.6-1.6","8f78wor05r9dn3u",943,"167.csv","","null","resources/maskTrios/L4BB.jpg","null","",NA,NA,NA,NA,""
"image-keyboard-response",31,497600,"0.0-3.6-2.6","8f78wor05r9dn3u",943,"167.csv","","null","resources/images/coin2.png","null","",NA,NA,NA,NA,""
"image-keyboard-response",32,501939,"0.0-3.7-0.7","8f78wor05r9dn3u",943,"167.csv","","4338.0999999940395","resources/trios/L4T2A1.jpg","38","restless",0.7,0.4,0.8,0.896434227492677,"false"
"image-keyboard-response",33,502342,"0.0-3.7-1.7","8f78wor05r9dn3u",943,"167.csv","","null","resources/maskTrios/BT2B.jpg","null","",NA,NA,NA,NA,""
"image-keyboard-response",34,503545,"0.0-3.7-2.7","8f78wor05r9dn3u",943,"167.csv","","null","resources/images/fishbone.png","null","",NA,NA,NA,NA,""
"image-keyboard-response",35,506604,"0.0-3.8-0.8","8f78wor05r9dn3u",943,"167.csv","","3057.4000000059605","resources/trios/L4T4A3.jpg","37","restless",0.7,0.3,0.8,0.61827649444618,"true"
"image-keyboard-response",36,507006,"0.0-3.8-1.8","8f78wor05r9dn3u",943,"167.csv","","null","resources/maskTrios/L4BB.jpg","null","",NA,NA,NA,NA,""
"image-keyboard-response",37,508207,"0.0-3.8-2.8","8f78wor05r9dn3u",943,"167.csv","","null","resources/images/coin2.png","null","",NA,NA,NA,NA,""
"image-keyboard-response",38,510320,"0.0-3.9-0.9","8f78wor05r9dn3u",943,"167.csv","","2111.800000011921","resources/trios/L4T2A1.jpg","37","restless",0.6,0.3,0.8,0.296961899383731,"true"
"image-keyboard-response",39,510726,"0.0-3.9-1.9","8f78wor05r9dn3u",943,"167.csv","","null","resources/maskTrios/L4BB.jpg","null","",NA,NA,NA,NA,""
"image-keyboard-response",40,511933,"0.0-3.9-2.9","8f78wor05r9dn3u",943,"167.csv","","null","resources/images/coin2.png","null","",NA,NA,NA,NA,""
"image-keyboard-response",41,514067,"0.0-3.10-0.10","8f78wor05r9dn3u",943,"167.csv","","2133.0999999940395","resources/trios/L4T2A3.jpg","37","restless",0.6,0.3,0.8,0.477533248637735,"true"
"image-keyboard-response",42,514469,"0.0-3.10-1.10","8f78wor05r9dn3u",943,"167.csv","","null","resources/maskTrios/L4BB.jpg","null","",NA,NA,NA,NA,""
"image-keyboard-response",43,515676,"0.0-3.10-2.10","8f78wor05r9dn3u",943,"167.csv","","null","resources/images/coin2.png","null","",NA,NA,NA,NA,""
"image-keyboard-response",44,519252,"0.0-3.11-0.11","8f78wor05r9dn3u",943,"167.csv","","3575.300000011921","resources/trios/L2T2A1.jpg","37","restless",0.6,0.3,0.8,0.225823272304173,"true"
"image-keyboard-response",45,519655,"0.0-3.11-1.11","8f78wor05r9dn3u",943,"167.csv","","null","resources/maskTrios/L2BB.jpg","null","",NA,NA,NA,NA,""
"image-keyboard-response",46,520857,"0.0-3.11-2.11","8f78wor05r9dn3u",943,"167.csv","","null","resources/images/coin2.png","null","",NA,NA,NA,NA,""
"image-keyboard-response",47,523036,"0.0-3.12-0.12","8f78wor05r9dn3u",943,"167.csv","","2178.0999999940395","resources/trios/L4T2A3.jpg","37","restless",0.6,0.3,0.8,0.0653300512307355,"true"
"image-keyboard-response",48,523442,"0.0-3.12-1.12","8f78wor05r9dn3u",943,"167.csv","","null","resources/maskTrios/L4BB.jpg","null","",NA,NA,NA,NA,""
"image-keyboard-response",49,524649,"0.0-3.12-2.12","8f78wor05r9dn3u",943,"167.csv","","null","resources/images/coin2.png","null","",NA,NA,NA,NA,""
"image-keyboard-response",50,525425,"0.0-3.13-0.13","8f78wor05r9dn3u",943,"167.csv","","774.1999999880791","resources/trios/L4T4A1.jpg","37","restless",0.6,0.3,0.8,0.633197759493564,"false"
"image-keyboard-response",51,525831,"0.0-3.13-1.13","8f78wor05r9dn3u",943,"167.csv","","null","resources/maskTrios/L4BB.jpg","null","",NA,NA,NA,NA,""
"image-keyboard-response",52,527038,"0.0-3.13-2.13","8f78wor05r9dn3u",943,"167.csv","","null","resources/images/fishbone.png","null","",NA,NA,NA,NA,""
"image-keyboard-response",53,527923,"0.0-3.14-0.14","8f78wor05r9dn3u",943,"167.csv","","883.5","resources/trios/L4T2A1.jpg","38","restless",0.6,0.3,0.8,0.915525487428549,"false"
"image-keyboard-response",54,528325,"0.0-3.14-1.14","8f78wor05r9dn3u",943,"167.csv","","null","resources/maskTrios/BT2B.jpg","null","",NA,NA,NA,NA,""
"image-keyboard-response",55,529531,"0.0-3.14-2.14","8f78wor05r9dn3u",943,"167.csv","","null","resources/images/fishbone.png","null","",NA,NA,NA,NA,""
"image-keyboard-response",56,530220,"0.0-3.15-0.15","8f78wor05r9dn3u",943,"167.csv","","687.9000000059605","resources/trios/L2T4A3.jpg","39","restless",0.6,0.3,0.8,0.627111144091117,"true"
"image-keyboard-response",57,530622,"0.0-3.15-1.15","8f78wor05r9dn3u",943,"167.csv","","null","resources/maskTrios/BBA3.jpg","null","",NA,NA,NA,NA,""
"image-keyboard-response",58,531829,"0.0-3.15-2.15","8f78wor05r9dn3u",943,"167.csv","","null","resources/images/coin2.png","null","",NA,NA,NA,NA,""
"image-keyboard-response",59,532255,"0.0-3.16-0.16","8f78wor05r9dn3u",943,"167.csv","","423.69999998807907","resources/trios/L4T4A1.jpg","39","restless",0.6,0.3,0.8,0.350988098214672,"true"
"image-keyboard-response",60,532656,"0.0-3.16-1.16","8f78wor05r9dn3u",943,"167.csv","","null","resources/maskTrios/BBA1.jpg","null","",NA,NA,NA,NA,""
"image-keyboard-response",61,533860,"0.0-3.16-2.16","8f78wor05r9dn3u",943,"167.csv","","null","resources/images/coin2.png","null","",NA,NA,NA,NA,""
"image-keyboard-response",62,536943,"0.0-3.17-0.17","8f78wor05r9dn3u",943,"167.csv","","3081.9000000059605","resources/trios/L4T2A3.jpg","37","restless",0.6,0.3,0.8,0.0559709509198438,"true"
"image-keyboard-response",63,537349,"0.0-3.17-1.17","8f78wor05r9dn3u",943,"167.csv","","null","resources/maskTrios/L4BB.jpg","null","",NA,NA,NA,NA,""
"image-keyboard-response",64,538556,"0.0-3.17-2.17","8f78wor05r9dn3u",943,"167.csv","","null","resources/images/coin2.png","null","",NA,NA,NA,NA,""
"image-keyboard-response",65,540475,"0.0-3.18-0.18","8f78wor05r9dn3u",943,"167.csv","","1917.199999988079","resources/trios/L2T4A1.jpg","37","restless",0.5,0.3,0.8,0.468888104504692,"true"
"image-keyboard-response",66,540876,"0.0-3.18-1.18","8f78wor05r9dn3u",943,"167.csv","","null","resources/maskTrios/L2BB.jpg","null","",NA,NA,NA,NA,""
"image-keyboard-response",67,542081,"0.0-3.18-2.18","8f78wor05r9dn3u",943,"167.csv","","null","resources/images/coin2.png","null","",NA,NA,NA,NA,""
"image-keyboard-response",68,543334,"0.0-3.19-0.19","8f78wor05r9dn3u",943,"167.csv","","1251.2999999821186","resources/trios/L2T2A1.jpg","37","restless",0.5,0.3,0.8,0.0661812776480513,"true"
"image-keyboard-response",69,543737,"0.0-3.19-1.19","8f78wor05r9dn3u",943,"167.csv","","null","resources/maskTrios/L2BB.jpg","null","",NA,NA,NA,NA,""
"image-keyboard-response",70,544942,"0.0-3.19-2.19","8f78wor05r9dn3u",943,"167.csv","","null","resources/images/coin2.png","null","",NA,NA,NA,NA,""
"image-keyboard-response",71,545528,"0.0-3.20-0.20","8f78wor05r9dn3u",943,"167.csv","","585.1999999880791","resources/trios/L2T2A1.jpg","37","restless",0.5,0.3,0.8,0.880924192102879,"false"
"image-keyboard-response",72,545931,"0.0-3.20-1.20","8f78wor05r9dn3u",943,"167.csv","","null","resources/maskTrios/L2BB.jpg","null","",NA,NA,NA,NA,""
"image-keyboard-response",73,547138,"0.0-3.20-2.20","8f78wor05r9dn3u",943,"167.csv","","null","resources/images/fishbone.png","null","",NA,NA,NA,NA,""
"image-keyboard-response",74,547643,"0.0-3.21-0.21","8f78wor05r9dn3u",943,"167.csv","","503.59999999403954","resources/trios/L4T2A1.jpg","39","restless",0.5,0.2,0.7,0.125591396082532,"true"
"image-keyboard-response",75,548049,"0.0-3.21-1.21","8f78wor05r9dn3u",943,"167.csv","","null","resources/maskTrios/BBA1.jpg","null","",NA,NA,NA,NA,""
"image-keyboard-response",76,549251,"0.0-3.21-2.21","8f78wor05r9dn3u",943,"167.csv","","null","resources/images/coin2.png","null","",NA,NA,NA,NA,""
"image-keyboard-response",77,550597,"0.0-3.22-0.22","8f78wor05r9dn3u",943,"167.csv","","1344.9000000059605","resources/trios/L4T4A1.jpg","37","restless",0.4,0.3,0.7,0.142330576214117,"true"
"image-keyboard-response",78,551001,"0.0-3.22-1.22","8f78wor05r9dn3u",943,"167.csv","","null","resources/maskTrios/L4BB.jpg","null","",NA,NA,NA,NA,""
"image-keyboard-response",79,552207,"0.0-3.22-2.22","8f78wor05r9dn3u",943,"167.csv","","null","resources/images/coin2.png","null","",NA,NA,NA,NA,""
"image-keyboard-response",80,554027,"0.0-3.23-0.23","8f78wor05r9dn3u",943,"167.csv","","1818.5999999940395","resources/trios/L4T2A3.jpg","39","restless",0.4,0.3,0.7,0.888194065933078,"false"
"image-keyboard-response",81,554433,"0.0-3.23-1.23","8f78wor05r9dn3u",943,"167.csv","","null","resources/maskTrios/BBA3.jpg","null","",NA,NA,NA,NA,""
"image-keyboard-response",82,555638,"0.0-3.23-2.23","8f78wor05r9dn3u",943,"167.csv","","null","resources/images/fishbone.png","null","",NA,NA,NA,NA,""
"image-keyboard-response",83,555844,"0.0-3.24-0.24","8f78wor05r9dn3u",943,"167.csv","","204.09999999403954","resources/trios/L2T2A1.jpg","37","restless",0.4,0.2,0.7,0.889791445118112,"false"
"image-keyboard-response",84,556245,"0.0-3.24-1.24","8f78wor05r9dn3u",943,"167.csv","","null","resources/maskTrios/L2BB.jpg","null","",NA,NA,NA,NA,""
"image-keyboard-response",85,557447,"0.0-3.24-2.24","8f78wor05r9dn3u",943,"167.csv","","null","resources/images/fishbone.png","null","",NA,NA,NA,NA,""
"image-keyboard-response",86,557945,"0.0-3.25-0.25","8f78wor05r9dn3u",943,"167.csv","","496.09999999403954","resources/trios/L2T4A1.jpg","38","restless",0.4,0.2,0.7,0.630874235504364,"false"
"image-keyboard-response",87,558347,"0.0-3.25-1.25","8f78wor05r9dn3u",943,"167.csv","","null","resources/maskTrios/BT4B.jpg","null","",NA,NA,NA,NA,""
"image-keyboard-response",88,559553,"0.0-3.25-2.25","8f78wor05r9dn3u",943,"167.csv","","null","resources/images/fishbone.png","null","",NA,NA,NA,NA,""
"image-keyboard-response",89,560301,"0.0-3.26-0.26","8f78wor05r9dn3u",943,"167.csv","","746.7999999821186","resources/trios/L2T2A1.jpg","37","restless",0.4,0.2,0.7,0.965700861588248,"false"
"image-keyboard-response",90,560703,"0.0-3.26-1.26","8f78wor05r9dn3u",943,"167.csv","","null","resources/maskTrios/L2BB.jpg","null","",NA,NA,NA,NA,""
"image-keyboard-response",91,561909,"0.0-3.26-2.26","8f78wor05r9dn3u",943,"167.csv","","null","resources/images/fishbone.png","null","",NA,NA,NA,NA,""
"image-keyboard-response",92,562876,"0.0-3.27-0.27","8f78wor05r9dn3u",943,"167.csv","","965.5","resources/trios/L2T4A1.jpg","37","restless",0.4,0.2,0.7,0.435850199181064,"false"
"image-keyboard-response",93,563277,"0.0-3.27-1.27","8f78wor05r9dn3u",943,"167.csv","","null","resources/maskTrios/L2BB.jpg","null","",NA,NA,NA,NA,""
"image-keyboard-response",94,564483,"0.0-3.27-2.27","8f78wor05r9dn3u",943,"167.csv","","null","resources/images/fishbone.png","null","",NA,NA,NA,NA,""
"image-keyboard-response",95,565017,"0.0-3.28-0.28","8f78wor05r9dn3u",943,"167.csv","","532.1000000238419","resources/trios/L2T2A1.jpg","39","restless",0.5,0.2,0.7,0.570592442587675,"true"
"image-keyboard-response",96,565418,"0.0-3.28-1.28","8f78wor05r9dn3u",943,"167.csv","","null","resources/maskTrios/BBA1.jpg","null","",NA,NA,NA,NA,""
"image-keyboard-response",97,566625,"0.0-3.28-2.28","8f78wor05r9dn3u",943,"167.csv","","null","resources/images/coin2.png","null","",NA,NA,NA,NA,""
"image-keyboard-response",98,569223,"0.0-3.29-0.29","8f78wor05r9dn3u",943,"167.csv","","2596.5999999940395","resources/trios/L2T2A3.jpg","39","restless",0.4,0.2,0.7,0.351074020246666,"true"
"image-keyboard-response",99,569629,"0.0-3.29-1.29","8f78wor05r9dn3u",943,"167.csv","","null","resources/maskTrios/BBA3.jpg","null","",NA,NA,NA,NA,""
"image-keyboard-response",100,570832,"0.0-3.29-2.29","8f78wor05r9dn3u",943,"167.csv","","null","resources/images/coin2.png","null","",NA,NA,NA,NA,""
"image-keyboard-response",101,571940,"0.0-3.30-0.30","8f78wor05r9dn3u",943,"167.csv","","1106.4000000059605","resources/trios/L4T2A3.jpg","39","restless",0.4,0.2,0.8,0.581841089480139,"true"
"image-keyboard-response",102,572346,"0.0-3.30-1.30","8f78wor05r9dn3u",943,"167.csv","","null","resources/maskTrios/BBA3.jpg","null","",NA,NA,NA,NA,""
"image-keyboard-response",103,573553,"0.0-3.30-2.30","8f78wor05r9dn3u",943,"167.csv","","null","resources/images/coin2.png","null","",NA,NA,NA,NA,""
"image-keyboard-response",104,574780,"0.0-3.31-0.31","8f78wor05r9dn3u",943,"167.csv","","1226","resources/trios/L4T4A1.jpg","37","restless",0.4,0.2,0.8,0.674138349922927,"false"
"image-keyboard-response",105,575186,"0.0-3.31-1.31","8f78wor05r9dn3u",943,"167.csv","","null","resources/maskTrios/L4BB.jpg","null","",NA,NA,NA,NA,""
"image-keyboard-response",106,576392,"0.0-3.31-2.31","8f78wor05r9dn3u",943,"167.csv","","null","resources/images/fishbone.png","null","",NA,NA,NA,NA,""
"image-keyboard-response",107,577250,"0.0-3.32-0.32","8f78wor05r9dn3u",943,"167.csv","","856.5999999940395","resources/trios/L2T4A3.jpg","39","restless",0.3,0.2,0.8,0.975548338531119,"false"
"image-keyboard-response",108,577651,"0.0-3.32-1.32","8f78wor05r9dn3u",943,"167.csv","","null","resources/maskTrios/BBA3.jpg","null","",NA,NA,NA,NA,""
"image-keyboard-response",109,578853,"0.0-3.32-2.32","8f78wor05r9dn3u",943,"167.csv","","null","resources/images/fishbone.png","null","",NA,NA,NA,NA,""
"image-keyboard-response",110,579644,"0.0-3.33-0.33","8f78wor05r9dn3u",943,"167.csv","","789.3999999761581","resources/trios/L2T2A3.jpg","37","restless",0.3,0.2,0.7,0.385247115294883,"false"
"image-keyboard-response",111,580051,"0.0-3.33-1.33","8f78wor05r9dn3u",943,"167.csv","","null","resources/maskTrios/L2BB.jpg","null","",NA,NA,NA,NA,""
"image-keyboard-response",112,581257,"0.0-3.33-2.33","8f78wor05r9dn3u",943,"167.csv","","null","resources/images/fishbone.png","null","",NA,NA,NA,NA,""
"image-keyboard-response",113,582005,"0.0-3.34-0.34","8f78wor05r9dn3u",943,"167.csv","","747.0999999940395","resources/trios/L2T4A1.jpg","37","restless",0.2,0.2,0.7,0.386880868598196,"false"
"image-keyboard-response",114,582407,"0.0-3.34-1.34","8f78wor05r9dn3u",943,"167.csv","","null","resources/maskTrios/L2BB.jpg","null","",NA,NA,NA,NA,""
"image-keyboard-response",115,583613,"0.0-3.34-2.34","8f78wor05r9dn3u",943,"167.csv","","null","resources/images/fishbone.png","null","",NA,NA,NA,NA,""
"image-keyboard-response",116,584652,"0.0-3.35-0.35","8f78wor05r9dn3u",943,"167.csv","","1037.300000011921","resources/trios/L2T2A1.jpg","39","restless",0.2,0.2,0.7,0.283417046368688,"true"
"image-keyboard-response",117,585061,"0.0-3.35-1.35","8f78wor05r9dn3u",943,"167.csv","","null","resources/maskTrios/BBA1.jpg","null","",NA,NA,NA,NA,""
"image-keyboard-response",118,586268,"0.0-3.35-2.35","8f78wor05r9dn3u",943,"167.csv","","null","resources/images/coin2.png","null","",NA,NA,NA,NA,""
"image-keyboard-response",119,591571,"0.0-3.36-0.36","8f78wor05r9dn3u",943,"167.csv","","5302","resources/trios/L4T2A1.jpg","37","restless",0.2,0.2,0.7,0.380414023053609,"false"
"image-keyboard-response",120,591977,"0.0-3.36-1.36","8f78wor05r9dn3u",943,"167.csv","","null","resources/maskTrios/L4BB.jpg","null","",NA,NA,NA,NA,""
"image-keyboard-response",121,593180,"0.0-3.36-2.36","8f78wor05r9dn3u",943,"167.csv","","null","resources/images/fishbone.png","null","",NA,NA,NA,NA,""
"image-keyboard-response",122,593996,"0.0-3.37-0.37","8f78wor05r9dn3u",943,"167.csv","","814.5","resources/trios/L2T4A1.jpg","39","restless",0.2,0.2,0.7,0.0757705585903365,"true"
"image-keyboard-response",123,594398,"0.0-3.37-1.37","8f78wor05r9dn3u",943,"167.csv","","null","resources/maskTrios/BBA1.jpg","null","",NA,NA,NA,NA,""
"image-keyboard-response",124,595604,"0.0-3.37-2.37","8f78wor05r9dn3u",943,"167.csv","","null","resources/images/coin2.png","null","",NA,NA,NA,NA,""
"image-keyboard-response",125,597229,"0.0-3.38-0.38","8f78wor05r9dn3u",943,"167.csv","","1624.199999988079","resources/trios/L4T2A1.jpg","38","restless",0.2,0.2,0.7,0.0191009318462245,"true"
"image-keyboard-response",126,597631,"0.0-3.38-1.38","8f78wor05r9dn3u",943,"167.csv","","null","resources/maskTrios/BT2B.jpg","null","",NA,NA,NA,NA,""
"image-keyboard-response",127,598838,"0.0-3.38-2.38","8f78wor05r9dn3u",943,"167.csv","","null","resources/images/coin2.png","null","",NA,NA,NA,NA,""
"image-keyboard-response",128,599424,"0.0-3.39-0.39","8f78wor05r9dn3u",943,"167.csv","","584.9000000059605","resources/trios/L4T2A1.jpg","38","restless",0.3,0.2,0.7,0.397292888282356,"false"
"image-keyboard-response",129,599826,"0.0-3.39-1.39","8f78wor05r9dn3u",943,"167.csv","","null","resources/maskTrios/BT2B.jpg","null","",NA,NA,NA,NA,""
"image-keyboard-response",130,601032,"0.0-3.39-2.39","8f78wor05r9dn3u",943,"167.csv","","null","resources/images/fishbone.png","null","",NA,NA,NA,NA,""
"image-keyboard-response",131,602418,"0.0-3.40-0.40","8f78wor05r9dn3u",943,"167.csv","","1384.5","resources/trios/L2T2A3.jpg","39","restless",0.3,0.2,0.7,0.0754255049210453,"true"
"image-keyboard-response",132,602820,"0.0-3.40-1.40","8f78wor05r9dn3u",943,"167.csv","","null","resources/maskTrios/BBA3.jpg","null","",NA,NA,NA,NA,""
"image-keyboard-response",133,604026,"0.0-3.40-2.40","8f78wor05r9dn3u",943,"167.csv","","null","resources/images/coin2.png","null","",NA,NA,NA,NA,""
"image-keyboard-response",134,606570,"0.0-3.41-0.41","8f78wor05r9dn3u",943,"167.csv","","2543","resources/trios/L2T2A3.jpg","39","restless",0.3,0.1,0.7,0.723714738988668,"false"
"image-keyboard-response",135,606977,"0.0-3.41-1.41","8f78wor05r9dn3u",943,"167.csv","","null","resources/maskTrios/BBA3.jpg","null","",NA,NA,NA,NA,""
"image-keyboard-response",136,608180,"0.0-3.41-2.41","8f78wor05r9dn3u",943,"167.csv","","null","resources/images/fishbone.png","null","",NA,NA,NA,NA,""
"image-keyboard-response",137,609635,"0.0-3.42-0.42","8f78wor05r9dn3u",943,"167.csv","","1452.9000000059605","resources/trios/L2T2A3.jpg","37","restless",0.3,0.1,0.8,0.937130076885959,"false"
"image-keyboard-response",138,610039,"0.0-3.42-1.42","8f78wor05r9dn3u",943,"167.csv","","null","resources/maskTrios/L2BB.jpg","null","",NA,NA,NA,NA,""
"image-keyboard-response",139,611245,"0.0-3.42-2.42","8f78wor05r9dn3u",943,"167.csv","","null","resources/images/fishbone.png","null","",NA,NA,NA,NA,""
"image-keyboard-response",140,612160,"0.0-3.43-0.43","8f78wor05r9dn3u",943,"167.csv","","913.2999999821186","resources/trios/L4T4A1.jpg","39","restless",0.4,0.1,0.8,0.161444272099029,"true"
"image-keyboard-response",141,612566,"0.0-3.43-1.43","8f78wor05r9dn3u",943,"167.csv","","null","resources/maskTrios/BBA1.jpg","null","",NA,NA,NA,NA,""
"image-keyboard-response",142,613769,"0.0-3.43-2.43","8f78wor05r9dn3u",943,"167.csv","","null","resources/images/coin2.png","null","",NA,NA,NA,NA,""
"image-keyboard-response",143,615964,"0.0-3.44-0.44","8f78wor05r9dn3u",943,"167.csv","","2192.7999999821186","resources/trios/L4T2A3.jpg","39","restless",0.4,0.1,0.8,0.508022384890208,"true"
"image-keyboard-response",144,616365,"0.0-3.44-1.44","8f78wor05r9dn3u",943,"167.csv","","null","resources/maskTrios/BBA3.jpg","null","",NA,NA,NA,NA,""
"image-keyboard-response",145,617571,"0.0-3.44-2.44","8f78wor05r9dn3u",943,"167.csv","","null","resources/images/coin2.png","null","",NA,NA,NA,NA,""
"image-keyboard-response",146,624710,"0.0-3.45-0.45","8f78wor05r9dn3u",943,"167.csv","","7136.9000000059605","resources/trios/L4T4A1.jpg","37","restless",0.4,0.1,0.7,0.150430181619142,"true"
"image-keyboard-response",147,625111,"0.0-3.45-1.45","8f78wor05r9dn3u",943,"167.csv","","null","resources/maskTrios/L4BB.jpg","null","",NA,NA,NA,NA,""
"image-keyboard-response",148,626318,"0.0-3.45-2.45","8f78wor05r9dn3u",943,"167.csv","","null","resources/images/coin2.png","null","",NA,NA,NA,NA,""
"image-keyboard-response",149,627370,"0.0-3.46-0.46","8f78wor05r9dn3u",943,"167.csv","","1051","resources/trios/L4T4A1.jpg","37","restless",0.4,0.1,0.7,0.388280168342988,"true"
"image-keyboard-response",150,627773,"0.0-3.46-1.46","8f78wor05r9dn3u",943,"167.csv","","null","resources/maskTrios/L4BB.jpg","null","",NA,NA,NA,NA,""
"image-keyboard-response",151,628979,"0.0-3.46-2.46","8f78wor05r9dn3u",943,"167.csv","","null","resources/images/coin2.png","null","",NA,NA,NA,NA,""
"image-keyboard-response",152,630192,"0.0-3.47-0.47","8f78wor05r9dn3u",943,"167.csv","","1211.800000011921","resources/trios/L4T2A3.jpg","39","restless",0.4,0.1,0.7,0.838397109325677,"false"
"image-keyboard-response",153,630594,"0.0-3.47-1.47","8f78wor05r9dn3u",943,"167.csv","","null","resources/maskTrios/BBA3.jpg","null","",NA,NA,NA,NA,""
"image-keyboard-response",154,631800,"0.0-3.47-2.47","8f78wor05r9dn3u",943,"167.csv","","null","resources/images/fishbone.png","null","",NA,NA,NA,NA,""
"image-keyboard-response",155,633244,"0.0-3.48-0.48","8f78wor05r9dn3u",943,"167.csv","","1442.0999999940395","resources/trios/L2T4A3.jpg","39","restless",0.4,0.1,0.7,0.56632645319734,"true"
"image-keyboard-response",156,633646,"0.0-3.48-1.48","8f78wor05r9dn3u",943,"167.csv","","null","resources/maskTrios/BBA3.jpg","null","",NA,NA,NA,NA,""
"image-keyboard-response",157,634848,"0.0-3.48-2.48","8f78wor05r9dn3u",943,"167.csv","","null","resources/images/coin2.png","null","",NA,NA,NA,NA,""
"image-keyboard-response",158,638657,"0.0-3.49-0.49","8f78wor05r9dn3u",943,"167.csv","","3807.7999999821186","resources/trios/L4T2A1.jpg","38","restless",0.4,0.1,0.7,0.497956606133764,"false"
"image-keyboard-response",159,639063,"0.0-3.49-1.49","8f78wor05r9dn3u",943,"167.csv","","null","resources/maskTrios/BT2B.jpg","null","",NA,NA,NA,NA,""
"image-keyboard-response",160,640268,"0.0-3.49-2.49","8f78wor05r9dn3u",943,"167.csv","","null","resources/images/fishbone.png","null","",NA,NA,NA,NA,""
"image-keyboard-response",161,643356,"0.0-3.50-0.50","8f78wor05r9dn3u",943,"167.csv","","3085.699999988079","resources/trios/L4T4A1.jpg","37","restless",0.4,0.1,0.7,0.980016703164872,"false"
"image-keyboard-response",162,643762,"0.0-3.50-1.50","8f78wor05r9dn3u",943,"167.csv","","null","resources/maskTrios/L4BB.jpg","null","",NA,NA,NA,NA,""
"image-keyboard-response",163,644969,"0.0-3.50-2.50","8f78wor05r9dn3u",943,"167.csv","","null","resources/images/fishbone.png","null","",NA,NA,NA,NA,""
"image-keyboard-response",164,646235,"0.0-3.51-0.51","8f78wor05r9dn3u",943,"167.csv","","1264.5","resources/trios/L4T4A3.jpg","39","restless",0.4,0.1,0.7,0.320843454430725,"true"
"image-keyboard-response",165,646637,"0.0-3.51-1.51","8f78wor05r9dn3u",943,"167.csv","","null","resources/maskTrios/BBA3.jpg","null","",NA,NA,NA,NA,""
"image-keyboard-response",166,647843,"0.0-3.51-2.51","8f78wor05r9dn3u",943,"167.csv","","null","resources/images/coin2.png","null","",NA,NA,NA,NA,""
"image-keyboard-response",167,651059,"0.0-3.52-0.52","8f78wor05r9dn3u",943,"167.csv","","3214","resources/trios/L2T4A1.jpg","37","restless",0.4,0.1,0.8,0.0937358508181394,"true"
"image-keyboard-response",168,651465,"0.0-3.52-1.52","8f78wor05r9dn3u",943,"167.csv","","null","resources/maskTrios/L2BB.jpg","null","",NA,NA,NA,NA,""
"image-keyboard-response",169,652672,"0.0-3.52-2.52","8f78wor05r9dn3u",943,"167.csv","","null","resources/images/coin2.png","null","",NA,NA,NA,NA,""
"image-keyboard-response",170,654819,"0.0-3.53-0.53","8f78wor05r9dn3u",943,"167.csv","","2145.7000000178814","resources/trios/L4T2A1.jpg","39","restless",0.4,0.1,0.8,0.323130657835658,"true"
"image-keyboard-response",171,655221,"0.0-3.53-1.53","8f78wor05r9dn3u",943,"167.csv","","null","resources/maskTrios/BBA1.jpg","null","",NA,NA,NA,NA,""
"image-keyboard-response",172,656422,"0.0-3.53-2.53","8f78wor05r9dn3u",943,"167.csv","","null","resources/images/coin2.png","null","",NA,NA,NA,NA,""
"image-keyboard-response",173,659604,"0.0-3.54-0.54","8f78wor05r9dn3u",943,"167.csv","","3180.399999976158","resources/trios/L4T2A3.jpg","39","restless",0.4,0.1,0.8,0.0564655454113425,"true"
"image-keyboard-response",174,660006,"0.0-3.54-1.54","8f78wor05r9dn3u",943,"167.csv","","null","resources/maskTrios/BBA3.jpg","null","",NA,NA,NA,NA,""
"image-keyboard-response",175,661207,"0.0-3.54-2.54","8f78wor05r9dn3u",943,"167.csv","","null","resources/images/coin2.png","null","",NA,NA,NA,NA,""
"image-keyboard-response",176,662302,"0.0-3.55-0.55","8f78wor05r9dn3u",943,"167.csv","","1093.5","resources/trios/L4T2A3.jpg","39","restless",0.4,0.1,0.8,0.896521554738234,"false"
"image-keyboard-response",177,662707,"0.0-3.55-1.55","8f78wor05r9dn3u",943,"167.csv","","null","resources/maskTrios/BBA3.jpg","null","",NA,NA,NA,NA,""
"image-keyboard-response",178,663910,"0.0-3.55-2.55","8f78wor05r9dn3u",943,"167.csv","","null","resources/images/fishbone.png","null","",NA,NA,NA,NA,""
"image-keyboard-response",179,665815,"0.0-3.56-0.56","8f78wor05r9dn3u",943,"167.csv","","1904.2999999821186","resources/trios/L4T2A3.jpg","39","restless",0.4,0.1,0.8,0.546760014538382,"true"
"image-keyboard-response",180,666222,"0.0-3.56-1.56","8f78wor05r9dn3u",943,"167.csv","","null","resources/maskTrios/BBA3.jpg","null","",NA,NA,NA,NA,""
"image-keyboard-response",181,667428,"0.0-3.56-2.56","8f78wor05r9dn3u",943,"167.csv","","null","resources/images/coin2.png","null","",NA,NA,NA,NA,""
"image-keyboard-response",182,668439,"0.0-3.57-0.57","8f78wor05r9dn3u",943,"167.csv","","1009.9000000059605","resources/trios/L2T4A1.jpg","37","restless",0.4,0.2,0.8,0.56267380038474,"false"
"image-keyboard-response",183,668842,"0.0-3.57-1.57","8f78wor05r9dn3u",943,"167.csv","","null","resources/maskTrios/L2BB.jpg","null","",NA,NA,NA,NA,""
"image-keyboard-response",184,670048,"0.0-3.57-2.57","8f78wor05r9dn3u",943,"167.csv","","null","resources/images/fishbone.png","null","",NA,NA,NA,NA,""
"image-keyboard-response",185,672767,"0.0-3.58-0.58","8f78wor05r9dn3u",943,"167.csv","","2717.5","resources/trios/L4T4A1.jpg","39","restless",0.4,0.2,0.8,0.382159425951308,"true"
"image-keyboard-response",186,673174,"0.0-3.58-1.58","8f78wor05r9dn3u",943,"167.csv","","null","resources/maskTrios/BBA1.jpg","null","",NA,NA,NA,NA,""
"image-keyboard-response",187,674380,"0.0-3.58-2.58","8f78wor05r9dn3u",943,"167.csv","","null","resources/images/coin2.png","null","",NA,NA,NA,NA,""
"image-keyboard-response",188,675821,"0.0-3.59-0.59","8f78wor05r9dn3u",943,"167.csv","","1439.4000000059605","resources/trios/L4T4A1.jpg","39","restless",0.4,0.2,0.8,0.460410414503824,"true"
"image-keyboard-response",189,676226,"0.0-3.59-1.59","8f78wor05r9dn3u",943,"167.csv","","null","resources/maskTrios/BBA1.jpg","null","",NA,NA,NA,NA,""
"image-keyboard-response",190,677432,"0.0-3.59-2.59","8f78wor05r9dn3u",943,"167.csv","","null","resources/images/coin2.png","null","",NA,NA,NA,NA,""
"image-keyboard-response",191,678281,"0.0-3.60-0.60","8f78wor05r9dn3u",943,"167.csv","","847.3000000119209","resources/trios/L2T2A3.jpg","37","restless",0.3,0.2,0.8,0.699522654418786,"false"
"image-keyboard-response",192,678683,"0.0-3.60-1.60","8f78wor05r9dn3u",943,"167.csv","","null","resources/maskTrios/L2BB.jpg","null","",NA,NA,NA,NA,""
"image-keyboard-response",193,679886,"0.0-3.60-2.60","8f78wor05r9dn3u",943,"167.csv","","null","resources/images/fishbone.png","null","",NA,NA,NA,NA,""
"image-keyboard-response",194,681135,"0.0-3.61-0.61","8f78wor05r9dn3u",943,"167.csv","","1247.4000000059605","resources/trios/L4T4A1.jpg","39","restless",0.3,0.2,0.8,0.385776714128075,"true"
"image-keyboard-response",195,681541,"0.0-3.61-1.61","8f78wor05r9dn3u",943,"167.csv","","null","resources/maskTrios/BBA1.jpg","null","",NA,NA,NA,NA,""
"image-keyboard-response",196,682744,"0.0-3.61-2.61","8f78wor05r9dn3u",943,"167.csv","","null","resources/images/coin2.png","null","",NA,NA,NA,NA,""
"image-keyboard-response",197,683359,"0.0-3.62-0.62","8f78wor05r9dn3u",943,"167.csv","","613.2000000178814","resources/trios/L4T2A1.jpg","39","restless",0.3,0.2,0.8,0.995457376777397,"false"
"image-keyboard-response",198,683760,"0.0-3.62-1.62","8f78wor05r9dn3u",943,"167.csv","","null","resources/maskTrios/BBA1.jpg","null","",NA,NA,NA,NA,""
"image-keyboard-response",199,684963,"0.0-3.62-2.62","8f78wor05r9dn3u",943,"167.csv","","null","resources/images/fishbone.png","null","",NA,NA,NA,NA,""
"image-keyboard-response",200,684987,"0.0-3.63-0.63","8f78wor05r9dn3u",943,"167.csv","","22.30000001192093","resources/trios/L4T4A3.jpg","39","restless",0.3,0.2,0.8,0.461288669886777,"true"
"image-keyboard-response",201,685390,"0.0-3.63-1.63","8f78wor05r9dn3u",943,"167.csv","","null","resources/maskTrios/BBA3.jpg","null","",NA,NA,NA,NA,""
"image-keyboard-response",202,686592,"0.0-3.63-2.63","8f78wor05r9dn3u",943,"167.csv","","null","resources/images/coin2.png","null","",NA,NA,NA,NA,""
"image-keyboard-response",203,686626,"0.0-3.64-0.64","8f78wor05r9dn3u",943,"167.csv","","33","resources/trios/L4T2A3.jpg","37","restless",0.3,0.2,0.9,0.356281061343499,"false"
"image-keyboard-response",204,687029,"0.0-3.64-1.64","8f78wor05r9dn3u",943,"167.csv","","null","resources/maskTrios/L4BB.jpg","null","",NA,NA,NA,NA,""
"image-keyboard-response",205,688231,"0.0-3.64-2.64","8f78wor05r9dn3u",943,"167.csv","","null","resources/images/fishbone.png","null","",NA,NA,NA,NA,""
"image-keyboard-response",206,688559,"0.0-3.65-0.65","8f78wor05r9dn3u",943,"167.csv","","326.40000000596046","resources/trios/L2T2A1.jpg","39","restless",0.3,0.2,0.9,0.574980663872012,"true"
"image-keyboard-response",207,688965,"0.0-3.65-1.65","8f78wor05r9dn3u",943,"167.csv","","null","resources/maskTrios/BBA1.jpg","null","",NA,NA,NA,NA,""
"image-keyboard-response",208,690166,"0.0-3.65-2.65","8f78wor05r9dn3u",943,"167.csv","","null","resources/images/coin2.png","null","",NA,NA,NA,NA,""
"image-keyboard-response",209,699341,"0.0-3.66-0.66","8f78wor05r9dn3u",943,"167.csv","","9173.300000011921","resources/trios/L2T2A3.jpg","39","restless",0.3,0.2,0.9,0.340680271587507,"true"
"image-keyboard-response",210,699745,"0.0-3.66-1.66","8f78wor05r9dn3u",943,"167.csv","","null","resources/maskTrios/BBA3.jpg","null","",NA,NA,NA,NA,""
"image-keyboard-response",211,700947,"0.0-3.66-2.66","8f78wor05r9dn3u",943,"167.csv","","null","resources/images/coin2.png","null","",NA,NA,NA,NA,""
"image-keyboard-response",212,701908,"0.0-3.67-0.67","8f78wor05r9dn3u",943,"167.csv","","960","resources/trios/L2T4A1.jpg","37","restless",0.3,0.3,0.9,0.861312562432288,"false"
"image-keyboard-response",213,702311,"0.0-3.67-1.67","8f78wor05r9dn3u",943,"167.csv","","null","resources/maskTrios/L2BB.jpg","null","",NA,NA,NA,NA,""
"image-keyboard-response",214,703512,"0.0-3.67-2.67","8f78wor05r9dn3u",943,"167.csv","","null","resources/images/fishbone.png","null","",NA,NA,NA,NA,""
"image-keyboard-response",215,706608,"0.0-3.68-0.68","8f78wor05r9dn3u",943,"167.csv","","3094.7000000178814","resources/trios/L2T2A1.jpg","39","restless",0.3,0.3,0.9,0.157861630317866,"true"
"image-keyboard-response",216,707014,"0.0-3.68-1.68","8f78wor05r9dn3u",943,"167.csv","","null","resources/maskTrios/BBA1.jpg","null","",NA,NA,NA,NA,""
"image-keyboard-response",217,708217,"0.0-3.68-2.68","8f78wor05r9dn3u",943,"167.csv","","null","resources/images/coin2.png","null","",NA,NA,NA,NA,""
"image-keyboard-response",218,708685,"0.0-3.69-0.69","8f78wor05r9dn3u",943,"167.csv","","467","resources/trios/L4T4A1.jpg","39","restless",0.3,0.3,0.9,0.889885272314449,"true"
"image-keyboard-response",219,709087,"0.0-3.69-1.69","8f78wor05r9dn3u",943,"167.csv","","null","resources/maskTrios/BBA1.jpg","null","",NA,NA,NA,NA,""
"image-keyboard-response",220,710288,"0.0-3.69-2.69","8f78wor05r9dn3u",943,"167.csv","","null","resources/images/coin2.png","null","",NA,NA,NA,NA,""
"image-keyboard-response",221,710637,"0.0-3.70-0.70","8f78wor05r9dn3u",943,"167.csv","","346.69999998807907","resources/trios/L4T4A1.jpg","39","restless",0.3,0.3,0.9,0.00865978647829357,"true"
"image-keyboard-response",222,711039,"0.0-3.70-1.70","8f78wor05r9dn3u",943,"167.csv","","null","resources/maskTrios/BBA1.jpg","null","",NA,NA,NA,NA,""
"image-keyboard-response",223,712246,"0.0-3.70-2.70","8f78wor05r9dn3u",943,"167.csv","","null","resources/images/coin2.png","null","",NA,NA,NA,NA,""
"image-keyboard-response",224,720061,"0.0-3.71-0.71","8f78wor05r9dn3u",943,"167.csv","","7813.5","resources/trios/L4T4A3.jpg","39","restless",0.3,0.3,0.9,0.182351051685046,"true"
"image-keyboard-response",225,720466,"0.0-3.71-1.71","8f78wor05r9dn3u",943,"167.csv","","null","resources/maskTrios/BBA3.jpg","null","",NA,NA,NA,NA,""
"image-keyboard-response",226,721670,"0.0-3.71-2.71","8f78wor05r9dn3u",943,"167.csv","","null","resources/images/coin2.png","null","",NA,NA,NA,NA,""
"image-keyboard-response",227,723158,"0.0-3.72-0.72","8f78wor05r9dn3u",943,"167.csv","","1486.699999988079","resources/trios/L4T4A3.jpg","39","restless",0.4,0.3,0.9,0.870498855213057,"true"
"image-keyboard-response",228,723561,"0.0-3.72-1.72","8f78wor05r9dn3u",943,"167.csv","","null","resources/maskTrios/BBA3.jpg","null","",NA,NA,NA,NA,""
"image-keyboard-response",229,724762,"0.0-3.72-2.72","8f78wor05r9dn3u",943,"167.csv","","null","resources/images/coin2.png","null","",NA,NA,NA,NA,""
"image-keyboard-response",230,728791,"0.0-3.73-0.73","8f78wor05r9dn3u",943,"167.csv","","4027.9000000059605","resources/trios/L4T4A1.jpg","39","restless",0.4,0.3,0.9,0.657516369127989,"true"
"image-keyboard-response",231,729198,"0.0-3.73-1.73","8f78wor05r9dn3u",943,"167.csv","","null","resources/maskTrios/BBA1.jpg","null","",NA,NA,NA,NA,""
"image-keyboard-response",232,730400,"0.0-3.73-2.73","8f78wor05r9dn3u",943,"167.csv","","null","resources/images/coin2.png","null","",NA,NA,NA,NA,""
"image-keyboard-response",233,732054,"0.0-3.74-0.74","8f78wor05r9dn3u",943,"167.csv","","1652.2000000178814","resources/trios/L2T4A3.jpg","37","restless",0.4,0.3,0.8,0.38134039749749,"true"
"image-keyboard-response",234,732457,"0.0-3.74-1.74","8f78wor05r9dn3u",943,"167.csv","","null","resources/maskTrios/L2BB.jpg","null","",NA,NA,NA,NA,""
"image-keyboard-response",235,733664,"0.0-3.74-2.74","8f78wor05r9dn3u",943,"167.csv","","null","resources/images/coin2.png","null","",NA,NA,NA,NA,""
"image-keyboard-response",236,734012,"0.0-3.75-0.75","8f78wor05r9dn3u",943,"167.csv","","346.09999999403954","resources/trios/L4T2A1.jpg","37","restless",0.4,0.3,0.7,0.845278096971681,"false"
"image-keyboard-response",237,734418,"0.0-3.75-1.75","8f78wor05r9dn3u",943,"167.csv","","null","resources/maskTrios/L4BB.jpg","null","",NA,NA,NA,NA,""
"image-keyboard-response",238,735624,"0.0-3.75-2.75","8f78wor05r9dn3u",943,"167.csv","","null","resources/images/fishbone.png","null","",NA,NA,NA,NA,""
"image-keyboard-response",239,735778,"0.0-3.76-0.76","8f78wor05r9dn3u",943,"167.csv","","151.89999997615814","resources/trios/L4T2A1.jpg","38","restless",0.4,0.3,0.7,0.0555218424494803,"true"
"image-keyboard-response",240,736183,"0.0-3.76-1.76","8f78wor05r9dn3u",943,"167.csv","","null","resources/maskTrios/BT2B.jpg","null","",NA,NA,NA,NA,""
"image-keyboard-response",241,737385,"0.0-3.76-2.76","8f78wor05r9dn3u",943,"167.csv","","null","resources/images/coin2.png","null","",NA,NA,NA,NA,""
"image-keyboard-response",242,737532,"0.0-3.77-0.77","8f78wor05r9dn3u",943,"167.csv","","145.2999999821186","resources/trios/L2T4A3.jpg","38","restless",0.4,0.3,0.7,0.573588763486405,"false"
"image-keyboard-response",243,737937,"0.0-3.77-1.77","8f78wor05r9dn3u",943,"167.csv","","null","resources/maskTrios/BT4B.jpg","null","",NA,NA,NA,NA,""
"image-keyboard-response",244,739138,"0.0-3.77-2.77","8f78wor05r9dn3u",943,"167.csv","","null","resources/images/fishbone.png","null","",NA,NA,NA,NA,""
"image-keyboard-response",245,739284,"0.0-3.78-0.78","8f78wor05r9dn3u",943,"167.csv","","144.19999998807907","resources/trios/L2T4A3.jpg","39","restless",0.4,0.3,0.7,0.268550291424407,"true"
"image-keyboard-response",246,739691,"0.0-3.78-1.78","8f78wor05r9dn3u",943,"167.csv","","null","resources/maskTrios/BBA3.jpg","null","",NA,NA,NA,NA,""
"image-keyboard-response",247,740892,"0.0-3.78-2.78","8f78wor05r9dn3u",943,"167.csv","","null","resources/images/coin2.png","null","",NA,NA,NA,NA,""
"image-keyboard-response",248,740995,"0.0-3.79-0.79","8f78wor05r9dn3u",943,"167.csv","","101.60000002384186","resources/trios/L4T2A1.jpg","39","restless",0.4,0.4,0.7,0.232836171984501,"true"
"image-keyboard-response",249,741399,"0.0-3.79-1.79","8f78wor05r9dn3u",943,"167.csv","","null","resources/maskTrios/BBA1.jpg","null","",NA,NA,NA,NA,""
"image-keyboard-response",250,742605,"0.0-3.79-2.79","8f78wor05r9dn3u",943,"167.csv","","null","resources/images/coin2.png","null","",NA,NA,NA,NA,""
"image-keyboard-response",251,742788,"0.0-3.80-0.80","8f78wor05r9dn3u",943,"167.csv","","181.59999999403954","resources/trios/L2T2A3.jpg","39","restless",0.4,0.4,0.7,0.99589100667487,"false"
"image-keyboard-response",252,743192,"0.0-3.80-1.80","8f78wor05r9dn3u",943,"167.csv","","null","resources/maskTrios/BBA3.jpg","null","",NA,NA,NA,NA,""
"image-keyboard-response",253,744398,"0.0-3.80-2.80","8f78wor05r9dn3u",943,"167.csv","","null","resources/images/fishbone.png","null","",NA,NA,NA,NA,""
"image-keyboard-response",254,744572,"0.0-3.81-0.81","8f78wor05r9dn3u",943,"167.csv","","172.5","resources/trios/L4T2A3.jpg","37","restless",0.4,0.4,0.6,0.969604019707026,"false"
"image-keyboard-response",255,744978,"0.0-3.81-1.81","8f78wor05r9dn3u",943,"167.csv","","null","resources/maskTrios/L4BB.jpg","null","",NA,NA,NA,NA,""
"image-keyboard-response",256,746181,"0.0-3.81-2.81","8f78wor05r9dn3u",943,"167.csv","","null","resources/images/fishbone.png","null","",NA,NA,NA,NA,""
"image-keyboard-response",257,746401,"0.0-3.82-0.82","8f78wor05r9dn3u",943,"167.csv","","218.69999998807907","resources/trios/L2T4A3.jpg","38","restless",0.4,0.4,0.6,0.776000019231808,"false"
"image-keyboard-response",258,746803,"0.0-3.82-1.82","8f78wor05r9dn3u",943,"167.csv","","null","resources/maskTrios/BT4B.jpg","null","",NA,NA,NA,NA,""
"image-keyboard-response",259,748007,"0.0-3.82-2.82","8f78wor05r9dn3u",943,"167.csv","","null","resources/images/fishbone.png","null","",NA,NA,NA,NA,""
"image-keyboard-response",260,748034,"0.0-3.83-0.83","8f78wor05r9dn3u",943,"167.csv","","26.5","resources/trios/L2T2A1.jpg","39","restless",0.4,0.4,0.6,0.963490667011164,"false"
"image-keyboard-response",261,748441,"0.0-3.83-1.83","8f78wor05r9dn3u",943,"167.csv","","null","resources/maskTrios/BBA1.jpg","null","",NA,NA,NA,NA,""
"image-keyboard-response",262,749647,"0.0-3.83-2.83","8f78wor05r9dn3u",943,"167.csv","","null","resources/images/fishbone.png","null","",NA,NA,NA,NA,""
"image-keyboard-response",263,749801,"0.0-3.84-0.84","8f78wor05r9dn3u",943,"167.csv","","152","resources/trios/L4T2A3.jpg","37","restless",0.4,0.4,0.6,0.906385334260281,"false"
"image-keyboard-response",264,750202,"0.0-3.84-1.84","8f78wor05r9dn3u",943,"167.csv","","null","resources/maskTrios/L4BB.jpg","null","",NA,NA,NA,NA,""
"image-keyboard-response",265,751405,"0.0-3.84-2.84","8f78wor05r9dn3u",943,"167.csv","","null","resources/images/fishbone.png","null","",NA,NA,NA,NA,""
"image-keyboard-response",266,752246,"0.0-3.85-0.85","8f78wor05r9dn3u",943,"167.csv","","839.7999999821186","resources/trios/L2T2A1.jpg","37","restless",0.5,0.4,0.6,0.457338472848299,"true"
"image-keyboard-response",267,752653,"0.0-3.85-1.85","8f78wor05r9dn3u",943,"167.csv","","null","resources/maskTrios/L2BB.jpg","null","",NA,NA,NA,NA,""
"image-keyboard-response",268,753855,"0.0-3.85-2.85","8f78wor05r9dn3u",943,"167.csv","","null","resources/images/coin2.png","null","",NA,NA,NA,NA,""
"image-keyboard-response",269,754595,"0.0-3.86-0.86","8f78wor05r9dn3u",943,"167.csv","","739","resources/trios/L4T4A1.jpg","39","restless",0.5,0.4,0.6,0.734788850961516,"false"
"image-keyboard-response",270,755002,"0.0-3.86-1.86","8f78wor05r9dn3u",943,"167.csv","","null","resources/maskTrios/BBA1.jpg","null","",NA,NA,NA,NA,""
"image-keyboard-response",271,756207,"0.0-3.86-2.86","8f78wor05r9dn3u",943,"167.csv","","null","resources/images/fishbone.png","null","",NA,NA,NA,NA,""
"image-keyboard-response",272,757092,"0.0-3.87-0.87","8f78wor05r9dn3u",943,"167.csv","","883.5","resources/trios/L2T2A1.jpg","39","restless",0.5,0.4,0.6,0.890595899641157,"false"
"image-keyboard-response",273,757499,"0.0-3.87-1.87","8f78wor05r9dn3u",943,"167.csv","","null","resources/maskTrios/BBA1.jpg","null","",NA,NA,NA,NA,""
"image-keyboard-response",274,758705,"0.0-3.87-2.87","8f78wor05r9dn3u",943,"167.csv","","null","resources/images/fishbone.png","null","",NA,NA,NA,NA,""
"image-keyboard-response",275,759269,"0.0-3.88-0.88","8f78wor05r9dn3u",943,"167.csv","","562.0999999940395","resources/trios/L4T2A3.jpg","37","restless",0.5,0.4,0.6,0.132698996783083,"true"
"image-keyboard-response",276,759672,"0.0-3.88-1.88","8f78wor05r9dn3u",943,"167.csv","","null","resources/maskTrios/L4BB.jpg","null","",NA,NA,NA,NA,""
"image-keyboard-response",277,760878,"0.0-3.88-2.88","8f78wor05r9dn3u",943,"167.csv","","null","resources/images/coin2.png","null","",NA,NA,NA,NA,""
"image-keyboard-response",278,761479,"0.0-3.89-0.89","8f78wor05r9dn3u",943,"167.csv","","599","resources/trios/L4T2A1.jpg","38","restless",0.5,0.4,0.6,0.503740737770431,"false"
"image-keyboard-response",279,761885,"0.0-3.89-1.89","8f78wor05r9dn3u",943,"167.csv","","null","resources/maskTrios/BT2B.jpg","null","",NA,NA,NA,NA,""
"image-keyboard-response",280,763091,"0.0-3.89-2.89","8f78wor05r9dn3u",943,"167.csv","","null","resources/images/fishbone.png","null","",NA,NA,NA,NA,""
"image-keyboard-response",281,763215,"0.0-3.90-0.90","8f78wor05r9dn3u",943,"167.csv","","122.09999999403954","resources/trios/L4T2A3.jpg","37","restless",0.5,0.4,0.6,0.588847291659009,"false"
"image-keyboard-response",282,763619,"0.0-3.90-1.90","8f78wor05r9dn3u",943,"167.csv","","null","resources/maskTrios/L4BB.jpg","null","",NA,NA,NA,NA,""
"image-keyboard-response",283,764822,"0.0-3.90-2.90","8f78wor05r9dn3u",943,"167.csv","","null","resources/images/fishbone.png","null","",NA,NA,NA,NA,""
"image-keyboard-response",284,764869,"0.0-3.91-0.91","8f78wor05r9dn3u",943,"167.csv","","46.30000001192093","resources/trios/L2T4A1.jpg","37","restless",0.5,0.5,0.6,0.14056518744223,"true"
"image-keyboard-response",285,765271,"0.0-3.91-1.91","8f78wor05r9dn3u",943,"167.csv","","null","resources/maskTrios/L2BB.jpg","null","",NA,NA,NA,NA,""
"image-keyboard-response",286,766473,"0.0-3.91-2.91","8f78wor05r9dn3u",943,"167.csv","","null","resources/images/coin2.png","null","",NA,NA,NA,NA,""
"image-keyboard-response",287,766618,"0.0-3.92-0.92","8f78wor05r9dn3u",943,"167.csv","","143.40000000596046","resources/trios/L2T2A3.jpg","37","restless",0.5,0.5,0.6,0.116105157547921,"true"
"image-keyboard-response",288,767022,"0.0-3.92-1.92","8f78wor05r9dn3u",943,"167.csv","","null","resources/maskTrios/L2BB.jpg","null","",NA,NA,NA,NA,""
"image-keyboard-response",289,768225,"0.0-3.92-2.92","8f78wor05r9dn3u",943,"167.csv","","null","resources/images/coin2.png","null","",NA,NA,NA,NA,""
"image-keyboard-response",290,768270,"0.0-3.93-0.93","8f78wor05r9dn3u",943,"167.csv","","43.60000002384186","resources/trios/L4T2A3.jpg","37","restless",0.5,0.5,0.6,0.948743091504564,"false"
"image-keyboard-response",291,768672,"0.0-3.93-1.93","8f78wor05r9dn3u",943,"167.csv","","null","resources/maskTrios/L4BB.jpg","null","",NA,NA,NA,NA,""
"image-keyboard-response",292,769873,"0.0-3.93-2.93","8f78wor05r9dn3u",943,"167.csv","","null","resources/images/fishbone.png","null","",NA,NA,NA,NA,""
"image-keyboard-response",293,769964,"0.0-3.94-0.94","8f78wor05r9dn3u",943,"167.csv","","89.90000000596046","resources/trios/L2T2A3.jpg","39","restless",0.5,0.5,0.6,0.46648408090841,"true"
"image-keyboard-response",294,770371,"0.0-3.94-1.94","8f78wor05r9dn3u",943,"167.csv","","null","resources/maskTrios/BBA3.jpg","null","",NA,NA,NA,NA,""
"image-keyboard-response",295,771577,"0.0-3.94-2.94","8f78wor05r9dn3u",943,"167.csv","","null","resources/images/coin2.png","null","",NA,NA,NA,NA,""
"image-keyboard-response",296,771615,"0.0-3.95-0.95","8f78wor05r9dn3u",943,"167.csv","","36.900000005960464","resources/trios/L4T4A1.jpg","39","restless",0.5,0.5,0.6,0.887358545664399,"false"
"image-keyboard-response",297,772019,"0.0-3.95-1.95","8f78wor05r9dn3u",943,"167.csv","","null","resources/maskTrios/BBA1.jpg","null","",NA,NA,NA,NA,""
"image-keyboard-response",298,773221,"0.0-3.95-2.95","8f78wor05r9dn3u",943,"167.csv","","null","resources/images/fishbone.png","null","",NA,NA,NA,NA,""
"image-keyboard-response",299,773222,"0.0-3.96-0.96","8f78wor05r9dn3u",943,"167.csv","","0.20000001788139343","resources/trios/L2T2A1.jpg","37","restless",0.5,0.5,0.6,0.967492308894615,"false"
"image-keyboard-response",300,773628,"0.0-3.96-1.96","8f78wor05r9dn3u",943,"167.csv","","null","resources/maskTrios/L2BB.jpg","null","",NA,NA,NA,NA,""
"image-keyboard-response",301,774832,"0.0-3.96-2.96","8f78wor05r9dn3u",943,"167.csv","","null","resources/images/fishbone.png","null","",NA,NA,NA,NA,""
"image-keyboard-response",302,775114,"0.0-3.97-0.97","8f78wor05r9dn3u",943,"167.csv","","280.30000001192093","resources/trios/L4T4A3.jpg","38","restless",0.5,0.5,0.6,0.580779341225071,"false"
"image-keyboard-response",303,775517,"0.0-3.97-1.97","8f78wor05r9dn3u",943,"167.csv","","null","resources/maskTrios/BT4B.jpg","null","",NA,NA,NA,NA,""
"image-keyboard-response",304,776723,"0.0-3.97-2.97","8f78wor05r9dn3u",943,"167.csv","","null","resources/images/fishbone.png","null","",NA,NA,NA,NA,""
"image-keyboard-response",305,776755,"0.0-3.98-0.98","8f78wor05r9dn3u",943,"167.csv","","30.399999976158142","resources/trios/L2T4A3.jpg","39","restless",0.5,0.4,0.6,0.954724876751852,"false"
"image-keyboard-response",306,777160,"0.0-3.98-1.98","8f78wor05r9dn3u",943,"167.csv","","null","resources/maskTrios/BBA3.jpg","null","",NA,NA,NA,NA,""
"image-keyboard-response",307,778366,"0.0-3.98-2.98","8f78wor05r9dn3u",943,"167.csv","","null","resources/images/fishbone.png","null","",NA,NA,NA,NA,""
"image-keyboard-response",308,779063,"0.0-3.99-0.99","8f78wor05r9dn3u",943,"167.csv","","695.7000000178814","resources/trios/L4T4A3.jpg","37","restless",0.5,0.4,0.6,0.439559920549063,"true"
"image-keyboard-response",309,779470,"0.0-3.99-1.99","8f78wor05r9dn3u",943,"167.csv","","null","resources/maskTrios/L4BB.jpg","null","",NA,NA,NA,NA,""
"image-keyboard-response",310,780675,"0.0-3.99-2.99","8f78wor05r9dn3u",943,"167.csv","","null","resources/images/coin2.png","null","",NA,NA,NA,NA,""
"image-keyboard-response",311,782491,"0.0-3.100-0.100","8f78wor05r9dn3u",943,"167.csv","","1815.0999999940395","resources/trios/L2T2A1.jpg","38","restless",0.5,0.4,0.6,0.686072992363859,"false"
"image-keyboard-response",312,782893,"0.0-3.100-1.100","8f78wor05r9dn3u",943,"167.csv","","null","resources/maskTrios/BT2B.jpg","null","",NA,NA,NA,NA,""
"image-keyboard-response",313,784099,"0.0-3.100-2.100","8f78wor05r9dn3u",943,"167.csv","","null","resources/images/fishbone.png","null","",NA,NA,NA,NA,""
"image-keyboard-response",314,785857,"0.0-3.101-0.101","8f78wor05r9dn3u",943,"167.csv","","1755.8999999761581","resources/trios/L2T2A1.jpg","37","restless",0.5,0.4,0.6,0.601449198060469,"false"
"image-keyboard-response",315,786259,"0.0-3.101-1.101","8f78wor05r9dn3u",943,"167.csv","","null","resources/maskTrios/L2BB.jpg","null","",NA,NA,NA,NA,""
"image-keyboard-response",316,787463,"0.0-3.101-2.101","8f78wor05r9dn3u",943,"167.csv","","null","resources/images/fishbone.png","null","",NA,NA,NA,NA,""
"image-keyboard-response",317,808257,"0.0-3.102-0.102","8f78wor05r9dn3u",943,"167.csv","","20792.30000001192","resources/trios/L2T4A3.jpg","37","restless",0.5,0.4,0.6,0.507631397855808,"false"
"image-keyboard-response",318,808659,"0.0-3.102-1.102","8f78wor05r9dn3u",943,"167.csv","","null","resources/maskTrios/L2BB.jpg","null","",NA,NA,NA,NA,""
"image-keyboard-response",319,809864,"0.0-3.102-2.102","8f78wor05r9dn3u",943,"167.csv","","null","resources/images/fishbone.png","null","",NA,NA,NA,NA,""
"image-keyboard-response",320,809986,"0.0-3.103-0.103","8f78wor05r9dn3u",943,"167.csv","","120.69999998807907","resources/trios/L4T2A1.jpg","39","restless",0.5,0.3,0.6,0.0306930214775392,"true"
"image-keyboard-response",321,810392,"0.0-3.103-1.103","8f78wor05r9dn3u",943,"167.csv","","null","resources/maskTrios/BBA1.jpg","null","",NA,NA,NA,NA,""
"image-keyboard-response",322,811599,"0.0-3.103-2.103","8f78wor05r9dn3u",943,"167.csv","","null","resources/images/coin2.png","null","",NA,NA,NA,NA,""
"image-keyboard-response",323,812199,"0.0-3.104-0.104","8f78wor05r9dn3u",943,"167.csv","","598.5","resources/trios/L2T2A3.jpg","39","restless",0.5,0.3,0.6,0.72484829453813,"false"
"image-keyboard-response",324,812602,"0.0-3.104-1.104","8f78wor05r9dn3u",943,"167.csv","","null","resources/maskTrios/BBA3.jpg","null","",NA,NA,NA,NA,""
"image-keyboard-response",325,813808,"0.0-3.104-2.104","8f78wor05r9dn3u",943,"167.csv","","null","resources/images/fishbone.png","null","",NA,NA,NA,NA,""
"image-keyboard-response",326,814477,"0.0-3.105-0.105","8f78wor05r9dn3u",943,"167.csv","","667.5999999940395","resources/trios/L2T4A3.jpg","37","restless",0.5,0.3,0.6,0.0205439893535801,"true"
"image-keyboard-response",327,814883,"0.0-3.105-1.105","8f78wor05r9dn3u",943,"167.csv","","null","resources/maskTrios/L2BB.jpg","null","",NA,NA,NA,NA,""
"image-keyboard-response",328,816089,"0.0-3.105-2.105","8f78wor05r9dn3u",943,"167.csv","","null","resources/images/coin2.png","null","",NA,NA,NA,NA,""
"image-keyboard-response",329,816757,"0.0-3.106-0.106","8f78wor05r9dn3u",943,"167.csv","","666.0999999940395","resources/trios/L2T2A3.jpg","37","restless",0.5,0.3,0.6,0.423791871179613,"true"
"image-keyboard-response",330,817158,"0.0-3.106-1.106","8f78wor05r9dn3u",943,"167.csv","","null","resources/maskTrios/L2BB.jpg","null","",NA,NA,NA,NA,""
"image-keyboard-response",331,818364,"0.0-3.106-2.106","8f78wor05r9dn3u",943,"167.csv","","null","resources/images/coin2.png","null","",NA,NA,NA,NA,""
"image-keyboard-response",332,820353,"0.0-3.107-0.107","8f78wor05r9dn3u",943,"167.csv","","1987.5999999940395","resources/trios/L2T4A3.jpg","39","restless",0.5,0.3,0.6,0.185234254279386,"true"
"image-keyboard-response",333,820754,"0.0-3.107-1.107","8f78wor05r9dn3u",943,"167.csv","","null","resources/maskTrios/BBA3.jpg","null","",NA,NA,NA,NA,""
"image-keyboard-response",334,821956,"0.0-3.107-2.107","8f78wor05r9dn3u",943,"167.csv","","null","resources/images/coin2.png","null","",NA,NA,NA,NA,""
"image-keyboard-response",335,822984,"0.0-3.108-0.108","8f78wor05r9dn3u",943,"167.csv","","1025.8999999761581","resources/trios/L2T4A3.jpg","39","restless",0.5,0.3,0.5,0.643770618584026,"false"
"image-keyboard-response",336,823387,"0.0-3.108-1.108","8f78wor05r9dn3u",943,"167.csv","","null","resources/maskTrios/BBA3.jpg","null","",NA,NA,NA,NA,""
"image-keyboard-response",337,824594,"0.0-3.108-2.108","8f78wor05r9dn3u",943,"167.csv","","null","resources/images/fishbone.png","null","",NA,NA,NA,NA,""
"image-keyboard-response",338,825961,"0.0-3.109-0.109","8f78wor05r9dn3u",943,"167.csv","","1365.5","resources/trios/L4T2A3.jpg","37","restless",0.5,0.3,0.5,0.646348965219163,"false"
"image-keyboard-response",339,826362,"0.0-3.109-1.109","8f78wor05r9dn3u",943,"167.csv","","null","resources/maskTrios/L4BB.jpg","null","",NA,NA,NA,NA,""
"image-keyboard-response",340,827568,"0.0-3.109-2.109","8f78wor05r9dn3u",943,"167.csv","","null","resources/images/fishbone.png","null","",NA,NA,NA,NA,""
"image-keyboard-response",341,828911,"0.0-3.110-0.110","8f78wor05r9dn3u",943,"167.csv","","1341.300000011921","resources/trios/L4T4A1.jpg","39","restless",0.5,0.3,0.5,0.722604564500174,"false"
"image-keyboard-response",342,829316,"0.0-3.110-1.110","8f78wor05r9dn3u",943,"167.csv","","null","resources/maskTrios/BBA1.jpg","null","",NA,NA,NA,NA,""
"image-keyboard-response",343,830521,"0.0-3.110-2.110","8f78wor05r9dn3u",943,"167.csv","","null","resources/images/fishbone.png","null","",NA,NA,NA,NA,""
"image-keyboard-response",344,831879,"0.0-3.111-0.111","8f78wor05r9dn3u",943,"167.csv","","1356.5999999940395","resources/trios/L2T2A1.jpg","39","restless",0.5,0.3,0.5,0.971940742813271,"false"
"image-keyboard-response",345,832280,"0.0-3.111-1.111","8f78wor05r9dn3u",943,"167.csv","","null","resources/maskTrios/BBA1.jpg","null","",NA,NA,NA,NA,""
"image-keyboard-response",346,833486,"0.0-3.111-2.111","8f78wor05r9dn3u",943,"167.csv","","null","resources/images/fishbone.png","null","",NA,NA,NA,NA,""
"image-keyboard-response",347,834385,"0.0-3.112-0.112","8f78wor05r9dn3u",943,"167.csv","","896.9000000059605","resources/trios/L4T2A3.jpg","37","restless",0.5,0.3,0.5,0.915897131797824,"false"
"image-keyboard-response",348,834790,"0.0-3.112-1.112","8f78wor05r9dn3u",943,"167.csv","","null","resources/maskTrios/L4BB.jpg","null","",NA,NA,NA,NA,""
"image-keyboard-response",349,835996,"0.0-3.112-2.112","8f78wor05r9dn3u",943,"167.csv","","null","resources/images/fishbone.png","null","",NA,NA,NA,NA,""
"image-keyboard-response",350,837122,"0.0-3.113-0.113","8f78wor05r9dn3u",943,"167.csv","","1125.5","resources/trios/L2T4A3.jpg","37","restless",0.5,0.4,0.5,0.858644363269864,"false"
"image-keyboard-response",351,837524,"0.0-3.113-1.113","8f78wor05r9dn3u",943,"167.csv","","null","resources/maskTrios/L2BB.jpg","null","",NA,NA,NA,NA,""
"image-keyboard-response",352,838731,"0.0-3.113-2.113","8f78wor05r9dn3u",943,"167.csv","","null","resources/images/fishbone.png","null","",NA,NA,NA,NA,""
"image-keyboard-response",353,839896,"0.0-3.114-0.114","8f78wor05r9dn3u",943,"167.csv","","1164","resources/trios/L2T4A1.jpg","38","restless",0.5,0.3,0.5,0.714615047426166,"false"
"image-keyboard-response",354,840298,"0.0-3.114-1.114","8f78wor05r9dn3u",943,"167.csv","","null","resources/maskTrios/BT4B.jpg","null","",NA,NA,NA,NA,""
"image-keyboard-response",355,841504,"0.0-3.114-2.114","8f78wor05r9dn3u",943,"167.csv","","null","resources/images/fishbone.png","null","",NA,NA,NA,NA,""
"image-keyboard-response",356,842793,"0.0-3.115-0.115","8f78wor05r9dn3u",943,"167.csv","","1287.2999999821186","resources/trios/L4T4A1.jpg","39","restless",0.5,0.3,0.5,0.635386043911463,"false"
"image-keyboard-response",357,843194,"0.0-3.115-1.115","8f78wor05r9dn3u",943,"167.csv","","null","resources/maskTrios/BBA1.jpg","null","",NA,NA,NA,NA,""
"image-keyboard-response",358,844401,"0.0-3.115-2.115","8f78wor05r9dn3u",943,"167.csv","","null","resources/images/fishbone.png","null","",NA,NA,NA,NA,""
"image-keyboard-response",359,854563,"0.0-3.116-0.116","8f78wor05r9dn3u",943,"167.csv","","10161.300000011921","resources/trios/L2T2A3.jpg","37","restless",0.5,0.3,0.5,0.776006405792014,"false"
"image-keyboard-response",360,854965,"0.0-3.116-1.116","8f78wor05r9dn3u",943,"167.csv","","null","resources/maskTrios/L2BB.jpg","null","",NA,NA,NA,NA,""
"image-keyboard-response",361,856171,"0.0-3.116-2.116","8f78wor05r9dn3u",943,"167.csv","","null","resources/images/fishbone.png","null","",NA,NA,NA,NA,""
"image-keyboard-response",362,859553,"0.0-3.117-0.117","8f78wor05r9dn3u",943,"167.csv","","3379.5","resources/trios/L4T2A1.jpg","39","restless",0.5,0.3,0.5,0.605276868032122,"false"
"image-keyboard-response",363,859954,"0.0-3.117-1.117","8f78wor05r9dn3u",943,"167.csv","","null","resources/maskTrios/BBA1.jpg","null","",NA,NA,NA,NA,""
"image-keyboard-response",364,861160,"0.0-3.117-2.117","8f78wor05r9dn3u",943,"167.csv","","null","resources/images/fishbone.png","null","",NA,NA,NA,NA,""
"image-keyboard-response",365,876522,"0.0-3.118-0.118","8f78wor05r9dn3u",943,"167.csv","","15359.799999982119","resources/trios/L2T4A3.jpg","37","restless",0.5,0.3,0.5,0.823953451537645,"false"
"image-keyboard-response",366,876924,"0.0-3.118-1.118","8f78wor05r9dn3u",943,"167.csv","","null","resources/maskTrios/L2BB.jpg","null","",NA,NA,NA,NA,""
"image-keyboard-response",367,878126,"0.0-3.118-2.118","8f78wor05r9dn3u",943,"167.csv","","null","resources/images/fishbone.png","null","",NA,NA,NA,NA,""
"image-keyboard-response",368,878972,"0.0-3.119-0.119","8f78wor05r9dn3u",943,"167.csv","","844.2999999821186","resources/trios/L4T4A3.jpg","37","restless",0.5,0.3,0.5,0.684336805641107,"false"
"image-keyboard-response",369,879374,"0.0-3.119-1.119","8f78wor05r9dn3u",943,"167.csv","","null","resources/maskTrios/L4BB.jpg","null","",NA,NA,NA,NA,""
"image-keyboard-response",370,880580,"0.0-3.119-2.119","8f78wor05r9dn3u",943,"167.csv","","null","resources/images/fishbone.png","null","",NA,NA,NA,NA,""
"image-keyboard-response",371,880942,"0.0-3.120-0.120","8f78wor05r9dn3u",943,"167.csv","","359.80000001192093","resources/trios/L4T2A3.jpg","39","restless",0.5,0.3,0.5,0.765581182831945,"false"
"image-keyboard-response",372,881346,"0.0-3.120-1.120","8f78wor05r9dn3u",943,"167.csv","","null","resources/maskTrios/BBA3.jpg","null","",NA,NA,NA,NA,""
"image-keyboard-response",373,882552,"0.0-3.120-2.120","8f78wor05r9dn3u",943,"167.csv","","null","resources/images/fishbone.png","null","",NA,NA,NA,NA,""
"image-keyboard-response",374,883266,"0.0-3.121-0.121","8f78wor05r9dn3u",943,"167.csv","","712.8000000119209","resources/trios/L2T4A1.jpg","39","restless",0.5,0.4,0.5,0.987001991330439,"false"
"image-keyboard-response",375,883669,"0.0-3.121-1.121","8f78wor05r9dn3u",943,"167.csv","","null","resources/maskTrios/BBA1.jpg","null","",NA,NA,NA,NA,""
"image-keyboard-response",376,884875,"0.0-3.121-2.121","8f78wor05r9dn3u",943,"167.csv","","null","resources/images/fishbone.png","null","",NA,NA,NA,NA,""
"image-keyboard-response",377,885940,"0.0-3.122-0.122","8f78wor05r9dn3u",943,"167.csv","","1063.800000011921","resources/trios/L2T2A1.jpg","39","restless",0.5,0.4,0.4,0.823261325014899,"false"
"image-keyboard-response",378,886342,"0.0-3.122-1.122","8f78wor05r9dn3u",943,"167.csv","","null","resources/maskTrios/BBA1.jpg","null","",NA,NA,NA,NA,""
"image-keyboard-response",379,887546,"0.0-3.122-2.122","8f78wor05r9dn3u",943,"167.csv","","null","resources/images/fishbone.png","null","",NA,NA,NA,NA,""
"image-keyboard-response",380,888501,"0.0-3.123-0.123","8f78wor05r9dn3u",943,"167.csv","","953.8999999761581","resources/trios/L2T2A1.jpg","38","restless",0.5,0.4,0.4,0.0320454092491524,"true"
"image-keyboard-response",381,888904,"0.0-3.123-1.123","8f78wor05r9dn3u",943,"167.csv","","null","resources/maskTrios/BT2B.jpg","null","",NA,NA,NA,NA,""
"image-keyboard-response",382,890107,"0.0-3.123-2.123","8f78wor05r9dn3u",943,"167.csv","","null","resources/images/coin2.png","null","",NA,NA,NA,NA,""
"image-keyboard-response",383,890718,"0.0-3.124-0.124","8f78wor05r9dn3u",943,"167.csv","","609.1999999880791","resources/trios/L4T2A1.jpg","38","restless",0.5,0.4,0.4,0.481272254055747,"false"
"image-keyboard-response",384,891120,"0.0-3.124-1.124","8f78wor05r9dn3u",943,"167.csv","","null","resources/maskTrios/BT2B.jpg","null","",NA,NA,NA,NA,""
"image-keyboard-response",385,892324,"0.0-3.124-2.124","8f78wor05r9dn3u",943,"167.csv","","null","resources/images/fishbone.png","null","",NA,NA,NA,NA,""
"image-keyboard-response",386,893625,"0.0-3.125-0.125","8f78wor05r9dn3u",943,"167.csv","","1299.9000000059605","resources/trios/L4T2A1.jpg","39","restless",0.5,0.4,0.5,0.135642575819213,"true"
"image-keyboard-response",387,894027,"0.0-3.125-1.125","8f78wor05r9dn3u",943,"167.csv","","null","resources/maskTrios/BBA1.jpg","null","",NA,NA,NA,NA,""
"image-keyboard-response",388,895234,"0.0-3.125-2.125","8f78wor05r9dn3u",943,"167.csv","","null","resources/images/coin2.png","null","",NA,NA,NA,NA,""
"image-keyboard-response",389,896525,"0.0-3.126-0.126","8f78wor05r9dn3u",943,"167.csv","","1289.7000000178814","resources/trios/L2T2A3.jpg","38","restless",0.5,0.5,0.5,0.80588763201362,"false"
"image-keyboard-response",390,896927,"0.0-3.126-1.126","8f78wor05r9dn3u",943,"167.csv","","null","resources/maskTrios/BT2B.jpg","null","",NA,NA,NA,NA,""
"image-keyboard-response",391,898133,"0.0-3.126-2.126","8f78wor05r9dn3u",943,"167.csv","","null","resources/images/fishbone.png","null","",NA,NA,NA,NA,""
"image-keyboard-response",392,900071,"0.0-3.127-0.127","8f78wor05r9dn3u",943,"167.csv","","1936.7000000178814","resources/trios/L2T4A3.jpg","38","restless",0.5,0.5,0.6,0.232629438382085,"true"
"image-keyboard-response",393,900473,"0.0-3.127-1.127","8f78wor05r9dn3u",943,"167.csv","","null","resources/maskTrios/BT4B.jpg","null","",NA,NA,NA,NA,""
"image-keyboard-response",394,901679,"0.0-3.127-2.127","8f78wor05r9dn3u",943,"167.csv","","null","resources/images/coin2.png","null","",NA,NA,NA,NA,""
"image-keyboard-response",395,903604,"0.0-3.128-0.128","8f78wor05r9dn3u",943,"167.csv","","1923.300000011921","resources/trios/L2T4A1.jpg","37","restless",0.5,0.5,0.6,0.751229644643605,"false"
"image-keyboard-response",396,904010,"0.0-3.128-1.128","8f78wor05r9dn3u",943,"167.csv","","null","resources/maskTrios/L2BB.jpg","null","",NA,NA,NA,NA,""
"image-keyboard-response",397,905216,"0.0-3.128-2.128","8f78wor05r9dn3u",943,"167.csv","","null","resources/images/fishbone.png","null","",NA,NA,NA,NA,""
"image-keyboard-response",398,906736,"0.0-3.129-0.129","8f78wor05r9dn3u",943,"167.csv","","1518.5999999940395","resources/trios/L4T2A1.jpg","39","restless",0.5,0.5,0.6,0.525684052105158,"true"
"image-keyboard-response",399,907139,"0.0-3.129-1.129","8f78wor05r9dn3u",943,"167.csv","","null","resources/maskTrios/BBA1.jpg","null","",NA,NA,NA,NA,""
"image-keyboard-response",400,908345,"0.0-3.129-2.129","8f78wor05r9dn3u",943,"167.csv","","null","resources/images/coin2.png","null","",NA,NA,NA,NA,""
"image-keyboard-response",401,909333,"0.0-3.130-0.130","8f78wor05r9dn3u",943,"167.csv","","986.8000000119209","resources/trios/L2T2A1.jpg","39","restless",0.5,0.5,0.6,0.806225883507585,"false"
"image-keyboard-response",402,909736,"0.0-3.130-1.130","8f78wor05r9dn3u",943,"167.csv","","null","resources/maskTrios/BBA1.jpg","null","",NA,NA,NA,NA,""
"image-keyboard-response",403,910940,"0.0-3.130-2.130","8f78wor05r9dn3u",943,"167.csv","","null","resources/images/fishbone.png","null","",NA,NA,NA,NA,""
"image-keyboard-response",404,912149,"0.0-3.131-0.131","8f78wor05r9dn3u",943,"167.csv","","1207.7999999821186","resources/trios/L2T4A1.jpg","38","restless",0.5,0.5,0.6,0.489904802289239,"true"
"image-keyboard-response",405,912552,"0.0-3.131-1.131","8f78wor05r9dn3u",943,"167.csv","","null","resources/maskTrios/BT4B.jpg","null","",NA,NA,NA,NA,""
"image-keyboard-response",406,913759,"0.0-3.131-2.131","8f78wor05r9dn3u",943,"167.csv","","null","resources/images/coin2.png","null","",NA,NA,NA,NA,""
"image-keyboard-response",407,937858,"0.0-3.132-0.132","8f78wor05r9dn3u",943,"167.csv","","24097.29999998212","resources/trios/L4T2A1.jpg","39","restless",0.5,0.5,0.6,0.0775440099312166,"true"
"image-keyboard-response",408,938260,"0.0-3.132-1.132","8f78wor05r9dn3u",943,"167.csv","","null","resources/maskTrios/BBA1.jpg","null","",NA,NA,NA,NA,""
"image-keyboard-response",409,939466,"0.0-3.132-2.132","8f78wor05r9dn3u",943,"167.csv","","null","resources/images/coin2.png","null","",NA,NA,NA,NA,""
"image-keyboard-response",410,971742,"0.0-3.133-0.133","8f78wor05r9dn3u",943,"167.csv","","32273.90000000596","resources/trios/L2T4A3.jpg","39","restless",0.5,0.5,0.6,0.900002984862429,"false"
"image-keyboard-response",411,972146,"0.0-3.133-1.133","8f78wor05r9dn3u",943,"167.csv","","null","resources/maskTrios/BBA3.jpg","null","",NA,NA,NA,NA,""
"image-keyboard-response",412,973352,"0.0-3.133-2.133","8f78wor05r9dn3u",943,"167.csv","","null","resources/images/fishbone.png","null","",NA,NA,NA,NA,""
"image-keyboard-response",413,973843,"0.0-3.134-0.134","8f78wor05r9dn3u",943,"167.csv","","488.59999999403954","resources/trios/L4T2A3.jpg","37","restless",0.5,0.5,0.6,0.197271924638179,"true"
"image-keyboard-response",414,974244,"0.0-3.134-1.134","8f78wor05r9dn3u",943,"167.csv","","null","resources/maskTrios/L4BB.jpg","null","",NA,NA,NA,NA,""
"image-keyboard-response",415,975451,"0.0-3.134-2.134","8f78wor05r9dn3u",943,"167.csv","","null","resources/images/coin2.png","null","",NA,NA,NA,NA,""
"image-keyboard-response",416,975822,"0.0-3.135-0.135","8f78wor05r9dn3u",943,"167.csv","","370.40000000596046","resources/trios/L4T4A1.jpg","37","restless",0.5,0.5,0.6,0.732548116527154,"false"
"image-keyboard-response",417,976224,"0.0-3.135-1.135","8f78wor05r9dn3u",943,"167.csv","","null","resources/maskTrios/L4BB.jpg","null","",NA,NA,NA,NA,""
"image-keyboard-response",418,977428,"0.0-3.135-2.135","8f78wor05r9dn3u",943,"167.csv","","null","resources/images/fishbone.png","null","",NA,NA,NA,NA,""
"image-keyboard-response",419,977461,"0.0-3.136-0.136","8f78wor05r9dn3u",943,"167.csv","","31.5","resources/trios/L2T4A1.jpg","39","restless",0.5,0.5,0.6,0.091769492988536,"true"
"image-keyboard-response",420,977867,"0.0-3.136-1.136","8f78wor05r9dn3u",943,"167.csv","","null","resources/maskTrios/BBA1.jpg","null","",NA,NA,NA,NA,""
"image-keyboard-response",421,979073,"0.0-3.136-2.136","8f78wor05r9dn3u",943,"167.csv","","null","resources/images/coin2.png","null","",NA,NA,NA,NA,""
"image-keyboard-response",422,979183,"0.0-3.137-0.137","8f78wor05r9dn3u",943,"167.csv","","108.5","resources/trios/L2T2A1.jpg","38","restless",0.6,0.5,0.6,0.0636428218151144,"true"
"image-keyboard-response",423,979589,"0.0-3.137-1.137","8f78wor05r9dn3u",943,"167.csv","","null","resources/maskTrios/BT2B.jpg","null","",NA,NA,NA,NA,""
"image-keyboard-response",424,980795,"0.0-3.137-2.137","8f78wor05r9dn3u",943,"167.csv","","null","resources/images/coin2.png","null","",NA,NA,NA,NA,""
"image-keyboard-response",425,980875,"0.0-3.138-0.138","8f78wor05r9dn3u",943,"167.csv","","78.5","resources/trios/L4T4A1.jpg","38","restless",0.6,0.6,0.6,0.47670734805833,"true"
"image-keyboard-response",426,981281,"0.0-3.138-1.138","8f78wor05r9dn3u",943,"167.csv","","null","resources/maskTrios/BT4B.jpg","null","",NA,NA,NA,NA,""
"image-keyboard-response",427,982488,"0.0-3.138-2.138","8f78wor05r9dn3u",943,"167.csv","","null","resources/images/coin2.png","null","",NA,NA,NA,NA,""
"image-keyboard-response",428,982611,"0.0-3.139-0.139","8f78wor05r9dn3u",943,"167.csv","","121.69999998807907","resources/trios/L4T4A1.jpg","38","restless",0.6,0.6,0.6,0.563381020001543,"true"
"image-keyboard-response",429,983014,"0.0-3.139-1.139","8f78wor05r9dn3u",943,"167.csv","","null","resources/maskTrios/BT4B.jpg","null","",NA,NA,NA,NA,""
"image-keyboard-response",430,984220,"0.0-3.139-2.139","8f78wor05r9dn3u",943,"167.csv","","null","resources/images/coin2.png","null","",NA,NA,NA,NA,""
"image-keyboard-response",431,984425,"0.0-3.140-0.140","8f78wor05r9dn3u",943,"167.csv","","203.09999999403954","resources/trios/L4T2A1.jpg","38","restless",0.6,0.6,0.6,0.853003676334609,"false"
"image-keyboard-response",432,984829,"0.0-3.140-1.140","8f78wor05r9dn3u",943,"167.csv","","null","resources/maskTrios/BT2B.jpg","null","",NA,NA,NA,NA,""
"image-keyboard-response",433,986036,"0.0-3.140-2.140","8f78wor05r9dn3u",943,"167.csv","","null","resources/images/fishbone.png","null","",NA,NA,NA,NA,""
"image-keyboard-response",434,986172,"0.0-3.141-0.141","8f78wor05r9dn3u",943,"167.csv","","134.30000001192093","resources/trios/L2T4A1.jpg","37","restless",0.6,0.6,0.6,0.279606515074353,"true"
"image-keyboard-response",435,986573,"0.0-3.141-1.141","8f78wor05r9dn3u",943,"167.csv","","null","resources/maskTrios/L2BB.jpg","null","",NA,NA,NA,NA,""
"image-keyboard-response",436,987775,"0.0-3.141-2.141","8f78wor05r9dn3u",943,"167.csv","","null","resources/images/coin2.png","null","",NA,NA,NA,NA,""
"image-keyboard-response",437,988003,"0.0-3.142-0.142","8f78wor05r9dn3u",943,"167.csv","","226.59999999403954","resources/trios/L2T4A1.jpg","38","restless",0.6,0.6,0.6,0.261335479397578,"true"
"image-keyboard-response",438,988409,"0.0-3.142-1.142","8f78wor05r9dn3u",943,"167.csv","","null","resources/maskTrios/BT4B.jpg","null","",NA,NA,NA,NA,""
"image-keyboard-response",439,989613,"0.0-3.142-2.142","8f78wor05r9dn3u",943,"167.csv","","null","resources/images/coin2.png","null","",NA,NA,NA,NA,""
"image-keyboard-response",440,989658,"0.0-3.143-0.143","8f78wor05r9dn3u",943,"167.csv","","43.30000001192093","resources/trios/L2T4A3.jpg","39","restless",0.6,0.6,0.6,0.209954220453392,"true"
"image-keyboard-response",441,990062,"0.0-3.143-1.143","8f78wor05r9dn3u",943,"167.csv","","null","resources/maskTrios/BBA3.jpg","null","",NA,NA,NA,NA,""
"image-keyboard-response",442,991268,"0.0-3.143-2.143","8f78wor05r9dn3u",943,"167.csv","","null","resources/images/coin2.png","null","",NA,NA,NA,NA,""
"image-keyboard-response",443,991408,"0.0-3.144-0.144","8f78wor05r9dn3u",943,"167.csv","","138.2000000178814","resources/trios/L2T4A1.jpg","37","restless",0.6,0.6,0.6,0.963325406272564,"false"
"image-keyboard-response",444,991809,"0.0-3.144-1.144","8f78wor05r9dn3u",943,"167.csv","","null","resources/maskTrios/L2BB.jpg","null","",NA,NA,NA,NA,""
"image-keyboard-response",445,993011,"0.0-3.144-2.144","8f78wor05r9dn3u",943,"167.csv","","null","resources/images/fishbone.png","null","",NA,NA,NA,NA,""
"image-keyboard-response",446,993307,"0.0-3.145-0.145","8f78wor05r9dn3u",943,"167.csv","","295.2000000178814","resources/trios/L4T2A3.jpg","38","restless",0.6,0.6,0.7,0.182047825224966,"true"
"image-keyboard-response",447,993714,"0.0-3.145-1.145","8f78wor05r9dn3u",943,"167.csv","","null","resources/maskTrios/BT2B.jpg","null","",NA,NA,NA,NA,""
"image-keyboard-response",448,994916,"0.0-3.145-2.145","8f78wor05r9dn3u",943,"167.csv","","null","resources/images/coin2.png","null","",NA,NA,NA,NA,""
"image-keyboard-response",449,995017,"0.0-3.146-0.146","8f78wor05r9dn3u",943,"167.csv","","99.2999999821186","resources/trios/L4T4A3.jpg","39","restless",0.6,0.6,0.7,0.457063795403418,"true"
"image-keyboard-response",450,995418,"0.0-3.146-1.146","8f78wor05r9dn3u",943,"167.csv","","null","resources/maskTrios/BBA3.jpg","null","",NA,NA,NA,NA,""
"image-keyboard-response",451,996623,"0.0-3.146-2.146","8f78wor05r9dn3u",943,"167.csv","","null","resources/images/coin2.png","null","",NA,NA,NA,NA,""
"image-keyboard-response",452,996697,"0.0-3.147-0.147","8f78wor05r9dn3u",943,"167.csv","","72.89999997615814","resources/trios/L2T4A1.jpg","39","restless",0.6,0.6,0.7,0.718665027365626,"false"
"image-keyboard-response",453,997099,"0.0-3.147-1.147","8f78wor05r9dn3u",943,"167.csv","","null","resources/maskTrios/BBA1.jpg","null","",NA,NA,NA,NA,""
"image-keyboard-response",454,998302,"0.0-3.147-2.147","8f78wor05r9dn3u",943,"167.csv","","null","resources/images/fishbone.png","null","",NA,NA,NA,NA,""
"image-keyboard-response",455,998580,"0.0-3.148-0.148","8f78wor05r9dn3u",943,"167.csv","","276.7000000178814","resources/trios/L2T2A1.jpg","37","restless",0.6,0.6,0.7,0.526322335392774,"true"
"image-keyboard-response",456,998987,"0.0-3.148-1.148","8f78wor05r9dn3u",943,"167.csv","","null","resources/maskTrios/L2BB.jpg","null","",NA,NA,NA,NA,""
"image-keyboard-response",457,1000188,"0.0-3.148-2.148","8f78wor05r9dn3u",943,"167.csv","","null","resources/images/coin2.png","null","",NA,NA,NA,NA,""
"image-keyboard-response",458,1000287,"0.0-3.149-0.149","8f78wor05r9dn3u",943,"167.csv","","98","resources/trios/L4T2A1.jpg","38","restless",0.6,0.6,0.7,0.84423142184154,"false"
"image-keyboard-response",459,1000693,"0.0-3.149-1.149","8f78wor05r9dn3u",943,"167.csv","","null","resources/maskTrios/BT2B.jpg","null","",NA,NA,NA,NA,""
"image-keyboard-response",460,1001896,"0.0-3.149-2.149","8f78wor05r9dn3u",943,"167.csv","","null","resources/images/fishbone.png","null","",NA,NA,NA,NA,""
"image-keyboard-response",461,1002121,"0.0-3.150-0.150","8f78wor05r9dn3u",943,"167.csv","","224","resources/trios/L2T4A1.jpg","39","restless",0.6,0.6,0.7,0.622031657017841,"true"
"image-keyboard-response",462,1002527,"0.0-3.150-1.150","8f78wor05r9dn3u",943,"167.csv","","null","resources/maskTrios/BBA1.jpg","null","",NA,NA,NA,NA,""
"image-keyboard-response",463,1003730,"0.0-3.150-2.150","8f78wor05r9dn3u",943,"167.csv","","null","resources/images/coin2.png","null","",NA,NA,NA,NA,""
"image-keyboard-response",464,1003747,"0.0-3.151-0.151","8f78wor05r9dn3u",943,"167.csv","","16.599999994039536","resources/trios/L2T2A1.jpg","38","restless",0.6,0.5,0.7,0.346148189650271,"true"
"image-keyboard-response",465,1004150,"0.0-3.151-1.151","8f78wor05r9dn3u",943,"167.csv","","null","resources/maskTrios/BT2B.jpg","null","",NA,NA,NA,NA,""
"image-keyboard-response",466,1005353,"0.0-3.151-2.151","8f78wor05r9dn3u",943,"167.csv","","null","resources/images/coin2.png","null","",NA,NA,NA,NA,""
"image-keyboard-response",467,1005493,"0.0-3.152-0.152","8f78wor05r9dn3u",943,"167.csv","","138.80000001192093","resources/trios/L4T4A1.jpg","37","restless",0.6,0.5,0.7,0.498923222827059,"true"
"image-keyboard-response",468,1005897,"0.0-3.152-1.152","8f78wor05r9dn3u",943,"167.csv","","null","resources/maskTrios/L4BB.jpg","null","",NA,NA,NA,NA,""
"image-keyboard-response",469,1007102,"0.0-3.152-2.152","8f78wor05r9dn3u",943,"167.csv","","null","resources/images/coin2.png","null","",NA,NA,NA,NA,""
"image-keyboard-response",470,1007238,"0.0-3.153-0.153","8f78wor05r9dn3u",943,"167.csv","","134.7999999821186","resources/trios/L2T2A3.jpg","38","restless",0.6,0.5,0.8,0.406641075217304,"true"
"image-keyboard-response",471,1007644,"0.0-3.153-1.153","8f78wor05r9dn3u",943,"167.csv","","null","resources/maskTrios/BT2B.jpg","null","",NA,NA,NA,NA,""
"image-keyboard-response",472,1008848,"0.0-3.153-2.153","8f78wor05r9dn3u",943,"167.csv","","null","resources/images/coin2.png","null","",NA,NA,NA,NA,""
"image-keyboard-response",473,1009389,"0.0-3.154-0.154","8f78wor05r9dn3u",943,"167.csv","","540.3000000119209","resources/trios/L4T2A3.jpg","39","restless",0.6,0.5,0.8,0.597467892763984,"true"
"image-keyboard-response",474,1009793,"0.0-3.154-1.154","8f78wor05r9dn3u",943,"167.csv","","null","resources/maskTrios/BBA3.jpg","null","",NA,NA,NA,NA,""
"image-keyboard-response",475,1010999,"0.0-3.154-2.154","8f78wor05r9dn3u",943,"167.csv","","null","resources/images/coin2.png","null","",NA,NA,NA,NA,""
"image-keyboard-response",476,1011280,"0.0-3.155-0.155","8f78wor05r9dn3u",943,"167.csv","","280.09999999403954","resources/trios/L4T4A1.jpg","38","restless",0.6,0.5,0.9,0.43497688602466,"true"
"image-keyboard-response",477,1011687,"0.0-3.155-1.155","8f78wor05r9dn3u",943,"167.csv","","null","resources/maskTrios/BT4B.jpg","null","",NA,NA,NA,NA,""
"image-keyboard-response",478,1012889,"0.0-3.155-2.155","8f78wor05r9dn3u",943,"167.csv","","null","resources/images/coin2.png","null","",NA,NA,NA,NA,""
"image-keyboard-response",479,1012890,"0.0-3.156-0.156","8f78wor05r9dn3u",943,"167.csv","","0.19999998807907104","resources/trios/L2T4A1.jpg","37","restless",0.6,0.5,0.8,0.777882022599997,"false"
"image-keyboard-response",480,1013292,"0.0-3.156-1.156","8f78wor05r9dn3u",943,"167.csv","","null","resources/maskTrios/L2BB.jpg","null","",NA,NA,NA,NA,""
"image-keyboard-response",481,1014494,"0.0-3.156-2.156","8f78wor05r9dn3u",943,"167.csv","","null","resources/images/fishbone.png","null","",NA,NA,NA,NA,""
"image-keyboard-response",482,1014518,"0.0-3.157-0.157","8f78wor05r9dn3u",943,"167.csv","","21.80000001192093","resources/trios/L4T4A1.jpg","38","restless",0.6,0.5,0.8,0.896690764365862,"false"
"image-keyboard-response",483,1014924,"0.0-3.157-1.157","8f78wor05r9dn3u",943,"167.csv","","null","resources/maskTrios/BT4B.jpg","null","",NA,NA,NA,NA,""
"image-keyboard-response",484,1016127,"0.0-3.157-2.157","8f78wor05r9dn3u",943,"167.csv","","null","resources/images/fishbone.png","null","",NA,NA,NA,NA,""
"image-keyboard-response",485,1016316,"0.0-3.158-0.158","8f78wor05r9dn3u",943,"167.csv","","187.10000002384186","resources/trios/L2T4A3.jpg","39","restless",0.6,0.5,0.8,0.357782298847007,"true"
"image-keyboard-response",486,1016723,"0.0-3.158-1.158","8f78wor05r9dn3u",943,"167.csv","","null","resources/maskTrios/BBA3.jpg","null","",NA,NA,NA,NA,""
"image-keyboard-response",487,1017927,"0.0-3.158-2.158","8f78wor05r9dn3u",943,"167.csv","","null","resources/images/coin2.png","null","",NA,NA,NA,NA,""
"image-keyboard-response",488,1017938,"0.0-3.159-0.159","8f78wor05r9dn3u",943,"167.csv","","9.200000017881393","resources/trios/L4T4A1.jpg","38","restless",0.6,0.5,0.8,0.713727900523046,"false"
"image-keyboard-response",489,1018343,"0.0-3.159-1.159","8f78wor05r9dn3u",943,"167.csv","","null","resources/maskTrios/BT4B.jpg","null","",NA,NA,NA,NA,""
"image-keyboard-response",490,1019546,"0.0-3.159-2.159","8f78wor05r9dn3u",943,"167.csv","","null","resources/images/fishbone.png","null","",NA,NA,NA,NA,""
"image-keyboard-response",491,1019681,"0.0-3.160-0.160","8f78wor05r9dn3u",943,"167.csv","","133.90000000596046","resources/trios/L2T2A1.jpg","37","restless",0.6,0.5,0.8,0.922443376675715,"false"
"image-keyboard-response",492,1020083,"0.0-3.160-1.160","8f78wor05r9dn3u",943,"167.csv","","null","resources/maskTrios/L2BB.jpg","null","",NA,NA,NA,NA,""
"image-keyboard-response",493,1021287,"0.0-3.160-2.160","8f78wor05r9dn3u",943,"167.csv","","null","resources/images/fishbone.png","null","",NA,NA,NA,NA,""
"image-keyboard-response",494,1021413,"0.0-3.161-0.161","8f78wor05r9dn3u",943,"167.csv","","124.5","resources/trios/L2T4A1.jpg","37","restless",0.6,0.5,0.8,0.918186186521541,"false"
"image-keyboard-response",495,1021816,"0.0-3.161-1.161","8f78wor05r9dn3u",943,"167.csv","","null","resources/maskTrios/L2BB.jpg","null","",NA,NA,NA,NA,""
"image-keyboard-response",496,1023018,"0.0-3.161-2.161","8f78wor05r9dn3u",943,"167.csv","","null","resources/images/fishbone.png","null","",NA,NA,NA,NA,""
"image-keyboard-response",497,1023080,"0.0-3.162-0.162","8f78wor05r9dn3u",943,"167.csv","","60.099999994039536","resources/trios/L2T4A3.jpg","39","restless",0.6,0.5,0.8,0.347014119049019,"true"
"image-keyboard-response",498,1023486,"0.0-3.162-1.162","8f78wor05r9dn3u",943,"167.csv","","null","resources/maskTrios/BBA3.jpg","null","",NA,NA,NA,NA,""
"image-keyboard-response",499,1024692,"0.0-3.162-2.162","8f78wor05r9dn3u",943,"167.csv","","null","resources/images/coin2.png","null","",NA,NA,NA,NA,""
"image-keyboard-response",500,1024872,"0.0-3.163-0.163","8f78wor05r9dn3u",943,"167.csv","","178.5","resources/trios/L2T4A1.jpg","38","restless",0.6,0.5,0.8,0.369172084507879,"true"
"image-keyboard-response",501,1025276,"0.0-3.163-1.163","8f78wor05r9dn3u",943,"167.csv","","null","resources/maskTrios/BT4B.jpg","null","",NA,NA,NA,NA,""
"image-keyboard-response",502,1026482,"0.0-3.163-2.163","8f78wor05r9dn3u",943,"167.csv","","null","resources/images/coin2.png","null","",NA,NA,NA,NA,""
"image-keyboard-response",503,1026719,"0.0-3.164-0.164","8f78wor05r9dn3u",943,"167.csv","","234.7999999821186","resources/trios/L4T2A1.jpg","37","restless",0.6,0.5,0.8,0.00461619703708926,"true"
"image-keyboard-response",504,1027124,"0.0-3.164-1.164","8f78wor05r9dn3u",943,"167.csv","","null","resources/maskTrios/L4BB.jpg","null","",NA,NA,NA,NA,""
"image-keyboard-response",505,1028325,"0.0-3.164-2.164","8f78wor05r9dn3u",943,"167.csv","","null","resources/images/coin2.png","null","",NA,NA,NA,NA,""
"image-keyboard-response",506,1028442,"0.0-3.165-0.165","8f78wor05r9dn3u",943,"167.csv","","115.5","resources/trios/L2T4A1.jpg","38","restless",0.6,0.5,0.8,0.00249730377169977,"true"
"image-keyboard-response",507,1028849,"0.0-3.165-1.165","8f78wor05r9dn3u",943,"167.csv","","null","resources/maskTrios/BT4B.jpg","null","",NA,NA,NA,NA,""
"image-keyboard-response",508,1030055,"0.0-3.165-2.165","8f78wor05r9dn3u",943,"167.csv","","null","resources/images/coin2.png","null","",NA,NA,NA,NA,""
"image-keyboard-response",509,1030104,"0.0-3.166-0.166","8f78wor05r9dn3u",943,"167.csv","","46.89999997615814","resources/trios/L2T4A1.jpg","39","restless",0.6,0.5,0.8,0.838039187831377,"false"
"image-keyboard-response",510,1030507,"0.0-3.166-1.166","8f78wor05r9dn3u",943,"167.csv","","null","resources/maskTrios/BBA1.jpg","null","",NA,NA,NA,NA,""
"image-keyboard-response",511,1031708,"0.0-3.166-2.166","8f78wor05r9dn3u",943,"167.csv","","null","resources/images/fishbone.png","null","",NA,NA,NA,NA,""
"image-keyboard-response",512,1031991,"0.0-3.167-0.167","8f78wor05r9dn3u",943,"167.csv","","282","resources/trios/L2T2A1.jpg","38","restless",0.6,0.6,0.8,0.544002882578058,"true"
"image-keyboard-response",513,1032398,"0.0-3.167-1.167","8f78wor05r9dn3u",943,"167.csv","","null","resources/maskTrios/BT2B.jpg","null","",NA,NA,NA,NA,""
"image-keyboard-response",514,1033602,"0.0-3.167-2.167","8f78wor05r9dn3u",943,"167.csv","","null","resources/images/coin2.png","null","",NA,NA,NA,NA,""
"image-keyboard-response",515,1033804,"0.0-3.168-0.168","8f78wor05r9dn3u",943,"167.csv","","200.90000000596046","resources/trios/L2T4A1.jpg","37","restless",0.6,0.6,0.8,0.26008893591017,"true"
"image-keyboard-response",516,1034208,"0.0-3.168-1.168","8f78wor05r9dn3u",943,"167.csv","","null","resources/maskTrios/L2BB.jpg","null","",NA,NA,NA,NA,""
"image-keyboard-response",517,1035410,"0.0-3.168-2.168","8f78wor05r9dn3u",943,"167.csv","","null","resources/images/coin2.png","null","",NA,NA,NA,NA,""
"image-keyboard-response",518,1035582,"0.0-3.169-0.169","8f78wor05r9dn3u",943,"167.csv","","170.89999997615814","resources/trios/L2T2A3.jpg","38","restless",0.6,0.6,0.8,0.928191809164521,"false"
"image-keyboard-response",519,1035986,"0.0-3.169-1.169","8f78wor05r9dn3u",943,"167.csv","","null","resources/maskTrios/BT2B.jpg","null","",NA,NA,NA,NA,""
"image-keyboard-response",520,1037190,"0.0-3.169-2.169","8f78wor05r9dn3u",943,"167.csv","","null","resources/images/fishbone.png","null","",NA,NA,NA,NA,""
"image-keyboard-response",521,1037440,"0.0-3.170-0.170","8f78wor05r9dn3u",943,"167.csv","","248.69999998807907","resources/trios/L4T2A1.jpg","39","restless",0.5,0.6,0.7,0.509361306439566,"true"
"image-keyboard-response",522,1037846,"0.0-3.170-1.170","8f78wor05r9dn3u",943,"167.csv","","null","resources/maskTrios/BBA1.jpg","null","",NA,NA,NA,NA,""
"image-keyboard-response",523,1039048,"0.0-3.170-2.170","8f78wor05r9dn3u",943,"167.csv","","null","resources/images/coin2.png","null","",NA,NA,NA,NA,""
"image-keyboard-response",524,1039158,"0.0-3.171-0.171","8f78wor05r9dn3u",943,"167.csv","","108.5","resources/trios/L4T2A3.jpg","38","restless",0.5,0.7,0.7,0.603281270933812,"true"
"image-keyboard-response",525,1039562,"0.0-3.171-1.171","8f78wor05r9dn3u",943,"167.csv","","null","resources/maskTrios/BT2B.jpg","null","",NA,NA,NA,NA,""
"image-keyboard-response",526,1040764,"0.0-3.171-2.171","8f78wor05r9dn3u",943,"167.csv","","null","resources/images/coin2.png","null","",NA,NA,NA,NA,""
"image-keyboard-response",527,1040911,"0.0-3.172-0.172","8f78wor05r9dn3u",943,"167.csv","","145.19999998807907","resources/trios/L4T2A1.jpg","37","restless",0.5,0.8,0.6,0.69513811152078,"false"
"image-keyboard-response",528,1041318,"0.0-3.172-1.172","8f78wor05r9dn3u",943,"167.csv","","null","resources/maskTrios/L4BB.jpg","null","",NA,NA,NA,NA,""
"image-keyboard-response",529,1042524,"0.0-3.172-2.172","8f78wor05r9dn3u",943,"167.csv","","null","resources/images/fishbone.png","null","",NA,NA,NA,NA,""
"image-keyboard-response",530,1042654,"0.0-3.173-0.173","8f78wor05r9dn3u",943,"167.csv","","128.89999997615814","resources/trios/L4T4A3.jpg","38","restless",0.5,0.8,0.6,0.855293292535829,"false"
"image-keyboard-response",531,1043061,"0.0-3.173-1.173","8f78wor05r9dn3u",943,"167.csv","","null","resources/maskTrios/BT4B.jpg","null","",NA,NA,NA,NA,""
"image-keyboard-response",532,1044267,"0.0-3.173-2.173","8f78wor05r9dn3u",943,"167.csv","","null","resources/images/fishbone.png","null","",NA,NA,NA,NA,""
"image-keyboard-response",533,1044638,"0.0-3.174-0.174","8f78wor05r9dn3u",943,"167.csv","","369.90000000596046","resources/trios/L4T2A3.jpg","39","restless",0.5,0.8,0.6,0.564241920544214,"true"
"image-keyboard-response",534,1045044,"0.0-3.174-1.174","8f78wor05r9dn3u",943,"167.csv","","null","resources/maskTrios/BBA3.jpg","null","",NA,NA,NA,NA,""
"image-keyboard-response",535,1046251,"0.0-3.174-2.174","8f78wor05r9dn3u",943,"167.csv","","null","resources/images/coin2.png","null","",NA,NA,NA,NA,""
"image-keyboard-response",536,1046326,"0.0-3.175-0.175","8f78wor05r9dn3u",943,"167.csv","","73.2999999821186","resources/trios/L2T2A1.jpg","38","restless",0.5,0.8,0.6,0.845306623071866,"false"
"image-keyboard-response",537,1046732,"0.0-3.175-1.175","8f78wor05r9dn3u",943,"167.csv","","null","resources/maskTrios/BT2B.jpg","null","",NA,NA,NA,NA,""
"image-keyboard-response",538,1047936,"0.0-3.175-2.175","8f78wor05r9dn3u",943,"167.csv","","null","resources/images/fishbone.png","null","",NA,NA,NA,NA,""
"image-keyboard-response",539,1048025,"0.0-3.176-0.176","8f78wor05r9dn3u",943,"167.csv","","87.7000000178814","resources/trios/L4T4A1.jpg","37","restless",0.5,0.8,0.6,0.527499466282301,"false"
"image-keyboard-response",540,1048431,"0.0-3.176-1.176","8f78wor05r9dn3u",943,"167.csv","","null","resources/maskTrios/L4BB.jpg","null","",NA,NA,NA,NA,""
"image-keyboard-response",541,1049634,"0.0-3.176-2.176","8f78wor05r9dn3u",943,"167.csv","","null","resources/images/fishbone.png","null","",NA,NA,NA,NA,""
"image-keyboard-response",542,1049669,"0.0-3.177-0.177","8f78wor05r9dn3u",943,"167.csv","","33.5","resources/trios/L4T4A1.jpg","38","restless",0.5,0.7,0.5,0.774944446826025,"false"
"image-keyboard-response",543,1050073,"0.0-3.177-1.177","8f78wor05r9dn3u",943,"167.csv","","null","resources/maskTrios/BT4B.jpg","null","",NA,NA,NA,NA,""
"image-keyboard-response",544,1051274,"0.0-3.177-2.177","8f78wor05r9dn3u",943,"167.csv","","null","resources/images/fishbone.png","null","",NA,NA,NA,NA,""
"image-keyboard-response",545,1051527,"0.0-3.178-0.178","8f78wor05r9dn3u",943,"167.csv","","251.5","resources/trios/L4T2A1.jpg","39","restless",0.5,0.7,0.5,0.859935307284022,"false"
"image-keyboard-response",546,1051933,"0.0-3.178-1.178","8f78wor05r9dn3u",943,"167.csv","","null","resources/maskTrios/BBA1.jpg","null","",NA,NA,NA,NA,""
"image-keyboard-response",547,1053139,"0.0-3.178-2.178","8f78wor05r9dn3u",943,"167.csv","","null","resources/images/fishbone.png","null","",NA,NA,NA,NA,""
"image-keyboard-response",548,1053219,"0.0-3.179-0.179","8f78wor05r9dn3u",943,"167.csv","","78.2000000178814","resources/trios/L4T2A3.jpg","38","restless",0.5,0.6,0.5,0.815349706502181,"false"
"image-keyboard-response",549,1053625,"0.0-3.179-1.179","8f78wor05r9dn3u",943,"167.csv","","null","resources/maskTrios/BT2B.jpg","null","",NA,NA,NA,NA,""
"image-keyboard-response",550,1054828,"0.0-3.179-2.179","8f78wor05r9dn3u",943,"167.csv","","null","resources/images/fishbone.png","null","",NA,NA,NA,NA,""
"image-keyboard-response",551,1054879,"0.0-3.180-0.180","8f78wor05r9dn3u",943,"167.csv","","49.5","resources/trios/L2T2A3.jpg","37","restless",0.5,0.6,0.5,0.406811841247157,"true"
"image-keyboard-response",552,1055284,"0.0-3.180-1.180","8f78wor05r9dn3u",943,"167.csv","","null","resources/maskTrios/L2BB.jpg","null","",NA,NA,NA,NA,""
"image-keyboard-response",553,1056490,"0.0-3.180-2.180","8f78wor05r9dn3u",943,"167.csv","","null","resources/images/coin2.png","null","",NA,NA,NA,NA,""
"image-keyboard-response",554,1056521,"0.0-3.181-0.181","8f78wor05r9dn3u",943,"167.csv","","28.80000001192093","resources/trios/L4T4A3.jpg","38","restless",0.5,0.6,0.5,0.5267874810781,"true"
"image-keyboard-response",555,1056927,"0.0-3.181-1.181","8f78wor05r9dn3u",943,"167.csv","","null","resources/maskTrios/BT4B.jpg","null","",NA,NA,NA,NA,""
"image-keyboard-response",556,1058131,"0.0-3.181-2.181","8f78wor05r9dn3u",943,"167.csv","","null","resources/images/coin2.png","null","",NA,NA,NA,NA,""
"image-keyboard-response",557,1058261,"0.0-3.182-0.182","8f78wor05r9dn3u",943,"167.csv","","128.59999999403954","resources/trios/L4T4A1.jpg","39","restless",0.5,0.6,0.5,0.756548187696648,"false"
"image-keyboard-response",558,1058664,"0.0-3.182-1.182","8f78wor05r9dn3u",943,"167.csv","","null","resources/maskTrios/BBA1.jpg","null","",NA,NA,NA,NA,""
"image-keyboard-response",559,1059866,"0.0-3.182-2.182","8f78wor05r9dn3u",943,"167.csv","","null","resources/images/fishbone.png","null","",NA,NA,NA,NA,""
"image-keyboard-response",560,1060043,"0.0-3.183-0.183","8f78wor05r9dn3u",943,"167.csv","","176.09999999403954","resources/trios/L4T4A3.jpg","38","restless",0.5,0.6,0.5,0.558831578208157,"true"
"image-keyboard-response",561,1060450,"0.0-3.183-1.183","8f78wor05r9dn3u",943,"167.csv","","null","resources/maskTrios/BT4B.jpg","null","",NA,NA,NA,NA,""
"image-keyboard-response",562,1061656,"0.0-3.183-2.183","8f78wor05r9dn3u",943,"167.csv","","null","resources/images/coin2.png","null","",NA,NA,NA,NA,""
"image-keyboard-response",563,1061778,"0.0-3.184-0.184","8f78wor05r9dn3u",943,"167.csv","","119.90000000596046","resources/trios/L4T4A3.jpg","37","restless",0.6,0.6,0.5,0.538964424255572,"true"
"image-keyboard-response",564,1062180,"0.0-3.184-1.184","8f78wor05r9dn3u",943,"167.csv","","null","resources/maskTrios/L4BB.jpg","null","",NA,NA,NA,NA,""
"image-keyboard-response",565,1063387,"0.0-3.184-2.184","8f78wor05r9dn3u",943,"167.csv","","null","resources/images/coin2.png","null","",NA,NA,NA,NA,""
"image-keyboard-response",566,1063889,"0.0-3.185-0.185","8f78wor05r9dn3u",943,"167.csv","","500.59999999403954","resources/trios/L4T2A1.jpg","38","restless",0.6,0.6,0.5,0.565200234379829,"true"
"image-keyboard-response",567,1064294,"0.0-3.185-1.185","8f78wor05r9dn3u",943,"167.csv","","null","resources/maskTrios/BT2B.jpg","null","",NA,NA,NA,NA,""
"image-keyboard-response",568,1065501,"0.0-3.185-2.185","8f78wor05r9dn3u",943,"167.csv","","null","resources/images/coin2.png","null","",NA,NA,NA,NA,""
"image-keyboard-response",569,1065657,"0.0-3.186-0.186","8f78wor05r9dn3u",943,"167.csv","","154.40000000596046","resources/trios/L4T4A1.jpg","39","restless",0.6,0.6,0.5,0.044740782057697,"true"
"image-keyboard-response",570,1066060,"0.0-3.186-1.186","8f78wor05r9dn3u",943,"167.csv","","null","resources/maskTrios/BBA1.jpg","null","",NA,NA,NA,NA,""
"image-keyboard-response",571,1067266,"0.0-3.186-2.186","8f78wor05r9dn3u",943,"167.csv","","null","resources/images/coin2.png","null","",NA,NA,NA,NA,""
"image-keyboard-response",572,1067419,"0.0-3.187-0.187","8f78wor05r9dn3u",943,"167.csv","","151.30000001192093","resources/trios/L2T4A1.jpg","38","restless",0.6,0.6,0.5,0.388053005026329,"true"
"image-keyboard-response",573,1067826,"0.0-3.187-1.187","8f78wor05r9dn3u",943,"167.csv","","null","resources/maskTrios/BT4B.jpg","null","",NA,NA,NA,NA,""
"image-keyboard-response",574,1069030,"0.0-3.187-2.187","8f78wor05r9dn3u",943,"167.csv","","null","resources/images/coin2.png","null","",NA,NA,NA,NA,""
"image-keyboard-response",575,1069252,"0.0-3.188-0.188","8f78wor05r9dn3u",943,"167.csv","","220.5","resources/trios/L4T2A3.jpg","37","restless",0.6,0.6,0.5,0.359931490618416,"true"
"image-keyboard-response",576,1069658,"0.0-3.188-1.188","8f78wor05r9dn3u",943,"167.csv","","null","resources/maskTrios/L4BB.jpg","null","",NA,NA,NA,NA,""
"image-keyboard-response",577,1070860,"0.0-3.188-2.188","8f78wor05r9dn3u",943,"167.csv","","null","resources/images/coin2.png","null","",NA,NA,NA,NA,""
"image-keyboard-response",578,1070896,"0.0-3.189-0.189","8f78wor05r9dn3u",943,"167.csv","","34.29999998211861","resources/trios/L4T4A3.jpg","37","restless",0.6,0.6,0.5,0.565119933686883,"true"
"image-keyboard-response",579,1071298,"0.0-3.189-1.189","8f78wor05r9dn3u",943,"167.csv","","null","resources/maskTrios/L4BB.jpg","null","",NA,NA,NA,NA,""
"image-keyboard-response",580,1072500,"0.0-3.189-2.189","8f78wor05r9dn3u",943,"167.csv","","null","resources/images/coin2.png","null","",NA,NA,NA,NA,""
"image-keyboard-response",581,1072627,"0.0-3.190-0.190","8f78wor05r9dn3u",943,"167.csv","","125.7999999821186","resources/trios/L2T2A1.jpg","38","restless",0.6,0.6,0.5,0.951005793898106,"false"
"image-keyboard-response",582,1073032,"0.0-3.190-1.190","8f78wor05r9dn3u",943,"167.csv","","null","resources/maskTrios/BT2B.jpg","null","",NA,NA,NA,NA,""
"image-keyboard-response",583,1074236,"0.0-3.190-2.190","8f78wor05r9dn3u",943,"167.csv","","null","resources/images/fishbone.png","null","",NA,NA,NA,NA,""
"image-keyboard-response",584,1074578,"0.0-3.191-0.191","8f78wor05r9dn3u",943,"167.csv","","340.40000000596046","resources/trios/L4T2A3.jpg","39","restless",0.6,0.6,0.5,0.661379380677414,"false"
"image-keyboard-response",585,1074984,"0.0-3.191-1.191","8f78wor05r9dn3u",943,"167.csv","","null","resources/maskTrios/BBA3.jpg","null","",NA,NA,NA,NA,""
"image-keyboard-response",586,1076189,"0.0-3.191-2.191","8f78wor05r9dn3u",943,"167.csv","","null","resources/images/fishbone.png","null","",NA,NA,NA,NA,""
"image-keyboard-response",587,1076353,"0.0-3.192-0.192","8f78wor05r9dn3u",943,"167.csv","","162.09999999403954","resources/trios/L4T2A3.jpg","38","restless",0.6,0.6,0.5,0.151573967233884,"true"
"image-keyboard-response",588,1076760,"0.0-3.192-1.192","8f78wor05r9dn3u",943,"167.csv","","null","resources/maskTrios/BT2B.jpg","null","",NA,NA,NA,NA,""
"image-keyboard-response",589,1077961,"0.0-3.192-2.192","8f78wor05r9dn3u",943,"167.csv","","null","resources/images/coin2.png","null","",NA,NA,NA,NA,""
"image-keyboard-response",590,1078031,"0.0-3.193-0.193","8f78wor05r9dn3u",943,"167.csv","","68","resources/trios/L2T2A1.jpg","38","restless",0.5,0.6,0.4,0.400614849403152,"true"
"image-keyboard-response",591,1078437,"0.0-3.193-1.193","8f78wor05r9dn3u",943,"167.csv","","null","resources/maskTrios/BT2B.jpg","null","",NA,NA,NA,NA,""
"image-keyboard-response",592,1079642,"0.0-3.193-2.193","8f78wor05r9dn3u",943,"167.csv","","null","resources/images/coin2.png","null","",NA,NA,NA,NA,""
"image-keyboard-response",593,1113603,"0.0-3.194-0.194","8f78wor05r9dn3u",943,"167.csv","","33959.80000001192","resources/trios/L2T4A3.jpg","39","restless",0.5,0.6,0.4,0.916564032200409,"false"
"image-keyboard-response",594,1114008,"0.0-3.194-1.194","8f78wor05r9dn3u",943,"167.csv","","null","resources/maskTrios/BBA3.jpg","null","",NA,NA,NA,NA,""
"image-keyboard-response",595,1115214,"0.0-3.194-2.194","8f78wor05r9dn3u",943,"167.csv","","null","resources/images/fishbone.png","null","",NA,NA,NA,NA,""
"image-keyboard-response",596,1115724,"0.0-3.195-0.195","8f78wor05r9dn3u",943,"167.csv","","508.80000001192093","resources/trios/L2T4A1.jpg","38","restless",0.5,0.6,0.4,0.656441886660082,"false"
"image-keyboard-response",597,1116126,"0.0-3.195-1.195","8f78wor05r9dn3u",943,"167.csv","","null","resources/maskTrios/BT4B.jpg","null","",NA,NA,NA,NA,""
"image-keyboard-response",598,1117332,"0.0-3.195-2.195","8f78wor05r9dn3u",943,"167.csv","","null","resources/images/fishbone.png","null","",NA,NA,NA,NA,""
"image-keyboard-response",599,1117499,"0.0-3.196-0.196","8f78wor05r9dn3u",943,"167.csv","","165.69999998807907","resources/trios/L2T2A1.jpg","39","restless",0.5,0.6,0.3,0.308265252982041,"false"
"image-keyboard-response",600,1117906,"0.0-3.196-1.196","8f78wor05r9dn3u",943,"167.csv","","null","resources/maskTrios/BBA1.jpg","null","",NA,NA,NA,NA,""
"image-keyboard-response",601,1119112,"0.0-3.196-2.196","8f78wor05r9dn3u",943,"167.csv","","null","resources/images/fishbone.png","null","",NA,NA,NA,NA,""
"image-keyboard-response",602,1119260,"0.0-3.197-0.197","8f78wor05r9dn3u",943,"167.csv","","146.30000001192093","resources/trios/L2T2A3.jpg","38","restless",0.5,0.7,0.3,0.905405659222738,"false"
"image-keyboard-response",603,1119666,"0.0-3.197-1.197","8f78wor05r9dn3u",943,"167.csv","","null","resources/maskTrios/BT2B.jpg","null","",NA,NA,NA,NA,""
"image-keyboard-response",604,1120872,"0.0-3.197-2.197","8f78wor05r9dn3u",943,"167.csv","","null","resources/images/fishbone.png","null","",NA,NA,NA,NA,""
