"trial_type","trial_index","time_elapsed","internal_node_id","subject","participantCode","walkNumber","success","rt","stimulus","key_press","test_part","leftProb","midProb","rightProb","generatedNum","correct"
"pavlovia",0,3157,"0.0-0.0","mrcjt11ueoyjhcc",370,"37.csv","","","","","",NA,NA,NA,NA,""
"fullscreen",1,52453,"0.0-1.0","mrcjt11ueoyjhcc",370,"37.csv","true","","","","",NA,NA,NA,NA,""
"html-keyboard-response",2,63550,"0.0-2.0-0.0","mrcjt11ueoyjhcc",370,"37.csv","","11094.799999713898","<p><font size='6'>Arrrgh!</p></font><p>Can you be the best pirate? Try to find lots of gold! But beware, some islands have more gold than others, and over time, the island with the most gold may change. Can YOU figure it out? </p><font size='6'>GOOD LUCK, CAPTAIN!!!</font><p>Press any key to begin</p>","32","",NA,NA,NA,NA,""
"image-keyboard-response",3,66555,"0.0-2.0-1.0","mrcjt11ueoyjhcc",370,"37.csv","","null","resources/image_sets/111.png","null","",NA,NA,NA,NA,""
"image-keyboard-response",4,71147,"0.0-2.0-2.0","mrcjt11ueoyjhcc",370,"37.csv","","4591.699999809265","resources/image_sets/left_highlight.png","37","",NA,NA,NA,NA,""
"image-keyboard-response",5,74445,"0.0-2.0-3.0","mrcjt11ueoyjhcc",370,"37.csv","","3296.199999809265","resources/image_sets/mid_highlight.png","38","",NA,NA,NA,NA,""
"image-keyboard-response",6,75679,"0.0-2.0-4.0","mrcjt11ueoyjhcc",370,"37.csv","","1232.5999999046326","resources/image_sets/right_highlight.png","39","",NA,NA,NA,NA,""
"image-keyboard-response",7,80634,"0.0-2.0-5.0","mrcjt11ueoyjhcc",370,"37.csv","","4954.599999904633","resources/image_sets/111.png","13","",NA,NA,NA,NA,""
"image-keyboard-response",8,83559,"0.0-2.0-6.0","mrcjt11ueoyjhcc",370,"37.csv","","2923.0999999046326","resources/images/coin2.png","13","",NA,NA,NA,NA,""
"image-keyboard-response",9,85678,"0.0-2.0-7.0","mrcjt11ueoyjhcc",370,"37.csv","","2118.0999999046326","resources/images/fishbone.png","13","",NA,NA,NA,NA,""
"html-keyboard-response",10,94119,"0.0-2.0-8.0","mrcjt11ueoyjhcc",370,"37.csv","","8440.199999809265","<p>Your first journey will be a long one, but you will get a well deserved break at the end</p><p>After the break you will have four more journeys, but each will be much shorter than the first, and you will have breaks in between each</p><p>Press Enter to begin</p>","13","",NA,NA,NA,NA,""
"image-keyboard-response",11,98482,"0.0-3.0-0.0","mrcjt11ueoyjhcc",370,"37.csv","","4361.099999904633","resources/trios/L4T1A2.jpg","37","restless",0.7,0.3,0.9,0.500538976718474,"true"
"image-keyboard-response",12,98891,"0.0-3.0-1.0","mrcjt11ueoyjhcc",370,"37.csv","","null","resources/maskTrios/L4BB.jpg","null","",NA,NA,NA,NA,""
"image-keyboard-response",13,100101,"0.0-3.0-2.0","mrcjt11ueoyjhcc",370,"37.csv","","null","resources/images/coin2.png","null","",NA,NA,NA,NA,""
"image-keyboard-response",14,104858,"0.0-3.1-0.1","mrcjt11ueoyjhcc",370,"37.csv","","4755.300000190735","resources/trios/L1T2A2.jpg","38","restless",0.7,0.3,0.8,0.283305272642179,"true"
"image-keyboard-response",15,105268,"0.0-3.1-1.1","mrcjt11ueoyjhcc",370,"37.csv","","null","resources/maskTrios/BT2B.jpg","null","",NA,NA,NA,NA,""
"image-keyboard-response",16,106475,"0.0-3.1-2.1","mrcjt11ueoyjhcc",370,"37.csv","","null","resources/images/coin2.png","null","",NA,NA,NA,NA,""
"image-keyboard-response",17,109517,"0.0-3.2-0.2","mrcjt11ueoyjhcc",370,"37.csv","","3040.4000000953674","resources/trios/L4T2A3.jpg","38","restless",0.7,0.3,0.8,0.186085810304941,"true"
"image-keyboard-response",18,109923,"0.0-3.2-1.2","mrcjt11ueoyjhcc",370,"37.csv","","null","resources/maskTrios/BT2B.jpg","null","",NA,NA,NA,NA,""
"image-keyboard-response",19,111131,"0.0-3.2-2.2","mrcjt11ueoyjhcc",370,"37.csv","","null","resources/images/coin2.png","null","",NA,NA,NA,NA,""
"image-keyboard-response",20,113155,"0.0-3.3-0.3","mrcjt11ueoyjhcc",370,"37.csv","","2022","resources/trios/L1T2A3.jpg","37","restless",0.7,0.3,0.8,0.673029489487178,"true"
"image-keyboard-response",21,113565,"0.0-3.3-1.3","mrcjt11ueoyjhcc",370,"37.csv","","null","resources/maskTrios/L1BB.jpg","null","",NA,NA,NA,NA,""
"image-keyboard-response",22,114773,"0.0-3.3-2.3","mrcjt11ueoyjhcc",370,"37.csv","","null","resources/images/coin2.png","null","",NA,NA,NA,NA,""
"image-keyboard-response",23,116700,"0.0-3.4-0.4","mrcjt11ueoyjhcc",370,"37.csv","","1926.2999997138977","resources/trios/L4T2A3.jpg","39","restless",0.6,0.4,0.8,0.0980302392643213,"true"
"image-keyboard-response",24,117106,"0.0-3.4-1.4","mrcjt11ueoyjhcc",370,"37.csv","","null","resources/maskTrios/BBA3.jpg","null","",NA,NA,NA,NA,""
"image-keyboard-response",25,118317,"0.0-3.4-2.4","mrcjt11ueoyjhcc",370,"37.csv","","null","resources/images/coin2.png","null","",NA,NA,NA,NA,""
"image-keyboard-response",26,119340,"0.0-3.5-0.5","mrcjt11ueoyjhcc",370,"37.csv","","1020.8999996185303","resources/trios/L1T2A3.jpg","38","restless",0.6,0.4,0.8,0.863639922208655,"false"
"image-keyboard-response",27,119747,"0.0-3.5-1.5","mrcjt11ueoyjhcc",370,"37.csv","","null","resources/maskTrios/BT2B.jpg","null","",NA,NA,NA,NA,""
"image-keyboard-response",28,120959,"0.0-3.5-2.5","mrcjt11ueoyjhcc",370,"37.csv","","null","resources/images/fishbone.png","null","",NA,NA,NA,NA,""
"image-keyboard-response",29,121615,"0.0-3.6-0.6","mrcjt11ueoyjhcc",370,"37.csv","","653.7000002861023","resources/trios/L1T2A2.jpg","37","restless",0.6,0.4,0.8,0.547257712392372,"true"
"image-keyboard-response",30,122020,"0.0-3.6-1.6","mrcjt11ueoyjhcc",370,"37.csv","","null","resources/maskTrios/L1BB.jpg","null","",NA,NA,NA,NA,""
"image-keyboard-response",31,123227,"0.0-3.6-2.6","mrcjt11ueoyjhcc",370,"37.csv","","null","resources/images/coin2.png","null","",NA,NA,NA,NA,""
"image-keyboard-response",32,124137,"0.0-3.7-0.7","mrcjt11ueoyjhcc",370,"37.csv","","908.3000001907349","resources/trios/L1T2A2.jpg","38","restless",0.6,0.4,0.7,0.796998912821162,"false"
"image-keyboard-response",33,124548,"0.0-3.7-1.7","mrcjt11ueoyjhcc",370,"37.csv","","null","resources/maskTrios/BT2B.jpg","null","",NA,NA,NA,NA,""
"image-keyboard-response",34,125755,"0.0-3.7-2.7","mrcjt11ueoyjhcc",370,"37.csv","","null","resources/images/fishbone.png","null","",NA,NA,NA,NA,""
"image-keyboard-response",35,126196,"0.0-3.8-0.8","mrcjt11ueoyjhcc",370,"37.csv","","439.19999980926514","resources/trios/L4T2A3.jpg","39","restless",0.6,0.5,0.7,0.40770163452759,"true"
"image-keyboard-response",36,126603,"0.0-3.8-1.8","mrcjt11ueoyjhcc",370,"37.csv","","null","resources/maskTrios/BBA3.jpg","null","",NA,NA,NA,NA,""
"image-keyboard-response",37,127815,"0.0-3.8-2.8","mrcjt11ueoyjhcc",370,"37.csv","","null","resources/images/coin2.png","null","",NA,NA,NA,NA,""
"image-keyboard-response",38,129294,"0.0-3.9-0.9","mrcjt11ueoyjhcc",370,"37.csv","","1477.5","resources/trios/L1T1A2.jpg","38","restless",0.6,0.5,0.6,0.537520230209714,"false"
"image-keyboard-response",39,129699,"0.0-3.9-1.9","mrcjt11ueoyjhcc",370,"37.csv","","null","resources/maskTrios/BT1B.jpg","null","",NA,NA,NA,NA,""
"image-keyboard-response",40,130911,"0.0-3.9-2.9","mrcjt11ueoyjhcc",370,"37.csv","","null","resources/images/fishbone.png","null","",NA,NA,NA,NA,""
"image-keyboard-response",41,131362,"0.0-3.10-0.10","mrcjt11ueoyjhcc",370,"37.csv","","449","resources/trios/L4T1A2.jpg","37","restless",0.6,0.5,0.6,0.0303018604931884,"true"
"image-keyboard-response",42,131771,"0.0-3.10-1.10","mrcjt11ueoyjhcc",370,"37.csv","","null","resources/maskTrios/L4BB.jpg","null","",NA,NA,NA,NA,""
"image-keyboard-response",43,132983,"0.0-3.10-2.10","mrcjt11ueoyjhcc",370,"37.csv","","null","resources/images/coin2.png","null","",NA,NA,NA,NA,""
"image-keyboard-response",44,133561,"0.0-3.11-0.11","mrcjt11ueoyjhcc",370,"37.csv","","576.8999996185303","resources/trios/L4T2A2.jpg","37","restless",0.6,0.5,0.6,0.00629207391937614,"true"
"image-keyboard-response",45,133975,"0.0-3.11-1.11","mrcjt11ueoyjhcc",370,"37.csv","","null","resources/maskTrios/L4BB.jpg","null","",NA,NA,NA,NA,""
"image-keyboard-response",46,135183,"0.0-3.11-2.11","mrcjt11ueoyjhcc",370,"37.csv","","null","resources/images/coin2.png","null","",NA,NA,NA,NA,""
"image-keyboard-response",47,135696,"0.0-3.12-0.12","mrcjt11ueoyjhcc",370,"37.csv","","511","resources/trios/L4T1A2.jpg","37","restless",0.5,0.5,0.6,0.297490564683736,"true"
"image-keyboard-response",48,136098,"0.0-3.12-1.12","mrcjt11ueoyjhcc",370,"37.csv","","null","resources/maskTrios/L4BB.jpg","null","",NA,NA,NA,NA,""
"image-keyboard-response",49,137311,"0.0-3.12-2.12","mrcjt11ueoyjhcc",370,"37.csv","","null","resources/images/coin2.png","null","",NA,NA,NA,NA,""
"image-keyboard-response",50,137750,"0.0-3.13-0.13","mrcjt11ueoyjhcc",370,"37.csv","","437.5","resources/trios/L1T2A3.jpg","37","restless",0.4,0.5,0.6,0.784128733237147,"false"
"image-keyboard-response",51,138155,"0.0-3.13-1.13","mrcjt11ueoyjhcc",370,"37.csv","","null","resources/maskTrios/L1BB.jpg","null","",NA,NA,NA,NA,""
"image-keyboard-response",52,139363,"0.0-3.13-2.13","mrcjt11ueoyjhcc",370,"37.csv","","null","resources/images/fishbone.png","null","",NA,NA,NA,NA,""
"image-keyboard-response",53,139901,"0.0-3.14-0.14","mrcjt11ueoyjhcc",370,"37.csv","","536.9000000953674","resources/trios/L4T2A2.jpg","39","restless",0.4,0.5,0.6,0.455886256984659,"true"
"image-keyboard-response",54,140308,"0.0-3.14-1.14","mrcjt11ueoyjhcc",370,"37.csv","","null","resources/maskTrios/BBA2.jpg","null","",NA,NA,NA,NA,""
"image-keyboard-response",55,141514,"0.0-3.14-2.14","mrcjt11ueoyjhcc",370,"37.csv","","null","resources/images/coin2.png","null","",NA,NA,NA,NA,""
"image-keyboard-response",56,142043,"0.0-3.15-0.15","mrcjt11ueoyjhcc",370,"37.csv","","528.2999997138977","resources/trios/L4T2A3.jpg","38","restless",0.4,0.5,0.5,0.209260077275949,"true"
"image-keyboard-response",57,142455,"0.0-3.15-1.15","mrcjt11ueoyjhcc",370,"37.csv","","null","resources/maskTrios/BT2B.jpg","null","",NA,NA,NA,NA,""
"image-keyboard-response",58,143663,"0.0-3.15-2.15","mrcjt11ueoyjhcc",370,"37.csv","","null","resources/images/coin2.png","null","",NA,NA,NA,NA,""
"image-keyboard-response",59,144021,"0.0-3.16-0.16","mrcjt11ueoyjhcc",370,"37.csv","","356.5","resources/trios/L1T1A2.jpg","39","restless",0.4,0.5,0.5,0.473049298526734,"true"
"image-keyboard-response",60,144431,"0.0-3.16-1.16","mrcjt11ueoyjhcc",370,"37.csv","","null","resources/maskTrios/BBA2.jpg","null","",NA,NA,NA,NA,""
"image-keyboard-response",61,145639,"0.0-3.16-2.16","mrcjt11ueoyjhcc",370,"37.csv","","null","resources/images/coin2.png","null","",NA,NA,NA,NA,""
"image-keyboard-response",62,146185,"0.0-3.17-0.17","mrcjt11ueoyjhcc",370,"37.csv","","544","resources/trios/L4T1A3.jpg","37","restless",0.4,0.5,0.5,0.241284084517596,"true"
"image-keyboard-response",63,146591,"0.0-3.17-1.17","mrcjt11ueoyjhcc",370,"37.csv","","null","resources/maskTrios/L4BB.jpg","null","",NA,NA,NA,NA,""
"image-keyboard-response",64,147796,"0.0-3.17-2.17","mrcjt11ueoyjhcc",370,"37.csv","","null","resources/images/coin2.png","null","",NA,NA,NA,NA,""
"image-keyboard-response",65,149101,"0.0-3.18-0.18","mrcjt11ueoyjhcc",370,"37.csv","","1303.8000001907349","resources/trios/L1T1A3.jpg","38","restless",0.4,0.4,0.5,0.164101283369551,"true"
"image-keyboard-response",66,149511,"0.0-3.18-1.18","mrcjt11ueoyjhcc",370,"37.csv","","null","resources/maskTrios/BT1B.jpg","null","",NA,NA,NA,NA,""
"image-keyboard-response",67,150715,"0.0-3.18-2.18","mrcjt11ueoyjhcc",370,"37.csv","","null","resources/images/coin2.png","null","",NA,NA,NA,NA,""
"image-keyboard-response",68,151467,"0.0-3.19-0.19","mrcjt11ueoyjhcc",370,"37.csv","","750.5999999046326","resources/trios/L4T1A3.jpg","38","restless",0.4,0.4,0.5,0.478476822956603,"false"
"image-keyboard-response",69,151879,"0.0-3.19-1.19","mrcjt11ueoyjhcc",370,"37.csv","","null","resources/maskTrios/BT1B.jpg","null","",NA,NA,NA,NA,""
"image-keyboard-response",70,153085,"0.0-3.19-2.19","mrcjt11ueoyjhcc",370,"37.csv","","null","resources/images/fishbone.png","null","",NA,NA,NA,NA,""
"image-keyboard-response",71,153546,"0.0-3.20-0.20","mrcjt11ueoyjhcc",370,"37.csv","","459.19999980926514","resources/trios/L4T2A3.jpg","37","restless",0.4,0.4,0.5,0.48035618992469,"false"
"image-keyboard-response",72,153959,"0.0-3.20-1.20","mrcjt11ueoyjhcc",370,"37.csv","","null","resources/maskTrios/L4BB.jpg","null","",NA,NA,NA,NA,""
"image-keyboard-response",73,155164,"0.0-3.20-2.20","mrcjt11ueoyjhcc",370,"37.csv","","null","resources/images/fishbone.png","null","",NA,NA,NA,NA,""
"image-keyboard-response",74,155753,"0.0-3.21-0.21","mrcjt11ueoyjhcc",370,"37.csv","","587","resources/trios/L1T1A3.jpg","37","restless",0.4,0.4,0.4,0.722586700656466,"false"
"image-keyboard-response",75,156165,"0.0-3.21-1.21","mrcjt11ueoyjhcc",370,"37.csv","","null","resources/maskTrios/L1BB.jpg","null","",NA,NA,NA,NA,""
"image-keyboard-response",76,157371,"0.0-3.21-2.21","mrcjt11ueoyjhcc",370,"37.csv","","null","resources/images/fishbone.png","null","",NA,NA,NA,NA,""
"image-keyboard-response",77,157749,"0.0-3.22-0.22","mrcjt11ueoyjhcc",370,"37.csv","","377.09999990463257","resources/trios/L1T2A3.jpg","39","restless",0.4,0.4,0.4,0.528679996436612,"false"
"image-keyboard-response",78,158155,"0.0-3.22-1.22","mrcjt11ueoyjhcc",370,"37.csv","","null","resources/maskTrios/BBA3.jpg","null","",NA,NA,NA,NA,""
"image-keyboard-response",79,159364,"0.0-3.22-2.22","mrcjt11ueoyjhcc",370,"37.csv","","null","resources/images/fishbone.png","null","",NA,NA,NA,NA,""
"image-keyboard-response",80,159843,"0.0-3.23-0.23","mrcjt11ueoyjhcc",370,"37.csv","","478","resources/trios/L4T2A3.jpg","38","restless",0.4,0.4,0.4,0.202725557946618,"true"
"image-keyboard-response",81,160252,"0.0-3.23-1.23","mrcjt11ueoyjhcc",370,"37.csv","","null","resources/maskTrios/BT2B.jpg","null","",NA,NA,NA,NA,""
"image-keyboard-response",82,161462,"0.0-3.23-2.23","mrcjt11ueoyjhcc",370,"37.csv","","null","resources/images/coin2.png","null","",NA,NA,NA,NA,""
"image-keyboard-response",83,161807,"0.0-3.24-0.24","mrcjt11ueoyjhcc",370,"37.csv","","343","resources/trios/L1T2A3.jpg","39","restless",0.4,0.4,0.4,0.186581022689548,"true"
"image-keyboard-response",84,162211,"0.0-3.24-1.24","mrcjt11ueoyjhcc",370,"37.csv","","null","resources/maskTrios/BBA3.jpg","null","",NA,NA,NA,NA,""
"image-keyboard-response",85,163423,"0.0-3.24-2.24","mrcjt11ueoyjhcc",370,"37.csv","","null","resources/images/coin2.png","null","",NA,NA,NA,NA,""
"image-keyboard-response",86,163846,"0.0-3.25-0.25","mrcjt11ueoyjhcc",370,"37.csv","","422.2000002861023","resources/trios/L4T1A3.jpg","38","restless",0.4,0.4,0.4,0.504009543656091,"false"
"image-keyboard-response",87,164256,"0.0-3.25-1.25","mrcjt11ueoyjhcc",370,"37.csv","","null","resources/maskTrios/BT1B.jpg","null","",NA,NA,NA,NA,""
"image-keyboard-response",88,165460,"0.0-3.25-2.25","mrcjt11ueoyjhcc",370,"37.csv","","null","resources/images/fishbone.png","null","",NA,NA,NA,NA,""
"image-keyboard-response",89,165785,"0.0-3.26-0.26","mrcjt11ueoyjhcc",370,"37.csv","","324.7999997138977","resources/trios/L4T2A3.jpg","37","restless",0.4,0.4,0.4,0.308627526085762,"true"
"image-keyboard-response",90,166200,"0.0-3.26-1.26","mrcjt11ueoyjhcc",370,"37.csv","","null","resources/maskTrios/L4BB.jpg","null","",NA,NA,NA,NA,""
"image-keyboard-response",91,167404,"0.0-3.26-2.26","mrcjt11ueoyjhcc",370,"37.csv","","null","resources/images/coin2.png","null","",NA,NA,NA,NA,""
"image-keyboard-response",92,167797,"0.0-3.27-0.27","mrcjt11ueoyjhcc",370,"37.csv","","391","resources/trios/L4T1A2.jpg","37","restless",0.4,0.4,0.4,0.3199059843243,"true"
"image-keyboard-response",93,168208,"0.0-3.27-1.27","mrcjt11ueoyjhcc",370,"37.csv","","null","resources/maskTrios/L4BB.jpg","null","",NA,NA,NA,NA,""
"image-keyboard-response",94,169416,"0.0-3.27-2.27","mrcjt11ueoyjhcc",370,"37.csv","","null","resources/images/coin2.png","null","",NA,NA,NA,NA,""
"image-keyboard-response",95,169811,"0.0-3.28-0.28","mrcjt11ueoyjhcc",370,"37.csv","","394","resources/trios/L4T1A2.jpg","39","restless",0.4,0.4,0.4,0.207039904548766,"true"
"image-keyboard-response",96,170224,"0.0-3.28-1.28","mrcjt11ueoyjhcc",370,"37.csv","","null","resources/maskTrios/BBA2.jpg","null","",NA,NA,NA,NA,""
"image-keyboard-response",97,171429,"0.0-3.28-2.28","mrcjt11ueoyjhcc",370,"37.csv","","null","resources/images/coin2.png","null","",NA,NA,NA,NA,""
"image-keyboard-response",98,171893,"0.0-3.29-0.29","mrcjt11ueoyjhcc",370,"37.csv","","463","resources/trios/L1T1A3.jpg","39","restless",0.4,0.4,0.4,0.889214821305493,"false"
"image-keyboard-response",99,172304,"0.0-3.29-1.29","mrcjt11ueoyjhcc",370,"37.csv","","null","resources/maskTrios/BBA3.jpg","null","",NA,NA,NA,NA,""
"image-keyboard-response",100,173507,"0.0-3.29-2.29","mrcjt11ueoyjhcc",370,"37.csv","","null","resources/images/fishbone.png","null","",NA,NA,NA,NA,""
"image-keyboard-response",101,174046,"0.0-3.30-0.30","mrcjt11ueoyjhcc",370,"37.csv","","537.6999998092651","resources/trios/L1T2A2.jpg","38","restless",0.5,0.4,0.4,0.358611414423896,"true"
"image-keyboard-response",102,174452,"0.0-3.30-1.30","mrcjt11ueoyjhcc",370,"37.csv","","null","resources/maskTrios/BT2B.jpg","null","",NA,NA,NA,NA,""
"image-keyboard-response",103,175664,"0.0-3.30-2.30","mrcjt11ueoyjhcc",370,"37.csv","","null","resources/images/coin2.png","null","",NA,NA,NA,NA,""
"image-keyboard-response",104,176061,"0.0-3.31-0.31","mrcjt11ueoyjhcc",370,"37.csv","","395.7999997138977","resources/trios/L4T2A2.jpg","38","restless",0.5,0.4,0.4,0.488862107619483,"false"
"image-keyboard-response",105,176468,"0.0-3.31-1.31","mrcjt11ueoyjhcc",370,"37.csv","","null","resources/maskTrios/BT2B.jpg","null","",NA,NA,NA,NA,""
"image-keyboard-response",106,177677,"0.0-3.31-2.31","mrcjt11ueoyjhcc",370,"37.csv","","null","resources/images/fishbone.png","null","",NA,NA,NA,NA,""
"image-keyboard-response",107,177985,"0.0-3.32-0.32","mrcjt11ueoyjhcc",370,"37.csv","","306.8999996185303","resources/trios/L1T1A2.jpg","37","restless",0.5,0.4,0.4,0.328814421018512,"true"
"image-keyboard-response",108,178389,"0.0-3.32-1.32","mrcjt11ueoyjhcc",370,"37.csv","","null","resources/maskTrios/L1BB.jpg","null","",NA,NA,NA,NA,""
"image-keyboard-response",109,179595,"0.0-3.32-2.32","mrcjt11ueoyjhcc",370,"37.csv","","null","resources/images/coin2.png","null","",NA,NA,NA,NA,""
"image-keyboard-response",110,179914,"0.0-3.33-0.33","mrcjt11ueoyjhcc",370,"37.csv","","317.5","resources/trios/L4T2A2.jpg","39","restless",0.6,0.4,0.4,0.91789520692178,"false"
"image-keyboard-response",111,180324,"0.0-3.33-1.33","mrcjt11ueoyjhcc",370,"37.csv","","null","resources/maskTrios/BBA2.jpg","null","",NA,NA,NA,NA,""
"image-keyboard-response",112,181536,"0.0-3.33-2.33","mrcjt11ueoyjhcc",370,"37.csv","","null","resources/images/fishbone.png","null","",NA,NA,NA,NA,""
"image-keyboard-response",113,182014,"0.0-3.34-0.34","mrcjt11ueoyjhcc",370,"37.csv","","476.80000019073486","resources/trios/L1T2A3.jpg","38","restless",0.6,0.4,0.4,0.738183539007479,"false"
"image-keyboard-response",114,182424,"0.0-3.34-1.34","mrcjt11ueoyjhcc",370,"37.csv","","null","resources/maskTrios/BT2B.jpg","null","",NA,NA,NA,NA,""
"image-keyboard-response",115,183632,"0.0-3.34-2.34","mrcjt11ueoyjhcc",370,"37.csv","","null","resources/images/fishbone.png","null","",NA,NA,NA,NA,""
"image-keyboard-response",116,183946,"0.0-3.35-0.35","mrcjt11ueoyjhcc",370,"37.csv","","312.90000009536743","resources/trios/L1T1A2.jpg","37","restless",0.6,0.4,0.4,0.805468809919283,"false"
"image-keyboard-response",117,184360,"0.0-3.35-1.35","mrcjt11ueoyjhcc",370,"37.csv","","null","resources/maskTrios/L1BB.jpg","null","",NA,NA,NA,NA,""
"image-keyboard-response",118,185566,"0.0-3.35-2.35","mrcjt11ueoyjhcc",370,"37.csv","","null","resources/images/fishbone.png","null","",NA,NA,NA,NA,""
"image-keyboard-response",119,185881,"0.0-3.36-0.36","mrcjt11ueoyjhcc",370,"37.csv","","313.90000009536743","resources/trios/L4T1A2.jpg","37","restless",0.6,0.5,0.4,0.459412968069179,"true"
"image-keyboard-response",120,186288,"0.0-3.36-1.36","mrcjt11ueoyjhcc",370,"37.csv","","null","resources/maskTrios/L4BB.jpg","null","",NA,NA,NA,NA,""
"image-keyboard-response",121,187496,"0.0-3.36-2.36","mrcjt11ueoyjhcc",370,"37.csv","","null","resources/images/coin2.png","null","",NA,NA,NA,NA,""
"image-keyboard-response",122,187832,"0.0-3.37-0.37","mrcjt11ueoyjhcc",370,"37.csv","","335.30000019073486","resources/trios/L1T1A3.jpg","37","restless",0.5,0.4,0.4,0.927455290161695,"false"
"image-keyboard-response",123,188238,"0.0-3.37-1.37","mrcjt11ueoyjhcc",370,"37.csv","","null","resources/maskTrios/L1BB.jpg","null","",NA,NA,NA,NA,""
"image-keyboard-response",124,189448,"0.0-3.37-2.37","mrcjt11ueoyjhcc",370,"37.csv","","null","resources/images/fishbone.png","null","",NA,NA,NA,NA,""
"image-keyboard-response",125,189954,"0.0-3.38-0.38","mrcjt11ueoyjhcc",370,"37.csv","","504.69999980926514","resources/trios/L1T2A2.jpg","37","restless",0.5,0.4,0.4,0.78930497860488,"false"
"image-keyboard-response",126,190363,"0.0-3.38-1.38","mrcjt11ueoyjhcc",370,"37.csv","","null","resources/maskTrios/L1BB.jpg","null","",NA,NA,NA,NA,""
"image-keyboard-response",127,191573,"0.0-3.38-2.38","mrcjt11ueoyjhcc",370,"37.csv","","null","resources/images/fishbone.png","null","",NA,NA,NA,NA,""
"image-keyboard-response",128,192031,"0.0-3.39-0.39","mrcjt11ueoyjhcc",370,"37.csv","","456.69999980926514","resources/trios/L1T2A3.jpg","37","restless",0.5,0.4,0.3,0.196281431050273,"true"
"image-keyboard-response",129,192440,"0.0-3.39-1.39","mrcjt11ueoyjhcc",370,"37.csv","","null","resources/maskTrios/L1BB.jpg","null","",NA,NA,NA,NA,""
"image-keyboard-response",130,193644,"0.0-3.39-2.39","mrcjt11ueoyjhcc",370,"37.csv","","null","resources/images/coin2.png","null","",NA,NA,NA,NA,""
"image-keyboard-response",131,194016,"0.0-3.40-0.40","mrcjt11ueoyjhcc",370,"37.csv","","370.2000002861023","resources/trios/L4T2A2.jpg","37","restless",0.5,0.4,0.3,0.279509164370008,"true"
"image-keyboard-response",132,194419,"0.0-3.40-1.40","mrcjt11ueoyjhcc",370,"37.csv","","null","resources/maskTrios/L4BB.jpg","null","",NA,NA,NA,NA,""
"image-keyboard-response",133,195632,"0.0-3.40-2.40","mrcjt11ueoyjhcc",370,"37.csv","","null","resources/images/coin2.png","null","",NA,NA,NA,NA,""
"image-keyboard-response",134,196053,"0.0-3.41-0.41","mrcjt11ueoyjhcc",370,"37.csv","","420.40000009536743","resources/trios/L4T1A2.jpg","37","restless",0.6,0.4,0.3,0.290325152574351,"true"
"image-keyboard-response",135,196460,"0.0-3.41-1.41","mrcjt11ueoyjhcc",370,"37.csv","","null","resources/maskTrios/L4BB.jpg","null","",NA,NA,NA,NA,""
"image-keyboard-response",136,197668,"0.0-3.41-2.41","mrcjt11ueoyjhcc",370,"37.csv","","null","resources/images/coin2.png","null","",NA,NA,NA,NA,""
"image-keyboard-response",137,198036,"0.0-3.42-0.42","mrcjt11ueoyjhcc",370,"37.csv","","366.90000009536743","resources/trios/L1T1A3.jpg","37","restless",0.6,0.4,0.3,0.958435649759334,"false"
"image-keyboard-response",138,198443,"0.0-3.42-1.42","mrcjt11ueoyjhcc",370,"37.csv","","null","resources/maskTrios/L1BB.jpg","null","",NA,NA,NA,NA,""
"image-keyboard-response",139,199656,"0.0-3.42-2.42","mrcjt11ueoyjhcc",370,"37.csv","","null","resources/images/fishbone.png","null","",NA,NA,NA,NA,""
"image-keyboard-response",140,200090,"0.0-3.43-0.43","mrcjt11ueoyjhcc",370,"37.csv","","433.30000019073486","resources/trios/L1T2A3.jpg","39","restless",0.6,0.3,0.3,0.0966043326418831,"true"
"image-keyboard-response",141,200500,"0.0-3.43-1.43","mrcjt11ueoyjhcc",370,"37.csv","","null","resources/maskTrios/BBA3.jpg","null","",NA,NA,NA,NA,""
"image-keyboard-response",142,201712,"0.0-3.43-2.43","mrcjt11ueoyjhcc",370,"37.csv","","null","resources/images/coin2.png","null","",NA,NA,NA,NA,""
"image-keyboard-response",143,202047,"0.0-3.44-0.44","mrcjt11ueoyjhcc",370,"37.csv","","334.30000019073486","resources/trios/L1T1A2.jpg","38","restless",0.5,0.4,0.3,0.640169484797903,"false"
"image-keyboard-response",144,202454,"0.0-3.44-1.44","mrcjt11ueoyjhcc",370,"37.csv","","null","resources/maskTrios/BT1B.jpg","null","",NA,NA,NA,NA,""
"image-keyboard-response",145,203659,"0.0-3.44-2.44","mrcjt11ueoyjhcc",370,"37.csv","","null","resources/images/fishbone.png","null","",NA,NA,NA,NA,""
"image-keyboard-response",146,203939,"0.0-3.45-0.45","mrcjt11ueoyjhcc",370,"37.csv","","278.40000009536743","resources/trios/L1T2A2.jpg","39","restless",0.5,0.4,0.3,0.21982391193955,"true"
"image-keyboard-response",147,204352,"0.0-3.45-1.45","mrcjt11ueoyjhcc",370,"37.csv","","null","resources/maskTrios/BBA2.jpg","null","",NA,NA,NA,NA,""
"image-keyboard-response",148,205560,"0.0-3.45-2.45","mrcjt11ueoyjhcc",370,"37.csv","","null","resources/images/coin2.png","null","",NA,NA,NA,NA,""
"image-keyboard-response",149,206077,"0.0-3.46-0.46","mrcjt11ueoyjhcc",370,"37.csv","","516.2000002861023","resources/trios/L1T2A2.jpg","38","restless",0.5,0.4,0.3,0.528538294182096,"false"
"image-keyboard-response",150,206488,"0.0-3.46-1.46","mrcjt11ueoyjhcc",370,"37.csv","","null","resources/maskTrios/BT2B.jpg","null","",NA,NA,NA,NA,""
"image-keyboard-response",151,207692,"0.0-3.46-2.46","mrcjt11ueoyjhcc",370,"37.csv","","null","resources/images/fishbone.png","null","",NA,NA,NA,NA,""
"image-keyboard-response",152,208093,"0.0-3.47-0.47","mrcjt11ueoyjhcc",370,"37.csv","","398.90000009536743","resources/trios/L1T2A2.jpg","38","restless",0.5,0.4,0.3,0.187507691387292,"true"
"image-keyboard-response",153,208504,"0.0-3.47-1.47","mrcjt11ueoyjhcc",370,"37.csv","","null","resources/maskTrios/BT2B.jpg","null","",NA,NA,NA,NA,""
"image-keyboard-response",154,209712,"0.0-3.47-2.47","mrcjt11ueoyjhcc",370,"37.csv","","null","resources/images/coin2.png","null","",NA,NA,NA,NA,""
"image-keyboard-response",155,210049,"0.0-3.48-0.48","mrcjt11ueoyjhcc",370,"37.csv","","336","resources/trios/L4T1A3.jpg","38","restless",0.6,0.4,0.3,0.781164905154776,"false"
"image-keyboard-response",156,210462,"0.0-3.48-1.48","mrcjt11ueoyjhcc",370,"37.csv","","null","resources/maskTrios/BT1B.jpg","null","",NA,NA,NA,NA,""
"image-keyboard-response",157,211669,"0.0-3.48-2.48","mrcjt11ueoyjhcc",370,"37.csv","","null","resources/images/fishbone.png","null","",NA,NA,NA,NA,""
"image-keyboard-response",158,212016,"0.0-3.49-0.49","mrcjt11ueoyjhcc",370,"37.csv","","345.30000019073486","resources/trios/L4T1A3.jpg","39","restless",0.6,0.4,0.3,0.524375267177974,"false"
"image-keyboard-response",159,212423,"0.0-3.49-1.49","mrcjt11ueoyjhcc",370,"37.csv","","null","resources/maskTrios/BBA3.jpg","null","",NA,NA,NA,NA,""
"image-keyboard-response",160,213628,"0.0-3.49-2.49","mrcjt11ueoyjhcc",370,"37.csv","","null","resources/images/fishbone.png","null","",NA,NA,NA,NA,""
"image-keyboard-response",161,214049,"0.0-3.50-0.50","mrcjt11ueoyjhcc",370,"37.csv","","419.69999980926514","resources/trios/L1T1A2.jpg","37","restless",0.6,0.4,0.3,0.647927682737211,"false"
"image-keyboard-response",162,214464,"0.0-3.50-1.50","mrcjt11ueoyjhcc",370,"37.csv","","null","resources/maskTrios/L1BB.jpg","null","",NA,NA,NA,NA,""
"image-keyboard-response",163,215672,"0.0-3.50-2.50","mrcjt11ueoyjhcc",370,"37.csv","","null","resources/images/fishbone.png","null","",NA,NA,NA,NA,""
"image-keyboard-response",164,216227,"0.0-3.51-0.51","mrcjt11ueoyjhcc",370,"37.csv","","554.3000001907349","resources/trios/L4T2A3.jpg","38","restless",0.7,0.4,0.3,0.90681097965264,"false"
"image-keyboard-response",165,216635,"0.0-3.51-1.51","mrcjt11ueoyjhcc",370,"37.csv","","null","resources/maskTrios/BT2B.jpg","null","",NA,NA,NA,NA,""
"image-keyboard-response",166,217848,"0.0-3.51-2.51","mrcjt11ueoyjhcc",370,"37.csv","","null","resources/images/fishbone.png","null","",NA,NA,NA,NA,""
"image-keyboard-response",167,218251,"0.0-3.52-0.52","mrcjt11ueoyjhcc",370,"37.csv","","401.5","resources/trios/L4T2A3.jpg","38","restless",0.7,0.4,0.3,0.65166264357755,"false"
"image-keyboard-response",168,218664,"0.0-3.52-1.52","mrcjt11ueoyjhcc",370,"37.csv","","null","resources/maskTrios/BT2B.jpg","null","",NA,NA,NA,NA,""
"image-keyboard-response",169,219872,"0.0-3.52-2.52","mrcjt11ueoyjhcc",370,"37.csv","","null","resources/images/fishbone.png","null","",NA,NA,NA,NA,""
"image-keyboard-response",170,220211,"0.0-3.53-0.53","mrcjt11ueoyjhcc",370,"37.csv","","337.80000019073486","resources/trios/L4T2A2.jpg","38","restless",0.7,0.4,0.4,0.583459800623593,"false"
"image-keyboard-response",171,220619,"0.0-3.53-1.53","mrcjt11ueoyjhcc",370,"37.csv","","null","resources/maskTrios/BT2B.jpg","null","",NA,NA,NA,NA,""
"image-keyboard-response",172,221828,"0.0-3.53-2.53","mrcjt11ueoyjhcc",370,"37.csv","","null","resources/images/fishbone.png","null","",NA,NA,NA,NA,""
"image-keyboard-response",173,222205,"0.0-3.54-0.54","mrcjt11ueoyjhcc",370,"37.csv","","376","resources/trios/L1T2A2.jpg","38","restless",0.7,0.5,0.4,0.241244856083336,"true"
"image-keyboard-response",174,222612,"0.0-3.54-1.54","mrcjt11ueoyjhcc",370,"37.csv","","null","resources/maskTrios/BT2B.jpg","null","",NA,NA,NA,NA,""
"image-keyboard-response",175,223823,"0.0-3.54-2.54","mrcjt11ueoyjhcc",370,"37.csv","","null","resources/images/coin2.png","null","",NA,NA,NA,NA,""
"image-keyboard-response",176,224289,"0.0-3.55-0.55","mrcjt11ueoyjhcc",370,"37.csv","","464.90000009536743","resources/trios/L4T2A3.jpg","38","restless",0.7,0.5,0.4,0.982204586785298,"false"
"image-keyboard-response",177,224704,"0.0-3.55-1.55","mrcjt11ueoyjhcc",370,"37.csv","","null","resources/maskTrios/BT2B.jpg","null","",NA,NA,NA,NA,""
"image-keyboard-response",178,225912,"0.0-3.55-2.55","mrcjt11ueoyjhcc",370,"37.csv","","null","resources/images/fishbone.png","null","",NA,NA,NA,NA,""
"image-keyboard-response",179,226207,"0.0-3.56-0.56","mrcjt11ueoyjhcc",370,"37.csv","","293.80000019073486","resources/trios/L4T1A2.jpg","39","restless",0.7,0.5,0.5,0.701601349475095,"false"
"image-keyboard-response",180,226612,"0.0-3.56-1.56","mrcjt11ueoyjhcc",370,"37.csv","","null","resources/maskTrios/BBA2.jpg","null","",NA,NA,NA,NA,""
"image-keyboard-response",181,227819,"0.0-3.56-2.56","mrcjt11ueoyjhcc",370,"37.csv","","null","resources/images/fishbone.png","null","",NA,NA,NA,NA,""
"image-keyboard-response",182,228273,"0.0-3.57-0.57","mrcjt11ueoyjhcc",370,"37.csv","","452.40000009536743","resources/trios/L1T2A3.jpg","38","restless",0.7,0.5,0.5,0.403173784544613,"true"
"image-keyboard-response",183,228683,"0.0-3.57-1.57","mrcjt11ueoyjhcc",370,"37.csv","","null","resources/maskTrios/BT2B.jpg","null","",NA,NA,NA,NA,""
"image-keyboard-response",184,229896,"0.0-3.57-2.57","mrcjt11ueoyjhcc",370,"37.csv","","null","resources/images/coin2.png","null","",NA,NA,NA,NA,""
"image-keyboard-response",185,230251,"0.0-3.58-0.58","mrcjt11ueoyjhcc",370,"37.csv","","353.59999990463257","resources/trios/L4T1A3.jpg","39","restless",0.7,0.5,0.6,0.0897740940060581,"true"
"image-keyboard-response",186,230662,"0.0-3.58-1.58","mrcjt11ueoyjhcc",370,"37.csv","","null","resources/maskTrios/BBA3.jpg","null","",NA,NA,NA,NA,""
"image-keyboard-response",187,231872,"0.0-3.58-2.58","mrcjt11ueoyjhcc",370,"37.csv","","null","resources/images/coin2.png","null","",NA,NA,NA,NA,""
"image-keyboard-response",188,232276,"0.0-3.59-0.59","mrcjt11ueoyjhcc",370,"37.csv","","402.7000002861023","resources/trios/L1T1A3.jpg","37","restless",0.7,0.5,0.6,0.375868943856087,"true"
"image-keyboard-response",189,232688,"0.0-3.59-1.59","mrcjt11ueoyjhcc",370,"37.csv","","null","resources/maskTrios/L1BB.jpg","null","",NA,NA,NA,NA,""
"image-keyboard-response",190,233893,"0.0-3.59-2.59","mrcjt11ueoyjhcc",370,"37.csv","","null","resources/images/coin2.png","null","",NA,NA,NA,NA,""
"image-keyboard-response",191,234327,"0.0-3.60-0.60","mrcjt11ueoyjhcc",370,"37.csv","","432.69999980926514","resources/trios/L1T2A3.jpg","39","restless",0.7,0.5,0.6,0.551732765721477,"true"
"image-keyboard-response",192,234736,"0.0-3.60-1.60","mrcjt11ueoyjhcc",370,"37.csv","","null","resources/maskTrios/BBA3.jpg","null","",NA,NA,NA,NA,""
"image-keyboard-response",193,235942,"0.0-3.60-2.60","mrcjt11ueoyjhcc",370,"37.csv","","null","resources/images/coin2.png","null","",NA,NA,NA,NA,""
"image-keyboard-response",194,236405,"0.0-3.61-0.61","mrcjt11ueoyjhcc",370,"37.csv","","461.7000002861023","resources/trios/L1T1A3.jpg","38","restless",0.7,0.5,0.6,0.736850311431905,"false"
"image-keyboard-response",195,236809,"0.0-3.61-1.61","mrcjt11ueoyjhcc",370,"37.csv","","null","resources/maskTrios/BT1B.jpg","null","",NA,NA,NA,NA,""
"image-keyboard-response",196,238016,"0.0-3.61-2.61","mrcjt11ueoyjhcc",370,"37.csv","","null","resources/images/fishbone.png","null","",NA,NA,NA,NA,""
"image-keyboard-response",197,238311,"0.0-3.62-0.62","mrcjt11ueoyjhcc",370,"37.csv","","293.2999997138977","resources/trios/L4T2A2.jpg","37","restless",0.8,0.5,0.6,0.209917332989356,"true"
"image-keyboard-response",198,238720,"0.0-3.62-1.62","mrcjt11ueoyjhcc",370,"37.csv","","null","resources/maskTrios/L4BB.jpg","null","",NA,NA,NA,NA,""
"image-keyboard-response",199,239928,"0.0-3.62-2.62","mrcjt11ueoyjhcc",370,"37.csv","","null","resources/images/coin2.png","null","",NA,NA,NA,NA,""
"image-keyboard-response",200,240550,"0.0-3.63-0.63","mrcjt11ueoyjhcc",370,"37.csv","","621.4000000953674","resources/trios/L4T2A2.jpg","39","restless",0.8,0.5,0.6,0.872668654482609,"false"
"image-keyboard-response",201,240956,"0.0-3.63-1.63","mrcjt11ueoyjhcc",370,"37.csv","","null","resources/maskTrios/BBA2.jpg","null","",NA,NA,NA,NA,""
"image-keyboard-response",202,242166,"0.0-3.63-2.63","mrcjt11ueoyjhcc",370,"37.csv","","null","resources/images/fishbone.png","null","",NA,NA,NA,NA,""
"image-keyboard-response",203,242549,"0.0-3.64-0.64","mrcjt11ueoyjhcc",370,"37.csv","","381.2000002861023","resources/trios/L4T2A2.jpg","39","restless",0.8,0.5,0.6,0.888406577068644,"false"
"image-keyboard-response",204,242953,"0.0-3.64-1.64","mrcjt11ueoyjhcc",370,"37.csv","","null","resources/maskTrios/BBA2.jpg","null","",NA,NA,NA,NA,""
"image-keyboard-response",205,244161,"0.0-3.64-2.64","mrcjt11ueoyjhcc",370,"37.csv","","null","resources/images/fishbone.png","null","",NA,NA,NA,NA,""
"image-keyboard-response",206,244885,"0.0-3.65-0.65","mrcjt11ueoyjhcc",370,"37.csv","","723.4000000953674","resources/trios/L1T1A2.jpg","38","restless",0.8,0.5,0.6,0.0902505629334611,"true"
"image-keyboard-response",207,245292,"0.0-3.65-1.65","mrcjt11ueoyjhcc",370,"37.csv","","null","resources/maskTrios/BT1B.jpg","null","",NA,NA,NA,NA,""
"image-keyboard-response",208,246496,"0.0-3.65-2.65","mrcjt11ueoyjhcc",370,"37.csv","","null","resources/images/coin2.png","null","",NA,NA,NA,NA,""
"image-keyboard-response",209,247496,"0.0-3.66-0.66","mrcjt11ueoyjhcc",370,"37.csv","","1000.3000001907349","resources/trios/L4T2A2.jpg","37","restless",0.8,0.5,0.6,0.339598880309205,"true"
"image-keyboard-response",210,247902,"0.0-3.66-1.66","mrcjt11ueoyjhcc",370,"37.csv","","null","resources/maskTrios/L4BB.jpg","null","",NA,NA,NA,NA,""
"image-keyboard-response",211,249112,"0.0-3.66-2.66","mrcjt11ueoyjhcc",370,"37.csv","","null","resources/images/coin2.png","null","",NA,NA,NA,NA,""
"image-keyboard-response",212,250452,"0.0-3.67-0.67","mrcjt11ueoyjhcc",370,"37.csv","","1339.7000002861023","resources/trios/L1T1A3.jpg","37","restless",0.8,0.5,0.6,0.906436312935303,"false"
"image-keyboard-response",213,250864,"0.0-3.67-1.67","mrcjt11ueoyjhcc",370,"37.csv","","null","resources/maskTrios/L1BB.jpg","null","",NA,NA,NA,NA,""
"image-keyboard-response",214,252068,"0.0-3.67-2.67","mrcjt11ueoyjhcc",370,"37.csv","","null","resources/images/fishbone.png","null","",NA,NA,NA,NA,""
"image-keyboard-response",215,253270,"0.0-3.68-0.68","mrcjt11ueoyjhcc",370,"37.csv","","1200.8999996185303","resources/trios/L4T2A3.jpg","38","restless",0.8,0.5,0.6,0.45761657700819,"true"
"image-keyboard-response",216,253679,"0.0-3.68-1.68","mrcjt11ueoyjhcc",370,"37.csv","","null","resources/maskTrios/BT2B.jpg","null","",NA,NA,NA,NA,""
"image-keyboard-response",217,254886,"0.0-3.68-2.68","mrcjt11ueoyjhcc",370,"37.csv","","null","resources/images/coin2.png","null","",NA,NA,NA,NA,""
"image-keyboard-response",218,257034,"0.0-3.69-0.69","mrcjt11ueoyjhcc",370,"37.csv","","2147","resources/trios/L1T2A3.jpg","38","restless",0.8,0.5,0.6,0.616836303033138,"false"
"image-keyboard-response",219,257445,"0.0-3.69-1.69","mrcjt11ueoyjhcc",370,"37.csv","","null","resources/maskTrios/BT2B.jpg","null","",NA,NA,NA,NA,""
"image-keyboard-response",220,258653,"0.0-3.69-2.69","mrcjt11ueoyjhcc",370,"37.csv","","null","resources/images/fishbone.png","null","",NA,NA,NA,NA,""
"image-keyboard-response",221,259416,"0.0-3.70-0.70","mrcjt11ueoyjhcc",370,"37.csv","","761.7000002861023","resources/trios/L1T1A2.jpg","39","restless",0.8,0.5,0.7,0.52452879677292,"true"
"image-keyboard-response",222,259826,"0.0-3.70-1.70","mrcjt11ueoyjhcc",370,"37.csv","","null","resources/maskTrios/BBA2.jpg","null","",NA,NA,NA,NA,""
"image-keyboard-response",223,261032,"0.0-3.70-2.70","mrcjt11ueoyjhcc",370,"37.csv","","null","resources/images/coin2.png","null","",NA,NA,NA,NA,""
"image-keyboard-response",224,262127,"0.0-3.71-0.71","mrcjt11ueoyjhcc",370,"37.csv","","1094.3000001907349","resources/trios/L4T2A3.jpg","39","restless",0.8,0.5,0.7,0.914933435502997,"false"
"image-keyboard-response",225,262540,"0.0-3.71-1.71","mrcjt11ueoyjhcc",370,"37.csv","","null","resources/maskTrios/BBA3.jpg","null","",NA,NA,NA,NA,""
"image-keyboard-response",226,263744,"0.0-3.71-2.71","mrcjt11ueoyjhcc",370,"37.csv","","null","resources/images/fishbone.png","null","",NA,NA,NA,NA,""
"image-keyboard-response",227,264689,"0.0-3.72-0.72","mrcjt11ueoyjhcc",370,"37.csv","","944.5999999046326","resources/trios/L4T1A2.jpg","37","restless",0.8,0.5,0.7,0.199833659605327,"true"
"image-keyboard-response",228,265096,"0.0-3.72-1.72","mrcjt11ueoyjhcc",370,"37.csv","","null","resources/maskTrios/L4BB.jpg","null","",NA,NA,NA,NA,""
"image-keyboard-response",229,266303,"0.0-3.72-2.72","mrcjt11ueoyjhcc",370,"37.csv","","null","resources/images/coin2.png","null","",NA,NA,NA,NA,""
"image-keyboard-response",230,267115,"0.0-3.73-0.73","mrcjt11ueoyjhcc",370,"37.csv","","811","resources/trios/L4T1A3.jpg","37","restless",0.8,0.5,0.7,0.469058824763646,"true"
"image-keyboard-response",231,267522,"0.0-3.73-1.73","mrcjt11ueoyjhcc",370,"37.csv","","null","resources/maskTrios/L4BB.jpg","null","",NA,NA,NA,NA,""
"image-keyboard-response",232,268727,"0.0-3.73-2.73","mrcjt11ueoyjhcc",370,"37.csv","","null","resources/images/coin2.png","null","",NA,NA,NA,NA,""
"image-keyboard-response",233,269634,"0.0-3.74-0.74","mrcjt11ueoyjhcc",370,"37.csv","","905.4000000953674","resources/trios/L4T2A2.jpg","37","restless",0.8,0.5,0.7,0.461987464843662,"true"
"image-keyboard-response",234,270042,"0.0-3.74-1.74","mrcjt11ueoyjhcc",370,"37.csv","","null","resources/maskTrios/L4BB.jpg","null","",NA,NA,NA,NA,""
"image-keyboard-response",235,271245,"0.0-3.74-2.74","mrcjt11ueoyjhcc",370,"37.csv","","null","resources/images/coin2.png","null","",NA,NA,NA,NA,""
"image-keyboard-response",236,272496,"0.0-3.75-0.75","mrcjt11ueoyjhcc",370,"37.csv","","1249.5999999046326","resources/trios/L4T2A3.jpg","37","restless",0.8,0.5,0.7,0.221345404942971,"true"
"image-keyboard-response",237,272904,"0.0-3.75-1.75","mrcjt11ueoyjhcc",370,"37.csv","","null","resources/maskTrios/L4BB.jpg","null","",NA,NA,NA,NA,""
"image-keyboard-response",238,274112,"0.0-3.75-2.75","mrcjt11ueoyjhcc",370,"37.csv","","null","resources/images/coin2.png","null","",NA,NA,NA,NA,""
"image-keyboard-response",239,274597,"0.0-3.76-0.76","mrcjt11ueoyjhcc",370,"37.csv","","484.09999990463257","resources/trios/L4T1A3.jpg","37","restless",0.8,0.5,0.7,0.863905207747251,"false"
"image-keyboard-response",240,275005,"0.0-3.76-1.76","mrcjt11ueoyjhcc",370,"37.csv","","null","resources/maskTrios/L4BB.jpg","null","",NA,NA,NA,NA,""
"image-keyboard-response",241,276216,"0.0-3.76-2.76","mrcjt11ueoyjhcc",370,"37.csv","","null","resources/images/fishbone.png","null","",NA,NA,NA,NA,""
"image-keyboard-response",242,276566,"0.0-3.77-0.77","mrcjt11ueoyjhcc",370,"37.csv","","348.6000003814697","resources/trios/L4T1A3.jpg","38","restless",0.8,0.5,0.6,0.614615752563519,"false"
"image-keyboard-response",243,276977,"0.0-3.77-1.77","mrcjt11ueoyjhcc",370,"37.csv","","null","resources/maskTrios/BT1B.jpg","null","",NA,NA,NA,NA,""
"image-keyboard-response",244,278185,"0.0-3.77-2.77","mrcjt11ueoyjhcc",370,"37.csv","","null","resources/images/fishbone.png","null","",NA,NA,NA,NA,""
"image-keyboard-response",245,278465,"0.0-3.78-0.78","mrcjt11ueoyjhcc",370,"37.csv","","279.2000002861023","resources/trios/L1T2A2.jpg","39","restless",0.8,0.5,0.6,0.749669913570403,"false"
"image-keyboard-response",246,278868,"0.0-3.78-1.78","mrcjt11ueoyjhcc",370,"37.csv","","null","resources/maskTrios/BBA2.jpg","null","",NA,NA,NA,NA,""
"image-keyboard-response",247,280081,"0.0-3.78-2.78","mrcjt11ueoyjhcc",370,"37.csv","","null","resources/images/fishbone.png","null","",NA,NA,NA,NA,""
"image-keyboard-response",248,280963,"0.0-3.79-0.79","mrcjt11ueoyjhcc",370,"37.csv","","881.6000003814697","resources/trios/L4T1A2.jpg","38","restless",0.8,0.5,0.6,0.527850007261872,"false"
"image-keyboard-response",249,281376,"0.0-3.79-1.79","mrcjt11ueoyjhcc",370,"37.csv","","null","resources/maskTrios/BT1B.jpg","null","",NA,NA,NA,NA,""
"image-keyboard-response",250,282581,"0.0-3.79-2.79","mrcjt11ueoyjhcc",370,"37.csv","","null","resources/images/fishbone.png","null","",NA,NA,NA,NA,""
"image-keyboard-response",251,282875,"0.0-3.80-0.80","mrcjt11ueoyjhcc",370,"37.csv","","292","resources/trios/L1T2A2.jpg","39","restless",0.8,0.5,0.6,0.180479481425597,"true"
"image-keyboard-response",252,283286,"0.0-3.80-1.80","mrcjt11ueoyjhcc",370,"37.csv","","null","resources/maskTrios/BBA2.jpg","null","",NA,NA,NA,NA,""
"image-keyboard-response",253,284494,"0.0-3.80-2.80","mrcjt11ueoyjhcc",370,"37.csv","","null","resources/images/coin2.png","null","",NA,NA,NA,NA,""
"image-keyboard-response",254,284819,"0.0-3.81-0.81","mrcjt11ueoyjhcc",370,"37.csv","","323.3999996185303","resources/trios/L4T2A2.jpg","39","restless",0.8,0.5,0.5,0.291689133954151,"true"
"image-keyboard-response",255,285227,"0.0-3.81-1.81","mrcjt11ueoyjhcc",370,"37.csv","","null","resources/maskTrios/BBA2.jpg","null","",NA,NA,NA,NA,""
"image-keyboard-response",256,286440,"0.0-3.81-2.81","mrcjt11ueoyjhcc",370,"37.csv","","null","resources/images/coin2.png","null","",NA,NA,NA,NA,""
"image-keyboard-response",257,286876,"0.0-3.82-0.82","mrcjt11ueoyjhcc",370,"37.csv","","434.40000009536743","resources/trios/L1T2A2.jpg","38","restless",0.8,0.5,0.4,0.899616182105351,"false"
"image-keyboard-response",258,287288,"0.0-3.82-1.82","mrcjt11ueoyjhcc",370,"37.csv","","null","resources/maskTrios/BT2B.jpg","null","",NA,NA,NA,NA,""
"image-keyboard-response",259,288496,"0.0-3.82-2.82","mrcjt11ueoyjhcc",370,"37.csv","","null","resources/images/fishbone.png","null","",NA,NA,NA,NA,""
"image-keyboard-response",260,288822,"0.0-3.83-0.83","mrcjt11ueoyjhcc",370,"37.csv","","324.5","resources/trios/L1T1A2.jpg","39","restless",0.8,0.5,0.4,0.164000948985943,"true"
"image-keyboard-response",261,289229,"0.0-3.83-1.83","mrcjt11ueoyjhcc",370,"37.csv","","null","resources/maskTrios/BBA2.jpg","null","",NA,NA,NA,NA,""
"image-keyboard-response",262,290436,"0.0-3.83-2.83","mrcjt11ueoyjhcc",370,"37.csv","","null","resources/images/coin2.png","null","",NA,NA,NA,NA,""
"image-keyboard-response",263,291181,"0.0-3.84-0.84","mrcjt11ueoyjhcc",370,"37.csv","","742.8000001907349","resources/trios/L1T2A3.jpg","37","restless",0.8,0.5,0.4,0.597003184547035,"true"
"image-keyboard-response",264,291591,"0.0-3.84-1.84","mrcjt11ueoyjhcc",370,"37.csv","","null","resources/maskTrios/L1BB.jpg","null","",NA,NA,NA,NA,""
"image-keyboard-response",265,292797,"0.0-3.84-2.84","mrcjt11ueoyjhcc",370,"37.csv","","null","resources/images/coin2.png","null","",NA,NA,NA,NA,""
"image-keyboard-response",266,293689,"0.0-3.85-0.85","mrcjt11ueoyjhcc",370,"37.csv","","890.4000000953674","resources/trios/L1T1A2.jpg","38","restless",0.8,0.5,0.4,0.566170260765705,"false"
"image-keyboard-response",267,294092,"0.0-3.85-1.85","mrcjt11ueoyjhcc",370,"37.csv","","null","resources/maskTrios/BT1B.jpg","null","",NA,NA,NA,NA,""
"image-keyboard-response",268,295303,"0.0-3.85-2.85","mrcjt11ueoyjhcc",370,"37.csv","","null","resources/images/fishbone.png","null","",NA,NA,NA,NA,""
"image-keyboard-response",269,295877,"0.0-3.86-0.86","mrcjt11ueoyjhcc",370,"37.csv","","572.2000002861023","resources/trios/L4T2A2.jpg","39","restless",0.8,0.5,0.4,0.616199934844446,"false"
"image-keyboard-response",270,296283,"0.0-3.86-1.86","mrcjt11ueoyjhcc",370,"37.csv","","null","resources/maskTrios/BBA2.jpg","null","",NA,NA,NA,NA,""
"image-keyboard-response",271,297494,"0.0-3.86-2.86","mrcjt11ueoyjhcc",370,"37.csv","","null","resources/images/fishbone.png","null","",NA,NA,NA,NA,""
"image-keyboard-response",272,298197,"0.0-3.87-0.87","mrcjt11ueoyjhcc",370,"37.csv","","702.0999999046326","resources/trios/L4T2A2.jpg","38","restless",0.8,0.5,0.5,0.058223632363837,"true"
"image-keyboard-response",273,298608,"0.0-3.87-1.87","mrcjt11ueoyjhcc",370,"37.csv","","null","resources/maskTrios/BT2B.jpg","null","",NA,NA,NA,NA,""
"image-keyboard-response",274,299812,"0.0-3.87-2.87","mrcjt11ueoyjhcc",370,"37.csv","","null","resources/images/coin2.png","null","",NA,NA,NA,NA,""
"image-keyboard-response",275,300255,"0.0-3.88-0.88","mrcjt11ueoyjhcc",370,"37.csv","","442","resources/trios/L4T1A3.jpg","38","restless",0.9,0.5,0.5,0.9665464377579,"false"
"image-keyboard-response",276,300660,"0.0-3.88-1.88","mrcjt11ueoyjhcc",370,"37.csv","","null","resources/maskTrios/BT1B.jpg","null","",NA,NA,NA,NA,""
"image-keyboard-response",277,301871,"0.0-3.88-2.88","mrcjt11ueoyjhcc",370,"37.csv","","null","resources/images/fishbone.png","null","",NA,NA,NA,NA,""
"image-keyboard-response",278,302303,"0.0-3.89-0.89","mrcjt11ueoyjhcc",370,"37.csv","","430.1000003814697","resources/trios/L4T2A3.jpg","37","restless",0.9,0.5,0.5,0.0126884485466523,"true"
"image-keyboard-response",279,302707,"0.0-3.89-1.89","mrcjt11ueoyjhcc",370,"37.csv","","null","resources/maskTrios/L4BB.jpg","null","",NA,NA,NA,NA,""
"image-keyboard-response",280,303919,"0.0-3.89-2.89","mrcjt11ueoyjhcc",370,"37.csv","","null","resources/images/coin2.png","null","",NA,NA,NA,NA,""
"image-keyboard-response",281,304725,"0.0-3.90-0.90","mrcjt11ueoyjhcc",370,"37.csv","","804.8999996185303","resources/trios/L1T2A2.jpg","37","restless",0.9,0.5,0.5,0.65179509416571,"true"
"image-keyboard-response",282,305135,"0.0-3.90-1.90","mrcjt11ueoyjhcc",370,"37.csv","","null","resources/maskTrios/L1BB.jpg","null","",NA,NA,NA,NA,""
"image-keyboard-response",283,306343,"0.0-3.90-2.90","mrcjt11ueoyjhcc",370,"37.csv","","null","resources/images/coin2.png","null","",NA,NA,NA,NA,""
"image-keyboard-response",284,307399,"0.0-3.91-0.91","mrcjt11ueoyjhcc",370,"37.csv","","1054.3000001907349","resources/trios/L4T1A2.jpg","38","restless",0.9,0.5,0.5,0.199316076806549,"true"
"image-keyboard-response",285,307804,"0.0-3.91-1.91","mrcjt11ueoyjhcc",370,"37.csv","","null","resources/maskTrios/BT1B.jpg","null","",NA,NA,NA,NA,""
"image-keyboard-response",286,309015,"0.0-3.91-2.91","mrcjt11ueoyjhcc",370,"37.csv","","null","resources/images/coin2.png","null","",NA,NA,NA,NA,""
"image-keyboard-response",287,309655,"0.0-3.92-0.92","mrcjt11ueoyjhcc",370,"37.csv","","638.1000003814697","resources/trios/L4T1A3.jpg","39","restless",0.9,0.5,0.5,0.781537557789366,"false"
"image-keyboard-response",288,310060,"0.0-3.92-1.92","mrcjt11ueoyjhcc",370,"37.csv","","null","resources/maskTrios/BBA3.jpg","null","",NA,NA,NA,NA,""
"image-keyboard-response",289,311271,"0.0-3.92-2.92","mrcjt11ueoyjhcc",370,"37.csv","","null","resources/images/fishbone.png","null","",NA,NA,NA,NA,""
"image-keyboard-response",290,312004,"0.0-3.93-0.93","mrcjt11ueoyjhcc",370,"37.csv","","730.9000000953674","resources/trios/L4T2A2.jpg","39","restless",0.9,0.5,0.5,0.499856477880361,"true"
"image-keyboard-response",291,312411,"0.0-3.93-1.93","mrcjt11ueoyjhcc",370,"37.csv","","null","resources/maskTrios/BBA2.jpg","null","",NA,NA,NA,NA,""
"image-keyboard-response",292,313623,"0.0-3.93-2.93","mrcjt11ueoyjhcc",370,"37.csv","","null","resources/images/coin2.png","null","",NA,NA,NA,NA,""
"image-keyboard-response",293,314152,"0.0-3.94-0.94","mrcjt11ueoyjhcc",370,"37.csv","","527.1999998092651","resources/trios/L4T2A2.jpg","38","restless",0.9,0.5,0.5,0.781307947841937,"false"
"image-keyboard-response",294,314559,"0.0-3.94-1.94","mrcjt11ueoyjhcc",370,"37.csv","","null","resources/maskTrios/BT2B.jpg","null","",NA,NA,NA,NA,""
"image-keyboard-response",295,315767,"0.0-3.94-2.94","mrcjt11ueoyjhcc",370,"37.csv","","null","resources/images/fishbone.png","null","",NA,NA,NA,NA,""
"image-keyboard-response",296,316083,"0.0-3.95-0.95","mrcjt11ueoyjhcc",370,"37.csv","","314.30000019073486","resources/trios/L4T1A2.jpg","39","restless",0.8,0.5,0.5,0.223221672820852,"true"
"image-keyboard-response",297,316491,"0.0-3.95-1.95","mrcjt11ueoyjhcc",370,"37.csv","","null","resources/maskTrios/BBA2.jpg","null","",NA,NA,NA,NA,""
"image-keyboard-response",298,317703,"0.0-3.95-2.95","mrcjt11ueoyjhcc",370,"37.csv","","null","resources/images/coin2.png","null","",NA,NA,NA,NA,""
"image-keyboard-response",299,318608,"0.0-3.96-0.96","mrcjt11ueoyjhcc",370,"37.csv","","904","resources/trios/L1T2A3.jpg","39","restless",0.8,0.5,0.5,0.262518218193993,"true"
"image-keyboard-response",300,319011,"0.0-3.96-1.96","mrcjt11ueoyjhcc",370,"37.csv","","null","resources/maskTrios/BBA3.jpg","null","",NA,NA,NA,NA,""
"image-keyboard-response",301,320221,"0.0-3.96-2.96","mrcjt11ueoyjhcc",370,"37.csv","","null","resources/images/coin2.png","null","",NA,NA,NA,NA,""
"image-keyboard-response",302,320758,"0.0-3.97-0.97","mrcjt11ueoyjhcc",370,"37.csv","","536.3000001907349","resources/trios/L4T1A2.jpg","37","restless",0.7,0.5,0.5,0.0300057731877152,"true"
"image-keyboard-response",303,321167,"0.0-3.97-1.97","mrcjt11ueoyjhcc",370,"37.csv","","null","resources/maskTrios/L4BB.jpg","null","",NA,NA,NA,NA,""
"image-keyboard-response",304,322371,"0.0-3.97-2.97","mrcjt11ueoyjhcc",370,"37.csv","","null","resources/images/coin2.png","null","",NA,NA,NA,NA,""
"image-keyboard-response",305,324026,"0.0-3.98-0.98","mrcjt11ueoyjhcc",370,"37.csv","","1653.7999997138977","resources/trios/L4T1A2.jpg","37","restless",0.7,0.5,0.5,0.661684187827347,"true"
"image-keyboard-response",306,324435,"0.0-3.98-1.98","mrcjt11ueoyjhcc",370,"37.csv","","null","resources/maskTrios/L4BB.jpg","null","",NA,NA,NA,NA,""
"image-keyboard-response",307,325647,"0.0-3.98-2.98","mrcjt11ueoyjhcc",370,"37.csv","","null","resources/images/coin2.png","null","",NA,NA,NA,NA,""
"image-keyboard-response",308,327188,"0.0-3.99-0.99","mrcjt11ueoyjhcc",370,"37.csv","","1539.4000000953674","resources/trios/L4T2A3.jpg","38","restless",0.7,0.5,0.5,0.504214960712555,"false"
"image-keyboard-response",309,327596,"0.0-3.99-1.99","mrcjt11ueoyjhcc",370,"37.csv","","null","resources/maskTrios/BT2B.jpg","null","",NA,NA,NA,NA,""
"image-keyboard-response",310,328803,"0.0-3.99-2.99","mrcjt11ueoyjhcc",370,"37.csv","","null","resources/images/fishbone.png","null","",NA,NA,NA,NA,""
"image-keyboard-response",311,329627,"0.0-3.100-0.100","mrcjt11ueoyjhcc",370,"37.csv","","822.5","resources/trios/L1T1A2.jpg","37","restless",0.7,0.5,0.5,0.36560257143327,"true"
"image-keyboard-response",312,330038,"0.0-3.100-1.100","mrcjt11ueoyjhcc",370,"37.csv","","null","resources/maskTrios/L1BB.jpg","null","",NA,NA,NA,NA,""
"image-keyboard-response",313,331242,"0.0-3.100-2.100","mrcjt11ueoyjhcc",370,"37.csv","","null","resources/images/coin2.png","null","",NA,NA,NA,NA,""
"image-keyboard-response",314,332260,"0.0-3.101-0.101","mrcjt11ueoyjhcc",370,"37.csv","","1016.9000000953674","resources/trios/L1T2A2.jpg","37","restless",0.7,0.5,0.6,0.317914503771878,"true"
"image-keyboard-response",315,332671,"0.0-3.101-1.101","mrcjt11ueoyjhcc",370,"37.csv","","null","resources/maskTrios/L1BB.jpg","null","",NA,NA,NA,NA,""
"image-keyboard-response",316,333877,"0.0-3.101-2.101","mrcjt11ueoyjhcc",370,"37.csv","","null","resources/images/coin2.png","null","",NA,NA,NA,NA,""
"image-keyboard-response",317,336605,"0.0-3.102-0.102","mrcjt11ueoyjhcc",370,"37.csv","","2726.7999997138977","resources/trios/L1T1A2.jpg","37","restless",0.7,0.5,0.6,0.299604703018876,"true"
"image-keyboard-response",318,337013,"0.0-3.102-1.102","mrcjt11ueoyjhcc",370,"37.csv","","null","resources/maskTrios/L1BB.jpg","null","",NA,NA,NA,NA,""
"image-keyboard-response",319,338223,"0.0-3.102-2.102","mrcjt11ueoyjhcc",370,"37.csv","","null","resources/images/coin2.png","null","",NA,NA,NA,NA,""
"image-keyboard-response",320,340277,"0.0-3.103-0.103","mrcjt11ueoyjhcc",370,"37.csv","","2052.9000000953674","resources/trios/L4T2A2.jpg","39","restless",0.7,0.5,0.6,0.223820423287899,"true"
"image-keyboard-response",321,340685,"0.0-3.103-1.103","mrcjt11ueoyjhcc",370,"37.csv","","null","resources/maskTrios/BBA2.jpg","null","",NA,NA,NA,NA,""
"image-keyboard-response",322,341895,"0.0-3.103-2.103","mrcjt11ueoyjhcc",370,"37.csv","","null","resources/images/coin2.png","null","",NA,NA,NA,NA,""
"image-keyboard-response",323,345368,"0.0-3.104-0.104","mrcjt11ueoyjhcc",370,"37.csv","","3472.199999809265","resources/trios/L4T1A3.jpg","39","restless",0.7,0.5,0.5,0.636341126760803,"false"
"image-keyboard-response",324,345775,"0.0-3.104-1.104","mrcjt11ueoyjhcc",370,"37.csv","","null","resources/maskTrios/BBA3.jpg","null","",NA,NA,NA,NA,""
"image-keyboard-response",325,346983,"0.0-3.104-2.104","mrcjt11ueoyjhcc",370,"37.csv","","null","resources/images/fishbone.png","null","",NA,NA,NA,NA,""
"image-keyboard-response",326,348219,"0.0-3.105-0.105","mrcjt11ueoyjhcc",370,"37.csv","","1235","resources/trios/L1T2A2.jpg","38","restless",0.7,0.5,0.5,0.318646525426389,"true"
"image-keyboard-response",327,348626,"0.0-3.105-1.105","mrcjt11ueoyjhcc",370,"37.csv","","null","resources/maskTrios/BT2B.jpg","null","",NA,NA,NA,NA,""
"image-keyboard-response",328,349839,"0.0-3.105-2.105","mrcjt11ueoyjhcc",370,"37.csv","","null","resources/images/coin2.png","null","",NA,NA,NA,NA,""
"image-keyboard-response",329,351284,"0.0-3.106-0.106","mrcjt11ueoyjhcc",370,"37.csv","","1444","resources/trios/L1T2A3.jpg","38","restless",0.7,0.5,0.5,0.257792963807665,"true"
"image-keyboard-response",330,351692,"0.0-3.106-1.106","mrcjt11ueoyjhcc",370,"37.csv","","null","resources/maskTrios/BT2B.jpg","null","",NA,NA,NA,NA,""
"image-keyboard-response",331,352903,"0.0-3.106-2.106","mrcjt11ueoyjhcc",370,"37.csv","","null","resources/images/coin2.png","null","",NA,NA,NA,NA,""
"image-keyboard-response",332,354950,"0.0-3.107-0.107","mrcjt11ueoyjhcc",370,"37.csv","","2045.8000001907349","resources/trios/L1T1A3.jpg","37","restless",0.7,0.5,0.5,0.595508052220431,"true"
"image-keyboard-response",333,355359,"0.0-3.107-1.107","mrcjt11ueoyjhcc",370,"37.csv","","null","resources/maskTrios/L1BB.jpg","null","",NA,NA,NA,NA,""
"image-keyboard-response",334,356567,"0.0-3.107-2.107","mrcjt11ueoyjhcc",370,"37.csv","","null","resources/images/coin2.png","null","",NA,NA,NA,NA,""
"image-keyboard-response",335,357887,"0.0-3.108-0.108","mrcjt11ueoyjhcc",370,"37.csv","","1318.8000001907349","resources/trios/L4T2A2.jpg","39","restless",0.7,0.4,0.5,0.316938446363983,"true"
"image-keyboard-response",336,358295,"0.0-3.108-1.108","mrcjt11ueoyjhcc",370,"37.csv","","null","resources/maskTrios/BBA2.jpg","null","",NA,NA,NA,NA,""
"image-keyboard-response",337,359499,"0.0-3.108-2.108","mrcjt11ueoyjhcc",370,"37.csv","","null","resources/images/coin2.png","null","",NA,NA,NA,NA,""
"image-keyboard-response",338,360764,"0.0-3.109-0.109","mrcjt11ueoyjhcc",370,"37.csv","","1263.4000000953674","resources/trios/L4T1A2.jpg","39","restless",0.7,0.4,0.6,0.634869707108144,"false"
"image-keyboard-response",339,361175,"0.0-3.109-1.109","mrcjt11ueoyjhcc",370,"37.csv","","null","resources/maskTrios/BBA2.jpg","null","",NA,NA,NA,NA,""
"image-keyboard-response",340,362380,"0.0-3.109-2.109","mrcjt11ueoyjhcc",370,"37.csv","","null","resources/images/fishbone.png","null","",NA,NA,NA,NA,""
"image-keyboard-response",341,363671,"0.0-3.110-0.110","mrcjt11ueoyjhcc",370,"37.csv","","1289.6000003814697","resources/trios/L1T2A2.jpg","37","restless",0.7,0.4,0.7,0.4322206967612,"true"
"image-keyboard-response",342,364075,"0.0-3.110-1.110","mrcjt11ueoyjhcc",370,"37.csv","","null","resources/maskTrios/L1BB.jpg","null","",NA,NA,NA,NA,""
"image-keyboard-response",343,365286,"0.0-3.110-2.110","mrcjt11ueoyjhcc",370,"37.csv","","null","resources/images/coin2.png","null","",NA,NA,NA,NA,""
"image-keyboard-response",344,366837,"0.0-3.111-0.111","mrcjt11ueoyjhcc",370,"37.csv","","1549.5","resources/trios/L4T1A2.jpg","39","restless",0.7,0.4,0.7,0.511354457374126,"true"
"image-keyboard-response",345,367244,"0.0-3.111-1.111","mrcjt11ueoyjhcc",370,"37.csv","","null","resources/maskTrios/BBA2.jpg","null","",NA,NA,NA,NA,""
"image-keyboard-response",346,368451,"0.0-3.111-2.111","mrcjt11ueoyjhcc",370,"37.csv","","null","resources/images/coin2.png","null","",NA,NA,NA,NA,""
"image-keyboard-response",347,369781,"0.0-3.112-0.112","mrcjt11ueoyjhcc",370,"37.csv","","1328.3000001907349","resources/trios/L1T1A2.jpg","37","restless",0.7,0.4,0.6,0.662430325120154,"true"
"image-keyboard-response",348,370186,"0.0-3.112-1.112","mrcjt11ueoyjhcc",370,"37.csv","","null","resources/maskTrios/L1BB.jpg","null","",NA,NA,NA,NA,""
"image-keyboard-response",349,371395,"0.0-3.112-2.112","mrcjt11ueoyjhcc",370,"37.csv","","null","resources/images/coin2.png","null","",NA,NA,NA,NA,""
"image-keyboard-response",350,372743,"0.0-3.113-0.113","mrcjt11ueoyjhcc",370,"37.csv","","1346.5","resources/trios/L1T2A3.jpg","37","restless",0.7,0.4,0.5,0.0586321010628474,"true"
"image-keyboard-response",351,373147,"0.0-3.113-1.113","mrcjt11ueoyjhcc",370,"37.csv","","null","resources/maskTrios/L1BB.jpg","null","",NA,NA,NA,NA,""
"image-keyboard-response",352,374358,"0.0-3.113-2.113","mrcjt11ueoyjhcc",370,"37.csv","","null","resources/images/coin2.png","null","",NA,NA,NA,NA,""
"image-keyboard-response",353,376139,"0.0-3.114-0.114","mrcjt11ueoyjhcc",370,"37.csv","","1779.4000000953674","resources/trios/L4T2A2.jpg","38","restless",0.7,0.4,0.5,0.333507055530485,"true"
"image-keyboard-response",354,376547,"0.0-3.114-1.114","mrcjt11ueoyjhcc",370,"37.csv","","null","resources/maskTrios/BT2B.jpg","null","",NA,NA,NA,NA,""
"image-keyboard-response",355,377756,"0.0-3.114-2.114","mrcjt11ueoyjhcc",370,"37.csv","","null","resources/images/coin2.png","null","",NA,NA,NA,NA,""
"image-keyboard-response",356,380203,"0.0-3.115-0.115","mrcjt11ueoyjhcc",370,"37.csv","","2445.5999999046326","resources/trios/L4T2A3.jpg","38","restless",0.7,0.4,0.5,0.299766612878244,"true"
"image-keyboard-response",357,380614,"0.0-3.115-1.115","mrcjt11ueoyjhcc",370,"37.csv","","null","resources/maskTrios/BT2B.jpg","null","",NA,NA,NA,NA,""
"image-keyboard-response",358,381818,"0.0-3.115-2.115","mrcjt11ueoyjhcc",370,"37.csv","","null","resources/images/coin2.png","null","",NA,NA,NA,NA,""
"image-keyboard-response",359,382920,"0.0-3.116-0.116","mrcjt11ueoyjhcc",370,"37.csv","","1100.0999999046326","resources/trios/L1T1A3.jpg","37","restless",0.7,0.4,0.5,0.297347715531595,"true"
"image-keyboard-response",360,383322,"0.0-3.116-1.116","mrcjt11ueoyjhcc",370,"37.csv","","null","resources/maskTrios/L1BB.jpg","null","",NA,NA,NA,NA,""
"image-keyboard-response",361,384535,"0.0-3.116-2.116","mrcjt11ueoyjhcc",370,"37.csv","","null","resources/images/coin2.png","null","",NA,NA,NA,NA,""
"image-keyboard-response",362,385933,"0.0-3.117-0.117","mrcjt11ueoyjhcc",370,"37.csv","","1396.8000001907349","resources/trios/L4T2A3.jpg","38","restless",0.7,0.4,0.5,0.00465914950762603,"true"
"image-keyboard-response",363,386341,"0.0-3.117-1.117","mrcjt11ueoyjhcc",370,"37.csv","","null","resources/maskTrios/BT2B.jpg","null","",NA,NA,NA,NA,""
"image-keyboard-response",364,387549,"0.0-3.117-2.117","mrcjt11ueoyjhcc",370,"37.csv","","null","resources/images/coin2.png","null","",NA,NA,NA,NA,""
"image-keyboard-response",365,390266,"0.0-3.118-0.118","mrcjt11ueoyjhcc",370,"37.csv","","2716.4000000953674","resources/trios/L1T2A2.jpg","38","restless",0.7,0.4,0.5,0.0916942605638096,"true"
"image-keyboard-response",366,390678,"0.0-3.118-1.118","mrcjt11ueoyjhcc",370,"37.csv","","null","resources/maskTrios/BT2B.jpg","null","",NA,NA,NA,NA,""
"image-keyboard-response",367,391886,"0.0-3.118-2.118","mrcjt11ueoyjhcc",370,"37.csv","","null","resources/images/coin2.png","null","",NA,NA,NA,NA,""
"image-keyboard-response",368,394449,"0.0-3.119-0.119","mrcjt11ueoyjhcc",370,"37.csv","","2561.7999997138977","resources/trios/L1T2A3.jpg","37","restless",0.7,0.4,0.5,0.835515236538352,"false"
"image-keyboard-response",369,394863,"0.0-3.119-1.119","mrcjt11ueoyjhcc",370,"37.csv","","null","resources/maskTrios/L1BB.jpg","null","",NA,NA,NA,NA,""
"image-keyboard-response",370,396067,"0.0-3.119-2.119","mrcjt11ueoyjhcc",370,"37.csv","","null","resources/images/fishbone.png","null","",NA,NA,NA,NA,""
"image-keyboard-response",371,397537,"0.0-3.120-0.120","mrcjt11ueoyjhcc",370,"37.csv","","1468","resources/trios/L4T2A2.jpg","38","restless",0.7,0.4,0.5,0.352225447106875,"true"
"image-keyboard-response",372,397951,"0.0-3.120-1.120","mrcjt11ueoyjhcc",370,"37.csv","","null","resources/maskTrios/BT2B.jpg","null","",NA,NA,NA,NA,""
"image-keyboard-response",373,399159,"0.0-3.120-2.120","mrcjt11ueoyjhcc",370,"37.csv","","null","resources/images/coin2.png","null","",NA,NA,NA,NA,""
"image-keyboard-response",374,400434,"0.0-3.121-0.121","mrcjt11ueoyjhcc",370,"37.csv","","1273.6999998092651","resources/trios/L1T2A2.jpg","38","restless",0.7,0.4,0.5,0.414731278637641,"false"
"image-keyboard-response",375,400846,"0.0-3.121-1.121","mrcjt11ueoyjhcc",370,"37.csv","","null","resources/maskTrios/BT2B.jpg","null","",NA,NA,NA,NA,""
"image-keyboard-response",376,402051,"0.0-3.121-2.121","mrcjt11ueoyjhcc",370,"37.csv","","null","resources/images/fishbone.png","null","",NA,NA,NA,NA,""
"image-keyboard-response",377,403095,"0.0-3.122-0.122","mrcjt11ueoyjhcc",370,"37.csv","","1042.5","resources/trios/L1T1A3.jpg","37","restless",0.7,0.4,0.5,0.684898798405168,"true"
"image-keyboard-response",378,403500,"0.0-3.122-1.122","mrcjt11ueoyjhcc",370,"37.csv","","null","resources/maskTrios/L1BB.jpg","null","",NA,NA,NA,NA,""
"image-keyboard-response",379,404711,"0.0-3.122-2.122","mrcjt11ueoyjhcc",370,"37.csv","","null","resources/images/coin2.png","null","",NA,NA,NA,NA,""
"image-keyboard-response",380,405402,"0.0-3.123-0.123","mrcjt11ueoyjhcc",370,"37.csv","","690.3000001907349","resources/trios/L1T1A3.jpg","37","restless",0.7,0.4,0.5,0.0535004017524134,"true"
"image-keyboard-response",381,405815,"0.0-3.123-1.123","mrcjt11ueoyjhcc",370,"37.csv","","null","resources/maskTrios/L1BB.jpg","null","",NA,NA,NA,NA,""
"image-keyboard-response",382,407021,"0.0-3.123-2.123","mrcjt11ueoyjhcc",370,"37.csv","","null","resources/images/coin2.png","null","",NA,NA,NA,NA,""
"image-keyboard-response",383,408440,"0.0-3.124-0.124","mrcjt11ueoyjhcc",370,"37.csv","","1418.4000000953674","resources/trios/L1T2A2.jpg","39","restless",0.7,0.4,0.5,0.896147707655544,"false"
"image-keyboard-response",384,408855,"0.0-3.124-1.124","mrcjt11ueoyjhcc",370,"37.csv","","null","resources/maskTrios/BBA2.jpg","null","",NA,NA,NA,NA,""
"image-keyboard-response",385,410059,"0.0-3.124-2.124","mrcjt11ueoyjhcc",370,"37.csv","","null","resources/images/fishbone.png","null","",NA,NA,NA,NA,""
"image-keyboard-response",386,411159,"0.0-3.125-0.125","mrcjt11ueoyjhcc",370,"37.csv","","1098.2999997138977","resources/trios/L4T1A3.jpg","37","restless",0.7,0.4,0.5,0.393096360685747,"true"
"image-keyboard-response",387,411567,"0.0-3.125-1.125","mrcjt11ueoyjhcc",370,"37.csv","","null","resources/maskTrios/L4BB.jpg","null","",NA,NA,NA,NA,""
"image-keyboard-response",388,412771,"0.0-3.125-2.125","mrcjt11ueoyjhcc",370,"37.csv","","null","resources/images/coin2.png","null","",NA,NA,NA,NA,""
"image-keyboard-response",389,414588,"0.0-3.126-0.126","mrcjt11ueoyjhcc",370,"37.csv","","1816","resources/trios/L4T2A3.jpg","38","restless",0.7,0.4,0.5,0.578322943044083,"false"
"image-keyboard-response",390,414999,"0.0-3.126-1.126","mrcjt11ueoyjhcc",370,"37.csv","","null","resources/maskTrios/BT2B.jpg","null","",NA,NA,NA,NA,""
"image-keyboard-response",391,416203,"0.0-3.126-2.126","mrcjt11ueoyjhcc",370,"37.csv","","null","resources/images/fishbone.png","null","",NA,NA,NA,NA,""
"image-keyboard-response",392,416867,"0.0-3.127-0.127","mrcjt11ueoyjhcc",370,"37.csv","","663","resources/trios/L1T2A2.jpg","37","restless",0.7,0.4,0.5,0.631811864959546,"true"
"image-keyboard-response",393,417277,"0.0-3.127-1.127","mrcjt11ueoyjhcc",370,"37.csv","","null","resources/maskTrios/L1BB.jpg","null","",NA,NA,NA,NA,""
"image-keyboard-response",394,418487,"0.0-3.127-2.127","mrcjt11ueoyjhcc",370,"37.csv","","null","resources/images/coin2.png","null","",NA,NA,NA,NA,""
"image-keyboard-response",395,422055,"0.0-3.128-0.128","mrcjt11ueoyjhcc",370,"37.csv","","3566.800000190735","resources/trios/L1T1A3.jpg","37","restless",0.7,0.4,0.5,0.823370236971077,"false"
"image-keyboard-response",396,422463,"0.0-3.128-1.128","mrcjt11ueoyjhcc",370,"37.csv","","null","resources/maskTrios/L1BB.jpg","null","",NA,NA,NA,NA,""
"image-keyboard-response",397,423669,"0.0-3.128-2.128","mrcjt11ueoyjhcc",370,"37.csv","","null","resources/images/fishbone.png","null","",NA,NA,NA,NA,""
"image-keyboard-response",398,424304,"0.0-3.129-0.129","mrcjt11ueoyjhcc",370,"37.csv","","633.1999998092651","resources/trios/L1T2A3.jpg","38","restless",0.7,0.4,0.5,0.33776802015279,"true"
"image-keyboard-response",399,424709,"0.0-3.129-1.129","mrcjt11ueoyjhcc",370,"37.csv","","null","resources/maskTrios/BT2B.jpg","null","",NA,NA,NA,NA,""
"image-keyboard-response",400,425919,"0.0-3.129-2.129","mrcjt11ueoyjhcc",370,"37.csv","","null","resources/images/coin2.png","null","",NA,NA,NA,NA,""
"image-keyboard-response",401,426848,"0.0-3.130-0.130","mrcjt11ueoyjhcc",370,"37.csv","","927.4000000953674","resources/trios/L4T1A3.jpg","37","restless",0.7,0.4,0.5,0.130274728004066,"true"
"image-keyboard-response",402,427250,"0.0-3.130-1.130","mrcjt11ueoyjhcc",370,"37.csv","","null","resources/maskTrios/L4BB.jpg","null","",NA,NA,NA,NA,""
"image-keyboard-response",403,428463,"0.0-3.130-2.130","mrcjt11ueoyjhcc",370,"37.csv","","null","resources/images/coin2.png","null","",NA,NA,NA,NA,""
"image-keyboard-response",404,429774,"0.0-3.131-0.131","mrcjt11ueoyjhcc",370,"37.csv","","1309.4000000953674","resources/trios/L1T1A3.jpg","37","restless",0.7,0.4,0.5,0.400416017468043,"true"
"image-keyboard-response",405,430183,"0.0-3.131-1.131","mrcjt11ueoyjhcc",370,"37.csv","","null","resources/maskTrios/L1BB.jpg","null","",NA,NA,NA,NA,""
"image-keyboard-response",406,431391,"0.0-3.131-2.131","mrcjt11ueoyjhcc",370,"37.csv","","null","resources/images/coin2.png","null","",NA,NA,NA,NA,""
"image-keyboard-response",407,432434,"0.0-3.132-0.132","mrcjt11ueoyjhcc",370,"37.csv","","1041.6000003814697","resources/trios/L4T2A3.jpg","38","restless",0.7,0.4,0.6,0.141202189769148,"true"
"image-keyboard-response",408,432847,"0.0-3.132-1.132","mrcjt11ueoyjhcc",370,"37.csv","","null","resources/maskTrios/BT2B.jpg","null","",NA,NA,NA,NA,""
"image-keyboard-response",409,434055,"0.0-3.132-2.132","mrcjt11ueoyjhcc",370,"37.csv","","null","resources/images/coin2.png","null","",NA,NA,NA,NA,""
"image-keyboard-response",410,436494,"0.0-3.133-0.133","mrcjt11ueoyjhcc",370,"37.csv","","2438.2000002861023","resources/trios/L4T1A3.jpg","37","restless",0.7,0.4,0.6,0.54311579032402,"true"
"image-keyboard-response",411,436898,"0.0-3.133-1.133","mrcjt11ueoyjhcc",370,"37.csv","","null","resources/maskTrios/L4BB.jpg","null","",NA,NA,NA,NA,""
"image-keyboard-response",412,438111,"0.0-3.133-2.133","mrcjt11ueoyjhcc",370,"37.csv","","null","resources/images/coin2.png","null","",NA,NA,NA,NA,""
"image-keyboard-response",413,439755,"0.0-3.134-0.134","mrcjt11ueoyjhcc",370,"37.csv","","1643.2000002861023","resources/trios/L4T2A2.jpg","39","restless",0.7,0.4,0.6,0.806856152616168,"false"
"image-keyboard-response",414,440167,"0.0-3.134-1.134","mrcjt11ueoyjhcc",370,"37.csv","","null","resources/maskTrios/BBA2.jpg","null","",NA,NA,NA,NA,""
"image-keyboard-response",415,441375,"0.0-3.134-2.134","mrcjt11ueoyjhcc",370,"37.csv","","null","resources/images/fishbone.png","null","",NA,NA,NA,NA,""
"image-keyboard-response",416,442349,"0.0-3.135-0.135","mrcjt11ueoyjhcc",370,"37.csv","","973.2000002861023","resources/trios/L1T1A2.jpg","37","restless",0.7,0.4,0.7,0.558294921248275,"true"
"image-keyboard-response",417,442758,"0.0-3.135-1.135","mrcjt11ueoyjhcc",370,"37.csv","","null","resources/maskTrios/L1BB.jpg","null","",NA,NA,NA,NA,""
"image-keyboard-response",418,443962,"0.0-3.135-2.135","mrcjt11ueoyjhcc",370,"37.csv","","null","resources/images/coin2.png","null","",NA,NA,NA,NA,""
"image-keyboard-response",419,444814,"0.0-3.136-0.136","mrcjt11ueoyjhcc",370,"37.csv","","849.8000001907349","resources/trios/L1T1A2.jpg","37","restless",0.7,0.4,0.7,0.262252173219802,"true"
"image-keyboard-response",420,445221,"0.0-3.136-1.136","mrcjt11ueoyjhcc",370,"37.csv","","null","resources/maskTrios/L1BB.jpg","null","",NA,NA,NA,NA,""
"image-keyboard-response",421,446431,"0.0-3.136-2.136","mrcjt11ueoyjhcc",370,"37.csv","","null","resources/images/coin2.png","null","",NA,NA,NA,NA,""
"image-keyboard-response",422,448523,"0.0-3.137-0.137","mrcjt11ueoyjhcc",370,"37.csv","","2091.4000000953674","resources/trios/L1T1A2.jpg","37","restless",0.6,0.5,0.7,0.49423055218232,"true"
"image-keyboard-response",423,448935,"0.0-3.137-1.137","mrcjt11ueoyjhcc",370,"37.csv","","null","resources/maskTrios/L1BB.jpg","null","",NA,NA,NA,NA,""
"image-keyboard-response",424,450143,"0.0-3.137-2.137","mrcjt11ueoyjhcc",370,"37.csv","","null","resources/images/coin2.png","null","",NA,NA,NA,NA,""
"image-keyboard-response",425,451284,"0.0-3.138-0.138","mrcjt11ueoyjhcc",370,"37.csv","","1139.9000000953674","resources/trios/L1T2A2.jpg","37","restless",0.6,0.5,0.7,0.570340968653139,"true"
"image-keyboard-response",426,451695,"0.0-3.138-1.138","mrcjt11ueoyjhcc",370,"37.csv","","null","resources/maskTrios/L1BB.jpg","null","",NA,NA,NA,NA,""
"image-keyboard-response",427,452902,"0.0-3.138-2.138","mrcjt11ueoyjhcc",370,"37.csv","","null","resources/images/coin2.png","null","",NA,NA,NA,NA,""
"image-keyboard-response",428,454598,"0.0-3.139-0.139","mrcjt11ueoyjhcc",370,"37.csv","","1694.5","resources/trios/L4T2A2.jpg","38","restless",0.6,0.5,0.7,0.0345707112487403,"true"
"image-keyboard-response",429,455003,"0.0-3.139-1.139","mrcjt11ueoyjhcc",370,"37.csv","","null","resources/maskTrios/BT2B.jpg","null","",NA,NA,NA,NA,""
"image-keyboard-response",430,456210,"0.0-3.139-2.139","mrcjt11ueoyjhcc",370,"37.csv","","null","resources/images/coin2.png","null","",NA,NA,NA,NA,""
"image-keyboard-response",431,457644,"0.0-3.140-0.140","mrcjt11ueoyjhcc",370,"37.csv","","1433","resources/trios/L1T1A2.jpg","37","restless",0.6,0.5,0.7,0.677250600133209,"false"
"image-keyboard-response",432,458053,"0.0-3.140-1.140","mrcjt11ueoyjhcc",370,"37.csv","","null","resources/maskTrios/L1BB.jpg","null","",NA,NA,NA,NA,""
"image-keyboard-response",433,459258,"0.0-3.140-2.140","mrcjt11ueoyjhcc",370,"37.csv","","null","resources/images/fishbone.png","null","",NA,NA,NA,NA,""
"image-keyboard-response",434,460299,"0.0-3.141-0.141","mrcjt11ueoyjhcc",370,"37.csv","","1040","resources/trios/L1T1A2.jpg","39","restless",0.6,0.5,0.7,0.657999441054345,"true"
"image-keyboard-response",435,460706,"0.0-3.141-1.141","mrcjt11ueoyjhcc",370,"37.csv","","null","resources/maskTrios/BBA2.jpg","null","",NA,NA,NA,NA,""
"image-keyboard-response",436,461919,"0.0-3.141-2.141","mrcjt11ueoyjhcc",370,"37.csv","","null","resources/images/coin2.png","null","",NA,NA,NA,NA,""
"image-keyboard-response",437,462653,"0.0-3.142-0.142","mrcjt11ueoyjhcc",370,"37.csv","","732.5999999046326","resources/trios/L1T1A2.jpg","39","restless",0.5,0.6,0.7,0.971175692555591,"false"
"image-keyboard-response",438,463058,"0.0-3.142-1.142","mrcjt11ueoyjhcc",370,"37.csv","","null","resources/maskTrios/BBA2.jpg","null","",NA,NA,NA,NA,""
"image-keyboard-response",439,464267,"0.0-3.142-2.142","mrcjt11ueoyjhcc",370,"37.csv","","null","resources/images/fishbone.png","null","",NA,NA,NA,NA,""
"image-keyboard-response",440,464766,"0.0-3.143-0.143","mrcjt11ueoyjhcc",370,"37.csv","","498.09999990463257","resources/trios/L1T1A2.jpg","37","restless",0.5,0.6,0.8,0.453049764267089,"true"
"image-keyboard-response",441,465174,"0.0-3.143-1.143","mrcjt11ueoyjhcc",370,"37.csv","","null","resources/maskTrios/L1BB.jpg","null","",NA,NA,NA,NA,""
"image-keyboard-response",442,466382,"0.0-3.143-2.143","mrcjt11ueoyjhcc",370,"37.csv","","null","resources/images/coin2.png","null","",NA,NA,NA,NA,""
"image-keyboard-response",443,468394,"0.0-3.144-0.144","mrcjt11ueoyjhcc",370,"37.csv","","2011","resources/trios/L4T1A3.jpg","38","restless",0.5,0.6,0.8,0.139144482473233,"true"
"image-keyboard-response",444,468807,"0.0-3.144-1.144","mrcjt11ueoyjhcc",370,"37.csv","","null","resources/maskTrios/BT1B.jpg","null","",NA,NA,NA,NA,""
"image-keyboard-response",445,470015,"0.0-3.144-2.144","mrcjt11ueoyjhcc",370,"37.csv","","null","resources/images/coin2.png","null","",NA,NA,NA,NA,""
"image-keyboard-response",446,470827,"0.0-3.145-0.145","mrcjt11ueoyjhcc",370,"37.csv","","810.5","resources/trios/L4T1A3.jpg","38","restless",0.4,0.6,0.7,0.766137271320575,"false"
"image-keyboard-response",447,471234,"0.0-3.145-1.145","mrcjt11ueoyjhcc",370,"37.csv","","null","resources/maskTrios/BT1B.jpg","null","",NA,NA,NA,NA,""
"image-keyboard-response",448,472443,"0.0-3.145-2.145","mrcjt11ueoyjhcc",370,"37.csv","","null","resources/images/fishbone.png","null","",NA,NA,NA,NA,""
"image-keyboard-response",449,472890,"0.0-3.146-0.146","mrcjt11ueoyjhcc",370,"37.csv","","445.5","resources/trios/L4T2A3.jpg","37","restless",0.4,0.6,0.7,0.736158118950824,"false"
"image-keyboard-response",450,473303,"0.0-3.146-1.146","mrcjt11ueoyjhcc",370,"37.csv","","null","resources/maskTrios/L4BB.jpg","null","",NA,NA,NA,NA,""
"image-keyboard-response",451,474507,"0.0-3.146-2.146","mrcjt11ueoyjhcc",370,"37.csv","","null","resources/images/fishbone.png","null","",NA,NA,NA,NA,""
"image-keyboard-response",452,474898,"0.0-3.147-0.147","mrcjt11ueoyjhcc",370,"37.csv","","389.40000009536743","resources/trios/L1T1A2.jpg","39","restless",0.4,0.6,0.7,0.202118512675704,"true"
"image-keyboard-response",453,475307,"0.0-3.147-1.147","mrcjt11ueoyjhcc",370,"37.csv","","null","resources/maskTrios/BBA2.jpg","null","",NA,NA,NA,NA,""
"image-keyboard-response",454,476515,"0.0-3.147-2.147","mrcjt11ueoyjhcc",370,"37.csv","","null","resources/images/coin2.png","null","",NA,NA,NA,NA,""
"image-keyboard-response",455,477390,"0.0-3.148-0.148","mrcjt11ueoyjhcc",370,"37.csv","","874","resources/trios/L4T1A2.jpg","39","restless",0.4,0.6,0.7,0.4264618902345,"true"
"image-keyboard-response",456,477798,"0.0-3.148-1.148","mrcjt11ueoyjhcc",370,"37.csv","","null","resources/maskTrios/BBA2.jpg","null","",NA,NA,NA,NA,""
"image-keyboard-response",457,479004,"0.0-3.148-2.148","mrcjt11ueoyjhcc",370,"37.csv","","null","resources/images/coin2.png","null","",NA,NA,NA,NA,""
"image-keyboard-response",458,480311,"0.0-3.149-0.149","mrcjt11ueoyjhcc",370,"37.csv","","1305.5","resources/trios/L4T1A3.jpg","37","restless",0.4,0.6,0.7,0.689247024078181,"false"
"image-keyboard-response",459,480714,"0.0-3.149-1.149","mrcjt11ueoyjhcc",370,"37.csv","","null","resources/maskTrios/L4BB.jpg","null","",NA,NA,NA,NA,""
"image-keyboard-response",460,481927,"0.0-3.149-2.149","mrcjt11ueoyjhcc",370,"37.csv","","null","resources/images/fishbone.png","null","",NA,NA,NA,NA,""
"image-keyboard-response",461,482864,"0.0-3.150-0.150","mrcjt11ueoyjhcc",370,"37.csv","","936.2000002861023","resources/trios/L1T2A3.jpg","38","restless",0.4,0.5,0.7,0.973533071800481,"false"
"image-keyboard-response",462,483278,"0.0-3.150-1.150","mrcjt11ueoyjhcc",370,"37.csv","","null","resources/maskTrios/BT2B.jpg","null","",NA,NA,NA,NA,""
"image-keyboard-response",463,484487,"0.0-3.150-2.150","mrcjt11ueoyjhcc",370,"37.csv","","null","resources/images/fishbone.png","null","",NA,NA,NA,NA,""
"image-keyboard-response",464,485445,"0.0-3.151-0.151","mrcjt11ueoyjhcc",370,"37.csv","","957.5","resources/trios/L4T1A2.jpg","39","restless",0.4,0.5,0.7,0.83684299375381,"false"
"image-keyboard-response",465,485853,"0.0-3.151-1.151","mrcjt11ueoyjhcc",370,"37.csv","","null","resources/maskTrios/BBA2.jpg","null","",NA,NA,NA,NA,""
"image-keyboard-response",466,487059,"0.0-3.151-2.151","mrcjt11ueoyjhcc",370,"37.csv","","null","resources/images/fishbone.png","null","",NA,NA,NA,NA,""
"image-keyboard-response",467,487760,"0.0-3.152-0.152","mrcjt11ueoyjhcc",370,"37.csv","","699.7000002861023","resources/trios/L1T1A2.jpg","37","restless",0.4,0.5,0.7,0.596141358573252,"false"
"image-keyboard-response",468,488170,"0.0-3.152-1.152","mrcjt11ueoyjhcc",370,"37.csv","","null","resources/maskTrios/L1BB.jpg","null","",NA,NA,NA,NA,""
"image-keyboard-response",469,489381,"0.0-3.152-2.152","mrcjt11ueoyjhcc",370,"37.csv","","null","resources/images/fishbone.png","null","",NA,NA,NA,NA,""
"image-keyboard-response",470,490256,"0.0-3.153-0.153","mrcjt11ueoyjhcc",370,"37.csv","","873.5","resources/trios/L4T2A2.jpg","37","restless",0.4,0.5,0.7,0.837697383246422,"false"
"image-keyboard-response",471,490659,"0.0-3.153-1.153","mrcjt11ueoyjhcc",370,"37.csv","","null","resources/maskTrios/L4BB.jpg","null","",NA,NA,NA,NA,""
"image-keyboard-response",472,491871,"0.0-3.153-2.153","mrcjt11ueoyjhcc",370,"37.csv","","null","resources/images/fishbone.png","null","",NA,NA,NA,NA,""
"image-keyboard-response",473,492445,"0.0-3.154-0.154","mrcjt11ueoyjhcc",370,"37.csv","","573.4000000953674","resources/trios/L4T2A2.jpg","38","restless",0.4,0.5,0.7,0.284591213735315,"true"
"image-keyboard-response",474,492853,"0.0-3.154-1.154","mrcjt11ueoyjhcc",370,"37.csv","","null","resources/maskTrios/BT2B.jpg","null","",NA,NA,NA,NA,""
"image-keyboard-response",475,494059,"0.0-3.154-2.154","mrcjt11ueoyjhcc",370,"37.csv","","null","resources/images/coin2.png","null","",NA,NA,NA,NA,""
"image-keyboard-response",476,495093,"0.0-3.155-0.155","mrcjt11ueoyjhcc",370,"37.csv","","1032.7999997138977","resources/trios/L1T1A3.jpg","37","restless",0.4,0.5,0.7,0.46138661200715,"false"
"image-keyboard-response",477,495502,"0.0-3.155-1.155","mrcjt11ueoyjhcc",370,"37.csv","","null","resources/maskTrios/L1BB.jpg","null","",NA,NA,NA,NA,""
"image-keyboard-response",478,496707,"0.0-3.155-2.155","mrcjt11ueoyjhcc",370,"37.csv","","null","resources/images/fishbone.png","null","",NA,NA,NA,NA,""
"image-keyboard-response",479,497518,"0.0-3.156-0.156","mrcjt11ueoyjhcc",370,"37.csv","","810.3000001907349","resources/trios/L4T2A2.jpg","38","restless",0.4,0.5,0.6,0.157122246377948,"true"
"image-keyboard-response",480,497925,"0.0-3.156-1.156","mrcjt11ueoyjhcc",370,"37.csv","","null","resources/maskTrios/BT2B.jpg","null","",NA,NA,NA,NA,""
"image-keyboard-response",481,499134,"0.0-3.156-2.156","mrcjt11ueoyjhcc",370,"37.csv","","null","resources/images/coin2.png","null","",NA,NA,NA,NA,""
"image-keyboard-response",482,499870,"0.0-3.157-0.157","mrcjt11ueoyjhcc",370,"37.csv","","734.1000003814697","resources/trios/L4T1A2.jpg","39","restless",0.4,0.5,0.6,0.910621901914753,"false"
"image-keyboard-response",483,500279,"0.0-3.157-1.157","mrcjt11ueoyjhcc",370,"37.csv","","null","resources/maskTrios/BBA2.jpg","null","",NA,NA,NA,NA,""
"image-keyboard-response",484,501484,"0.0-3.157-2.157","mrcjt11ueoyjhcc",370,"37.csv","","null","resources/images/fishbone.png","null","",NA,NA,NA,NA,""
"image-keyboard-response",485,502276,"0.0-3.158-0.158","mrcjt11ueoyjhcc",370,"37.csv","","790.0999999046326","resources/trios/L4T2A3.jpg","37","restless",0.4,0.6,0.6,0.922605459692331,"false"
"image-keyboard-response",486,502685,"0.0-3.158-1.158","mrcjt11ueoyjhcc",370,"37.csv","","null","resources/maskTrios/L4BB.jpg","null","",NA,NA,NA,NA,""
"image-keyboard-response",487,503893,"0.0-3.158-2.158","mrcjt11ueoyjhcc",370,"37.csv","","null","resources/images/fishbone.png","null","",NA,NA,NA,NA,""
"image-keyboard-response",488,504488,"0.0-3.159-0.159","mrcjt11ueoyjhcc",370,"37.csv","","593.5999999046326","resources/trios/L1T2A3.jpg","38","restless",0.4,0.6,0.6,0.502458745088405,"true"
"image-keyboard-response",489,504898,"0.0-3.159-1.159","mrcjt11ueoyjhcc",370,"37.csv","","null","resources/maskTrios/BT2B.jpg","null","",NA,NA,NA,NA,""
"image-keyboard-response",490,506111,"0.0-3.159-2.159","mrcjt11ueoyjhcc",370,"37.csv","","null","resources/images/coin2.png","null","",NA,NA,NA,NA,""
"image-keyboard-response",491,506594,"0.0-3.160-0.160","mrcjt11ueoyjhcc",370,"37.csv","","481.6000003814697","resources/trios/L1T1A3.jpg","37","restless",0.4,0.6,0.6,0.690490778075942,"false"
"image-keyboard-response",492,507003,"0.0-3.160-1.160","mrcjt11ueoyjhcc",370,"37.csv","","null","resources/maskTrios/L1BB.jpg","null","",NA,NA,NA,NA,""
"image-keyboard-response",493,508209,"0.0-3.160-2.160","mrcjt11ueoyjhcc",370,"37.csv","","null","resources/images/fishbone.png","null","",NA,NA,NA,NA,""
"image-keyboard-response",494,508947,"0.0-3.161-0.161","mrcjt11ueoyjhcc",370,"37.csv","","735.9000000953674","resources/trios/L4T1A2.jpg","38","restless",0.4,0.6,0.6,0.411934753707796,"true"
"image-keyboard-response",495,509357,"0.0-3.161-1.161","mrcjt11ueoyjhcc",370,"37.csv","","null","resources/maskTrios/BT1B.jpg","null","",NA,NA,NA,NA,""
"image-keyboard-response",496,510564,"0.0-3.161-2.161","mrcjt11ueoyjhcc",370,"37.csv","","null","resources/images/coin2.png","null","",NA,NA,NA,NA,""
"image-keyboard-response",497,511687,"0.0-3.162-0.162","mrcjt11ueoyjhcc",370,"37.csv","","1121.2000002861023","resources/trios/L4T2A2.jpg","39","restless",0.5,0.6,0.6,0.146181695252306,"true"
"image-keyboard-response",498,512093,"0.0-3.162-1.162","mrcjt11ueoyjhcc",370,"37.csv","","null","resources/maskTrios/BBA2.jpg","null","",NA,NA,NA,NA,""
"image-keyboard-response",499,513303,"0.0-3.162-2.162","mrcjt11ueoyjhcc",370,"37.csv","","null","resources/images/coin2.png","null","",NA,NA,NA,NA,""
"image-keyboard-response",500,514942,"0.0-3.163-0.163","mrcjt11ueoyjhcc",370,"37.csv","","1637.9000000953674","resources/trios/L1T1A3.jpg","38","restless",0.5,0.6,0.6,0.811171978647047,"false"
"image-keyboard-response",501,515346,"0.0-3.163-1.163","mrcjt11ueoyjhcc",370,"37.csv","","null","resources/maskTrios/BT1B.jpg","null","",NA,NA,NA,NA,""
"image-keyboard-response",502,516555,"0.0-3.163-2.163","mrcjt11ueoyjhcc",370,"37.csv","","null","resources/images/fishbone.png","null","",NA,NA,NA,NA,""
"image-keyboard-response",503,516975,"0.0-3.164-0.164","mrcjt11ueoyjhcc",370,"37.csv","","419.5","resources/trios/L1T1A2.jpg","37","restless",0.5,0.6,0.6,0.659931666021351,"false"
"image-keyboard-response",504,517379,"0.0-3.164-1.164","mrcjt11ueoyjhcc",370,"37.csv","","null","resources/maskTrios/L1BB.jpg","null","",NA,NA,NA,NA,""
"image-keyboard-response",505,518591,"0.0-3.164-2.164","mrcjt11ueoyjhcc",370,"37.csv","","null","resources/images/fishbone.png","null","",NA,NA,NA,NA,""
"image-keyboard-response",506,519092,"0.0-3.165-0.165","mrcjt11ueoyjhcc",370,"37.csv","","499.90000009536743","resources/trios/L4T1A2.jpg","39","restless",0.5,0.6,0.6,0.882814735032951,"false"
"image-keyboard-response",507,519499,"0.0-3.165-1.165","mrcjt11ueoyjhcc",370,"37.csv","","null","resources/maskTrios/BBA2.jpg","null","",NA,NA,NA,NA,""
"image-keyboard-response",508,520709,"0.0-3.165-2.165","mrcjt11ueoyjhcc",370,"37.csv","","null","resources/images/fishbone.png","null","",NA,NA,NA,NA,""
"image-keyboard-response",509,521971,"0.0-3.166-0.166","mrcjt11ueoyjhcc",370,"37.csv","","1261","resources/trios/L4T2A2.jpg","38","restless",0.5,0.6,0.6,0.232395221632617,"true"
"image-keyboard-response",510,522383,"0.0-3.166-1.166","mrcjt11ueoyjhcc",370,"37.csv","","null","resources/maskTrios/BT2B.jpg","null","",NA,NA,NA,NA,""
"image-keyboard-response",511,523588,"0.0-3.166-2.166","mrcjt11ueoyjhcc",370,"37.csv","","null","resources/images/coin2.png","null","",NA,NA,NA,NA,""
"image-keyboard-response",512,524770,"0.0-3.167-0.167","mrcjt11ueoyjhcc",370,"37.csv","","1180.4000000953674","resources/trios/L4T2A3.jpg","38","restless",0.5,0.6,0.6,0.261633511920437,"true"
"image-keyboard-response",513,525183,"0.0-3.167-1.167","mrcjt11ueoyjhcc",370,"37.csv","","null","resources/maskTrios/BT2B.jpg","null","",NA,NA,NA,NA,""
"image-keyboard-response",514,526387,"0.0-3.167-2.167","mrcjt11ueoyjhcc",370,"37.csv","","null","resources/images/coin2.png","null","",NA,NA,NA,NA,""
"image-keyboard-response",515,527344,"0.0-3.168-0.168","mrcjt11ueoyjhcc",370,"37.csv","","954.9000000953674","resources/trios/L4T1A2.jpg","39","restless",0.6,0.6,0.6,0.38685999630135,"true"
"image-keyboard-response",516,527751,"0.0-3.168-1.168","mrcjt11ueoyjhcc",370,"37.csv","","null","resources/maskTrios/BBA2.jpg","null","",NA,NA,NA,NA,""
"image-keyboard-response",517,528959,"0.0-3.168-2.168","mrcjt11ueoyjhcc",370,"37.csv","","null","resources/images/coin2.png","null","",NA,NA,NA,NA,""
"image-keyboard-response",518,531059,"0.0-3.169-0.169","mrcjt11ueoyjhcc",370,"37.csv","","2099.300000190735","resources/trios/L4T1A2.jpg","39","restless",0.6,0.7,0.6,0.919891288331028,"false"
"image-keyboard-response",519,531467,"0.0-3.169-1.169","mrcjt11ueoyjhcc",370,"37.csv","","null","resources/maskTrios/BBA2.jpg","null","",NA,NA,NA,NA,""
"image-keyboard-response",520,532679,"0.0-3.169-2.169","mrcjt11ueoyjhcc",370,"37.csv","","null","resources/images/fishbone.png","null","",NA,NA,NA,NA,""
"image-keyboard-response",521,533540,"0.0-3.170-0.170","mrcjt11ueoyjhcc",370,"37.csv","","860.1000003814697","resources/trios/L1T1A2.jpg","37","restless",0.6,0.7,0.6,0.494985101549413,"true"
"image-keyboard-response",522,533945,"0.0-3.170-1.170","mrcjt11ueoyjhcc",370,"37.csv","","null","resources/maskTrios/L1BB.jpg","null","",NA,NA,NA,NA,""
"image-keyboard-response",523,535158,"0.0-3.170-2.170","mrcjt11ueoyjhcc",370,"37.csv","","null","resources/images/coin2.png","null","",NA,NA,NA,NA,""
"image-keyboard-response",524,536225,"0.0-3.171-0.171","mrcjt11ueoyjhcc",370,"37.csv","","1064.6000003814697","resources/trios/L1T2A3.jpg","38","restless",0.6,0.7,0.6,0.275466228983787,"true"
"image-keyboard-response",525,536638,"0.0-3.171-1.171","mrcjt11ueoyjhcc",370,"37.csv","","null","resources/maskTrios/BT2B.jpg","null","",NA,NA,NA,NA,""
"image-keyboard-response",526,537842,"0.0-3.171-2.171","mrcjt11ueoyjhcc",370,"37.csv","","null","resources/images/coin2.png","null","",NA,NA,NA,NA,""
"image-keyboard-response",527,538936,"0.0-3.172-0.172","mrcjt11ueoyjhcc",370,"37.csv","","1092.8999996185303","resources/trios/L1T2A2.jpg","38","restless",0.6,0.7,0.6,0.132984794080403,"true"
"image-keyboard-response",528,539345,"0.0-3.172-1.172","mrcjt11ueoyjhcc",370,"37.csv","","null","resources/maskTrios/BT2B.jpg","null","",NA,NA,NA,NA,""
"image-keyboard-response",529,540555,"0.0-3.172-2.172","mrcjt11ueoyjhcc",370,"37.csv","","null","resources/images/coin2.png","null","",NA,NA,NA,NA,""
"image-keyboard-response",530,541623,"0.0-3.173-0.173","mrcjt11ueoyjhcc",370,"37.csv","","1066.6999998092651","resources/trios/L1T2A3.jpg","37","restless",0.5,0.7,0.6,0.638662285777582,"false"
"image-keyboard-response",531,542026,"0.0-3.173-1.173","mrcjt11ueoyjhcc",370,"37.csv","","null","resources/maskTrios/L1BB.jpg","null","",NA,NA,NA,NA,""
"image-keyboard-response",532,543229,"0.0-3.173-2.173","mrcjt11ueoyjhcc",370,"37.csv","","null","resources/images/fishbone.png","null","",NA,NA,NA,NA,""
"image-keyboard-response",533,544046,"0.0-3.174-0.174","mrcjt11ueoyjhcc",370,"37.csv","","815.5","resources/trios/L1T1A3.jpg","37","restless",0.5,0.7,0.6,0.805852679752487,"false"
"image-keyboard-response",534,544450,"0.0-3.174-1.174","mrcjt11ueoyjhcc",370,"37.csv","","null","resources/maskTrios/L1BB.jpg","null","",NA,NA,NA,NA,""
"image-keyboard-response",535,545661,"0.0-3.174-2.174","mrcjt11ueoyjhcc",370,"37.csv","","null","resources/images/fishbone.png","null","",NA,NA,NA,NA,""
"image-keyboard-response",536,546858,"0.0-3.175-0.175","mrcjt11ueoyjhcc",370,"37.csv","","1195.5","resources/trios/L1T1A3.jpg","37","restless",0.5,0.7,0.6,0.684196734317705,"false"
"image-keyboard-response",537,547267,"0.0-3.175-1.175","mrcjt11ueoyjhcc",370,"37.csv","","null","resources/maskTrios/L1BB.jpg","null","",NA,NA,NA,NA,""
"image-keyboard-response",538,548478,"0.0-3.175-2.175","mrcjt11ueoyjhcc",370,"37.csv","","null","resources/images/fishbone.png","null","",NA,NA,NA,NA,""
"image-keyboard-response",539,549430,"0.0-3.176-0.176","mrcjt11ueoyjhcc",370,"37.csv","","949.7999997138977","resources/trios/L1T1A3.jpg","39","restless",0.5,0.7,0.6,0.320895274968682,"true"
"image-keyboard-response",540,549838,"0.0-3.176-1.176","mrcjt11ueoyjhcc",370,"37.csv","","null","resources/maskTrios/BBA3.jpg","null","",NA,NA,NA,NA,""
"image-keyboard-response",541,551044,"0.0-3.176-2.176","mrcjt11ueoyjhcc",370,"37.csv","","null","resources/images/coin2.png","null","",NA,NA,NA,NA,""
"image-keyboard-response",542,551520,"0.0-3.177-0.177","mrcjt11ueoyjhcc",370,"37.csv","","474.5","resources/trios/L4T1A2.jpg","38","restless",0.5,0.7,0.6,0.487868406751599,"true"
"image-keyboard-response",543,551930,"0.0-3.177-1.177","mrcjt11ueoyjhcc",370,"37.csv","","null","resources/maskTrios/BT1B.jpg","null","",NA,NA,NA,NA,""
"image-keyboard-response",544,553138,"0.0-3.177-2.177","mrcjt11ueoyjhcc",370,"37.csv","","null","resources/images/coin2.png","null","",NA,NA,NA,NA,""
"image-keyboard-response",545,554311,"0.0-3.178-0.178","mrcjt11ueoyjhcc",370,"37.csv","","1171.9000000953674","resources/trios/L4T2A2.jpg","38","restless",0.5,0.8,0.6,0.526292481480987,"true"
"image-keyboard-response",546,554714,"0.0-3.178-1.178","mrcjt11ueoyjhcc",370,"37.csv","","null","resources/maskTrios/BT2B.jpg","null","",NA,NA,NA,NA,""
"image-keyboard-response",547,555923,"0.0-3.178-2.178","mrcjt11ueoyjhcc",370,"37.csv","","null","resources/images/coin2.png","null","",NA,NA,NA,NA,""
"image-keyboard-response",548,556883,"0.0-3.179-0.179","mrcjt11ueoyjhcc",370,"37.csv","","958.2999997138977","resources/trios/L4T2A3.jpg","38","restless",0.4,0.8,0.6,0.421079928915447,"true"
"image-keyboard-response",549,557294,"0.0-3.179-1.179","mrcjt11ueoyjhcc",370,"37.csv","","null","resources/maskTrios/BT2B.jpg","null","",NA,NA,NA,NA,""
"image-keyboard-response",550,558502,"0.0-3.179-2.179","mrcjt11ueoyjhcc",370,"37.csv","","null","resources/images/coin2.png","null","",NA,NA,NA,NA,""
"image-keyboard-response",551,560043,"0.0-3.180-0.180","mrcjt11ueoyjhcc",370,"37.csv","","1539.1999998092651","resources/trios/L4T1A2.jpg","37","restless",0.4,0.8,0.6,0.968368215915258,"false"
"image-keyboard-response",552,560450,"0.0-3.180-1.180","mrcjt11ueoyjhcc",370,"37.csv","","null","resources/maskTrios/L4BB.jpg","null","",NA,NA,NA,NA,""
"image-keyboard-response",553,561662,"0.0-3.180-2.180","mrcjt11ueoyjhcc",370,"37.csv","","null","resources/images/fishbone.png","null","",NA,NA,NA,NA,""
"image-keyboard-response",554,562089,"0.0-3.181-0.181","mrcjt11ueoyjhcc",370,"37.csv","","426.19999980926514","resources/trios/L4T1A3.jpg","39","restless",0.4,0.8,0.6,0.186310412587637,"true"
"image-keyboard-response",555,562498,"0.0-3.181-1.181","mrcjt11ueoyjhcc",370,"37.csv","","null","resources/maskTrios/BBA3.jpg","null","",NA,NA,NA,NA,""
"image-keyboard-response",556,563708,"0.0-3.181-2.181","mrcjt11ueoyjhcc",370,"37.csv","","null","resources/images/coin2.png","null","",NA,NA,NA,NA,""
"image-keyboard-response",557,565463,"0.0-3.182-0.182","mrcjt11ueoyjhcc",370,"37.csv","","1753","resources/trios/L4T2A2.jpg","39","restless",0.4,0.8,0.6,0.7027293719942,"false"
"image-keyboard-response",558,565869,"0.0-3.182-1.182","mrcjt11ueoyjhcc",370,"37.csv","","null","resources/maskTrios/BBA2.jpg","null","",NA,NA,NA,NA,""
"image-keyboard-response",559,567078,"0.0-3.182-2.182","mrcjt11ueoyjhcc",370,"37.csv","","null","resources/images/fishbone.png","null","",NA,NA,NA,NA,""
"image-keyboard-response",560,567585,"0.0-3.183-0.183","mrcjt11ueoyjhcc",370,"37.csv","","505.2000002861023","resources/trios/L1T2A2.jpg","37","restless",0.4,0.9,0.6,0.0912532244586337,"true"
"image-keyboard-response",561,567998,"0.0-3.183-1.183","mrcjt11ueoyjhcc",370,"37.csv","","null","resources/maskTrios/L1BB.jpg","null","",NA,NA,NA,NA,""
"image-keyboard-response",562,569206,"0.0-3.183-2.183","mrcjt11ueoyjhcc",370,"37.csv","","null","resources/images/coin2.png","null","",NA,NA,NA,NA,""
"image-keyboard-response",563,570019,"0.0-3.184-0.184","mrcjt11ueoyjhcc",370,"37.csv","","811.3000001907349","resources/trios/L4T1A3.jpg","37","restless",0.3,0.8,0.6,0.959298630056598,"false"
"image-keyboard-response",564,570429,"0.0-3.184-1.184","mrcjt11ueoyjhcc",370,"37.csv","","null","resources/maskTrios/L4BB.jpg","null","",NA,NA,NA,NA,""
"image-keyboard-response",565,571635,"0.0-3.184-2.184","mrcjt11ueoyjhcc",370,"37.csv","","null","resources/images/fishbone.png","null","",NA,NA,NA,NA,""
"image-keyboard-response",566,572566,"0.0-3.185-0.185","mrcjt11ueoyjhcc",370,"37.csv","","930.1999998092651","resources/trios/L4T2A3.jpg","38","restless",0.3,0.8,0.6,0.667465538569566,"true"
"image-keyboard-response",567,572972,"0.0-3.185-1.185","mrcjt11ueoyjhcc",370,"37.csv","","null","resources/maskTrios/BT2B.jpg","null","",NA,NA,NA,NA,""
"image-keyboard-response",568,574182,"0.0-3.185-2.185","mrcjt11ueoyjhcc",370,"37.csv","","null","resources/images/coin2.png","null","",NA,NA,NA,NA,""
"image-keyboard-response",569,575061,"0.0-3.186-0.186","mrcjt11ueoyjhcc",370,"37.csv","","877.2000002861023","resources/trios/L4T1A3.jpg","38","restless",0.4,0.8,0.6,0.734657738670177,"true"
"image-keyboard-response",570,575470,"0.0-3.186-1.186","mrcjt11ueoyjhcc",370,"37.csv","","null","resources/maskTrios/BT1B.jpg","null","",NA,NA,NA,NA,""
"image-keyboard-response",571,576678,"0.0-3.186-2.186","mrcjt11ueoyjhcc",370,"37.csv","","null","resources/images/coin2.png","null","",NA,NA,NA,NA,""
"image-keyboard-response",572,577621,"0.0-3.187-0.187","mrcjt11ueoyjhcc",370,"37.csv","","941.1000003814697","resources/trios/L4T1A2.jpg","37","restless",0.4,0.8,0.6,0.66617094969158,"false"
"image-keyboard-response",573,578030,"0.0-3.187-1.187","mrcjt11ueoyjhcc",370,"37.csv","","null","resources/maskTrios/L4BB.jpg","null","",NA,NA,NA,NA,""
"image-keyboard-response",574,579236,"0.0-3.187-2.187","mrcjt11ueoyjhcc",370,"37.csv","","null","resources/images/fishbone.png","null","",NA,NA,NA,NA,""
"image-keyboard-response",575,579934,"0.0-3.188-0.188","mrcjt11ueoyjhcc",370,"37.csv","","696.7999997138977","resources/trios/L1T1A3.jpg","38","restless",0.4,0.8,0.6,0.0977623380953481,"true"
"image-keyboard-response",576,580342,"0.0-3.188-1.188","mrcjt11ueoyjhcc",370,"37.csv","","null","resources/maskTrios/BT1B.jpg","null","",NA,NA,NA,NA,""
"image-keyboard-response",577,581550,"0.0-3.188-2.188","mrcjt11ueoyjhcc",370,"37.csv","","null","resources/images/coin2.png","null","",NA,NA,NA,NA,""
"image-keyboard-response",578,582485,"0.0-3.189-0.189","mrcjt11ueoyjhcc",370,"37.csv","","933.1000003814697","resources/trios/L4T2A2.jpg","38","restless",0.4,0.8,0.6,0.697181108763178,"true"
"image-keyboard-response",579,582894,"0.0-3.189-1.189","mrcjt11ueoyjhcc",370,"37.csv","","null","resources/maskTrios/BT2B.jpg","null","",NA,NA,NA,NA,""
"image-keyboard-response",580,584098,"0.0-3.189-2.189","mrcjt11ueoyjhcc",370,"37.csv","","null","resources/images/coin2.png","null","",NA,NA,NA,NA,""
"image-keyboard-response",581,584920,"0.0-3.190-0.190","mrcjt11ueoyjhcc",370,"37.csv","","820.3000001907349","resources/trios/L1T1A3.jpg","37","restless",0.4,0.8,0.6,0.648250264775863,"false"
"image-keyboard-response",582,585334,"0.0-3.190-1.190","mrcjt11ueoyjhcc",370,"37.csv","","null","resources/maskTrios/L1BB.jpg","null","",NA,NA,NA,NA,""
"image-keyboard-response",583,586537,"0.0-3.190-2.190","mrcjt11ueoyjhcc",370,"37.csv","","null","resources/images/fishbone.png","null","",NA,NA,NA,NA,""
"image-keyboard-response",584,587140,"0.0-3.191-0.191","mrcjt11ueoyjhcc",370,"37.csv","","600.8000001907349","resources/trios/L4T1A3.jpg","38","restless",0.4,0.8,0.6,0.272282743879062,"true"
"image-keyboard-response",585,587550,"0.0-3.191-1.191","mrcjt11ueoyjhcc",370,"37.csv","","null","resources/maskTrios/BT1B.jpg","null","",NA,NA,NA,NA,""
"image-keyboard-response",586,588758,"0.0-3.191-2.191","mrcjt11ueoyjhcc",370,"37.csv","","null","resources/images/coin2.png","null","",NA,NA,NA,NA,""
"image-keyboard-response",587,589710,"0.0-3.192-0.192","mrcjt11ueoyjhcc",370,"37.csv","","950.3999996185303","resources/trios/L1T2A3.jpg","38","restless",0.4,0.9,0.6,0.592880108712609,"true"
"image-keyboard-response",588,590118,"0.0-3.192-1.192","mrcjt11ueoyjhcc",370,"37.csv","","null","resources/maskTrios/BT2B.jpg","null","",NA,NA,NA,NA,""
"image-keyboard-response",589,591326,"0.0-3.192-2.192","mrcjt11ueoyjhcc",370,"37.csv","","null","resources/images/coin2.png","null","",NA,NA,NA,NA,""
"image-keyboard-response",590,591742,"0.0-3.193-0.193","mrcjt11ueoyjhcc",370,"37.csv","","413.7000002861023","resources/trios/L4T1A2.jpg","38","restless",0.4,0.9,0.6,0.0121099235451498,"true"
"image-keyboard-response",591,592148,"0.0-3.193-1.193","mrcjt11ueoyjhcc",370,"37.csv","","null","resources/maskTrios/BT1B.jpg","null","",NA,NA,NA,NA,""
"image-keyboard-response",592,593355,"0.0-3.193-2.193","mrcjt11ueoyjhcc",370,"37.csv","","null","resources/images/coin2.png","null","",NA,NA,NA,NA,""
"image-keyboard-response",593,593905,"0.0-3.194-0.194","mrcjt11ueoyjhcc",370,"37.csv","","548.5999999046326","resources/trios/L4T1A2.jpg","38","restless",0.4,0.9,0.6,0.753037720783348,"true"
"image-keyboard-response",594,594318,"0.0-3.194-1.194","mrcjt11ueoyjhcc",370,"37.csv","","null","resources/maskTrios/BT1B.jpg","null","",NA,NA,NA,NA,""
"image-keyboard-response",595,595522,"0.0-3.194-2.194","mrcjt11ueoyjhcc",370,"37.csv","","null","resources/images/coin2.png","null","",NA,NA,NA,NA,""
"image-keyboard-response",596,596079,"0.0-3.195-0.195","mrcjt11ueoyjhcc",370,"37.csv","","555.9000000953674","resources/trios/L4T1A3.jpg","38","restless",0.4,0.9,0.6,0.927033779472648,"false"
"image-keyboard-response",597,596486,"0.0-3.195-1.195","mrcjt11ueoyjhcc",370,"37.csv","","null","resources/maskTrios/BT1B.jpg","null","",NA,NA,NA,NA,""
"image-keyboard-response",598,597694,"0.0-3.195-2.195","mrcjt11ueoyjhcc",370,"37.csv","","null","resources/images/fishbone.png","null","",NA,NA,NA,NA,""
"image-keyboard-response",599,598438,"0.0-3.196-0.196","mrcjt11ueoyjhcc",370,"37.csv","","741.9000000953674","resources/trios/L1T1A2.jpg","39","restless",0.4,0.8,0.6,0.503181465843012,"true"
"image-keyboard-response",600,598846,"0.0-3.196-1.196","mrcjt11ueoyjhcc",370,"37.csv","","null","resources/maskTrios/BBA2.jpg","null","",NA,NA,NA,NA,""
"image-keyboard-response",601,600050,"0.0-3.196-2.196","mrcjt11ueoyjhcc",370,"37.csv","","null","resources/images/coin2.png","null","",NA,NA,NA,NA,""
"image-keyboard-response",602,601115,"0.0-3.197-0.197","mrcjt11ueoyjhcc",370,"37.csv","","1063.5","resources/trios/L4T2A3.jpg","37","restless",0.4,0.9,0.6,0.675785499758334,"false"
"image-keyboard-response",603,601526,"0.0-3.197-1.197","mrcjt11ueoyjhcc",370,"37.csv","","null","resources/maskTrios/L4BB.jpg","null","",NA,NA,NA,NA,""
"image-keyboard-response",604,602734,"0.0-3.197-2.197","mrcjt11ueoyjhcc",370,"37.csv","","null","resources/images/fishbone.png","null","",NA,NA,NA,NA,""
"image-keyboard-response",605,603278,"0.0-3.198-0.198","mrcjt11ueoyjhcc",370,"37.csv","","542.3000001907349","resources/trios/L4T2A3.jpg","38","restless",0.4,0.9,0.6,0.925854893092424,"false"
"image-keyboard-response",606,603684,"0.0-3.198-1.198","mrcjt11ueoyjhcc",370,"37.csv","","null","resources/maskTrios/BT2B.jpg","null","",NA,NA,NA,NA,""
"image-keyboard-response",607,604893,"0.0-3.198-2.198","mrcjt11ueoyjhcc",370,"37.csv","","null","resources/images/fishbone.png","null","",NA,NA,NA,NA,""
"image-keyboard-response",608,605461,"0.0-3.199-0.199","mrcjt11ueoyjhcc",370,"37.csv","","566.4000000953674","resources/trios/L4T2A3.jpg","39","restless",0.4,0.9,0.6,0.0222848025431044,"true"
"image-keyboard-response",609,605870,"0.0-3.199-1.199","mrcjt11ueoyjhcc",370,"37.csv","","null","resources/maskTrios/BBA3.jpg","null","",NA,NA,NA,NA,""
"image-keyboard-response",610,607078,"0.0-3.199-2.199","mrcjt11ueoyjhcc",370,"37.csv","","null","resources/images/coin2.png","null","",NA,NA,NA,NA,""
