"trial_type","trial_index","time_elapsed","internal_node_id","subject","participantCode","walkNumber","success","rt","stimulus","key_press","test_part","leftProb","midProb","rightProb","generatedNum","correct"
"pavlovia",0,1257,"0.0-0.0","b6b5q4mhn3tgd59",825,"114.csv","","","","","",NA,NA,NA,NA,""
"fullscreen",1,9343,"0.0-1.0","b6b5q4mhn3tgd59",825,"114.csv","true","","","","",NA,NA,NA,NA,""
"html-keyboard-response",2,20370,"0.0-2.0-0.0","b6b5q4mhn3tgd59",825,"114.csv","","11024.700000047684","<p><font size='6'>Arrrgh!</p></font><p>Can you be the best pirate? Try to find lots of gold! But beware, some islands have more gold than others, and over time, the island with the most gold may change. Can YOU figure it out? </p><font size='6'>GOOD LUCK, CAPTAIN!!!</font><p>Press any key to begin</p>","74","",NA,NA,NA,NA,""
"image-keyboard-response",3,23378,"0.0-2.0-1.0","b6b5q4mhn3tgd59",825,"114.csv","","null","resources/image_sets/111.png","null","",NA,NA,NA,NA,""
"image-keyboard-response",4,52959,"0.0-2.0-2.0","b6b5q4mhn3tgd59",825,"114.csv","","29579.200000047684","resources/image_sets/left_highlight.png","37","",NA,NA,NA,NA,""
"image-keyboard-response",5,58811,"0.0-2.0-3.0","b6b5q4mhn3tgd59",825,"114.csv","","5848.900000095367","resources/image_sets/mid_highlight.png","38","",NA,NA,NA,NA,""
"image-keyboard-response",6,61157,"0.0-2.0-4.0","b6b5q4mhn3tgd59",825,"114.csv","","2343.7999999523163","resources/image_sets/right_highlight.png","39","",NA,NA,NA,NA,""
"image-keyboard-response",7,66483,"0.0-2.0-5.0","b6b5q4mhn3tgd59",825,"114.csv","","5324.099999904633","resources/image_sets/111.png","13","",NA,NA,NA,NA,""
"image-keyboard-response",8,68866,"0.0-2.0-6.0","b6b5q4mhn3tgd59",825,"114.csv","","2381.199999809265","resources/images/coin2.png","13","",NA,NA,NA,NA,""
"image-keyboard-response",9,71339,"0.0-2.0-7.0","b6b5q4mhn3tgd59",825,"114.csv","","2470.600000143051","resources/images/fishbone.png","13","",NA,NA,NA,NA,""
"html-keyboard-response",10,76456,"0.0-2.0-8.0","b6b5q4mhn3tgd59",825,"114.csv","","5115.799999952316","<p>Your first journey will be a long one, but you will get a well deserved break at the end</p><p>After the break you will have four more journeys, but each will be much shorter than the first, and you will have breaks in between each</p><p>Press Enter to begin</p>","13","",NA,NA,NA,NA,""
"image-keyboard-response",11,79770,"0.0-3.0-0.0","b6b5q4mhn3tgd59",825,"114.csv","","3310.5","resources/trios/L4T4A2.jpg","39","restless",0.7,0.9,0.3,0.654693124566369,"false"
"image-keyboard-response",12,80183,"0.0-3.0-1.0","b6b5q4mhn3tgd59",825,"114.csv","","null","resources/maskTrios/BBA2.jpg","null","",NA,NA,NA,NA,""
"image-keyboard-response",13,81394,"0.0-3.0-2.0","b6b5q4mhn3tgd59",825,"114.csv","","null","resources/images/fishbone.png","null","",NA,NA,NA,NA,""
"image-keyboard-response",14,82531,"0.0-3.1-0.1","b6b5q4mhn3tgd59",825,"114.csv","","1134.2999999523163","resources/trios/L4T4A1.jpg","37","restless",0.7,0.9,0.3,0.378184217650097,"true"
"image-keyboard-response",15,82944,"0.0-3.1-1.1","b6b5q4mhn3tgd59",825,"114.csv","","null","resources/maskTrios/L4BB.jpg","null","",NA,NA,NA,NA,""
"image-keyboard-response",16,84149,"0.0-3.1-2.1","b6b5q4mhn3tgd59",825,"114.csv","","null","resources/images/coin2.png","null","",NA,NA,NA,NA,""
"image-keyboard-response",17,85147,"0.0-3.2-0.2","b6b5q4mhn3tgd59",825,"114.csv","","995.7000000476837","resources/trios/L4T2A1.jpg","38","restless",0.7,0.9,0.3,0.138088452421204,"true"
"image-keyboard-response",18,85562,"0.0-3.2-1.2","b6b5q4mhn3tgd59",825,"114.csv","","null","resources/maskTrios/BT2B.jpg","null","",NA,NA,NA,NA,""
"image-keyboard-response",19,86767,"0.0-3.2-2.2","b6b5q4mhn3tgd59",825,"114.csv","","null","resources/images/coin2.png","null","",NA,NA,NA,NA,""
"image-keyboard-response",20,87409,"0.0-3.3-0.3","b6b5q4mhn3tgd59",825,"114.csv","","639.4000000953674","resources/trios/L4T4A2.jpg","37","restless",0.8,0.8,0.3,0.740705408643461,"true"
"image-keyboard-response",21,87814,"0.0-3.3-1.3","b6b5q4mhn3tgd59",825,"114.csv","","null","resources/maskTrios/L4BB.jpg","null","",NA,NA,NA,NA,""
"image-keyboard-response",22,89026,"0.0-3.3-2.3","b6b5q4mhn3tgd59",825,"114.csv","","null","resources/images/coin2.png","null","",NA,NA,NA,NA,""
"image-keyboard-response",23,89435,"0.0-3.4-0.4","b6b5q4mhn3tgd59",825,"114.csv","","407.10000014305115","resources/trios/L1T4A2.jpg","38","restless",0.8,0.8,0.3,0.817237276075399,"false"
"image-keyboard-response",24,89846,"0.0-3.4-1.4","b6b5q4mhn3tgd59",825,"114.csv","","null","resources/maskTrios/BT4B.jpg","null","",NA,NA,NA,NA,""
"image-keyboard-response",25,91053,"0.0-3.4-2.4","b6b5q4mhn3tgd59",825,"114.csv","","null","resources/images/fishbone.png","null","",NA,NA,NA,NA,""
"image-keyboard-response",26,91472,"0.0-3.5-0.5","b6b5q4mhn3tgd59",825,"114.csv","","416.7999999523163","resources/trios/L1T4A1.jpg","37","restless",0.8,0.7,0.2,0.179205725479995,"true"
"image-keyboard-response",27,91880,"0.0-3.5-1.5","b6b5q4mhn3tgd59",825,"114.csv","","null","resources/maskTrios/L1BB.jpg","null","",NA,NA,NA,NA,""
"image-keyboard-response",28,93085,"0.0-3.5-2.5","b6b5q4mhn3tgd59",825,"114.csv","","null","resources/images/coin2.png","null","",NA,NA,NA,NA,""
"image-keyboard-response",29,93452,"0.0-3.6-0.6","b6b5q4mhn3tgd59",825,"114.csv","","364.89999985694885","resources/trios/L4T4A2.jpg","37","restless",0.8,0.7,0.2,0.99298299502919,"false"
"image-keyboard-response",30,93862,"0.0-3.6-1.6","b6b5q4mhn3tgd59",825,"114.csv","","null","resources/maskTrios/L4BB.jpg","null","",NA,NA,NA,NA,""
"image-keyboard-response",31,95074,"0.0-3.6-2.6","b6b5q4mhn3tgd59",825,"114.csv","","null","resources/images/fishbone.png","null","",NA,NA,NA,NA,""
"image-keyboard-response",32,95359,"0.0-3.7-0.7","b6b5q4mhn3tgd59",825,"114.csv","","283.30000019073486","resources/trios/L4T2A2.jpg","39","restless",0.8,0.7,0.2,0.83258433695285,"false"
"image-keyboard-response",33,95770,"0.0-3.7-1.7","b6b5q4mhn3tgd59",825,"114.csv","","null","resources/maskTrios/BBA2.jpg","null","",NA,NA,NA,NA,""
"image-keyboard-response",34,96978,"0.0-3.7-2.7","b6b5q4mhn3tgd59",825,"114.csv","","null","resources/images/fishbone.png","null","",NA,NA,NA,NA,""
"image-keyboard-response",35,97232,"0.0-3.8-0.8","b6b5q4mhn3tgd59",825,"114.csv","","251.60000014305115","resources/trios/L4T2A2.jpg","38","restless",0.8,0.7,0.2,0.274430517416274,"true"
"image-keyboard-response",36,97639,"0.0-3.8-1.8","b6b5q4mhn3tgd59",825,"114.csv","","null","resources/maskTrios/BT2B.jpg","null","",NA,NA,NA,NA,""
"image-keyboard-response",37,98846,"0.0-3.8-2.8","b6b5q4mhn3tgd59",825,"114.csv","","null","resources/images/coin2.png","null","",NA,NA,NA,NA,""
"image-keyboard-response",38,99168,"0.0-3.9-0.9","b6b5q4mhn3tgd59",825,"114.csv","","320.7999999523163","resources/trios/L1T2A2.jpg","37","restless",0.8,0.7,0.2,0.876037558223256,"false"
"image-keyboard-response",39,99578,"0.0-3.9-1.9","b6b5q4mhn3tgd59",825,"114.csv","","null","resources/maskTrios/L1BB.jpg","null","",NA,NA,NA,NA,""
"image-keyboard-response",40,100785,"0.0-3.9-2.9","b6b5q4mhn3tgd59",825,"114.csv","","null","resources/images/fishbone.png","null","",NA,NA,NA,NA,""
"image-keyboard-response",41,101054,"0.0-3.10-0.10","b6b5q4mhn3tgd59",825,"114.csv","","267.5","resources/trios/L1T2A2.jpg","38","restless",0.9,0.7,0.2,0.832704088506167,"false"
"image-keyboard-response",42,101461,"0.0-3.10-1.10","b6b5q4mhn3tgd59",825,"114.csv","","null","resources/maskTrios/BT2B.jpg","null","",NA,NA,NA,NA,""
"image-keyboard-response",43,102673,"0.0-3.10-2.10","b6b5q4mhn3tgd59",825,"114.csv","","null","resources/images/fishbone.png","null","",NA,NA,NA,NA,""
"image-keyboard-response",44,102919,"0.0-3.11-0.11","b6b5q4mhn3tgd59",825,"114.csv","","243.79999995231628","resources/trios/L4T4A1.jpg","39","restless",0.9,0.7,0.2,0.867615341144841,"false"
"image-keyboard-response",45,103329,"0.0-3.11-1.11","b6b5q4mhn3tgd59",825,"114.csv","","null","resources/maskTrios/BBA1.jpg","null","",NA,NA,NA,NA,""
"image-keyboard-response",46,104533,"0.0-3.11-2.11","b6b5q4mhn3tgd59",825,"114.csv","","null","resources/images/fishbone.png","null","",NA,NA,NA,NA,""
"image-keyboard-response",47,104844,"0.0-3.12-0.12","b6b5q4mhn3tgd59",825,"114.csv","","309.7999999523163","resources/trios/L4T2A2.jpg","37","restless",0.9,0.7,0.2,0.471386103617975,"true"
"image-keyboard-response",48,105257,"0.0-3.12-1.12","b6b5q4mhn3tgd59",825,"114.csv","","null","resources/maskTrios/L4BB.jpg","null","",NA,NA,NA,NA,""
"image-keyboard-response",49,106465,"0.0-3.12-2.12","b6b5q4mhn3tgd59",825,"114.csv","","null","resources/images/coin2.png","null","",NA,NA,NA,NA,""
"image-keyboard-response",50,106647,"0.0-3.13-0.13","b6b5q4mhn3tgd59",825,"114.csv","","179.79999995231628","resources/trios/L4T4A2.jpg","38","restless",0.9,0.7,0.2,0.51580192559986,"true"
"image-keyboard-response",51,107057,"0.0-3.13-1.13","b6b5q4mhn3tgd59",825,"114.csv","","null","resources/maskTrios/BT4B.jpg","null","",NA,NA,NA,NA,""
"image-keyboard-response",52,108265,"0.0-3.13-2.13","b6b5q4mhn3tgd59",825,"114.csv","","null","resources/images/coin2.png","null","",NA,NA,NA,NA,""
"image-keyboard-response",53,108396,"0.0-3.14-0.14","b6b5q4mhn3tgd59",825,"114.csv","","128.59999990463257","resources/trios/L4T4A1.jpg","38","restless",0.9,0.7,0.2,0.106891685612745,"true"
"image-keyboard-response",54,108808,"0.0-3.14-1.14","b6b5q4mhn3tgd59",825,"114.csv","","null","resources/maskTrios/BT4B.jpg","null","",NA,NA,NA,NA,""
"image-keyboard-response",55,110016,"0.0-3.14-2.14","b6b5q4mhn3tgd59",825,"114.csv","","null","resources/images/coin2.png","null","",NA,NA,NA,NA,""
"image-keyboard-response",56,110168,"0.0-3.15-0.15","b6b5q4mhn3tgd59",825,"114.csv","","150.5","resources/trios/L1T4A2.jpg","37","restless",0.9,0.7,0.3,0.144279179300612,"true"
"image-keyboard-response",57,110576,"0.0-3.15-1.15","b6b5q4mhn3tgd59",825,"114.csv","","null","resources/maskTrios/L1BB.jpg","null","",NA,NA,NA,NA,""
"image-keyboard-response",58,111783,"0.0-3.15-2.15","b6b5q4mhn3tgd59",825,"114.csv","","null","resources/images/coin2.png","null","",NA,NA,NA,NA,""
"image-keyboard-response",59,111914,"0.0-3.16-0.16","b6b5q4mhn3tgd59",825,"114.csv","","129","resources/trios/L4T2A2.jpg","37","restless",0.9,0.7,0.3,0.503847376148979,"true"
"image-keyboard-response",60,112321,"0.0-3.16-1.16","b6b5q4mhn3tgd59",825,"114.csv","","null","resources/maskTrios/L4BB.jpg","null","",NA,NA,NA,NA,""
"image-keyboard-response",61,113526,"0.0-3.16-2.16","b6b5q4mhn3tgd59",825,"114.csv","","null","resources/images/coin2.png","null","",NA,NA,NA,NA,""
"image-keyboard-response",62,113655,"0.0-3.17-0.17","b6b5q4mhn3tgd59",825,"114.csv","","126.80000019073486","resources/trios/L1T2A2.jpg","38","restless",0.9,0.6,0.3,0.33905730416142,"true"
"image-keyboard-response",63,114061,"0.0-3.17-1.17","b6b5q4mhn3tgd59",825,"114.csv","","null","resources/maskTrios/BT2B.jpg","null","",NA,NA,NA,NA,""
"image-keyboard-response",64,115269,"0.0-3.17-2.17","b6b5q4mhn3tgd59",825,"114.csv","","null","resources/images/coin2.png","null","",NA,NA,NA,NA,""
"image-keyboard-response",65,115499,"0.0-3.18-0.18","b6b5q4mhn3tgd59",825,"114.csv","","227.20000004768372","resources/trios/L1T2A1.jpg","37","restless",0.9,0.6,0.3,0.912024917500295,"false"
"image-keyboard-response",66,115906,"0.0-3.18-1.18","b6b5q4mhn3tgd59",825,"114.csv","","null","resources/maskTrios/L1BB.jpg","null","",NA,NA,NA,NA,""
"image-keyboard-response",67,117113,"0.0-3.18-2.18","b6b5q4mhn3tgd59",825,"114.csv","","null","resources/images/fishbone.png","null","",NA,NA,NA,NA,""
"image-keyboard-response",68,117204,"0.0-3.19-0.19","b6b5q4mhn3tgd59",825,"114.csv","","89.10000014305115","resources/trios/L1T2A1.jpg","39","restless",0.9,0.6,0.3,0.0224070360562107,"true"
"image-keyboard-response",69,117617,"0.0-3.19-1.19","b6b5q4mhn3tgd59",825,"114.csv","","null","resources/maskTrios/BBA1.jpg","null","",NA,NA,NA,NA,""
"image-keyboard-response",70,118825,"0.0-3.19-2.19","b6b5q4mhn3tgd59",825,"114.csv","","null","resources/images/coin2.png","null","",NA,NA,NA,NA,""
"image-keyboard-response",71,119076,"0.0-3.20-0.20","b6b5q4mhn3tgd59",825,"114.csv","","249.09999990463257","resources/trios/L1T4A1.jpg","38","restless",0.9,0.6,0.3,0.847054179122068,"false"
"image-keyboard-response",72,119489,"0.0-3.20-1.20","b6b5q4mhn3tgd59",825,"114.csv","","null","resources/maskTrios/BT4B.jpg","null","",NA,NA,NA,NA,""
"image-keyboard-response",73,120697,"0.0-3.20-2.20","b6b5q4mhn3tgd59",825,"114.csv","","null","resources/images/fishbone.png","null","",NA,NA,NA,NA,""
"image-keyboard-response",74,120743,"0.0-3.21-0.21","b6b5q4mhn3tgd59",825,"114.csv","","43.700000047683716","resources/trios/L1T2A2.jpg","39","restless",0.9,0.6,0.3,0.168815602297723,"true"
"image-keyboard-response",75,121153,"0.0-3.21-1.21","b6b5q4mhn3tgd59",825,"114.csv","","null","resources/maskTrios/BBA2.jpg","null","",NA,NA,NA,NA,""
"image-keyboard-response",76,122358,"0.0-3.21-2.21","b6b5q4mhn3tgd59",825,"114.csv","","null","resources/images/coin2.png","null","",NA,NA,NA,NA,""
"image-keyboard-response",77,122574,"0.0-3.22-0.22","b6b5q4mhn3tgd59",825,"114.csv","","214.10000014305115","resources/trios/L1T2A2.jpg","37","restless",0.9,0.5,0.2,0.434127013831791,"true"
"image-keyboard-response",78,122985,"0.0-3.22-1.22","b6b5q4mhn3tgd59",825,"114.csv","","null","resources/maskTrios/L1BB.jpg","null","",NA,NA,NA,NA,""
"image-keyboard-response",79,124189,"0.0-3.22-2.22","b6b5q4mhn3tgd59",825,"114.csv","","null","resources/images/coin2.png","null","",NA,NA,NA,NA,""
"image-keyboard-response",80,124377,"0.0-3.23-0.23","b6b5q4mhn3tgd59",825,"114.csv","","186.59999990463257","resources/trios/L1T4A1.jpg","37","restless",0.9,0.5,0.1,0.259842078970184,"true"
"image-keyboard-response",81,124785,"0.0-3.23-1.23","b6b5q4mhn3tgd59",825,"114.csv","","null","resources/maskTrios/L1BB.jpg","null","",NA,NA,NA,NA,""
"image-keyboard-response",82,125993,"0.0-3.23-2.23","b6b5q4mhn3tgd59",825,"114.csv","","null","resources/images/coin2.png","null","",NA,NA,NA,NA,""
"image-keyboard-response",83,126253,"0.0-3.24-0.24","b6b5q4mhn3tgd59",825,"114.csv","","258.09999990463257","resources/trios/L1T4A1.jpg","37","restless",0.9,0.5,0.1,0.075073032865367,"true"
"image-keyboard-response",84,126662,"0.0-3.24-1.24","b6b5q4mhn3tgd59",825,"114.csv","","null","resources/maskTrios/L1BB.jpg","null","",NA,NA,NA,NA,""
"image-keyboard-response",85,127871,"0.0-3.24-2.24","b6b5q4mhn3tgd59",825,"114.csv","","null","resources/images/coin2.png","null","",NA,NA,NA,NA,""
"image-keyboard-response",86,128278,"0.0-3.25-0.25","b6b5q4mhn3tgd59",825,"114.csv","","404.7999999523163","resources/trios/L4T2A2.jpg","37","restless",0.9,0.5,0.1,0.621421466534875,"true"
"image-keyboard-response",87,128689,"0.0-3.25-1.25","b6b5q4mhn3tgd59",825,"114.csv","","null","resources/maskTrios/L4BB.jpg","null","",NA,NA,NA,NA,""
"image-keyboard-response",88,129897,"0.0-3.25-2.25","b6b5q4mhn3tgd59",825,"114.csv","","null","resources/images/coin2.png","null","",NA,NA,NA,NA,""
"image-keyboard-response",89,130064,"0.0-3.26-0.26","b6b5q4mhn3tgd59",825,"114.csv","","164.70000004768372","resources/trios/L4T4A1.jpg","37","restless",0.9,0.5,0.1,0.194042964254079,"true"
"image-keyboard-response",90,130473,"0.0-3.26-1.26","b6b5q4mhn3tgd59",825,"114.csv","","null","resources/maskTrios/L4BB.jpg","null","",NA,NA,NA,NA,""
"image-keyboard-response",91,131677,"0.0-3.26-2.26","b6b5q4mhn3tgd59",825,"114.csv","","null","resources/images/coin2.png","null","",NA,NA,NA,NA,""
"image-keyboard-response",92,131929,"0.0-3.27-0.27","b6b5q4mhn3tgd59",825,"114.csv","","249.79999995231628","resources/trios/L1T2A1.jpg","37","restless",0.9,0.5,0.1,0.107428913989186,"true"
"image-keyboard-response",93,132335,"0.0-3.27-1.27","b6b5q4mhn3tgd59",825,"114.csv","","null","resources/maskTrios/L1BB.jpg","null","",NA,NA,NA,NA,""
"image-keyboard-response",94,133545,"0.0-3.27-2.27","b6b5q4mhn3tgd59",825,"114.csv","","null","resources/images/coin2.png","null","",NA,NA,NA,NA,""
"image-keyboard-response",95,133803,"0.0-3.28-0.28","b6b5q4mhn3tgd59",825,"114.csv","","255.20000004768372","resources/trios/L4T2A2.jpg","37","restless",0.9,0.5,0.1,0.798967522454072,"true"
"image-keyboard-response",96,134217,"0.0-3.28-1.28","b6b5q4mhn3tgd59",825,"114.csv","","null","resources/maskTrios/L4BB.jpg","null","",NA,NA,NA,NA,""
"image-keyboard-response",97,135425,"0.0-3.28-2.28","b6b5q4mhn3tgd59",825,"114.csv","","null","resources/images/coin2.png","null","",NA,NA,NA,NA,""
"image-keyboard-response",98,135748,"0.0-3.29-0.29","b6b5q4mhn3tgd59",825,"114.csv","","320.2999999523163","resources/trios/L1T4A2.jpg","37","restless",0.9,0.5,0.1,0.0507045520288893,"true"
"image-keyboard-response",99,136161,"0.0-3.29-1.29","b6b5q4mhn3tgd59",825,"114.csv","","null","resources/maskTrios/L1BB.jpg","null","",NA,NA,NA,NA,""
"image-keyboard-response",100,137369,"0.0-3.29-2.29","b6b5q4mhn3tgd59",825,"114.csv","","null","resources/images/coin2.png","null","",NA,NA,NA,NA,""
"image-keyboard-response",101,137643,"0.0-3.30-0.30","b6b5q4mhn3tgd59",825,"114.csv","","271.40000009536743","resources/trios/L1T4A2.jpg","37","restless",0.9,0.5,0.1,0.0828025715918086,"true"
"image-keyboard-response",102,138057,"0.0-3.30-1.30","b6b5q4mhn3tgd59",825,"114.csv","","null","resources/maskTrios/L1BB.jpg","null","",NA,NA,NA,NA,""
"image-keyboard-response",103,139265,"0.0-3.30-2.30","b6b5q4mhn3tgd59",825,"114.csv","","null","resources/images/coin2.png","null","",NA,NA,NA,NA,""
"image-keyboard-response",104,139497,"0.0-3.31-0.31","b6b5q4mhn3tgd59",825,"114.csv","","229.20000004768372","resources/trios/L4T2A2.jpg","37","restless",0.9,0.5,0.1,0.705611845154497,"true"
"image-keyboard-response",105,139905,"0.0-3.31-1.31","b6b5q4mhn3tgd59",825,"114.csv","","null","resources/maskTrios/L4BB.jpg","null","",NA,NA,NA,NA,""
"image-keyboard-response",106,141113,"0.0-3.31-2.31","b6b5q4mhn3tgd59",825,"114.csv","","null","resources/images/coin2.png","null","",NA,NA,NA,NA,""
"image-keyboard-response",107,141142,"0.0-3.32-0.32","b6b5q4mhn3tgd59",825,"114.csv","","26.600000143051147","resources/trios/L1T2A2.jpg","37","restless",0.9,0.5,0.1,0.40138564501915,"true"
"image-keyboard-response",108,141553,"0.0-3.32-1.32","b6b5q4mhn3tgd59",825,"114.csv","","null","resources/maskTrios/L1BB.jpg","null","",NA,NA,NA,NA,""
"image-keyboard-response",109,142761,"0.0-3.32-2.32","b6b5q4mhn3tgd59",825,"114.csv","","null","resources/images/coin2.png","null","",NA,NA,NA,NA,""
"image-keyboard-response",110,143357,"0.0-3.33-0.33","b6b5q4mhn3tgd59",825,"114.csv","","594.6999998092651","resources/trios/L1T4A2.jpg","37","restless",0.9,0.5,0.1,0.860107412860005,"true"
"image-keyboard-response",111,143769,"0.0-3.33-1.33","b6b5q4mhn3tgd59",825,"114.csv","","null","resources/maskTrios/L1BB.jpg","null","",NA,NA,NA,NA,""
"image-keyboard-response",112,144976,"0.0-3.33-2.33","b6b5q4mhn3tgd59",825,"114.csv","","null","resources/images/coin2.png","null","",NA,NA,NA,NA,""
"image-keyboard-response",113,145292,"0.0-3.34-0.34","b6b5q4mhn3tgd59",825,"114.csv","","314.10000014305115","resources/trios/L4T2A1.jpg","37","restless",0.9,0.5,0.1,0.093086529434881,"true"
"image-keyboard-response",114,145701,"0.0-3.34-1.34","b6b5q4mhn3tgd59",825,"114.csv","","null","resources/maskTrios/L4BB.jpg","null","",NA,NA,NA,NA,""
"image-keyboard-response",115,146913,"0.0-3.34-2.34","b6b5q4mhn3tgd59",825,"114.csv","","null","resources/images/coin2.png","null","",NA,NA,NA,NA,""
"image-keyboard-response",116,147243,"0.0-3.35-0.35","b6b5q4mhn3tgd59",825,"114.csv","","328.2000000476837","resources/trios/L1T4A2.jpg","37","restless",0.9,0.5,0.1,0.1298929957297,"true"
"image-keyboard-response",117,147657,"0.0-3.35-1.35","b6b5q4mhn3tgd59",825,"114.csv","","null","resources/maskTrios/L1BB.jpg","null","",NA,NA,NA,NA,""
"image-keyboard-response",118,148861,"0.0-3.35-2.35","b6b5q4mhn3tgd59",825,"114.csv","","null","resources/images/coin2.png","null","",NA,NA,NA,NA,""
"image-keyboard-response",119,149188,"0.0-3.36-0.36","b6b5q4mhn3tgd59",825,"114.csv","","325.09999990463257","resources/trios/L1T4A2.jpg","37","restless",0.9,0.5,0.2,0.611948606255948,"true"
"image-keyboard-response",120,149597,"0.0-3.36-1.36","b6b5q4mhn3tgd59",825,"114.csv","","null","resources/maskTrios/L1BB.jpg","null","",NA,NA,NA,NA,""
"image-keyboard-response",121,150809,"0.0-3.36-2.36","b6b5q4mhn3tgd59",825,"114.csv","","null","resources/images/coin2.png","null","",NA,NA,NA,NA,""
"image-keyboard-response",122,150979,"0.0-3.37-0.37","b6b5q4mhn3tgd59",825,"114.csv","","167.40000009536743","resources/trios/L4T4A1.jpg","37","restless",0.9,0.5,0.2,0.218615574098632,"true"
"image-keyboard-response",123,151393,"0.0-3.37-1.37","b6b5q4mhn3tgd59",825,"114.csv","","null","resources/maskTrios/L4BB.jpg","null","",NA,NA,NA,NA,""
"image-keyboard-response",124,152599,"0.0-3.37-2.37","b6b5q4mhn3tgd59",825,"114.csv","","null","resources/images/coin2.png","null","",NA,NA,NA,NA,""
"image-keyboard-response",125,152862,"0.0-3.38-0.38","b6b5q4mhn3tgd59",825,"114.csv","","261.5","resources/trios/L4T4A2.jpg","37","restless",0.9,0.5,0.2,0.0333092125169945,"true"
"image-keyboard-response",126,153272,"0.0-3.38-1.38","b6b5q4mhn3tgd59",825,"114.csv","","null","resources/maskTrios/L4BB.jpg","null","",NA,NA,NA,NA,""
"image-keyboard-response",127,154481,"0.0-3.38-2.38","b6b5q4mhn3tgd59",825,"114.csv","","null","resources/images/coin2.png","null","",NA,NA,NA,NA,""
"image-keyboard-response",128,154627,"0.0-3.39-0.39","b6b5q4mhn3tgd59",825,"114.csv","","144.09999990463257","resources/trios/L4T2A1.jpg","37","restless",0.9,0.5,0.2,0.210799291375902,"true"
"image-keyboard-response",129,155039,"0.0-3.39-1.39","b6b5q4mhn3tgd59",825,"114.csv","","null","resources/maskTrios/L4BB.jpg","null","",NA,NA,NA,NA,""
"image-keyboard-response",130,156249,"0.0-3.39-2.39","b6b5q4mhn3tgd59",825,"114.csv","","null","resources/images/coin2.png","null","",NA,NA,NA,NA,""
"image-keyboard-response",131,156546,"0.0-3.40-0.40","b6b5q4mhn3tgd59",825,"114.csv","","295.2999999523163","resources/trios/L4T4A1.jpg","37","restless",0.9,0.5,0.3,0.536608138774385,"true"
"image-keyboard-response",132,156961,"0.0-3.40-1.40","b6b5q4mhn3tgd59",825,"114.csv","","null","resources/maskTrios/L4BB.jpg","null","",NA,NA,NA,NA,""
"image-keyboard-response",133,158168,"0.0-3.40-2.40","b6b5q4mhn3tgd59",825,"114.csv","","null","resources/images/coin2.png","null","",NA,NA,NA,NA,""
"image-keyboard-response",134,158411,"0.0-3.41-0.41","b6b5q4mhn3tgd59",825,"114.csv","","240.79999995231628","resources/trios/L1T4A2.jpg","37","restless",0.8,0.4,0.3,0.857935559913073,"false"
"image-keyboard-response",135,158822,"0.0-3.41-1.41","b6b5q4mhn3tgd59",825,"114.csv","","null","resources/maskTrios/L1BB.jpg","null","",NA,NA,NA,NA,""
"image-keyboard-response",136,160031,"0.0-3.41-2.41","b6b5q4mhn3tgd59",825,"114.csv","","null","resources/images/fishbone.png","null","",NA,NA,NA,NA,""
"image-keyboard-response",137,160143,"0.0-3.42-0.42","b6b5q4mhn3tgd59",825,"114.csv","","110.90000009536743","resources/trios/L1T4A1.jpg","38","restless",0.8,0.4,0.4,0.0237173598310714,"true"
"image-keyboard-response",138,160553,"0.0-3.42-1.42","b6b5q4mhn3tgd59",825,"114.csv","","null","resources/maskTrios/BT4B.jpg","null","",NA,NA,NA,NA,""
"image-keyboard-response",139,161761,"0.0-3.42-2.42","b6b5q4mhn3tgd59",825,"114.csv","","null","resources/images/coin2.png","null","",NA,NA,NA,NA,""
"image-keyboard-response",140,162064,"0.0-3.43-0.43","b6b5q4mhn3tgd59",825,"114.csv","","301","resources/trios/L1T4A1.jpg","38","restless",0.8,0.4,0.4,0.381642819892563,"true"
"image-keyboard-response",141,162473,"0.0-3.43-1.43","b6b5q4mhn3tgd59",825,"114.csv","","null","resources/maskTrios/BT4B.jpg","null","",NA,NA,NA,NA,""
"image-keyboard-response",142,163678,"0.0-3.43-2.43","b6b5q4mhn3tgd59",825,"114.csv","","null","resources/images/coin2.png","null","",NA,NA,NA,NA,""
"image-keyboard-response",143,163950,"0.0-3.44-0.44","b6b5q4mhn3tgd59",825,"114.csv","","269.7999999523163","resources/trios/L4T4A2.jpg","38","restless",0.8,0.4,0.4,0.087224202220483,"true"
"image-keyboard-response",144,164357,"0.0-3.44-1.44","b6b5q4mhn3tgd59",825,"114.csv","","null","resources/maskTrios/BT4B.jpg","null","",NA,NA,NA,NA,""
"image-keyboard-response",145,165569,"0.0-3.44-2.44","b6b5q4mhn3tgd59",825,"114.csv","","null","resources/images/coin2.png","null","",NA,NA,NA,NA,""
"image-keyboard-response",146,165854,"0.0-3.45-0.45","b6b5q4mhn3tgd59",825,"114.csv","","282.80000019073486","resources/trios/L1T2A2.jpg","38","restless",0.8,0.4,0.4,0.252504271966854,"true"
"image-keyboard-response",147,166265,"0.0-3.45-1.45","b6b5q4mhn3tgd59",825,"114.csv","","null","resources/maskTrios/BT2B.jpg","null","",NA,NA,NA,NA,""
"image-keyboard-response",148,167473,"0.0-3.45-2.45","b6b5q4mhn3tgd59",825,"114.csv","","null","resources/images/coin2.png","null","",NA,NA,NA,NA,""
"image-keyboard-response",149,167789,"0.0-3.46-0.46","b6b5q4mhn3tgd59",825,"114.csv","","313.5","resources/trios/L1T4A1.jpg","38","restless",0.8,0.4,0.4,0.973412855353267,"false"
"image-keyboard-response",150,168201,"0.0-3.46-1.46","b6b5q4mhn3tgd59",825,"114.csv","","null","resources/maskTrios/BT4B.jpg","null","",NA,NA,NA,NA,""
"image-keyboard-response",151,169405,"0.0-3.46-2.46","b6b5q4mhn3tgd59",825,"114.csv","","null","resources/images/fishbone.png","null","",NA,NA,NA,NA,""
"image-keyboard-response",152,169615,"0.0-3.47-0.47","b6b5q4mhn3tgd59",825,"114.csv","","207.40000009536743","resources/trios/L1T4A2.jpg","37","restless",0.8,0.4,0.4,0.0501328408483694,"true"
"image-keyboard-response",153,170023,"0.0-3.47-1.47","b6b5q4mhn3tgd59",825,"114.csv","","null","resources/maskTrios/L1BB.jpg","null","",NA,NA,NA,NA,""
"image-keyboard-response",154,171233,"0.0-3.47-2.47","b6b5q4mhn3tgd59",825,"114.csv","","null","resources/images/coin2.png","null","",NA,NA,NA,NA,""
"image-keyboard-response",155,171344,"0.0-3.48-0.48","b6b5q4mhn3tgd59",825,"114.csv","","108.60000014305115","resources/trios/L4T4A1.jpg","37","restless",0.8,0.4,0.4,0.264296739499824,"true"
"image-keyboard-response",156,171753,"0.0-3.48-1.48","b6b5q4mhn3tgd59",825,"114.csv","","null","resources/maskTrios/L4BB.jpg","null","",NA,NA,NA,NA,""
"image-keyboard-response",157,172961,"0.0-3.48-2.48","b6b5q4mhn3tgd59",825,"114.csv","","null","resources/images/coin2.png","null","",NA,NA,NA,NA,""
"image-keyboard-response",158,173221,"0.0-3.49-0.49","b6b5q4mhn3tgd59",825,"114.csv","","257.89999985694885","resources/trios/L1T2A2.jpg","37","restless",0.8,0.4,0.4,0.396065254258946,"true"
"image-keyboard-response",159,173633,"0.0-3.49-1.49","b6b5q4mhn3tgd59",825,"114.csv","","null","resources/maskTrios/L1BB.jpg","null","",NA,NA,NA,NA,""
"image-keyboard-response",160,174837,"0.0-3.49-2.49","b6b5q4mhn3tgd59",825,"114.csv","","null","resources/images/coin2.png","null","",NA,NA,NA,NA,""
"image-keyboard-response",161,175058,"0.0-3.50-0.50","b6b5q4mhn3tgd59",825,"114.csv","","218.79999995231628","resources/trios/L4T2A1.jpg","37","restless",0.7,0.4,0.4,0.386635272122899,"true"
"image-keyboard-response",162,175461,"0.0-3.50-1.50","b6b5q4mhn3tgd59",825,"114.csv","","null","resources/maskTrios/L4BB.jpg","null","",NA,NA,NA,NA,""
"image-keyboard-response",163,176666,"0.0-3.50-2.50","b6b5q4mhn3tgd59",825,"114.csv","","null","resources/images/coin2.png","null","",NA,NA,NA,NA,""
"image-keyboard-response",164,176668,"0.0-3.51-0.51","b6b5q4mhn3tgd59",825,"114.csv","","0.09999990463256836","resources/trios/L1T4A1.jpg","37","restless",0.7,0.4,0.4,0.660076109599209,"true"
"image-keyboard-response",165,177081,"0.0-3.51-1.51","b6b5q4mhn3tgd59",825,"114.csv","","null","resources/maskTrios/L1BB.jpg","null","",NA,NA,NA,NA,""
"image-keyboard-response",166,178289,"0.0-3.51-2.51","b6b5q4mhn3tgd59",825,"114.csv","","null","resources/images/coin2.png","null","",NA,NA,NA,NA,""
"image-keyboard-response",167,178909,"0.0-3.52-0.52","b6b5q4mhn3tgd59",825,"114.csv","","617.4000000953674","resources/trios/L4T2A1.jpg","37","restless",0.7,0.4,0.4,0.806473001407729,"false"
"image-keyboard-response",168,179321,"0.0-3.52-1.52","b6b5q4mhn3tgd59",825,"114.csv","","null","resources/maskTrios/L4BB.jpg","null","",NA,NA,NA,NA,""
"image-keyboard-response",169,180526,"0.0-3.52-2.52","b6b5q4mhn3tgd59",825,"114.csv","","null","resources/images/fishbone.png","null","",NA,NA,NA,NA,""
"image-keyboard-response",170,180619,"0.0-3.53-0.53","b6b5q4mhn3tgd59",825,"114.csv","","91.90000009536743","resources/trios/L4T4A1.jpg","39","restless",0.7,0.4,0.5,0.89619764901991,"false"
"image-keyboard-response",171,181033,"0.0-3.53-1.53","b6b5q4mhn3tgd59",825,"114.csv","","null","resources/maskTrios/BBA1.jpg","null","",NA,NA,NA,NA,""
"image-keyboard-response",172,182238,"0.0-3.53-2.53","b6b5q4mhn3tgd59",825,"114.csv","","null","resources/images/fishbone.png","null","",NA,NA,NA,NA,""
"image-keyboard-response",173,182457,"0.0-3.54-0.54","b6b5q4mhn3tgd59",825,"114.csv","","216.90000009536743","resources/trios/L4T2A2.jpg","38","restless",0.7,0.4,0.5,0.33027854327291,"true"
"image-keyboard-response",174,182865,"0.0-3.54-1.54","b6b5q4mhn3tgd59",825,"114.csv","","null","resources/maskTrios/BT2B.jpg","null","",NA,NA,NA,NA,""
"image-keyboard-response",175,184070,"0.0-3.54-2.54","b6b5q4mhn3tgd59",825,"114.csv","","null","resources/images/coin2.png","null","",NA,NA,NA,NA,""
"image-keyboard-response",176,184378,"0.0-3.55-0.55","b6b5q4mhn3tgd59",825,"114.csv","","306.10000014305115","resources/trios/L4T4A1.jpg","38","restless",0.7,0.4,0.5,0.535959031329605,"false"
"image-keyboard-response",177,184782,"0.0-3.55-1.55","b6b5q4mhn3tgd59",825,"114.csv","","null","resources/maskTrios/BT4B.jpg","null","",NA,NA,NA,NA,""
"image-keyboard-response",178,185993,"0.0-3.55-2.55","b6b5q4mhn3tgd59",825,"114.csv","","null","resources/images/fishbone.png","null","",NA,NA,NA,NA,""
"image-keyboard-response",179,186382,"0.0-3.56-0.56","b6b5q4mhn3tgd59",825,"114.csv","","387","resources/trios/L4T4A1.jpg","37","restless",0.7,0.4,0.5,0.161766451732714,"true"
"image-keyboard-response",180,186793,"0.0-3.56-1.56","b6b5q4mhn3tgd59",825,"114.csv","","null","resources/maskTrios/L4BB.jpg","null","",NA,NA,NA,NA,""
"image-keyboard-response",181,187999,"0.0-3.56-2.56","b6b5q4mhn3tgd59",825,"114.csv","","null","resources/images/coin2.png","null","",NA,NA,NA,NA,""
"image-keyboard-response",182,188305,"0.0-3.57-0.57","b6b5q4mhn3tgd59",825,"114.csv","","303.10000014305115","resources/trios/L1T4A2.jpg","37","restless",0.7,0.4,0.5,0.752030335720455,"false"
"image-keyboard-response",183,188713,"0.0-3.57-1.57","b6b5q4mhn3tgd59",825,"114.csv","","null","resources/maskTrios/L1BB.jpg","null","",NA,NA,NA,NA,""
"image-keyboard-response",184,189917,"0.0-3.57-2.57","b6b5q4mhn3tgd59",825,"114.csv","","null","resources/images/fishbone.png","null","",NA,NA,NA,NA,""
"image-keyboard-response",185,190162,"0.0-3.58-0.58","b6b5q4mhn3tgd59",825,"114.csv","","242.90000009536743","resources/trios/L4T4A2.jpg","38","restless",0.7,0.4,0.5,0.965760455201214,"false"
"image-keyboard-response",186,190577,"0.0-3.58-1.58","b6b5q4mhn3tgd59",825,"114.csv","","null","resources/maskTrios/BT4B.jpg","null","",NA,NA,NA,NA,""
"image-keyboard-response",187,191785,"0.0-3.58-2.58","b6b5q4mhn3tgd59",825,"114.csv","","null","resources/images/fishbone.png","null","",NA,NA,NA,NA,""
"image-keyboard-response",188,192096,"0.0-3.59-0.59","b6b5q4mhn3tgd59",825,"114.csv","","309.09999990463257","resources/trios/L4T4A1.jpg","37","restless",0.7,0.4,0.6,0.574119399216563,"true"
"image-keyboard-response",189,192505,"0.0-3.59-1.59","b6b5q4mhn3tgd59",825,"114.csv","","null","resources/maskTrios/L4BB.jpg","null","",NA,NA,NA,NA,""
"image-keyboard-response",190,193711,"0.0-3.59-2.59","b6b5q4mhn3tgd59",825,"114.csv","","null","resources/images/coin2.png","null","",NA,NA,NA,NA,""
"image-keyboard-response",191,193808,"0.0-3.60-0.60","b6b5q4mhn3tgd59",825,"114.csv","","95.20000004768372","resources/trios/L1T4A1.jpg","37","restless",0.7,0.4,0.6,0.332404701660809,"true"
"image-keyboard-response",192,194217,"0.0-3.60-1.60","b6b5q4mhn3tgd59",825,"114.csv","","null","resources/maskTrios/L1BB.jpg","null","",NA,NA,NA,NA,""
"image-keyboard-response",193,195421,"0.0-3.60-2.60","b6b5q4mhn3tgd59",825,"114.csv","","null","resources/images/coin2.png","null","",NA,NA,NA,NA,""
"image-keyboard-response",194,195604,"0.0-3.61-0.61","b6b5q4mhn3tgd59",825,"114.csv","","180.59999990463257","resources/trios/L1T2A2.jpg","37","restless",0.7,0.4,0.6,0.303586376963565,"true"
"image-keyboard-response",195,196013,"0.0-3.61-1.61","b6b5q4mhn3tgd59",825,"114.csv","","null","resources/maskTrios/L1BB.jpg","null","",NA,NA,NA,NA,""
"image-keyboard-response",196,197225,"0.0-3.61-2.61","b6b5q4mhn3tgd59",825,"114.csv","","null","resources/images/coin2.png","null","",NA,NA,NA,NA,""
"image-keyboard-response",197,197637,"0.0-3.62-0.62","b6b5q4mhn3tgd59",825,"114.csv","","409.7999999523163","resources/trios/L1T4A1.jpg","37","restless",0.7,0.4,0.6,0.971921419376358,"false"
"image-keyboard-response",198,198045,"0.0-3.62-1.62","b6b5q4mhn3tgd59",825,"114.csv","","null","resources/maskTrios/L1BB.jpg","null","",NA,NA,NA,NA,""
"image-keyboard-response",199,199257,"0.0-3.62-2.62","b6b5q4mhn3tgd59",825,"114.csv","","null","resources/images/fishbone.png","null","",NA,NA,NA,NA,""
"image-keyboard-response",200,199637,"0.0-3.63-0.63","b6b5q4mhn3tgd59",825,"114.csv","","377.40000009536743","resources/trios/L1T4A2.jpg","39","restless",0.7,0.4,0.6,0.712289815780147,"false"
"image-keyboard-response",201,200047,"0.0-3.63-1.63","b6b5q4mhn3tgd59",825,"114.csv","","null","resources/maskTrios/BBA2.jpg","null","",NA,NA,NA,NA,""
"image-keyboard-response",202,201253,"0.0-3.63-2.63","b6b5q4mhn3tgd59",825,"114.csv","","null","resources/images/fishbone.png","null","",NA,NA,NA,NA,""
"image-keyboard-response",203,201549,"0.0-3.64-0.64","b6b5q4mhn3tgd59",825,"114.csv","","293.80000019073486","resources/trios/L1T2A1.jpg","38","restless",0.6,0.4,0.7,0.564311389665088,"false"
"image-keyboard-response",204,201957,"0.0-3.64-1.64","b6b5q4mhn3tgd59",825,"114.csv","","null","resources/maskTrios/BT2B.jpg","null","",NA,NA,NA,NA,""
"image-keyboard-response",205,203169,"0.0-3.64-2.64","b6b5q4mhn3tgd59",825,"114.csv","","null","resources/images/fishbone.png","null","",NA,NA,NA,NA,""
"image-keyboard-response",206,203692,"0.0-3.65-0.65","b6b5q4mhn3tgd59",825,"114.csv","","521.2000000476837","resources/trios/L1T2A1.jpg","37","restless",0.6,0.4,0.7,0.521650450362512,"true"
"image-keyboard-response",207,204103,"0.0-3.65-1.65","b6b5q4mhn3tgd59",825,"114.csv","","null","resources/maskTrios/L1BB.jpg","null","",NA,NA,NA,NA,""
"image-keyboard-response",208,205312,"0.0-3.65-2.65","b6b5q4mhn3tgd59",825,"114.csv","","null","resources/images/coin2.png","null","",NA,NA,NA,NA,""
"image-keyboard-response",209,206397,"0.0-3.66-0.66","b6b5q4mhn3tgd59",825,"114.csv","","1083.5999999046326","resources/trios/L4T2A2.jpg","37","restless",0.6,0.4,0.7,0.398855256120555,"true"
"image-keyboard-response",210,206805,"0.0-3.66-1.66","b6b5q4mhn3tgd59",825,"114.csv","","null","resources/maskTrios/L4BB.jpg","null","",NA,NA,NA,NA,""
"image-keyboard-response",211,208017,"0.0-3.66-2.66","b6b5q4mhn3tgd59",825,"114.csv","","null","resources/images/coin2.png","null","",NA,NA,NA,NA,""
"image-keyboard-response",212,208537,"0.0-3.67-0.67","b6b5q4mhn3tgd59",825,"114.csv","","517.2999999523163","resources/trios/L4T4A2.jpg","37","restless",0.6,0.4,0.7,0.669963840855367,"false"
"image-keyboard-response",213,208944,"0.0-3.67-1.67","b6b5q4mhn3tgd59",825,"114.csv","","null","resources/maskTrios/L4BB.jpg","null","",NA,NA,NA,NA,""
"image-keyboard-response",214,210149,"0.0-3.67-2.67","b6b5q4mhn3tgd59",825,"114.csv","","null","resources/images/fishbone.png","null","",NA,NA,NA,NA,""
"image-keyboard-response",215,210404,"0.0-3.68-0.68","b6b5q4mhn3tgd59",825,"114.csv","","253","resources/trios/L1T4A2.jpg","37","restless",0.6,0.4,0.7,0.559497892211668,"true"
"image-keyboard-response",216,210817,"0.0-3.68-1.68","b6b5q4mhn3tgd59",825,"114.csv","","null","resources/maskTrios/L1BB.jpg","null","",NA,NA,NA,NA,""
"image-keyboard-response",217,212022,"0.0-3.68-2.68","b6b5q4mhn3tgd59",825,"114.csv","","null","resources/images/coin2.png","null","",NA,NA,NA,NA,""
"image-keyboard-response",218,212485,"0.0-3.69-0.69","b6b5q4mhn3tgd59",825,"114.csv","","462.5","resources/trios/L1T4A2.jpg","37","restless",0.6,0.4,0.7,0.240489715790083,"true"
"image-keyboard-response",219,212894,"0.0-3.69-1.69","b6b5q4mhn3tgd59",825,"114.csv","","null","resources/maskTrios/L1BB.jpg","null","",NA,NA,NA,NA,""
"image-keyboard-response",220,214105,"0.0-3.69-2.69","b6b5q4mhn3tgd59",825,"114.csv","","null","resources/images/coin2.png","null","",NA,NA,NA,NA,""
"image-keyboard-response",221,214435,"0.0-3.70-0.70","b6b5q4mhn3tgd59",825,"114.csv","","327.2999999523163","resources/trios/L4T2A2.jpg","37","restless",0.6,0.4,0.7,0.154218259428146,"true"
"image-keyboard-response",222,214849,"0.0-3.70-1.70","b6b5q4mhn3tgd59",825,"114.csv","","null","resources/maskTrios/L4BB.jpg","null","",NA,NA,NA,NA,""
"image-keyboard-response",223,216057,"0.0-3.70-2.70","b6b5q4mhn3tgd59",825,"114.csv","","null","resources/images/coin2.png","null","",NA,NA,NA,NA,""
"image-keyboard-response",224,216672,"0.0-3.71-0.71","b6b5q4mhn3tgd59",825,"114.csv","","614","resources/trios/L4T4A1.jpg","37","restless",0.6,0.4,0.7,0.457999070122288,"true"
"image-keyboard-response",225,217077,"0.0-3.71-1.71","b6b5q4mhn3tgd59",825,"114.csv","","null","resources/maskTrios/L4BB.jpg","null","",NA,NA,NA,NA,""
"image-keyboard-response",226,218285,"0.0-3.71-2.71","b6b5q4mhn3tgd59",825,"114.csv","","null","resources/images/coin2.png","null","",NA,NA,NA,NA,""
"image-keyboard-response",227,218774,"0.0-3.72-0.72","b6b5q4mhn3tgd59",825,"114.csv","","487.10000014305115","resources/trios/L4T4A2.jpg","37","restless",0.5,0.4,0.7,0.460741027774923,"true"
"image-keyboard-response",228,219185,"0.0-3.72-1.72","b6b5q4mhn3tgd59",825,"114.csv","","null","resources/maskTrios/L4BB.jpg","null","",NA,NA,NA,NA,""
"image-keyboard-response",229,220389,"0.0-3.72-2.72","b6b5q4mhn3tgd59",825,"114.csv","","null","resources/images/coin2.png","null","",NA,NA,NA,NA,""
"image-keyboard-response",230,221190,"0.0-3.73-0.73","b6b5q4mhn3tgd59",825,"114.csv","","798.5999999046326","resources/trios/L4T2A1.jpg","37","restless",0.5,0.4,0.7,0.648478917009763,"false"
"image-keyboard-response",231,221601,"0.0-3.73-1.73","b6b5q4mhn3tgd59",825,"114.csv","","null","resources/maskTrios/L4BB.jpg","null","",NA,NA,NA,NA,""
"image-keyboard-response",232,222806,"0.0-3.73-2.73","b6b5q4mhn3tgd59",825,"114.csv","","null","resources/images/fishbone.png","null","",NA,NA,NA,NA,""
"image-keyboard-response",233,223091,"0.0-3.74-0.74","b6b5q4mhn3tgd59",825,"114.csv","","282.60000014305115","resources/trios/L4T2A1.jpg","38","restless",0.5,0.4,0.7,0.11551953811081,"true"
"image-keyboard-response",234,223505,"0.0-3.74-1.74","b6b5q4mhn3tgd59",825,"114.csv","","null","resources/maskTrios/BT2B.jpg","null","",NA,NA,NA,NA,""
"image-keyboard-response",235,224713,"0.0-3.74-2.74","b6b5q4mhn3tgd59",825,"114.csv","","null","resources/images/coin2.png","null","",NA,NA,NA,NA,""
"image-keyboard-response",236,225080,"0.0-3.75-0.75","b6b5q4mhn3tgd59",825,"114.csv","","364.7999999523163","resources/trios/L1T2A1.jpg","38","restless",0.5,0.4,0.7,0.0509029786327984,"true"
"image-keyboard-response",237,225489,"0.0-3.75-1.75","b6b5q4mhn3tgd59",825,"114.csv","","null","resources/maskTrios/BT2B.jpg","null","",NA,NA,NA,NA,""
"image-keyboard-response",238,226693,"0.0-3.75-2.75","b6b5q4mhn3tgd59",825,"114.csv","","null","resources/images/coin2.png","null","",NA,NA,NA,NA,""
"image-keyboard-response",239,227645,"0.0-3.76-0.76","b6b5q4mhn3tgd59",825,"114.csv","","948.9000000953674","resources/trios/L1T2A2.jpg","38","restless",0.5,0.3,0.7,0.545737337199847,"false"
"image-keyboard-response",240,228057,"0.0-3.76-1.76","b6b5q4mhn3tgd59",825,"114.csv","","null","resources/maskTrios/BT2B.jpg","null","",NA,NA,NA,NA,""
"image-keyboard-response",241,229263,"0.0-3.76-2.76","b6b5q4mhn3tgd59",825,"114.csv","","null","resources/images/fishbone.png","null","",NA,NA,NA,NA,""
"image-keyboard-response",242,229823,"0.0-3.77-0.77","b6b5q4mhn3tgd59",825,"114.csv","","558.2999999523163","resources/trios/L4T4A2.jpg","37","restless",0.4,0.4,0.7,0.274371744130394,"true"
"image-keyboard-response",243,230233,"0.0-3.77-1.77","b6b5q4mhn3tgd59",825,"114.csv","","null","resources/maskTrios/L4BB.jpg","null","",NA,NA,NA,NA,""
"image-keyboard-response",244,231440,"0.0-3.77-2.77","b6b5q4mhn3tgd59",825,"114.csv","","null","resources/images/coin2.png","null","",NA,NA,NA,NA,""
"image-keyboard-response",245,232024,"0.0-3.78-0.78","b6b5q4mhn3tgd59",825,"114.csv","","581.8999998569489","resources/trios/L4T4A2.jpg","37","restless",0.4,0.4,0.7,0.758877911948718,"false"
"image-keyboard-response",246,232430,"0.0-3.78-1.78","b6b5q4mhn3tgd59",825,"114.csv","","null","resources/maskTrios/L4BB.jpg","null","",NA,NA,NA,NA,""
"image-keyboard-response",247,233641,"0.0-3.78-2.78","b6b5q4mhn3tgd59",825,"114.csv","","null","resources/images/fishbone.png","null","",NA,NA,NA,NA,""
"image-keyboard-response",248,233989,"0.0-3.79-0.79","b6b5q4mhn3tgd59",825,"114.csv","","345.2000000476837","resources/trios/L1T2A1.jpg","38","restless",0.4,0.4,0.7,0.696001084929087,"false"
"image-keyboard-response",249,234401,"0.0-3.79-1.79","b6b5q4mhn3tgd59",825,"114.csv","","null","resources/maskTrios/BT2B.jpg","null","",NA,NA,NA,NA,""
"image-keyboard-response",250,235605,"0.0-3.79-2.79","b6b5q4mhn3tgd59",825,"114.csv","","null","resources/images/fishbone.png","null","",NA,NA,NA,NA,""
"image-keyboard-response",251,236335,"0.0-3.80-0.80","b6b5q4mhn3tgd59",825,"114.csv","","728","resources/trios/L1T2A1.jpg","37","restless",0.3,0.4,0.7,0.817945163363748,"false"
"image-keyboard-response",252,236745,"0.0-3.80-1.80","b6b5q4mhn3tgd59",825,"114.csv","","null","resources/maskTrios/L1BB.jpg","null","",NA,NA,NA,NA,""
"image-keyboard-response",253,237953,"0.0-3.80-2.80","b6b5q4mhn3tgd59",825,"114.csv","","null","resources/images/fishbone.png","null","",NA,NA,NA,NA,""
"image-keyboard-response",254,238260,"0.0-3.81-0.81","b6b5q4mhn3tgd59",825,"114.csv","","304.7000000476837","resources/trios/L1T2A2.jpg","38","restless",0.3,0.4,0.7,0.0603202429252347,"true"
"image-keyboard-response",255,238672,"0.0-3.81-1.81","b6b5q4mhn3tgd59",825,"114.csv","","null","resources/maskTrios/BT2B.jpg","null","",NA,NA,NA,NA,""
"image-keyboard-response",256,239880,"0.0-3.81-2.81","b6b5q4mhn3tgd59",825,"114.csv","","null","resources/images/coin2.png","null","",NA,NA,NA,NA,""
"image-keyboard-response",257,239897,"0.0-3.82-0.82","b6b5q4mhn3tgd59",825,"114.csv","","14.900000095367432","resources/trios/L1T2A2.jpg","37","restless",0.3,0.4,0.7,0.417263325912519,"false"
"image-keyboard-response",258,240305,"0.0-3.82-1.82","b6b5q4mhn3tgd59",825,"114.csv","","null","resources/maskTrios/L1BB.jpg","null","",NA,NA,NA,NA,""
"image-keyboard-response",259,241513,"0.0-3.82-2.82","b6b5q4mhn3tgd59",825,"114.csv","","null","resources/images/fishbone.png","null","",NA,NA,NA,NA,""
"image-keyboard-response",260,241816,"0.0-3.83-0.83","b6b5q4mhn3tgd59",825,"114.csv","","301.5","resources/trios/L1T4A1.jpg","37","restless",0.4,0.4,0.6,0.850140317423016,"false"
"image-keyboard-response",261,242225,"0.0-3.83-1.83","b6b5q4mhn3tgd59",825,"114.csv","","null","resources/maskTrios/L1BB.jpg","null","",NA,NA,NA,NA,""
"image-keyboard-response",262,243431,"0.0-3.83-2.83","b6b5q4mhn3tgd59",825,"114.csv","","null","resources/images/fishbone.png","null","",NA,NA,NA,NA,""
"image-keyboard-response",263,243876,"0.0-3.84-0.84","b6b5q4mhn3tgd59",825,"114.csv","","443.09999990463257","resources/trios/L4T2A2.jpg","38","restless",0.4,0.4,0.6,0.943301281361855,"false"
"image-keyboard-response",264,244285,"0.0-3.84-1.84","b6b5q4mhn3tgd59",825,"114.csv","","null","resources/maskTrios/BT2B.jpg","null","",NA,NA,NA,NA,""
"image-keyboard-response",265,245497,"0.0-3.84-2.84","b6b5q4mhn3tgd59",825,"114.csv","","null","resources/images/fishbone.png","null","",NA,NA,NA,NA,""
"image-keyboard-response",266,245779,"0.0-3.85-0.85","b6b5q4mhn3tgd59",825,"114.csv","","280.89999985694885","resources/trios/L1T4A2.jpg","39","restless",0.4,0.4,0.6,0.885266222802273,"false"
"image-keyboard-response",267,246190,"0.0-3.85-1.85","b6b5q4mhn3tgd59",825,"114.csv","","null","resources/maskTrios/BBA2.jpg","null","",NA,NA,NA,NA,""
"image-keyboard-response",268,247401,"0.0-3.85-2.85","b6b5q4mhn3tgd59",825,"114.csv","","null","resources/images/fishbone.png","null","",NA,NA,NA,NA,""
"image-keyboard-response",269,247446,"0.0-3.86-0.86","b6b5q4mhn3tgd59",825,"114.csv","","42.30000019073486","resources/trios/L1T4A1.jpg","37","restless",0.4,0.5,0.6,0.652223851851988,"false"
"image-keyboard-response",270,247856,"0.0-3.86-1.86","b6b5q4mhn3tgd59",825,"114.csv","","null","resources/maskTrios/L1BB.jpg","null","",NA,NA,NA,NA,""
"image-keyboard-response",271,249060,"0.0-3.86-2.86","b6b5q4mhn3tgd59",825,"114.csv","","null","resources/images/fishbone.png","null","",NA,NA,NA,NA,""
"image-keyboard-response",272,249158,"0.0-3.87-0.87","b6b5q4mhn3tgd59",825,"114.csv","","95.29999995231628","resources/trios/L1T4A2.jpg","38","restless",0.4,0.5,0.6,0.761661432460795,"false"
"image-keyboard-response",273,249565,"0.0-3.87-1.87","b6b5q4mhn3tgd59",825,"114.csv","","null","resources/maskTrios/BT4B.jpg","null","",NA,NA,NA,NA,""
"image-keyboard-response",274,250774,"0.0-3.87-2.87","b6b5q4mhn3tgd59",825,"114.csv","","null","resources/images/fishbone.png","null","",NA,NA,NA,NA,""
"image-keyboard-response",275,251202,"0.0-3.88-0.88","b6b5q4mhn3tgd59",825,"114.csv","","425.69999980926514","resources/trios/L4T4A1.jpg","37","restless",0.4,0.5,0.6,0.227910050910484,"true"
"image-keyboard-response",276,251605,"0.0-3.88-1.88","b6b5q4mhn3tgd59",825,"114.csv","","null","resources/maskTrios/L4BB.jpg","null","",NA,NA,NA,NA,""
"image-keyboard-response",277,252817,"0.0-3.88-2.88","b6b5q4mhn3tgd59",825,"114.csv","","null","resources/images/coin2.png","null","",NA,NA,NA,NA,""
"image-keyboard-response",278,254110,"0.0-3.89-0.89","b6b5q4mhn3tgd59",825,"114.csv","","1290.8000001907349","resources/trios/L4T2A2.jpg","37","restless",0.4,0.5,0.6,0.471673107907821,"false"
"image-keyboard-response",279,254518,"0.0-3.89-1.89","b6b5q4mhn3tgd59",825,"114.csv","","null","resources/maskTrios/L4BB.jpg","null","",NA,NA,NA,NA,""
"image-keyboard-response",280,255729,"0.0-3.89-2.89","b6b5q4mhn3tgd59",825,"114.csv","","null","resources/images/fishbone.png","null","",NA,NA,NA,NA,""
"image-keyboard-response",281,257519,"0.0-3.90-0.90","b6b5q4mhn3tgd59",825,"114.csv","","1787.5999999046326","resources/trios/L1T4A1.jpg","37","restless",0.4,0.5,0.6,0.431603722522419,"false"
"image-keyboard-response",282,257927,"0.0-3.90-1.90","b6b5q4mhn3tgd59",825,"114.csv","","null","resources/maskTrios/L1BB.jpg","null","",NA,NA,NA,NA,""
"image-keyboard-response",283,259137,"0.0-3.90-2.90","b6b5q4mhn3tgd59",825,"114.csv","","null","resources/images/fishbone.png","null","",NA,NA,NA,NA,""
"image-keyboard-response",284,259823,"0.0-3.91-0.91","b6b5q4mhn3tgd59",825,"114.csv","","683.3999998569489","resources/trios/L4T2A2.jpg","38","restless",0.4,0.5,0.6,0.992976916856016,"false"
"image-keyboard-response",285,260228,"0.0-3.91-1.91","b6b5q4mhn3tgd59",825,"114.csv","","null","resources/maskTrios/BT2B.jpg","null","",NA,NA,NA,NA,""
"image-keyboard-response",286,261440,"0.0-3.91-2.91","b6b5q4mhn3tgd59",825,"114.csv","","null","resources/images/fishbone.png","null","",NA,NA,NA,NA,""
"image-keyboard-response",287,262020,"0.0-3.92-0.92","b6b5q4mhn3tgd59",825,"114.csv","","577.5","resources/trios/L1T2A1.jpg","37","restless",0.4,0.5,0.6,0.984483737852107,"false"
"image-keyboard-response",288,262432,"0.0-3.92-1.92","b6b5q4mhn3tgd59",825,"114.csv","","null","resources/maskTrios/L1BB.jpg","null","",NA,NA,NA,NA,""
"image-keyboard-response",289,263641,"0.0-3.92-2.92","b6b5q4mhn3tgd59",825,"114.csv","","null","resources/images/fishbone.png","null","",NA,NA,NA,NA,""
"image-keyboard-response",290,268017,"0.0-3.93-0.93","b6b5q4mhn3tgd59",825,"114.csv","","4373.399999856949","resources/trios/L4T4A1.jpg","38","restless",0.4,0.5,0.6,0.192304757844921,"true"
"image-keyboard-response",291,268425,"0.0-3.93-1.93","b6b5q4mhn3tgd59",825,"114.csv","","null","resources/maskTrios/BT4B.jpg","null","",NA,NA,NA,NA,""
"image-keyboard-response",292,269632,"0.0-3.93-2.93","b6b5q4mhn3tgd59",825,"114.csv","","null","resources/images/coin2.png","null","",NA,NA,NA,NA,""
"image-keyboard-response",293,269830,"0.0-3.94-0.94","b6b5q4mhn3tgd59",825,"114.csv","","195.10000014305115","resources/trios/L1T2A2.jpg","37","restless",0.4,0.5,0.5,0.398281727449101,"true"
"image-keyboard-response",294,270242,"0.0-3.94-1.94","b6b5q4mhn3tgd59",825,"114.csv","","null","resources/maskTrios/L1BB.jpg","null","",NA,NA,NA,NA,""
"image-keyboard-response",295,271451,"0.0-3.94-2.94","b6b5q4mhn3tgd59",825,"114.csv","","null","resources/images/coin2.png","null","",NA,NA,NA,NA,""
"image-keyboard-response",296,274389,"0.0-3.95-0.95","b6b5q4mhn3tgd59",825,"114.csv","","2933.7999999523163","resources/trios/L1T4A2.jpg","37","restless",0.4,0.5,0.5,0.104210642039611,"true"
"image-keyboard-response",297,274797,"0.0-3.95-1.95","b6b5q4mhn3tgd59",825,"114.csv","","null","resources/maskTrios/L1BB.jpg","null","",NA,NA,NA,NA,""
"image-keyboard-response",298,276001,"0.0-3.95-2.95","b6b5q4mhn3tgd59",825,"114.csv","","null","resources/images/coin2.png","null","",NA,NA,NA,NA,""
"image-keyboard-response",299,276282,"0.0-3.96-0.96","b6b5q4mhn3tgd59",825,"114.csv","","277.7999999523163","resources/trios/L1T4A2.jpg","37","restless",0.4,0.5,0.5,0.0150964625888594,"true"
"image-keyboard-response",300,276690,"0.0-3.96-1.96","b6b5q4mhn3tgd59",825,"114.csv","","null","resources/maskTrios/L1BB.jpg","null","",NA,NA,NA,NA,""
"image-keyboard-response",301,277900,"0.0-3.96-2.96","b6b5q4mhn3tgd59",825,"114.csv","","null","resources/images/coin2.png","null","",NA,NA,NA,NA,""
"image-keyboard-response",302,278222,"0.0-3.97-0.97","b6b5q4mhn3tgd59",825,"114.csv","","320","resources/trios/L4T2A1.jpg","37","restless",0.4,0.5,0.5,0.201566996040969,"true"
"image-keyboard-response",303,278632,"0.0-3.97-1.97","b6b5q4mhn3tgd59",825,"114.csv","","null","resources/maskTrios/L4BB.jpg","null","",NA,NA,NA,NA,""
"image-keyboard-response",304,279840,"0.0-3.97-2.97","b6b5q4mhn3tgd59",825,"114.csv","","null","resources/images/coin2.png","null","",NA,NA,NA,NA,""
"image-keyboard-response",305,280122,"0.0-3.98-0.98","b6b5q4mhn3tgd59",825,"114.csv","","279.80000019073486","resources/trios/L4T4A1.jpg","37","restless",0.4,0.5,0.5,0.854894292880742,"false"
"image-keyboard-response",306,280532,"0.0-3.98-1.98","b6b5q4mhn3tgd59",825,"114.csv","","null","resources/maskTrios/L4BB.jpg","null","",NA,NA,NA,NA,""
"image-keyboard-response",307,281745,"0.0-3.98-2.98","b6b5q4mhn3tgd59",825,"114.csv","","null","resources/images/fishbone.png","null","",NA,NA,NA,NA,""
"image-keyboard-response",308,281867,"0.0-3.99-0.99","b6b5q4mhn3tgd59",825,"114.csv","","121.09999990463257","resources/trios/L4T4A1.jpg","37","restless",0.4,0.5,0.5,0.857536315129485,"false"
"image-keyboard-response",309,282276,"0.0-3.99-1.99","b6b5q4mhn3tgd59",825,"114.csv","","null","resources/maskTrios/L4BB.jpg","null","",NA,NA,NA,NA,""
"image-keyboard-response",310,283488,"0.0-3.99-2.99","b6b5q4mhn3tgd59",825,"114.csv","","null","resources/images/fishbone.png","null","",NA,NA,NA,NA,""
"image-keyboard-response",311,283932,"0.0-3.100-0.100","b6b5q4mhn3tgd59",825,"114.csv","","442.7000000476837","resources/trios/L4T4A1.jpg","38","restless",0.4,0.5,0.5,0.207646980029877,"true"
"image-keyboard-response",312,284346,"0.0-3.100-1.100","b6b5q4mhn3tgd59",825,"114.csv","","null","resources/maskTrios/BT4B.jpg","null","",NA,NA,NA,NA,""
"image-keyboard-response",313,285550,"0.0-3.100-2.100","b6b5q4mhn3tgd59",825,"114.csv","","null","resources/images/coin2.png","null","",NA,NA,NA,NA,""
"image-keyboard-response",314,285945,"0.0-3.101-0.101","b6b5q4mhn3tgd59",825,"114.csv","","393.2999999523163","resources/trios/L1T2A2.jpg","38","restless",0.4,0.5,0.5,0.831652747841832,"false"
"image-keyboard-response",315,286350,"0.0-3.101-1.101","b6b5q4mhn3tgd59",825,"114.csv","","null","resources/maskTrios/BT2B.jpg","null","",NA,NA,NA,NA,""
"image-keyboard-response",316,287559,"0.0-3.101-2.101","b6b5q4mhn3tgd59",825,"114.csv","","null","resources/images/fishbone.png","null","",NA,NA,NA,NA,""
"image-keyboard-response",317,287898,"0.0-3.102-0.102","b6b5q4mhn3tgd59",825,"114.csv","","336.40000009536743","resources/trios/L1T2A1.jpg","37","restless",0.4,0.5,0.4,0.199573617662952,"true"
"image-keyboard-response",318,288303,"0.0-3.102-1.102","b6b5q4mhn3tgd59",825,"114.csv","","null","resources/maskTrios/L1BB.jpg","null","",NA,NA,NA,NA,""
"image-keyboard-response",319,289515,"0.0-3.102-2.102","b6b5q4mhn3tgd59",825,"114.csv","","null","resources/images/coin2.png","null","",NA,NA,NA,NA,""
"image-keyboard-response",320,290011,"0.0-3.103-0.103","b6b5q4mhn3tgd59",825,"114.csv","","493.5","resources/trios/L4T4A2.jpg","37","restless",0.4,0.5,0.4,0.772338653687146,"false"
"image-keyboard-response",321,290419,"0.0-3.103-1.103","b6b5q4mhn3tgd59",825,"114.csv","","null","resources/maskTrios/L4BB.jpg","null","",NA,NA,NA,NA,""
"image-keyboard-response",322,291628,"0.0-3.103-2.103","b6b5q4mhn3tgd59",825,"114.csv","","null","resources/images/fishbone.png","null","",NA,NA,NA,NA,""
"image-keyboard-response",323,291631,"0.0-3.104-0.104","b6b5q4mhn3tgd59",825,"114.csv","","1.7000000476837158","resources/trios/L4T2A2.jpg","37","restless",0.4,0.5,0.4,0.725839247093541,"false"
"image-keyboard-response",324,292044,"0.0-3.104-1.104","b6b5q4mhn3tgd59",825,"114.csv","","null","resources/maskTrios/L4BB.jpg","null","",NA,NA,NA,NA,""
"image-keyboard-response",325,293248,"0.0-3.104-2.104","b6b5q4mhn3tgd59",825,"114.csv","","null","resources/images/fishbone.png","null","",NA,NA,NA,NA,""
"image-keyboard-response",326,293426,"0.0-3.105-0.105","b6b5q4mhn3tgd59",825,"114.csv","","176.5","resources/trios/L1T2A2.jpg","38","restless",0.4,0.5,0.4,0.647961021692695,"false"
"image-keyboard-response",327,293836,"0.0-3.105-1.105","b6b5q4mhn3tgd59",825,"114.csv","","null","resources/maskTrios/BT2B.jpg","null","",NA,NA,NA,NA,""
"image-keyboard-response",328,295044,"0.0-3.105-2.105","b6b5q4mhn3tgd59",825,"114.csv","","null","resources/images/fishbone.png","null","",NA,NA,NA,NA,""
"image-keyboard-response",329,295451,"0.0-3.106-0.106","b6b5q4mhn3tgd59",825,"114.csv","","405","resources/trios/L1T4A2.jpg","39","restless",0.4,0.5,0.4,0.40828699819058,"false"
"image-keyboard-response",330,295860,"0.0-3.106-1.106","b6b5q4mhn3tgd59",825,"114.csv","","null","resources/maskTrios/BBA2.jpg","null","",NA,NA,NA,NA,""
"image-keyboard-response",331,297069,"0.0-3.106-2.106","b6b5q4mhn3tgd59",825,"114.csv","","null","resources/images/fishbone.png","null","",NA,NA,NA,NA,""
"image-keyboard-response",332,297535,"0.0-3.107-0.107","b6b5q4mhn3tgd59",825,"114.csv","","464.10000014305115","resources/trios/L4T2A1.jpg","37","restless",0.4,0.5,0.4,0.0885078685919363,"true"
"image-keyboard-response",333,297945,"0.0-3.107-1.107","b6b5q4mhn3tgd59",825,"114.csv","","null","resources/maskTrios/L4BB.jpg","null","",NA,NA,NA,NA,""
"image-keyboard-response",334,299153,"0.0-3.107-2.107","b6b5q4mhn3tgd59",825,"114.csv","","null","resources/images/coin2.png","null","",NA,NA,NA,NA,""
"image-keyboard-response",335,299392,"0.0-3.108-0.108","b6b5q4mhn3tgd59",825,"114.csv","","237.40000009536743","resources/trios/L1T4A2.jpg","37","restless",0.4,0.5,0.4,0.0604904041767726,"true"
"image-keyboard-response",336,299803,"0.0-3.108-1.108","b6b5q4mhn3tgd59",825,"114.csv","","null","resources/maskTrios/L1BB.jpg","null","",NA,NA,NA,NA,""
"image-keyboard-response",337,301013,"0.0-3.108-2.108","b6b5q4mhn3tgd59",825,"114.csv","","null","resources/images/coin2.png","null","",NA,NA,NA,NA,""
"image-keyboard-response",338,301843,"0.0-3.109-0.109","b6b5q4mhn3tgd59",825,"114.csv","","828.2999999523163","resources/trios/L1T4A2.jpg","37","restless",0.4,0.5,0.4,0.658709761864643,"false"
"image-keyboard-response",339,302253,"0.0-3.109-1.109","b6b5q4mhn3tgd59",825,"114.csv","","null","resources/maskTrios/L1BB.jpg","null","",NA,NA,NA,NA,""
"image-keyboard-response",340,303461,"0.0-3.109-2.109","b6b5q4mhn3tgd59",825,"114.csv","","null","resources/images/fishbone.png","null","",NA,NA,NA,NA,""
"image-keyboard-response",341,303782,"0.0-3.110-0.110","b6b5q4mhn3tgd59",825,"114.csv","","319.09999990463257","resources/trios/L4T2A1.jpg","37","restless",0.5,0.5,0.4,0.0471888791851161,"true"
"image-keyboard-response",342,304186,"0.0-3.110-1.110","b6b5q4mhn3tgd59",825,"114.csv","","null","resources/maskTrios/L4BB.jpg","null","",NA,NA,NA,NA,""
"image-keyboard-response",343,305395,"0.0-3.110-2.110","b6b5q4mhn3tgd59",825,"114.csv","","null","resources/images/coin2.png","null","",NA,NA,NA,NA,""
"image-keyboard-response",344,305740,"0.0-3.111-0.111","b6b5q4mhn3tgd59",825,"114.csv","","343.2000000476837","resources/trios/L1T2A2.jpg","37","restless",0.5,0.6,0.4,0.661412674064249,"false"
"image-keyboard-response",345,306147,"0.0-3.111-1.111","b6b5q4mhn3tgd59",825,"114.csv","","null","resources/maskTrios/L1BB.jpg","null","",NA,NA,NA,NA,""
"image-keyboard-response",346,307354,"0.0-3.111-2.111","b6b5q4mhn3tgd59",825,"114.csv","","null","resources/images/fishbone.png","null","",NA,NA,NA,NA,""
"image-keyboard-response",347,308937,"0.0-3.112-0.112","b6b5q4mhn3tgd59",825,"114.csv","","1581.1000001430511","resources/trios/L1T2A2.jpg","37","restless",0.5,0.6,0.5,0.179931350961787,"true"
"image-keyboard-response",348,309350,"0.0-3.112-1.112","b6b5q4mhn3tgd59",825,"114.csv","","null","resources/maskTrios/L1BB.jpg","null","",NA,NA,NA,NA,""
"image-keyboard-response",349,310558,"0.0-3.112-2.112","b6b5q4mhn3tgd59",825,"114.csv","","null","resources/images/coin2.png","null","",NA,NA,NA,NA,""
"image-keyboard-response",350,311519,"0.0-3.113-0.113","b6b5q4mhn3tgd59",825,"114.csv","","959.6999998092651","resources/trios/L4T4A1.jpg","37","restless",0.5,0.6,0.5,0.465710607812037,"true"
"image-keyboard-response",351,311926,"0.0-3.113-1.113","b6b5q4mhn3tgd59",825,"114.csv","","null","resources/maskTrios/L4BB.jpg","null","",NA,NA,NA,NA,""
"image-keyboard-response",352,313131,"0.0-3.113-2.113","b6b5q4mhn3tgd59",825,"114.csv","","null","resources/images/coin2.png","null","",NA,NA,NA,NA,""
"image-keyboard-response",353,314093,"0.0-3.114-0.114","b6b5q4mhn3tgd59",825,"114.csv","","960.2999999523163","resources/trios/L4T4A2.jpg","37","restless",0.5,0.6,0.5,0.433684922817106,"true"
"image-keyboard-response",354,314502,"0.0-3.114-1.114","b6b5q4mhn3tgd59",825,"114.csv","","null","resources/maskTrios/L4BB.jpg","null","",NA,NA,NA,NA,""
"image-keyboard-response",355,315710,"0.0-3.114-2.114","b6b5q4mhn3tgd59",825,"114.csv","","null","resources/images/coin2.png","null","",NA,NA,NA,NA,""
"image-keyboard-response",356,316132,"0.0-3.115-0.115","b6b5q4mhn3tgd59",825,"114.csv","","419.90000009536743","resources/trios/L1T4A1.jpg","37","restless",0.5,0.6,0.5,0.742022232268501,"false"
"image-keyboard-response",357,316538,"0.0-3.115-1.115","b6b5q4mhn3tgd59",825,"114.csv","","null","resources/maskTrios/L1BB.jpg","null","",NA,NA,NA,NA,""
"image-keyboard-response",358,317746,"0.0-3.115-2.115","b6b5q4mhn3tgd59",825,"114.csv","","null","resources/images/fishbone.png","null","",NA,NA,NA,NA,""
"image-keyboard-response",359,317880,"0.0-3.116-0.116","b6b5q4mhn3tgd59",825,"114.csv","","131.5","resources/trios/L4T4A2.jpg","38","restless",0.5,0.5,0.5,0.0610423161644773,"true"
"image-keyboard-response",360,318294,"0.0-3.116-1.116","b6b5q4mhn3tgd59",825,"114.csv","","null","resources/maskTrios/BT4B.jpg","null","",NA,NA,NA,NA,""
"image-keyboard-response",361,319502,"0.0-3.116-2.116","b6b5q4mhn3tgd59",825,"114.csv","","null","resources/images/coin2.png","null","",NA,NA,NA,NA,""
"image-keyboard-response",362,320447,"0.0-3.117-0.117","b6b5q4mhn3tgd59",825,"114.csv","","942.0999999046326","resources/trios/L4T2A1.jpg","37","restless",0.5,0.5,0.5,0.190984785832341,"true"
"image-keyboard-response",363,320851,"0.0-3.117-1.117","b6b5q4mhn3tgd59",825,"114.csv","","null","resources/maskTrios/L4BB.jpg","null","",NA,NA,NA,NA,""
"image-keyboard-response",364,322059,"0.0-3.117-2.117","b6b5q4mhn3tgd59",825,"114.csv","","null","resources/images/coin2.png","null","",NA,NA,NA,NA,""
"image-keyboard-response",365,322303,"0.0-3.118-0.118","b6b5q4mhn3tgd59",825,"114.csv","","242","resources/trios/L4T4A2.jpg","39","restless",0.5,0.5,0.5,0.598822172091691,"false"
"image-keyboard-response",366,322708,"0.0-3.118-1.118","b6b5q4mhn3tgd59",825,"114.csv","","null","resources/maskTrios/BBA2.jpg","null","",NA,NA,NA,NA,""
"image-keyboard-response",367,323919,"0.0-3.118-2.118","b6b5q4mhn3tgd59",825,"114.csv","","null","resources/images/fishbone.png","null","",NA,NA,NA,NA,""
"image-keyboard-response",368,325189,"0.0-3.119-0.119","b6b5q4mhn3tgd59",825,"114.csv","","1267.7999999523163","resources/trios/L1T4A1.jpg","37","restless",0.5,0.5,0.5,0.96342254408127,"false"
"image-keyboard-response",369,325595,"0.0-3.119-1.119","b6b5q4mhn3tgd59",825,"114.csv","","null","resources/maskTrios/L1BB.jpg","null","",NA,NA,NA,NA,""
"image-keyboard-response",370,326803,"0.0-3.119-2.119","b6b5q4mhn3tgd59",825,"114.csv","","null","resources/images/fishbone.png","null","",NA,NA,NA,NA,""
"image-keyboard-response",371,327885,"0.0-3.120-0.120","b6b5q4mhn3tgd59",825,"114.csv","","1080.4000000953674","resources/trios/L1T2A1.jpg","38","restless",0.5,0.5,0.5,0.796923412790218,"false"
"image-keyboard-response",372,328293,"0.0-3.120-1.120","b6b5q4mhn3tgd59",825,"114.csv","","null","resources/maskTrios/BT2B.jpg","null","",NA,NA,NA,NA,""
"image-keyboard-response",373,329503,"0.0-3.120-2.120","b6b5q4mhn3tgd59",825,"114.csv","","null","resources/images/fishbone.png","null","",NA,NA,NA,NA,""
"image-keyboard-response",374,329611,"0.0-3.121-0.121","b6b5q4mhn3tgd59",825,"114.csv","","105.89999985694885","resources/trios/L1T2A1.jpg","37","restless",0.5,0.5,0.5,0.341003614245208,"true"
"image-keyboard-response",375,330023,"0.0-3.121-1.121","b6b5q4mhn3tgd59",825,"114.csv","","null","resources/maskTrios/L1BB.jpg","null","",NA,NA,NA,NA,""
"image-keyboard-response",376,331228,"0.0-3.121-2.121","b6b5q4mhn3tgd59",825,"114.csv","","null","resources/images/coin2.png","null","",NA,NA,NA,NA,""
"image-keyboard-response",377,331830,"0.0-3.122-0.122","b6b5q4mhn3tgd59",825,"114.csv","","599.5","resources/trios/L4T2A1.jpg","37","restless",0.5,0.5,0.5,0.284443706083395,"true"
"image-keyboard-response",378,332237,"0.0-3.122-1.122","b6b5q4mhn3tgd59",825,"114.csv","","null","resources/maskTrios/L4BB.jpg","null","",NA,NA,NA,NA,""
"image-keyboard-response",379,333447,"0.0-3.122-2.122","b6b5q4mhn3tgd59",825,"114.csv","","null","resources/images/coin2.png","null","",NA,NA,NA,NA,""
"image-keyboard-response",380,333790,"0.0-3.123-0.123","b6b5q4mhn3tgd59",825,"114.csv","","340.60000014305115","resources/trios/L4T4A2.jpg","37","restless",0.5,0.5,0.5,0.856590905441373,"false"
"image-keyboard-response",381,334196,"0.0-3.123-1.123","b6b5q4mhn3tgd59",825,"114.csv","","null","resources/maskTrios/L4BB.jpg","null","",NA,NA,NA,NA,""
"image-keyboard-response",382,335406,"0.0-3.123-2.123","b6b5q4mhn3tgd59",825,"114.csv","","null","resources/images/fishbone.png","null","",NA,NA,NA,NA,""
"image-keyboard-response",383,335470,"0.0-3.124-0.124","b6b5q4mhn3tgd59",825,"114.csv","","61.59999990463257","resources/trios/L4T4A2.jpg","37","restless",0.4,0.5,0.5,0.629370535713364,"false"
"image-keyboard-response",384,335876,"0.0-3.124-1.124","b6b5q4mhn3tgd59",825,"114.csv","","null","resources/maskTrios/L4BB.jpg","null","",NA,NA,NA,NA,""
"image-keyboard-response",385,337087,"0.0-3.124-2.124","b6b5q4mhn3tgd59",825,"114.csv","","null","resources/images/fishbone.png","null","",NA,NA,NA,NA,""
"image-keyboard-response",386,337356,"0.0-3.125-0.125","b6b5q4mhn3tgd59",825,"114.csv","","267.59999990463257","resources/trios/L1T4A1.jpg","37","restless",0.4,0.5,0.5,0.649417447841717,"false"
"image-keyboard-response",387,337764,"0.0-3.125-1.125","b6b5q4mhn3tgd59",825,"114.csv","","null","resources/maskTrios/L1BB.jpg","null","",NA,NA,NA,NA,""
"image-keyboard-response",388,338975,"0.0-3.125-2.125","b6b5q4mhn3tgd59",825,"114.csv","","null","resources/images/fishbone.png","null","",NA,NA,NA,NA,""
"image-keyboard-response",389,339001,"0.0-3.126-0.126","b6b5q4mhn3tgd59",825,"114.csv","","24.299999952316284","resources/trios/L1T2A1.jpg","38","restless",0.4,0.5,0.5,0.587444550142726,"false"
"image-keyboard-response",390,339411,"0.0-3.126-1.126","b6b5q4mhn3tgd59",825,"114.csv","","null","resources/maskTrios/BT2B.jpg","null","",NA,NA,NA,NA,""
"image-keyboard-response",391,340623,"0.0-3.126-2.126","b6b5q4mhn3tgd59",825,"114.csv","","null","resources/images/fishbone.png","null","",NA,NA,NA,NA,""
"image-keyboard-response",392,340876,"0.0-3.127-0.127","b6b5q4mhn3tgd59",825,"114.csv","","251.10000014305115","resources/trios/L1T2A1.jpg","37","restless",0.4,0.5,0.5,0.586006426934077,"false"
"image-keyboard-response",393,341284,"0.0-3.127-1.127","b6b5q4mhn3tgd59",825,"114.csv","","null","resources/maskTrios/L1BB.jpg","null","",NA,NA,NA,NA,""
"image-keyboard-response",394,342495,"0.0-3.127-2.127","b6b5q4mhn3tgd59",825,"114.csv","","null","resources/images/fishbone.png","null","",NA,NA,NA,NA,""
"image-keyboard-response",395,342747,"0.0-3.128-0.128","b6b5q4mhn3tgd59",825,"114.csv","","250","resources/trios/L1T4A1.jpg","38","restless",0.4,0.5,0.5,0.794684312460881,"false"
"image-keyboard-response",396,343155,"0.0-3.128-1.128","b6b5q4mhn3tgd59",825,"114.csv","","null","resources/maskTrios/BT4B.jpg","null","",NA,NA,NA,NA,""
"image-keyboard-response",397,344362,"0.0-3.128-2.128","b6b5q4mhn3tgd59",825,"114.csv","","null","resources/images/fishbone.png","null","",NA,NA,NA,NA,""
"image-keyboard-response",398,344662,"0.0-3.129-0.129","b6b5q4mhn3tgd59",825,"114.csv","","297.10000014305115","resources/trios/L1T4A2.jpg","37","restless",0.4,0.5,0.6,0.149603086486459,"true"
"image-keyboard-response",399,345070,"0.0-3.129-1.129","b6b5q4mhn3tgd59",825,"114.csv","","null","resources/maskTrios/L1BB.jpg","null","",NA,NA,NA,NA,""
"image-keyboard-response",400,346279,"0.0-3.129-2.129","b6b5q4mhn3tgd59",825,"114.csv","","null","resources/images/coin2.png","null","",NA,NA,NA,NA,""
"image-keyboard-response",401,346497,"0.0-3.130-0.130","b6b5q4mhn3tgd59",825,"114.csv","","215.79999995231628","resources/trios/L4T4A1.jpg","38","restless",0.4,0.5,0.6,0.567294994802112,"false"
"image-keyboard-response",402,346911,"0.0-3.130-1.130","b6b5q4mhn3tgd59",825,"114.csv","","null","resources/maskTrios/BT4B.jpg","null","",NA,NA,NA,NA,""
"image-keyboard-response",403,348115,"0.0-3.130-2.130","b6b5q4mhn3tgd59",825,"114.csv","","null","resources/images/fishbone.png","null","",NA,NA,NA,NA,""
"image-keyboard-response",404,348204,"0.0-3.131-0.131","b6b5q4mhn3tgd59",825,"114.csv","","87.40000009536743","resources/trios/L1T4A2.jpg","37","restless",0.4,0.5,0.6,0.337705672886612,"true"
"image-keyboard-response",405,348615,"0.0-3.131-1.131","b6b5q4mhn3tgd59",825,"114.csv","","null","resources/maskTrios/L1BB.jpg","null","",NA,NA,NA,NA,""
"image-keyboard-response",406,349822,"0.0-3.131-2.131","b6b5q4mhn3tgd59",825,"114.csv","","null","resources/images/coin2.png","null","",NA,NA,NA,NA,""
"image-keyboard-response",407,350034,"0.0-3.132-0.132","b6b5q4mhn3tgd59",825,"114.csv","","209.29999995231628","resources/trios/L1T4A1.jpg","38","restless",0.5,0.5,0.6,0.29159371867322,"true"
"image-keyboard-response",408,350443,"0.0-3.132-1.132","b6b5q4mhn3tgd59",825,"114.csv","","null","resources/maskTrios/BT4B.jpg","null","",NA,NA,NA,NA,""
"image-keyboard-response",409,351655,"0.0-3.132-2.132","b6b5q4mhn3tgd59",825,"114.csv","","null","resources/images/coin2.png","null","",NA,NA,NA,NA,""
"image-keyboard-response",410,351869,"0.0-3.133-0.133","b6b5q4mhn3tgd59",825,"114.csv","","211.5","resources/trios/L1T4A1.jpg","37","restless",0.5,0.5,0.6,0.193275095553512,"true"
"image-keyboard-response",411,352278,"0.0-3.133-1.133","b6b5q4mhn3tgd59",825,"114.csv","","null","resources/maskTrios/L1BB.jpg","null","",NA,NA,NA,NA,""
"image-keyboard-response",412,353482,"0.0-3.133-2.133","b6b5q4mhn3tgd59",825,"114.csv","","null","resources/images/coin2.png","null","",NA,NA,NA,NA,""
"image-keyboard-response",413,353623,"0.0-3.134-0.134","b6b5q4mhn3tgd59",825,"114.csv","","138.20000004768372","resources/trios/L1T4A2.jpg","37","restless",0.5,0.4,0.6,0.530121198174473,"false"
"image-keyboard-response",414,354028,"0.0-3.134-1.134","b6b5q4mhn3tgd59",825,"114.csv","","null","resources/maskTrios/L1BB.jpg","null","",NA,NA,NA,NA,""
"image-keyboard-response",415,355239,"0.0-3.134-2.134","b6b5q4mhn3tgd59",825,"114.csv","","null","resources/images/fishbone.png","null","",NA,NA,NA,NA,""
"image-keyboard-response",416,355278,"0.0-3.135-0.135","b6b5q4mhn3tgd59",825,"114.csv","","37.09999990463257","resources/trios/L4T4A2.jpg","37","restless",0.5,0.4,0.6,0.879576401868776,"false"
"image-keyboard-response",417,355687,"0.0-3.135-1.135","b6b5q4mhn3tgd59",825,"114.csv","","null","resources/maskTrios/L4BB.jpg","null","",NA,NA,NA,NA,""
"image-keyboard-response",418,356892,"0.0-3.135-2.135","b6b5q4mhn3tgd59",825,"114.csv","","null","resources/images/fishbone.png","null","",NA,NA,NA,NA,""
"image-keyboard-response",419,357039,"0.0-3.136-0.136","b6b5q4mhn3tgd59",825,"114.csv","","145.40000009536743","resources/trios/L1T2A2.jpg","37","restless",0.5,0.4,0.6,0.415330714996786,"true"
"image-keyboard-response",420,357443,"0.0-3.136-1.136","b6b5q4mhn3tgd59",825,"114.csv","","null","resources/maskTrios/L1BB.jpg","null","",NA,NA,NA,NA,""
"image-keyboard-response",421,358651,"0.0-3.136-2.136","b6b5q4mhn3tgd59",825,"114.csv","","null","resources/images/coin2.png","null","",NA,NA,NA,NA,""
"image-keyboard-response",422,358690,"0.0-3.137-0.137","b6b5q4mhn3tgd59",825,"114.csv","","37.200000047683716","resources/trios/L1T2A2.jpg","37","restless",0.5,0.4,0.6,0.366529130645773,"true"
"image-keyboard-response",423,359100,"0.0-3.137-1.137","b6b5q4mhn3tgd59",825,"114.csv","","null","resources/maskTrios/L1BB.jpg","null","",NA,NA,NA,NA,""
"image-keyboard-response",424,360309,"0.0-3.137-2.137","b6b5q4mhn3tgd59",825,"114.csv","","null","resources/images/coin2.png","null","",NA,NA,NA,NA,""
"image-keyboard-response",425,361079,"0.0-3.138-0.138","b6b5q4mhn3tgd59",825,"114.csv","","767.7999999523163","resources/trios/L1T4A2.jpg","37","restless",0.5,0.4,0.6,0.135402698483227,"true"
"image-keyboard-response",426,361486,"0.0-3.138-1.138","b6b5q4mhn3tgd59",825,"114.csv","","null","resources/maskTrios/L1BB.jpg","null","",NA,NA,NA,NA,""
"image-keyboard-response",427,362690,"0.0-3.138-2.138","b6b5q4mhn3tgd59",825,"114.csv","","null","resources/images/coin2.png","null","",NA,NA,NA,NA,""
"image-keyboard-response",428,362980,"0.0-3.139-0.139","b6b5q4mhn3tgd59",825,"114.csv","","287.5","resources/trios/L1T4A1.jpg","37","restless",0.5,0.5,0.6,0.881152956263943,"false"
"image-keyboard-response",429,363389,"0.0-3.139-1.139","b6b5q4mhn3tgd59",825,"114.csv","","null","resources/maskTrios/L1BB.jpg","null","",NA,NA,NA,NA,""
"image-keyboard-response",430,364595,"0.0-3.139-2.139","b6b5q4mhn3tgd59",825,"114.csv","","null","resources/images/fishbone.png","null","",NA,NA,NA,NA,""
"image-keyboard-response",431,365046,"0.0-3.140-0.140","b6b5q4mhn3tgd59",825,"114.csv","","449.09999990463257","resources/trios/L4T2A1.jpg","37","restless",0.5,0.5,0.6,0.0514405122665971,"true"
"image-keyboard-response",432,365455,"0.0-3.140-1.140","b6b5q4mhn3tgd59",825,"114.csv","","null","resources/maskTrios/L4BB.jpg","null","",NA,NA,NA,NA,""
"image-keyboard-response",433,366663,"0.0-3.140-2.140","b6b5q4mhn3tgd59",825,"114.csv","","null","resources/images/coin2.png","null","",NA,NA,NA,NA,""
"image-keyboard-response",434,366895,"0.0-3.141-0.141","b6b5q4mhn3tgd59",825,"114.csv","","229.70000004768372","resources/trios/L1T4A1.jpg","37","restless",0.5,0.5,0.6,0.641565063212338,"false"
"image-keyboard-response",435,367302,"0.0-3.141-1.141","b6b5q4mhn3tgd59",825,"114.csv","","null","resources/maskTrios/L1BB.jpg","null","",NA,NA,NA,NA,""
"image-keyboard-response",436,368511,"0.0-3.141-2.141","b6b5q4mhn3tgd59",825,"114.csv","","null","resources/images/fishbone.png","null","",NA,NA,NA,NA,""
"image-keyboard-response",437,368795,"0.0-3.142-0.142","b6b5q4mhn3tgd59",825,"114.csv","","281.2000000476837","resources/trios/L1T2A2.jpg","37","restless",0.4,0.5,0.6,0.20079750642711,"true"
"image-keyboard-response",438,369207,"0.0-3.142-1.142","b6b5q4mhn3tgd59",825,"114.csv","","null","resources/maskTrios/L1BB.jpg","null","",NA,NA,NA,NA,""
"image-keyboard-response",439,370415,"0.0-3.142-2.142","b6b5q4mhn3tgd59",825,"114.csv","","null","resources/images/coin2.png","null","",NA,NA,NA,NA,""
"image-keyboard-response",440,370795,"0.0-3.143-0.143","b6b5q4mhn3tgd59",825,"114.csv","","378.10000014305115","resources/trios/L4T4A2.jpg","37","restless",0.4,0.5,0.6,0.614791689604606,"false"
"image-keyboard-response",441,371207,"0.0-3.143-1.143","b6b5q4mhn3tgd59",825,"114.csv","","null","resources/maskTrios/L4BB.jpg","null","",NA,NA,NA,NA,""
"image-keyboard-response",442,372415,"0.0-3.143-2.143","b6b5q4mhn3tgd59",825,"114.csv","","null","resources/images/fishbone.png","null","",NA,NA,NA,NA,""
"image-keyboard-response",443,372646,"0.0-3.144-0.144","b6b5q4mhn3tgd59",825,"114.csv","","229","resources/trios/L4T2A2.jpg","37","restless",0.5,0.4,0.6,0.650222741908379,"false"
"image-keyboard-response",444,373052,"0.0-3.144-1.144","b6b5q4mhn3tgd59",825,"114.csv","","null","resources/maskTrios/L4BB.jpg","null","",NA,NA,NA,NA,""
"image-keyboard-response",445,374263,"0.0-3.144-2.144","b6b5q4mhn3tgd59",825,"114.csv","","null","resources/images/fishbone.png","null","",NA,NA,NA,NA,""
"image-keyboard-response",446,374308,"0.0-3.145-0.145","b6b5q4mhn3tgd59",825,"114.csv","","44.09999990463257","resources/trios/L1T2A2.jpg","38","restless",0.5,0.4,0.6,0.761161976762067,"false"
"image-keyboard-response",447,374714,"0.0-3.145-1.145","b6b5q4mhn3tgd59",825,"114.csv","","null","resources/maskTrios/BT2B.jpg","null","",NA,NA,NA,NA,""
"image-keyboard-response",448,375927,"0.0-3.145-2.145","b6b5q4mhn3tgd59",825,"114.csv","","null","resources/images/fishbone.png","null","",NA,NA,NA,NA,""
"image-keyboard-response",449,376558,"0.0-3.146-0.146","b6b5q4mhn3tgd59",825,"114.csv","","629.7000000476837","resources/trios/L1T4A1.jpg","38","restless",0.5,0.4,0.6,0.352355837679387,"true"
"image-keyboard-response",450,376967,"0.0-3.146-1.146","b6b5q4mhn3tgd59",825,"114.csv","","null","resources/maskTrios/BT4B.jpg","null","",NA,NA,NA,NA,""
"image-keyboard-response",451,378175,"0.0-3.146-2.146","b6b5q4mhn3tgd59",825,"114.csv","","null","resources/images/coin2.png","null","",NA,NA,NA,NA,""
"image-keyboard-response",452,378504,"0.0-3.147-0.147","b6b5q4mhn3tgd59",825,"114.csv","","327.59999990463257","resources/trios/L1T2A2.jpg","37","restless",0.5,0.4,0.6,0.855244576985484,"false"
"image-keyboard-response",453,378919,"0.0-3.147-1.147","b6b5q4mhn3tgd59",825,"114.csv","","null","resources/maskTrios/L1BB.jpg","null","",NA,NA,NA,NA,""
"image-keyboard-response",454,380127,"0.0-3.147-2.147","b6b5q4mhn3tgd59",825,"114.csv","","null","resources/images/fishbone.png","null","",NA,NA,NA,NA,""
"image-keyboard-response",455,380488,"0.0-3.148-0.148","b6b5q4mhn3tgd59",825,"114.csv","","359.40000009536743","resources/trios/L4T4A2.jpg","37","restless",0.4,0.4,0.6,0.523578460630061,"false"
"image-keyboard-response",456,380899,"0.0-3.148-1.148","b6b5q4mhn3tgd59",825,"114.csv","","null","resources/maskTrios/L4BB.jpg","null","",NA,NA,NA,NA,""
"image-keyboard-response",457,382111,"0.0-3.148-2.148","b6b5q4mhn3tgd59",825,"114.csv","","null","resources/images/fishbone.png","null","",NA,NA,NA,NA,""
"image-keyboard-response",458,382284,"0.0-3.149-0.149","b6b5q4mhn3tgd59",825,"114.csv","","170.89999985694885","resources/trios/L1T2A1.jpg","37","restless",0.4,0.4,0.6,0.376118515914108,"true"
"image-keyboard-response",459,382691,"0.0-3.149-1.149","b6b5q4mhn3tgd59",825,"114.csv","","null","resources/maskTrios/L1BB.jpg","null","",NA,NA,NA,NA,""
"image-keyboard-response",460,383903,"0.0-3.149-2.149","b6b5q4mhn3tgd59",825,"114.csv","","null","resources/images/coin2.png","null","",NA,NA,NA,NA,""
"image-keyboard-response",461,384283,"0.0-3.150-0.150","b6b5q4mhn3tgd59",825,"114.csv","","378.7000000476837","resources/trios/L4T2A2.jpg","37","restless",0.4,0.4,0.6,0.0234380882275607,"true"
"image-keyboard-response",462,384695,"0.0-3.150-1.150","b6b5q4mhn3tgd59",825,"114.csv","","null","resources/maskTrios/L4BB.jpg","null","",NA,NA,NA,NA,""
"image-keyboard-response",463,385903,"0.0-3.150-2.150","b6b5q4mhn3tgd59",825,"114.csv","","null","resources/images/coin2.png","null","",NA,NA,NA,NA,""
"image-keyboard-response",464,386270,"0.0-3.151-0.151","b6b5q4mhn3tgd59",825,"114.csv","","365.5","resources/trios/L1T4A2.jpg","37","restless",0.4,0.4,0.6,0.0312117673554095,"true"
"image-keyboard-response",465,386679,"0.0-3.151-1.151","b6b5q4mhn3tgd59",825,"114.csv","","null","resources/maskTrios/L1BB.jpg","null","",NA,NA,NA,NA,""
"image-keyboard-response",466,387886,"0.0-3.151-2.151","b6b5q4mhn3tgd59",825,"114.csv","","null","resources/images/coin2.png","null","",NA,NA,NA,NA,""
"image-keyboard-response",467,389359,"0.0-3.152-0.152","b6b5q4mhn3tgd59",825,"114.csv","","1471.2000000476837","resources/trios/L4T4A2.jpg","37","restless",0.4,0.4,0.6,0.855714095509226,"false"
"image-keyboard-response",468,389767,"0.0-3.152-1.152","b6b5q4mhn3tgd59",825,"114.csv","","null","resources/maskTrios/L4BB.jpg","null","",NA,NA,NA,NA,""
"image-keyboard-response",469,390975,"0.0-3.152-2.152","b6b5q4mhn3tgd59",825,"114.csv","","null","resources/images/fishbone.png","null","",NA,NA,NA,NA,""
"image-keyboard-response",470,391445,"0.0-3.153-0.153","b6b5q4mhn3tgd59",825,"114.csv","","468.2000000476837","resources/trios/L4T2A2.jpg","38","restless",0.4,0.4,0.6,0.960609758907965,"false"
"image-keyboard-response",471,391852,"0.0-3.153-1.153","b6b5q4mhn3tgd59",825,"114.csv","","null","resources/maskTrios/BT2B.jpg","null","",NA,NA,NA,NA,""
"image-keyboard-response",472,393063,"0.0-3.153-2.153","b6b5q4mhn3tgd59",825,"114.csv","","null","resources/images/fishbone.png","null","",NA,NA,NA,NA,""
"image-keyboard-response",473,393565,"0.0-3.154-0.154","b6b5q4mhn3tgd59",825,"114.csv","","499.30000019073486","resources/trios/L1T4A2.jpg","39","restless",0.4,0.4,0.7,0.440388423169396,"true"
"image-keyboard-response",474,393970,"0.0-3.154-1.154","b6b5q4mhn3tgd59",825,"114.csv","","null","resources/maskTrios/BBA2.jpg","null","",NA,NA,NA,NA,""
"image-keyboard-response",475,395183,"0.0-3.154-2.154","b6b5q4mhn3tgd59",825,"114.csv","","null","resources/images/coin2.png","null","",NA,NA,NA,NA,""
"image-keyboard-response",476,395498,"0.0-3.155-0.155","b6b5q4mhn3tgd59",825,"114.csv","","314.2999999523163","resources/trios/L1T4A1.jpg","39","restless",0.5,0.4,0.7,0.489890750539127,"true"
"image-keyboard-response",477,395911,"0.0-3.155-1.155","b6b5q4mhn3tgd59",825,"114.csv","","null","resources/maskTrios/BBA1.jpg","null","",NA,NA,NA,NA,""
"image-keyboard-response",478,397117,"0.0-3.155-2.155","b6b5q4mhn3tgd59",825,"114.csv","","null","resources/images/coin2.png","null","",NA,NA,NA,NA,""
"image-keyboard-response",479,397565,"0.0-3.156-0.156","b6b5q4mhn3tgd59",825,"114.csv","","446.59999990463257","resources/trios/L4T2A2.jpg","39","restless",0.4,0.4,0.7,0.763474486494088,"false"
"image-keyboard-response",480,397975,"0.0-3.156-1.156","b6b5q4mhn3tgd59",825,"114.csv","","null","resources/maskTrios/BBA2.jpg","null","",NA,NA,NA,NA,""
"image-keyboard-response",481,399182,"0.0-3.156-2.156","b6b5q4mhn3tgd59",825,"114.csv","","null","resources/images/fishbone.png","null","",NA,NA,NA,NA,""
"image-keyboard-response",482,400243,"0.0-3.157-0.157","b6b5q4mhn3tgd59",825,"114.csv","","1059","resources/trios/L4T2A2.jpg","38","restless",0.4,0.4,0.6,0.295708540363944,"true"
"image-keyboard-response",483,400655,"0.0-3.157-1.157","b6b5q4mhn3tgd59",825,"114.csv","","null","resources/maskTrios/BT2B.jpg","null","",NA,NA,NA,NA,""
"image-keyboard-response",484,401863,"0.0-3.157-2.157","b6b5q4mhn3tgd59",825,"114.csv","","null","resources/images/coin2.png","null","",NA,NA,NA,NA,""
"image-keyboard-response",485,402321,"0.0-3.158-0.158","b6b5q4mhn3tgd59",825,"114.csv","","456.09999990463257","resources/trios/L1T2A2.jpg","38","restless",0.4,0.4,0.6,0.816453995428592,"false"
"image-keyboard-response",486,402732,"0.0-3.158-1.158","b6b5q4mhn3tgd59",825,"114.csv","","null","resources/maskTrios/BT2B.jpg","null","",NA,NA,NA,NA,""
"image-keyboard-response",487,403943,"0.0-3.158-2.158","b6b5q4mhn3tgd59",825,"114.csv","","null","resources/images/fishbone.png","null","",NA,NA,NA,NA,""
"image-keyboard-response",488,404552,"0.0-3.159-0.159","b6b5q4mhn3tgd59",825,"114.csv","","606.7000000476837","resources/trios/L1T2A2.jpg","37","restless",0.4,0.4,0.5,0.100243789805947,"true"
"image-keyboard-response",489,404963,"0.0-3.159-1.159","b6b5q4mhn3tgd59",825,"114.csv","","null","resources/maskTrios/L1BB.jpg","null","",NA,NA,NA,NA,""
"image-keyboard-response",490,406175,"0.0-3.159-2.159","b6b5q4mhn3tgd59",825,"114.csv","","null","resources/images/coin2.png","null","",NA,NA,NA,NA,""
"image-keyboard-response",491,406721,"0.0-3.160-0.160","b6b5q4mhn3tgd59",825,"114.csv","","543.9000000953674","resources/trios/L1T4A1.jpg","37","restless",0.4,0.4,0.5,0.534433243563109,"false"
"image-keyboard-response",492,407135,"0.0-3.160-1.160","b6b5q4mhn3tgd59",825,"114.csv","","null","resources/maskTrios/L1BB.jpg","null","",NA,NA,NA,NA,""
"image-keyboard-response",493,408339,"0.0-3.160-2.160","b6b5q4mhn3tgd59",825,"114.csv","","null","resources/images/fishbone.png","null","",NA,NA,NA,NA,""
"image-keyboard-response",494,409185,"0.0-3.161-0.161","b6b5q4mhn3tgd59",825,"114.csv","","843.6999998092651","resources/trios/L4T2A1.jpg","38","restless",0.4,0.4,0.5,0.0350530409390861,"true"
"image-keyboard-response",495,409596,"0.0-3.161-1.161","b6b5q4mhn3tgd59",825,"114.csv","","null","resources/maskTrios/BT2B.jpg","null","",NA,NA,NA,NA,""
"image-keyboard-response",496,410807,"0.0-3.161-2.161","b6b5q4mhn3tgd59",825,"114.csv","","null","resources/images/coin2.png","null","",NA,NA,NA,NA,""
"image-keyboard-response",497,411626,"0.0-3.162-0.162","b6b5q4mhn3tgd59",825,"114.csv","","817","resources/trios/L4T2A1.jpg","38","restless",0.4,0.4,0.5,0.697931774613733,"false"
"image-keyboard-response",498,412035,"0.0-3.162-1.162","b6b5q4mhn3tgd59",825,"114.csv","","null","resources/maskTrios/BT2B.jpg","null","",NA,NA,NA,NA,""
"image-keyboard-response",499,413247,"0.0-3.162-2.162","b6b5q4mhn3tgd59",825,"114.csv","","null","resources/images/fishbone.png","null","",NA,NA,NA,NA,""
"image-keyboard-response",500,413637,"0.0-3.163-0.163","b6b5q4mhn3tgd59",825,"114.csv","","387.7999999523163","resources/trios/L4T2A1.jpg","37","restless",0.4,0.4,0.5,0.877859827489549,"false"
"image-keyboard-response",501,414047,"0.0-3.163-1.163","b6b5q4mhn3tgd59",825,"114.csv","","null","resources/maskTrios/L4BB.jpg","null","",NA,NA,NA,NA,""
"image-keyboard-response",502,415255,"0.0-3.163-2.163","b6b5q4mhn3tgd59",825,"114.csv","","null","resources/images/fishbone.png","null","",NA,NA,NA,NA,""
"image-keyboard-response",503,415703,"0.0-3.164-0.164","b6b5q4mhn3tgd59",825,"114.csv","","447.19999980926514","resources/trios/L4T2A1.jpg","38","restless",0.4,0.4,0.5,0.70400511948501,"false"
"image-keyboard-response",504,416111,"0.0-3.164-1.164","b6b5q4mhn3tgd59",825,"114.csv","","null","resources/maskTrios/BT2B.jpg","null","",NA,NA,NA,NA,""
"image-keyboard-response",505,417319,"0.0-3.164-2.164","b6b5q4mhn3tgd59",825,"114.csv","","null","resources/images/fishbone.png","null","",NA,NA,NA,NA,""
"image-keyboard-response",506,417753,"0.0-3.165-0.165","b6b5q4mhn3tgd59",825,"114.csv","","432.39999985694885","resources/trios/L4T2A1.jpg","37","restless",0.4,0.4,0.5,0.585936608610621,"false"
"image-keyboard-response",507,418167,"0.0-3.165-1.165","b6b5q4mhn3tgd59",825,"114.csv","","null","resources/maskTrios/L4BB.jpg","null","",NA,NA,NA,NA,""
"image-keyboard-response",508,419372,"0.0-3.165-2.165","b6b5q4mhn3tgd59",825,"114.csv","","null","resources/images/fishbone.png","null","",NA,NA,NA,NA,""
"image-keyboard-response",509,419675,"0.0-3.166-0.166","b6b5q4mhn3tgd59",825,"114.csv","","302.2000000476837","resources/trios/L1T4A2.jpg","38","restless",0.4,0.4,0.5,0.827604413836147,"false"
"image-keyboard-response",510,420087,"0.0-3.166-1.166","b6b5q4mhn3tgd59",825,"114.csv","","null","resources/maskTrios/BT4B.jpg","null","",NA,NA,NA,NA,""
"image-keyboard-response",511,421291,"0.0-3.166-2.166","b6b5q4mhn3tgd59",825,"114.csv","","null","resources/images/fishbone.png","null","",NA,NA,NA,NA,""
"image-keyboard-response",512,421402,"0.0-3.167-0.167","b6b5q4mhn3tgd59",825,"114.csv","","108.70000004768372","resources/trios/L4T2A2.jpg","37","restless",0.4,0.4,0.5,0.35866165711984,"true"
"image-keyboard-response",513,421811,"0.0-3.167-1.167","b6b5q4mhn3tgd59",825,"114.csv","","null","resources/maskTrios/L4BB.jpg","null","",NA,NA,NA,NA,""
"image-keyboard-response",514,423020,"0.0-3.167-2.167","b6b5q4mhn3tgd59",825,"114.csv","","null","resources/images/coin2.png","null","",NA,NA,NA,NA,""
"image-keyboard-response",515,423437,"0.0-3.168-0.168","b6b5q4mhn3tgd59",825,"114.csv","","415.2999999523163","resources/trios/L4T4A1.jpg","37","restless",0.3,0.4,0.5,0.046584803776418,"true"
"image-keyboard-response",516,423845,"0.0-3.168-1.168","b6b5q4mhn3tgd59",825,"114.csv","","null","resources/maskTrios/L4BB.jpg","null","",NA,NA,NA,NA,""
"image-keyboard-response",517,425055,"0.0-3.168-2.168","b6b5q4mhn3tgd59",825,"114.csv","","null","resources/images/coin2.png","null","",NA,NA,NA,NA,""
"image-keyboard-response",518,425414,"0.0-3.169-0.169","b6b5q4mhn3tgd59",825,"114.csv","","356.7000000476837","resources/trios/L4T2A2.jpg","37","restless",0.2,0.4,0.5,0.183483439605032,"true"
"image-keyboard-response",519,425823,"0.0-3.169-1.169","b6b5q4mhn3tgd59",825,"114.csv","","null","resources/maskTrios/L4BB.jpg","null","",NA,NA,NA,NA,""
"image-keyboard-response",520,427029,"0.0-3.169-2.169","b6b5q4mhn3tgd59",825,"114.csv","","null","resources/images/coin2.png","null","",NA,NA,NA,NA,""
"image-keyboard-response",521,427357,"0.0-3.170-0.170","b6b5q4mhn3tgd59",825,"114.csv","","325.7999999523163","resources/trios/L4T2A1.jpg","38","restless",0.2,0.5,0.5,0.199709136508723,"true"
"image-keyboard-response",522,427767,"0.0-3.170-1.170","b6b5q4mhn3tgd59",825,"114.csv","","null","resources/maskTrios/BT2B.jpg","null","",NA,NA,NA,NA,""
"image-keyboard-response",523,428972,"0.0-3.170-2.170","b6b5q4mhn3tgd59",825,"114.csv","","null","resources/images/coin2.png","null","",NA,NA,NA,NA,""
"image-keyboard-response",524,429218,"0.0-3.171-0.171","b6b5q4mhn3tgd59",825,"114.csv","","244.40000009536743","resources/trios/L4T4A1.jpg","37","restless",0.2,0.5,0.5,0.229800456028768,"false"
"image-keyboard-response",525,429631,"0.0-3.171-1.171","b6b5q4mhn3tgd59",825,"114.csv","","null","resources/maskTrios/L4BB.jpg","null","",NA,NA,NA,NA,""
"image-keyboard-response",526,430835,"0.0-3.171-2.171","b6b5q4mhn3tgd59",825,"114.csv","","null","resources/images/fishbone.png","null","",NA,NA,NA,NA,""
"image-keyboard-response",527,431180,"0.0-3.172-0.172","b6b5q4mhn3tgd59",825,"114.csv","","342.89999985694885","resources/trios/L4T2A1.jpg","38","restless",0.2,0.5,0.5,0.591878654173324,"false"
"image-keyboard-response",528,431587,"0.0-3.172-1.172","b6b5q4mhn3tgd59",825,"114.csv","","null","resources/maskTrios/BT2B.jpg","null","",NA,NA,NA,NA,""
"image-keyboard-response",529,432799,"0.0-3.172-2.172","b6b5q4mhn3tgd59",825,"114.csv","","null","resources/images/fishbone.png","null","",NA,NA,NA,NA,""
"image-keyboard-response",530,433263,"0.0-3.173-0.173","b6b5q4mhn3tgd59",825,"114.csv","","462","resources/trios/L4T4A1.jpg","38","restless",0.2,0.5,0.5,0.628932696535332,"false"
"image-keyboard-response",531,433671,"0.0-3.173-1.173","b6b5q4mhn3tgd59",825,"114.csv","","null","resources/maskTrios/BT4B.jpg","null","",NA,NA,NA,NA,""
"image-keyboard-response",532,434875,"0.0-3.173-2.173","b6b5q4mhn3tgd59",825,"114.csv","","null","resources/images/fishbone.png","null","",NA,NA,NA,NA,""
"image-keyboard-response",533,435363,"0.0-3.174-0.174","b6b5q4mhn3tgd59",825,"114.csv","","486.60000014305115","resources/trios/L1T2A2.jpg","39","restless",0.2,0.5,0.5,0.654462578777895,"false"
"image-keyboard-response",534,435775,"0.0-3.174-1.174","b6b5q4mhn3tgd59",825,"114.csv","","null","resources/maskTrios/BBA2.jpg","null","",NA,NA,NA,NA,""
"image-keyboard-response",535,436983,"0.0-3.174-2.174","b6b5q4mhn3tgd59",825,"114.csv","","null","resources/images/fishbone.png","null","",NA,NA,NA,NA,""
"image-keyboard-response",536,437333,"0.0-3.175-0.175","b6b5q4mhn3tgd59",825,"114.csv","","347.40000009536743","resources/trios/L4T2A1.jpg","38","restless",0.1,0.5,0.5,0.110222708079672,"true"
"image-keyboard-response",537,437738,"0.0-3.175-1.175","b6b5q4mhn3tgd59",825,"114.csv","","null","resources/maskTrios/BT2B.jpg","null","",NA,NA,NA,NA,""
"image-keyboard-response",538,438947,"0.0-3.175-2.175","b6b5q4mhn3tgd59",825,"114.csv","","null","resources/images/coin2.png","null","",NA,NA,NA,NA,""
"image-keyboard-response",539,439387,"0.0-3.176-0.176","b6b5q4mhn3tgd59",825,"114.csv","","437.59999990463257","resources/trios/L4T2A2.jpg","37","restless",0.1,0.5,0.6,0.573394897643541,"false"
"image-keyboard-response",540,439799,"0.0-3.176-1.176","b6b5q4mhn3tgd59",825,"114.csv","","null","resources/maskTrios/L4BB.jpg","null","",NA,NA,NA,NA,""
"image-keyboard-response",541,441007,"0.0-3.176-2.176","b6b5q4mhn3tgd59",825,"114.csv","","null","resources/images/fishbone.png","null","",NA,NA,NA,NA,""
"image-keyboard-response",542,441216,"0.0-3.177-0.177","b6b5q4mhn3tgd59",825,"114.csv","","206.29999995231628","resources/trios/L1T4A1.jpg","37","restless",0.2,0.5,0.6,0.918833739551305,"false"
"image-keyboard-response",543,441623,"0.0-3.177-1.177","b6b5q4mhn3tgd59",825,"114.csv","","null","resources/maskTrios/L1BB.jpg","null","",NA,NA,NA,NA,""
"image-keyboard-response",544,442828,"0.0-3.177-2.177","b6b5q4mhn3tgd59",825,"114.csv","","null","resources/images/fishbone.png","null","",NA,NA,NA,NA,""
"image-keyboard-response",545,444275,"0.0-3.178-0.178","b6b5q4mhn3tgd59",825,"114.csv","","1444.2999999523163","resources/trios/L4T2A2.jpg","37","restless",0.2,0.5,0.6,0.963914454926008,"false"
"image-keyboard-response",546,444685,"0.0-3.178-1.178","b6b5q4mhn3tgd59",825,"114.csv","","null","resources/maskTrios/L4BB.jpg","null","",NA,NA,NA,NA,""
"image-keyboard-response",547,445895,"0.0-3.178-2.178","b6b5q4mhn3tgd59",825,"114.csv","","null","resources/images/fishbone.png","null","",NA,NA,NA,NA,""
"image-keyboard-response",548,446835,"0.0-3.179-0.179","b6b5q4mhn3tgd59",825,"114.csv","","937.2999999523163","resources/trios/L4T4A2.jpg","37","restless",0.2,0.5,0.6,0.781528219805577,"false"
"image-keyboard-response",549,447247,"0.0-3.179-1.179","b6b5q4mhn3tgd59",825,"114.csv","","null","resources/maskTrios/L4BB.jpg","null","",NA,NA,NA,NA,""
"image-keyboard-response",550,448452,"0.0-3.179-2.179","b6b5q4mhn3tgd59",825,"114.csv","","null","resources/images/fishbone.png","null","",NA,NA,NA,NA,""
"image-keyboard-response",551,449291,"0.0-3.180-0.180","b6b5q4mhn3tgd59",825,"114.csv","","836.2000000476837","resources/trios/L4T4A1.jpg","37","restless",0.2,0.5,0.6,0.673659346677361,"false"
"image-keyboard-response",552,449699,"0.0-3.180-1.180","b6b5q4mhn3tgd59",825,"114.csv","","null","resources/maskTrios/L4BB.jpg","null","",NA,NA,NA,NA,""
"image-keyboard-response",553,450908,"0.0-3.180-2.180","b6b5q4mhn3tgd59",825,"114.csv","","null","resources/images/fishbone.png","null","",NA,NA,NA,NA,""
"image-keyboard-response",554,451181,"0.0-3.181-0.181","b6b5q4mhn3tgd59",825,"114.csv","","271","resources/trios/L4T2A2.jpg","37","restless",0.2,0.5,0.6,0.351457763329877,"false"
"image-keyboard-response",555,451591,"0.0-3.181-1.181","b6b5q4mhn3tgd59",825,"114.csv","","null","resources/maskTrios/L4BB.jpg","null","",NA,NA,NA,NA,""
"image-keyboard-response",556,452795,"0.0-3.181-2.181","b6b5q4mhn3tgd59",825,"114.csv","","null","resources/images/fishbone.png","null","",NA,NA,NA,NA,""
"image-keyboard-response",557,453085,"0.0-3.182-0.182","b6b5q4mhn3tgd59",825,"114.csv","","287.7000000476837","resources/trios/L1T4A1.jpg","37","restless",0.3,0.5,0.6,0.947156646473559,"false"
"image-keyboard-response",558,453493,"0.0-3.182-1.182","b6b5q4mhn3tgd59",825,"114.csv","","null","resources/maskTrios/L1BB.jpg","null","",NA,NA,NA,NA,""
"image-keyboard-response",559,454703,"0.0-3.182-2.182","b6b5q4mhn3tgd59",825,"114.csv","","null","resources/images/fishbone.png","null","",NA,NA,NA,NA,""
"image-keyboard-response",560,455001,"0.0-3.183-0.183","b6b5q4mhn3tgd59",825,"114.csv","","297.2999999523163","resources/trios/L1T2A2.jpg","37","restless",0.3,0.5,0.6,0.708860079551629,"false"
"image-keyboard-response",561,455412,"0.0-3.183-1.183","b6b5q4mhn3tgd59",825,"114.csv","","null","resources/maskTrios/L1BB.jpg","null","",NA,NA,NA,NA,""
"image-keyboard-response",562,456619,"0.0-3.183-2.183","b6b5q4mhn3tgd59",825,"114.csv","","null","resources/images/fishbone.png","null","",NA,NA,NA,NA,""
"image-keyboard-response",563,456859,"0.0-3.184-0.184","b6b5q4mhn3tgd59",825,"114.csv","","238","resources/trios/L4T4A1.jpg","37","restless",0.3,0.5,0.6,0.0938983319747473,"true"
"image-keyboard-response",564,457271,"0.0-3.184-1.184","b6b5q4mhn3tgd59",825,"114.csv","","null","resources/maskTrios/L4BB.jpg","null","",NA,NA,NA,NA,""
"image-keyboard-response",565,458479,"0.0-3.184-2.184","b6b5q4mhn3tgd59",825,"114.csv","","null","resources/images/coin2.png","null","",NA,NA,NA,NA,""
"image-keyboard-response",566,458682,"0.0-3.185-0.185","b6b5q4mhn3tgd59",825,"114.csv","","200.89999985694885","resources/trios/L4T4A2.jpg","37","restless",0.3,0.5,0.6,0.977283852348831,"false"
"image-keyboard-response",567,459091,"0.0-3.185-1.185","b6b5q4mhn3tgd59",825,"114.csv","","null","resources/maskTrios/L4BB.jpg","null","",NA,NA,NA,NA,""
"image-keyboard-response",568,460303,"0.0-3.185-2.185","b6b5q4mhn3tgd59",825,"114.csv","","null","resources/images/fishbone.png","null","",NA,NA,NA,NA,""
"image-keyboard-response",569,460865,"0.0-3.186-0.186","b6b5q4mhn3tgd59",825,"114.csv","","559.2000000476837","resources/trios/L4T2A2.jpg","37","restless",0.3,0.5,0.6,0.824807969458066,"false"
"image-keyboard-response",570,461279,"0.0-3.186-1.186","b6b5q4mhn3tgd59",825,"114.csv","","null","resources/maskTrios/L4BB.jpg","null","",NA,NA,NA,NA,""
"image-keyboard-response",571,462487,"0.0-3.186-2.186","b6b5q4mhn3tgd59",825,"114.csv","","null","resources/images/fishbone.png","null","",NA,NA,NA,NA,""
"image-keyboard-response",572,462730,"0.0-3.187-0.187","b6b5q4mhn3tgd59",825,"114.csv","","240.90000009536743","resources/trios/L1T2A2.jpg","37","restless",0.3,0.5,0.6,0.250432672234173,"true"
"image-keyboard-response",573,463139,"0.0-3.187-1.187","b6b5q4mhn3tgd59",825,"114.csv","","null","resources/maskTrios/L1BB.jpg","null","",NA,NA,NA,NA,""
"image-keyboard-response",574,464351,"0.0-3.187-2.187","b6b5q4mhn3tgd59",825,"114.csv","","null","resources/images/coin2.png","null","",NA,NA,NA,NA,""
"image-keyboard-response",575,464795,"0.0-3.188-0.188","b6b5q4mhn3tgd59",825,"114.csv","","441.7999999523163","resources/trios/L4T2A1.jpg","37","restless",0.3,0.5,0.6,0.494029834528443,"false"
"image-keyboard-response",576,465205,"0.0-3.188-1.188","b6b5q4mhn3tgd59",825,"114.csv","","null","resources/maskTrios/L4BB.jpg","null","",NA,NA,NA,NA,""
"image-keyboard-response",577,466415,"0.0-3.188-2.188","b6b5q4mhn3tgd59",825,"114.csv","","null","resources/images/fishbone.png","null","",NA,NA,NA,NA,""
"image-keyboard-response",578,466644,"0.0-3.189-0.189","b6b5q4mhn3tgd59",825,"114.csv","","227.5","resources/trios/L4T4A1.jpg","38","restless",0.3,0.5,0.6,0.263619761799806,"true"
"image-keyboard-response",579,467055,"0.0-3.189-1.189","b6b5q4mhn3tgd59",825,"114.csv","","null","resources/maskTrios/BT4B.jpg","null","",NA,NA,NA,NA,""
"image-keyboard-response",580,468261,"0.0-3.189-2.189","b6b5q4mhn3tgd59",825,"114.csv","","null","resources/images/coin2.png","null","",NA,NA,NA,NA,""
"image-keyboard-response",581,468587,"0.0-3.190-0.190","b6b5q4mhn3tgd59",825,"114.csv","","323.90000009536743","resources/trios/L4T2A1.jpg","38","restless",0.3,0.5,0.6,0.818675307046904,"false"
"image-keyboard-response",582,468999,"0.0-3.190-1.190","b6b5q4mhn3tgd59",825,"114.csv","","null","resources/maskTrios/BT2B.jpg","null","",NA,NA,NA,NA,""
"image-keyboard-response",583,470205,"0.0-3.190-2.190","b6b5q4mhn3tgd59",825,"114.csv","","null","resources/images/fishbone.png","null","",NA,NA,NA,NA,""
"image-keyboard-response",584,470715,"0.0-3.191-0.191","b6b5q4mhn3tgd59",825,"114.csv","","508.7000000476837","resources/trios/L1T2A1.jpg","37","restless",0.3,0.4,0.6,0.179983948400771,"true"
"image-keyboard-response",585,471126,"0.0-3.191-1.191","b6b5q4mhn3tgd59",825,"114.csv","","null","resources/maskTrios/L1BB.jpg","null","",NA,NA,NA,NA,""
"image-keyboard-response",586,472332,"0.0-3.191-2.191","b6b5q4mhn3tgd59",825,"114.csv","","null","resources/images/coin2.png","null","",NA,NA,NA,NA,""
"image-keyboard-response",587,472860,"0.0-3.192-0.192","b6b5q4mhn3tgd59",825,"114.csv","","525.6999998092651","resources/trios/L4T4A2.jpg","39","restless",0.3,0.4,0.6,0.00755691183085672,"true"
"image-keyboard-response",588,473267,"0.0-3.192-1.192","b6b5q4mhn3tgd59",825,"114.csv","","null","resources/maskTrios/BBA2.jpg","null","",NA,NA,NA,NA,""
"image-keyboard-response",589,474475,"0.0-3.192-2.192","b6b5q4mhn3tgd59",825,"114.csv","","null","resources/images/coin2.png","null","",NA,NA,NA,NA,""
"image-keyboard-response",590,474884,"0.0-3.193-0.193","b6b5q4mhn3tgd59",825,"114.csv","","407.7000000476837","resources/trios/L4T4A1.jpg","37","restless",0.3,0.4,0.6,0.705897492902428,"false"
"image-keyboard-response",591,475295,"0.0-3.193-1.193","b6b5q4mhn3tgd59",825,"114.csv","","null","resources/maskTrios/L4BB.jpg","null","",NA,NA,NA,NA,""
"image-keyboard-response",592,476503,"0.0-3.193-2.193","b6b5q4mhn3tgd59",825,"114.csv","","null","resources/images/fishbone.png","null","",NA,NA,NA,NA,""
"image-keyboard-response",593,476856,"0.0-3.194-0.194","b6b5q4mhn3tgd59",825,"114.csv","","351.5","resources/trios/L1T2A2.jpg","38","restless",0.3,0.4,0.6,0.186133328396234,"true"
"image-keyboard-response",594,477271,"0.0-3.194-1.194","b6b5q4mhn3tgd59",825,"114.csv","","null","resources/maskTrios/BT2B.jpg","null","",NA,NA,NA,NA,""
"image-keyboard-response",595,478479,"0.0-3.194-2.194","b6b5q4mhn3tgd59",825,"114.csv","","null","resources/images/coin2.png","null","",NA,NA,NA,NA,""
"image-keyboard-response",596,479090,"0.0-3.195-0.195","b6b5q4mhn3tgd59",825,"114.csv","","609.0999999046326","resources/trios/L4T4A2.jpg","37","restless",0.3,0.4,0.6,0.584679063026935,"false"
"image-keyboard-response",597,479498,"0.0-3.195-1.195","b6b5q4mhn3tgd59",825,"114.csv","","null","resources/maskTrios/L4BB.jpg","null","",NA,NA,NA,NA,""
"image-keyboard-response",598,480710,"0.0-3.195-2.195","b6b5q4mhn3tgd59",825,"114.csv","","null","resources/images/fishbone.png","null","",NA,NA,NA,NA,""
"image-keyboard-response",599,481149,"0.0-3.196-0.196","b6b5q4mhn3tgd59",825,"114.csv","","437.5","resources/trios/L4T2A2.jpg","37","restless",0.3,0.4,0.7,0.641965466149292,"false"
"image-keyboard-response",600,481559,"0.0-3.196-1.196","b6b5q4mhn3tgd59",825,"114.csv","","null","resources/maskTrios/L4BB.jpg","null","",NA,NA,NA,NA,""
"image-keyboard-response",601,482762,"0.0-3.196-2.196","b6b5q4mhn3tgd59",825,"114.csv","","null","resources/images/fishbone.png","null","",NA,NA,NA,NA,""
"image-keyboard-response",602,483146,"0.0-3.197-0.197","b6b5q4mhn3tgd59",825,"114.csv","","381.7999999523163","resources/trios/L1T4A2.jpg","37","restless",0.3,0.4,0.7,0.0436238014188739,"true"
"image-keyboard-response",603,483558,"0.0-3.197-1.197","b6b5q4mhn3tgd59",825,"114.csv","","null","resources/maskTrios/L1BB.jpg","null","",NA,NA,NA,NA,""
"image-keyboard-response",604,484767,"0.0-3.197-2.197","b6b5q4mhn3tgd59",825,"114.csv","","null","resources/images/coin2.png","null","",NA,NA,NA,NA,""
"image-keyboard-response",605,485137,"0.0-3.198-0.198","b6b5q4mhn3tgd59",825,"114.csv","","367.5","resources/trios/L1T4A2.jpg","38","restless",0.3,0.4,0.7,0.613668187887211,"false"
