"trial_type","trial_index","time_elapsed","internal_node_id","subject","participantCode","walkNumber","success","rt","stimulus","key_press","test_part","leftProb","midProb","rightProb","generatedNum","correct"
"pavlovia",0,1247,"0.0-0.0","q6zv07l7cyjkjbt",768,"196.csv","","","","","",NA,NA,NA,NA,""
"fullscreen",1,8059,"0.0-1.0","q6zv07l7cyjkjbt",768,"196.csv","true","","","","",NA,NA,NA,NA,""
"html-keyboard-response",2,25772,"0.0-2.0-0.0","q6zv07l7cyjkjbt",768,"196.csv","","17711.899999976158","<p><font size='6'>Arrrgh!</p></font><p>Can you be the best pirate? Try to find lots of gold! But beware, some islands have more gold than others, and over time, the island with the most gold may change. Can YOU figure it out? </p><font size='6'>GOOD LUCK, CAPTAIN!!!</font><p>Press any key to begin</p>","32","",NA,NA,NA,NA,""
"image-keyboard-response",3,28778,"0.0-2.0-1.0","q6zv07l7cyjkjbt",768,"196.csv","","null","resources/image_sets/111.png","null","",NA,NA,NA,NA,""
"image-keyboard-response",4,38704,"0.0-2.0-2.0","q6zv07l7cyjkjbt",768,"196.csv","","9925.09999999404","resources/image_sets/left_highlight.png","37","",NA,NA,NA,NA,""
"image-keyboard-response",5,41341,"0.0-2.0-3.0","q6zv07l7cyjkjbt",768,"196.csv","","2636.199999988079","resources/image_sets/mid_highlight.png","38","",NA,NA,NA,NA,""
"image-keyboard-response",6,43892,"0.0-2.0-4.0","q6zv07l7cyjkjbt",768,"196.csv","","2550.5999999940395","resources/image_sets/right_highlight.png","39","",NA,NA,NA,NA,""
"image-keyboard-response",7,50808,"0.0-2.0-5.0","q6zv07l7cyjkjbt",768,"196.csv","","6915.5","resources/image_sets/111.png","13","",NA,NA,NA,NA,""
"image-keyboard-response",8,54716,"0.0-2.0-6.0","q6zv07l7cyjkjbt",768,"196.csv","","3907","resources/images/coin2.png","13","",NA,NA,NA,NA,""
"image-keyboard-response",9,56680,"0.0-2.0-7.0","q6zv07l7cyjkjbt",768,"196.csv","","1962.699999988079","resources/images/fishbone.png","13","",NA,NA,NA,NA,""
"html-keyboard-response",10,63185,"0.0-2.0-8.0","q6zv07l7cyjkjbt",768,"196.csv","","6504","<p>Your first journey will be a long one, but you will get a well deserved break at the end</p><p>After the break you will have four more journeys, but each will be much shorter than the first, and you will have breaks in between each</p><p>Press Enter to begin</p>","13","",NA,NA,NA,NA,""
"image-keyboard-response",11,64903,"0.0-3.0-0.0","q6zv07l7cyjkjbt",768,"196.csv","","1716.699999988079","resources/trios/L2T4A1.jpg","38","restless",0.9,0.7,0.3,0.117719336601257,"true"
"image-keyboard-response",12,65307,"0.0-3.0-1.0","q6zv07l7cyjkjbt",768,"196.csv","","null","resources/maskTrios/BT4B.jpg","null","",NA,NA,NA,NA,""
"image-keyboard-response",13,66511,"0.0-3.0-2.0","q6zv07l7cyjkjbt",768,"196.csv","","null","resources/images/coin2.png","null","",NA,NA,NA,NA,""
"image-keyboard-response",14,67882,"0.0-3.1-0.1","q6zv07l7cyjkjbt",768,"196.csv","","1368.9000000059605","resources/trios/L4T4A1.jpg","38","restless",0.9,0.7,0.3,0.725076149432718,"false"
"image-keyboard-response",15,68288,"0.0-3.1-1.1","q6zv07l7cyjkjbt",768,"196.csv","","null","resources/maskTrios/BT4B.jpg","null","",NA,NA,NA,NA,""
"image-keyboard-response",16,69494,"0.0-3.1-2.1","q6zv07l7cyjkjbt",768,"196.csv","","null","resources/images/fishbone.png","null","",NA,NA,NA,NA,""
"image-keyboard-response",17,70550,"0.0-3.2-0.2","q6zv07l7cyjkjbt",768,"196.csv","","1055","resources/trios/L4T1A1.jpg","37","restless",0.9,0.7,0.2,0.135073888775806,"true"
"image-keyboard-response",18,70955,"0.0-3.2-1.2","q6zv07l7cyjkjbt",768,"196.csv","","null","resources/maskTrios/L4BB.jpg","null","",NA,NA,NA,NA,""
"image-keyboard-response",19,72160,"0.0-3.2-2.2","q6zv07l7cyjkjbt",768,"196.csv","","null","resources/images/coin2.png","null","",NA,NA,NA,NA,""
"image-keyboard-response",20,73698,"0.0-3.3-0.3","q6zv07l7cyjkjbt",768,"196.csv","","1536.300000011921","resources/trios/L4T1A3.jpg","39","restless",0.9,0.7,0.2,0.954648209914572,"false"
"image-keyboard-response",21,74099,"0.0-3.3-1.3","q6zv07l7cyjkjbt",768,"196.csv","","null","resources/maskTrios/BBA3.jpg","null","",NA,NA,NA,NA,""
"image-keyboard-response",22,75303,"0.0-3.3-2.3","q6zv07l7cyjkjbt",768,"196.csv","","null","resources/images/fishbone.png","null","",NA,NA,NA,NA,""
"image-keyboard-response",23,76033,"0.0-3.4-0.4","q6zv07l7cyjkjbt",768,"196.csv","","728.2000000178814","resources/trios/L2T4A1.jpg","38","restless",0.9,0.7,0.2,0.228532725097321,"true"
"image-keyboard-response",24,76440,"0.0-3.4-1.4","q6zv07l7cyjkjbt",768,"196.csv","","null","resources/maskTrios/BT4B.jpg","null","",NA,NA,NA,NA,""
"image-keyboard-response",25,77643,"0.0-3.4-2.4","q6zv07l7cyjkjbt",768,"196.csv","","null","resources/images/coin2.png","null","",NA,NA,NA,NA,""
"image-keyboard-response",26,79135,"0.0-3.5-0.5","q6zv07l7cyjkjbt",768,"196.csv","","1489.5","resources/trios/L4T1A3.jpg","38","restless",0.9,0.7,0.2,0.685732463839453,"true"
"image-keyboard-response",27,79540,"0.0-3.5-1.5","q6zv07l7cyjkjbt",768,"196.csv","","null","resources/maskTrios/BT1B.jpg","null","",NA,NA,NA,NA,""
"image-keyboard-response",28,80743,"0.0-3.5-2.5","q6zv07l7cyjkjbt",768,"196.csv","","null","resources/images/coin2.png","null","",NA,NA,NA,NA,""
"image-keyboard-response",29,81460,"0.0-3.6-0.6","q6zv07l7cyjkjbt",768,"196.csv","","715.5","resources/trios/L4T4A1.jpg","38","restless",0.9,0.7,0.2,0.230140522156334,"true"
"image-keyboard-response",30,81865,"0.0-3.6-1.6","q6zv07l7cyjkjbt",768,"196.csv","","null","resources/maskTrios/BT4B.jpg","null","",NA,NA,NA,NA,""
"image-keyboard-response",31,83067,"0.0-3.6-2.6","q6zv07l7cyjkjbt",768,"196.csv","","null","resources/images/coin2.png","null","",NA,NA,NA,NA,""
"image-keyboard-response",32,84128,"0.0-3.7-0.7","q6zv07l7cyjkjbt",768,"196.csv","","1060","resources/trios/L2T1A1.jpg","38","restless",0.9,0.7,0.2,0.074802250203136,"true"
"image-keyboard-response",33,84533,"0.0-3.7-1.7","q6zv07l7cyjkjbt",768,"196.csv","","null","resources/maskTrios/BT1B.jpg","null","",NA,NA,NA,NA,""
"image-keyboard-response",34,85736,"0.0-3.7-2.7","q6zv07l7cyjkjbt",768,"196.csv","","null","resources/images/coin2.png","null","",NA,NA,NA,NA,""
"image-keyboard-response",35,86760,"0.0-3.8-0.8","q6zv07l7cyjkjbt",768,"196.csv","","1022.9000000059605","resources/trios/L4T1A1.jpg","38","restless",0.9,0.7,0.2,0.337703963777513,"true"
"image-keyboard-response",36,87163,"0.0-3.8-1.8","q6zv07l7cyjkjbt",768,"196.csv","","null","resources/maskTrios/BT1B.jpg","null","",NA,NA,NA,NA,""
"image-keyboard-response",37,88365,"0.0-3.8-2.8","q6zv07l7cyjkjbt",768,"196.csv","","null","resources/images/coin2.png","null","",NA,NA,NA,NA,""
"image-keyboard-response",38,89051,"0.0-3.9-0.9","q6zv07l7cyjkjbt",768,"196.csv","","684.5","resources/trios/L2T1A1.jpg","38","restless",0.9,0.7,0.2,0.780570321886429,"false"
"image-keyboard-response",39,89452,"0.0-3.9-1.9","q6zv07l7cyjkjbt",768,"196.csv","","null","resources/maskTrios/BT1B.jpg","null","",NA,NA,NA,NA,""
"image-keyboard-response",40,90657,"0.0-3.9-2.9","q6zv07l7cyjkjbt",768,"196.csv","","null","resources/images/fishbone.png","null","",NA,NA,NA,NA,""
"image-keyboard-response",41,91430,"0.0-3.10-0.10","q6zv07l7cyjkjbt",768,"196.csv","","771.1999999880791","resources/trios/L2T1A1.jpg","38","restless",0.9,0.6,0.2,0.999764533605649,"false"
"image-keyboard-response",42,91833,"0.0-3.10-1.10","q6zv07l7cyjkjbt",768,"196.csv","","null","resources/maskTrios/BT1B.jpg","null","",NA,NA,NA,NA,""
"image-keyboard-response",43,93039,"0.0-3.10-2.10","q6zv07l7cyjkjbt",768,"196.csv","","null","resources/images/fishbone.png","null","",NA,NA,NA,NA,""
"image-keyboard-response",44,93665,"0.0-3.11-0.11","q6zv07l7cyjkjbt",768,"196.csv","","625.4000000059605","resources/trios/L2T4A3.jpg","37","restless",0.9,0.6,0.2,0.266001968809306,"true"
"image-keyboard-response",45,94069,"0.0-3.11-1.11","q6zv07l7cyjkjbt",768,"196.csv","","null","resources/maskTrios/L2BB.jpg","null","",NA,NA,NA,NA,""
"image-keyboard-response",46,95270,"0.0-3.11-2.11","q6zv07l7cyjkjbt",768,"196.csv","","null","resources/images/coin2.png","null","",NA,NA,NA,NA,""
"image-keyboard-response",47,97131,"0.0-3.12-0.12","q6zv07l7cyjkjbt",768,"196.csv","","1859.699999988079","resources/trios/L4T1A3.jpg","38","restless",0.9,0.6,0.2,0.328181182433998,"true"
"image-keyboard-response",48,97537,"0.0-3.12-1.12","q6zv07l7cyjkjbt",768,"196.csv","","null","resources/maskTrios/BT1B.jpg","null","",NA,NA,NA,NA,""
"image-keyboard-response",49,98743,"0.0-3.12-2.12","q6zv07l7cyjkjbt",768,"196.csv","","null","resources/images/coin2.png","null","",NA,NA,NA,NA,""
"image-keyboard-response",50,99653,"0.0-3.13-0.13","q6zv07l7cyjkjbt",768,"196.csv","","908.2000000178814","resources/trios/L4T1A1.jpg","38","restless",0.9,0.6,0.2,0.408538502137182,"true"
"image-keyboard-response",51,100056,"0.0-3.13-1.13","q6zv07l7cyjkjbt",768,"196.csv","","null","resources/maskTrios/BT1B.jpg","null","",NA,NA,NA,NA,""
"image-keyboard-response",52,101259,"0.0-3.13-2.13","q6zv07l7cyjkjbt",768,"196.csv","","null","resources/images/coin2.png","null","",NA,NA,NA,NA,""
"image-keyboard-response",53,102066,"0.0-3.14-0.14","q6zv07l7cyjkjbt",768,"196.csv","","804.5999999940395","resources/trios/L2T4A3.jpg","37","restless",0.9,0.6,0.3,0.287918174439737,"true"
"image-keyboard-response",54,102470,"0.0-3.14-1.14","q6zv07l7cyjkjbt",768,"196.csv","","null","resources/maskTrios/L2BB.jpg","null","",NA,NA,NA,NA,""
"image-keyboard-response",55,103676,"0.0-3.14-2.14","q6zv07l7cyjkjbt",768,"196.csv","","null","resources/images/coin2.png","null","",NA,NA,NA,NA,""
"image-keyboard-response",56,105106,"0.0-3.15-0.15","q6zv07l7cyjkjbt",768,"196.csv","","1428.0999999940395","resources/trios/L4T4A3.jpg","38","restless",0.9,0.6,0.2,0.0392740198671711,"true"
"image-keyboard-response",57,105510,"0.0-3.15-1.15","q6zv07l7cyjkjbt",768,"196.csv","","null","resources/maskTrios/BT4B.jpg","null","",NA,NA,NA,NA,""
"image-keyboard-response",58,106712,"0.0-3.15-2.15","q6zv07l7cyjkjbt",768,"196.csv","","null","resources/images/coin2.png","null","",NA,NA,NA,NA,""
"image-keyboard-response",59,108084,"0.0-3.16-0.16","q6zv07l7cyjkjbt",768,"196.csv","","1369.2000000178814","resources/trios/L2T1A3.jpg","37","restless",0.9,0.6,0.2,0.818610562485257,"true"
"image-keyboard-response",60,108489,"0.0-3.16-1.16","q6zv07l7cyjkjbt",768,"196.csv","","null","resources/maskTrios/L2BB.jpg","null","",NA,NA,NA,NA,""
"image-keyboard-response",61,109693,"0.0-3.16-2.16","q6zv07l7cyjkjbt",768,"196.csv","","null","resources/images/coin2.png","null","",NA,NA,NA,NA,""
"image-keyboard-response",62,110834,"0.0-3.17-0.17","q6zv07l7cyjkjbt",768,"196.csv","","1139.0999999940395","resources/trios/L4T1A1.jpg","38","restless",0.9,0.6,0.2,0.727773440314641,"false"
"image-keyboard-response",63,111235,"0.0-3.17-1.17","q6zv07l7cyjkjbt",768,"196.csv","","null","resources/maskTrios/BT1B.jpg","null","",NA,NA,NA,NA,""
"image-keyboard-response",64,112441,"0.0-3.17-2.17","q6zv07l7cyjkjbt",768,"196.csv","","null","resources/images/fishbone.png","null","",NA,NA,NA,NA,""
"image-keyboard-response",65,113422,"0.0-3.18-0.18","q6zv07l7cyjkjbt",768,"196.csv","","979.5999999940395","resources/trios/L4T4A3.jpg","37","restless",0.9,0.6,0.2,0.307539221069044,"true"
"image-keyboard-response",66,113826,"0.0-3.18-1.18","q6zv07l7cyjkjbt",768,"196.csv","","null","resources/maskTrios/L4BB.jpg","null","",NA,NA,NA,NA,""
"image-keyboard-response",67,115029,"0.0-3.18-2.18","q6zv07l7cyjkjbt",768,"196.csv","","null","resources/images/coin2.png","null","",NA,NA,NA,NA,""
"image-keyboard-response",68,116602,"0.0-3.19-0.19","q6zv07l7cyjkjbt",768,"196.csv","","1570.9000000059605","resources/trios/L2T4A3.jpg","38","restless",0.9,0.6,0.2,0.253720834262626,"true"
"image-keyboard-response",69,117005,"0.0-3.19-1.19","q6zv07l7cyjkjbt",768,"196.csv","","null","resources/maskTrios/BT4B.jpg","null","",NA,NA,NA,NA,""
"image-keyboard-response",70,118209,"0.0-3.19-2.19","q6zv07l7cyjkjbt",768,"196.csv","","null","resources/images/coin2.png","null","",NA,NA,NA,NA,""
"image-keyboard-response",71,119032,"0.0-3.20-0.20","q6zv07l7cyjkjbt",768,"196.csv","","821.5","resources/trios/L2T4A1.jpg","37","restless",0.9,0.6,0.2,0.701961189403485,"true"
"image-keyboard-response",72,119434,"0.0-3.20-1.20","q6zv07l7cyjkjbt",768,"196.csv","","null","resources/maskTrios/L2BB.jpg","null","",NA,NA,NA,NA,""
"image-keyboard-response",73,120636,"0.0-3.20-2.20","q6zv07l7cyjkjbt",768,"196.csv","","null","resources/images/coin2.png","null","",NA,NA,NA,NA,""
"image-keyboard-response",74,121383,"0.0-3.21-0.21","q6zv07l7cyjkjbt",768,"196.csv","","745.0999999940395","resources/trios/L4T4A1.jpg","38","restless",0.9,0.6,0.3,0.681743531681904,"false"
"image-keyboard-response",75,121784,"0.0-3.21-1.21","q6zv07l7cyjkjbt",768,"196.csv","","null","resources/maskTrios/BT4B.jpg","null","",NA,NA,NA,NA,""
"image-keyboard-response",76,122988,"0.0-3.21-2.21","q6zv07l7cyjkjbt",768,"196.csv","","null","resources/images/fishbone.png","null","",NA,NA,NA,NA,""
"image-keyboard-response",77,123780,"0.0-3.22-0.22","q6zv07l7cyjkjbt",768,"196.csv","","790.5999999940395","resources/trios/L2T4A1.jpg","37","restless",0.9,0.6,0.3,0.399426876152485,"true"
"image-keyboard-response",78,124183,"0.0-3.22-1.22","q6zv07l7cyjkjbt",768,"196.csv","","null","resources/maskTrios/L2BB.jpg","null","",NA,NA,NA,NA,""
"image-keyboard-response",79,125385,"0.0-3.22-2.22","q6zv07l7cyjkjbt",768,"196.csv","","null","resources/images/coin2.png","null","",NA,NA,NA,NA,""
"image-keyboard-response",80,127430,"0.0-3.23-0.23","q6zv07l7cyjkjbt",768,"196.csv","","2043.0999999940395","resources/trios/L4T1A3.jpg","37","restless",0.9,0.6,0.3,0.481832307772989,"true"
"image-keyboard-response",81,127833,"0.0-3.23-1.23","q6zv07l7cyjkjbt",768,"196.csv","","null","resources/maskTrios/L4BB.jpg","null","",NA,NA,NA,NA,""
"image-keyboard-response",82,129034,"0.0-3.23-2.23","q6zv07l7cyjkjbt",768,"196.csv","","null","resources/images/coin2.png","null","",NA,NA,NA,NA,""
"image-keyboard-response",83,129908,"0.0-3.24-0.24","q6zv07l7cyjkjbt",768,"196.csv","","872.9000000059605","resources/trios/L2T1A3.jpg","37","restless",0.9,0.6,0.3,0.232084462374176,"true"
"image-keyboard-response",84,130311,"0.0-3.24-1.24","q6zv07l7cyjkjbt",768,"196.csv","","null","resources/maskTrios/L2BB.jpg","null","",NA,NA,NA,NA,""
"image-keyboard-response",85,131515,"0.0-3.24-2.24","q6zv07l7cyjkjbt",768,"196.csv","","null","resources/images/coin2.png","null","",NA,NA,NA,NA,""
"image-keyboard-response",86,132172,"0.0-3.25-0.25","q6zv07l7cyjkjbt",768,"196.csv","","655.5999999940395","resources/trios/L2T4A3.jpg","37","restless",0.9,0.6,0.3,0.30273222795809,"true"
"image-keyboard-response",87,132576,"0.0-3.25-1.25","q6zv07l7cyjkjbt",768,"196.csv","","null","resources/maskTrios/L2BB.jpg","null","",NA,NA,NA,NA,""
"image-keyboard-response",88,133779,"0.0-3.25-2.25","q6zv07l7cyjkjbt",768,"196.csv","","null","resources/images/coin2.png","null","",NA,NA,NA,NA,""
"image-keyboard-response",89,134384,"0.0-3.26-0.26","q6zv07l7cyjkjbt",768,"196.csv","","603.5999999940395","resources/trios/L4T4A1.jpg","37","restless",0.9,0.6,0.3,0.181715404813089,"true"
"image-keyboard-response",90,134786,"0.0-3.26-1.26","q6zv07l7cyjkjbt",768,"196.csv","","null","resources/maskTrios/L4BB.jpg","null","",NA,NA,NA,NA,""
"image-keyboard-response",91,135992,"0.0-3.26-2.26","q6zv07l7cyjkjbt",768,"196.csv","","null","resources/images/coin2.png","null","",NA,NA,NA,NA,""
"image-keyboard-response",92,136576,"0.0-3.27-0.27","q6zv07l7cyjkjbt",768,"196.csv","","581.9000000059605","resources/trios/L2T4A1.jpg","37","restless",0.9,0.6,0.3,0.643421201000834,"true"
"image-keyboard-response",93,136979,"0.0-3.27-1.27","q6zv07l7cyjkjbt",768,"196.csv","","null","resources/maskTrios/L2BB.jpg","null","",NA,NA,NA,NA,""
"image-keyboard-response",94,138181,"0.0-3.27-2.27","q6zv07l7cyjkjbt",768,"196.csv","","null","resources/images/coin2.png","null","",NA,NA,NA,NA,""
"image-keyboard-response",95,138651,"0.0-3.28-0.28","q6zv07l7cyjkjbt",768,"196.csv","","468.5","resources/trios/L2T1A1.jpg","37","restless",0.9,0.6,0.3,0.864984815186567,"true"
"image-keyboard-response",96,139053,"0.0-3.28-1.28","q6zv07l7cyjkjbt",768,"196.csv","","null","resources/maskTrios/L2BB.jpg","null","",NA,NA,NA,NA,""
"image-keyboard-response",97,140255,"0.0-3.28-2.28","q6zv07l7cyjkjbt",768,"196.csv","","null","resources/images/coin2.png","null","",NA,NA,NA,NA,""
"image-keyboard-response",98,140635,"0.0-3.29-0.29","q6zv07l7cyjkjbt",768,"196.csv","","378.2999999821186","resources/trios/L2T4A1.jpg","37","restless",0.9,0.6,0.3,0.444981941282802,"true"
"image-keyboard-response",99,141039,"0.0-3.29-1.29","q6zv07l7cyjkjbt",768,"196.csv","","null","resources/maskTrios/L2BB.jpg","null","",NA,NA,NA,NA,""
"image-keyboard-response",100,142243,"0.0-3.29-2.29","q6zv07l7cyjkjbt",768,"196.csv","","null","resources/images/coin2.png","null","",NA,NA,NA,NA,""
"image-keyboard-response",101,142645,"0.0-3.30-0.30","q6zv07l7cyjkjbt",768,"196.csv","","400.90000000596046","resources/trios/L4T1A3.jpg","37","restless",0.9,0.6,0.3,0.939029797053035,"false"
"image-keyboard-response",102,143049,"0.0-3.30-1.30","q6zv07l7cyjkjbt",768,"196.csv","","null","resources/maskTrios/L4BB.jpg","null","",NA,NA,NA,NA,""
"image-keyboard-response",103,144252,"0.0-3.30-2.30","q6zv07l7cyjkjbt",768,"196.csv","","null","resources/images/fishbone.png","null","",NA,NA,NA,NA,""
"image-keyboard-response",104,144823,"0.0-3.31-0.31","q6zv07l7cyjkjbt",768,"196.csv","","568.9000000059605","resources/trios/L2T1A1.jpg","37","restless",0.9,0.6,0.3,0.784800265958536,"true"
"image-keyboard-response",105,145226,"0.0-3.31-1.31","q6zv07l7cyjkjbt",768,"196.csv","","null","resources/maskTrios/L2BB.jpg","null","",NA,NA,NA,NA,""
"image-keyboard-response",106,146428,"0.0-3.31-2.31","q6zv07l7cyjkjbt",768,"196.csv","","null","resources/images/coin2.png","null","",NA,NA,NA,NA,""
"image-keyboard-response",107,147337,"0.0-3.32-0.32","q6zv07l7cyjkjbt",768,"196.csv","","907.3000000119209","resources/trios/L4T4A1.jpg","38","restless",0.9,0.6,0.2,0.31883391195794,"true"
"image-keyboard-response",108,147743,"0.0-3.32-1.32","q6zv07l7cyjkjbt",768,"196.csv","","null","resources/maskTrios/BT4B.jpg","null","",NA,NA,NA,NA,""
"image-keyboard-response",109,148946,"0.0-3.32-2.32","q6zv07l7cyjkjbt",768,"196.csv","","null","resources/images/coin2.png","null","",NA,NA,NA,NA,""
"image-keyboard-response",110,150097,"0.0-3.33-0.33","q6zv07l7cyjkjbt",768,"196.csv","","1149.699999988079","resources/trios/L4T4A3.jpg","38","restless",0.9,0.6,0.2,0.547247268832143,"true"
"image-keyboard-response",111,150503,"0.0-3.33-1.33","q6zv07l7cyjkjbt",768,"196.csv","","null","resources/maskTrios/BT4B.jpg","null","",NA,NA,NA,NA,""
"image-keyboard-response",112,151709,"0.0-3.33-2.33","q6zv07l7cyjkjbt",768,"196.csv","","null","resources/images/coin2.png","null","",NA,NA,NA,NA,""
"image-keyboard-response",113,152466,"0.0-3.34-0.34","q6zv07l7cyjkjbt",768,"196.csv","","754.8000000119209","resources/trios/L2T4A3.jpg","38","restless",0.9,0.6,0.2,0.234229823332212,"true"
"image-keyboard-response",114,152871,"0.0-3.34-1.34","q6zv07l7cyjkjbt",768,"196.csv","","null","resources/maskTrios/BT4B.jpg","null","",NA,NA,NA,NA,""
"image-keyboard-response",115,154076,"0.0-3.34-2.34","q6zv07l7cyjkjbt",768,"196.csv","","null","resources/images/coin2.png","null","",NA,NA,NA,NA,""
"image-keyboard-response",116,155610,"0.0-3.35-0.35","q6zv07l7cyjkjbt",768,"196.csv","","1533.300000011921","resources/trios/L2T1A1.jpg","37","restless",0.9,0.6,0.2,0.494919508292578,"true"
"image-keyboard-response",117,156016,"0.0-3.35-1.35","q6zv07l7cyjkjbt",768,"196.csv","","null","resources/maskTrios/L2BB.jpg","null","",NA,NA,NA,NA,""
"image-keyboard-response",118,157218,"0.0-3.35-2.35","q6zv07l7cyjkjbt",768,"196.csv","","null","resources/images/coin2.png","null","",NA,NA,NA,NA,""
"image-keyboard-response",119,158150,"0.0-3.36-0.36","q6zv07l7cyjkjbt",768,"196.csv","","929.9000000059605","resources/trios/L2T1A3.jpg","37","restless",0.9,0.6,0.2,0.530840058879202,"true"
"image-keyboard-response",120,158551,"0.0-3.36-1.36","q6zv07l7cyjkjbt",768,"196.csv","","null","resources/maskTrios/L2BB.jpg","null","",NA,NA,NA,NA,""
"image-keyboard-response",121,159754,"0.0-3.36-2.36","q6zv07l7cyjkjbt",768,"196.csv","","null","resources/images/coin2.png","null","",NA,NA,NA,NA,""
"image-keyboard-response",122,162398,"0.0-3.37-0.37","q6zv07l7cyjkjbt",768,"196.csv","","2642.5","resources/trios/L4T4A1.jpg","38","restless",0.8,0.6,0.2,0.788591436915036,"false"
"image-keyboard-response",123,162802,"0.0-3.37-1.37","q6zv07l7cyjkjbt",768,"196.csv","","null","resources/maskTrios/BT4B.jpg","null","",NA,NA,NA,NA,""
"image-keyboard-response",124,164005,"0.0-3.37-2.37","q6zv07l7cyjkjbt",768,"196.csv","","null","resources/images/fishbone.png","null","",NA,NA,NA,NA,""
"image-keyboard-response",125,165256,"0.0-3.38-0.38","q6zv07l7cyjkjbt",768,"196.csv","","1250.1000000238419","resources/trios/L4T1A1.jpg","39","restless",0.8,0.6,0.3,0.261943695210253,"true"
"image-keyboard-response",126,165659,"0.0-3.38-1.38","q6zv07l7cyjkjbt",768,"196.csv","","null","resources/maskTrios/BBA1.jpg","null","",NA,NA,NA,NA,""
"image-keyboard-response",127,166863,"0.0-3.38-2.38","q6zv07l7cyjkjbt",768,"196.csv","","null","resources/images/coin2.png","null","",NA,NA,NA,NA,""
"image-keyboard-response",128,168306,"0.0-3.39-0.39","q6zv07l7cyjkjbt",768,"196.csv","","1441","resources/trios/L2T4A3.jpg","37","restless",0.8,0.7,0.3,0.61409561156103,"true"
"image-keyboard-response",129,168709,"0.0-3.39-1.39","q6zv07l7cyjkjbt",768,"196.csv","","null","resources/maskTrios/L2BB.jpg","null","",NA,NA,NA,NA,""
"image-keyboard-response",130,169913,"0.0-3.39-2.39","q6zv07l7cyjkjbt",768,"196.csv","","null","resources/images/coin2.png","null","",NA,NA,NA,NA,""
"image-keyboard-response",131,170794,"0.0-3.40-0.40","q6zv07l7cyjkjbt",768,"196.csv","","879.9000000059605","resources/trios/L2T1A1.jpg","39","restless",0.8,0.7,0.3,0.321993016260226,"false"
"image-keyboard-response",132,171200,"0.0-3.40-1.40","q6zv07l7cyjkjbt",768,"196.csv","","null","resources/maskTrios/BBA1.jpg","null","",NA,NA,NA,NA,""
"image-keyboard-response",133,172401,"0.0-3.40-2.40","q6zv07l7cyjkjbt",768,"196.csv","","null","resources/images/fishbone.png","null","",NA,NA,NA,NA,""
"image-keyboard-response",134,173233,"0.0-3.41-0.41","q6zv07l7cyjkjbt",768,"196.csv","","829.7000000178814","resources/trios/L4T4A3.jpg","38","restless",0.8,0.8,0.3,0.993875588370459,"false"
"image-keyboard-response",135,173634,"0.0-3.41-1.41","q6zv07l7cyjkjbt",768,"196.csv","","null","resources/maskTrios/BT4B.jpg","null","",NA,NA,NA,NA,""
"image-keyboard-response",136,174835,"0.0-3.41-2.41","q6zv07l7cyjkjbt",768,"196.csv","","null","resources/images/fishbone.png","null","",NA,NA,NA,NA,""
"image-keyboard-response",137,175837,"0.0-3.42-0.42","q6zv07l7cyjkjbt",768,"196.csv","","1000.2999999821186","resources/trios/L4T1A1.jpg","38","restless",0.8,0.8,0.3,0.0285336516823225,"true"
"image-keyboard-response",138,176242,"0.0-3.42-1.42","q6zv07l7cyjkjbt",768,"196.csv","","null","resources/maskTrios/BT1B.jpg","null","",NA,NA,NA,NA,""
"image-keyboard-response",139,177444,"0.0-3.42-2.42","q6zv07l7cyjkjbt",768,"196.csv","","null","resources/images/coin2.png","null","",NA,NA,NA,NA,""
"image-keyboard-response",140,178130,"0.0-3.43-0.43","q6zv07l7cyjkjbt",768,"196.csv","","684.0999999940395","resources/trios/L4T1A3.jpg","38","restless",0.8,0.8,0.3,0.482016698600784,"true"
"image-keyboard-response",141,178536,"0.0-3.43-1.43","q6zv07l7cyjkjbt",768,"196.csv","","null","resources/maskTrios/BT1B.jpg","null","",NA,NA,NA,NA,""
"image-keyboard-response",142,179742,"0.0-3.43-2.43","q6zv07l7cyjkjbt",768,"196.csv","","null","resources/images/coin2.png","null","",NA,NA,NA,NA,""
"image-keyboard-response",143,180379,"0.0-3.44-0.44","q6zv07l7cyjkjbt",768,"196.csv","","635.8000000119209","resources/trios/L4T1A3.jpg","38","restless",0.7,0.8,0.3,0.941451294071159,"false"
"image-keyboard-response",144,180782,"0.0-3.44-1.44","q6zv07l7cyjkjbt",768,"196.csv","","null","resources/maskTrios/BT1B.jpg","null","",NA,NA,NA,NA,""
"image-keyboard-response",145,181986,"0.0-3.44-2.44","q6zv07l7cyjkjbt",768,"196.csv","","null","resources/images/fishbone.png","null","",NA,NA,NA,NA,""
"image-keyboard-response",146,182420,"0.0-3.45-0.45","q6zv07l7cyjkjbt",768,"196.csv","","432.59999999403954","resources/trios/L2T4A3.jpg","37","restless",0.8,0.8,0.3,0.55403017150303,"true"
"image-keyboard-response",147,182826,"0.0-3.45-1.45","q6zv07l7cyjkjbt",768,"196.csv","","null","resources/maskTrios/L2BB.jpg","null","",NA,NA,NA,NA,""
"image-keyboard-response",148,184029,"0.0-3.45-2.45","q6zv07l7cyjkjbt",768,"196.csv","","null","resources/images/coin2.png","null","",NA,NA,NA,NA,""
"image-keyboard-response",149,185333,"0.0-3.46-0.46","q6zv07l7cyjkjbt",768,"196.csv","","1303.4000000059605","resources/trios/L4T1A1.jpg","39","restless",0.8,0.8,0.3,0.715405145598282,"false"
"image-keyboard-response",150,185735,"0.0-3.46-1.46","q6zv07l7cyjkjbt",768,"196.csv","","null","resources/maskTrios/BBA1.jpg","null","",NA,NA,NA,NA,""
"image-keyboard-response",151,186939,"0.0-3.46-2.46","q6zv07l7cyjkjbt",768,"196.csv","","null","resources/images/fishbone.png","null","",NA,NA,NA,NA,""
"image-keyboard-response",152,187787,"0.0-3.47-0.47","q6zv07l7cyjkjbt",768,"196.csv","","846.0999999940395","resources/trios/L4T4A1.jpg","37","restless",0.8,0.8,0.3,0.770676895265015,"true"
"image-keyboard-response",153,188192,"0.0-3.47-1.47","q6zv07l7cyjkjbt",768,"196.csv","","null","resources/maskTrios/L4BB.jpg","null","",NA,NA,NA,NA,""
"image-keyboard-response",154,189396,"0.0-3.47-2.47","q6zv07l7cyjkjbt",768,"196.csv","","null","resources/images/coin2.png","null","",NA,NA,NA,NA,""
"image-keyboard-response",155,189992,"0.0-3.48-0.48","q6zv07l7cyjkjbt",768,"196.csv","","594.4000000059605","resources/trios/L2T1A3.jpg","37","restless",0.8,0.8,0.3,0.549542138229343,"true"
"image-keyboard-response",156,190395,"0.0-3.48-1.48","q6zv07l7cyjkjbt",768,"196.csv","","null","resources/maskTrios/L2BB.jpg","null","",NA,NA,NA,NA,""
"image-keyboard-response",157,191599,"0.0-3.48-2.48","q6zv07l7cyjkjbt",768,"196.csv","","null","resources/images/coin2.png","null","",NA,NA,NA,NA,""
"image-keyboard-response",158,192137,"0.0-3.49-0.49","q6zv07l7cyjkjbt",768,"196.csv","","536.7999999821186","resources/trios/L4T4A1.jpg","37","restless",0.8,0.7,0.3,0.515262387090752,"true"
"image-keyboard-response",159,192544,"0.0-3.49-1.49","q6zv07l7cyjkjbt",768,"196.csv","","null","resources/maskTrios/L4BB.jpg","null","",NA,NA,NA,NA,""
"image-keyboard-response",160,193746,"0.0-3.49-2.49","q6zv07l7cyjkjbt",768,"196.csv","","null","resources/images/coin2.png","null","",NA,NA,NA,NA,""
"image-keyboard-response",161,194372,"0.0-3.50-0.50","q6zv07l7cyjkjbt",768,"196.csv","","624.4000000059605","resources/trios/L2T4A3.jpg","37","restless",0.7,0.7,0.3,0.00938345269569085,"true"
"image-keyboard-response",162,194775,"0.0-3.50-1.50","q6zv07l7cyjkjbt",768,"196.csv","","null","resources/maskTrios/L2BB.jpg","null","",NA,NA,NA,NA,""
"image-keyboard-response",163,195978,"0.0-3.50-2.50","q6zv07l7cyjkjbt",768,"196.csv","","null","resources/images/coin2.png","null","",NA,NA,NA,NA,""
"image-keyboard-response",164,196373,"0.0-3.51-0.51","q6zv07l7cyjkjbt",768,"196.csv","","393.40000000596046","resources/trios/L2T4A3.jpg","37","restless",0.7,0.7,0.3,0.125295011869539,"true"
"image-keyboard-response",165,196775,"0.0-3.51-1.51","q6zv07l7cyjkjbt",768,"196.csv","","null","resources/maskTrios/L2BB.jpg","null","",NA,NA,NA,NA,""
"image-keyboard-response",166,197978,"0.0-3.51-2.51","q6zv07l7cyjkjbt",768,"196.csv","","null","resources/images/coin2.png","null","",NA,NA,NA,NA,""
"image-keyboard-response",167,198374,"0.0-3.52-0.52","q6zv07l7cyjkjbt",768,"196.csv","","394.10000002384186","resources/trios/L4T1A1.jpg","37","restless",0.7,0.7,0.3,0.954329657985189,"false"
"image-keyboard-response",168,198775,"0.0-3.52-1.52","q6zv07l7cyjkjbt",768,"196.csv","","null","resources/maskTrios/L4BB.jpg","null","",NA,NA,NA,NA,""
"image-keyboard-response",169,199978,"0.0-3.52-2.52","q6zv07l7cyjkjbt",768,"196.csv","","null","resources/images/fishbone.png","null","",NA,NA,NA,NA,""
"image-keyboard-response",170,200383,"0.0-3.53-0.53","q6zv07l7cyjkjbt",768,"196.csv","","403.59999999403954","resources/trios/L2T4A3.jpg","37","restless",0.6,0.7,0.3,0.697511051083583,"false"
"image-keyboard-response",171,200786,"0.0-3.53-1.53","q6zv07l7cyjkjbt",768,"196.csv","","null","resources/maskTrios/L2BB.jpg","null","",NA,NA,NA,NA,""
"image-keyboard-response",172,201991,"0.0-3.53-2.53","q6zv07l7cyjkjbt",768,"196.csv","","null","resources/images/fishbone.png","null","",NA,NA,NA,NA,""
"image-keyboard-response",173,202934,"0.0-3.54-0.54","q6zv07l7cyjkjbt",768,"196.csv","","941.7000000178814","resources/trios/L2T1A3.jpg","38","restless",0.6,0.7,0.3,0.791644537267737,"false"
"image-keyboard-response",174,203336,"0.0-3.54-1.54","q6zv07l7cyjkjbt",768,"196.csv","","null","resources/maskTrios/BT1B.jpg","null","",NA,NA,NA,NA,""
"image-keyboard-response",175,204542,"0.0-3.54-2.54","q6zv07l7cyjkjbt",768,"196.csv","","null","resources/images/fishbone.png","null","",NA,NA,NA,NA,""
"image-keyboard-response",176,205828,"0.0-3.55-0.55","q6zv07l7cyjkjbt",768,"196.csv","","1284","resources/trios/L4T4A1.jpg","37","restless",0.5,0.7,0.3,0.881900085728045,"false"
"image-keyboard-response",177,206231,"0.0-3.55-1.55","q6zv07l7cyjkjbt",768,"196.csv","","null","resources/maskTrios/L4BB.jpg","null","",NA,NA,NA,NA,""
"image-keyboard-response",178,207433,"0.0-3.55-2.55","q6zv07l7cyjkjbt",768,"196.csv","","null","resources/images/fishbone.png","null","",NA,NA,NA,NA,""
"image-keyboard-response",179,208131,"0.0-3.56-0.56","q6zv07l7cyjkjbt",768,"196.csv","","696.9000000059605","resources/trios/L2T4A3.jpg","39","restless",0.5,0.7,0.4,0.831955274388892,"false"
"image-keyboard-response",180,208535,"0.0-3.56-1.56","q6zv07l7cyjkjbt",768,"196.csv","","null","resources/maskTrios/BBA3.jpg","null","",NA,NA,NA,NA,""
"image-keyboard-response",181,209739,"0.0-3.56-2.56","q6zv07l7cyjkjbt",768,"196.csv","","null","resources/images/fishbone.png","null","",NA,NA,NA,NA,""
"image-keyboard-response",182,210523,"0.0-3.57-0.57","q6zv07l7cyjkjbt",768,"196.csv","","782.7000000178814","resources/trios/L4T1A1.jpg","38","restless",0.5,0.7,0.5,0.920753515473786,"false"
"image-keyboard-response",183,210926,"0.0-3.57-1.57","q6zv07l7cyjkjbt",768,"196.csv","","null","resources/maskTrios/BT1B.jpg","null","",NA,NA,NA,NA,""
"image-keyboard-response",184,212129,"0.0-3.57-2.57","q6zv07l7cyjkjbt",768,"196.csv","","null","resources/images/fishbone.png","null","",NA,NA,NA,NA,""
"image-keyboard-response",185,212853,"0.0-3.58-0.58","q6zv07l7cyjkjbt",768,"196.csv","","722.4000000059605","resources/trios/L4T4A3.jpg","39","restless",0.5,0.7,0.5,0.452869000159376,"true"
"image-keyboard-response",186,213258,"0.0-3.58-1.58","q6zv07l7cyjkjbt",768,"196.csv","","null","resources/maskTrios/BBA3.jpg","null","",NA,NA,NA,NA,""
"image-keyboard-response",187,214460,"0.0-3.58-2.58","q6zv07l7cyjkjbt",768,"196.csv","","null","resources/images/coin2.png","null","",NA,NA,NA,NA,""
"image-keyboard-response",188,214906,"0.0-3.59-0.59","q6zv07l7cyjkjbt",768,"196.csv","","445","resources/trios/L2T1A3.jpg","39","restless",0.5,0.7,0.5,0.668144351532187,"false"
"image-keyboard-response",189,215310,"0.0-3.59-1.59","q6zv07l7cyjkjbt",768,"196.csv","","null","resources/maskTrios/BBA3.jpg","null","",NA,NA,NA,NA,""
"image-keyboard-response",190,216513,"0.0-3.59-2.59","q6zv07l7cyjkjbt",768,"196.csv","","null","resources/images/fishbone.png","null","",NA,NA,NA,NA,""
"image-keyboard-response",191,216911,"0.0-3.60-0.60","q6zv07l7cyjkjbt",768,"196.csv","","396.19999998807907","resources/trios/L4T1A1.jpg","37","restless",0.5,0.7,0.5,0.120860908775116,"true"
"image-keyboard-response",192,217316,"0.0-3.60-1.60","q6zv07l7cyjkjbt",768,"196.csv","","null","resources/maskTrios/L4BB.jpg","null","",NA,NA,NA,NA,""
"image-keyboard-response",193,218517,"0.0-3.60-2.60","q6zv07l7cyjkjbt",768,"196.csv","","null","resources/images/coin2.png","null","",NA,NA,NA,NA,""
"image-keyboard-response",194,219046,"0.0-3.61-0.61","q6zv07l7cyjkjbt",768,"196.csv","","526.6999999880791","resources/trios/L4T4A1.jpg","37","restless",0.5,0.8,0.5,0.856523869555506,"false"
"image-keyboard-response",195,219447,"0.0-3.61-1.61","q6zv07l7cyjkjbt",768,"196.csv","","null","resources/maskTrios/L4BB.jpg","null","",NA,NA,NA,NA,""
"image-keyboard-response",196,220654,"0.0-3.61-2.61","q6zv07l7cyjkjbt",768,"196.csv","","null","resources/images/fishbone.png","null","",NA,NA,NA,NA,""
"image-keyboard-response",197,221179,"0.0-3.62-0.62","q6zv07l7cyjkjbt",768,"196.csv","","523.4000000059605","resources/trios/L2T1A1.jpg","38","restless",0.5,0.8,0.5,0.42192653030646,"true"
"image-keyboard-response",198,221581,"0.0-3.62-1.62","q6zv07l7cyjkjbt",768,"196.csv","","null","resources/maskTrios/BT1B.jpg","null","",NA,NA,NA,NA,""
"image-keyboard-response",199,222783,"0.0-3.62-2.62","q6zv07l7cyjkjbt",768,"196.csv","","null","resources/images/coin2.png","null","",NA,NA,NA,NA,""
"image-keyboard-response",200,223322,"0.0-3.63-0.63","q6zv07l7cyjkjbt",768,"196.csv","","537.4000000059605","resources/trios/L4T4A1.jpg","38","restless",0.5,0.8,0.5,0.597027755874007,"true"
"image-keyboard-response",201,223726,"0.0-3.63-1.63","q6zv07l7cyjkjbt",768,"196.csv","","null","resources/maskTrios/BT4B.jpg","null","",NA,NA,NA,NA,""
"image-keyboard-response",202,224928,"0.0-3.63-2.63","q6zv07l7cyjkjbt",768,"196.csv","","null","resources/images/coin2.png","null","",NA,NA,NA,NA,""
"image-keyboard-response",203,225452,"0.0-3.64-0.64","q6zv07l7cyjkjbt",768,"196.csv","","522.5","resources/trios/L4T1A3.jpg","38","restless",0.5,0.9,0.5,0.110206694307047,"true"
"image-keyboard-response",204,225858,"0.0-3.64-1.64","q6zv07l7cyjkjbt",768,"196.csv","","null","resources/maskTrios/BT1B.jpg","null","",NA,NA,NA,NA,""
"image-keyboard-response",205,227061,"0.0-3.64-2.64","q6zv07l7cyjkjbt",768,"196.csv","","null","resources/images/coin2.png","null","",NA,NA,NA,NA,""
"image-keyboard-response",206,227632,"0.0-3.65-0.65","q6zv07l7cyjkjbt",768,"196.csv","","569.0999999940395","resources/trios/L4T1A3.jpg","38","restless",0.6,0.9,0.5,0.421196959708495,"true"
"image-keyboard-response",207,228037,"0.0-3.65-1.65","q6zv07l7cyjkjbt",768,"196.csv","","null","resources/maskTrios/BT1B.jpg","null","",NA,NA,NA,NA,""
"image-keyboard-response",208,229242,"0.0-3.65-2.65","q6zv07l7cyjkjbt",768,"196.csv","","null","resources/images/coin2.png","null","",NA,NA,NA,NA,""
"image-keyboard-response",209,229833,"0.0-3.66-0.66","q6zv07l7cyjkjbt",768,"196.csv","","590.5","resources/trios/L4T4A3.jpg","38","restless",0.6,0.9,0.5,0.64887426382935,"true"
"image-keyboard-response",210,230235,"0.0-3.66-1.66","q6zv07l7cyjkjbt",768,"196.csv","","null","resources/maskTrios/BT4B.jpg","null","",NA,NA,NA,NA,""
"image-keyboard-response",211,231438,"0.0-3.66-2.66","q6zv07l7cyjkjbt",768,"196.csv","","null","resources/images/coin2.png","null","",NA,NA,NA,NA,""
"image-keyboard-response",212,231705,"0.0-3.67-0.67","q6zv07l7cyjkjbt",768,"196.csv","","265","resources/trios/L2T4A3.jpg","38","restless",0.6,0.9,0.5,0.641240074721776,"true"
"image-keyboard-response",213,232110,"0.0-3.67-1.67","q6zv07l7cyjkjbt",768,"196.csv","","null","resources/maskTrios/BT4B.jpg","null","",NA,NA,NA,NA,""
"image-keyboard-response",214,233315,"0.0-3.67-2.67","q6zv07l7cyjkjbt",768,"196.csv","","null","resources/images/coin2.png","null","",NA,NA,NA,NA,""
"image-keyboard-response",215,233633,"0.0-3.68-0.68","q6zv07l7cyjkjbt",768,"196.csv","","316.69999998807907","resources/trios/L2T4A1.jpg","38","restless",0.6,0.8,0.5,0.120799187452411,"true"
"image-keyboard-response",216,234038,"0.0-3.68-1.68","q6zv07l7cyjkjbt",768,"196.csv","","null","resources/maskTrios/BT4B.jpg","null","",NA,NA,NA,NA,""
"image-keyboard-response",217,235242,"0.0-3.68-2.68","q6zv07l7cyjkjbt",768,"196.csv","","null","resources/images/coin2.png","null","",NA,NA,NA,NA,""
"image-keyboard-response",218,235513,"0.0-3.69-0.69","q6zv07l7cyjkjbt",768,"196.csv","","269.10000002384186","resources/trios/L2T4A1.jpg","38","restless",0.6,0.8,0.5,0.0274730506370084,"true"
"image-keyboard-response",219,235916,"0.0-3.69-1.69","q6zv07l7cyjkjbt",768,"196.csv","","null","resources/maskTrios/BT4B.jpg","null","",NA,NA,NA,NA,""
"image-keyboard-response",220,237119,"0.0-3.69-2.69","q6zv07l7cyjkjbt",768,"196.csv","","null","resources/images/coin2.png","null","",NA,NA,NA,NA,""
"image-keyboard-response",221,237361,"0.0-3.70-0.70","q6zv07l7cyjkjbt",768,"196.csv","","240.7999999821186","resources/trios/L4T1A3.jpg","38","restless",0.6,0.7,0.5,0.694164266286328,"true"
"image-keyboard-response",222,237766,"0.0-3.70-1.70","q6zv07l7cyjkjbt",768,"196.csv","","null","resources/maskTrios/BT1B.jpg","null","",NA,NA,NA,NA,""
"image-keyboard-response",223,238970,"0.0-3.70-2.70","q6zv07l7cyjkjbt",768,"196.csv","","null","resources/images/coin2.png","null","",NA,NA,NA,NA,""
"image-keyboard-response",224,239237,"0.0-3.71-0.71","q6zv07l7cyjkjbt",768,"196.csv","","265.39999997615814","resources/trios/L2T1A1.jpg","38","restless",0.6,0.6,0.5,0.762897556196215,"false"
"image-keyboard-response",225,239641,"0.0-3.71-1.71","q6zv07l7cyjkjbt",768,"196.csv","","null","resources/maskTrios/BT1B.jpg","null","",NA,NA,NA,NA,""
"image-keyboard-response",226,240847,"0.0-3.71-2.71","q6zv07l7cyjkjbt",768,"196.csv","","null","resources/images/fishbone.png","null","",NA,NA,NA,NA,""
"image-keyboard-response",227,241657,"0.0-3.72-0.72","q6zv07l7cyjkjbt",768,"196.csv","","807.9000000059605","resources/trios/L2T1A1.jpg","37","restless",0.6,0.6,0.5,0.0510124165440644,"true"
"image-keyboard-response",228,242061,"0.0-3.72-1.72","q6zv07l7cyjkjbt",768,"196.csv","","null","resources/maskTrios/L2BB.jpg","null","",NA,NA,NA,NA,""
"image-keyboard-response",229,243265,"0.0-3.72-2.72","q6zv07l7cyjkjbt",768,"196.csv","","null","resources/images/coin2.png","null","",NA,NA,NA,NA,""
"image-keyboard-response",230,243603,"0.0-3.73-0.73","q6zv07l7cyjkjbt",768,"196.csv","","336.40000000596046","resources/trios/L4T4A3.jpg","37","restless",0.5,0.6,0.5,0.471608216489327,"true"
"image-keyboard-response",231,244008,"0.0-3.73-1.73","q6zv07l7cyjkjbt",768,"196.csv","","null","resources/maskTrios/L4BB.jpg","null","",NA,NA,NA,NA,""
"image-keyboard-response",232,245214,"0.0-3.73-2.73","q6zv07l7cyjkjbt",768,"196.csv","","null","resources/images/coin2.png","null","",NA,NA,NA,NA,""
"image-keyboard-response",233,245745,"0.0-3.74-0.74","q6zv07l7cyjkjbt",768,"196.csv","","529.6000000238419","resources/trios/L2T4A1.jpg","38","restless",0.5,0.6,0.6,0.519909532279348,"true"
"image-keyboard-response",234,246147,"0.0-3.74-1.74","q6zv07l7cyjkjbt",768,"196.csv","","null","resources/maskTrios/BT4B.jpg","null","",NA,NA,NA,NA,""
"image-keyboard-response",235,247350,"0.0-3.74-2.74","q6zv07l7cyjkjbt",768,"196.csv","","null","resources/images/coin2.png","null","",NA,NA,NA,NA,""
"image-keyboard-response",236,248608,"0.0-3.75-0.75","q6zv07l7cyjkjbt",768,"196.csv","","1255.300000011921","resources/trios/L4T4A3.jpg","38","restless",0.5,0.6,0.6,0.112781473713503,"true"
"image-keyboard-response",237,249013,"0.0-3.75-1.75","q6zv07l7cyjkjbt",768,"196.csv","","null","resources/maskTrios/BT4B.jpg","null","",NA,NA,NA,NA,""
"image-keyboard-response",238,250218,"0.0-3.75-2.75","q6zv07l7cyjkjbt",768,"196.csv","","null","resources/images/coin2.png","null","",NA,NA,NA,NA,""
"image-keyboard-response",239,250622,"0.0-3.76-0.76","q6zv07l7cyjkjbt",768,"196.csv","","402.19999998807907","resources/trios/L2T1A1.jpg","37","restless",0.5,0.6,0.7,0.0802961487908229,"true"
"image-keyboard-response",240,251025,"0.0-3.76-1.76","q6zv07l7cyjkjbt",768,"196.csv","","null","resources/maskTrios/L2BB.jpg","null","",NA,NA,NA,NA,""
"image-keyboard-response",241,252231,"0.0-3.76-2.76","q6zv07l7cyjkjbt",768,"196.csv","","null","resources/images/coin2.png","null","",NA,NA,NA,NA,""
"image-keyboard-response",242,252843,"0.0-3.77-0.77","q6zv07l7cyjkjbt",768,"196.csv","","610.4000000059605","resources/trios/L2T4A3.jpg","37","restless",0.5,0.6,0.7,0.196895321823935,"true"
"image-keyboard-response",243,253249,"0.0-3.77-1.77","q6zv07l7cyjkjbt",768,"196.csv","","null","resources/maskTrios/L2BB.jpg","null","",NA,NA,NA,NA,""
"image-keyboard-response",244,254451,"0.0-3.77-2.77","q6zv07l7cyjkjbt",768,"196.csv","","null","resources/images/coin2.png","null","",NA,NA,NA,NA,""
"image-keyboard-response",245,255175,"0.0-3.78-0.78","q6zv07l7cyjkjbt",768,"196.csv","","722","resources/trios/L4T4A1.jpg","38","restless",0.5,0.5,0.7,0.218856951866218,"true"
"image-keyboard-response",246,255577,"0.0-3.78-1.78","q6zv07l7cyjkjbt",768,"196.csv","","null","resources/maskTrios/BT4B.jpg","null","",NA,NA,NA,NA,""
"image-keyboard-response",247,256783,"0.0-3.78-2.78","q6zv07l7cyjkjbt",768,"196.csv","","null","resources/images/coin2.png","null","",NA,NA,NA,NA,""
"image-keyboard-response",248,258374,"0.0-3.79-0.79","q6zv07l7cyjkjbt",768,"196.csv","","1588.5","resources/trios/L4T1A3.jpg","39","restless",0.5,0.5,0.8,0.488000634661838,"true"
"image-keyboard-response",249,258776,"0.0-3.79-1.79","q6zv07l7cyjkjbt",768,"196.csv","","null","resources/maskTrios/BBA3.jpg","null","",NA,NA,NA,NA,""
"image-keyboard-response",250,259980,"0.0-3.79-2.79","q6zv07l7cyjkjbt",768,"196.csv","","null","resources/images/coin2.png","null","",NA,NA,NA,NA,""
"image-keyboard-response",251,261981,"0.0-3.80-0.80","q6zv07l7cyjkjbt",768,"196.csv","","1998.8999999761581","resources/trios/L2T1A3.jpg","37","restless",0.5,0.5,0.8,0.136739681964137,"true"
"image-keyboard-response",252,262386,"0.0-3.80-1.80","q6zv07l7cyjkjbt",768,"196.csv","","null","resources/maskTrios/L2BB.jpg","null","",NA,NA,NA,NA,""
"image-keyboard-response",253,263592,"0.0-3.80-2.80","q6zv07l7cyjkjbt",768,"196.csv","","null","resources/images/coin2.png","null","",NA,NA,NA,NA,""
"image-keyboard-response",254,264070,"0.0-3.81-0.81","q6zv07l7cyjkjbt",768,"196.csv","","476.5","resources/trios/L2T4A1.jpg","37","restless",0.5,0.5,0.8,0.980457956704689,"false"
"image-keyboard-response",255,264471,"0.0-3.81-1.81","q6zv07l7cyjkjbt",768,"196.csv","","null","resources/maskTrios/L2BB.jpg","null","",NA,NA,NA,NA,""
"image-keyboard-response",256,265674,"0.0-3.81-2.81","q6zv07l7cyjkjbt",768,"196.csv","","null","resources/images/fishbone.png","null","",NA,NA,NA,NA,""
"image-keyboard-response",257,266628,"0.0-3.82-0.82","q6zv07l7cyjkjbt",768,"196.csv","","952.5","resources/trios/L2T4A1.jpg","39","restless",0.5,0.5,0.8,0.09043662140737,"true"
"image-keyboard-response",258,267030,"0.0-3.82-1.82","q6zv07l7cyjkjbt",768,"196.csv","","null","resources/maskTrios/BBA1.jpg","null","",NA,NA,NA,NA,""
"image-keyboard-response",259,268237,"0.0-3.82-2.82","q6zv07l7cyjkjbt",768,"196.csv","","null","resources/images/coin2.png","null","",NA,NA,NA,NA,""
"image-keyboard-response",260,269427,"0.0-3.83-0.83","q6zv07l7cyjkjbt",768,"196.csv","","1187.7000000178814","resources/trios/L2T4A3.jpg","38","restless",0.5,0.5,0.7,0.189783540562294,"true"
"image-keyboard-response",261,269829,"0.0-3.83-1.83","q6zv07l7cyjkjbt",768,"196.csv","","null","resources/maskTrios/BT4B.jpg","null","",NA,NA,NA,NA,""
"image-keyboard-response",262,271032,"0.0-3.83-2.83","q6zv07l7cyjkjbt",768,"196.csv","","null","resources/images/coin2.png","null","",NA,NA,NA,NA,""
"image-keyboard-response",263,271619,"0.0-3.84-0.84","q6zv07l7cyjkjbt",768,"196.csv","","585.5","resources/trios/L4T4A1.jpg","39","restless",0.5,0.5,0.7,0.202682173600822,"true"
"image-keyboard-response",264,272021,"0.0-3.84-1.84","q6zv07l7cyjkjbt",768,"196.csv","","null","resources/maskTrios/BBA1.jpg","null","",NA,NA,NA,NA,""
"image-keyboard-response",265,273224,"0.0-3.84-2.84","q6zv07l7cyjkjbt",768,"196.csv","","null","resources/images/coin2.png","null","",NA,NA,NA,NA,""
"image-keyboard-response",266,273658,"0.0-3.85-0.85","q6zv07l7cyjkjbt",768,"196.csv","","432","resources/trios/L2T1A1.jpg","38","restless",0.5,0.5,0.7,0.343783677717137,"true"
"image-keyboard-response",267,274061,"0.0-3.85-1.85","q6zv07l7cyjkjbt",768,"196.csv","","null","resources/maskTrios/BT1B.jpg","null","",NA,NA,NA,NA,""
"image-keyboard-response",268,275264,"0.0-3.85-2.85","q6zv07l7cyjkjbt",768,"196.csv","","null","resources/images/coin2.png","null","",NA,NA,NA,NA,""
"image-keyboard-response",269,276255,"0.0-3.86-0.86","q6zv07l7cyjkjbt",768,"196.csv","","989.4000000059605","resources/trios/L4T4A1.jpg","39","restless",0.6,0.4,0.7,0.149551070943559,"true"
"image-keyboard-response",270,276659,"0.0-3.86-1.86","q6zv07l7cyjkjbt",768,"196.csv","","null","resources/maskTrios/BBA1.jpg","null","",NA,NA,NA,NA,""
"image-keyboard-response",271,277863,"0.0-3.86-2.86","q6zv07l7cyjkjbt",768,"196.csv","","null","resources/images/coin2.png","null","",NA,NA,NA,NA,""
"image-keyboard-response",272,278430,"0.0-3.87-0.87","q6zv07l7cyjkjbt",768,"196.csv","","566.0999999940395","resources/trios/L2T4A3.jpg","39","restless",0.6,0.3,0.7,0.223874035763284,"true"
"image-keyboard-response",273,278832,"0.0-3.87-1.87","q6zv07l7cyjkjbt",768,"196.csv","","null","resources/maskTrios/BBA3.jpg","null","",NA,NA,NA,NA,""
"image-keyboard-response",274,280039,"0.0-3.87-2.87","q6zv07l7cyjkjbt",768,"196.csv","","null","resources/images/coin2.png","null","",NA,NA,NA,NA,""
"image-keyboard-response",275,281683,"0.0-3.88-0.88","q6zv07l7cyjkjbt",768,"196.csv","","1642.0999999940395","resources/trios/L4T4A1.jpg","38","restless",0.6,0.3,0.7,0.702432718073221,"false"
"image-keyboard-response",276,282089,"0.0-3.88-1.88","q6zv07l7cyjkjbt",768,"196.csv","","null","resources/maskTrios/BT4B.jpg","null","",NA,NA,NA,NA,""
"image-keyboard-response",277,283294,"0.0-3.88-2.88","q6zv07l7cyjkjbt",768,"196.csv","","null","resources/images/fishbone.png","null","",NA,NA,NA,NA,""
"image-keyboard-response",278,284114,"0.0-3.89-0.89","q6zv07l7cyjkjbt",768,"196.csv","","819.3000000119209","resources/trios/L2T1A1.jpg","39","restless",0.6,0.3,0.8,0.949524837275944,"false"
"image-keyboard-response",279,284515,"0.0-3.89-1.89","q6zv07l7cyjkjbt",768,"196.csv","","null","resources/maskTrios/BBA1.jpg","null","",NA,NA,NA,NA,""
"image-keyboard-response",280,285721,"0.0-3.89-2.89","q6zv07l7cyjkjbt",768,"196.csv","","null","resources/images/fishbone.png","null","",NA,NA,NA,NA,""
"image-keyboard-response",281,286232,"0.0-3.90-0.90","q6zv07l7cyjkjbt",768,"196.csv","","508.80000001192093","resources/trios/L4T4A3.jpg","39","restless",0.6,0.3,0.8,0.530871092260544,"true"
"image-keyboard-response",282,286637,"0.0-3.90-1.90","q6zv07l7cyjkjbt",768,"196.csv","","null","resources/maskTrios/BBA3.jpg","null","",NA,NA,NA,NA,""
"image-keyboard-response",283,287840,"0.0-3.90-2.90","q6zv07l7cyjkjbt",768,"196.csv","","null","resources/images/coin2.png","null","",NA,NA,NA,NA,""
"image-keyboard-response",284,288521,"0.0-3.91-0.91","q6zv07l7cyjkjbt",768,"196.csv","","679.5","resources/trios/L4T4A3.jpg","39","restless",0.6,0.3,0.9,0.0765836866057323,"true"
"image-keyboard-response",285,288923,"0.0-3.91-1.91","q6zv07l7cyjkjbt",768,"196.csv","","null","resources/maskTrios/BBA3.jpg","null","",NA,NA,NA,NA,""
"image-keyboard-response",286,290125,"0.0-3.91-2.91","q6zv07l7cyjkjbt",768,"196.csv","","null","resources/images/coin2.png","null","",NA,NA,NA,NA,""
"image-keyboard-response",287,291082,"0.0-3.92-0.92","q6zv07l7cyjkjbt",768,"196.csv","","955.5","resources/trios/L2T4A1.jpg","39","restless",0.6,0.3,0.8,0.487857908367288,"true"
"image-keyboard-response",288,291487,"0.0-3.92-1.92","q6zv07l7cyjkjbt",768,"196.csv","","null","resources/maskTrios/BBA1.jpg","null","",NA,NA,NA,NA,""
"image-keyboard-response",289,292693,"0.0-3.92-2.92","q6zv07l7cyjkjbt",768,"196.csv","","null","resources/images/coin2.png","null","",NA,NA,NA,NA,""
"image-keyboard-response",290,293584,"0.0-3.93-0.93","q6zv07l7cyjkjbt",768,"196.csv","","889.5999999940395","resources/trios/L2T1A1.jpg","38","restless",0.6,0.3,0.8,0.752754488973616,"false"
"image-keyboard-response",291,293989,"0.0-3.93-1.93","q6zv07l7cyjkjbt",768,"196.csv","","null","resources/maskTrios/BT1B.jpg","null","",NA,NA,NA,NA,""
"image-keyboard-response",292,295195,"0.0-3.93-2.93","q6zv07l7cyjkjbt",768,"196.csv","","null","resources/images/fishbone.png","null","",NA,NA,NA,NA,""
"image-keyboard-response",293,296048,"0.0-3.94-0.94","q6zv07l7cyjkjbt",768,"196.csv","","852.1999999880791","resources/trios/L2T1A3.jpg","37","restless",0.6,0.3,0.8,0.0302284987534021,"true"
"image-keyboard-response",294,296453,"0.0-3.94-1.94","q6zv07l7cyjkjbt",768,"196.csv","","null","resources/maskTrios/L2BB.jpg","null","",NA,NA,NA,NA,""
"image-keyboard-response",295,297657,"0.0-3.94-2.94","q6zv07l7cyjkjbt",768,"196.csv","","null","resources/images/coin2.png","null","",NA,NA,NA,NA,""
"image-keyboard-response",296,298227,"0.0-3.95-0.95","q6zv07l7cyjkjbt",768,"196.csv","","569.4000000059605","resources/trios/L2T1A1.jpg","37","restless",0.6,0.4,0.8,0.0518555500074585,"true"
"image-keyboard-response",297,298630,"0.0-3.95-1.95","q6zv07l7cyjkjbt",768,"196.csv","","null","resources/maskTrios/L2BB.jpg","null","",NA,NA,NA,NA,""
"image-keyboard-response",298,299834,"0.0-3.95-2.95","q6zv07l7cyjkjbt",768,"196.csv","","null","resources/images/coin2.png","null","",NA,NA,NA,NA,""
"image-keyboard-response",299,300219,"0.0-3.96-0.96","q6zv07l7cyjkjbt",768,"196.csv","","384.30000001192093","resources/trios/L2T1A3.jpg","37","restless",0.5,0.4,0.8,0.304400156931976,"true"
"image-keyboard-response",300,300625,"0.0-3.96-1.96","q6zv07l7cyjkjbt",768,"196.csv","","null","resources/maskTrios/L2BB.jpg","null","",NA,NA,NA,NA,""
"image-keyboard-response",301,301827,"0.0-3.96-2.96","q6zv07l7cyjkjbt",768,"196.csv","","null","resources/images/coin2.png","null","",NA,NA,NA,NA,""
"image-keyboard-response",302,302522,"0.0-3.97-0.97","q6zv07l7cyjkjbt",768,"196.csv","","693.9000000059605","resources/trios/L4T1A1.jpg","39","restless",0.5,0.4,0.8,0.903791648897818,"false"
"image-keyboard-response",303,302923,"0.0-3.97-1.97","q6zv07l7cyjkjbt",768,"196.csv","","null","resources/maskTrios/BBA1.jpg","null","",NA,NA,NA,NA,""
"image-keyboard-response",304,304125,"0.0-3.97-2.97","q6zv07l7cyjkjbt",768,"196.csv","","null","resources/images/fishbone.png","null","",NA,NA,NA,NA,""
"image-keyboard-response",305,304609,"0.0-3.98-0.98","q6zv07l7cyjkjbt",768,"196.csv","","482.09999999403954","resources/trios/L2T1A3.jpg","39","restless",0.5,0.4,0.8,0.0634721783786019,"true"
"image-keyboard-response",306,305015,"0.0-3.98-1.98","q6zv07l7cyjkjbt",768,"196.csv","","null","resources/maskTrios/BBA3.jpg","null","",NA,NA,NA,NA,""
"image-keyboard-response",307,306217,"0.0-3.98-2.98","q6zv07l7cyjkjbt",768,"196.csv","","null","resources/images/coin2.png","null","",NA,NA,NA,NA,""
"image-keyboard-response",308,306884,"0.0-3.99-0.99","q6zv07l7cyjkjbt",768,"196.csv","","665.5","resources/trios/L2T1A3.jpg","39","restless",0.5,0.4,0.8,0.907807842454749,"false"
"image-keyboard-response",309,307290,"0.0-3.99-1.99","q6zv07l7cyjkjbt",768,"196.csv","","null","resources/maskTrios/BBA3.jpg","null","",NA,NA,NA,NA,""
"image-keyboard-response",310,308494,"0.0-3.99-2.99","q6zv07l7cyjkjbt",768,"196.csv","","null","resources/images/fishbone.png","null","",NA,NA,NA,NA,""
"image-keyboard-response",311,309993,"0.0-3.100-0.100","q6zv07l7cyjkjbt",768,"196.csv","","1498.0999999940395","resources/trios/L4T1A1.jpg","37","restless",0.5,0.4,0.8,0.443623409167467,"true"
"image-keyboard-response",312,310395,"0.0-3.100-1.100","q6zv07l7cyjkjbt",768,"196.csv","","null","resources/maskTrios/L4BB.jpg","null","",NA,NA,NA,NA,""
"image-keyboard-response",313,311597,"0.0-3.100-2.100","q6zv07l7cyjkjbt",768,"196.csv","","null","resources/images/coin2.png","null","",NA,NA,NA,NA,""
"image-keyboard-response",314,312472,"0.0-3.101-0.101","q6zv07l7cyjkjbt",768,"196.csv","","873.2999999821186","resources/trios/L2T4A3.jpg","37","restless",0.5,0.4,0.8,0.791316538736996,"false"
"image-keyboard-response",315,312873,"0.0-3.101-1.101","q6zv07l7cyjkjbt",768,"196.csv","","null","resources/maskTrios/L2BB.jpg","null","",NA,NA,NA,NA,""
"image-keyboard-response",316,314076,"0.0-3.101-2.101","q6zv07l7cyjkjbt",768,"196.csv","","null","resources/images/fishbone.png","null","",NA,NA,NA,NA,""
"image-keyboard-response",317,315010,"0.0-3.102-0.102","q6zv07l7cyjkjbt",768,"196.csv","","932.4000000059605","resources/trios/L4T4A3.jpg","37","restless",0.5,0.4,0.8,0.629322216992361,"false"
"image-keyboard-response",318,315414,"0.0-3.102-1.102","q6zv07l7cyjkjbt",768,"196.csv","","null","resources/maskTrios/L4BB.jpg","null","",NA,NA,NA,NA,""
"image-keyboard-response",319,316616,"0.0-3.102-2.102","q6zv07l7cyjkjbt",768,"196.csv","","null","resources/images/fishbone.png","null","",NA,NA,NA,NA,""
"image-keyboard-response",320,317589,"0.0-3.103-0.103","q6zv07l7cyjkjbt",768,"196.csv","","971.5999999940395","resources/trios/L4T1A1.jpg","39","restless",0.5,0.4,0.8,0.174552199305695,"true"
"image-keyboard-response",321,317990,"0.0-3.103-1.103","q6zv07l7cyjkjbt",768,"196.csv","","null","resources/maskTrios/BBA1.jpg","null","",NA,NA,NA,NA,""
"image-keyboard-response",322,319195,"0.0-3.103-2.103","q6zv07l7cyjkjbt",768,"196.csv","","null","resources/images/coin2.png","null","",NA,NA,NA,NA,""
"image-keyboard-response",323,319595,"0.0-3.104-0.104","q6zv07l7cyjkjbt",768,"196.csv","","398.59999999403954","resources/trios/L2T4A3.jpg","39","restless",0.5,0.4,0.8,0.402745104434441,"true"
"image-keyboard-response",324,320002,"0.0-3.104-1.104","q6zv07l7cyjkjbt",768,"196.csv","","null","resources/maskTrios/BBA3.jpg","null","",NA,NA,NA,NA,""
"image-keyboard-response",325,321204,"0.0-3.104-2.104","q6zv07l7cyjkjbt",768,"196.csv","","null","resources/images/coin2.png","null","",NA,NA,NA,NA,""
"image-keyboard-response",326,322240,"0.0-3.105-0.105","q6zv07l7cyjkjbt",768,"196.csv","","1034.699999988079","resources/trios/L2T4A1.jpg","38","restless",0.5,0.4,0.8,0.492353042584758,"false"
"image-keyboard-response",327,322642,"0.0-3.105-1.105","q6zv07l7cyjkjbt",768,"196.csv","","null","resources/maskTrios/BT4B.jpg","null","",NA,NA,NA,NA,""
"image-keyboard-response",328,323847,"0.0-3.105-2.105","q6zv07l7cyjkjbt",768,"196.csv","","null","resources/images/fishbone.png","null","",NA,NA,NA,NA,""
"image-keyboard-response",329,325210,"0.0-3.106-0.106","q6zv07l7cyjkjbt",768,"196.csv","","1361.1000000238419","resources/trios/L4T1A1.jpg","37","restless",0.5,0.4,0.8,0.971625681007648,"false"
"image-keyboard-response",330,325613,"0.0-3.106-1.106","q6zv07l7cyjkjbt",768,"196.csv","","null","resources/maskTrios/L4BB.jpg","null","",NA,NA,NA,NA,""
"image-keyboard-response",331,326815,"0.0-3.106-2.106","q6zv07l7cyjkjbt",768,"196.csv","","null","resources/images/fishbone.png","null","",NA,NA,NA,NA,""
"image-keyboard-response",332,327969,"0.0-3.107-0.107","q6zv07l7cyjkjbt",768,"196.csv","","1153","resources/trios/L4T1A3.jpg","39","restless",0.5,0.4,0.8,0.816786339767222,"false"
"image-keyboard-response",333,328375,"0.0-3.107-1.107","q6zv07l7cyjkjbt",768,"196.csv","","null","resources/maskTrios/BBA3.jpg","null","",NA,NA,NA,NA,""
"image-keyboard-response",334,329578,"0.0-3.107-2.107","q6zv07l7cyjkjbt",768,"196.csv","","null","resources/images/fishbone.png","null","",NA,NA,NA,NA,""
"image-keyboard-response",335,330848,"0.0-3.108-0.108","q6zv07l7cyjkjbt",768,"196.csv","","1268.800000011921","resources/trios/L2T1A3.jpg","37","restless",0.5,0.4,0.8,0.0684178016832082,"true"
"image-keyboard-response",336,331251,"0.0-3.108-1.108","q6zv07l7cyjkjbt",768,"196.csv","","null","resources/maskTrios/L2BB.jpg","null","",NA,NA,NA,NA,""
"image-keyboard-response",337,332457,"0.0-3.108-2.108","q6zv07l7cyjkjbt",768,"196.csv","","null","resources/images/coin2.png","null","",NA,NA,NA,NA,""
"image-keyboard-response",338,333061,"0.0-3.109-0.109","q6zv07l7cyjkjbt",768,"196.csv","","602.5999999940395","resources/trios/L2T4A3.jpg","37","restless",0.5,0.4,0.8,0.165033903050791,"true"
"image-keyboard-response",339,333462,"0.0-3.109-1.109","q6zv07l7cyjkjbt",768,"196.csv","","null","resources/maskTrios/L2BB.jpg","null","",NA,NA,NA,NA,""
"image-keyboard-response",340,334665,"0.0-3.109-2.109","q6zv07l7cyjkjbt",768,"196.csv","","null","resources/images/coin2.png","null","",NA,NA,NA,NA,""
"image-keyboard-response",341,335180,"0.0-3.110-0.110","q6zv07l7cyjkjbt",768,"196.csv","","513.5999999940395","resources/trios/L2T1A1.jpg","37","restless",0.5,0.4,0.8,0.79344523655294,"false"
"image-keyboard-response",342,335583,"0.0-3.110-1.110","q6zv07l7cyjkjbt",768,"196.csv","","null","resources/maskTrios/L2BB.jpg","null","",NA,NA,NA,NA,""
"image-keyboard-response",343,336784,"0.0-3.110-2.110","q6zv07l7cyjkjbt",768,"196.csv","","null","resources/images/fishbone.png","null","",NA,NA,NA,NA,""
"image-keyboard-response",344,337847,"0.0-3.111-0.111","q6zv07l7cyjkjbt",768,"196.csv","","1061.2000000178814","resources/trios/L4T1A1.jpg","39","restless",0.6,0.4,0.8,0.00898261795635169,"true"
"image-keyboard-response",345,338249,"0.0-3.111-1.111","q6zv07l7cyjkjbt",768,"196.csv","","null","resources/maskTrios/BBA1.jpg","null","",NA,NA,NA,NA,""
"image-keyboard-response",346,339452,"0.0-3.111-2.111","q6zv07l7cyjkjbt",768,"196.csv","","null","resources/images/coin2.png","null","",NA,NA,NA,NA,""
"image-keyboard-response",347,339821,"0.0-3.112-0.112","q6zv07l7cyjkjbt",768,"196.csv","","367.2000000178814","resources/trios/L2T4A1.jpg","39","restless",0.6,0.4,0.8,0.886198796766162,"false"
"image-keyboard-response",348,340223,"0.0-3.112-1.112","q6zv07l7cyjkjbt",768,"196.csv","","null","resources/maskTrios/BBA1.jpg","null","",NA,NA,NA,NA,""
"image-keyboard-response",349,341424,"0.0-3.112-2.112","q6zv07l7cyjkjbt",768,"196.csv","","null","resources/images/fishbone.png","null","",NA,NA,NA,NA,""
"image-keyboard-response",350,342764,"0.0-3.113-0.113","q6zv07l7cyjkjbt",768,"196.csv","","1338.3999999761581","resources/trios/L4T4A1.jpg","37","restless",0.6,0.4,0.8,0.889782810723288,"false"
"image-keyboard-response",351,343167,"0.0-3.113-1.113","q6zv07l7cyjkjbt",768,"196.csv","","null","resources/maskTrios/L4BB.jpg","null","",NA,NA,NA,NA,""
"image-keyboard-response",352,344373,"0.0-3.113-2.113","q6zv07l7cyjkjbt",768,"196.csv","","null","resources/images/fishbone.png","null","",NA,NA,NA,NA,""
"image-keyboard-response",353,345416,"0.0-3.114-0.114","q6zv07l7cyjkjbt",768,"196.csv","","1042.4000000059605","resources/trios/L2T4A3.jpg","37","restless",0.6,0.5,0.8,0.538154707310076,"true"
"image-keyboard-response",354,345818,"0.0-3.114-1.114","q6zv07l7cyjkjbt",768,"196.csv","","null","resources/maskTrios/L2BB.jpg","null","",NA,NA,NA,NA,""
"image-keyboard-response",355,347023,"0.0-3.114-2.114","q6zv07l7cyjkjbt",768,"196.csv","","null","resources/images/coin2.png","null","",NA,NA,NA,NA,""
"image-keyboard-response",356,348038,"0.0-3.115-0.115","q6zv07l7cyjkjbt",768,"196.csv","","1013.5","resources/trios/L4T1A3.jpg","38","restless",0.6,0.5,0.8,0.90336587709284,"false"
"image-keyboard-response",357,348441,"0.0-3.115-1.115","q6zv07l7cyjkjbt",768,"196.csv","","null","resources/maskTrios/BT1B.jpg","null","",NA,NA,NA,NA,""
"image-keyboard-response",358,349644,"0.0-3.115-2.115","q6zv07l7cyjkjbt",768,"196.csv","","null","resources/images/fishbone.png","null","",NA,NA,NA,NA,""
"image-keyboard-response",359,351876,"0.0-3.116-0.116","q6zv07l7cyjkjbt",768,"196.csv","","2230.300000011921","resources/trios/L4T4A3.jpg","39","restless",0.6,0.5,0.8,0.389744515682258,"true"
"image-keyboard-response",360,352277,"0.0-3.116-1.116","q6zv07l7cyjkjbt",768,"196.csv","","null","resources/maskTrios/BBA3.jpg","null","",NA,NA,NA,NA,""
"image-keyboard-response",361,353484,"0.0-3.116-2.116","q6zv07l7cyjkjbt",768,"196.csv","","null","resources/images/coin2.png","null","",NA,NA,NA,NA,""
"image-keyboard-response",362,355224,"0.0-3.117-0.117","q6zv07l7cyjkjbt",768,"196.csv","","1738.7999999821186","resources/trios/L2T4A1.jpg","37","restless",0.6,0.5,0.8,0.198012698977523,"true"
"image-keyboard-response",363,355626,"0.0-3.117-1.117","q6zv07l7cyjkjbt",768,"196.csv","","null","resources/maskTrios/L2BB.jpg","null","",NA,NA,NA,NA,""
"image-keyboard-response",364,356831,"0.0-3.117-2.117","q6zv07l7cyjkjbt",768,"196.csv","","null","resources/images/coin2.png","null","",NA,NA,NA,NA,""
"image-keyboard-response",365,359015,"0.0-3.118-0.118","q6zv07l7cyjkjbt",768,"196.csv","","2182.5999999940395","resources/trios/L4T4A3.jpg","39","restless",0.6,0.5,0.8,0.827005018869696,"false"
"image-keyboard-response",366,359422,"0.0-3.118-1.118","q6zv07l7cyjkjbt",768,"196.csv","","null","resources/maskTrios/BBA3.jpg","null","",NA,NA,NA,NA,""
"image-keyboard-response",367,360625,"0.0-3.118-2.118","q6zv07l7cyjkjbt",768,"196.csv","","null","resources/images/fishbone.png","null","",NA,NA,NA,NA,""
"image-keyboard-response",368,361963,"0.0-3.119-0.119","q6zv07l7cyjkjbt",768,"196.csv","","1336.7000000178814","resources/trios/L2T1A1.jpg","37","restless",0.6,0.5,0.8,0.830911743221738,"false"
"image-keyboard-response",369,362367,"0.0-3.119-1.119","q6zv07l7cyjkjbt",768,"196.csv","","null","resources/maskTrios/L2BB.jpg","null","",NA,NA,NA,NA,""
"image-keyboard-response",370,363573,"0.0-3.119-2.119","q6zv07l7cyjkjbt",768,"196.csv","","null","resources/images/fishbone.png","null","",NA,NA,NA,NA,""
"image-keyboard-response",371,364350,"0.0-3.120-0.120","q6zv07l7cyjkjbt",768,"196.csv","","774.8999999761581","resources/trios/L2T4A1.jpg","37","restless",0.6,0.5,0.9,0.878872340004583,"false"
"image-keyboard-response",372,364753,"0.0-3.120-1.120","q6zv07l7cyjkjbt",768,"196.csv","","null","resources/maskTrios/L2BB.jpg","null","",NA,NA,NA,NA,""
"image-keyboard-response",373,365956,"0.0-3.120-2.120","q6zv07l7cyjkjbt",768,"196.csv","","null","resources/images/fishbone.png","null","",NA,NA,NA,NA,""
"image-keyboard-response",374,367591,"0.0-3.121-0.121","q6zv07l7cyjkjbt",768,"196.csv","","1633.0999999940395","resources/trios/L2T4A3.jpg","38","restless",0.6,0.5,0.9,0.246164241051805,"true"
"image-keyboard-response",375,367992,"0.0-3.121-1.121","q6zv07l7cyjkjbt",768,"196.csv","","null","resources/maskTrios/BT4B.jpg","null","",NA,NA,NA,NA,""
"image-keyboard-response",376,369194,"0.0-3.121-2.121","q6zv07l7cyjkjbt",768,"196.csv","","null","resources/images/coin2.png","null","",NA,NA,NA,NA,""
"image-keyboard-response",377,369679,"0.0-3.122-0.122","q6zv07l7cyjkjbt",768,"196.csv","","484.59999999403954","resources/trios/L4T4A1.jpg","38","restless",0.6,0.5,0.9,0.533604326178168,"false"
"image-keyboard-response",378,370082,"0.0-3.122-1.122","q6zv07l7cyjkjbt",768,"196.csv","","null","resources/maskTrios/BT4B.jpg","null","",NA,NA,NA,NA,""
"image-keyboard-response",379,371284,"0.0-3.122-2.122","q6zv07l7cyjkjbt",768,"196.csv","","null","resources/images/fishbone.png","null","",NA,NA,NA,NA,""
"image-keyboard-response",380,372864,"0.0-3.123-0.123","q6zv07l7cyjkjbt",768,"196.csv","","1578.2000000178814","resources/trios/L2T1A3.jpg","39","restless",0.6,0.5,0.9,0.251808171295343,"true"
"image-keyboard-response",381,373266,"0.0-3.123-1.123","q6zv07l7cyjkjbt",768,"196.csv","","null","resources/maskTrios/BBA3.jpg","null","",NA,NA,NA,NA,""
"image-keyboard-response",382,374468,"0.0-3.123-2.123","q6zv07l7cyjkjbt",768,"196.csv","","null","resources/images/coin2.png","null","",NA,NA,NA,NA,""
"image-keyboard-response",383,376883,"0.0-3.124-0.124","q6zv07l7cyjkjbt",768,"196.csv","","2413.5","resources/trios/L4T1A1.jpg","39","restless",0.6,0.6,0.8,0.869849311227408,"false"
"image-keyboard-response",384,377287,"0.0-3.124-1.124","q6zv07l7cyjkjbt",768,"196.csv","","null","resources/maskTrios/BBA1.jpg","null","",NA,NA,NA,NA,""
"image-keyboard-response",385,378489,"0.0-3.124-2.124","q6zv07l7cyjkjbt",768,"196.csv","","null","resources/images/fishbone.png","null","",NA,NA,NA,NA,""
"image-keyboard-response",386,379736,"0.0-3.125-0.125","q6zv07l7cyjkjbt",768,"196.csv","","1245.0999999940395","resources/trios/L2T1A1.jpg","37","restless",0.6,0.6,0.8,0.893193944078747,"false"
"image-keyboard-response",387,380140,"0.0-3.125-1.125","q6zv07l7cyjkjbt",768,"196.csv","","null","resources/maskTrios/L2BB.jpg","null","",NA,NA,NA,NA,""
"image-keyboard-response",388,381345,"0.0-3.125-2.125","q6zv07l7cyjkjbt",768,"196.csv","","null","resources/images/fishbone.png","null","",NA,NA,NA,NA,""
"image-keyboard-response",389,382270,"0.0-3.126-0.126","q6zv07l7cyjkjbt",768,"196.csv","","923.9000000059605","resources/trios/L2T4A1.jpg","38","restless",0.6,0.6,0.8,0.838897170825069,"false"
"image-keyboard-response",390,382673,"0.0-3.126-1.126","q6zv07l7cyjkjbt",768,"196.csv","","null","resources/maskTrios/BT4B.jpg","null","",NA,NA,NA,NA,""
"image-keyboard-response",391,383877,"0.0-3.126-2.126","q6zv07l7cyjkjbt",768,"196.csv","","null","resources/images/fishbone.png","null","",NA,NA,NA,NA,""
"image-keyboard-response",392,385381,"0.0-3.127-0.127","q6zv07l7cyjkjbt",768,"196.csv","","1502.300000011921","resources/trios/L2T1A1.jpg","38","restless",0.6,0.6,0.8,0.932367894861391,"false"
"image-keyboard-response",393,385783,"0.0-3.127-1.127","q6zv07l7cyjkjbt",768,"196.csv","","null","resources/maskTrios/BT1B.jpg","null","",NA,NA,NA,NA,""
"image-keyboard-response",394,386990,"0.0-3.127-2.127","q6zv07l7cyjkjbt",768,"196.csv","","null","resources/images/fishbone.png","null","",NA,NA,NA,NA,""
"image-keyboard-response",395,389884,"0.0-3.128-0.128","q6zv07l7cyjkjbt",768,"196.csv","","2892.2000000178814","resources/trios/L2T1A1.jpg","37","restless",0.6,0.6,0.8,0.585400999561077,"true"
"image-keyboard-response",396,390289,"0.0-3.128-1.128","q6zv07l7cyjkjbt",768,"196.csv","","null","resources/maskTrios/L2BB.jpg","null","",NA,NA,NA,NA,""
"image-keyboard-response",397,391494,"0.0-3.128-2.128","q6zv07l7cyjkjbt",768,"196.csv","","null","resources/images/coin2.png","null","",NA,NA,NA,NA,""
"image-keyboard-response",398,394058,"0.0-3.129-0.129","q6zv07l7cyjkjbt",768,"196.csv","","2562.7000000178814","resources/trios/L4T1A1.jpg","37","restless",0.6,0.6,0.8,0.840844053115245,"false"
"image-keyboard-response",399,394459,"0.0-3.129-1.129","q6zv07l7cyjkjbt",768,"196.csv","","null","resources/maskTrios/L4BB.jpg","null","",NA,NA,NA,NA,""
"image-keyboard-response",400,395661,"0.0-3.129-2.129","q6zv07l7cyjkjbt",768,"196.csv","","null","resources/images/fishbone.png","null","",NA,NA,NA,NA,""
"image-keyboard-response",401,396618,"0.0-3.130-0.130","q6zv07l7cyjkjbt",768,"196.csv","","956.4000000059605","resources/trios/L2T4A3.jpg","37","restless",0.6,0.6,0.8,0.329655303731536,"true"
"image-keyboard-response",402,397023,"0.0-3.130-1.130","q6zv07l7cyjkjbt",768,"196.csv","","null","resources/maskTrios/L2BB.jpg","null","",NA,NA,NA,NA,""
"image-keyboard-response",403,398226,"0.0-3.130-2.130","q6zv07l7cyjkjbt",768,"196.csv","","null","resources/images/coin2.png","null","",NA,NA,NA,NA,""
"image-keyboard-response",404,399032,"0.0-3.131-0.131","q6zv07l7cyjkjbt",768,"196.csv","","803.4000000059605","resources/trios/L4T4A1.jpg","39","restless",0.6,0.6,0.8,0.288249639400923,"true"
"image-keyboard-response",405,399433,"0.0-3.131-1.131","q6zv07l7cyjkjbt",768,"196.csv","","null","resources/maskTrios/BBA1.jpg","null","",NA,NA,NA,NA,""
"image-keyboard-response",406,400640,"0.0-3.131-2.131","q6zv07l7cyjkjbt",768,"196.csv","","null","resources/images/coin2.png","null","",NA,NA,NA,NA,""
"image-keyboard-response",407,401122,"0.0-3.132-0.132","q6zv07l7cyjkjbt",768,"196.csv","","480.90000000596046","resources/trios/L4T1A1.jpg","39","restless",0.6,0.6,0.8,0.0667044074645038,"true"
"image-keyboard-response",408,401525,"0.0-3.132-1.132","q6zv07l7cyjkjbt",768,"196.csv","","null","resources/maskTrios/BBA1.jpg","null","",NA,NA,NA,NA,""
"image-keyboard-response",409,402727,"0.0-3.132-2.132","q6zv07l7cyjkjbt",768,"196.csv","","null","resources/images/coin2.png","null","",NA,NA,NA,NA,""
"image-keyboard-response",410,403478,"0.0-3.133-0.133","q6zv07l7cyjkjbt",768,"196.csv","","749.9000000059605","resources/trios/L4T1A1.jpg","39","restless",0.6,0.6,0.8,0.569652189313684,"true"
"image-keyboard-response",411,403884,"0.0-3.133-1.133","q6zv07l7cyjkjbt",768,"196.csv","","null","resources/maskTrios/BBA1.jpg","null","",NA,NA,NA,NA,""
"image-keyboard-response",412,405089,"0.0-3.133-2.133","q6zv07l7cyjkjbt",768,"196.csv","","null","resources/images/coin2.png","null","",NA,NA,NA,NA,""
"image-keyboard-response",413,407436,"0.0-3.134-0.134","q6zv07l7cyjkjbt",768,"196.csv","","2345.0999999940395","resources/trios/L4T1A3.jpg","39","restless",0.6,0.6,0.8,0.481581526155836,"true"
"image-keyboard-response",414,407839,"0.0-3.134-1.134","q6zv07l7cyjkjbt",768,"196.csv","","null","resources/maskTrios/BBA3.jpg","null","",NA,NA,NA,NA,""
"image-keyboard-response",415,409043,"0.0-3.134-2.134","q6zv07l7cyjkjbt",768,"196.csv","","null","resources/images/coin2.png","null","",NA,NA,NA,NA,""
"image-keyboard-response",416,410265,"0.0-3.135-0.135","q6zv07l7cyjkjbt",768,"196.csv","","1221.2999999821186","resources/trios/L4T1A3.jpg","39","restless",0.6,0.6,0.8,0.120332615333448,"true"
"image-keyboard-response",417,410669,"0.0-3.135-1.135","q6zv07l7cyjkjbt",768,"196.csv","","null","resources/maskTrios/BBA3.jpg","null","",NA,NA,NA,NA,""
"image-keyboard-response",418,411873,"0.0-3.135-2.135","q6zv07l7cyjkjbt",768,"196.csv","","null","resources/images/coin2.png","null","",NA,NA,NA,NA,""
"image-keyboard-response",419,413110,"0.0-3.136-0.136","q6zv07l7cyjkjbt",768,"196.csv","","1235.9000000059605","resources/trios/L2T1A1.jpg","39","restless",0.6,0.6,0.7,0.400324166140886,"true"
"image-keyboard-response",420,413512,"0.0-3.136-1.136","q6zv07l7cyjkjbt",768,"196.csv","","null","resources/maskTrios/BBA1.jpg","null","",NA,NA,NA,NA,""
"image-keyboard-response",421,414716,"0.0-3.136-2.136","q6zv07l7cyjkjbt",768,"196.csv","","null","resources/images/coin2.png","null","",NA,NA,NA,NA,""
"image-keyboard-response",422,415375,"0.0-3.137-0.137","q6zv07l7cyjkjbt",768,"196.csv","","658.1000000238419","resources/trios/L4T4A1.jpg","39","restless",0.5,0.6,0.6,0.446237231269149,"true"
"image-keyboard-response",423,415781,"0.0-3.137-1.137","q6zv07l7cyjkjbt",768,"196.csv","","null","resources/maskTrios/BBA1.jpg","null","",NA,NA,NA,NA,""
"image-keyboard-response",424,416985,"0.0-3.137-2.137","q6zv07l7cyjkjbt",768,"196.csv","","null","resources/images/coin2.png","null","",NA,NA,NA,NA,""
"image-keyboard-response",425,417427,"0.0-3.138-0.138","q6zv07l7cyjkjbt",768,"196.csv","","440.59999999403954","resources/trios/L2T4A1.jpg","39","restless",0.4,0.5,0.6,0.758003711889577,"false"
"image-keyboard-response",426,417831,"0.0-3.138-1.138","q6zv07l7cyjkjbt",768,"196.csv","","null","resources/maskTrios/BBA1.jpg","null","",NA,NA,NA,NA,""
"image-keyboard-response",427,419035,"0.0-3.138-2.138","q6zv07l7cyjkjbt",768,"196.csv","","null","resources/images/fishbone.png","null","",NA,NA,NA,NA,""
"image-keyboard-response",428,419731,"0.0-3.139-0.139","q6zv07l7cyjkjbt",768,"196.csv","","694.5","resources/trios/L4T4A3.jpg","39","restless",0.4,0.5,0.6,0.992220544126619,"false"
"image-keyboard-response",429,420136,"0.0-3.139-1.139","q6zv07l7cyjkjbt",768,"196.csv","","null","resources/maskTrios/BBA3.jpg","null","",NA,NA,NA,NA,""
"image-keyboard-response",430,421339,"0.0-3.139-2.139","q6zv07l7cyjkjbt",768,"196.csv","","null","resources/images/fishbone.png","null","",NA,NA,NA,NA,""
"image-keyboard-response",431,422514,"0.0-3.140-0.140","q6zv07l7cyjkjbt",768,"196.csv","","1174.5","resources/trios/L4T1A1.jpg","39","restless",0.4,0.5,0.6,0.322201588051365,"true"
"image-keyboard-response",432,422919,"0.0-3.140-1.140","q6zv07l7cyjkjbt",768,"196.csv","","null","resources/maskTrios/BBA1.jpg","null","",NA,NA,NA,NA,""
"image-keyboard-response",433,424125,"0.0-3.140-2.140","q6zv07l7cyjkjbt",768,"196.csv","","null","resources/images/coin2.png","null","",NA,NA,NA,NA,""
"image-keyboard-response",434,424987,"0.0-3.141-0.141","q6zv07l7cyjkjbt",768,"196.csv","","860.7999999821186","resources/trios/L2T4A3.jpg","39","restless",0.4,0.5,0.6,0.334682419474408,"true"
"image-keyboard-response",435,425389,"0.0-3.141-1.141","q6zv07l7cyjkjbt",768,"196.csv","","null","resources/maskTrios/BBA3.jpg","null","",NA,NA,NA,NA,""
"image-keyboard-response",436,426590,"0.0-3.141-2.141","q6zv07l7cyjkjbt",768,"196.csv","","null","resources/images/coin2.png","null","",NA,NA,NA,NA,""
"image-keyboard-response",437,428014,"0.0-3.142-0.142","q6zv07l7cyjkjbt",768,"196.csv","","1422","resources/trios/L2T4A3.jpg","39","restless",0.4,0.5,0.5,0.407268849474772,"true"
"image-keyboard-response",438,428417,"0.0-3.142-1.142","q6zv07l7cyjkjbt",768,"196.csv","","null","resources/maskTrios/BBA3.jpg","null","",NA,NA,NA,NA,""
"image-keyboard-response",439,429622,"0.0-3.142-2.142","q6zv07l7cyjkjbt",768,"196.csv","","null","resources/images/coin2.png","null","",NA,NA,NA,NA,""
"image-keyboard-response",440,430241,"0.0-3.143-0.143","q6zv07l7cyjkjbt",768,"196.csv","","617.2000000178814","resources/trios/L2T4A1.jpg","37","restless",0.5,0.4,0.5,0.355635834268414,"true"
"image-keyboard-response",441,430646,"0.0-3.143-1.143","q6zv07l7cyjkjbt",768,"196.csv","","null","resources/maskTrios/L2BB.jpg","null","",NA,NA,NA,NA,""
"image-keyboard-response",442,431848,"0.0-3.143-2.143","q6zv07l7cyjkjbt",768,"196.csv","","null","resources/images/coin2.png","null","",NA,NA,NA,NA,""
"image-keyboard-response",443,432394,"0.0-3.144-0.144","q6zv07l7cyjkjbt",768,"196.csv","","544.5999999940395","resources/trios/L2T4A3.jpg","39","restless",0.5,0.4,0.5,0.215049501582923,"true"
"image-keyboard-response",444,432796,"0.0-3.144-1.144","q6zv07l7cyjkjbt",768,"196.csv","","null","resources/maskTrios/BBA3.jpg","null","",NA,NA,NA,NA,""
"image-keyboard-response",445,434001,"0.0-3.144-2.144","q6zv07l7cyjkjbt",768,"196.csv","","null","resources/images/coin2.png","null","",NA,NA,NA,NA,""
"image-keyboard-response",446,434475,"0.0-3.145-0.145","q6zv07l7cyjkjbt",768,"196.csv","","472.59999999403954","resources/trios/L2T4A1.jpg","37","restless",0.5,0.4,0.5,0.169981914236756,"true"
"image-keyboard-response",447,434877,"0.0-3.145-1.145","q6zv07l7cyjkjbt",768,"196.csv","","null","resources/maskTrios/L2BB.jpg","null","",NA,NA,NA,NA,""
"image-keyboard-response",448,436078,"0.0-3.145-2.145","q6zv07l7cyjkjbt",768,"196.csv","","null","resources/images/coin2.png","null","",NA,NA,NA,NA,""
"image-keyboard-response",449,437067,"0.0-3.146-0.146","q6zv07l7cyjkjbt",768,"196.csv","","987.7999999821186","resources/trios/L2T1A1.jpg","37","restless",0.5,0.4,0.5,0.841332561681165,"false"
"image-keyboard-response",450,437472,"0.0-3.146-1.146","q6zv07l7cyjkjbt",768,"196.csv","","null","resources/maskTrios/L2BB.jpg","null","",NA,NA,NA,NA,""
"image-keyboard-response",451,438677,"0.0-3.146-2.146","q6zv07l7cyjkjbt",768,"196.csv","","null","resources/images/fishbone.png","null","",NA,NA,NA,NA,""
"image-keyboard-response",452,438984,"0.0-3.147-0.147","q6zv07l7cyjkjbt",768,"196.csv","","305.59999999403954","resources/trios/L4T4A1.jpg","39","restless",0.5,0.4,0.5,0.372150859758677,"true"
"image-keyboard-response",453,439390,"0.0-3.147-1.147","q6zv07l7cyjkjbt",768,"196.csv","","null","resources/maskTrios/BBA1.jpg","null","",NA,NA,NA,NA,""
"image-keyboard-response",454,440595,"0.0-3.147-2.147","q6zv07l7cyjkjbt",768,"196.csv","","null","resources/images/coin2.png","null","",NA,NA,NA,NA,""
"image-keyboard-response",455,441231,"0.0-3.148-0.148","q6zv07l7cyjkjbt",768,"196.csv","","634","resources/trios/L2T1A3.jpg","37","restless",0.5,0.4,0.5,0.237382647717205,"true"
"image-keyboard-response",456,441635,"0.0-3.148-1.148","q6zv07l7cyjkjbt",768,"196.csv","","null","resources/maskTrios/L2BB.jpg","null","",NA,NA,NA,NA,""
"image-keyboard-response",457,442840,"0.0-3.148-2.148","q6zv07l7cyjkjbt",768,"196.csv","","null","resources/images/coin2.png","null","",NA,NA,NA,NA,""
"image-keyboard-response",458,443163,"0.0-3.149-0.149","q6zv07l7cyjkjbt",768,"196.csv","","321.59999999403954","resources/trios/L2T1A3.jpg","39","restless",0.4,0.4,0.5,0.779096984902665,"false"
"image-keyboard-response",459,443565,"0.0-3.149-1.149","q6zv07l7cyjkjbt",768,"196.csv","","null","resources/maskTrios/BBA3.jpg","null","",NA,NA,NA,NA,""
"image-keyboard-response",460,444771,"0.0-3.149-2.149","q6zv07l7cyjkjbt",768,"196.csv","","null","resources/images/fishbone.png","null","",NA,NA,NA,NA,""
"image-keyboard-response",461,445325,"0.0-3.150-0.150","q6zv07l7cyjkjbt",768,"196.csv","","553","resources/trios/L2T4A1.jpg","37","restless",0.4,0.5,0.5,0.397508627171657,"true"
"image-keyboard-response",462,445728,"0.0-3.150-1.150","q6zv07l7cyjkjbt",768,"196.csv","","null","resources/maskTrios/L2BB.jpg","null","",NA,NA,NA,NA,""
"image-keyboard-response",463,446930,"0.0-3.150-2.150","q6zv07l7cyjkjbt",768,"196.csv","","null","resources/images/coin2.png","null","",NA,NA,NA,NA,""
"image-keyboard-response",464,447477,"0.0-3.151-0.151","q6zv07l7cyjkjbt",768,"196.csv","","545","resources/trios/L2T1A1.jpg","37","restless",0.4,0.5,0.5,0.792339122287387,"false"
"image-keyboard-response",465,447879,"0.0-3.151-1.151","q6zv07l7cyjkjbt",768,"196.csv","","null","resources/maskTrios/L2BB.jpg","null","",NA,NA,NA,NA,""
"image-keyboard-response",466,449081,"0.0-3.151-2.151","q6zv07l7cyjkjbt",768,"196.csv","","null","resources/images/fishbone.png","null","",NA,NA,NA,NA,""
"image-keyboard-response",467,449531,"0.0-3.152-0.152","q6zv07l7cyjkjbt",768,"196.csv","","448","resources/trios/L2T4A3.jpg","39","restless",0.4,0.5,0.5,0.664921153223409,"false"
"image-keyboard-response",468,449935,"0.0-3.152-1.152","q6zv07l7cyjkjbt",768,"196.csv","","null","resources/maskTrios/BBA3.jpg","null","",NA,NA,NA,NA,""
"image-keyboard-response",469,451140,"0.0-3.152-2.152","q6zv07l7cyjkjbt",768,"196.csv","","null","resources/images/fishbone.png","null","",NA,NA,NA,NA,""
"image-keyboard-response",470,451474,"0.0-3.153-0.153","q6zv07l7cyjkjbt",768,"196.csv","","332.59999999403954","resources/trios/L2T1A3.jpg","38","restless",0.4,0.5,0.5,0.632037253715545,"false"
"image-keyboard-response",471,451877,"0.0-3.153-1.153","q6zv07l7cyjkjbt",768,"196.csv","","null","resources/maskTrios/BT1B.jpg","null","",NA,NA,NA,NA,""
"image-keyboard-response",472,453079,"0.0-3.153-2.153","q6zv07l7cyjkjbt",768,"196.csv","","null","resources/images/fishbone.png","null","",NA,NA,NA,NA,""
"image-keyboard-response",473,453984,"0.0-3.154-0.154","q6zv07l7cyjkjbt",768,"196.csv","","904.2999999821186","resources/trios/L2T1A3.jpg","38","restless",0.4,0.5,0.5,0.893434593050984,"false"
"image-keyboard-response",474,454389,"0.0-3.154-1.154","q6zv07l7cyjkjbt",768,"196.csv","","null","resources/maskTrios/BT1B.jpg","null","",NA,NA,NA,NA,""
"image-keyboard-response",475,455593,"0.0-3.154-2.154","q6zv07l7cyjkjbt",768,"196.csv","","null","resources/images/fishbone.png","null","",NA,NA,NA,NA,""
"image-keyboard-response",476,456259,"0.0-3.155-0.155","q6zv07l7cyjkjbt",768,"196.csv","","664.3999999761581","resources/trios/L2T4A1.jpg","38","restless",0.4,0.5,0.5,0.317805893005368,"true"
"image-keyboard-response",477,456662,"0.0-3.155-1.155","q6zv07l7cyjkjbt",768,"196.csv","","null","resources/maskTrios/BT4B.jpg","null","",NA,NA,NA,NA,""
"image-keyboard-response",478,457865,"0.0-3.155-2.155","q6zv07l7cyjkjbt",768,"196.csv","","null","resources/images/coin2.png","null","",NA,NA,NA,NA,""
"image-keyboard-response",479,458318,"0.0-3.156-0.156","q6zv07l7cyjkjbt",768,"196.csv","","451.30000001192093","resources/trios/L4T4A3.jpg","38","restless",0.4,0.5,0.5,0.793309041631447,"false"
"image-keyboard-response",480,458722,"0.0-3.156-1.156","q6zv07l7cyjkjbt",768,"196.csv","","null","resources/maskTrios/BT4B.jpg","null","",NA,NA,NA,NA,""
"image-keyboard-response",481,459924,"0.0-3.156-2.156","q6zv07l7cyjkjbt",768,"196.csv","","null","resources/images/fishbone.png","null","",NA,NA,NA,NA,""
"image-keyboard-response",482,460844,"0.0-3.157-0.157","q6zv07l7cyjkjbt",768,"196.csv","","918.9000000059605","resources/trios/L2T1A1.jpg","37","restless",0.4,0.5,0.5,0.881091211463403,"false"
"image-keyboard-response",483,461248,"0.0-3.157-1.157","q6zv07l7cyjkjbt",768,"196.csv","","null","resources/maskTrios/L2BB.jpg","null","",NA,NA,NA,NA,""
"image-keyboard-response",484,462452,"0.0-3.157-2.157","q6zv07l7cyjkjbt",768,"196.csv","","null","resources/images/fishbone.png","null","",NA,NA,NA,NA,""
"image-keyboard-response",485,463366,"0.0-3.158-0.158","q6zv07l7cyjkjbt",768,"196.csv","","912","resources/trios/L2T4A3.jpg","39","restless",0.4,0.5,0.5,0.216378601869401,"true"
"image-keyboard-response",486,463772,"0.0-3.158-1.158","q6zv07l7cyjkjbt",768,"196.csv","","null","resources/maskTrios/BBA3.jpg","null","",NA,NA,NA,NA,""
"image-keyboard-response",487,464974,"0.0-3.158-2.158","q6zv07l7cyjkjbt",768,"196.csv","","null","resources/images/coin2.png","null","",NA,NA,NA,NA,""
"image-keyboard-response",488,465441,"0.0-3.159-0.159","q6zv07l7cyjkjbt",768,"196.csv","","465.39999997615814","resources/trios/L2T4A3.jpg","39","restless",0.4,0.5,0.5,0.145892442770268,"true"
"image-keyboard-response",489,465846,"0.0-3.159-1.159","q6zv07l7cyjkjbt",768,"196.csv","","null","resources/maskTrios/BBA3.jpg","null","",NA,NA,NA,NA,""
"image-keyboard-response",490,467047,"0.0-3.159-2.159","q6zv07l7cyjkjbt",768,"196.csv","","null","resources/images/coin2.png","null","",NA,NA,NA,NA,""
"image-keyboard-response",491,467476,"0.0-3.160-0.160","q6zv07l7cyjkjbt",768,"196.csv","","428.19999998807907","resources/trios/L4T1A3.jpg","39","restless",0.4,0.5,0.6,0.835580196148374,"false"
"image-keyboard-response",492,467879,"0.0-3.160-1.160","q6zv07l7cyjkjbt",768,"196.csv","","null","resources/maskTrios/BBA3.jpg","null","",NA,NA,NA,NA,""
"image-keyboard-response",493,469081,"0.0-3.160-2.160","q6zv07l7cyjkjbt",768,"196.csv","","null","resources/images/fishbone.png","null","",NA,NA,NA,NA,""
"image-keyboard-response",494,469644,"0.0-3.161-0.161","q6zv07l7cyjkjbt",768,"196.csv","","561.4000000059605","resources/trios/L4T4A3.jpg","39","restless",0.3,0.5,0.6,0.699367334593848,"false"
"image-keyboard-response",495,470045,"0.0-3.161-1.161","q6zv07l7cyjkjbt",768,"196.csv","","null","resources/maskTrios/BBA3.jpg","null","",NA,NA,NA,NA,""
"image-keyboard-response",496,471248,"0.0-3.161-2.161","q6zv07l7cyjkjbt",768,"196.csv","","null","resources/images/fishbone.png","null","",NA,NA,NA,NA,""
"image-keyboard-response",497,471649,"0.0-3.162-0.162","q6zv07l7cyjkjbt",768,"196.csv","","399.40000000596046","resources/trios/L2T1A3.jpg","39","restless",0.3,0.5,0.6,0.73804030303578,"false"
"image-keyboard-response",498,472052,"0.0-3.162-1.162","q6zv07l7cyjkjbt",768,"196.csv","","null","resources/maskTrios/BBA3.jpg","null","",NA,NA,NA,NA,""
"image-keyboard-response",499,473256,"0.0-3.162-2.162","q6zv07l7cyjkjbt",768,"196.csv","","null","resources/images/fishbone.png","null","",NA,NA,NA,NA,""
"image-keyboard-response",500,474452,"0.0-3.163-0.163","q6zv07l7cyjkjbt",768,"196.csv","","1195.1000000238419","resources/trios/L2T1A1.jpg","37","restless",0.3,0.5,0.6,0.39182819460412,"false"
"image-keyboard-response",501,474855,"0.0-3.163-1.163","q6zv07l7cyjkjbt",768,"196.csv","","null","resources/maskTrios/L2BB.jpg","null","",NA,NA,NA,NA,""
"image-keyboard-response",502,476058,"0.0-3.163-2.163","q6zv07l7cyjkjbt",768,"196.csv","","null","resources/images/fishbone.png","null","",NA,NA,NA,NA,""
"image-keyboard-response",503,478026,"0.0-3.164-0.164","q6zv07l7cyjkjbt",768,"196.csv","","1966.4000000059605","resources/trios/L4T4A1.jpg","37","restless",0.3,0.5,0.6,0.926487403267606,"false"
"image-keyboard-response",504,478431,"0.0-3.164-1.164","q6zv07l7cyjkjbt",768,"196.csv","","null","resources/maskTrios/L4BB.jpg","null","",NA,NA,NA,NA,""
"image-keyboard-response",505,479634,"0.0-3.164-2.164","q6zv07l7cyjkjbt",768,"196.csv","","null","resources/images/fishbone.png","null","",NA,NA,NA,NA,""
"image-keyboard-response",506,480432,"0.0-3.165-0.165","q6zv07l7cyjkjbt",768,"196.csv","","796.4000000059605","resources/trios/L2T4A3.jpg","38","restless",0.3,0.5,0.5,0.260303167154117,"true"
"image-keyboard-response",507,480837,"0.0-3.165-1.165","q6zv07l7cyjkjbt",768,"196.csv","","null","resources/maskTrios/BT4B.jpg","null","",NA,NA,NA,NA,""
"image-keyboard-response",508,482043,"0.0-3.165-2.165","q6zv07l7cyjkjbt",768,"196.csv","","null","resources/images/coin2.png","null","",NA,NA,NA,NA,""
"image-keyboard-response",509,483670,"0.0-3.166-0.166","q6zv07l7cyjkjbt",768,"196.csv","","1626.5","resources/trios/L2T4A1.jpg","37","restless",0.3,0.5,0.4,0.413949434840663,"false"
"image-keyboard-response",510,484072,"0.0-3.166-1.166","q6zv07l7cyjkjbt",768,"196.csv","","null","resources/maskTrios/L2BB.jpg","null","",NA,NA,NA,NA,""
"image-keyboard-response",511,485277,"0.0-3.166-2.166","q6zv07l7cyjkjbt",768,"196.csv","","null","resources/images/fishbone.png","null","",NA,NA,NA,NA,""
"image-keyboard-response",512,485849,"0.0-3.167-0.167","q6zv07l7cyjkjbt",768,"196.csv","","570.6000000238419","resources/trios/L4T1A3.jpg","38","restless",0.4,0.5,0.4,0.540455416738912,"false"
"image-keyboard-response",513,486256,"0.0-3.167-1.167","q6zv07l7cyjkjbt",768,"196.csv","","null","resources/maskTrios/BT1B.jpg","null","",NA,NA,NA,NA,""
"image-keyboard-response",514,487459,"0.0-3.167-2.167","q6zv07l7cyjkjbt",768,"196.csv","","null","resources/images/fishbone.png","null","",NA,NA,NA,NA,""
"image-keyboard-response",515,488185,"0.0-3.168-0.168","q6zv07l7cyjkjbt",768,"196.csv","","724.5","resources/trios/L2T1A3.jpg","37","restless",0.4,0.5,0.4,0.3874525083783,"true"
"image-keyboard-response",516,488589,"0.0-3.168-1.168","q6zv07l7cyjkjbt",768,"196.csv","","null","resources/maskTrios/L2BB.jpg","null","",NA,NA,NA,NA,""
"image-keyboard-response",517,489795,"0.0-3.168-2.168","q6zv07l7cyjkjbt",768,"196.csv","","null","resources/images/coin2.png","null","",NA,NA,NA,NA,""
"image-keyboard-response",518,490613,"0.0-3.169-0.169","q6zv07l7cyjkjbt",768,"196.csv","","816.1000000238419","resources/trios/L4T4A3.jpg","39","restless",0.4,0.5,0.4,0.391271119780447,"true"
"image-keyboard-response",519,491018,"0.0-3.169-1.169","q6zv07l7cyjkjbt",768,"196.csv","","null","resources/maskTrios/BBA3.jpg","null","",NA,NA,NA,NA,""
"image-keyboard-response",520,492222,"0.0-3.169-2.169","q6zv07l7cyjkjbt",768,"196.csv","","null","resources/images/coin2.png","null","",NA,NA,NA,NA,""
"image-keyboard-response",521,492890,"0.0-3.170-0.170","q6zv07l7cyjkjbt",768,"196.csv","","666.8000000119209","resources/trios/L2T1A1.jpg","37","restless",0.4,0.5,0.3,0.968301818030912,"false"
"image-keyboard-response",522,493292,"0.0-3.170-1.170","q6zv07l7cyjkjbt",768,"196.csv","","null","resources/maskTrios/L2BB.jpg","null","",NA,NA,NA,NA,""
"image-keyboard-response",523,494498,"0.0-3.170-2.170","q6zv07l7cyjkjbt",768,"196.csv","","null","resources/images/fishbone.png","null","",NA,NA,NA,NA,""
"image-keyboard-response",524,495354,"0.0-3.171-0.171","q6zv07l7cyjkjbt",768,"196.csv","","854.2000000178814","resources/trios/L2T1A1.jpg","39","restless",0.4,0.5,0.3,0.714846221910404,"false"
"image-keyboard-response",525,495760,"0.0-3.171-1.171","q6zv07l7cyjkjbt",768,"196.csv","","null","resources/maskTrios/BBA1.jpg","null","",NA,NA,NA,NA,""
"image-keyboard-response",526,496965,"0.0-3.171-2.171","q6zv07l7cyjkjbt",768,"196.csv","","null","resources/images/fishbone.png","null","",NA,NA,NA,NA,""
"image-keyboard-response",527,497540,"0.0-3.172-0.172","q6zv07l7cyjkjbt",768,"196.csv","","573.8000000119209","resources/trios/L4T4A3.jpg","39","restless",0.4,0.5,0.3,0.722167733348262,"false"
"image-keyboard-response",528,497941,"0.0-3.172-1.172","q6zv07l7cyjkjbt",768,"196.csv","","null","resources/maskTrios/BBA3.jpg","null","",NA,NA,NA,NA,""
"image-keyboard-response",529,499148,"0.0-3.172-2.172","q6zv07l7cyjkjbt",768,"196.csv","","null","resources/images/fishbone.png","null","",NA,NA,NA,NA,""
"image-keyboard-response",530,499763,"0.0-3.173-0.173","q6zv07l7cyjkjbt",768,"196.csv","","613.9000000059605","resources/trios/L2T4A1.jpg","37","restless",0.4,0.5,0.3,0.0703471963292084,"true"
"image-keyboard-response",531,500166,"0.0-3.173-1.173","q6zv07l7cyjkjbt",768,"196.csv","","null","resources/maskTrios/L2BB.jpg","null","",NA,NA,NA,NA,""
"image-keyboard-response",532,501372,"0.0-3.173-2.173","q6zv07l7cyjkjbt",768,"196.csv","","null","resources/images/coin2.png","null","",NA,NA,NA,NA,""
"image-keyboard-response",533,501945,"0.0-3.174-0.174","q6zv07l7cyjkjbt",768,"196.csv","","571.4000000059605","resources/trios/L4T4A1.jpg","38","restless",0.4,0.5,0.3,0.161071909499671,"true"
"image-keyboard-response",534,502350,"0.0-3.174-1.174","q6zv07l7cyjkjbt",768,"196.csv","","null","resources/maskTrios/BT4B.jpg","null","",NA,NA,NA,NA,""
"image-keyboard-response",535,503555,"0.0-3.174-2.174","q6zv07l7cyjkjbt",768,"196.csv","","null","resources/images/coin2.png","null","",NA,NA,NA,NA,""
"image-keyboard-response",536,504328,"0.0-3.175-0.175","q6zv07l7cyjkjbt",768,"196.csv","","771.3999999761581","resources/trios/L4T4A3.jpg","38","restless",0.4,0.5,0.3,0.031548165230618,"true"
"image-keyboard-response",537,504731,"0.0-3.175-1.175","q6zv07l7cyjkjbt",768,"196.csv","","null","resources/maskTrios/BT4B.jpg","null","",NA,NA,NA,NA,""
"image-keyboard-response",538,505934,"0.0-3.175-2.175","q6zv07l7cyjkjbt",768,"196.csv","","null","resources/images/coin2.png","null","",NA,NA,NA,NA,""
"image-keyboard-response",539,506471,"0.0-3.176-0.176","q6zv07l7cyjkjbt",768,"196.csv","","536.0999999940395","resources/trios/L2T1A1.jpg","37","restless",0.4,0.5,0.3,0.105132337635458,"true"
"image-keyboard-response",540,506876,"0.0-3.176-1.176","q6zv07l7cyjkjbt",768,"196.csv","","null","resources/maskTrios/L2BB.jpg","null","",NA,NA,NA,NA,""
"image-keyboard-response",541,508079,"0.0-3.176-2.176","q6zv07l7cyjkjbt",768,"196.csv","","null","resources/images/coin2.png","null","",NA,NA,NA,NA,""
"image-keyboard-response",542,508740,"0.0-3.177-0.177","q6zv07l7cyjkjbt",768,"196.csv","","659.5999999940395","resources/trios/L2T1A1.jpg","38","restless",0.4,0.5,0.3,0.325793828098214,"true"
"image-keyboard-response",543,509143,"0.0-3.177-1.177","q6zv07l7cyjkjbt",768,"196.csv","","null","resources/maskTrios/BT1B.jpg","null","",NA,NA,NA,NA,""
"image-keyboard-response",544,510349,"0.0-3.177-2.177","q6zv07l7cyjkjbt",768,"196.csv","","null","resources/images/coin2.png","null","",NA,NA,NA,NA,""
"image-keyboard-response",545,510970,"0.0-3.178-0.178","q6zv07l7cyjkjbt",768,"196.csv","","619","resources/trios/L2T4A3.jpg","39","restless",0.4,0.5,0.3,0.858250858222044,"false"
"image-keyboard-response",546,511373,"0.0-3.178-1.178","q6zv07l7cyjkjbt",768,"196.csv","","null","resources/maskTrios/BBA3.jpg","null","",NA,NA,NA,NA,""
"image-keyboard-response",547,512579,"0.0-3.178-2.178","q6zv07l7cyjkjbt",768,"196.csv","","null","resources/images/fishbone.png","null","",NA,NA,NA,NA,""
"image-keyboard-response",548,513649,"0.0-3.179-0.179","q6zv07l7cyjkjbt",768,"196.csv","","1067.8999999761581","resources/trios/L4T4A3.jpg","37","restless",0.3,0.5,0.3,0.509403986138566,"false"
"image-keyboard-response",549,514054,"0.0-3.179-1.179","q6zv07l7cyjkjbt",768,"196.csv","","null","resources/maskTrios/L4BB.jpg","null","",NA,NA,NA,NA,""
"image-keyboard-response",550,515260,"0.0-3.179-2.179","q6zv07l7cyjkjbt",768,"196.csv","","null","resources/images/fishbone.png","null","",NA,NA,NA,NA,""
"image-keyboard-response",551,515850,"0.0-3.180-0.180","q6zv07l7cyjkjbt",768,"196.csv","","588.5999999940395","resources/trios/L2T4A1.jpg","39","restless",0.3,0.5,0.3,0.302040962948024,"false"
"image-keyboard-response",552,516255,"0.0-3.180-1.180","q6zv07l7cyjkjbt",768,"196.csv","","null","resources/maskTrios/BBA1.jpg","null","",NA,NA,NA,NA,""
"image-keyboard-response",553,517457,"0.0-3.180-2.180","q6zv07l7cyjkjbt",768,"196.csv","","null","resources/images/fishbone.png","null","",NA,NA,NA,NA,""
"image-keyboard-response",554,547479,"0.0-3.181-0.181","q6zv07l7cyjkjbt",768,"196.csv","","30020.899999976158","resources/trios/L2T1A3.jpg","37","restless",0.3,0.6,0.3,0.945385392376511,"false"
"image-keyboard-response",555,547883,"0.0-3.181-1.181","q6zv07l7cyjkjbt",768,"196.csv","","null","resources/maskTrios/L2BB.jpg","null","",NA,NA,NA,NA,""
"image-keyboard-response",556,549088,"0.0-3.181-2.181","q6zv07l7cyjkjbt",768,"196.csv","","null","resources/images/fishbone.png","null","",NA,NA,NA,NA,""
"image-keyboard-response",557,549602,"0.0-3.182-0.182","q6zv07l7cyjkjbt",768,"196.csv","","512","resources/trios/L2T1A3.jpg","37","restless",0.3,0.6,0.3,0.788804053585248,"false"
"image-keyboard-response",558,550005,"0.0-3.182-1.182","q6zv07l7cyjkjbt",768,"196.csv","","null","resources/maskTrios/L2BB.jpg","null","",NA,NA,NA,NA,""
"image-keyboard-response",559,551210,"0.0-3.182-2.182","q6zv07l7cyjkjbt",768,"196.csv","","null","resources/images/fishbone.png","null","",NA,NA,NA,NA,""
"image-keyboard-response",560,551612,"0.0-3.183-0.183","q6zv07l7cyjkjbt",768,"196.csv","","399.30000001192093","resources/trios/L2T1A1.jpg","37","restless",0.3,0.6,0.3,0.0857018482449394,"true"
"image-keyboard-response",561,552017,"0.0-3.183-1.183","q6zv07l7cyjkjbt",768,"196.csv","","null","resources/maskTrios/L2BB.jpg","null","",NA,NA,NA,NA,""
"image-keyboard-response",562,553221,"0.0-3.183-2.183","q6zv07l7cyjkjbt",768,"196.csv","","null","resources/images/coin2.png","null","",NA,NA,NA,NA,""
"image-keyboard-response",563,553918,"0.0-3.184-0.184","q6zv07l7cyjkjbt",768,"196.csv","","695.0999999940395","resources/trios/L4T4A3.jpg","39","restless",0.3,0.7,0.3,0.344772493441602,"false"
"image-keyboard-response",564,554323,"0.0-3.184-1.184","q6zv07l7cyjkjbt",768,"196.csv","","null","resources/maskTrios/BBA3.jpg","null","",NA,NA,NA,NA,""
"image-keyboard-response",565,555526,"0.0-3.184-2.184","q6zv07l7cyjkjbt",768,"196.csv","","null","resources/images/fishbone.png","null","",NA,NA,NA,NA,""
"image-keyboard-response",566,555835,"0.0-3.185-0.185","q6zv07l7cyjkjbt",768,"196.csv","","307.5","resources/trios/L2T4A3.jpg","38","restless",0.3,0.7,0.4,0.459996062706323,"true"
"image-keyboard-response",567,556238,"0.0-3.185-1.185","q6zv07l7cyjkjbt",768,"196.csv","","null","resources/maskTrios/BT4B.jpg","null","",NA,NA,NA,NA,""
"image-keyboard-response",568,557440,"0.0-3.185-2.185","q6zv07l7cyjkjbt",768,"196.csv","","null","resources/images/coin2.png","null","",NA,NA,NA,NA,""
"image-keyboard-response",569,557866,"0.0-3.186-0.186","q6zv07l7cyjkjbt",768,"196.csv","","424.2999999821186","resources/trios/L4T1A1.jpg","38","restless",0.3,0.7,0.4,0.289326827737798,"true"
"image-keyboard-response",570,558271,"0.0-3.186-1.186","q6zv07l7cyjkjbt",768,"196.csv","","null","resources/maskTrios/BT1B.jpg","null","",NA,NA,NA,NA,""
"image-keyboard-response",571,559477,"0.0-3.186-2.186","q6zv07l7cyjkjbt",768,"196.csv","","null","resources/images/coin2.png","null","",NA,NA,NA,NA,""
"image-keyboard-response",572,560113,"0.0-3.187-0.187","q6zv07l7cyjkjbt",768,"196.csv","","634.4000000059605","resources/trios/L2T1A3.jpg","38","restless",0.3,0.7,0.4,0.480650417232386,"true"
"image-keyboard-response",573,560515,"0.0-3.187-1.187","q6zv07l7cyjkjbt",768,"196.csv","","null","resources/maskTrios/BT1B.jpg","null","",NA,NA,NA,NA,""
"image-keyboard-response",574,561720,"0.0-3.187-2.187","q6zv07l7cyjkjbt",768,"196.csv","","null","resources/images/coin2.png","null","",NA,NA,NA,NA,""
"image-keyboard-response",575,562204,"0.0-3.188-0.188","q6zv07l7cyjkjbt",768,"196.csv","","482.90000000596046","resources/trios/L2T1A1.jpg","37","restless",0.3,0.6,0.4,0.802064689829126,"false"
"image-keyboard-response",576,562608,"0.0-3.188-1.188","q6zv07l7cyjkjbt",768,"196.csv","","null","resources/maskTrios/L2BB.jpg","null","",NA,NA,NA,NA,""
"image-keyboard-response",577,563810,"0.0-3.188-2.188","q6zv07l7cyjkjbt",768,"196.csv","","null","resources/images/fishbone.png","null","",NA,NA,NA,NA,""
"image-keyboard-response",578,564345,"0.0-3.189-0.189","q6zv07l7cyjkjbt",768,"196.csv","","533.4000000059605","resources/trios/L4T4A1.jpg","38","restless",0.3,0.5,0.4,0.66177980453957,"false"
"image-keyboard-response",579,564747,"0.0-3.189-1.189","q6zv07l7cyjkjbt",768,"196.csv","","null","resources/maskTrios/BT4B.jpg","null","",NA,NA,NA,NA,""
"image-keyboard-response",580,565949,"0.0-3.189-2.189","q6zv07l7cyjkjbt",768,"196.csv","","null","resources/images/fishbone.png","null","",NA,NA,NA,NA,""
"image-keyboard-response",581,566502,"0.0-3.190-0.190","q6zv07l7cyjkjbt",768,"196.csv","","551.5999999940395","resources/trios/L2T4A3.jpg","38","restless",0.2,0.5,0.4,0.0288245912118188,"true"
"image-keyboard-response",582,566905,"0.0-3.190-1.190","q6zv07l7cyjkjbt",768,"196.csv","","null","resources/maskTrios/BT4B.jpg","null","",NA,NA,NA,NA,""
"image-keyboard-response",583,568107,"0.0-3.190-2.190","q6zv07l7cyjkjbt",768,"196.csv","","null","resources/images/coin2.png","null","",NA,NA,NA,NA,""
"image-keyboard-response",584,568904,"0.0-3.191-0.191","q6zv07l7cyjkjbt",768,"196.csv","","794.5","resources/trios/L4T1A3.jpg","37","restless",0.2,0.5,0.4,0.925875750912024,"false"
"image-keyboard-response",585,569306,"0.0-3.191-1.191","q6zv07l7cyjkjbt",768,"196.csv","","null","resources/maskTrios/L4BB.jpg","null","",NA,NA,NA,NA,""
"image-keyboard-response",586,570511,"0.0-3.191-2.191","q6zv07l7cyjkjbt",768,"196.csv","","null","resources/images/fishbone.png","null","",NA,NA,NA,NA,""
"image-keyboard-response",587,571223,"0.0-3.192-0.192","q6zv07l7cyjkjbt",768,"196.csv","","710.8999999761581","resources/trios/L2T4A3.jpg","37","restless",0.2,0.5,0.4,0.128676692721352,"true"
"image-keyboard-response",588,571624,"0.0-3.192-1.192","q6zv07l7cyjkjbt",768,"196.csv","","null","resources/maskTrios/L2BB.jpg","null","",NA,NA,NA,NA,""
"image-keyboard-response",589,572830,"0.0-3.192-2.192","q6zv07l7cyjkjbt",768,"196.csv","","null","resources/images/coin2.png","null","",NA,NA,NA,NA,""
"image-keyboard-response",590,573295,"0.0-3.193-0.193","q6zv07l7cyjkjbt",768,"196.csv","","464.2000000178814","resources/trios/L2T4A3.jpg","38","restless",0.2,0.5,0.4,0.714598069534569,"false"
"image-keyboard-response",591,573697,"0.0-3.193-1.193","q6zv07l7cyjkjbt",768,"196.csv","","null","resources/maskTrios/BT4B.jpg","null","",NA,NA,NA,NA,""
"image-keyboard-response",592,574900,"0.0-3.193-2.193","q6zv07l7cyjkjbt",768,"196.csv","","null","resources/images/fishbone.png","null","",NA,NA,NA,NA,""
"image-keyboard-response",593,575486,"0.0-3.194-0.194","q6zv07l7cyjkjbt",768,"196.csv","","584.1999999880791","resources/trios/L2T4A3.jpg","39","restless",0.2,0.5,0.4,0.765285491712353,"false"
"image-keyboard-response",594,575888,"0.0-3.194-1.194","q6zv07l7cyjkjbt",768,"196.csv","","null","resources/maskTrios/BBA3.jpg","null","",NA,NA,NA,NA,""
"image-keyboard-response",595,577091,"0.0-3.194-2.194","q6zv07l7cyjkjbt",768,"196.csv","","null","resources/images/fishbone.png","null","",NA,NA,NA,NA,""
"image-keyboard-response",596,578000,"0.0-3.195-0.195","q6zv07l7cyjkjbt",768,"196.csv","","906.7999999821186","resources/trios/L2T1A3.jpg","38","restless",0.2,0.5,0.5,0.308951178109128,"true"
"image-keyboard-response",597,578405,"0.0-3.195-1.195","q6zv07l7cyjkjbt",768,"196.csv","","null","resources/maskTrios/BT1B.jpg","null","",NA,NA,NA,NA,""
"image-keyboard-response",598,579608,"0.0-3.195-2.195","q6zv07l7cyjkjbt",768,"196.csv","","null","resources/images/coin2.png","null","",NA,NA,NA,NA,""
"image-keyboard-response",599,580029,"0.0-3.196-0.196","q6zv07l7cyjkjbt",768,"196.csv","","419.5","resources/trios/L2T1A3.jpg","38","restless",0.2,0.5,0.5,0.55006623892482,"false"
"image-keyboard-response",600,580431,"0.0-3.196-1.196","q6zv07l7cyjkjbt",768,"196.csv","","null","resources/maskTrios/BT1B.jpg","null","",NA,NA,NA,NA,""
"image-keyboard-response",601,581635,"0.0-3.196-2.196","q6zv07l7cyjkjbt",768,"196.csv","","null","resources/images/fishbone.png","null","",NA,NA,NA,NA,""
"image-keyboard-response",602,582113,"0.0-3.197-0.197","q6zv07l7cyjkjbt",768,"196.csv","","475.7999999821186","resources/trios/L4T1A3.jpg","37","restless",0.2,0.5,0.5,0.425545898302149,"false"
"image-keyboard-response",603,582514,"0.0-3.197-1.197","q6zv07l7cyjkjbt",768,"196.csv","","null","resources/maskTrios/L4BB.jpg","null","",NA,NA,NA,NA,""
"image-keyboard-response",604,583720,"0.0-3.197-2.197","q6zv07l7cyjkjbt",768,"196.csv","","null","resources/images/fishbone.png","null","",NA,NA,NA,NA,""
"image-keyboard-response",605,584243,"0.0-3.198-0.198","q6zv07l7cyjkjbt",768,"196.csv","","521.1999999880791","resources/trios/L4T4A3.jpg","37","restless",0.2,0.5,0.5,0.461146237419571,"false"
"image-keyboard-response",606,584645,"0.0-3.198-1.198","q6zv07l7cyjkjbt",768,"196.csv","","null","resources/maskTrios/L4BB.jpg","null","",NA,NA,NA,NA,""
