"trial_type","trial_index","time_elapsed","internal_node_id","subject","participantCode","walkNumber","success","rt","stimulus","key_press","test_part","leftProb","midProb","rightProb","generatedNum","correct"
"pavlovia",0,1479,"0.0-0.0","8yx99upd28jbub7",322,"96.csv","","","","","",NA,NA,NA,NA,""
"fullscreen",1,6042,"0.0-1.0","8yx99upd28jbub7",322,"96.csv","true","","","","",NA,NA,NA,NA,""
"html-keyboard-response",2,14928,"0.0-2.0-0.0","8yx99upd28jbub7",322,"96.csv","","8884.09999999404","<p><font size='6'>Arrrgh!</p></font><p>Can you be the best pirate? Try to find lots of gold! But beware, some islands have more gold than others, and over time, the island with the most gold may change. Can YOU figure it out? </p><font size='6'>GOOD LUCK, CAPTAIN!!!</font><p>Press any key to begin</p>","32","",NA,NA,NA,NA,""
"image-keyboard-response",3,17933,"0.0-2.0-1.0","8yx99upd28jbub7",322,"96.csv","","null","resources/image_sets/111.png","null","",NA,NA,NA,NA,""
"image-keyboard-response",4,29493,"0.0-2.0-2.0","8yx99upd28jbub7",322,"96.csv","","11557.40000000596","resources/image_sets/left_highlight.png","37","",NA,NA,NA,NA,""
"image-keyboard-response",5,30698,"0.0-2.0-3.0","8yx99upd28jbub7",322,"96.csv","","1201.800000011921","resources/image_sets/mid_highlight.png","38","",NA,NA,NA,NA,""
"image-keyboard-response",6,31116,"0.0-2.0-4.0","8yx99upd28jbub7",322,"96.csv","","416.30000001192093","resources/image_sets/right_highlight.png","39","",NA,NA,NA,NA,""
"image-keyboard-response",7,34157,"0.0-2.0-5.0","8yx99upd28jbub7",322,"96.csv","","3039.4000000059605","resources/image_sets/111.png","13","",NA,NA,NA,NA,""
"image-keyboard-response",8,36672,"0.0-2.0-6.0","8yx99upd28jbub7",322,"96.csv","","2512.2000000178814","resources/images/coin2.png","13","",NA,NA,NA,NA,""
"image-keyboard-response",9,38264,"0.0-2.0-7.0","8yx99upd28jbub7",322,"96.csv","","1591","resources/images/fishbone.png","13","",NA,NA,NA,NA,""
"html-keyboard-response",10,38981,"0.0-2.0-8.0","8yx99upd28jbub7",322,"96.csv","","715.5999999940395","<p>Your first journey will be a long one, but you will get a well deserved break at the end</p><p>After the break you will have four more journeys, but each will be much shorter than the first, and you will have breaks in between each</p><p>Press Enter to begin</p>","13","",NA,NA,NA,NA,""
"image-keyboard-response",11,40417,"0.0-3.0-0.0","8yx99upd28jbub7",322,"96.csv","","1432.199999988079","resources/trios/L2T1A3.jpg","37","restless",0.7,0.9,0.3,0.0554087923571449,"true"
"image-keyboard-response",12,40826,"0.0-3.0-1.0","8yx99upd28jbub7",322,"96.csv","","null","resources/maskTrios/L2BB.jpg","null","",NA,NA,NA,NA,""
"image-keyboard-response",13,42033,"0.0-3.0-2.0","8yx99upd28jbub7",322,"96.csv","","null","resources/images/coin2.png","null","",NA,NA,NA,NA,""
"image-keyboard-response",14,42901,"0.0-3.1-0.1","8yx99upd28jbub7",322,"96.csv","","863.2999999821186","resources/trios/L4T2A3.jpg","39","restless",0.7,0.8,0.3,0.780474401697014,"false"
"image-keyboard-response",15,43307,"0.0-3.1-1.1","8yx99upd28jbub7",322,"96.csv","","null","resources/maskTrios/BBA3.jpg","null","",NA,NA,NA,NA,""
"image-keyboard-response",16,44514,"0.0-3.1-2.1","8yx99upd28jbub7",322,"96.csv","","null","resources/images/fishbone.png","null","",NA,NA,NA,NA,""
"image-keyboard-response",17,45074,"0.0-3.2-0.2","8yx99upd28jbub7",322,"96.csv","","557","resources/trios/L2T2A2.jpg","37","restless",0.7,0.8,0.3,0.424499048542157,"true"
"image-keyboard-response",18,45479,"0.0-3.2-1.2","8yx99upd28jbub7",322,"96.csv","","null","resources/maskTrios/L2BB.jpg","null","",NA,NA,NA,NA,""
"image-keyboard-response",19,46687,"0.0-3.2-2.2","8yx99upd28jbub7",322,"96.csv","","null","resources/images/coin2.png","null","",NA,NA,NA,NA,""
"image-keyboard-response",20,47271,"0.0-3.3-0.3","8yx99upd28jbub7",322,"96.csv","","580.5","resources/trios/L4T2A3.jpg","37","restless",0.7,0.8,0.3,0.296058323425939,"true"
"image-keyboard-response",21,47679,"0.0-3.3-1.3","8yx99upd28jbub7",322,"96.csv","","null","resources/maskTrios/L4BB.jpg","null","",NA,NA,NA,NA,""
"image-keyboard-response",22,48887,"0.0-3.3-2.3","8yx99upd28jbub7",322,"96.csv","","null","resources/images/coin2.png","null","",NA,NA,NA,NA,""
"image-keyboard-response",23,49481,"0.0-3.4-0.4","8yx99upd28jbub7",322,"96.csv","","590.0999999940395","resources/trios/L4T2A2.jpg","37","restless",0.7,0.8,0.3,0.531963579633434,"true"
"image-keyboard-response",24,49889,"0.0-3.4-1.4","8yx99upd28jbub7",322,"96.csv","","null","resources/maskTrios/L4BB.jpg","null","",NA,NA,NA,NA,""
"image-keyboard-response",25,51092,"0.0-3.4-2.4","8yx99upd28jbub7",322,"96.csv","","null","resources/images/coin2.png","null","",NA,NA,NA,NA,""
"image-keyboard-response",26,51551,"0.0-3.5-0.5","8yx99upd28jbub7",322,"96.csv","","456","resources/trios/L4T1A3.jpg","37","restless",0.7,0.8,0.3,0.971522112981785,"false"
"image-keyboard-response",27,51959,"0.0-3.5-1.5","8yx99upd28jbub7",322,"96.csv","","null","resources/maskTrios/L4BB.jpg","null","",NA,NA,NA,NA,""
"image-keyboard-response",28,53166,"0.0-3.5-2.5","8yx99upd28jbub7",322,"96.csv","","null","resources/images/fishbone.png","null","",NA,NA,NA,NA,""
"image-keyboard-response",29,53776,"0.0-3.6-0.6","8yx99upd28jbub7",322,"96.csv","","605.8999999761581","resources/trios/L4T2A3.jpg","38","restless",0.7,0.8,0.3,0.809770613198878,"false"
"image-keyboard-response",30,54180,"0.0-3.6-1.6","8yx99upd28jbub7",322,"96.csv","","null","resources/maskTrios/BT2B.jpg","null","",NA,NA,NA,NA,""
"image-keyboard-response",31,55387,"0.0-3.6-2.6","8yx99upd28jbub7",322,"96.csv","","null","resources/images/fishbone.png","null","",NA,NA,NA,NA,""
"image-keyboard-response",32,55721,"0.0-3.7-0.7","8yx99upd28jbub7",322,"96.csv","","330.7999999821186","resources/trios/L4T2A2.jpg","39","restless",0.7,0.8,0.2,0.00410019995874777,"true"
"image-keyboard-response",33,56130,"0.0-3.7-1.7","8yx99upd28jbub7",322,"96.csv","","null","resources/maskTrios/BBA2.jpg","null","",NA,NA,NA,NA,""
"image-keyboard-response",34,57333,"0.0-3.7-2.7","8yx99upd28jbub7",322,"96.csv","","null","resources/images/coin2.png","null","",NA,NA,NA,NA,""
"image-keyboard-response",35,57929,"0.0-3.8-0.8","8yx99upd28jbub7",322,"96.csv","","592.7000000178814","resources/trios/L4T2A2.jpg","37","restless",0.7,0.8,0.2,0.431930456499502,"true"
"image-keyboard-response",36,58334,"0.0-3.8-1.8","8yx99upd28jbub7",322,"96.csv","","null","resources/maskTrios/L4BB.jpg","null","",NA,NA,NA,NA,""
"image-keyboard-response",37,59538,"0.0-3.8-2.8","8yx99upd28jbub7",322,"96.csv","","null","resources/images/coin2.png","null","",NA,NA,NA,NA,""
"image-keyboard-response",38,59986,"0.0-3.9-0.9","8yx99upd28jbub7",322,"96.csv","","444.40000000596046","resources/trios/L2T2A3.jpg","37","restless",0.7,0.8,0.2,0.0836187528762646,"true"
"image-keyboard-response",39,60393,"0.0-3.9-1.9","8yx99upd28jbub7",322,"96.csv","","null","resources/maskTrios/L2BB.jpg","null","",NA,NA,NA,NA,""
"image-keyboard-response",40,61600,"0.0-3.9-2.9","8yx99upd28jbub7",322,"96.csv","","null","resources/images/coin2.png","null","",NA,NA,NA,NA,""
"image-keyboard-response",41,61975,"0.0-3.10-0.10","8yx99upd28jbub7",322,"96.csv","","371.59999999403954","resources/trios/L4T2A2.jpg","39","restless",0.7,0.8,0.2,0.876174540282222,"false"
"image-keyboard-response",42,62379,"0.0-3.10-1.10","8yx99upd28jbub7",322,"96.csv","","null","resources/maskTrios/BBA2.jpg","null","",NA,NA,NA,NA,""
"image-keyboard-response",43,63583,"0.0-3.10-2.10","8yx99upd28jbub7",322,"96.csv","","null","resources/images/fishbone.png","null","",NA,NA,NA,NA,""
"image-keyboard-response",44,63905,"0.0-3.11-0.11","8yx99upd28jbub7",322,"96.csv","","318.80000001192093","resources/trios/L4T1A2.jpg","38","restless",0.7,0.8,0.1,0.34022793293617,"true"
"image-keyboard-response",45,64313,"0.0-3.11-1.11","8yx99upd28jbub7",322,"96.csv","","null","resources/maskTrios/BT1B.jpg","null","",NA,NA,NA,NA,""
"image-keyboard-response",46,65521,"0.0-3.11-2.11","8yx99upd28jbub7",322,"96.csv","","null","resources/images/coin2.png","null","",NA,NA,NA,NA,""
"image-keyboard-response",47,65838,"0.0-3.12-0.12","8yx99upd28jbub7",322,"96.csv","","314.09999999403954","resources/trios/L2T2A2.jpg","38","restless",0.6,0.8,0.1,0.186154700802044,"true"
"image-keyboard-response",48,66246,"0.0-3.12-1.12","8yx99upd28jbub7",322,"96.csv","","null","resources/maskTrios/BT2B.jpg","null","",NA,NA,NA,NA,""
"image-keyboard-response",49,67452,"0.0-3.12-2.12","8yx99upd28jbub7",322,"96.csv","","null","resources/images/coin2.png","null","",NA,NA,NA,NA,""
"image-keyboard-response",50,67912,"0.0-3.13-0.13","8yx99upd28jbub7",322,"96.csv","","456.19999998807907","resources/trios/L2T2A3.jpg","38","restless",0.6,0.8,0.1,0.100140898485057,"true"
"image-keyboard-response",51,68320,"0.0-3.13-1.13","8yx99upd28jbub7",322,"96.csv","","null","resources/maskTrios/BT2B.jpg","null","",NA,NA,NA,NA,""
"image-keyboard-response",52,69523,"0.0-3.13-2.13","8yx99upd28jbub7",322,"96.csv","","null","resources/images/coin2.png","null","",NA,NA,NA,NA,""
"image-keyboard-response",53,70040,"0.0-3.14-0.14","8yx99upd28jbub7",322,"96.csv","","514","resources/trios/L4T2A3.jpg","38","restless",0.6,0.8,0.1,0.337063704071621,"true"
"image-keyboard-response",54,70447,"0.0-3.14-1.14","8yx99upd28jbub7",322,"96.csv","","null","resources/maskTrios/BT2B.jpg","null","",NA,NA,NA,NA,""
"image-keyboard-response",55,71653,"0.0-3.14-2.14","8yx99upd28jbub7",322,"96.csv","","null","resources/images/coin2.png","null","",NA,NA,NA,NA,""
"image-keyboard-response",56,72006,"0.0-3.15-0.15","8yx99upd28jbub7",322,"96.csv","","349.5","resources/trios/L2T2A3.jpg","38","restless",0.6,0.8,0.1,0.360608175176295,"true"
"image-keyboard-response",57,72411,"0.0-3.15-1.15","8yx99upd28jbub7",322,"96.csv","","null","resources/maskTrios/BT2B.jpg","null","",NA,NA,NA,NA,""
"image-keyboard-response",58,73618,"0.0-3.15-2.15","8yx99upd28jbub7",322,"96.csv","","null","resources/images/coin2.png","null","",NA,NA,NA,NA,""
"image-keyboard-response",59,73913,"0.0-3.16-0.16","8yx99upd28jbub7",322,"96.csv","","291.59999999403954","resources/trios/L2T2A3.jpg","38","restless",0.6,0.8,0.2,0.687691853104169,"true"
"image-keyboard-response",60,74321,"0.0-3.16-1.16","8yx99upd28jbub7",322,"96.csv","","null","resources/maskTrios/BT2B.jpg","null","",NA,NA,NA,NA,""
"image-keyboard-response",61,75529,"0.0-3.16-2.16","8yx99upd28jbub7",322,"96.csv","","null","resources/images/coin2.png","null","",NA,NA,NA,NA,""
"image-keyboard-response",62,75769,"0.0-3.17-0.17","8yx99upd28jbub7",322,"96.csv","","237","resources/trios/L4T1A2.jpg","37","restless",0.6,0.7,0.2,0.814697623946007,"false"
"image-keyboard-response",63,76175,"0.0-3.17-1.17","8yx99upd28jbub7",322,"96.csv","","null","resources/maskTrios/L4BB.jpg","null","",NA,NA,NA,NA,""
"image-keyboard-response",64,77377,"0.0-3.17-2.17","8yx99upd28jbub7",322,"96.csv","","null","resources/images/fishbone.png","null","",NA,NA,NA,NA,""
"image-keyboard-response",65,77761,"0.0-3.18-0.18","8yx99upd28jbub7",322,"96.csv","","379.5","resources/trios/L4T1A3.jpg","39","restless",0.6,0.7,0.2,0.338069536310596,"false"
"image-keyboard-response",66,78168,"0.0-3.18-1.18","8yx99upd28jbub7",322,"96.csv","","null","resources/maskTrios/BBA3.jpg","null","",NA,NA,NA,NA,""
"image-keyboard-response",67,79375,"0.0-3.18-2.18","8yx99upd28jbub7",322,"96.csv","","null","resources/images/fishbone.png","null","",NA,NA,NA,NA,""
"image-keyboard-response",68,79623,"0.0-3.19-0.19","8yx99upd28jbub7",322,"96.csv","","244.2000000178814","resources/trios/L4T1A3.jpg","38","restless",0.6,0.7,0.2,0.944082023223959,"false"
"image-keyboard-response",69,80029,"0.0-3.19-1.19","8yx99upd28jbub7",322,"96.csv","","null","resources/maskTrios/BT1B.jpg","null","",NA,NA,NA,NA,""
"image-keyboard-response",70,81236,"0.0-3.19-2.19","8yx99upd28jbub7",322,"96.csv","","null","resources/images/fishbone.png","null","",NA,NA,NA,NA,""
"image-keyboard-response",71,81825,"0.0-3.20-0.20","8yx99upd28jbub7",322,"96.csv","","583.9000000059605","resources/trios/L4T2A2.jpg","39","restless",0.6,0.7,0.2,0.972956553418969,"false"
"image-keyboard-response",72,82232,"0.0-3.20-1.20","8yx99upd28jbub7",322,"96.csv","","null","resources/maskTrios/BBA2.jpg","null","",NA,NA,NA,NA,""
"image-keyboard-response",73,83439,"0.0-3.20-2.20","8yx99upd28jbub7",322,"96.csv","","null","resources/images/fishbone.png","null","",NA,NA,NA,NA,""
"image-keyboard-response",74,83978,"0.0-3.21-0.21","8yx99upd28jbub7",322,"96.csv","","534.5","resources/trios/L4T1A3.jpg","37","restless",0.6,0.7,0.1,0.0883279651315618,"true"
"image-keyboard-response",75,84382,"0.0-3.21-1.21","8yx99upd28jbub7",322,"96.csv","","null","resources/maskTrios/L4BB.jpg","null","",NA,NA,NA,NA,""
"image-keyboard-response",76,85588,"0.0-3.21-2.21","8yx99upd28jbub7",322,"96.csv","","null","resources/images/coin2.png","null","",NA,NA,NA,NA,""
"image-keyboard-response",77,86671,"0.0-3.22-0.22","8yx99upd28jbub7",322,"96.csv","","1079.5","resources/trios/L2T1A2.jpg","39","restless",0.6,0.6,0.1,0.341967426004268,"false"
"image-keyboard-response",78,87076,"0.0-3.22-1.22","8yx99upd28jbub7",322,"96.csv","","null","resources/maskTrios/BBA2.jpg","null","",NA,NA,NA,NA,""
"image-keyboard-response",79,88280,"0.0-3.22-2.22","8yx99upd28jbub7",322,"96.csv","","null","resources/images/fishbone.png","null","",NA,NA,NA,NA,""
"image-keyboard-response",80,89484,"0.0-3.23-0.23","8yx99upd28jbub7",322,"96.csv","","1200.0999999940395","resources/trios/L2T1A3.jpg","37","restless",0.6,0.6,0.1,0.735941312147454,"false"
"image-keyboard-response",81,89888,"0.0-3.23-1.23","8yx99upd28jbub7",322,"96.csv","","null","resources/maskTrios/L2BB.jpg","null","",NA,NA,NA,NA,""
"image-keyboard-response",82,91094,"0.0-3.23-2.23","8yx99upd28jbub7",322,"96.csv","","null","resources/images/fishbone.png","null","",NA,NA,NA,NA,""
"image-keyboard-response",83,91186,"0.0-3.24-0.24","8yx99upd28jbub7",322,"96.csv","","88.69999998807907","resources/trios/L4T2A3.jpg","39","restless",0.6,0.6,0.1,0.465375522672788,"false"
"image-keyboard-response",84,91591,"0.0-3.24-1.24","8yx99upd28jbub7",322,"96.csv","","null","resources/maskTrios/BBA3.jpg","null","",NA,NA,NA,NA,""
"image-keyboard-response",85,92798,"0.0-3.24-2.24","8yx99upd28jbub7",322,"96.csv","","null","resources/images/fishbone.png","null","",NA,NA,NA,NA,""
"image-keyboard-response",86,93013,"0.0-3.25-0.25","8yx99upd28jbub7",322,"96.csv","","210.90000000596046","resources/trios/L2T1A3.jpg","37","restless",0.6,0.5,0.1,0.638531697603745,"false"
"image-keyboard-response",87,93421,"0.0-3.25-1.25","8yx99upd28jbub7",322,"96.csv","","null","resources/maskTrios/L2BB.jpg","null","",NA,NA,NA,NA,""
"image-keyboard-response",88,94627,"0.0-3.25-2.25","8yx99upd28jbub7",322,"96.csv","","null","resources/images/fishbone.png","null","",NA,NA,NA,NA,""
"image-keyboard-response",89,94785,"0.0-3.26-0.26","8yx99upd28jbub7",322,"96.csv","","154.5","resources/trios/L2T1A3.jpg","37","restless",0.6,0.5,0.1,0.0743538702185731,"true"
"image-keyboard-response",90,95188,"0.0-3.26-1.26","8yx99upd28jbub7",322,"96.csv","","null","resources/maskTrios/L2BB.jpg","null","",NA,NA,NA,NA,""
"image-keyboard-response",91,96395,"0.0-3.26-2.26","8yx99upd28jbub7",322,"96.csv","","null","resources/images/coin2.png","null","",NA,NA,NA,NA,""
"image-keyboard-response",92,96489,"0.0-3.27-0.27","8yx99upd28jbub7",322,"96.csv","","90.69999998807907","resources/trios/L2T1A3.jpg","37","restless",0.6,0.5,0.1,0.114989144958755,"true"
"image-keyboard-response",93,96894,"0.0-3.27-1.27","8yx99upd28jbub7",322,"96.csv","","null","resources/maskTrios/L2BB.jpg","null","",NA,NA,NA,NA,""
"image-keyboard-response",94,98102,"0.0-3.27-2.27","8yx99upd28jbub7",322,"96.csv","","null","resources/images/coin2.png","null","",NA,NA,NA,NA,""
"image-keyboard-response",95,98161,"0.0-3.28-0.28","8yx99upd28jbub7",322,"96.csv","","55.69999998807907","resources/trios/L4T2A2.jpg","37","restless",0.6,0.5,0.1,0.552963572132166,"true"
"image-keyboard-response",96,98564,"0.0-3.28-1.28","8yx99upd28jbub7",322,"96.csv","","null","resources/maskTrios/L4BB.jpg","null","",NA,NA,NA,NA,""
"image-keyboard-response",97,99768,"0.0-3.28-2.28","8yx99upd28jbub7",322,"96.csv","","null","resources/images/coin2.png","null","",NA,NA,NA,NA,""
"image-keyboard-response",98,99790,"0.0-3.29-0.29","8yx99upd28jbub7",322,"96.csv","","18.899999976158142","resources/trios/L2T1A2.jpg","37","restless",0.6,0.5,0.1,0.94803507444824,"false"
"image-keyboard-response",99,100195,"0.0-3.29-1.29","8yx99upd28jbub7",322,"96.csv","","null","resources/maskTrios/L2BB.jpg","null","",NA,NA,NA,NA,""
"image-keyboard-response",100,101400,"0.0-3.29-2.29","8yx99upd28jbub7",322,"96.csv","","null","resources/images/fishbone.png","null","",NA,NA,NA,NA,""
"image-keyboard-response",101,101534,"0.0-3.30-0.30","8yx99upd28jbub7",322,"96.csv","","130.5","resources/trios/L2T2A2.jpg","38","restless",0.6,0.5,0.1,0.645708797069323,"false"
"image-keyboard-response",102,101937,"0.0-3.30-1.30","8yx99upd28jbub7",322,"96.csv","","null","resources/maskTrios/BT2B.jpg","null","",NA,NA,NA,NA,""
"image-keyboard-response",103,103140,"0.0-3.30-2.30","8yx99upd28jbub7",322,"96.csv","","null","resources/images/fishbone.png","null","",NA,NA,NA,NA,""
"image-keyboard-response",104,103241,"0.0-3.31-0.31","8yx99upd28jbub7",322,"96.csv","","98.5","resources/trios/L4T1A2.jpg","39","restless",0.6,0.5,0.2,0.820303322270977,"false"
"image-keyboard-response",105,103644,"0.0-3.31-1.31","8yx99upd28jbub7",322,"96.csv","","null","resources/maskTrios/BBA2.jpg","null","",NA,NA,NA,NA,""
"image-keyboard-response",106,104846,"0.0-3.31-2.31","8yx99upd28jbub7",322,"96.csv","","null","resources/images/fishbone.png","null","",NA,NA,NA,NA,""
"image-keyboard-response",107,104926,"0.0-3.32-0.32","8yx99upd28jbub7",322,"96.csv","","76","resources/trios/L2T1A2.jpg","37","restless",0.6,0.5,0.2,0.837367652789798,"false"
"image-keyboard-response",108,105333,"0.0-3.32-1.32","8yx99upd28jbub7",322,"96.csv","","null","resources/maskTrios/L2BB.jpg","null","",NA,NA,NA,NA,""
"image-keyboard-response",109,106540,"0.0-3.32-2.32","8yx99upd28jbub7",322,"96.csv","","null","resources/images/fishbone.png","null","",NA,NA,NA,NA,""
"image-keyboard-response",110,106603,"0.0-3.33-0.33","8yx99upd28jbub7",322,"96.csv","","59.099999994039536","resources/trios/L4T1A2.jpg","37","restless",0.6,0.5,0.2,0.32923053562106,"true"
"image-keyboard-response",111,107007,"0.0-3.33-1.33","8yx99upd28jbub7",322,"96.csv","","null","resources/maskTrios/L4BB.jpg","null","",NA,NA,NA,NA,""
"image-keyboard-response",112,108214,"0.0-3.33-2.33","8yx99upd28jbub7",322,"96.csv","","null","resources/images/coin2.png","null","",NA,NA,NA,NA,""
"image-keyboard-response",113,108310,"0.0-3.34-0.34","8yx99upd28jbub7",322,"96.csv","","92","resources/trios/L2T1A3.jpg","38","restless",0.6,0.5,0.2,0.448326817163951,"true"
"image-keyboard-response",114,108717,"0.0-3.34-1.34","8yx99upd28jbub7",322,"96.csv","","null","resources/maskTrios/BT1B.jpg","null","",NA,NA,NA,NA,""
"image-keyboard-response",115,109924,"0.0-3.34-2.34","8yx99upd28jbub7",322,"96.csv","","null","resources/images/coin2.png","null","",NA,NA,NA,NA,""
"image-keyboard-response",116,110004,"0.0-3.35-0.35","8yx99upd28jbub7",322,"96.csv","","75.59999999403954","resources/trios/L2T2A2.jpg","39","restless",0.7,0.6,0.2,0.346880978199767,"false"
"image-keyboard-response",117,110407,"0.0-3.35-1.35","8yx99upd28jbub7",322,"96.csv","","null","resources/maskTrios/BBA2.jpg","null","",NA,NA,NA,NA,""
"image-keyboard-response",118,111609,"0.0-3.35-2.35","8yx99upd28jbub7",322,"96.csv","","null","resources/images/fishbone.png","null","",NA,NA,NA,NA,""
"image-keyboard-response",119,111823,"0.0-3.36-0.36","8yx99upd28jbub7",322,"96.csv","","209.59999999403954","resources/trios/L4T1A3.jpg","37","restless",0.7,0.6,0.2,0.34382644436641,"true"
"image-keyboard-response",120,112229,"0.0-3.36-1.36","8yx99upd28jbub7",322,"96.csv","","null","resources/maskTrios/L4BB.jpg","null","",NA,NA,NA,NA,""
"image-keyboard-response",121,113436,"0.0-3.36-2.36","8yx99upd28jbub7",322,"96.csv","","null","resources/images/coin2.png","null","",NA,NA,NA,NA,""
"image-keyboard-response",122,114253,"0.0-3.37-0.37","8yx99upd28jbub7",322,"96.csv","","813.3999999761581","resources/trios/L2T1A2.jpg","37","restless",0.7,0.6,0.2,0.833990385347412,"false"
"image-keyboard-response",123,114658,"0.0-3.37-1.37","8yx99upd28jbub7",322,"96.csv","","null","resources/maskTrios/L2BB.jpg","null","",NA,NA,NA,NA,""
"image-keyboard-response",124,115863,"0.0-3.37-2.37","8yx99upd28jbub7",322,"96.csv","","null","resources/images/fishbone.png","null","",NA,NA,NA,NA,""
"image-keyboard-response",125,115868,"0.0-3.38-0.38","8yx99upd28jbub7",322,"96.csv","","2.0999999940395355","resources/trios/L4T2A2.jpg","37","restless",0.7,0.6,0.2,0.393988913297916,"true"
"image-keyboard-response",126,116273,"0.0-3.38-1.38","8yx99upd28jbub7",322,"96.csv","","null","resources/maskTrios/L4BB.jpg","null","",NA,NA,NA,NA,""
"image-keyboard-response",127,117480,"0.0-3.38-2.38","8yx99upd28jbub7",322,"96.csv","","null","resources/images/coin2.png","null","",NA,NA,NA,NA,""
"image-keyboard-response",128,117529,"0.0-3.39-0.39","8yx99upd28jbub7",322,"96.csv","","44.5","resources/trios/L4T2A3.jpg","39","restless",0.7,0.6,0.1,0.175197754348851,"false"
"image-keyboard-response",129,117931,"0.0-3.39-1.39","8yx99upd28jbub7",322,"96.csv","","null","resources/maskTrios/BBA3.jpg","null","",NA,NA,NA,NA,""
"image-keyboard-response",130,119133,"0.0-3.39-2.39","8yx99upd28jbub7",322,"96.csv","","null","resources/images/fishbone.png","null","",NA,NA,NA,NA,""
"image-keyboard-response",131,119310,"0.0-3.40-0.40","8yx99upd28jbub7",322,"96.csv","","173.80000001192093","resources/trios/L2T1A2.jpg","37","restless",0.7,0.7,0.1,0.616006657420233,"true"
"image-keyboard-response",132,119717,"0.0-3.40-1.40","8yx99upd28jbub7",322,"96.csv","","null","resources/maskTrios/L2BB.jpg","null","",NA,NA,NA,NA,""
"image-keyboard-response",133,120923,"0.0-3.40-2.40","8yx99upd28jbub7",322,"96.csv","","null","resources/images/coin2.png","null","",NA,NA,NA,NA,""
"image-keyboard-response",134,121091,"0.0-3.41-0.41","8yx99upd28jbub7",322,"96.csv","","164.80000001192093","resources/trios/L2T2A2.jpg","39","restless",0.7,0.7,0.1,0.167850619469548,"false"
"image-keyboard-response",135,121497,"0.0-3.41-1.41","8yx99upd28jbub7",322,"96.csv","","null","resources/maskTrios/BBA2.jpg","null","",NA,NA,NA,NA,""
"image-keyboard-response",136,122700,"0.0-3.41-2.41","8yx99upd28jbub7",322,"96.csv","","null","resources/images/fishbone.png","null","",NA,NA,NA,NA,""
"image-keyboard-response",137,122704,"0.0-3.42-0.42","8yx99upd28jbub7",322,"96.csv","","0.4000000059604645","resources/trios/L4T2A2.jpg","38","restless",0.7,0.7,0.1,0.863149862725232,"false"
"image-keyboard-response",138,123109,"0.0-3.42-1.42","8yx99upd28jbub7",322,"96.csv","","null","resources/maskTrios/BT2B.jpg","null","",NA,NA,NA,NA,""
"image-keyboard-response",139,124315,"0.0-3.42-2.42","8yx99upd28jbub7",322,"96.csv","","null","resources/images/fishbone.png","null","",NA,NA,NA,NA,""
"image-keyboard-response",140,124488,"0.0-3.43-0.43","8yx99upd28jbub7",322,"96.csv","","169.10000002384186","resources/trios/L4T1A3.jpg","37","restless",0.6,0.7,0.1,0.715759660933663,"false"
"image-keyboard-response",141,124891,"0.0-3.43-1.43","8yx99upd28jbub7",322,"96.csv","","null","resources/maskTrios/L4BB.jpg","null","",NA,NA,NA,NA,""
"image-keyboard-response",142,126098,"0.0-3.43-2.43","8yx99upd28jbub7",322,"96.csv","","null","resources/images/fishbone.png","null","",NA,NA,NA,NA,""
"image-keyboard-response",143,126108,"0.0-3.44-0.44","8yx99upd28jbub7",322,"96.csv","","6.4000000059604645","resources/trios/L4T1A3.jpg","38","restless",0.6,0.7,0.1,0.289306122694943,"true"
"image-keyboard-response",144,126510,"0.0-3.44-1.44","8yx99upd28jbub7",322,"96.csv","","null","resources/maskTrios/BT1B.jpg","null","",NA,NA,NA,NA,""
"image-keyboard-response",145,127713,"0.0-3.44-2.44","8yx99upd28jbub7",322,"96.csv","","null","resources/images/coin2.png","null","",NA,NA,NA,NA,""
"image-keyboard-response",146,128013,"0.0-3.45-0.45","8yx99upd28jbub7",322,"96.csv","","297","resources/trios/L2T1A2.jpg","37","restless",0.6,0.7,0.1,0.256131762328608,"true"
"image-keyboard-response",147,128421,"0.0-3.45-1.45","8yx99upd28jbub7",322,"96.csv","","null","resources/maskTrios/L2BB.jpg","null","",NA,NA,NA,NA,""
"image-keyboard-response",148,129628,"0.0-3.45-2.45","8yx99upd28jbub7",322,"96.csv","","null","resources/images/coin2.png","null","",NA,NA,NA,NA,""
"image-keyboard-response",149,129633,"0.0-3.46-0.46","8yx99upd28jbub7",322,"96.csv","","1.2000000178813934","resources/trios/L2T1A3.jpg","39","restless",0.6,0.7,0.1,0.821452181909425,"false"
"image-keyboard-response",150,130038,"0.0-3.46-1.46","8yx99upd28jbub7",322,"96.csv","","null","resources/maskTrios/BBA3.jpg","null","",NA,NA,NA,NA,""
"image-keyboard-response",151,131241,"0.0-3.46-2.46","8yx99upd28jbub7",322,"96.csv","","null","resources/images/fishbone.png","null","",NA,NA,NA,NA,""
"image-keyboard-response",152,131332,"0.0-3.47-0.47","8yx99upd28jbub7",322,"96.csv","","89.09999999403954","resources/trios/L4T2A2.jpg","38","restless",0.6,0.7,0.1,0.772743003852598,"false"
"image-keyboard-response",153,131740,"0.0-3.47-1.47","8yx99upd28jbub7",322,"96.csv","","null","resources/maskTrios/BT2B.jpg","null","",NA,NA,NA,NA,""
"image-keyboard-response",154,132945,"0.0-3.47-2.47","8yx99upd28jbub7",322,"96.csv","","null","resources/images/fishbone.png","null","",NA,NA,NA,NA,""
"image-keyboard-response",155,132948,"0.0-3.48-0.48","8yx99upd28jbub7",322,"96.csv","","0.4000000059604645","resources/trios/L2T1A2.jpg","39","restless",0.6,0.7,0.1,0.636805727524189,"false"
"image-keyboard-response",156,133352,"0.0-3.48-1.48","8yx99upd28jbub7",322,"96.csv","","null","resources/maskTrios/BBA2.jpg","null","",NA,NA,NA,NA,""
"image-keyboard-response",157,134554,"0.0-3.48-2.48","8yx99upd28jbub7",322,"96.csv","","null","resources/images/fishbone.png","null","",NA,NA,NA,NA,""
"image-keyboard-response",158,134731,"0.0-3.49-0.49","8yx99upd28jbub7",322,"96.csv","","173.59999999403954","resources/trios/L2T2A3.jpg","37","restless",0.6,0.7,0.1,0.978947492234452,"false"
"image-keyboard-response",159,135139,"0.0-3.49-1.49","8yx99upd28jbub7",322,"96.csv","","null","resources/maskTrios/L2BB.jpg","null","",NA,NA,NA,NA,""
"image-keyboard-response",160,136344,"0.0-3.49-2.49","8yx99upd28jbub7",322,"96.csv","","null","resources/images/fishbone.png","null","",NA,NA,NA,NA,""
"image-keyboard-response",161,136420,"0.0-3.50-0.50","8yx99upd28jbub7",322,"96.csv","","72.90000000596046","resources/trios/L2T1A3.jpg","37","restless",0.6,0.7,0.1,0.333590195811651,"true"
"image-keyboard-response",162,136826,"0.0-3.50-1.50","8yx99upd28jbub7",322,"96.csv","","null","resources/maskTrios/L2BB.jpg","null","",NA,NA,NA,NA,""
"image-keyboard-response",163,138031,"0.0-3.50-2.50","8yx99upd28jbub7",322,"96.csv","","null","resources/images/coin2.png","null","",NA,NA,NA,NA,""
"image-keyboard-response",164,138067,"0.0-3.51-0.51","8yx99upd28jbub7",322,"96.csv","","32.10000002384186","resources/trios/L4T2A3.jpg","39","restless",0.6,0.7,0.1,0.983512384022146,"false"
"image-keyboard-response",165,138471,"0.0-3.51-1.51","8yx99upd28jbub7",322,"96.csv","","null","resources/maskTrios/BBA3.jpg","null","",NA,NA,NA,NA,""
"image-keyboard-response",166,139673,"0.0-3.51-2.51","8yx99upd28jbub7",322,"96.csv","","null","resources/images/fishbone.png","null","",NA,NA,NA,NA,""
"image-keyboard-response",167,139761,"0.0-3.52-0.52","8yx99upd28jbub7",322,"96.csv","","85","resources/trios/L2T1A3.jpg","37","restless",0.7,0.7,0.1,0.816855902560382,"false"
"image-keyboard-response",168,140169,"0.0-3.52-1.52","8yx99upd28jbub7",322,"96.csv","","null","resources/maskTrios/L2BB.jpg","null","",NA,NA,NA,NA,""
"image-keyboard-response",169,141376,"0.0-3.52-2.52","8yx99upd28jbub7",322,"96.csv","","null","resources/images/fishbone.png","null","",NA,NA,NA,NA,""
"image-keyboard-response",170,141584,"0.0-3.53-0.53","8yx99upd28jbub7",322,"96.csv","","204.39999997615814","resources/trios/L4T1A3.jpg","39","restless",0.7,0.7,0.1,0.467288369906568,"false"
"image-keyboard-response",171,141988,"0.0-3.53-1.53","8yx99upd28jbub7",322,"96.csv","","null","resources/maskTrios/BBA3.jpg","null","",NA,NA,NA,NA,""
"image-keyboard-response",172,143195,"0.0-3.53-2.53","8yx99upd28jbub7",322,"96.csv","","null","resources/images/fishbone.png","null","",NA,NA,NA,NA,""
"image-keyboard-response",173,143575,"0.0-3.54-0.54","8yx99upd28jbub7",322,"96.csv","","376.7999999821186","resources/trios/L4T1A2.jpg","38","restless",0.7,0.7,0.1,0.819688781485832,"false"
"image-keyboard-response",174,143979,"0.0-3.54-1.54","8yx99upd28jbub7",322,"96.csv","","null","resources/maskTrios/BT1B.jpg","null","",NA,NA,NA,NA,""
"image-keyboard-response",175,145182,"0.0-3.54-2.54","8yx99upd28jbub7",322,"96.csv","","null","resources/images/fishbone.png","null","",NA,NA,NA,NA,""
"image-keyboard-response",176,145266,"0.0-3.55-0.55","8yx99upd28jbub7",322,"96.csv","","80.69999998807907","resources/trios/L2T1A3.jpg","39","restless",0.7,0.7,0.1,0.725728467742302,"false"
"image-keyboard-response",177,145674,"0.0-3.55-1.55","8yx99upd28jbub7",322,"96.csv","","null","resources/maskTrios/BBA3.jpg","null","",NA,NA,NA,NA,""
"image-keyboard-response",178,146880,"0.0-3.55-2.55","8yx99upd28jbub7",322,"96.csv","","null","resources/images/fishbone.png","null","",NA,NA,NA,NA,""
"image-keyboard-response",179,147030,"0.0-3.56-0.56","8yx99upd28jbub7",322,"96.csv","","146.2999999821186","resources/trios/L4T1A3.jpg","37","restless",0.7,0.7,0.1,0.186659911411928,"true"
"image-keyboard-response",180,147437,"0.0-3.56-1.56","8yx99upd28jbub7",322,"96.csv","","null","resources/maskTrios/L4BB.jpg","null","",NA,NA,NA,NA,""
"image-keyboard-response",181,148641,"0.0-3.56-2.56","8yx99upd28jbub7",322,"96.csv","","null","resources/images/coin2.png","null","",NA,NA,NA,NA,""
"image-keyboard-response",182,148738,"0.0-3.57-0.57","8yx99upd28jbub7",322,"96.csv","","93.90000000596046","resources/trios/L4T2A2.jpg","37","restless",0.7,0.7,0.1,0.788586362662479,"false"
"image-keyboard-response",183,149140,"0.0-3.57-1.57","8yx99upd28jbub7",322,"96.csv","","null","resources/maskTrios/L4BB.jpg","null","",NA,NA,NA,NA,""
"image-keyboard-response",184,150342,"0.0-3.57-2.57","8yx99upd28jbub7",322,"96.csv","","null","resources/images/fishbone.png","null","",NA,NA,NA,NA,""
"image-keyboard-response",185,150439,"0.0-3.58-0.58","8yx99upd28jbub7",322,"96.csv","","92.89999997615814","resources/trios/L4T1A3.jpg","39","restless",0.8,0.7,0.1,0.429802411074709,"false"
"image-keyboard-response",186,150843,"0.0-3.58-1.58","8yx99upd28jbub7",322,"96.csv","","null","resources/maskTrios/BBA3.jpg","null","",NA,NA,NA,NA,""
"image-keyboard-response",187,152048,"0.0-3.58-2.58","8yx99upd28jbub7",322,"96.csv","","null","resources/images/fishbone.png","null","",NA,NA,NA,NA,""
"image-keyboard-response",188,152135,"0.0-3.59-0.59","8yx99upd28jbub7",322,"96.csv","","83.2999999821186","resources/trios/L2T2A2.jpg","37","restless",0.8,0.7,0.1,0.76801753421383,"true"
"image-keyboard-response",189,152543,"0.0-3.59-1.59","8yx99upd28jbub7",322,"96.csv","","null","resources/maskTrios/L2BB.jpg","null","",NA,NA,NA,NA,""
"image-keyboard-response",190,153746,"0.0-3.59-2.59","8yx99upd28jbub7",322,"96.csv","","null","resources/images/coin2.png","null","",NA,NA,NA,NA,""
"image-keyboard-response",191,153795,"0.0-3.60-0.60","8yx99upd28jbub7",322,"96.csv","","45.19999998807907","resources/trios/L4T1A3.jpg","39","restless",0.7,0.6,0.1,0.177893961292864,"false"
"image-keyboard-response",192,154201,"0.0-3.60-1.60","8yx99upd28jbub7",322,"96.csv","","null","resources/maskTrios/BBA3.jpg","null","",NA,NA,NA,NA,""
"image-keyboard-response",193,155403,"0.0-3.60-2.60","8yx99upd28jbub7",322,"96.csv","","null","resources/images/fishbone.png","null","",NA,NA,NA,NA,""
"image-keyboard-response",194,155587,"0.0-3.61-0.61","8yx99upd28jbub7",322,"96.csv","","180.30000001192093","resources/trios/L4T1A2.jpg","38","restless",0.7,0.6,0.2,0.0801221479601602,"true"
"image-keyboard-response",195,155995,"0.0-3.61-1.61","8yx99upd28jbub7",322,"96.csv","","null","resources/maskTrios/BT1B.jpg","null","",NA,NA,NA,NA,""
"image-keyboard-response",196,157203,"0.0-3.61-2.61","8yx99upd28jbub7",322,"96.csv","","null","resources/images/coin2.png","null","",NA,NA,NA,NA,""
"image-keyboard-response",197,158992,"0.0-3.62-0.62","8yx99upd28jbub7",322,"96.csv","","1785","resources/trios/L4T2A3.jpg","38","restless",0.7,0.6,0.2,0.355254929192484,"true"
"image-keyboard-response",198,159398,"0.0-3.62-1.62","8yx99upd28jbub7",322,"96.csv","","null","resources/maskTrios/BT2B.jpg","null","",NA,NA,NA,NA,""
"image-keyboard-response",199,160604,"0.0-3.62-2.62","8yx99upd28jbub7",322,"96.csv","","null","resources/images/coin2.png","null","",NA,NA,NA,NA,""
"image-keyboard-response",200,160643,"0.0-3.63-0.63","8yx99upd28jbub7",322,"96.csv","","35.099999994039536","resources/trios/L2T1A2.jpg","37","restless",0.7,0.6,0.2,0.580430770585576,"true"
"image-keyboard-response",201,161046,"0.0-3.63-1.63","8yx99upd28jbub7",322,"96.csv","","null","resources/maskTrios/L2BB.jpg","null","",NA,NA,NA,NA,""
"image-keyboard-response",202,162250,"0.0-3.63-2.63","8yx99upd28jbub7",322,"96.csv","","null","resources/images/coin2.png","null","",NA,NA,NA,NA,""
"image-keyboard-response",203,162253,"0.0-3.64-0.64","8yx99upd28jbub7",322,"96.csv","","0.4000000059604645","resources/trios/L2T1A3.jpg","37","restless",0.7,0.6,0.3,0.376151106412822,"true"
"image-keyboard-response",204,162660,"0.0-3.64-1.64","8yx99upd28jbub7",322,"96.csv","","null","resources/maskTrios/L2BB.jpg","null","",NA,NA,NA,NA,""
"image-keyboard-response",205,163863,"0.0-3.64-2.64","8yx99upd28jbub7",322,"96.csv","","null","resources/images/coin2.png","null","",NA,NA,NA,NA,""
"image-keyboard-response",206,163962,"0.0-3.65-0.65","8yx99upd28jbub7",322,"96.csv","","95.5","resources/trios/L2T1A2.jpg","37","restless",0.7,0.6,0.3,0.690326600525153,"true"
"image-keyboard-response",207,164369,"0.0-3.65-1.65","8yx99upd28jbub7",322,"96.csv","","null","resources/maskTrios/L2BB.jpg","null","",NA,NA,NA,NA,""
"image-keyboard-response",208,165574,"0.0-3.65-2.65","8yx99upd28jbub7",322,"96.csv","","null","resources/images/coin2.png","null","",NA,NA,NA,NA,""
"image-keyboard-response",209,165646,"0.0-3.66-0.66","8yx99upd28jbub7",322,"96.csv","","69.09999999403954","resources/trios/L2T1A2.jpg","37","restless",0.7,0.6,0.3,0.679073924346241,"true"
"image-keyboard-response",210,166054,"0.0-3.66-1.66","8yx99upd28jbub7",322,"96.csv","","null","resources/maskTrios/L2BB.jpg","null","",NA,NA,NA,NA,""
"image-keyboard-response",211,167261,"0.0-3.66-2.66","8yx99upd28jbub7",322,"96.csv","","null","resources/images/coin2.png","null","",NA,NA,NA,NA,""
"image-keyboard-response",212,167438,"0.0-3.67-0.67","8yx99upd28jbub7",322,"96.csv","","173.90000000596046","resources/trios/L2T1A3.jpg","38","restless",0.7,0.6,0.3,0.916639393397508,"false"
"image-keyboard-response",213,167845,"0.0-3.67-1.67","8yx99upd28jbub7",322,"96.csv","","null","resources/maskTrios/BT1B.jpg","null","",NA,NA,NA,NA,""
"image-keyboard-response",214,169047,"0.0-3.67-2.67","8yx99upd28jbub7",322,"96.csv","","null","resources/images/fishbone.png","null","",NA,NA,NA,NA,""
"image-keyboard-response",215,169058,"0.0-3.68-0.68","8yx99upd28jbub7",322,"96.csv","","7.4000000059604645","resources/trios/L2T1A3.jpg","38","restless",0.7,0.6,0.3,0.249070655137662,"true"
"image-keyboard-response",216,169462,"0.0-3.68-1.68","8yx99upd28jbub7",322,"96.csv","","null","resources/maskTrios/BT1B.jpg","null","",NA,NA,NA,NA,""
"image-keyboard-response",217,170669,"0.0-3.68-2.68","8yx99upd28jbub7",322,"96.csv","","null","resources/images/coin2.png","null","",NA,NA,NA,NA,""
"image-keyboard-response",218,170746,"0.0-3.69-0.69","8yx99upd28jbub7",322,"96.csv","","73.90000000596046","resources/trios/L2T1A3.jpg","38","restless",0.7,0.6,0.3,0.60863356949122,"false"
"image-keyboard-response",219,171151,"0.0-3.69-1.69","8yx99upd28jbub7",322,"96.csv","","null","resources/maskTrios/BT1B.jpg","null","",NA,NA,NA,NA,""
"image-keyboard-response",220,172354,"0.0-3.69-2.69","8yx99upd28jbub7",322,"96.csv","","null","resources/images/fishbone.png","null","",NA,NA,NA,NA,""
"image-keyboard-response",221,172426,"0.0-3.70-0.70","8yx99upd28jbub7",322,"96.csv","","68.69999998807907","resources/trios/L4T1A3.jpg","39","restless",0.7,0.6,0.4,0.432472903913765,"false"
"image-keyboard-response",222,172830,"0.0-3.70-1.70","8yx99upd28jbub7",322,"96.csv","","null","resources/maskTrios/BBA3.jpg","null","",NA,NA,NA,NA,""
"image-keyboard-response",223,174032,"0.0-3.70-2.70","8yx99upd28jbub7",322,"96.csv","","null","resources/images/fishbone.png","null","",NA,NA,NA,NA,""
"image-keyboard-response",224,174358,"0.0-3.71-0.71","8yx99upd28jbub7",322,"96.csv","","323","resources/trios/L2T2A3.jpg","39","restless",0.7,0.6,0.4,0.236996624453441,"true"
"image-keyboard-response",225,174766,"0.0-3.71-1.71","8yx99upd28jbub7",322,"96.csv","","null","resources/maskTrios/BBA3.jpg","null","",NA,NA,NA,NA,""
"image-keyboard-response",226,175973,"0.0-3.71-2.71","8yx99upd28jbub7",322,"96.csv","","null","resources/images/coin2.png","null","",NA,NA,NA,NA,""
"image-keyboard-response",227,176295,"0.0-3.72-0.72","8yx99upd28jbub7",322,"96.csv","","318.80000001192093","resources/trios/L4T2A2.jpg","39","restless",0.6,0.6,0.4,0.744761675321791,"false"
"image-keyboard-response",228,176700,"0.0-3.72-1.72","8yx99upd28jbub7",322,"96.csv","","null","resources/maskTrios/BBA2.jpg","null","",NA,NA,NA,NA,""
"image-keyboard-response",229,177903,"0.0-3.72-2.72","8yx99upd28jbub7",322,"96.csv","","null","resources/images/fishbone.png","null","",NA,NA,NA,NA,""
"image-keyboard-response",230,178061,"0.0-3.73-0.73","8yx99upd28jbub7",322,"96.csv","","154.7999999821186","resources/trios/L4T1A3.jpg","38","restless",0.5,0.6,0.5,0.979988221348178,"false"
"image-keyboard-response",231,178464,"0.0-3.73-1.73","8yx99upd28jbub7",322,"96.csv","","null","resources/maskTrios/BT1B.jpg","null","",NA,NA,NA,NA,""
"image-keyboard-response",232,179669,"0.0-3.73-2.73","8yx99upd28jbub7",322,"96.csv","","null","resources/images/fishbone.png","null","",NA,NA,NA,NA,""
"image-keyboard-response",233,179883,"0.0-3.74-0.74","8yx99upd28jbub7",322,"96.csv","","210","resources/trios/L2T2A2.jpg","37","restless",0.4,0.6,0.6,0.238146355354,"true"
"image-keyboard-response",234,180289,"0.0-3.74-1.74","8yx99upd28jbub7",322,"96.csv","","null","resources/maskTrios/L2BB.jpg","null","",NA,NA,NA,NA,""
"image-keyboard-response",235,181492,"0.0-3.74-2.74","8yx99upd28jbub7",322,"96.csv","","null","resources/images/coin2.png","null","",NA,NA,NA,NA,""
"image-keyboard-response",236,181625,"0.0-3.75-0.75","8yx99upd28jbub7",322,"96.csv","","130.59999999403954","resources/trios/L4T1A2.jpg","39","restless",0.4,0.6,0.6,0.30603088407808,"true"
"image-keyboard-response",237,182033,"0.0-3.75-1.75","8yx99upd28jbub7",322,"96.csv","","null","resources/maskTrios/BBA2.jpg","null","",NA,NA,NA,NA,""
"image-keyboard-response",238,183238,"0.0-3.75-2.75","8yx99upd28jbub7",322,"96.csv","","null","resources/images/coin2.png","null","",NA,NA,NA,NA,""
"image-keyboard-response",239,183338,"0.0-3.76-0.76","8yx99upd28jbub7",322,"96.csv","","95.59999999403954","resources/trios/L4T2A3.jpg","37","restless",0.5,0.6,0.6,0.411951088924646,"true"
"image-keyboard-response",240,183744,"0.0-3.76-1.76","8yx99upd28jbub7",322,"96.csv","","null","resources/maskTrios/L4BB.jpg","null","",NA,NA,NA,NA,""
"image-keyboard-response",241,184948,"0.0-3.76-2.76","8yx99upd28jbub7",322,"96.csv","","null","resources/images/coin2.png","null","",NA,NA,NA,NA,""
"image-keyboard-response",242,185016,"0.0-3.77-0.77","8yx99upd28jbub7",322,"96.csv","","63.80000001192093","resources/trios/L2T2A2.jpg","37","restless",0.5,0.6,0.6,0.811097267898971,"false"
"image-keyboard-response",243,185421,"0.0-3.77-1.77","8yx99upd28jbub7",322,"96.csv","","null","resources/maskTrios/L2BB.jpg","null","",NA,NA,NA,NA,""
"image-keyboard-response",244,186629,"0.0-3.77-2.77","8yx99upd28jbub7",322,"96.csv","","null","resources/images/fishbone.png","null","",NA,NA,NA,NA,""
"image-keyboard-response",245,186879,"0.0-3.78-0.78","8yx99upd28jbub7",322,"96.csv","","246.80000001192093","resources/trios/L2T2A3.jpg","38","restless",0.5,0.6,0.6,0.520527340275813,"true"
"image-keyboard-response",246,187287,"0.0-3.78-1.78","8yx99upd28jbub7",322,"96.csv","","null","resources/maskTrios/BT2B.jpg","null","",NA,NA,NA,NA,""
"image-keyboard-response",247,188491,"0.0-3.78-2.78","8yx99upd28jbub7",322,"96.csv","","null","resources/images/coin2.png","null","",NA,NA,NA,NA,""
"image-keyboard-response",248,188669,"0.0-3.79-0.79","8yx99upd28jbub7",322,"96.csv","","174.19999998807907","resources/trios/L4T1A2.jpg","37","restless",0.5,0.6,0.6,0.675846257321284,"false"
"image-keyboard-response",249,189075,"0.0-3.79-1.79","8yx99upd28jbub7",322,"96.csv","","null","resources/maskTrios/L4BB.jpg","null","",NA,NA,NA,NA,""
"image-keyboard-response",250,190279,"0.0-3.79-2.79","8yx99upd28jbub7",322,"96.csv","","null","resources/images/fishbone.png","null","",NA,NA,NA,NA,""
"image-keyboard-response",251,190353,"0.0-3.80-0.80","8yx99upd28jbub7",322,"96.csv","","70.5","resources/trios/L2T2A3.jpg","39","restless",0.5,0.5,0.6,0.995367141907084,"false"
"image-keyboard-response",252,190756,"0.0-3.80-1.80","8yx99upd28jbub7",322,"96.csv","","null","resources/maskTrios/BBA3.jpg","null","",NA,NA,NA,NA,""
"image-keyboard-response",253,191959,"0.0-3.80-2.80","8yx99upd28jbub7",322,"96.csv","","null","resources/images/fishbone.png","null","",NA,NA,NA,NA,""
"image-keyboard-response",254,191965,"0.0-3.81-0.81","8yx99upd28jbub7",322,"96.csv","","2.4000000059604645","resources/trios/L2T1A2.jpg","39","restless",0.5,0.5,0.5,0.0587524296776678,"true"
"image-keyboard-response",255,192372,"0.0-3.81-1.81","8yx99upd28jbub7",322,"96.csv","","null","resources/maskTrios/BBA2.jpg","null","",NA,NA,NA,NA,""
"image-keyboard-response",256,193576,"0.0-3.81-2.81","8yx99upd28jbub7",322,"96.csv","","null","resources/images/coin2.png","null","",NA,NA,NA,NA,""
"image-keyboard-response",257,193616,"0.0-3.82-0.82","8yx99upd28jbub7",322,"96.csv","","35.89999997615814","resources/trios/L4T2A3.jpg","39","restless",0.5,0.5,0.5,0.45407896575692,"true"
"image-keyboard-response",258,194023,"0.0-3.82-1.82","8yx99upd28jbub7",322,"96.csv","","null","resources/maskTrios/BBA3.jpg","null","",NA,NA,NA,NA,""
"image-keyboard-response",259,195225,"0.0-3.82-2.82","8yx99upd28jbub7",322,"96.csv","","null","resources/images/coin2.png","null","",NA,NA,NA,NA,""
"image-keyboard-response",260,195229,"0.0-3.83-0.83","8yx99upd28jbub7",322,"96.csv","","0.4000000059604645","resources/trios/L2T2A3.jpg","39","restless",0.5,0.4,0.5,0.288709755093046,"true"
"image-keyboard-response",261,195633,"0.0-3.83-1.83","8yx99upd28jbub7",322,"96.csv","","null","resources/maskTrios/BBA3.jpg","null","",NA,NA,NA,NA,""
"image-keyboard-response",262,196837,"0.0-3.83-2.83","8yx99upd28jbub7",322,"96.csv","","null","resources/images/coin2.png","null","",NA,NA,NA,NA,""
"image-keyboard-response",263,197096,"0.0-3.84-0.84","8yx99upd28jbub7",322,"96.csv","","255.39999997615814","resources/trios/L4T1A3.jpg","37","restless",0.5,0.4,0.5,0.465056230094863,"true"
"image-keyboard-response",264,197504,"0.0-3.84-1.84","8yx99upd28jbub7",322,"96.csv","","null","resources/maskTrios/L4BB.jpg","null","",NA,NA,NA,NA,""
"image-keyboard-response",265,198711,"0.0-3.84-2.84","8yx99upd28jbub7",322,"96.csv","","null","resources/images/coin2.png","null","",NA,NA,NA,NA,""
"image-keyboard-response",266,198715,"0.0-3.85-0.85","8yx99upd28jbub7",322,"96.csv","","0.30000001192092896","resources/trios/L4T2A2.jpg","39","restless",0.5,0.4,0.5,0.311777248076069,"true"
"image-keyboard-response",267,199121,"0.0-3.85-1.85","8yx99upd28jbub7",322,"96.csv","","null","resources/maskTrios/BBA2.jpg","null","",NA,NA,NA,NA,""
"image-keyboard-response",268,200325,"0.0-3.85-2.85","8yx99upd28jbub7",322,"96.csv","","null","resources/images/coin2.png","null","",NA,NA,NA,NA,""
"image-keyboard-response",269,200523,"0.0-3.86-0.86","8yx99upd28jbub7",322,"96.csv","","194.30000001192093","resources/trios/L4T1A2.jpg","39","restless",0.5,0.4,0.5,0.128557211756169,"true"
"image-keyboard-response",270,200927,"0.0-3.86-1.86","8yx99upd28jbub7",322,"96.csv","","null","resources/maskTrios/BBA2.jpg","null","",NA,NA,NA,NA,""
"image-keyboard-response",271,202129,"0.0-3.86-2.86","8yx99upd28jbub7",322,"96.csv","","null","resources/images/coin2.png","null","",NA,NA,NA,NA,""
"image-keyboard-response",272,202233,"0.0-3.87-0.87","8yx99upd28jbub7",322,"96.csv","","101.39999997615814","resources/trios/L4T2A3.jpg","38","restless",0.5,0.3,0.5,0.158542757748614,"true"
"image-keyboard-response",273,202637,"0.0-3.87-1.87","8yx99upd28jbub7",322,"96.csv","","null","resources/maskTrios/BT2B.jpg","null","",NA,NA,NA,NA,""
"image-keyboard-response",274,203841,"0.0-3.87-2.87","8yx99upd28jbub7",322,"96.csv","","null","resources/images/coin2.png","null","",NA,NA,NA,NA,""
"image-keyboard-response",275,203872,"0.0-3.88-0.88","8yx99upd28jbub7",322,"96.csv","","27.299999982118607","resources/trios/L2T1A2.jpg","38","restless",0.5,0.3,0.6,0.98296071894533,"false"
"image-keyboard-response",276,204275,"0.0-3.88-1.88","8yx99upd28jbub7",322,"96.csv","","null","resources/maskTrios/BT1B.jpg","null","",NA,NA,NA,NA,""
"image-keyboard-response",277,205479,"0.0-3.88-2.88","8yx99upd28jbub7",322,"96.csv","","null","resources/images/fishbone.png","null","",NA,NA,NA,NA,""
"image-keyboard-response",278,205505,"0.0-3.89-0.89","8yx99upd28jbub7",322,"96.csv","","22.899999976158142","resources/trios/L2T1A3.jpg","37","restless",0.5,0.3,0.6,0.801905497988803,"false"
"image-keyboard-response",279,205909,"0.0-3.89-1.89","8yx99upd28jbub7",322,"96.csv","","null","resources/maskTrios/L2BB.jpg","null","",NA,NA,NA,NA,""
"image-keyboard-response",280,207113,"0.0-3.89-2.89","8yx99upd28jbub7",322,"96.csv","","null","resources/images/fishbone.png","null","",NA,NA,NA,NA,""
"image-keyboard-response",281,207122,"0.0-3.90-0.90","8yx99upd28jbub7",322,"96.csv","","6.199999988079071","resources/trios/L4T1A3.jpg","38","restless",0.5,0.3,0.6,0.100039552152152,"true"
"image-keyboard-response",282,207528,"0.0-3.90-1.90","8yx99upd28jbub7",322,"96.csv","","null","resources/maskTrios/BT1B.jpg","null","",NA,NA,NA,NA,""
"image-keyboard-response",283,208731,"0.0-3.90-2.90","8yx99upd28jbub7",322,"96.csv","","null","resources/images/coin2.png","null","",NA,NA,NA,NA,""
"image-keyboard-response",284,208754,"0.0-3.91-0.91","8yx99upd28jbub7",322,"96.csv","","19.19999998807907","resources/trios/L2T1A2.jpg","38","restless",0.5,0.3,0.6,0.647287644530934,"false"
"image-keyboard-response",285,209155,"0.0-3.91-1.91","8yx99upd28jbub7",322,"96.csv","","null","resources/maskTrios/BT1B.jpg","null","",NA,NA,NA,NA,""
"image-keyboard-response",286,210358,"0.0-3.91-2.91","8yx99upd28jbub7",322,"96.csv","","null","resources/images/fishbone.png","null","",NA,NA,NA,NA,""
"image-keyboard-response",287,210372,"0.0-3.92-0.92","8yx99upd28jbub7",322,"96.csv","","10.400000005960464","resources/trios/L2T1A2.jpg","39","restless",0.5,0.3,0.6,0.809504811868539,"false"
"image-keyboard-response",288,210778,"0.0-3.92-1.92","8yx99upd28jbub7",322,"96.csv","","null","resources/maskTrios/BBA2.jpg","null","",NA,NA,NA,NA,""
"image-keyboard-response",289,211980,"0.0-3.92-2.92","8yx99upd28jbub7",322,"96.csv","","null","resources/images/fishbone.png","null","",NA,NA,NA,NA,""
"image-keyboard-response",290,212081,"0.0-3.93-0.93","8yx99upd28jbub7",322,"96.csv","","97.7000000178814","resources/trios/L4T2A2.jpg","38","restless",0.5,0.2,0.6,0.309898339996161,"false"
"image-keyboard-response",291,212484,"0.0-3.93-1.93","8yx99upd28jbub7",322,"96.csv","","null","resources/maskTrios/BT2B.jpg","null","",NA,NA,NA,NA,""
"image-keyboard-response",292,213686,"0.0-3.93-2.93","8yx99upd28jbub7",322,"96.csv","","null","resources/images/fishbone.png","null","",NA,NA,NA,NA,""
"image-keyboard-response",293,213748,"0.0-3.94-0.94","8yx99upd28jbub7",322,"96.csv","","59.20000001788139","resources/trios/L4T2A3.jpg","37","restless",0.5,0.2,0.6,0.0597975692429007,"true"
"image-keyboard-response",294,214154,"0.0-3.94-1.94","8yx99upd28jbub7",322,"96.csv","","null","resources/maskTrios/L4BB.jpg","null","",NA,NA,NA,NA,""
"image-keyboard-response",295,215361,"0.0-3.94-2.94","8yx99upd28jbub7",322,"96.csv","","null","resources/images/coin2.png","null","",NA,NA,NA,NA,""
"image-keyboard-response",296,215387,"0.0-3.95-0.95","8yx99upd28jbub7",322,"96.csv","","22.69999998807907","resources/trios/L4T2A2.jpg","37","restless",0.5,0.2,0.6,0.824876534877316,"false"
"image-keyboard-response",297,215792,"0.0-3.95-1.95","8yx99upd28jbub7",322,"96.csv","","null","resources/maskTrios/L4BB.jpg","null","",NA,NA,NA,NA,""
"image-keyboard-response",298,216999,"0.0-3.95-2.95","8yx99upd28jbub7",322,"96.csv","","null","resources/images/fishbone.png","null","",NA,NA,NA,NA,""
"image-keyboard-response",299,217074,"0.0-3.96-0.96","8yx99upd28jbub7",322,"96.csv","","71.2999999821186","resources/trios/L4T2A2.jpg","39","restless",0.5,0.2,0.6,0.837555914723159,"false"
"image-keyboard-response",300,217479,"0.0-3.96-1.96","8yx99upd28jbub7",322,"96.csv","","null","resources/maskTrios/BBA2.jpg","null","",NA,NA,NA,NA,""
"image-keyboard-response",301,218686,"0.0-3.96-2.96","8yx99upd28jbub7",322,"96.csv","","null","resources/images/fishbone.png","null","",NA,NA,NA,NA,""
"image-keyboard-response",302,218915,"0.0-3.97-0.97","8yx99upd28jbub7",322,"96.csv","","225.2000000178814","resources/trios/L4T1A2.jpg","38","restless",0.5,0.2,0.7,0.817401575243176,"false"
"image-keyboard-response",303,219321,"0.0-3.97-1.97","8yx99upd28jbub7",322,"96.csv","","null","resources/maskTrios/BT1B.jpg","null","",NA,NA,NA,NA,""
"image-keyboard-response",304,220528,"0.0-3.97-2.97","8yx99upd28jbub7",322,"96.csv","","null","resources/images/fishbone.png","null","",NA,NA,NA,NA,""
"image-keyboard-response",305,220581,"0.0-3.98-0.98","8yx99upd28jbub7",322,"96.csv","","50.099999994039536","resources/trios/L2T2A3.jpg","39","restless",0.5,0.2,0.7,0.243556078665558,"true"
"image-keyboard-response",306,220987,"0.0-3.98-1.98","8yx99upd28jbub7",322,"96.csv","","null","resources/maskTrios/BBA3.jpg","null","",NA,NA,NA,NA,""
"image-keyboard-response",307,222192,"0.0-3.98-2.98","8yx99upd28jbub7",322,"96.csv","","null","resources/images/coin2.png","null","",NA,NA,NA,NA,""
"image-keyboard-response",308,222276,"0.0-3.99-0.99","8yx99upd28jbub7",322,"96.csv","","80.19999998807907","resources/trios/L4T2A3.jpg","39","restless",0.5,0.2,0.7,0.564846356252292,"true"
"image-keyboard-response",309,222679,"0.0-3.99-1.99","8yx99upd28jbub7",322,"96.csv","","null","resources/maskTrios/BBA3.jpg","null","",NA,NA,NA,NA,""
"image-keyboard-response",310,223883,"0.0-3.99-2.99","8yx99upd28jbub7",322,"96.csv","","null","resources/images/coin2.png","null","",NA,NA,NA,NA,""
"image-keyboard-response",311,224031,"0.0-3.100-0.100","8yx99upd28jbub7",322,"96.csv","","145","resources/trios/L2T2A2.jpg","39","restless",0.5,0.2,0.8,0.398649484997332,"true"
"image-keyboard-response",312,224437,"0.0-3.100-1.100","8yx99upd28jbub7",322,"96.csv","","null","resources/maskTrios/BBA2.jpg","null","",NA,NA,NA,NA,""
"image-keyboard-response",313,225644,"0.0-3.100-2.100","8yx99upd28jbub7",322,"96.csv","","null","resources/images/coin2.png","null","",NA,NA,NA,NA,""
"image-keyboard-response",314,225651,"0.0-3.101-0.101","8yx99upd28jbub7",322,"96.csv","","3.7000000178813934","resources/trios/L2T2A2.jpg","39","restless",0.5,0.2,0.8,0.414950216134969,"true"
"image-keyboard-response",315,226058,"0.0-3.101-1.101","8yx99upd28jbub7",322,"96.csv","","null","resources/maskTrios/BBA2.jpg","null","",NA,NA,NA,NA,""
"image-keyboard-response",316,227262,"0.0-3.101-2.101","8yx99upd28jbub7",322,"96.csv","","null","resources/images/coin2.png","null","",NA,NA,NA,NA,""
"image-keyboard-response",317,227398,"0.0-3.102-0.102","8yx99upd28jbub7",322,"96.csv","","132.90000000596046","resources/trios/L2T1A2.jpg","39","restless",0.5,0.2,0.8,0.57068920530766,"true"
"image-keyboard-response",318,227804,"0.0-3.102-1.102","8yx99upd28jbub7",322,"96.csv","","null","resources/maskTrios/BBA2.jpg","null","",NA,NA,NA,NA,""
"image-keyboard-response",319,229011,"0.0-3.102-2.102","8yx99upd28jbub7",322,"96.csv","","null","resources/images/coin2.png","null","",NA,NA,NA,NA,""
"image-keyboard-response",320,229090,"0.0-3.103-0.103","8yx99upd28jbub7",322,"96.csv","","74.59999999403954","resources/trios/L2T1A3.jpg","39","restless",0.5,0.3,0.8,0.0380142129510355,"true"
"image-keyboard-response",321,229495,"0.0-3.103-1.103","8yx99upd28jbub7",322,"96.csv","","null","resources/maskTrios/BBA3.jpg","null","",NA,NA,NA,NA,""
"image-keyboard-response",322,230700,"0.0-3.103-2.103","8yx99upd28jbub7",322,"96.csv","","null","resources/images/coin2.png","null","",NA,NA,NA,NA,""
"image-keyboard-response",323,230703,"0.0-3.104-0.104","8yx99upd28jbub7",322,"96.csv","","0.29999998211860657","resources/trios/L4T2A3.jpg","38","restless",0.5,0.3,0.9,0.352393312630659,"false"
"image-keyboard-response",324,231105,"0.0-3.104-1.104","8yx99upd28jbub7",322,"96.csv","","null","resources/maskTrios/BT2B.jpg","null","",NA,NA,NA,NA,""
"image-keyboard-response",325,232313,"0.0-3.104-2.104","8yx99upd28jbub7",322,"96.csv","","null","resources/images/fishbone.png","null","",NA,NA,NA,NA,""
"image-keyboard-response",326,232482,"0.0-3.105-0.105","8yx99upd28jbub7",322,"96.csv","","165.7999999821186","resources/trios/L2T1A2.jpg","37","restless",0.5,0.3,0.9,0.151301572981278,"true"
"image-keyboard-response",327,232889,"0.0-3.105-1.105","8yx99upd28jbub7",322,"96.csv","","null","resources/maskTrios/L2BB.jpg","null","",NA,NA,NA,NA,""
"image-keyboard-response",328,234095,"0.0-3.105-2.105","8yx99upd28jbub7",322,"96.csv","","null","resources/images/coin2.png","null","",NA,NA,NA,NA,""
"image-keyboard-response",329,234131,"0.0-3.106-0.106","8yx99upd28jbub7",322,"96.csv","","31.099999994039536","resources/trios/L2T2A3.jpg","38","restless",0.5,0.3,0.9,0.264958249378952,"true"
"image-keyboard-response",330,234534,"0.0-3.106-1.106","8yx99upd28jbub7",322,"96.csv","","null","resources/maskTrios/BT2B.jpg","null","",NA,NA,NA,NA,""
"image-keyboard-response",331,235741,"0.0-3.106-2.106","8yx99upd28jbub7",322,"96.csv","","null","resources/images/coin2.png","null","",NA,NA,NA,NA,""
"image-keyboard-response",332,235801,"0.0-3.107-0.107","8yx99upd28jbub7",322,"96.csv","","56.70000001788139","resources/trios/L4T1A3.jpg","37","restless",0.5,0.3,0.9,0.897529591940091,"false"
"image-keyboard-response",333,236203,"0.0-3.107-1.107","8yx99upd28jbub7",322,"96.csv","","null","resources/maskTrios/L4BB.jpg","null","",NA,NA,NA,NA,""
"image-keyboard-response",334,237411,"0.0-3.107-2.107","8yx99upd28jbub7",322,"96.csv","","null","resources/images/fishbone.png","null","",NA,NA,NA,NA,""
"image-keyboard-response",335,237522,"0.0-3.108-0.108","8yx99upd28jbub7",322,"96.csv","","107.7000000178814","resources/trios/L4T1A2.jpg","39","restless",0.5,0.3,0.9,0.120380940094365,"true"
"image-keyboard-response",336,237929,"0.0-3.108-1.108","8yx99upd28jbub7",322,"96.csv","","null","resources/maskTrios/BBA2.jpg","null","",NA,NA,NA,NA,""
"image-keyboard-response",337,239135,"0.0-3.108-2.108","8yx99upd28jbub7",322,"96.csv","","null","resources/images/coin2.png","null","",NA,NA,NA,NA,""
"image-keyboard-response",338,240474,"0.0-3.109-0.109","8yx99upd28jbub7",322,"96.csv","","1335.4000000059605","resources/trios/L4T2A2.jpg","38","restless",0.5,0.3,0.9,0.365419913671425,"false"
"image-keyboard-response",339,240882,"0.0-3.109-1.109","8yx99upd28jbub7",322,"96.csv","","null","resources/maskTrios/BT2B.jpg","null","",NA,NA,NA,NA,""
"image-keyboard-response",340,242088,"0.0-3.109-2.109","8yx99upd28jbub7",322,"96.csv","","null","resources/images/fishbone.png","null","",NA,NA,NA,NA,""
"image-keyboard-response",341,242456,"0.0-3.110-0.110","8yx99upd28jbub7",322,"96.csv","","363.90000000596046","resources/trios/L2T2A2.jpg","39","restless",0.5,0.3,0.9,0.334513029593355,"true"
"image-keyboard-response",342,242864,"0.0-3.110-1.110","8yx99upd28jbub7",322,"96.csv","","null","resources/maskTrios/BBA2.jpg","null","",NA,NA,NA,NA,""
"image-keyboard-response",343,244069,"0.0-3.110-2.110","8yx99upd28jbub7",322,"96.csv","","null","resources/images/coin2.png","null","",NA,NA,NA,NA,""
"image-keyboard-response",344,244071,"0.0-3.111-0.111","8yx99upd28jbub7",322,"96.csv","","0.19999998807907104","resources/trios/L2T1A3.jpg","38","restless",0.5,0.3,0.9,0.534122001654745,"false"
"image-keyboard-response",345,244474,"0.0-3.111-1.111","8yx99upd28jbub7",322,"96.csv","","null","resources/maskTrios/BT1B.jpg","null","",NA,NA,NA,NA,""
"image-keyboard-response",346,245681,"0.0-3.111-2.111","8yx99upd28jbub7",322,"96.csv","","null","resources/images/fishbone.png","null","",NA,NA,NA,NA,""
"image-keyboard-response",347,245744,"0.0-3.112-0.112","8yx99upd28jbub7",322,"96.csv","","59.400000005960464","resources/trios/L4T2A2.jpg","39","restless",0.5,0.3,0.9,0.898269696866722,"true"
"image-keyboard-response",348,246148,"0.0-3.112-1.112","8yx99upd28jbub7",322,"96.csv","","null","resources/maskTrios/BBA2.jpg","null","",NA,NA,NA,NA,""
"image-keyboard-response",349,247355,"0.0-3.112-2.112","8yx99upd28jbub7",322,"96.csv","","null","resources/images/coin2.png","null","",NA,NA,NA,NA,""
"image-keyboard-response",350,247457,"0.0-3.113-0.113","8yx99upd28jbub7",322,"96.csv","","98.09999999403954","resources/trios/L4T1A3.jpg","39","restless",0.6,0.3,0.9,0.0221013634519973,"true"
"image-keyboard-response",351,247863,"0.0-3.113-1.113","8yx99upd28jbub7",322,"96.csv","","null","resources/maskTrios/BBA3.jpg","null","",NA,NA,NA,NA,""
"image-keyboard-response",352,249070,"0.0-3.113-2.113","8yx99upd28jbub7",322,"96.csv","","null","resources/images/coin2.png","null","",NA,NA,NA,NA,""
"image-keyboard-response",353,249106,"0.0-3.114-0.114","8yx99upd28jbub7",322,"96.csv","","32.20000001788139","resources/trios/L2T1A2.jpg","39","restless",0.6,0.3,0.9,0.302287425158131,"true"
"image-keyboard-response",354,249512,"0.0-3.114-1.114","8yx99upd28jbub7",322,"96.csv","","null","resources/maskTrios/BBA2.jpg","null","",NA,NA,NA,NA,""
"image-keyboard-response",355,250714,"0.0-3.114-2.114","8yx99upd28jbub7",322,"96.csv","","null","resources/images/coin2.png","null","",NA,NA,NA,NA,""
"image-keyboard-response",356,250855,"0.0-3.115-0.115","8yx99upd28jbub7",322,"96.csv","","136.59999999403954","resources/trios/L4T1A2.jpg","37","restless",0.6,0.3,0.9,0.483607819597897,"true"
"image-keyboard-response",357,251262,"0.0-3.115-1.115","8yx99upd28jbub7",322,"96.csv","","null","resources/maskTrios/L4BB.jpg","null","",NA,NA,NA,NA,""
"image-keyboard-response",358,252467,"0.0-3.115-2.115","8yx99upd28jbub7",322,"96.csv","","null","resources/images/coin2.png","null","",NA,NA,NA,NA,""
"image-keyboard-response",359,252642,"0.0-3.116-0.116","8yx99upd28jbub7",322,"96.csv","","171.10000002384186","resources/trios/L2T2A3.jpg","39","restless",0.6,0.3,0.9,0.378059448155726,"true"
"image-keyboard-response",360,253046,"0.0-3.116-1.116","8yx99upd28jbub7",322,"96.csv","","null","resources/maskTrios/BBA3.jpg","null","",NA,NA,NA,NA,""
"image-keyboard-response",361,254249,"0.0-3.116-2.116","8yx99upd28jbub7",322,"96.csv","","null","resources/images/coin2.png","null","",NA,NA,NA,NA,""
"image-keyboard-response",362,254299,"0.0-3.117-0.117","8yx99upd28jbub7",322,"96.csv","","46","resources/trios/L2T1A2.jpg","39","restless",0.5,0.3,0.9,0.132997120599793,"true"
"image-keyboard-response",363,254705,"0.0-3.117-1.117","8yx99upd28jbub7",322,"96.csv","","null","resources/maskTrios/BBA2.jpg","null","",NA,NA,NA,NA,""
"image-keyboard-response",364,255911,"0.0-3.117-2.117","8yx99upd28jbub7",322,"96.csv","","null","resources/images/coin2.png","null","",NA,NA,NA,NA,""
"image-keyboard-response",365,255967,"0.0-3.118-0.118","8yx99upd28jbub7",322,"96.csv","","52.20000001788139","resources/trios/L4T2A2.jpg","37","restless",0.5,0.3,0.9,0.59765190973373,"false"
"image-keyboard-response",366,256372,"0.0-3.118-1.118","8yx99upd28jbub7",322,"96.csv","","null","resources/maskTrios/L4BB.jpg","null","",NA,NA,NA,NA,""
"image-keyboard-response",367,257579,"0.0-3.118-2.118","8yx99upd28jbub7",322,"96.csv","","null","resources/images/fishbone.png","null","",NA,NA,NA,NA,""
"image-keyboard-response",368,257615,"0.0-3.119-0.119","8yx99upd28jbub7",322,"96.csv","","32","resources/trios/L2T2A2.jpg","37","restless",0.5,0.3,0.9,0.16251242496786,"true"
"image-keyboard-response",369,258020,"0.0-3.119-1.119","8yx99upd28jbub7",322,"96.csv","","null","resources/maskTrios/L2BB.jpg","null","",NA,NA,NA,NA,""
"image-keyboard-response",370,259227,"0.0-3.119-2.119","8yx99upd28jbub7",322,"96.csv","","null","resources/images/coin2.png","null","",NA,NA,NA,NA,""
"image-keyboard-response",371,259321,"0.0-3.120-0.120","8yx99upd28jbub7",322,"96.csv","","90.2999999821186","resources/trios/L4T2A3.jpg","39","restless",0.5,0.3,0.9,0.113866949206045,"true"
"image-keyboard-response",372,259729,"0.0-3.120-1.120","8yx99upd28jbub7",322,"96.csv","","null","resources/maskTrios/BBA3.jpg","null","",NA,NA,NA,NA,""
"image-keyboard-response",373,260932,"0.0-3.120-2.120","8yx99upd28jbub7",322,"96.csv","","null","resources/images/coin2.png","null","",NA,NA,NA,NA,""
"image-keyboard-response",374,261114,"0.0-3.121-0.121","8yx99upd28jbub7",322,"96.csv","","178.5","resources/trios/L2T2A3.jpg","38","restless",0.5,0.3,0.9,0.0495395088579798,"true"
"image-keyboard-response",375,261520,"0.0-3.121-1.121","8yx99upd28jbub7",322,"96.csv","","null","resources/maskTrios/BT2B.jpg","null","",NA,NA,NA,NA,""
"image-keyboard-response",376,262728,"0.0-3.121-2.121","8yx99upd28jbub7",322,"96.csv","","null","resources/images/coin2.png","null","",NA,NA,NA,NA,""
"image-keyboard-response",377,262827,"0.0-3.122-0.122","8yx99upd28jbub7",322,"96.csv","","95.59999999403954","resources/trios/L4T1A3.jpg","37","restless",0.5,0.3,0.9,0.634250640037601,"false"
"image-keyboard-response",378,263235,"0.0-3.122-1.122","8yx99upd28jbub7",322,"96.csv","","null","resources/maskTrios/L4BB.jpg","null","",NA,NA,NA,NA,""
"image-keyboard-response",379,264439,"0.0-3.122-2.122","8yx99upd28jbub7",322,"96.csv","","null","resources/images/fishbone.png","null","",NA,NA,NA,NA,""
"image-keyboard-response",380,264455,"0.0-3.123-0.123","8yx99upd28jbub7",322,"96.csv","","12.099999994039536","resources/trios/L2T1A3.jpg","38","restless",0.5,0.4,0.9,0.524174915474253,"false"
"image-keyboard-response",381,264860,"0.0-3.123-1.123","8yx99upd28jbub7",322,"96.csv","","null","resources/maskTrios/BT1B.jpg","null","",NA,NA,NA,NA,""
"image-keyboard-response",382,266062,"0.0-3.123-2.123","8yx99upd28jbub7",322,"96.csv","","null","resources/images/fishbone.png","null","",NA,NA,NA,NA,""
"image-keyboard-response",383,266168,"0.0-3.124-0.124","8yx99upd28jbub7",322,"96.csv","","103.10000002384186","resources/trios/L2T2A3.jpg","37","restless",0.4,0.4,0.9,0.951854702657604,"false"
"image-keyboard-response",384,266573,"0.0-3.124-1.124","8yx99upd28jbub7",322,"96.csv","","null","resources/maskTrios/L2BB.jpg","null","",NA,NA,NA,NA,""
"image-keyboard-response",385,267777,"0.0-3.124-2.124","8yx99upd28jbub7",322,"96.csv","","null","resources/images/fishbone.png","null","",NA,NA,NA,NA,""
"image-keyboard-response",386,267861,"0.0-3.125-0.125","8yx99upd28jbub7",322,"96.csv","","80.09999999403954","resources/trios/L4T1A3.jpg","38","restless",0.5,0.4,0.9,0.97243051128687,"false"
"image-keyboard-response",387,268266,"0.0-3.125-1.125","8yx99upd28jbub7",322,"96.csv","","null","resources/maskTrios/BT1B.jpg","null","",NA,NA,NA,NA,""
"image-keyboard-response",388,269473,"0.0-3.125-2.125","8yx99upd28jbub7",322,"96.csv","","null","resources/images/fishbone.png","null","",NA,NA,NA,NA,""
"image-keyboard-response",389,269572,"0.0-3.126-0.126","8yx99upd28jbub7",322,"96.csv","","93.90000000596046","resources/trios/L2T1A2.jpg","37","restless",0.4,0.4,0.9,0.900186892857879,"false"
"image-keyboard-response",390,269977,"0.0-3.126-1.126","8yx99upd28jbub7",322,"96.csv","","null","resources/maskTrios/L2BB.jpg","null","",NA,NA,NA,NA,""
"image-keyboard-response",391,271181,"0.0-3.126-2.126","8yx99upd28jbub7",322,"96.csv","","null","resources/images/fishbone.png","null","",NA,NA,NA,NA,""
"image-keyboard-response",392,271234,"0.0-3.127-0.127","8yx99upd28jbub7",322,"96.csv","","49.39999997615814","resources/trios/L2T1A2.jpg","37","restless",0.4,0.4,0.9,0.961546178789328,"false"
"image-keyboard-response",393,271639,"0.0-3.127-1.127","8yx99upd28jbub7",322,"96.csv","","null","resources/maskTrios/L2BB.jpg","null","",NA,NA,NA,NA,""
"image-keyboard-response",394,272842,"0.0-3.127-2.127","8yx99upd28jbub7",322,"96.csv","","null","resources/images/fishbone.png","null","",NA,NA,NA,NA,""
"image-keyboard-response",395,272871,"0.0-3.128-0.128","8yx99upd28jbub7",322,"96.csv","","26.30000001192093","resources/trios/L2T1A2.jpg","37","restless",0.3,0.4,0.8,0.467703636666107,"false"
"image-keyboard-response",396,273278,"0.0-3.128-1.128","8yx99upd28jbub7",322,"96.csv","","null","resources/maskTrios/L2BB.jpg","null","",NA,NA,NA,NA,""
"image-keyboard-response",397,274485,"0.0-3.128-2.128","8yx99upd28jbub7",322,"96.csv","","null","resources/images/fishbone.png","null","",NA,NA,NA,NA,""
"image-keyboard-response",398,274553,"0.0-3.129-0.129","8yx99upd28jbub7",322,"96.csv","","64.19999998807907","resources/trios/L4T2A3.jpg","38","restless",0.3,0.4,0.8,0.525686731207037,"false"
"image-keyboard-response",399,274961,"0.0-3.129-1.129","8yx99upd28jbub7",322,"96.csv","","null","resources/maskTrios/BT2B.jpg","null","",NA,NA,NA,NA,""
"image-keyboard-response",400,276166,"0.0-3.129-2.129","8yx99upd28jbub7",322,"96.csv","","null","resources/images/fishbone.png","null","",NA,NA,NA,NA,""
"image-keyboard-response",401,276269,"0.0-3.130-0.130","8yx99upd28jbub7",322,"96.csv","","98.69999998807907","resources/trios/L2T1A3.jpg","37","restless",0.3,0.4,0.8,0.0706655216081125,"true"
"image-keyboard-response",402,276676,"0.0-3.130-1.130","8yx99upd28jbub7",322,"96.csv","","null","resources/maskTrios/L2BB.jpg","null","",NA,NA,NA,NA,""
"image-keyboard-response",403,277881,"0.0-3.130-2.130","8yx99upd28jbub7",322,"96.csv","","null","resources/images/coin2.png","null","",NA,NA,NA,NA,""
"image-keyboard-response",404,277948,"0.0-3.131-0.131","8yx99upd28jbub7",322,"96.csv","","63.80000001192093","resources/trios/L2T2A3.jpg","39","restless",0.3,0.4,0.8,0.11529964924492,"true"
"image-keyboard-response",405,278356,"0.0-3.131-1.131","8yx99upd28jbub7",322,"96.csv","","null","resources/maskTrios/BBA3.jpg","null","",NA,NA,NA,NA,""
"image-keyboard-response",406,279561,"0.0-3.131-2.131","8yx99upd28jbub7",322,"96.csv","","null","resources/images/coin2.png","null","",NA,NA,NA,NA,""
"image-keyboard-response",407,279677,"0.0-3.132-0.132","8yx99upd28jbub7",322,"96.csv","","112.80000001192093","resources/trios/L2T2A3.jpg","37","restless",0.3,0.4,0.8,0.606274374537807,"false"
"image-keyboard-response",408,280080,"0.0-3.132-1.132","8yx99upd28jbub7",322,"96.csv","","null","resources/maskTrios/L2BB.jpg","null","",NA,NA,NA,NA,""
"image-keyboard-response",409,281287,"0.0-3.132-2.132","8yx99upd28jbub7",322,"96.csv","","null","resources/images/fishbone.png","null","",NA,NA,NA,NA,""
"image-keyboard-response",410,281374,"0.0-3.133-0.133","8yx99upd28jbub7",322,"96.csv","","84.09999999403954","resources/trios/L4T1A3.jpg","39","restless",0.3,0.4,0.8,0.15946064959769,"true"
"image-keyboard-response",411,281779,"0.0-3.133-1.133","8yx99upd28jbub7",322,"96.csv","","null","resources/maskTrios/BBA3.jpg","null","",NA,NA,NA,NA,""
"image-keyboard-response",412,282987,"0.0-3.133-2.133","8yx99upd28jbub7",322,"96.csv","","null","resources/images/coin2.png","null","",NA,NA,NA,NA,""
"image-keyboard-response",413,283102,"0.0-3.134-0.134","8yx99upd28jbub7",322,"96.csv","","111.90000000596046","resources/trios/L2T2A3.jpg","39","restless",0.3,0.4,0.8,0.126180471415215,"true"
"image-keyboard-response",414,283508,"0.0-3.134-1.134","8yx99upd28jbub7",322,"96.csv","","null","resources/maskTrios/BBA3.jpg","null","",NA,NA,NA,NA,""
"image-keyboard-response",415,284713,"0.0-3.134-2.134","8yx99upd28jbub7",322,"96.csv","","null","resources/images/coin2.png","null","",NA,NA,NA,NA,""
"image-keyboard-response",416,284815,"0.0-3.135-0.135","8yx99upd28jbub7",322,"96.csv","","98","resources/trios/L4T2A3.jpg","37","restless",0.3,0.4,0.8,0.519234030886707,"false"
"image-keyboard-response",417,285219,"0.0-3.135-1.135","8yx99upd28jbub7",322,"96.csv","","null","resources/maskTrios/L4BB.jpg","null","",NA,NA,NA,NA,""
"image-keyboard-response",418,286423,"0.0-3.135-2.135","8yx99upd28jbub7",322,"96.csv","","null","resources/images/fishbone.png","null","",NA,NA,NA,NA,""
"image-keyboard-response",419,286526,"0.0-3.136-0.136","8yx99upd28jbub7",322,"96.csv","","99.2000000178814","resources/trios/L4T1A2.jpg","37","restless",0.3,0.4,0.8,0.48436588841401,"false"
"image-keyboard-response",420,286929,"0.0-3.136-1.136","8yx99upd28jbub7",322,"96.csv","","null","resources/maskTrios/L4BB.jpg","null","",NA,NA,NA,NA,""
"image-keyboard-response",421,288135,"0.0-3.136-2.136","8yx99upd28jbub7",322,"96.csv","","null","resources/images/fishbone.png","null","",NA,NA,NA,NA,""
"image-keyboard-response",422,288182,"0.0-3.137-0.137","8yx99upd28jbub7",322,"96.csv","","42.599999994039536","resources/trios/L4T1A2.jpg","39","restless",0.3,0.4,0.8,0.175798561618784,"true"
"image-keyboard-response",423,288589,"0.0-3.137-1.137","8yx99upd28jbub7",322,"96.csv","","null","resources/maskTrios/BBA2.jpg","null","",NA,NA,NA,NA,""
"image-keyboard-response",424,289797,"0.0-3.137-2.137","8yx99upd28jbub7",322,"96.csv","","null","resources/images/coin2.png","null","",NA,NA,NA,NA,""
"image-keyboard-response",425,289818,"0.0-3.138-0.138","8yx99upd28jbub7",322,"96.csv","","18.099999994039536","resources/trios/L2T1A3.jpg","37","restless",0.3,0.4,0.8,0.983464965282487,"false"
"image-keyboard-response",426,290225,"0.0-3.138-1.138","8yx99upd28jbub7",322,"96.csv","","null","resources/maskTrios/L2BB.jpg","null","",NA,NA,NA,NA,""
"image-keyboard-response",427,291432,"0.0-3.138-2.138","8yx99upd28jbub7",322,"96.csv","","null","resources/images/fishbone.png","null","",NA,NA,NA,NA,""
"image-keyboard-response",428,291445,"0.0-3.139-0.139","8yx99upd28jbub7",322,"96.csv","","10.099999994039536","resources/trios/L2T1A2.jpg","37","restless",0.3,0.4,0.8,0.779200407891243,"false"
"image-keyboard-response",429,291849,"0.0-3.139-1.139","8yx99upd28jbub7",322,"96.csv","","null","resources/maskTrios/L2BB.jpg","null","",NA,NA,NA,NA,""
"image-keyboard-response",430,293056,"0.0-3.139-2.139","8yx99upd28jbub7",322,"96.csv","","null","resources/images/fishbone.png","null","",NA,NA,NA,NA,""
"image-keyboard-response",431,293092,"0.0-3.140-0.140","8yx99upd28jbub7",322,"96.csv","","32.900000005960464","resources/trios/L2T2A2.jpg","39","restless",0.3,0.5,0.8,0.230640812542824,"true"
"image-keyboard-response",432,293498,"0.0-3.140-1.140","8yx99upd28jbub7",322,"96.csv","","null","resources/maskTrios/BBA2.jpg","null","",NA,NA,NA,NA,""
"image-keyboard-response",433,294704,"0.0-3.140-2.140","8yx99upd28jbub7",322,"96.csv","","null","resources/images/coin2.png","null","",NA,NA,NA,NA,""
"image-keyboard-response",434,294947,"0.0-3.141-0.141","8yx99upd28jbub7",322,"96.csv","","240.09999999403954","resources/trios/L4T2A3.jpg","39","restless",0.3,0.5,0.8,0.17025757004019,"true"
"image-keyboard-response",435,295354,"0.0-3.141-1.141","8yx99upd28jbub7",322,"96.csv","","null","resources/maskTrios/BBA3.jpg","null","",NA,NA,NA,NA,""
"image-keyboard-response",436,296556,"0.0-3.141-2.141","8yx99upd28jbub7",322,"96.csv","","null","resources/images/coin2.png","null","",NA,NA,NA,NA,""
"image-keyboard-response",437,296756,"0.0-3.142-0.142","8yx99upd28jbub7",322,"96.csv","","197.5","resources/trios/L4T2A3.jpg","39","restless",0.3,0.5,0.8,0.562029556186033,"true"
"image-keyboard-response",438,297159,"0.0-3.142-1.142","8yx99upd28jbub7",322,"96.csv","","null","resources/maskTrios/BBA3.jpg","null","",NA,NA,NA,NA,""
"image-keyboard-response",439,298363,"0.0-3.142-2.142","8yx99upd28jbub7",322,"96.csv","","null","resources/images/coin2.png","null","",NA,NA,NA,NA,""
"image-keyboard-response",440,298428,"0.0-3.143-0.143","8yx99upd28jbub7",322,"96.csv","","60.80000001192093","resources/trios/L4T2A2.jpg","37","restless",0.3,0.5,0.8,0.6628730300496,"false"
"image-keyboard-response",441,298831,"0.0-3.143-1.143","8yx99upd28jbub7",322,"96.csv","","null","resources/maskTrios/L4BB.jpg","null","",NA,NA,NA,NA,""
"image-keyboard-response",442,300035,"0.0-3.143-2.143","8yx99upd28jbub7",322,"96.csv","","null","resources/images/fishbone.png","null","",NA,NA,NA,NA,""
"image-keyboard-response",443,300061,"0.0-3.144-0.144","8yx99upd28jbub7",322,"96.csv","","22.700000017881393","resources/trios/L4T2A2.jpg","39","restless",0.3,0.5,0.8,0.341757630535033,"true"
"image-keyboard-response",444,300468,"0.0-3.144-1.144","8yx99upd28jbub7",322,"96.csv","","null","resources/maskTrios/BBA2.jpg","null","",NA,NA,NA,NA,""
"image-keyboard-response",445,301670,"0.0-3.144-2.144","8yx99upd28jbub7",322,"96.csv","","null","resources/images/coin2.png","null","",NA,NA,NA,NA,""
"image-keyboard-response",446,301734,"0.0-3.145-0.145","8yx99upd28jbub7",322,"96.csv","","60.099999994039536","resources/trios/L4T1A3.jpg","39","restless",0.3,0.5,0.7,0.960865613585486,"false"
"image-keyboard-response",447,302142,"0.0-3.145-1.145","8yx99upd28jbub7",322,"96.csv","","null","resources/maskTrios/BBA3.jpg","null","",NA,NA,NA,NA,""
"image-keyboard-response",448,303349,"0.0-3.145-2.145","8yx99upd28jbub7",322,"96.csv","","null","resources/images/fishbone.png","null","",NA,NA,NA,NA,""
"image-keyboard-response",449,303375,"0.0-3.146-0.146","8yx99upd28jbub7",322,"96.csv","","21.599999994039536","resources/trios/L4T1A3.jpg","38","restless",0.3,0.5,0.7,0.825288227538192,"false"
"image-keyboard-response",450,303779,"0.0-3.146-1.146","8yx99upd28jbub7",322,"96.csv","","null","resources/maskTrios/BT1B.jpg","null","",NA,NA,NA,NA,""
"image-keyboard-response",451,304983,"0.0-3.146-2.146","8yx99upd28jbub7",322,"96.csv","","null","resources/images/fishbone.png","null","",NA,NA,NA,NA,""
"image-keyboard-response",452,305215,"0.0-3.147-0.147","8yx99upd28jbub7",322,"96.csv","","227.69999998807907","resources/trios/L4T1A2.jpg","39","restless",0.3,0.6,0.6,0.229991920242939,"true"
"image-keyboard-response",453,305620,"0.0-3.147-1.147","8yx99upd28jbub7",322,"96.csv","","null","resources/maskTrios/BBA2.jpg","null","",NA,NA,NA,NA,""
"image-keyboard-response",454,306824,"0.0-3.147-2.147","8yx99upd28jbub7",322,"96.csv","","null","resources/images/coin2.png","null","",NA,NA,NA,NA,""
"image-keyboard-response",455,306859,"0.0-3.148-0.148","8yx99upd28jbub7",322,"96.csv","","32.900000005960464","resources/trios/L2T1A2.jpg","39","restless",0.3,0.6,0.6,0.593501492918031,"true"
"image-keyboard-response",456,307265,"0.0-3.148-1.148","8yx99upd28jbub7",322,"96.csv","","null","resources/maskTrios/BBA2.jpg","null","",NA,NA,NA,NA,""
"image-keyboard-response",457,308473,"0.0-3.148-2.148","8yx99upd28jbub7",322,"96.csv","","null","resources/images/coin2.png","null","",NA,NA,NA,NA,""
"image-keyboard-response",458,308551,"0.0-3.149-0.149","8yx99upd28jbub7",322,"96.csv","","75","resources/trios/L4T1A3.jpg","37","restless",0.3,0.6,0.6,0.605830354606056,"false"
"image-keyboard-response",459,308957,"0.0-3.149-1.149","8yx99upd28jbub7",322,"96.csv","","null","resources/maskTrios/L4BB.jpg","null","",NA,NA,NA,NA,""
"image-keyboard-response",460,310164,"0.0-3.149-2.149","8yx99upd28jbub7",322,"96.csv","","null","resources/images/fishbone.png","null","",NA,NA,NA,NA,""
"image-keyboard-response",461,310285,"0.0-3.150-0.150","8yx99upd28jbub7",322,"96.csv","","116.90000000596046","resources/trios/L2T2A2.jpg","38","restless",0.3,0.6,0.6,0.669974627551228,"false"
"image-keyboard-response",462,310692,"0.0-3.150-1.150","8yx99upd28jbub7",322,"96.csv","","null","resources/maskTrios/BT2B.jpg","null","",NA,NA,NA,NA,""
"image-keyboard-response",463,311895,"0.0-3.150-2.150","8yx99upd28jbub7",322,"96.csv","","null","resources/images/fishbone.png","null","",NA,NA,NA,NA,""
"image-keyboard-response",464,311989,"0.0-3.151-0.151","8yx99upd28jbub7",322,"96.csv","","90.2999999821186","resources/trios/L2T1A2.jpg","38","restless",0.3,0.5,0.6,0.900156456004143,"false"
"image-keyboard-response",465,312397,"0.0-3.151-1.151","8yx99upd28jbub7",322,"96.csv","","null","resources/maskTrios/BT1B.jpg","null","",NA,NA,NA,NA,""
"image-keyboard-response",466,313603,"0.0-3.151-2.151","8yx99upd28jbub7",322,"96.csv","","null","resources/images/fishbone.png","null","",NA,NA,NA,NA,""
"image-keyboard-response",467,313614,"0.0-3.152-0.152","8yx99upd28jbub7",322,"96.csv","","7.300000011920929","resources/trios/L4T1A2.jpg","39","restless",0.3,0.5,0.6,0.505208143027956,"true"
"image-keyboard-response",468,314021,"0.0-3.152-1.152","8yx99upd28jbub7",322,"96.csv","","null","resources/maskTrios/BBA2.jpg","null","",NA,NA,NA,NA,""
"image-keyboard-response",469,315226,"0.0-3.152-2.152","8yx99upd28jbub7",322,"96.csv","","null","resources/images/coin2.png","null","",NA,NA,NA,NA,""
"image-keyboard-response",470,315396,"0.0-3.153-0.153","8yx99upd28jbub7",322,"96.csv","","167.19999998807907","resources/trios/L2T2A3.jpg","39","restless",0.3,0.6,0.6,0.63979383311466,"false"
"image-keyboard-response",471,315804,"0.0-3.153-1.153","8yx99upd28jbub7",322,"96.csv","","null","resources/maskTrios/BBA3.jpg","null","",NA,NA,NA,NA,""
"image-keyboard-response",472,317006,"0.0-3.153-2.153","8yx99upd28jbub7",322,"96.csv","","null","resources/images/fishbone.png","null","",NA,NA,NA,NA,""
"image-keyboard-response",473,317268,"0.0-3.154-0.154","8yx99upd28jbub7",322,"96.csv","","258.89999997615814","resources/trios/L4T1A3.jpg","39","restless",0.3,0.6,0.6,0.647676262595869,"false"
"image-keyboard-response",474,317676,"0.0-3.154-1.154","8yx99upd28jbub7",322,"96.csv","","null","resources/maskTrios/BBA3.jpg","null","",NA,NA,NA,NA,""
"image-keyboard-response",475,318879,"0.0-3.154-2.154","8yx99upd28jbub7",322,"96.csv","","null","resources/images/fishbone.png","null","",NA,NA,NA,NA,""
"image-keyboard-response",476,318891,"0.0-3.155-0.155","8yx99upd28jbub7",322,"96.csv","","8.199999988079071","resources/trios/L4T1A2.jpg","38","restless",0.4,0.6,0.6,0.447365361119377,"true"
"image-keyboard-response",477,319293,"0.0-3.155-1.155","8yx99upd28jbub7",322,"96.csv","","null","resources/maskTrios/BT1B.jpg","null","",NA,NA,NA,NA,""
"image-keyboard-response",478,320497,"0.0-3.155-2.155","8yx99upd28jbub7",322,"96.csv","","null","resources/images/coin2.png","null","",NA,NA,NA,NA,""
"image-keyboard-response",479,320522,"0.0-3.156-0.156","8yx99upd28jbub7",322,"96.csv","","21.80000001192093","resources/trios/L2T1A2.jpg","38","restless",0.4,0.6,0.5,0.32972942232806,"true"
"image-keyboard-response",480,320929,"0.0-3.156-1.156","8yx99upd28jbub7",322,"96.csv","","null","resources/maskTrios/BT1B.jpg","null","",NA,NA,NA,NA,""
"image-keyboard-response",481,322137,"0.0-3.156-2.156","8yx99upd28jbub7",322,"96.csv","","null","resources/images/coin2.png","null","",NA,NA,NA,NA,""
"image-keyboard-response",482,322442,"0.0-3.157-0.157","8yx99upd28jbub7",322,"96.csv","","301.60000002384186","resources/trios/L4T2A2.jpg","37","restless",0.4,0.6,0.5,0.503297560354478,"false"
"image-keyboard-response",483,322850,"0.0-3.157-1.157","8yx99upd28jbub7",322,"96.csv","","null","resources/maskTrios/L4BB.jpg","null","",NA,NA,NA,NA,""
"image-keyboard-response",484,324056,"0.0-3.157-2.157","8yx99upd28jbub7",322,"96.csv","","null","resources/images/fishbone.png","null","",NA,NA,NA,NA,""
"image-keyboard-response",485,325953,"0.0-3.158-0.158","8yx99upd28jbub7",322,"96.csv","","1894","resources/trios/L2T1A2.jpg","39","restless",0.4,0.6,0.5,0.797676638818524,"false"
"image-keyboard-response",486,326362,"0.0-3.158-1.158","8yx99upd28jbub7",322,"96.csv","","null","resources/maskTrios/BBA2.jpg","null","",NA,NA,NA,NA,""
"image-keyboard-response",487,327567,"0.0-3.158-2.158","8yx99upd28jbub7",322,"96.csv","","null","resources/images/fishbone.png","null","",NA,NA,NA,NA,""
"image-keyboard-response",488,328967,"0.0-3.159-0.159","8yx99upd28jbub7",322,"96.csv","","1396.4000000059605","resources/trios/L2T2A3.jpg","37","restless",0.4,0.6,0.4,0.853274884202454,"false"
"image-keyboard-response",489,329374,"0.0-3.159-1.159","8yx99upd28jbub7",322,"96.csv","","null","resources/maskTrios/L2BB.jpg","null","",NA,NA,NA,NA,""
"image-keyboard-response",490,330581,"0.0-3.159-2.159","8yx99upd28jbub7",322,"96.csv","","null","resources/images/fishbone.png","null","",NA,NA,NA,NA,""
"image-keyboard-response",491,330984,"0.0-3.160-0.160","8yx99upd28jbub7",322,"96.csv","","398.89999997615814","resources/trios/L2T2A3.jpg","39","restless",0.4,0.6,0.4,0.946733795026952,"false"
"image-keyboard-response",492,331387,"0.0-3.160-1.160","8yx99upd28jbub7",322,"96.csv","","null","resources/maskTrios/BBA3.jpg","null","",NA,NA,NA,NA,""
"image-keyboard-response",493,332594,"0.0-3.160-2.160","8yx99upd28jbub7",322,"96.csv","","null","resources/images/fishbone.png","null","",NA,NA,NA,NA,""
"image-keyboard-response",494,332997,"0.0-3.161-0.161","8yx99upd28jbub7",322,"96.csv","","399","resources/trios/L2T2A3.jpg","38","restless",0.4,0.6,0.4,0.867332780627956,"false"
"image-keyboard-response",495,333405,"0.0-3.161-1.161","8yx99upd28jbub7",322,"96.csv","","null","resources/maskTrios/BT2B.jpg","null","",NA,NA,NA,NA,""
"image-keyboard-response",496,334612,"0.0-3.161-2.161","8yx99upd28jbub7",322,"96.csv","","null","resources/images/fishbone.png","null","",NA,NA,NA,NA,""
"image-keyboard-response",497,334987,"0.0-3.162-0.162","8yx99upd28jbub7",322,"96.csv","","371.5","resources/trios/L4T1A3.jpg","37","restless",0.4,0.5,0.4,0.614548813800323,"false"
"image-keyboard-response",498,335395,"0.0-3.162-1.162","8yx99upd28jbub7",322,"96.csv","","null","resources/maskTrios/L4BB.jpg","null","",NA,NA,NA,NA,""
"image-keyboard-response",499,336602,"0.0-3.162-2.162","8yx99upd28jbub7",322,"96.csv","","null","resources/images/fishbone.png","null","",NA,NA,NA,NA,""
"image-keyboard-response",500,336924,"0.0-3.163-0.163","8yx99upd28jbub7",322,"96.csv","","317.90000000596046","resources/trios/L2T1A2.jpg","39","restless",0.4,0.5,0.4,0.424210084956856,"false"
"image-keyboard-response",501,337329,"0.0-3.163-1.163","8yx99upd28jbub7",322,"96.csv","","null","resources/maskTrios/BBA2.jpg","null","",NA,NA,NA,NA,""
"image-keyboard-response",502,338536,"0.0-3.163-2.163","8yx99upd28jbub7",322,"96.csv","","null","resources/images/fishbone.png","null","",NA,NA,NA,NA,""
"image-keyboard-response",503,338982,"0.0-3.164-0.164","8yx99upd28jbub7",322,"96.csv","","442.90000000596046","resources/trios/L4T1A3.jpg","37","restless",0.4,0.5,0.4,0.536770660695198,"false"
"image-keyboard-response",504,339388,"0.0-3.164-1.164","8yx99upd28jbub7",322,"96.csv","","null","resources/maskTrios/L4BB.jpg","null","",NA,NA,NA,NA,""
"image-keyboard-response",505,340591,"0.0-3.164-2.164","8yx99upd28jbub7",322,"96.csv","","null","resources/images/fishbone.png","null","",NA,NA,NA,NA,""
"image-keyboard-response",506,341021,"0.0-3.165-0.165","8yx99upd28jbub7",322,"96.csv","","426.40000000596046","resources/trios/L4T2A2.jpg","37","restless",0.4,0.4,0.4,0.0954286705498006,"true"
"image-keyboard-response",507,341429,"0.0-3.165-1.165","8yx99upd28jbub7",322,"96.csv","","null","resources/maskTrios/L4BB.jpg","null","",NA,NA,NA,NA,""
"image-keyboard-response",508,342637,"0.0-3.165-2.165","8yx99upd28jbub7",322,"96.csv","","null","resources/images/coin2.png","null","",NA,NA,NA,NA,""
"image-keyboard-response",509,342741,"0.0-3.166-0.166","8yx99upd28jbub7",322,"96.csv","","100.5","resources/trios/L2T2A3.jpg","38","restless",0.4,0.4,0.4,0.469681135551971,"false"
"image-keyboard-response",510,343145,"0.0-3.166-1.166","8yx99upd28jbub7",322,"96.csv","","null","resources/maskTrios/BT2B.jpg","null","",NA,NA,NA,NA,""
"image-keyboard-response",511,344352,"0.0-3.166-2.166","8yx99upd28jbub7",322,"96.csv","","null","resources/images/fishbone.png","null","",NA,NA,NA,NA,""
"image-keyboard-response",512,344500,"0.0-3.167-0.167","8yx99upd28jbub7",322,"96.csv","","143.40000000596046","resources/trios/L4T2A2.jpg","39","restless",0.4,0.4,0.4,0.508006073430957,"false"
"image-keyboard-response",513,344905,"0.0-3.167-1.167","8yx99upd28jbub7",322,"96.csv","","null","resources/maskTrios/BBA2.jpg","null","",NA,NA,NA,NA,""
"image-keyboard-response",514,346112,"0.0-3.167-2.167","8yx99upd28jbub7",322,"96.csv","","null","resources/images/fishbone.png","null","",NA,NA,NA,NA,""
"image-keyboard-response",515,346420,"0.0-3.168-0.168","8yx99upd28jbub7",322,"96.csv","","304.2999999821186","resources/trios/L2T2A3.jpg","39","restless",0.4,0.4,0.4,0.884027354526063,"false"
"image-keyboard-response",516,346827,"0.0-3.168-1.168","8yx99upd28jbub7",322,"96.csv","","null","resources/maskTrios/BBA3.jpg","null","",NA,NA,NA,NA,""
"image-keyboard-response",517,348032,"0.0-3.168-2.168","8yx99upd28jbub7",322,"96.csv","","null","resources/images/fishbone.png","null","",NA,NA,NA,NA,""
"image-keyboard-response",518,348446,"0.0-3.169-0.169","8yx99upd28jbub7",322,"96.csv","","409.7000000178814","resources/trios/L4T2A2.jpg","39","restless",0.4,0.4,0.4,0.57995537688869,"false"
"image-keyboard-response",519,348854,"0.0-3.169-1.169","8yx99upd28jbub7",322,"96.csv","","null","resources/maskTrios/BBA2.jpg","null","",NA,NA,NA,NA,""
"image-keyboard-response",520,350061,"0.0-3.169-2.169","8yx99upd28jbub7",322,"96.csv","","null","resources/images/fishbone.png","null","",NA,NA,NA,NA,""
"image-keyboard-response",521,350419,"0.0-3.170-0.170","8yx99upd28jbub7",322,"96.csv","","354.7000000178814","resources/trios/L2T1A3.jpg","39","restless",0.4,0.4,0.4,0.931574538620981,"false"
"image-keyboard-response",522,350827,"0.0-3.170-1.170","8yx99upd28jbub7",322,"96.csv","","null","resources/maskTrios/BBA3.jpg","null","",NA,NA,NA,NA,""
"image-keyboard-response",523,352030,"0.0-3.170-2.170","8yx99upd28jbub7",322,"96.csv","","null","resources/images/fishbone.png","null","",NA,NA,NA,NA,""
"image-keyboard-response",524,352481,"0.0-3.171-0.171","8yx99upd28jbub7",322,"96.csv","","447.30000001192093","resources/trios/L2T1A2.jpg","39","restless",0.4,0.4,0.4,0.649664835057708,"false"
"image-keyboard-response",525,352888,"0.0-3.171-1.171","8yx99upd28jbub7",322,"96.csv","","null","resources/maskTrios/BBA2.jpg","null","",NA,NA,NA,NA,""
"image-keyboard-response",526,354095,"0.0-3.171-2.171","8yx99upd28jbub7",322,"96.csv","","null","resources/images/fishbone.png","null","",NA,NA,NA,NA,""
"image-keyboard-response",527,354439,"0.0-3.172-0.172","8yx99upd28jbub7",322,"96.csv","","338.69999998807907","resources/trios/L2T1A2.jpg","39","restless",0.3,0.4,0.4,0.853795717320512,"false"
"image-keyboard-response",528,354847,"0.0-3.172-1.172","8yx99upd28jbub7",322,"96.csv","","null","resources/maskTrios/BBA2.jpg","null","",NA,NA,NA,NA,""
"image-keyboard-response",529,356050,"0.0-3.172-2.172","8yx99upd28jbub7",322,"96.csv","","null","resources/images/fishbone.png","null","",NA,NA,NA,NA,""
"image-keyboard-response",530,356379,"0.0-3.173-0.173","8yx99upd28jbub7",322,"96.csv","","325.09999999403954","resources/trios/L2T1A2.jpg","39","restless",0.3,0.4,0.4,0.00671711215759063,"true"
"image-keyboard-response",531,356787,"0.0-3.173-1.173","8yx99upd28jbub7",322,"96.csv","","null","resources/maskTrios/BBA2.jpg","null","",NA,NA,NA,NA,""
"image-keyboard-response",532,357990,"0.0-3.173-2.173","8yx99upd28jbub7",322,"96.csv","","null","resources/images/coin2.png","null","",NA,NA,NA,NA,""
"image-keyboard-response",533,358177,"0.0-3.174-0.174","8yx99upd28jbub7",322,"96.csv","","183.59999999403954","resources/trios/L2T2A3.jpg","39","restless",0.2,0.4,0.4,0.138302166964176,"true"
"image-keyboard-response",534,358583,"0.0-3.174-1.174","8yx99upd28jbub7",322,"96.csv","","null","resources/maskTrios/BBA3.jpg","null","",NA,NA,NA,NA,""
"image-keyboard-response",535,359791,"0.0-3.174-2.174","8yx99upd28jbub7",322,"96.csv","","null","resources/images/coin2.png","null","",NA,NA,NA,NA,""
"image-keyboard-response",536,360031,"0.0-3.175-0.175","8yx99upd28jbub7",322,"96.csv","","236.59999999403954","resources/trios/L4T1A3.jpg","39","restless",0.2,0.4,0.4,0.318235415842349,"true"
"image-keyboard-response",537,360437,"0.0-3.175-1.175","8yx99upd28jbub7",322,"96.csv","","null","resources/maskTrios/BBA3.jpg","null","",NA,NA,NA,NA,""
"image-keyboard-response",538,361642,"0.0-3.175-2.175","8yx99upd28jbub7",322,"96.csv","","null","resources/images/coin2.png","null","",NA,NA,NA,NA,""
"image-keyboard-response",539,361915,"0.0-3.176-0.176","8yx99upd28jbub7",322,"96.csv","","269.2999999821186","resources/trios/L2T2A2.jpg","39","restless",0.2,0.4,0.4,0.443169296778034,"false"
"image-keyboard-response",540,362323,"0.0-3.176-1.176","8yx99upd28jbub7",322,"96.csv","","null","resources/maskTrios/BBA2.jpg","null","",NA,NA,NA,NA,""
"image-keyboard-response",541,363528,"0.0-3.176-2.176","8yx99upd28jbub7",322,"96.csv","","null","resources/images/fishbone.png","null","",NA,NA,NA,NA,""
"image-keyboard-response",542,363711,"0.0-3.177-0.177","8yx99upd28jbub7",322,"96.csv","","179","resources/trios/L2T1A3.jpg","39","restless",0.2,0.4,0.4,0.46885583565953,"false"
"image-keyboard-response",543,364115,"0.0-3.177-1.177","8yx99upd28jbub7",322,"96.csv","","null","resources/maskTrios/BBA3.jpg","null","",NA,NA,NA,NA,""
"image-keyboard-response",544,365318,"0.0-3.177-2.177","8yx99upd28jbub7",322,"96.csv","","null","resources/images/fishbone.png","null","",NA,NA,NA,NA,""
"image-keyboard-response",545,365490,"0.0-3.178-0.178","8yx99upd28jbub7",322,"96.csv","","168.5","resources/trios/L2T2A3.jpg","37","restless",0.2,0.4,0.4,0.594383287740645,"false"
"image-keyboard-response",546,365893,"0.0-3.178-1.178","8yx99upd28jbub7",322,"96.csv","","null","resources/maskTrios/L2BB.jpg","null","",NA,NA,NA,NA,""
"image-keyboard-response",547,367100,"0.0-3.178-2.178","8yx99upd28jbub7",322,"96.csv","","null","resources/images/fishbone.png","null","",NA,NA,NA,NA,""
"image-keyboard-response",548,367106,"0.0-3.179-0.179","8yx99upd28jbub7",322,"96.csv","","2.9000000059604645","resources/trios/L2T2A3.jpg","37","restless",0.2,0.4,0.4,0.298928288178936,"false"
"image-keyboard-response",549,367511,"0.0-3.179-1.179","8yx99upd28jbub7",322,"96.csv","","null","resources/maskTrios/L2BB.jpg","null","",NA,NA,NA,NA,""
"image-keyboard-response",550,368718,"0.0-3.179-2.179","8yx99upd28jbub7",322,"96.csv","","null","resources/images/fishbone.png","null","",NA,NA,NA,NA,""
"image-keyboard-response",551,368741,"0.0-3.180-0.180","8yx99upd28jbub7",322,"96.csv","","19.80000001192093","resources/trios/L2T1A2.jpg","38","restless",0.2,0.4,0.4,0.618247890232932,"false"
"image-keyboard-response",552,369147,"0.0-3.180-1.180","8yx99upd28jbub7",322,"96.csv","","null","resources/maskTrios/BT1B.jpg","null","",NA,NA,NA,NA,""
"image-keyboard-response",553,370351,"0.0-3.180-2.180","8yx99upd28jbub7",322,"96.csv","","null","resources/images/fishbone.png","null","",NA,NA,NA,NA,""
"image-keyboard-response",554,370370,"0.0-3.181-0.181","8yx99upd28jbub7",322,"96.csv","","16","resources/trios/L2T1A3.jpg","37","restless",0.2,0.4,0.4,0.0345635849472026,"true"
"image-keyboard-response",555,370777,"0.0-3.181-1.181","8yx99upd28jbub7",322,"96.csv","","null","resources/maskTrios/L2BB.jpg","null","",NA,NA,NA,NA,""
"image-keyboard-response",556,371984,"0.0-3.181-2.181","8yx99upd28jbub7",322,"96.csv","","null","resources/images/coin2.png","null","",NA,NA,NA,NA,""
"image-keyboard-response",557,372042,"0.0-3.182-0.182","8yx99upd28jbub7",322,"96.csv","","54.10000002384186","resources/trios/L2T2A2.jpg","39","restless",0.2,0.4,0.4,0.246346182145757,"true"
"image-keyboard-response",558,372450,"0.0-3.182-1.182","8yx99upd28jbub7",322,"96.csv","","null","resources/maskTrios/BBA2.jpg","null","",NA,NA,NA,NA,""
"image-keyboard-response",559,373654,"0.0-3.182-2.182","8yx99upd28jbub7",322,"96.csv","","null","resources/images/coin2.png","null","",NA,NA,NA,NA,""
"image-keyboard-response",560,373934,"0.0-3.183-0.183","8yx99upd28jbub7",322,"96.csv","","276.69999998807907","resources/trios/L2T1A2.jpg","37","restless",0.2,0.4,0.4,0.67928760281693,"false"
"image-keyboard-response",561,374338,"0.0-3.183-1.183","8yx99upd28jbub7",322,"96.csv","","null","resources/maskTrios/L2BB.jpg","null","",NA,NA,NA,NA,""
"image-keyboard-response",562,375541,"0.0-3.183-2.183","8yx99upd28jbub7",322,"96.csv","","null","resources/images/fishbone.png","null","",NA,NA,NA,NA,""
"image-keyboard-response",563,375635,"0.0-3.184-0.184","8yx99upd28jbub7",322,"96.csv","","90.90000000596046","resources/trios/L2T1A2.jpg","39","restless",0.2,0.4,0.4,0.230922750348524,"true"
"image-keyboard-response",564,376043,"0.0-3.184-1.184","8yx99upd28jbub7",322,"96.csv","","null","resources/maskTrios/BBA2.jpg","null","",NA,NA,NA,NA,""
"image-keyboard-response",565,377251,"0.0-3.184-2.184","8yx99upd28jbub7",322,"96.csv","","null","resources/images/coin2.png","null","",NA,NA,NA,NA,""
"image-keyboard-response",566,377383,"0.0-3.185-0.185","8yx99upd28jbub7",322,"96.csv","","130.80000001192093","resources/trios/L2T2A2.jpg","37","restless",0.2,0.4,0.5,0.171326124262532,"true"
"image-keyboard-response",567,377791,"0.0-3.185-1.185","8yx99upd28jbub7",322,"96.csv","","null","resources/maskTrios/L2BB.jpg","null","",NA,NA,NA,NA,""
"image-keyboard-response",568,378998,"0.0-3.185-2.185","8yx99upd28jbub7",322,"96.csv","","null","resources/images/coin2.png","null","",NA,NA,NA,NA,""
"image-keyboard-response",569,379181,"0.0-3.186-0.186","8yx99upd28jbub7",322,"96.csv","","179.5","resources/trios/L2T1A2.jpg","39","restless",0.2,0.4,0.5,0.741090470463577,"false"
"image-keyboard-response",570,379585,"0.0-3.186-1.186","8yx99upd28jbub7",322,"96.csv","","null","resources/maskTrios/BBA2.jpg","null","",NA,NA,NA,NA,""
"image-keyboard-response",571,380789,"0.0-3.186-2.186","8yx99upd28jbub7",322,"96.csv","","null","resources/images/fishbone.png","null","",NA,NA,NA,NA,""
"image-keyboard-response",572,380859,"0.0-3.187-0.187","8yx99upd28jbub7",322,"96.csv","","66","resources/trios/L2T1A2.jpg","39","restless",0.2,0.3,0.6,0.00367108177747877,"true"
"image-keyboard-response",573,381262,"0.0-3.187-1.187","8yx99upd28jbub7",322,"96.csv","","null","resources/maskTrios/BBA2.jpg","null","",NA,NA,NA,NA,""
"image-keyboard-response",574,382469,"0.0-3.187-2.187","8yx99upd28jbub7",322,"96.csv","","null","resources/images/coin2.png","null","",NA,NA,NA,NA,""
"image-keyboard-response",575,382636,"0.0-3.188-0.188","8yx99upd28jbub7",322,"96.csv","","163.30000001192093","resources/trios/L2T2A2.jpg","39","restless",0.2,0.3,0.6,0.836655665110072,"false"
"image-keyboard-response",576,383043,"0.0-3.188-1.188","8yx99upd28jbub7",322,"96.csv","","null","resources/maskTrios/BBA2.jpg","null","",NA,NA,NA,NA,""
"image-keyboard-response",577,384246,"0.0-3.188-2.188","8yx99upd28jbub7",322,"96.csv","","null","resources/images/fishbone.png","null","",NA,NA,NA,NA,""
"image-keyboard-response",578,384297,"0.0-3.189-0.189","8yx99upd28jbub7",322,"96.csv","","47","resources/trios/L4T1A2.jpg","38","restless",0.2,0.2,0.6,0.94172482102597,"false"
"image-keyboard-response",579,384700,"0.0-3.189-1.189","8yx99upd28jbub7",322,"96.csv","","null","resources/maskTrios/BT1B.jpg","null","",NA,NA,NA,NA,""
"image-keyboard-response",580,385902,"0.0-3.189-2.189","8yx99upd28jbub7",322,"96.csv","","null","resources/images/fishbone.png","null","",NA,NA,NA,NA,""
"image-keyboard-response",581,386014,"0.0-3.190-0.190","8yx99upd28jbub7",322,"96.csv","","108.39999997615814","resources/trios/L2T2A2.jpg","37","restless",0.2,0.2,0.6,0.522437784884699,"false"
"image-keyboard-response",582,386421,"0.0-3.190-1.190","8yx99upd28jbub7",322,"96.csv","","null","resources/maskTrios/L2BB.jpg","null","",NA,NA,NA,NA,""
"image-keyboard-response",583,387628,"0.0-3.190-2.190","8yx99upd28jbub7",322,"96.csv","","null","resources/images/fishbone.png","null","",NA,NA,NA,NA,""
"image-keyboard-response",584,387720,"0.0-3.191-0.191","8yx99upd28jbub7",322,"96.csv","","88.19999998807907","resources/trios/L2T1A2.jpg","38","restless",0.2,0.2,0.6,0.873528806463009,"false"
"image-keyboard-response",585,388128,"0.0-3.191-1.191","8yx99upd28jbub7",322,"96.csv","","null","resources/maskTrios/BT1B.jpg","null","",NA,NA,NA,NA,""
"image-keyboard-response",586,389334,"0.0-3.191-2.191","8yx99upd28jbub7",322,"96.csv","","null","resources/images/fishbone.png","null","",NA,NA,NA,NA,""
"image-keyboard-response",587,389592,"0.0-3.192-0.192","8yx99upd28jbub7",322,"96.csv","","254.2000000178814","resources/trios/L4T1A2.jpg","37","restless",0.3,0.2,0.6,0.576103596769592,"false"
"image-keyboard-response",588,389995,"0.0-3.192-1.192","8yx99upd28jbub7",322,"96.csv","","null","resources/maskTrios/L4BB.jpg","null","",NA,NA,NA,NA,""
"image-keyboard-response",589,391202,"0.0-3.192-2.192","8yx99upd28jbub7",322,"96.csv","","null","resources/images/fishbone.png","null","",NA,NA,NA,NA,""
"image-keyboard-response",590,391290,"0.0-3.193-0.193","8yx99upd28jbub7",322,"96.csv","","83.7999999821186","resources/trios/L2T2A2.jpg","38","restless",0.3,0.2,0.7,0.746308626946061,"false"
"image-keyboard-response",591,391694,"0.0-3.193-1.193","8yx99upd28jbub7",322,"96.csv","","null","resources/maskTrios/BT2B.jpg","null","",NA,NA,NA,NA,""
"image-keyboard-response",592,392898,"0.0-3.193-2.193","8yx99upd28jbub7",322,"96.csv","","null","resources/images/fishbone.png","null","",NA,NA,NA,NA,""
"image-keyboard-response",593,392924,"0.0-3.194-0.194","8yx99upd28jbub7",322,"96.csv","","22.700000017881393","resources/trios/L2T2A2.jpg","37","restless",0.3,0.2,0.7,0.451835689176578,"false"
"image-keyboard-response",594,393328,"0.0-3.194-1.194","8yx99upd28jbub7",322,"96.csv","","null","resources/maskTrios/L2BB.jpg","null","",NA,NA,NA,NA,""
"image-keyboard-response",595,394535,"0.0-3.194-2.194","8yx99upd28jbub7",322,"96.csv","","null","resources/images/fishbone.png","null","",NA,NA,NA,NA,""
"image-keyboard-response",596,394539,"0.0-3.195-0.195","8yx99upd28jbub7",322,"96.csv","","0.19999998807907104","resources/trios/L4T2A2.jpg","37","restless",0.3,0.2,0.7,0.161285564566876,"true"
"image-keyboard-response",597,394945,"0.0-3.195-1.195","8yx99upd28jbub7",322,"96.csv","","null","resources/maskTrios/L4BB.jpg","null","",NA,NA,NA,NA,""
"image-keyboard-response",598,396153,"0.0-3.195-2.195","8yx99upd28jbub7",322,"96.csv","","null","resources/images/coin2.png","null","",NA,NA,NA,NA,""
"image-keyboard-response",599,396517,"0.0-3.196-0.196","8yx99upd28jbub7",322,"96.csv","","360.59999999403954","resources/trios/L2T2A3.jpg","39","restless",0.3,0.2,0.7,0.0383487570280054,"true"
"image-keyboard-response",600,396925,"0.0-3.196-1.196","8yx99upd28jbub7",322,"96.csv","","null","resources/maskTrios/BBA3.jpg","null","",NA,NA,NA,NA,""
"image-keyboard-response",601,398128,"0.0-3.196-2.196","8yx99upd28jbub7",322,"96.csv","","null","resources/images/coin2.png","null","",NA,NA,NA,NA,""
"image-keyboard-response",602,398249,"0.0-3.197-0.197","8yx99upd28jbub7",322,"96.csv","","117.2000000178814","resources/trios/L2T2A2.jpg","37","restless",0.3,0.2,0.7,0.684215555276075,"false"
"image-keyboard-response",603,398657,"0.0-3.197-1.197","8yx99upd28jbub7",322,"96.csv","","null","resources/maskTrios/L2BB.jpg","null","",NA,NA,NA,NA,""
"image-keyboard-response",604,399860,"0.0-3.197-2.197","8yx99upd28jbub7",322,"96.csv","","null","resources/images/fishbone.png","null","",NA,NA,NA,NA,""
"image-keyboard-response",605,399950,"0.0-3.198-0.198","8yx99upd28jbub7",322,"96.csv","","86.09999999403954","resources/trios/L4T1A3.jpg","37","restless",0.3,0.2,0.7,0.861944580292469,"false"
"image-keyboard-response",606,400357,"0.0-3.198-1.198","8yx99upd28jbub7",322,"96.csv","","null","resources/maskTrios/L4BB.jpg","null","",NA,NA,NA,NA,""
"image-keyboard-response",607,401562,"0.0-3.198-2.198","8yx99upd28jbub7",322,"96.csv","","null","resources/images/fishbone.png","null","",NA,NA,NA,NA,""
"image-keyboard-response",608,401678,"0.0-3.199-0.199","8yx99upd28jbub7",322,"96.csv","","112.60000002384186","resources/trios/L4T1A2.jpg","37","restless",0.3,0.2,0.7,0.491376616674915,"false"
"image-keyboard-response",609,402085,"0.0-3.199-1.199","8yx99upd28jbub7",322,"96.csv","","null","resources/maskTrios/L4BB.jpg","null","",NA,NA,NA,NA,""
