"trial_type","trial_index","time_elapsed","internal_node_id","subject","participantCode","walkNumber","success","rt","stimulus","key_press","test_part","leftProb","midProb","rightProb","generatedNum","correct"
"pavlovia",0,1016,"0.0-0.0","jy0po99ckc5rgql",169,"197.csv","","","","","",NA,NA,NA,NA,""
"fullscreen",1,5571,"0.0-1.0","jy0po99ckc5rgql",169,"197.csv","true","","","","",NA,NA,NA,NA,""
"html-keyboard-response",2,15969,"0.0-2.0-0.0","jy0po99ckc5rgql",169,"197.csv","","10395.899999976158","<p><font size='6'>Arrrgh!</p></font><p>Can you be the best pirate? Try to find lots of gold! But beware, some islands have more gold than others, and over time, the island with the most gold may change. Can YOU figure it out? </p><font size='6'>GOOD LUCK, CAPTAIN!!!</font><p>Press any key to begin</p>","32","",NA,NA,NA,NA,""
"image-keyboard-response",3,18976,"0.0-2.0-1.0","jy0po99ckc5rgql",169,"197.csv","","null","resources/image_sets/111.png","null","",NA,NA,NA,NA,""
"image-keyboard-response",4,23781,"0.0-2.0-2.0","jy0po99ckc5rgql",169,"197.csv","","4802.399999976158","resources/image_sets/left_highlight.png","37","",NA,NA,NA,NA,""
"image-keyboard-response",5,26540,"0.0-2.0-3.0","jy0po99ckc5rgql",169,"197.csv","","2756.600000023842","resources/image_sets/mid_highlight.png","38","",NA,NA,NA,NA,""
"image-keyboard-response",6,28328,"0.0-2.0-4.0","jy0po99ckc5rgql",169,"197.csv","","1785.3999999761581","resources/image_sets/right_highlight.png","39","",NA,NA,NA,NA,""
"image-keyboard-response",7,31381,"0.0-2.0-5.0","jy0po99ckc5rgql",169,"197.csv","","3051.5","resources/image_sets/111.png","13","",NA,NA,NA,NA,""
"image-keyboard-response",8,35711,"0.0-2.0-6.0","jy0po99ckc5rgql",169,"197.csv","","4328.100000023842","resources/images/coin2.png","13","",NA,NA,NA,NA,""
"image-keyboard-response",9,37379,"0.0-2.0-7.0","jy0po99ckc5rgql",169,"197.csv","","1667.1000000238419","resources/images/fishbone.png","13","",NA,NA,NA,NA,""
"html-keyboard-response",10,63968,"0.0-2.0-8.0","jy0po99ckc5rgql",169,"197.csv","","26586.899999976158","<p>Your first journey will be a long one, but you will get a well deserved break at the end</p><p>After the break you will have four more journeys, but each will be much shorter than the first, and you will have breaks in between each</p><p>Press Enter to begin</p>","13","",NA,NA,NA,NA,""
"image-keyboard-response",11,65456,"0.0-3.0-0.0","jy0po99ckc5rgql",169,"197.csv","","1485.5","resources/trios/L2T4A2.jpg","37","restless",0.3,0.7,0.9,0.51144180242593,"false"
"image-keyboard-response",12,65865,"0.0-3.0-1.0","jy0po99ckc5rgql",169,"197.csv","","null","resources/maskTrios/L2BB.jpg","null","",NA,NA,NA,NA,""
"image-keyboard-response",13,67072,"0.0-3.0-2.0","jy0po99ckc5rgql",169,"197.csv","","null","resources/images/fishbone.png","null","",NA,NA,NA,NA,""
"image-keyboard-response",14,68062,"0.0-3.1-0.1","jy0po99ckc5rgql",169,"197.csv","","987","resources/trios/L2T1A3.jpg","39","restless",0.3,0.7,0.8,0.958881461855571,"false"
"image-keyboard-response",15,68469,"0.0-3.1-1.1","jy0po99ckc5rgql",169,"197.csv","","null","resources/maskTrios/BBA3.jpg","null","",NA,NA,NA,NA,""
"image-keyboard-response",16,69676,"0.0-3.1-2.1","jy0po99ckc5rgql",169,"197.csv","","null","resources/images/fishbone.png","null","",NA,NA,NA,NA,""
"image-keyboard-response",17,70002,"0.0-3.2-0.2","jy0po99ckc5rgql",169,"197.csv","","323.30000001192093","resources/trios/L2T4A3.jpg","38","restless",0.3,0.8,0.8,0.59441279962377,"true"
"image-keyboard-response",18,70408,"0.0-3.2-1.2","jy0po99ckc5rgql",169,"197.csv","","null","resources/maskTrios/BT4B.jpg","null","",NA,NA,NA,NA,""
"image-keyboard-response",19,71616,"0.0-3.2-2.2","jy0po99ckc5rgql",169,"197.csv","","null","resources/images/coin2.png","null","",NA,NA,NA,NA,""
"image-keyboard-response",20,73454,"0.0-3.3-0.3","jy0po99ckc5rgql",169,"197.csv","","1835.199999988079","resources/trios/L1T1A3.jpg","38","restless",0.3,0.8,0.8,0.627019581789686,"true"
"image-keyboard-response",21,73861,"0.0-3.3-1.3","jy0po99ckc5rgql",169,"197.csv","","null","resources/maskTrios/BT1B.jpg","null","",NA,NA,NA,NA,""
"image-keyboard-response",22,75064,"0.0-3.3-2.3","jy0po99ckc5rgql",169,"197.csv","","null","resources/images/coin2.png","null","",NA,NA,NA,NA,""
"image-keyboard-response",23,76197,"0.0-3.4-0.4","jy0po99ckc5rgql",169,"197.csv","","1130.300000011921","resources/trios/L2T1A2.jpg","39","restless",0.3,0.8,0.8,0.51262936800251,"true"
"image-keyboard-response",24,76604,"0.0-3.4-1.4","jy0po99ckc5rgql",169,"197.csv","","null","resources/maskTrios/BBA2.jpg","null","",NA,NA,NA,NA,""
"image-keyboard-response",25,77811,"0.0-3.4-2.4","jy0po99ckc5rgql",169,"197.csv","","null","resources/images/coin2.png","null","",NA,NA,NA,NA,""
"image-keyboard-response",26,78511,"0.0-3.5-0.5","jy0po99ckc5rgql",169,"197.csv","","698","resources/trios/L2T1A2.jpg","39","restless",0.3,0.7,0.8,0.265931745097304,"true"
"image-keyboard-response",27,78919,"0.0-3.5-1.5","jy0po99ckc5rgql",169,"197.csv","","null","resources/maskTrios/BBA2.jpg","null","",NA,NA,NA,NA,""
"image-keyboard-response",28,80122,"0.0-3.5-2.5","jy0po99ckc5rgql",169,"197.csv","","null","resources/images/coin2.png","null","",NA,NA,NA,NA,""
"image-keyboard-response",29,80818,"0.0-3.6-0.6","jy0po99ckc5rgql",169,"197.csv","","694.8000000119209","resources/trios/L1T1A3.jpg","39","restless",0.3,0.7,0.8,0.852624035500398,"false"
"image-keyboard-response",30,81225,"0.0-3.6-1.6","jy0po99ckc5rgql",169,"197.csv","","null","resources/maskTrios/BBA3.jpg","null","",NA,NA,NA,NA,""
"image-keyboard-response",31,82432,"0.0-3.6-2.6","jy0po99ckc5rgql",169,"197.csv","","null","resources/images/fishbone.png","null","",NA,NA,NA,NA,""
"image-keyboard-response",32,83019,"0.0-3.7-0.7","jy0po99ckc5rgql",169,"197.csv","","585.2999999523163","resources/trios/L1T1A2.jpg","37","restless",0.2,0.7,0.8,0.735725649174774,"false"
"image-keyboard-response",33,83426,"0.0-3.7-1.7","jy0po99ckc5rgql",169,"197.csv","","null","resources/maskTrios/L1BB.jpg","null","",NA,NA,NA,NA,""
"image-keyboard-response",34,84628,"0.0-3.7-2.7","jy0po99ckc5rgql",169,"197.csv","","null","resources/images/fishbone.png","null","",NA,NA,NA,NA,""
"image-keyboard-response",35,84922,"0.0-3.8-0.8","jy0po99ckc5rgql",169,"197.csv","","292","resources/trios/L1T1A2.jpg","38","restless",0.2,0.7,0.8,0.911012548507018,"false"
"image-keyboard-response",36,85328,"0.0-3.8-1.8","jy0po99ckc5rgql",169,"197.csv","","null","resources/maskTrios/BT1B.jpg","null","",NA,NA,NA,NA,""
"image-keyboard-response",37,86534,"0.0-3.8-2.8","jy0po99ckc5rgql",169,"197.csv","","null","resources/images/fishbone.png","null","",NA,NA,NA,NA,""
"image-keyboard-response",38,87009,"0.0-3.9-0.9","jy0po99ckc5rgql",169,"197.csv","","472.5","resources/trios/L1T1A3.jpg","39","restless",0.2,0.7,0.8,0.796963268805277,"true"
"image-keyboard-response",39,87415,"0.0-3.9-1.9","jy0po99ckc5rgql",169,"197.csv","","null","resources/maskTrios/BBA3.jpg","null","",NA,NA,NA,NA,""
"image-keyboard-response",40,88621,"0.0-3.9-2.9","jy0po99ckc5rgql",169,"197.csv","","null","resources/images/coin2.png","null","",NA,NA,NA,NA,""
"image-keyboard-response",41,89089,"0.0-3.10-0.10","jy0po99ckc5rgql",169,"197.csv","","465.69999998807907","resources/trios/L2T4A3.jpg","39","restless",0.2,0.7,0.8,0.0426345198891351,"true"
"image-keyboard-response",42,89495,"0.0-3.10-1.10","jy0po99ckc5rgql",169,"197.csv","","null","resources/maskTrios/BBA3.jpg","null","",NA,NA,NA,NA,""
"image-keyboard-response",43,90702,"0.0-3.10-2.10","jy0po99ckc5rgql",169,"197.csv","","null","resources/images/coin2.png","null","",NA,NA,NA,NA,""
"image-keyboard-response",44,92603,"0.0-3.11-0.11","jy0po99ckc5rgql",169,"197.csv","","1899","resources/trios/L1T4A3.jpg","37","restless",0.1,0.7,0.8,0.568392946002142,"false"
"image-keyboard-response",45,93010,"0.0-3.11-1.11","jy0po99ckc5rgql",169,"197.csv","","null","resources/maskTrios/L1BB.jpg","null","",NA,NA,NA,NA,""
"image-keyboard-response",46,94213,"0.0-3.11-2.11","jy0po99ckc5rgql",169,"197.csv","","null","resources/images/fishbone.png","null","",NA,NA,NA,NA,""
"image-keyboard-response",47,94541,"0.0-3.12-0.12","jy0po99ckc5rgql",169,"197.csv","","326.0999999642372","resources/trios/L2T1A3.jpg","39","restless",0.1,0.7,0.8,0.547458863281508,"true"
"image-keyboard-response",48,94948,"0.0-3.12-1.12","jy0po99ckc5rgql",169,"197.csv","","null","resources/maskTrios/BBA3.jpg","null","",NA,NA,NA,NA,""
"image-keyboard-response",49,96152,"0.0-3.12-2.12","jy0po99ckc5rgql",169,"197.csv","","null","resources/images/coin2.png","null","",NA,NA,NA,NA,""
"image-keyboard-response",50,96504,"0.0-3.13-0.13","jy0po99ckc5rgql",169,"197.csv","","350.89999997615814","resources/trios/L1T1A2.jpg","39","restless",0.1,0.7,0.8,0.829357529572456,"false"
"image-keyboard-response",51,96911,"0.0-3.13-1.13","jy0po99ckc5rgql",169,"197.csv","","null","resources/maskTrios/BBA2.jpg","null","",NA,NA,NA,NA,""
"image-keyboard-response",52,98118,"0.0-3.13-2.13","jy0po99ckc5rgql",169,"197.csv","","null","resources/images/fishbone.png","null","",NA,NA,NA,NA,""
"image-keyboard-response",53,98398,"0.0-3.14-0.14","jy0po99ckc5rgql",169,"197.csv","","278.5","resources/trios/L2T1A3.jpg","38","restless",0.1,0.7,0.8,0.916073079674145,"false"
"image-keyboard-response",54,98801,"0.0-3.14-1.14","jy0po99ckc5rgql",169,"197.csv","","null","resources/maskTrios/BT1B.jpg","null","",NA,NA,NA,NA,""
"image-keyboard-response",55,100007,"0.0-3.14-2.14","jy0po99ckc5rgql",169,"197.csv","","null","resources/images/fishbone.png","null","",NA,NA,NA,NA,""
"image-keyboard-response",56,100216,"0.0-3.15-0.15","jy0po99ckc5rgql",169,"197.csv","","207.60000002384186","resources/trios/L2T4A3.jpg","39","restless",0.1,0.7,0.8,0.956100891381445,"false"
"image-keyboard-response",57,100623,"0.0-3.15-1.15","jy0po99ckc5rgql",169,"197.csv","","null","resources/maskTrios/BBA3.jpg","null","",NA,NA,NA,NA,""
"image-keyboard-response",58,101829,"0.0-3.15-2.15","jy0po99ckc5rgql",169,"197.csv","","null","resources/images/fishbone.png","null","",NA,NA,NA,NA,""
"image-keyboard-response",59,102074,"0.0-3.16-0.16","jy0po99ckc5rgql",169,"197.csv","","243.5","resources/trios/L1T4A3.jpg","37","restless",0.1,0.7,0.8,0.565104901270517,"false"
"image-keyboard-response",60,102481,"0.0-3.16-1.16","jy0po99ckc5rgql",169,"197.csv","","null","resources/maskTrios/L1BB.jpg","null","",NA,NA,NA,NA,""
"image-keyboard-response",61,103683,"0.0-3.16-2.16","jy0po99ckc5rgql",169,"197.csv","","null","resources/images/fishbone.png","null","",NA,NA,NA,NA,""
"image-keyboard-response",62,104001,"0.0-3.17-0.17","jy0po99ckc5rgql",169,"197.csv","","316.4000000357628","resources/trios/L2T4A2.jpg","38","restless",0.1,0.7,0.8,0.14417267111763,"true"
"image-keyboard-response",63,104405,"0.0-3.17-1.17","jy0po99ckc5rgql",169,"197.csv","","null","resources/maskTrios/BT4B.jpg","null","",NA,NA,NA,NA,""
"image-keyboard-response",64,105612,"0.0-3.17-2.17","jy0po99ckc5rgql",169,"197.csv","","null","resources/images/coin2.png","null","",NA,NA,NA,NA,""
"image-keyboard-response",65,106096,"0.0-3.18-0.18","jy0po99ckc5rgql",169,"197.csv","","482.30000001192093","resources/trios/L1T4A2.jpg","38","restless",0.1,0.6,0.8,0.671291904811167,"false"
"image-keyboard-response",66,106500,"0.0-3.18-1.18","jy0po99ckc5rgql",169,"197.csv","","null","resources/maskTrios/BT4B.jpg","null","",NA,NA,NA,NA,""
"image-keyboard-response",67,107704,"0.0-3.18-2.18","jy0po99ckc5rgql",169,"197.csv","","null","resources/images/fishbone.png","null","",NA,NA,NA,NA,""
"image-keyboard-response",68,108053,"0.0-3.19-0.19","jy0po99ckc5rgql",169,"197.csv","","347.2999999523163","resources/trios/L2T4A3.jpg","39","restless",0.1,0.6,0.7,0.0902900943924594,"true"
"image-keyboard-response",69,108458,"0.0-3.19-1.19","jy0po99ckc5rgql",169,"197.csv","","null","resources/maskTrios/BBA3.jpg","null","",NA,NA,NA,NA,""
"image-keyboard-response",70,109662,"0.0-3.19-2.19","jy0po99ckc5rgql",169,"197.csv","","null","resources/images/coin2.png","null","",NA,NA,NA,NA,""
"image-keyboard-response",71,109987,"0.0-3.20-0.20","jy0po99ckc5rgql",169,"197.csv","","322.30000001192093","resources/trios/L2T4A3.jpg","39","restless",0.1,0.6,0.7,0.795572414674355,"false"
"image-keyboard-response",72,110394,"0.0-3.20-1.20","jy0po99ckc5rgql",169,"197.csv","","null","resources/maskTrios/BBA3.jpg","null","",NA,NA,NA,NA,""
"image-keyboard-response",73,111597,"0.0-3.20-2.20","jy0po99ckc5rgql",169,"197.csv","","null","resources/images/fishbone.png","null","",NA,NA,NA,NA,""
"image-keyboard-response",74,112026,"0.0-3.21-0.21","jy0po99ckc5rgql",169,"197.csv","","427.4000000357628","resources/trios/L2T4A3.jpg","37","restless",0.1,0.6,0.7,0.657751907577411,"false"
"image-keyboard-response",75,112430,"0.0-3.21-1.21","jy0po99ckc5rgql",169,"197.csv","","null","resources/maskTrios/L2BB.jpg","null","",NA,NA,NA,NA,""
"image-keyboard-response",76,113632,"0.0-3.21-2.21","jy0po99ckc5rgql",169,"197.csv","","null","resources/images/fishbone.png","null","",NA,NA,NA,NA,""
"image-keyboard-response",77,114984,"0.0-3.22-0.22","jy0po99ckc5rgql",169,"197.csv","","1350","resources/trios/L1T4A3.jpg","38","restless",0.1,0.6,0.7,0.534230138718287,"true"
"image-keyboard-response",78,115392,"0.0-3.22-1.22","jy0po99ckc5rgql",169,"197.csv","","null","resources/maskTrios/BT4B.jpg","null","",NA,NA,NA,NA,""
"image-keyboard-response",79,116599,"0.0-3.22-2.22","jy0po99ckc5rgql",169,"197.csv","","null","resources/images/coin2.png","null","",NA,NA,NA,NA,""
"image-keyboard-response",80,117267,"0.0-3.23-0.23","jy0po99ckc5rgql",169,"197.csv","","666.4000000357628","resources/trios/L1T1A3.jpg","38","restless",0.1,0.6,0.7,0.0248974268826314,"true"
"image-keyboard-response",81,117670,"0.0-3.23-1.23","jy0po99ckc5rgql",169,"197.csv","","null","resources/maskTrios/BT1B.jpg","null","",NA,NA,NA,NA,""
"image-keyboard-response",82,118877,"0.0-3.23-2.23","jy0po99ckc5rgql",169,"197.csv","","null","resources/images/coin2.png","null","",NA,NA,NA,NA,""
"image-keyboard-response",83,119141,"0.0-3.24-0.24","jy0po99ckc5rgql",169,"197.csv","","261.69999998807907","resources/trios/L2T1A3.jpg","38","restless",0.1,0.6,0.7,0.766781816979618,"false"
"image-keyboard-response",84,119548,"0.0-3.24-1.24","jy0po99ckc5rgql",169,"197.csv","","null","resources/maskTrios/BT1B.jpg","null","",NA,NA,NA,NA,""
"image-keyboard-response",85,120750,"0.0-3.24-2.24","jy0po99ckc5rgql",169,"197.csv","","null","resources/images/fishbone.png","null","",NA,NA,NA,NA,""
"image-keyboard-response",86,121093,"0.0-3.25-0.25","jy0po99ckc5rgql",169,"197.csv","","341.39999997615814","resources/trios/L1T1A3.jpg","39","restless",0.2,0.6,0.7,0.937066127554649,"false"
"image-keyboard-response",87,121500,"0.0-3.25-1.25","jy0po99ckc5rgql",169,"197.csv","","null","resources/maskTrios/BBA3.jpg","null","",NA,NA,NA,NA,""
"image-keyboard-response",88,122705,"0.0-3.25-2.25","jy0po99ckc5rgql",169,"197.csv","","null","resources/images/fishbone.png","null","",NA,NA,NA,NA,""
"image-keyboard-response",89,122907,"0.0-3.26-0.26","jy0po99ckc5rgql",169,"197.csv","","200","resources/trios/L2T1A2.jpg","38","restless",0.2,0.6,0.7,0.306075011595275,"true"
"image-keyboard-response",90,123314,"0.0-3.26-1.26","jy0po99ckc5rgql",169,"197.csv","","null","resources/maskTrios/BT1B.jpg","null","",NA,NA,NA,NA,""
"image-keyboard-response",91,124518,"0.0-3.26-2.26","jy0po99ckc5rgql",169,"197.csv","","null","resources/images/coin2.png","null","",NA,NA,NA,NA,""
"image-keyboard-response",92,124780,"0.0-3.27-0.27","jy0po99ckc5rgql",169,"197.csv","","260.60000002384186","resources/trios/L1T1A2.jpg","38","restless",0.2,0.6,0.7,0.89180658190656,"false"
"image-keyboard-response",93,125187,"0.0-3.27-1.27","jy0po99ckc5rgql",169,"197.csv","","null","resources/maskTrios/BT1B.jpg","null","",NA,NA,NA,NA,""
"image-keyboard-response",94,126394,"0.0-3.27-2.27","jy0po99ckc5rgql",169,"197.csv","","null","resources/images/fishbone.png","null","",NA,NA,NA,NA,""
"image-keyboard-response",95,127195,"0.0-3.28-0.28","jy0po99ckc5rgql",169,"197.csv","","800.1000000238419","resources/trios/L1T1A3.jpg","38","restless",0.2,0.6,0.7,0.49545405640169,"true"
"image-keyboard-response",96,127598,"0.0-3.28-1.28","jy0po99ckc5rgql",169,"197.csv","","null","resources/maskTrios/BT1B.jpg","null","",NA,NA,NA,NA,""
"image-keyboard-response",97,128801,"0.0-3.28-2.28","jy0po99ckc5rgql",169,"197.csv","","null","resources/images/coin2.png","null","",NA,NA,NA,NA,""
"image-keyboard-response",98,129076,"0.0-3.29-0.29","jy0po99ckc5rgql",169,"197.csv","","273.5","resources/trios/L1T1A2.jpg","38","restless",0.2,0.6,0.6,0.0293443283535328,"true"
"image-keyboard-response",99,129481,"0.0-3.29-1.29","jy0po99ckc5rgql",169,"197.csv","","null","resources/maskTrios/BT1B.jpg","null","",NA,NA,NA,NA,""
"image-keyboard-response",100,130685,"0.0-3.29-2.29","jy0po99ckc5rgql",169,"197.csv","","null","resources/images/coin2.png","null","",NA,NA,NA,NA,""
"image-keyboard-response",101,130994,"0.0-3.30-0.30","jy0po99ckc5rgql",169,"197.csv","","307","resources/trios/L2T4A2.jpg","38","restless",0.2,0.6,0.5,0.79001718404682,"false"
"image-keyboard-response",102,131401,"0.0-3.30-1.30","jy0po99ckc5rgql",169,"197.csv","","null","resources/maskTrios/BT4B.jpg","null","",NA,NA,NA,NA,""
"image-keyboard-response",103,132604,"0.0-3.30-2.30","jy0po99ckc5rgql",169,"197.csv","","null","resources/images/fishbone.png","null","",NA,NA,NA,NA,""
"image-keyboard-response",104,132929,"0.0-3.31-0.31","jy0po99ckc5rgql",169,"197.csv","","322.4000000357628","resources/trios/L2T4A3.jpg","37","restless",0.2,0.6,0.5,0.784930767362621,"false"
"image-keyboard-response",105,133336,"0.0-3.31-1.31","jy0po99ckc5rgql",169,"197.csv","","null","resources/maskTrios/L2BB.jpg","null","",NA,NA,NA,NA,""
"image-keyboard-response",106,134542,"0.0-3.31-2.31","jy0po99ckc5rgql",169,"197.csv","","null","resources/images/fishbone.png","null","",NA,NA,NA,NA,""
"image-keyboard-response",107,134777,"0.0-3.32-0.32","jy0po99ckc5rgql",169,"197.csv","","232.60000002384186","resources/trios/L2T1A3.jpg","38","restless",0.2,0.6,0.5,0.0414307206501894,"true"
"image-keyboard-response",108,135182,"0.0-3.32-1.32","jy0po99ckc5rgql",169,"197.csv","","null","resources/maskTrios/BT1B.jpg","null","",NA,NA,NA,NA,""
"image-keyboard-response",109,136385,"0.0-3.32-2.32","jy0po99ckc5rgql",169,"197.csv","","null","resources/images/coin2.png","null","",NA,NA,NA,NA,""
"image-keyboard-response",110,136682,"0.0-3.33-0.33","jy0po99ckc5rgql",169,"197.csv","","294.89999997615814","resources/trios/L1T1A3.jpg","38","restless",0.2,0.5,0.5,0.685372937957154,"false"
"image-keyboard-response",111,137086,"0.0-3.33-1.33","jy0po99ckc5rgql",169,"197.csv","","null","resources/maskTrios/BT1B.jpg","null","",NA,NA,NA,NA,""
"image-keyboard-response",112,138292,"0.0-3.33-2.33","jy0po99ckc5rgql",169,"197.csv","","null","resources/images/fishbone.png","null","",NA,NA,NA,NA,""
"image-keyboard-response",113,138523,"0.0-3.34-0.34","jy0po99ckc5rgql",169,"197.csv","","228.9000000357628","resources/trios/L1T4A3.jpg","38","restless",0.2,0.5,0.5,0.812274749457502,"false"
"image-keyboard-response",114,138930,"0.0-3.34-1.34","jy0po99ckc5rgql",169,"197.csv","","null","resources/maskTrios/BT4B.jpg","null","",NA,NA,NA,NA,""
"image-keyboard-response",115,140135,"0.0-3.34-2.34","jy0po99ckc5rgql",169,"197.csv","","null","resources/images/fishbone.png","null","",NA,NA,NA,NA,""
"image-keyboard-response",116,140380,"0.0-3.35-0.35","jy0po99ckc5rgql",169,"197.csv","","243.89999997615814","resources/trios/L1T4A3.jpg","39","restless",0.2,0.5,0.4,0.919167891259624,"false"
"image-keyboard-response",117,140783,"0.0-3.35-1.35","jy0po99ckc5rgql",169,"197.csv","","null","resources/maskTrios/BBA3.jpg","null","",NA,NA,NA,NA,""
"image-keyboard-response",118,141988,"0.0-3.35-2.35","jy0po99ckc5rgql",169,"197.csv","","null","resources/images/fishbone.png","null","",NA,NA,NA,NA,""
"image-keyboard-response",119,142238,"0.0-3.36-0.36","jy0po99ckc5rgql",169,"197.csv","","247.9000000357628","resources/trios/L1T4A3.jpg","38","restless",0.2,0.5,0.4,0.28817233411223,"true"
"image-keyboard-response",120,142645,"0.0-3.36-1.36","jy0po99ckc5rgql",169,"197.csv","","null","resources/maskTrios/BT4B.jpg","null","",NA,NA,NA,NA,""
"image-keyboard-response",121,143847,"0.0-3.36-2.36","jy0po99ckc5rgql",169,"197.csv","","null","resources/images/coin2.png","null","",NA,NA,NA,NA,""
"image-keyboard-response",122,144118,"0.0-3.37-0.37","jy0po99ckc5rgql",169,"197.csv","","268.89999997615814","resources/trios/L2T4A2.jpg","38","restless",0.2,0.5,0.4,0.424717128763628,"true"
"image-keyboard-response",123,144525,"0.0-3.37-1.37","jy0po99ckc5rgql",169,"197.csv","","null","resources/maskTrios/BT4B.jpg","null","",NA,NA,NA,NA,""
"image-keyboard-response",124,145727,"0.0-3.37-2.37","jy0po99ckc5rgql",169,"197.csv","","null","resources/images/coin2.png","null","",NA,NA,NA,NA,""
"image-keyboard-response",125,146605,"0.0-3.38-0.38","jy0po99ckc5rgql",169,"197.csv","","876.1999999880791","resources/trios/L1T1A2.jpg","37","restless",0.2,0.5,0.4,0.150855321014155,"true"
"image-keyboard-response",126,147011,"0.0-3.38-1.38","jy0po99ckc5rgql",169,"197.csv","","null","resources/maskTrios/L1BB.jpg","null","",NA,NA,NA,NA,""
"image-keyboard-response",127,148218,"0.0-3.38-2.38","jy0po99ckc5rgql",169,"197.csv","","null","resources/images/coin2.png","null","",NA,NA,NA,NA,""
"image-keyboard-response",128,148433,"0.0-3.39-0.39","jy0po99ckc5rgql",169,"197.csv","","214.19999998807907","resources/trios/L2T4A2.jpg","38","restless",0.2,0.5,0.4,0.38585758182217,"true"
"image-keyboard-response",129,148840,"0.0-3.39-1.39","jy0po99ckc5rgql",169,"197.csv","","null","resources/maskTrios/BT4B.jpg","null","",NA,NA,NA,NA,""
"image-keyboard-response",130,150047,"0.0-3.39-2.39","jy0po99ckc5rgql",169,"197.csv","","null","resources/images/coin2.png","null","",NA,NA,NA,NA,""
"image-keyboard-response",131,150283,"0.0-3.40-0.40","jy0po99ckc5rgql",169,"197.csv","","234.5","resources/trios/L1T4A2.jpg","37","restless",0.2,0.5,0.3,0.0409734618836104,"true"
"image-keyboard-response",132,150687,"0.0-3.40-1.40","jy0po99ckc5rgql",169,"197.csv","","null","resources/maskTrios/L1BB.jpg","null","",NA,NA,NA,NA,""
"image-keyboard-response",133,151894,"0.0-3.40-2.40","jy0po99ckc5rgql",169,"197.csv","","null","resources/images/coin2.png","null","",NA,NA,NA,NA,""
"image-keyboard-response",134,152152,"0.0-3.41-0.41","jy0po99ckc5rgql",169,"197.csv","","256.60000002384186","resources/trios/L2T4A3.jpg","39","restless",0.2,0.5,0.3,0.243176179641857,"true"
"image-keyboard-response",135,152559,"0.0-3.41-1.41","jy0po99ckc5rgql",169,"197.csv","","null","resources/maskTrios/BBA3.jpg","null","",NA,NA,NA,NA,""
"image-keyboard-response",136,153764,"0.0-3.41-2.41","jy0po99ckc5rgql",169,"197.csv","","null","resources/images/coin2.png","null","",NA,NA,NA,NA,""
"image-keyboard-response",137,154047,"0.0-3.42-0.42","jy0po99ckc5rgql",169,"197.csv","","280.9000000357628","resources/trios/L2T4A2.jpg","38","restless",0.2,0.5,0.3,0.0317038936121663,"true"
"image-keyboard-response",138,154453,"0.0-3.42-1.42","jy0po99ckc5rgql",169,"197.csv","","null","resources/maskTrios/BT4B.jpg","null","",NA,NA,NA,NA,""
"image-keyboard-response",139,155655,"0.0-3.42-2.42","jy0po99ckc5rgql",169,"197.csv","","null","resources/images/coin2.png","null","",NA,NA,NA,NA,""
"image-keyboard-response",140,156436,"0.0-3.43-0.43","jy0po99ckc5rgql",169,"197.csv","","779.3000000119209","resources/trios/L1T1A2.jpg","39","restless",0.2,0.4,0.3,0.968690579371553,"false"
"image-keyboard-response",141,156843,"0.0-3.43-1.43","jy0po99ckc5rgql",169,"197.csv","","null","resources/maskTrios/BBA2.jpg","null","",NA,NA,NA,NA,""
"image-keyboard-response",142,158048,"0.0-3.43-2.43","jy0po99ckc5rgql",169,"197.csv","","null","resources/images/fishbone.png","null","",NA,NA,NA,NA,""
"image-keyboard-response",143,158178,"0.0-3.44-0.44","jy0po99ckc5rgql",169,"197.csv","","126.60000002384186","resources/trios/L1T1A3.jpg","38","restless",0.2,0.4,0.3,0.972173853133939,"false"
"image-keyboard-response",144,158582,"0.0-3.44-1.44","jy0po99ckc5rgql",169,"197.csv","","null","resources/maskTrios/BT1B.jpg","null","",NA,NA,NA,NA,""
"image-keyboard-response",145,159788,"0.0-3.44-2.44","jy0po99ckc5rgql",169,"197.csv","","null","resources/images/fishbone.png","null","",NA,NA,NA,NA,""
"image-keyboard-response",146,160697,"0.0-3.45-0.45","jy0po99ckc5rgql",169,"197.csv","","906.3000000119209","resources/trios/L1T1A2.jpg","37","restless",0.2,0.4,0.3,0.743268160486735,"false"
"image-keyboard-response",147,161101,"0.0-3.45-1.45","jy0po99ckc5rgql",169,"197.csv","","null","resources/maskTrios/L1BB.jpg","null","",NA,NA,NA,NA,""
"image-keyboard-response",148,162303,"0.0-3.45-2.45","jy0po99ckc5rgql",169,"197.csv","","null","resources/images/fishbone.png","null","",NA,NA,NA,NA,""
"image-keyboard-response",149,162579,"0.0-3.46-0.46","jy0po99ckc5rgql",169,"197.csv","","273.4000000357628","resources/trios/L2T4A3.jpg","38","restless",0.2,0.4,0.3,0.0725364879252417,"true"
"image-keyboard-response",150,162983,"0.0-3.46-1.46","jy0po99ckc5rgql",169,"197.csv","","null","resources/maskTrios/BT4B.jpg","null","",NA,NA,NA,NA,""
"image-keyboard-response",151,164187,"0.0-3.46-2.46","jy0po99ckc5rgql",169,"197.csv","","null","resources/images/coin2.png","null","",NA,NA,NA,NA,""
"image-keyboard-response",152,164578,"0.0-3.47-0.47","jy0po99ckc5rgql",169,"197.csv","","388.4000000357628","resources/trios/L2T1A3.jpg","38","restless",0.2,0.4,0.2,0.632192190091797,"false"
"image-keyboard-response",153,164985,"0.0-3.47-1.47","jy0po99ckc5rgql",169,"197.csv","","null","resources/maskTrios/BT1B.jpg","null","",NA,NA,NA,NA,""
"image-keyboard-response",154,166191,"0.0-3.47-2.47","jy0po99ckc5rgql",169,"197.csv","","null","resources/images/fishbone.png","null","",NA,NA,NA,NA,""
"image-keyboard-response",155,166498,"0.0-3.48-0.48","jy0po99ckc5rgql",169,"197.csv","","305","resources/trios/L1T4A2.jpg","39","restless",0.3,0.4,0.2,0.185882772637212,"true"
"image-keyboard-response",156,166905,"0.0-3.48-1.48","jy0po99ckc5rgql",169,"197.csv","","null","resources/maskTrios/BBA2.jpg","null","",NA,NA,NA,NA,""
"image-keyboard-response",157,168112,"0.0-3.48-2.48","jy0po99ckc5rgql",169,"197.csv","","null","resources/images/coin2.png","null","",NA,NA,NA,NA,""
"image-keyboard-response",158,168731,"0.0-3.49-0.49","jy0po99ckc5rgql",169,"197.csv","","617.5","resources/trios/L2T1A3.jpg","37","restless",0.3,0.4,0.2,0.0531882011185723,"true"
"image-keyboard-response",159,169136,"0.0-3.49-1.49","jy0po99ckc5rgql",169,"197.csv","","null","resources/maskTrios/L2BB.jpg","null","",NA,NA,NA,NA,""
"image-keyboard-response",160,170339,"0.0-3.49-2.49","jy0po99ckc5rgql",169,"197.csv","","null","resources/images/coin2.png","null","",NA,NA,NA,NA,""
"image-keyboard-response",161,170755,"0.0-3.50-0.50","jy0po99ckc5rgql",169,"197.csv","","414.30000001192093","resources/trios/L1T4A2.jpg","37","restless",0.3,0.4,0.2,0.941640707477588,"false"
"image-keyboard-response",162,171162,"0.0-3.50-1.50","jy0po99ckc5rgql",169,"197.csv","","null","resources/maskTrios/L1BB.jpg","null","",NA,NA,NA,NA,""
"image-keyboard-response",163,172367,"0.0-3.50-2.50","jy0po99ckc5rgql",169,"197.csv","","null","resources/images/fishbone.png","null","",NA,NA,NA,NA,""
"image-keyboard-response",164,172618,"0.0-3.51-0.51","jy0po99ckc5rgql",169,"197.csv","","250","resources/trios/L2T1A2.jpg","38","restless",0.2,0.4,0.2,0.609811844416405,"false"
"image-keyboard-response",165,173025,"0.0-3.51-1.51","jy0po99ckc5rgql",169,"197.csv","","null","resources/maskTrios/BT1B.jpg","null","",NA,NA,NA,NA,""
"image-keyboard-response",166,174229,"0.0-3.51-2.51","jy0po99ckc5rgql",169,"197.csv","","null","resources/images/fishbone.png","null","",NA,NA,NA,NA,""
"image-keyboard-response",167,174732,"0.0-3.52-0.52","jy0po99ckc5rgql",169,"197.csv","","502","resources/trios/L2T1A3.jpg","39","restless",0.2,0.4,0.2,0.592202193631641,"false"
"image-keyboard-response",168,175139,"0.0-3.52-1.52","jy0po99ckc5rgql",169,"197.csv","","null","resources/maskTrios/BBA3.jpg","null","",NA,NA,NA,NA,""
"image-keyboard-response",169,176345,"0.0-3.52-2.52","jy0po99ckc5rgql",169,"197.csv","","null","resources/images/fishbone.png","null","",NA,NA,NA,NA,""
"image-keyboard-response",170,176600,"0.0-3.53-0.53","jy0po99ckc5rgql",169,"197.csv","","253.30000001192093","resources/trios/L1T1A2.jpg","38","restless",0.2,0.4,0.2,0.287325232470201,"true"
"image-keyboard-response",171,177007,"0.0-3.53-1.53","jy0po99ckc5rgql",169,"197.csv","","null","resources/maskTrios/BT1B.jpg","null","",NA,NA,NA,NA,""
"image-keyboard-response",172,178214,"0.0-3.53-2.53","jy0po99ckc5rgql",169,"197.csv","","null","resources/images/coin2.png","null","",NA,NA,NA,NA,""
"image-keyboard-response",173,178684,"0.0-3.54-0.54","jy0po99ckc5rgql",169,"197.csv","","469.39999997615814","resources/trios/L1T4A3.jpg","38","restless",0.2,0.4,0.2,0.785307472568088,"false"
"image-keyboard-response",174,179091,"0.0-3.54-1.54","jy0po99ckc5rgql",169,"197.csv","","null","resources/maskTrios/BT4B.jpg","null","",NA,NA,NA,NA,""
"image-keyboard-response",175,180297,"0.0-3.54-2.54","jy0po99ckc5rgql",169,"197.csv","","null","resources/images/fishbone.png","null","",NA,NA,NA,NA,""
"image-keyboard-response",176,182792,"0.0-3.55-0.55","jy0po99ckc5rgql",169,"197.csv","","2493.400000035763","resources/trios/L1T4A2.jpg","38","restless",0.2,0.4,0.2,0.840160159079392,"false"
"image-keyboard-response",177,183199,"0.0-3.55-1.55","jy0po99ckc5rgql",169,"197.csv","","null","resources/maskTrios/BT4B.jpg","null","",NA,NA,NA,NA,""
"image-keyboard-response",178,184401,"0.0-3.55-2.55","jy0po99ckc5rgql",169,"197.csv","","null","resources/images/fishbone.png","null","",NA,NA,NA,NA,""
"image-keyboard-response",179,185027,"0.0-3.56-0.56","jy0po99ckc5rgql",169,"197.csv","","624.6000000238419","resources/trios/L2T1A2.jpg","37","restless",0.2,0.4,0.3,0.0651254923681002,"true"
"image-keyboard-response",180,185431,"0.0-3.56-1.56","jy0po99ckc5rgql",169,"197.csv","","null","resources/maskTrios/L2BB.jpg","null","",NA,NA,NA,NA,""
"image-keyboard-response",181,186638,"0.0-3.56-2.56","jy0po99ckc5rgql",169,"197.csv","","null","resources/images/coin2.png","null","",NA,NA,NA,NA,""
"image-keyboard-response",182,187290,"0.0-3.57-0.57","jy0po99ckc5rgql",169,"197.csv","","650.4000000357628","resources/trios/L1T4A3.jpg","37","restless",0.2,0.4,0.3,0.923067560080055,"false"
"image-keyboard-response",183,187697,"0.0-3.57-1.57","jy0po99ckc5rgql",169,"197.csv","","null","resources/maskTrios/L1BB.jpg","null","",NA,NA,NA,NA,""
"image-keyboard-response",184,188899,"0.0-3.57-2.57","jy0po99ckc5rgql",169,"197.csv","","null","resources/images/fishbone.png","null","",NA,NA,NA,NA,""
"image-keyboard-response",185,189242,"0.0-3.58-0.58","jy0po99ckc5rgql",169,"197.csv","","341.39999997615814","resources/trios/L2T4A3.jpg","38","restless",0.2,0.4,0.3,0.844651777757406,"false"
"image-keyboard-response",186,189649,"0.0-3.58-1.58","jy0po99ckc5rgql",169,"197.csv","","null","resources/maskTrios/BT4B.jpg","null","",NA,NA,NA,NA,""
"image-keyboard-response",187,190855,"0.0-3.58-2.58","jy0po99ckc5rgql",169,"197.csv","","null","resources/images/fishbone.png","null","",NA,NA,NA,NA,""
"image-keyboard-response",188,191104,"0.0-3.59-0.59","jy0po99ckc5rgql",169,"197.csv","","247.80000001192093","resources/trios/L2T4A2.jpg","38","restless",0.2,0.4,0.3,0.577739356490944,"false"
"image-keyboard-response",189,191506,"0.0-3.59-1.59","jy0po99ckc5rgql",169,"197.csv","","null","resources/maskTrios/BT4B.jpg","null","",NA,NA,NA,NA,""
"image-keyboard-response",190,192711,"0.0-3.59-2.59","jy0po99ckc5rgql",169,"197.csv","","null","resources/images/fishbone.png","null","",NA,NA,NA,NA,""
"image-keyboard-response",191,192989,"0.0-3.60-0.60","jy0po99ckc5rgql",169,"197.csv","","276.2999999523163","resources/trios/L2T1A2.jpg","38","restless",0.2,0.5,0.3,0.532142391423963,"false"
"image-keyboard-response",192,193396,"0.0-3.60-1.60","jy0po99ckc5rgql",169,"197.csv","","null","resources/maskTrios/BT1B.jpg","null","",NA,NA,NA,NA,""
"image-keyboard-response",193,194599,"0.0-3.60-2.60","jy0po99ckc5rgql",169,"197.csv","","null","resources/images/fishbone.png","null","",NA,NA,NA,NA,""
"image-keyboard-response",194,194748,"0.0-3.61-0.61","jy0po99ckc5rgql",169,"197.csv","","147.5","resources/trios/L1T4A3.jpg","38","restless",0.2,0.6,0.4,0.668814204448901,"false"
"image-keyboard-response",195,195154,"0.0-3.61-1.61","jy0po99ckc5rgql",169,"197.csv","","null","resources/maskTrios/BT4B.jpg","null","",NA,NA,NA,NA,""
"image-keyboard-response",196,196360,"0.0-3.61-2.61","jy0po99ckc5rgql",169,"197.csv","","null","resources/images/fishbone.png","null","",NA,NA,NA,NA,""
"image-keyboard-response",197,196717,"0.0-3.62-0.62","jy0po99ckc5rgql",169,"197.csv","","354.30000001192093","resources/trios/L2T1A3.jpg","39","restless",0.2,0.7,0.4,0.527600287613196,"false"
"image-keyboard-response",198,197120,"0.0-3.62-1.62","jy0po99ckc5rgql",169,"197.csv","","null","resources/maskTrios/BBA3.jpg","null","",NA,NA,NA,NA,""
"image-keyboard-response",199,198325,"0.0-3.62-2.62","jy0po99ckc5rgql",169,"197.csv","","null","resources/images/fishbone.png","null","",NA,NA,NA,NA,""
"image-keyboard-response",200,198576,"0.0-3.63-0.63","jy0po99ckc5rgql",169,"197.csv","","249.5","resources/trios/L2T4A2.jpg","37","restless",0.3,0.7,0.3,0.191826228058052,"true"
"image-keyboard-response",201,198982,"0.0-3.63-1.63","jy0po99ckc5rgql",169,"197.csv","","null","resources/maskTrios/L2BB.jpg","null","",NA,NA,NA,NA,""
"image-keyboard-response",202,200186,"0.0-3.63-2.63","jy0po99ckc5rgql",169,"197.csv","","null","resources/images/coin2.png","null","",NA,NA,NA,NA,""
"image-keyboard-response",203,200543,"0.0-3.64-0.64","jy0po99ckc5rgql",169,"197.csv","","356.39999997615814","resources/trios/L2T1A3.jpg","37","restless",0.3,0.7,0.3,0.836625832578581,"false"
"image-keyboard-response",204,200946,"0.0-3.64-1.64","jy0po99ckc5rgql",169,"197.csv","","null","resources/maskTrios/L2BB.jpg","null","",NA,NA,NA,NA,""
"image-keyboard-response",205,202153,"0.0-3.64-2.64","jy0po99ckc5rgql",169,"197.csv","","null","resources/images/fishbone.png","null","",NA,NA,NA,NA,""
"image-keyboard-response",206,202444,"0.0-3.65-0.65","jy0po99ckc5rgql",169,"197.csv","","289.39999997615814","resources/trios/L1T4A2.jpg","38","restless",0.3,0.7,0.3,0.662462508634277,"true"
"image-keyboard-response",207,202850,"0.0-3.65-1.65","jy0po99ckc5rgql",169,"197.csv","","null","resources/maskTrios/BT4B.jpg","null","",NA,NA,NA,NA,""
"image-keyboard-response",208,204055,"0.0-3.65-2.65","jy0po99ckc5rgql",169,"197.csv","","null","resources/images/coin2.png","null","",NA,NA,NA,NA,""
"image-keyboard-response",209,204461,"0.0-3.66-0.66","jy0po99ckc5rgql",169,"197.csv","","404.9000000357628","resources/trios/L1T1A2.jpg","38","restless",0.3,0.7,0.3,0.176648841689693,"true"
"image-keyboard-response",210,204868,"0.0-3.66-1.66","jy0po99ckc5rgql",169,"197.csv","","null","resources/maskTrios/BT1B.jpg","null","",NA,NA,NA,NA,""
"image-keyboard-response",211,206070,"0.0-3.66-2.66","jy0po99ckc5rgql",169,"197.csv","","null","resources/images/coin2.png","null","",NA,NA,NA,NA,""
"image-keyboard-response",212,206407,"0.0-3.67-0.67","jy0po99ckc5rgql",169,"197.csv","","334.80000001192093","resources/trios/L1T1A3.jpg","38","restless",0.3,0.7,0.3,0.2274027225661,"true"
"image-keyboard-response",213,206814,"0.0-3.67-1.67","jy0po99ckc5rgql",169,"197.csv","","null","resources/maskTrios/BT1B.jpg","null","",NA,NA,NA,NA,""
"image-keyboard-response",214,208021,"0.0-3.67-2.67","jy0po99ckc5rgql",169,"197.csv","","null","resources/images/coin2.png","null","",NA,NA,NA,NA,""
"image-keyboard-response",215,208357,"0.0-3.68-0.68","jy0po99ckc5rgql",169,"197.csv","","335","resources/trios/L1T1A3.jpg","38","restless",0.3,0.7,0.3,0.974998664254792,"false"
"image-keyboard-response",216,208762,"0.0-3.68-1.68","jy0po99ckc5rgql",169,"197.csv","","null","resources/maskTrios/BT1B.jpg","null","",NA,NA,NA,NA,""
"image-keyboard-response",217,209968,"0.0-3.68-2.68","jy0po99ckc5rgql",169,"197.csv","","null","resources/images/fishbone.png","null","",NA,NA,NA,NA,""
"image-keyboard-response",218,210429,"0.0-3.69-0.69","jy0po99ckc5rgql",169,"197.csv","","458.80000001192093","resources/trios/L2T1A2.jpg","39","restless",0.3,0.7,0.4,0.185194159049789,"true"
"image-keyboard-response",219,210833,"0.0-3.69-1.69","jy0po99ckc5rgql",169,"197.csv","","null","resources/maskTrios/BBA2.jpg","null","",NA,NA,NA,NA,""
"image-keyboard-response",220,212036,"0.0-3.69-2.69","jy0po99ckc5rgql",169,"197.csv","","null","resources/images/coin2.png","null","",NA,NA,NA,NA,""
"image-keyboard-response",221,212424,"0.0-3.70-0.70","jy0po99ckc5rgql",169,"197.csv","","386.10000002384186","resources/trios/L1T1A3.jpg","39","restless",0.4,0.7,0.4,0.4931118604637,"false"
"image-keyboard-response",222,212831,"0.0-3.70-1.70","jy0po99ckc5rgql",169,"197.csv","","null","resources/maskTrios/BBA3.jpg","null","",NA,NA,NA,NA,""
"image-keyboard-response",223,214038,"0.0-3.70-2.70","jy0po99ckc5rgql",169,"197.csv","","null","resources/images/fishbone.png","null","",NA,NA,NA,NA,""
"image-keyboard-response",224,214240,"0.0-3.71-0.71","jy0po99ckc5rgql",169,"197.csv","","201","resources/trios/L1T1A2.jpg","38","restless",0.4,0.7,0.4,0.749210208334855,"false"
"image-keyboard-response",225,214645,"0.0-3.71-1.71","jy0po99ckc5rgql",169,"197.csv","","null","resources/maskTrios/BT1B.jpg","null","",NA,NA,NA,NA,""
"image-keyboard-response",226,215852,"0.0-3.71-2.71","jy0po99ckc5rgql",169,"197.csv","","null","resources/images/fishbone.png","null","",NA,NA,NA,NA,""
"image-keyboard-response",227,216115,"0.0-3.72-0.72","jy0po99ckc5rgql",169,"197.csv","","261.60000002384186","resources/trios/L2T1A2.jpg","38","restless",0.4,0.7,0.4,0.506459805327419,"true"
"image-keyboard-response",228,216522,"0.0-3.72-1.72","jy0po99ckc5rgql",169,"197.csv","","null","resources/maskTrios/BT1B.jpg","null","",NA,NA,NA,NA,""
"image-keyboard-response",229,217728,"0.0-3.72-2.72","jy0po99ckc5rgql",169,"197.csv","","null","resources/images/coin2.png","null","",NA,NA,NA,NA,""
"image-keyboard-response",230,218007,"0.0-3.73-0.73","jy0po99ckc5rgql",169,"197.csv","","277.30000001192093","resources/trios/L2T4A2.jpg","37","restless",0.4,0.7,0.4,0.802104234369898,"false"
"image-keyboard-response",231,218410,"0.0-3.73-1.73","jy0po99ckc5rgql",169,"197.csv","","null","resources/maskTrios/L2BB.jpg","null","",NA,NA,NA,NA,""
"image-keyboard-response",232,219612,"0.0-3.73-2.73","jy0po99ckc5rgql",169,"197.csv","","null","resources/images/fishbone.png","null","",NA,NA,NA,NA,""
"image-keyboard-response",233,219874,"0.0-3.74-0.74","jy0po99ckc5rgql",169,"197.csv","","261.0999999642372","resources/trios/L1T1A2.jpg","38","restless",0.4,0.7,0.4,0.273654093524289,"true"
"image-keyboard-response",234,220281,"0.0-3.74-1.74","jy0po99ckc5rgql",169,"197.csv","","null","resources/maskTrios/BT1B.jpg","null","",NA,NA,NA,NA,""
"image-keyboard-response",235,221485,"0.0-3.74-2.74","jy0po99ckc5rgql",169,"197.csv","","null","resources/images/coin2.png","null","",NA,NA,NA,NA,""
"image-keyboard-response",236,221789,"0.0-3.75-0.75","jy0po99ckc5rgql",169,"197.csv","","302.10000002384186","resources/trios/L1T1A2.jpg","38","restless",0.4,0.7,0.4,0.750502821198116,"false"
"image-keyboard-response",237,222196,"0.0-3.75-1.75","jy0po99ckc5rgql",169,"197.csv","","null","resources/maskTrios/BT1B.jpg","null","",NA,NA,NA,NA,""
"image-keyboard-response",238,223402,"0.0-3.75-2.75","jy0po99ckc5rgql",169,"197.csv","","null","resources/images/fishbone.png","null","",NA,NA,NA,NA,""
"image-keyboard-response",239,223692,"0.0-3.76-0.76","jy0po99ckc5rgql",169,"197.csv","","288.10000002384186","resources/trios/L2T1A2.jpg","39","restless",0.4,0.7,0.4,0.874891750997761,"false"
"image-keyboard-response",240,224099,"0.0-3.76-1.76","jy0po99ckc5rgql",169,"197.csv","","null","resources/maskTrios/BBA2.jpg","null","",NA,NA,NA,NA,""
"image-keyboard-response",241,225305,"0.0-3.76-2.76","jy0po99ckc5rgql",169,"197.csv","","null","resources/images/fishbone.png","null","",NA,NA,NA,NA,""
"image-keyboard-response",242,225680,"0.0-3.77-0.77","jy0po99ckc5rgql",169,"197.csv","","373.30000001192093","resources/trios/L1T4A2.jpg","38","restless",0.4,0.7,0.5,0.239770867697289,"true"
"image-keyboard-response",243,226086,"0.0-3.77-1.77","jy0po99ckc5rgql",169,"197.csv","","null","resources/maskTrios/BT4B.jpg","null","",NA,NA,NA,NA,""
"image-keyboard-response",244,227293,"0.0-3.77-2.77","jy0po99ckc5rgql",169,"197.csv","","null","resources/images/coin2.png","null","",NA,NA,NA,NA,""
"image-keyboard-response",245,227683,"0.0-3.78-0.78","jy0po99ckc5rgql",169,"197.csv","","388.19999998807907","resources/trios/L2T4A3.jpg","38","restless",0.4,0.7,0.5,0.376705033386633,"true"
"image-keyboard-response",246,228090,"0.0-3.78-1.78","jy0po99ckc5rgql",169,"197.csv","","null","resources/maskTrios/BT4B.jpg","null","",NA,NA,NA,NA,""
"image-keyboard-response",247,229294,"0.0-3.78-2.78","jy0po99ckc5rgql",169,"197.csv","","null","resources/images/coin2.png","null","",NA,NA,NA,NA,""
"image-keyboard-response",248,229711,"0.0-3.79-0.79","jy0po99ckc5rgql",169,"197.csv","","414.5","resources/trios/L2T4A2.jpg","38","restless",0.4,0.6,0.5,0.513103159917598,"true"
"image-keyboard-response",249,230113,"0.0-3.79-1.79","jy0po99ckc5rgql",169,"197.csv","","null","resources/maskTrios/BT4B.jpg","null","",NA,NA,NA,NA,""
"image-keyboard-response",250,231319,"0.0-3.79-2.79","jy0po99ckc5rgql",169,"197.csv","","null","resources/images/coin2.png","null","",NA,NA,NA,NA,""
"image-keyboard-response",251,231538,"0.0-3.80-0.80","jy0po99ckc5rgql",169,"197.csv","","217","resources/trios/L1T4A2.jpg","38","restless",0.4,0.5,0.5,0.0391571159293973,"true"
"image-keyboard-response",252,231945,"0.0-3.80-1.80","jy0po99ckc5rgql",169,"197.csv","","null","resources/maskTrios/BT4B.jpg","null","",NA,NA,NA,NA,""
"image-keyboard-response",253,233146,"0.0-3.80-2.80","jy0po99ckc5rgql",169,"197.csv","","null","resources/images/coin2.png","null","",NA,NA,NA,NA,""
"image-keyboard-response",254,233405,"0.0-3.81-0.81","jy0po99ckc5rgql",169,"197.csv","","256.60000002384186","resources/trios/L1T4A2.jpg","38","restless",0.4,0.5,0.5,0.0226080618633402,"true"
"image-keyboard-response",255,233811,"0.0-3.81-1.81","jy0po99ckc5rgql",169,"197.csv","","null","resources/maskTrios/BT4B.jpg","null","",NA,NA,NA,NA,""
"image-keyboard-response",256,235016,"0.0-3.81-2.81","jy0po99ckc5rgql",169,"197.csv","","null","resources/images/coin2.png","null","",NA,NA,NA,NA,""
"image-keyboard-response",257,235043,"0.0-3.82-0.82","jy0po99ckc5rgql",169,"197.csv","","26.099999964237213","resources/trios/L2T4A3.jpg","38","restless",0.4,0.5,0.5,0.624655021788133,"false"
"image-keyboard-response",258,235447,"0.0-3.82-1.82","jy0po99ckc5rgql",169,"197.csv","","null","resources/maskTrios/BT4B.jpg","null","",NA,NA,NA,NA,""
"image-keyboard-response",259,236653,"0.0-3.82-2.82","jy0po99ckc5rgql",169,"197.csv","","null","resources/images/fishbone.png","null","",NA,NA,NA,NA,""
"image-keyboard-response",260,236893,"0.0-3.83-0.83","jy0po99ckc5rgql",169,"197.csv","","238.30000001192093","resources/trios/L1T1A2.jpg","39","restless",0.4,0.5,0.5,0.345821101294687,"true"
"image-keyboard-response",261,237300,"0.0-3.83-1.83","jy0po99ckc5rgql",169,"197.csv","","null","resources/maskTrios/BBA2.jpg","null","",NA,NA,NA,NA,""
"image-keyboard-response",262,238502,"0.0-3.83-2.83","jy0po99ckc5rgql",169,"197.csv","","null","resources/images/coin2.png","null","",NA,NA,NA,NA,""
"image-keyboard-response",263,238936,"0.0-3.84-0.84","jy0po99ckc5rgql",169,"197.csv","","431.9000000357628","resources/trios/L2T4A3.jpg","39","restless",0.4,0.5,0.5,0.103031074210343,"true"
"image-keyboard-response",264,239338,"0.0-3.84-1.84","jy0po99ckc5rgql",169,"197.csv","","null","resources/maskTrios/BBA3.jpg","null","",NA,NA,NA,NA,""
"image-keyboard-response",265,240544,"0.0-3.84-2.84","jy0po99ckc5rgql",169,"197.csv","","null","resources/images/coin2.png","null","",NA,NA,NA,NA,""
"image-keyboard-response",266,240604,"0.0-3.85-0.85","jy0po99ckc5rgql",169,"197.csv","","58.90000003576279","resources/trios/L1T4A2.jpg","39","restless",0.4,0.5,0.5,0.265035443393904,"true"
"image-keyboard-response",267,241011,"0.0-3.85-1.85","jy0po99ckc5rgql",169,"197.csv","","null","resources/maskTrios/BBA2.jpg","null","",NA,NA,NA,NA,""
"image-keyboard-response",268,242218,"0.0-3.85-2.85","jy0po99ckc5rgql",169,"197.csv","","null","resources/images/coin2.png","null","",NA,NA,NA,NA,""
"image-keyboard-response",269,242430,"0.0-3.86-0.86","jy0po99ckc5rgql",169,"197.csv","","210.29999995231628","resources/trios/L1T4A2.jpg","39","restless",0.4,0.5,0.5,0.518050300891552,"false"
"image-keyboard-response",270,242836,"0.0-3.86-1.86","jy0po99ckc5rgql",169,"197.csv","","null","resources/maskTrios/BBA2.jpg","null","",NA,NA,NA,NA,""
"image-keyboard-response",271,244043,"0.0-3.86-2.86","jy0po99ckc5rgql",169,"197.csv","","null","resources/images/fishbone.png","null","",NA,NA,NA,NA,""
"image-keyboard-response",272,244270,"0.0-3.87-0.87","jy0po99ckc5rgql",169,"197.csv","","225.5999999642372","resources/trios/L2T1A2.jpg","38","restless",0.4,0.5,0.5,0.507361397579673,"false"
"image-keyboard-response",273,244677,"0.0-3.87-1.87","jy0po99ckc5rgql",169,"197.csv","","null","resources/maskTrios/BT1B.jpg","null","",NA,NA,NA,NA,""
"image-keyboard-response",274,245881,"0.0-3.87-2.87","jy0po99ckc5rgql",169,"197.csv","","null","resources/images/fishbone.png","null","",NA,NA,NA,NA,""
"image-keyboard-response",275,245962,"0.0-3.88-0.88","jy0po99ckc5rgql",169,"197.csv","","80.19999998807907","resources/trios/L2T4A2.jpg","39","restless",0.4,0.5,0.5,0.52309104411971,"false"
"image-keyboard-response",276,246366,"0.0-3.88-1.88","jy0po99ckc5rgql",169,"197.csv","","null","resources/maskTrios/BBA2.jpg","null","",NA,NA,NA,NA,""
"image-keyboard-response",277,247567,"0.0-3.88-2.88","jy0po99ckc5rgql",169,"197.csv","","null","resources/images/fishbone.png","null","",NA,NA,NA,NA,""
"image-keyboard-response",278,247615,"0.0-3.89-0.89","jy0po99ckc5rgql",169,"197.csv","","46.5","resources/trios/L2T4A3.jpg","37","restless",0.4,0.5,0.5,0.391073875753778,"true"
"image-keyboard-response",279,248022,"0.0-3.89-1.89","jy0po99ckc5rgql",169,"197.csv","","null","resources/maskTrios/L2BB.jpg","null","",NA,NA,NA,NA,""
"image-keyboard-response",280,249229,"0.0-3.89-2.89","jy0po99ckc5rgql",169,"197.csv","","null","resources/images/coin2.png","null","",NA,NA,NA,NA,""
"image-keyboard-response",281,249674,"0.0-3.90-0.90","jy0po99ckc5rgql",169,"197.csv","","444.0999999642372","resources/trios/L2T1A2.jpg","37","restless",0.4,0.5,0.5,0.670074841464278,"false"
"image-keyboard-response",282,250077,"0.0-3.90-1.90","jy0po99ckc5rgql",169,"197.csv","","null","resources/maskTrios/L2BB.jpg","null","",NA,NA,NA,NA,""
"image-keyboard-response",283,251283,"0.0-3.90-2.90","jy0po99ckc5rgql",169,"197.csv","","null","resources/images/fishbone.png","null","",NA,NA,NA,NA,""
"image-keyboard-response",284,251638,"0.0-3.91-0.91","jy0po99ckc5rgql",169,"197.csv","","353.10000002384186","resources/trios/L2T4A2.jpg","38","restless",0.4,0.5,0.5,0.132274410719476,"true"
"image-keyboard-response",285,252042,"0.0-3.91-1.91","jy0po99ckc5rgql",169,"197.csv","","null","resources/maskTrios/BT4B.jpg","null","",NA,NA,NA,NA,""
"image-keyboard-response",286,253248,"0.0-3.91-2.91","jy0po99ckc5rgql",169,"197.csv","","null","resources/images/coin2.png","null","",NA,NA,NA,NA,""
"image-keyboard-response",287,254174,"0.0-3.92-0.92","jy0po99ckc5rgql",169,"197.csv","","925.0999999642372","resources/trios/L1T4A3.jpg","38","restless",0.4,0.5,0.5,0.0341370287503568,"true"
"image-keyboard-response",288,254579,"0.0-3.92-1.92","jy0po99ckc5rgql",169,"197.csv","","null","resources/maskTrios/BT4B.jpg","null","",NA,NA,NA,NA,""
"image-keyboard-response",289,255785,"0.0-3.92-2.92","jy0po99ckc5rgql",169,"197.csv","","null","resources/images/coin2.png","null","",NA,NA,NA,NA,""
"image-keyboard-response",290,256167,"0.0-3.93-0.93","jy0po99ckc5rgql",169,"197.csv","","380.39999997615814","resources/trios/L1T4A2.jpg","38","restless",0.4,0.5,0.5,0.229923736967592,"true"
"image-keyboard-response",291,256574,"0.0-3.93-1.93","jy0po99ckc5rgql",169,"197.csv","","null","resources/maskTrios/BT4B.jpg","null","",NA,NA,NA,NA,""
"image-keyboard-response",292,257780,"0.0-3.93-2.93","jy0po99ckc5rgql",169,"197.csv","","null","resources/images/coin2.png","null","",NA,NA,NA,NA,""
"image-keyboard-response",293,258156,"0.0-3.94-0.94","jy0po99ckc5rgql",169,"197.csv","","375","resources/trios/L2T1A2.jpg","38","restless",0.4,0.5,0.5,0.635067034101666,"false"
"image-keyboard-response",294,258563,"0.0-3.94-1.94","jy0po99ckc5rgql",169,"197.csv","","null","resources/maskTrios/BT1B.jpg","null","",NA,NA,NA,NA,""
"image-keyboard-response",295,259769,"0.0-3.94-2.94","jy0po99ckc5rgql",169,"197.csv","","null","resources/images/fishbone.png","null","",NA,NA,NA,NA,""
"image-keyboard-response",296,260023,"0.0-3.95-0.95","jy0po99ckc5rgql",169,"197.csv","","252.5999999642372","resources/trios/L2T4A3.jpg","38","restless",0.4,0.5,0.5,0.307648357881889,"true"
"image-keyboard-response",297,260429,"0.0-3.95-1.95","jy0po99ckc5rgql",169,"197.csv","","null","resources/maskTrios/BT4B.jpg","null","",NA,NA,NA,NA,""
"image-keyboard-response",298,261634,"0.0-3.95-2.95","jy0po99ckc5rgql",169,"197.csv","","null","resources/images/coin2.png","null","",NA,NA,NA,NA,""
"image-keyboard-response",299,261910,"0.0-3.96-0.96","jy0po99ckc5rgql",169,"197.csv","","274.69999998807907","resources/trios/L1T4A2.jpg","38","restless",0.4,0.5,0.5,0.652799704854408,"false"
"image-keyboard-response",300,262313,"0.0-3.96-1.96","jy0po99ckc5rgql",169,"197.csv","","null","resources/maskTrios/BT4B.jpg","null","",NA,NA,NA,NA,""
"image-keyboard-response",301,263519,"0.0-3.96-2.96","jy0po99ckc5rgql",169,"197.csv","","null","resources/images/fishbone.png","null","",NA,NA,NA,NA,""
"image-keyboard-response",302,263788,"0.0-3.97-0.97","jy0po99ckc5rgql",169,"197.csv","","267.30000001192093","resources/trios/L1T4A2.jpg","39","restless",0.5,0.5,0.5,0.269921753687555,"true"
"image-keyboard-response",303,264195,"0.0-3.97-1.97","jy0po99ckc5rgql",169,"197.csv","","null","resources/maskTrios/BBA2.jpg","null","",NA,NA,NA,NA,""
"image-keyboard-response",304,265400,"0.0-3.97-2.97","jy0po99ckc5rgql",169,"197.csv","","null","resources/images/coin2.png","null","",NA,NA,NA,NA,""
"image-keyboard-response",305,265978,"0.0-3.98-0.98","jy0po99ckc5rgql",169,"197.csv","","576.6000000238419","resources/trios/L1T4A2.jpg","39","restless",0.5,0.5,0.5,0.29176141981133,"true"
"image-keyboard-response",306,266383,"0.0-3.98-1.98","jy0po99ckc5rgql",169,"197.csv","","null","resources/maskTrios/BBA2.jpg","null","",NA,NA,NA,NA,""
"image-keyboard-response",307,267585,"0.0-3.98-2.98","jy0po99ckc5rgql",169,"197.csv","","null","resources/images/coin2.png","null","",NA,NA,NA,NA,""
"image-keyboard-response",308,267835,"0.0-3.99-0.99","jy0po99ckc5rgql",169,"197.csv","","247","resources/trios/L2T1A3.jpg","38","restless",0.5,0.5,0.5,0.614389433739962,"false"
"image-keyboard-response",309,268238,"0.0-3.99-1.99","jy0po99ckc5rgql",169,"197.csv","","null","resources/maskTrios/BT1B.jpg","null","",NA,NA,NA,NA,""
"image-keyboard-response",310,269445,"0.0-3.99-2.99","jy0po99ckc5rgql",169,"197.csv","","null","resources/images/fishbone.png","null","",NA,NA,NA,NA,""
"image-keyboard-response",311,269959,"0.0-3.100-0.100","jy0po99ckc5rgql",169,"197.csv","","512","resources/trios/L1T4A3.jpg","37","restless",0.5,0.5,0.5,0.593697316256056,"false"
"image-keyboard-response",312,270367,"0.0-3.100-1.100","jy0po99ckc5rgql",169,"197.csv","","null","resources/maskTrios/L1BB.jpg","null","",NA,NA,NA,NA,""
"image-keyboard-response",313,271572,"0.0-3.100-2.100","jy0po99ckc5rgql",169,"197.csv","","null","resources/images/fishbone.png","null","",NA,NA,NA,NA,""
"image-keyboard-response",314,271839,"0.0-3.101-0.101","jy0po99ckc5rgql",169,"197.csv","","264.89999997615814","resources/trios/L2T1A3.jpg","38","restless",0.5,0.5,0.5,0.148483329618047,"true"
"image-keyboard-response",315,272247,"0.0-3.101-1.101","jy0po99ckc5rgql",169,"197.csv","","null","resources/maskTrios/BT1B.jpg","null","",NA,NA,NA,NA,""
"image-keyboard-response",316,273454,"0.0-3.101-2.101","jy0po99ckc5rgql",169,"197.csv","","null","resources/images/coin2.png","null","",NA,NA,NA,NA,""
"image-keyboard-response",317,273770,"0.0-3.102-0.102","jy0po99ckc5rgql",169,"197.csv","","314.19999998807907","resources/trios/L2T4A2.jpg","38","restless",0.5,0.5,0.5,0.121285147485335,"true"
"image-keyboard-response",318,274178,"0.0-3.102-1.102","jy0po99ckc5rgql",169,"197.csv","","null","resources/maskTrios/BT4B.jpg","null","",NA,NA,NA,NA,""
"image-keyboard-response",319,275385,"0.0-3.102-2.102","jy0po99ckc5rgql",169,"197.csv","","null","resources/images/coin2.png","null","",NA,NA,NA,NA,""
"image-keyboard-response",320,275629,"0.0-3.103-0.103","jy0po99ckc5rgql",169,"197.csv","","241.19999998807907","resources/trios/L1T1A3.jpg","37","restless",0.5,0.5,0.5,0.67952012490174,"false"
"image-keyboard-response",321,276036,"0.0-3.103-1.103","jy0po99ckc5rgql",169,"197.csv","","null","resources/maskTrios/L1BB.jpg","null","",NA,NA,NA,NA,""
"image-keyboard-response",322,277238,"0.0-3.103-2.103","jy0po99ckc5rgql",169,"197.csv","","null","resources/images/fishbone.png","null","",NA,NA,NA,NA,""
"image-keyboard-response",323,277494,"0.0-3.104-0.104","jy0po99ckc5rgql",169,"197.csv","","253.80000001192093","resources/trios/L2T1A2.jpg","38","restless",0.5,0.5,0.5,0.160154280653359,"true"
"image-keyboard-response",324,277902,"0.0-3.104-1.104","jy0po99ckc5rgql",169,"197.csv","","null","resources/maskTrios/BT1B.jpg","null","",NA,NA,NA,NA,""
"image-keyboard-response",325,279104,"0.0-3.104-2.104","jy0po99ckc5rgql",169,"197.csv","","null","resources/images/coin2.png","null","",NA,NA,NA,NA,""
"image-keyboard-response",326,279351,"0.0-3.105-0.105","jy0po99ckc5rgql",169,"197.csv","","244.10000002384186","resources/trios/L1T4A3.jpg","38","restless",0.5,0.5,0.5,0.696338954958384,"false"
"image-keyboard-response",327,279757,"0.0-3.105-1.105","jy0po99ckc5rgql",169,"197.csv","","null","resources/maskTrios/BT4B.jpg","null","",NA,NA,NA,NA,""
"image-keyboard-response",328,280964,"0.0-3.105-2.105","jy0po99ckc5rgql",169,"197.csv","","null","resources/images/fishbone.png","null","",NA,NA,NA,NA,""
"image-keyboard-response",329,281236,"0.0-3.106-0.106","jy0po99ckc5rgql",169,"197.csv","","269.19999998807907","resources/trios/L2T4A3.jpg","39","restless",0.5,0.5,0.6,0.0489304317046311,"true"
"image-keyboard-response",330,281643,"0.0-3.106-1.106","jy0po99ckc5rgql",169,"197.csv","","null","resources/maskTrios/BBA3.jpg","null","",NA,NA,NA,NA,""
"image-keyboard-response",331,282845,"0.0-3.106-2.106","jy0po99ckc5rgql",169,"197.csv","","null","resources/images/coin2.png","null","",NA,NA,NA,NA,""
"image-keyboard-response",332,283187,"0.0-3.107-0.107","jy0po99ckc5rgql",169,"197.csv","","339.39999997615814","resources/trios/L2T1A2.jpg","39","restless",0.5,0.5,0.6,0.00493167856578514,"true"
"image-keyboard-response",333,283593,"0.0-3.107-1.107","jy0po99ckc5rgql",169,"197.csv","","null","resources/maskTrios/BBA2.jpg","null","",NA,NA,NA,NA,""
"image-keyboard-response",334,284801,"0.0-3.107-2.107","jy0po99ckc5rgql",169,"197.csv","","null","resources/images/coin2.png","null","",NA,NA,NA,NA,""
"image-keyboard-response",335,285102,"0.0-3.108-0.108","jy0po99ckc5rgql",169,"197.csv","","299.30000001192093","resources/trios/L2T1A3.jpg","39","restless",0.5,0.5,0.6,0.453738887802983,"true"
"image-keyboard-response",336,285509,"0.0-3.108-1.108","jy0po99ckc5rgql",169,"197.csv","","null","resources/maskTrios/BBA3.jpg","null","",NA,NA,NA,NA,""
"image-keyboard-response",337,286717,"0.0-3.108-2.108","jy0po99ckc5rgql",169,"197.csv","","null","resources/images/coin2.png","null","",NA,NA,NA,NA,""
"image-keyboard-response",338,286998,"0.0-3.109-0.109","jy0po99ckc5rgql",169,"197.csv","","279.39999997615814","resources/trios/L2T4A3.jpg","39","restless",0.5,0.5,0.6,0.174357872293136,"true"
"image-keyboard-response",339,287403,"0.0-3.109-1.109","jy0po99ckc5rgql",169,"197.csv","","null","resources/maskTrios/BBA3.jpg","null","",NA,NA,NA,NA,""
"image-keyboard-response",340,288608,"0.0-3.109-2.109","jy0po99ckc5rgql",169,"197.csv","","null","resources/images/coin2.png","null","",NA,NA,NA,NA,""
"image-keyboard-response",341,288926,"0.0-3.110-0.110","jy0po99ckc5rgql",169,"197.csv","","316.10000002384186","resources/trios/L1T1A3.jpg","38","restless",0.5,0.5,0.6,0.700820058625627,"false"
"image-keyboard-response",342,289334,"0.0-3.110-1.110","jy0po99ckc5rgql",169,"197.csv","","null","resources/maskTrios/BT1B.jpg","null","",NA,NA,NA,NA,""
"image-keyboard-response",343,290541,"0.0-3.110-2.110","jy0po99ckc5rgql",169,"197.csv","","null","resources/images/fishbone.png","null","",NA,NA,NA,NA,""
"image-keyboard-response",344,290778,"0.0-3.111-0.111","jy0po99ckc5rgql",169,"197.csv","","235.5","resources/trios/L2T1A2.jpg","39","restless",0.5,0.5,0.7,0.944313965157699,"false"
"image-keyboard-response",345,291183,"0.0-3.111-1.111","jy0po99ckc5rgql",169,"197.csv","","null","resources/maskTrios/BBA2.jpg","null","",NA,NA,NA,NA,""
"image-keyboard-response",346,292388,"0.0-3.111-2.111","jy0po99ckc5rgql",169,"197.csv","","null","resources/images/fishbone.png","null","",NA,NA,NA,NA,""
"image-keyboard-response",347,292635,"0.0-3.112-0.112","jy0po99ckc5rgql",169,"197.csv","","245","resources/trios/L1T4A3.jpg","38","restless",0.5,0.5,0.7,0.537506152264861,"false"
"image-keyboard-response",348,293040,"0.0-3.112-1.112","jy0po99ckc5rgql",169,"197.csv","","null","resources/maskTrios/BT4B.jpg","null","",NA,NA,NA,NA,""
"image-keyboard-response",349,294243,"0.0-3.112-2.112","jy0po99ckc5rgql",169,"197.csv","","null","resources/images/fishbone.png","null","",NA,NA,NA,NA,""
"image-keyboard-response",350,294452,"0.0-3.113-0.113","jy0po99ckc5rgql",169,"197.csv","","206.80000001192093","resources/trios/L1T4A2.jpg","37","restless",0.5,0.5,0.7,0.522356896468948,"false"
"image-keyboard-response",351,294856,"0.0-3.113-1.113","jy0po99ckc5rgql",169,"197.csv","","null","resources/maskTrios/L1BB.jpg","null","",NA,NA,NA,NA,""
"image-keyboard-response",352,296063,"0.0-3.113-2.113","jy0po99ckc5rgql",169,"197.csv","","null","resources/images/fishbone.png","null","",NA,NA,NA,NA,""
"image-keyboard-response",353,296339,"0.0-3.114-0.114","jy0po99ckc5rgql",169,"197.csv","","273.5","resources/trios/L1T4A3.jpg","38","restless",0.5,0.5,0.7,0.649855641357759,"false"
"image-keyboard-response",354,296745,"0.0-3.114-1.114","jy0po99ckc5rgql",169,"197.csv","","null","resources/maskTrios/BT4B.jpg","null","",NA,NA,NA,NA,""
"image-keyboard-response",355,297949,"0.0-3.114-2.114","jy0po99ckc5rgql",169,"197.csv","","null","resources/images/fishbone.png","null","",NA,NA,NA,NA,""
"image-keyboard-response",356,298206,"0.0-3.115-0.115","jy0po99ckc5rgql",169,"197.csv","","255.19999998807907","resources/trios/L1T4A3.jpg","39","restless",0.5,0.5,0.7,0.35584555745604,"true"
"image-keyboard-response",357,298612,"0.0-3.115-1.115","jy0po99ckc5rgql",169,"197.csv","","null","resources/maskTrios/BBA3.jpg","null","",NA,NA,NA,NA,""
"image-keyboard-response",358,299819,"0.0-3.115-2.115","jy0po99ckc5rgql",169,"197.csv","","null","resources/images/coin2.png","null","",NA,NA,NA,NA,""
"image-keyboard-response",359,300173,"0.0-3.116-0.116","jy0po99ckc5rgql",169,"197.csv","","351.80000001192093","resources/trios/L2T4A3.jpg","39","restless",0.5,0.5,0.7,0.013993117060741,"true"
"image-keyboard-response",360,300580,"0.0-3.116-1.116","jy0po99ckc5rgql",169,"197.csv","","null","resources/maskTrios/BBA3.jpg","null","",NA,NA,NA,NA,""
"image-keyboard-response",361,301787,"0.0-3.116-2.116","jy0po99ckc5rgql",169,"197.csv","","null","resources/images/coin2.png","null","",NA,NA,NA,NA,""
"image-keyboard-response",362,301873,"0.0-3.117-0.117","jy0po99ckc5rgql",169,"197.csv","","83.80000001192093","resources/trios/L2T1A2.jpg","39","restless",0.5,0.5,0.7,0.572616632118198,"true"
"image-keyboard-response",363,302280,"0.0-3.117-1.117","jy0po99ckc5rgql",169,"197.csv","","null","resources/maskTrios/BBA2.jpg","null","",NA,NA,NA,NA,""
"image-keyboard-response",364,303487,"0.0-3.117-2.117","jy0po99ckc5rgql",169,"197.csv","","null","resources/images/coin2.png","null","",NA,NA,NA,NA,""
"image-keyboard-response",365,303768,"0.0-3.118-0.118","jy0po99ckc5rgql",169,"197.csv","","279","resources/trios/L1T4A3.jpg","39","restless",0.5,0.5,0.7,0.541101106643525,"true"
"image-keyboard-response",366,304173,"0.0-3.118-1.118","jy0po99ckc5rgql",169,"197.csv","","null","resources/maskTrios/BBA3.jpg","null","",NA,NA,NA,NA,""
"image-keyboard-response",367,305378,"0.0-3.118-2.118","jy0po99ckc5rgql",169,"197.csv","","null","resources/images/coin2.png","null","",NA,NA,NA,NA,""
"image-keyboard-response",368,306099,"0.0-3.119-0.119","jy0po99ckc5rgql",169,"197.csv","","718.8000000119209","resources/trios/L2T1A2.jpg","39","restless",0.6,0.5,0.7,0.779246528393063,"false"
"image-keyboard-response",369,306502,"0.0-3.119-1.119","jy0po99ckc5rgql",169,"197.csv","","null","resources/maskTrios/BBA2.jpg","null","",NA,NA,NA,NA,""
"image-keyboard-response",370,307705,"0.0-3.119-2.119","jy0po99ckc5rgql",169,"197.csv","","null","resources/images/fishbone.png","null","",NA,NA,NA,NA,""
"image-keyboard-response",371,307989,"0.0-3.120-0.120","jy0po99ckc5rgql",169,"197.csv","","281.5","resources/trios/L2T4A2.jpg","38","restless",0.6,0.5,0.7,0.0315807411287652,"true"
"image-keyboard-response",372,308393,"0.0-3.120-1.120","jy0po99ckc5rgql",169,"197.csv","","null","resources/maskTrios/BT4B.jpg","null","",NA,NA,NA,NA,""
"image-keyboard-response",373,309598,"0.0-3.120-2.120","jy0po99ckc5rgql",169,"197.csv","","null","resources/images/coin2.png","null","",NA,NA,NA,NA,""
"image-keyboard-response",374,310361,"0.0-3.121-0.121","jy0po99ckc5rgql",169,"197.csv","","761.3999999761581","resources/trios/L2T4A2.jpg","38","restless",0.6,0.5,0.7,0.655256157362449,"false"
"image-keyboard-response",375,310765,"0.0-3.121-1.121","jy0po99ckc5rgql",169,"197.csv","","null","resources/maskTrios/BT4B.jpg","null","",NA,NA,NA,NA,""
"image-keyboard-response",376,311971,"0.0-3.121-2.121","jy0po99ckc5rgql",169,"197.csv","","null","resources/images/fishbone.png","null","",NA,NA,NA,NA,""
"image-keyboard-response",377,312489,"0.0-3.122-0.122","jy0po99ckc5rgql",169,"197.csv","","516.3999999761581","resources/trios/L2T1A2.jpg","37","restless",0.6,0.4,0.7,0.925018517205908,"false"
"image-keyboard-response",378,312894,"0.0-3.122-1.122","jy0po99ckc5rgql",169,"197.csv","","null","resources/maskTrios/L2BB.jpg","null","",NA,NA,NA,NA,""
"image-keyboard-response",379,314100,"0.0-3.122-2.122","jy0po99ckc5rgql",169,"197.csv","","null","resources/images/fishbone.png","null","",NA,NA,NA,NA,""
"image-keyboard-response",380,314550,"0.0-3.123-0.123","jy0po99ckc5rgql",169,"197.csv","","447.39999997615814","resources/trios/L2T4A3.jpg","39","restless",0.6,0.4,0.7,0.90424044211711,"false"
"image-keyboard-response",381,314954,"0.0-3.123-1.123","jy0po99ckc5rgql",169,"197.csv","","null","resources/maskTrios/BBA3.jpg","null","",NA,NA,NA,NA,""
"image-keyboard-response",382,316159,"0.0-3.123-2.123","jy0po99ckc5rgql",169,"197.csv","","null","resources/images/fishbone.png","null","",NA,NA,NA,NA,""
"image-keyboard-response",383,316444,"0.0-3.124-0.124","jy0po99ckc5rgql",169,"197.csv","","283.7000000476837","resources/trios/L2T1A2.jpg","38","restless",0.7,0.4,0.7,0.246325151956285,"true"
"image-keyboard-response",384,316851,"0.0-3.124-1.124","jy0po99ckc5rgql",169,"197.csv","","null","resources/maskTrios/BT1B.jpg","null","",NA,NA,NA,NA,""
"image-keyboard-response",385,318058,"0.0-3.124-2.124","jy0po99ckc5rgql",169,"197.csv","","null","resources/images/coin2.png","null","",NA,NA,NA,NA,""
"image-keyboard-response",386,318445,"0.0-3.125-0.125","jy0po99ckc5rgql",169,"197.csv","","385","resources/trios/L2T1A2.jpg","38","restless",0.8,0.4,0.7,0.253113812161084,"true"
"image-keyboard-response",387,318851,"0.0-3.125-1.125","jy0po99ckc5rgql",169,"197.csv","","null","resources/maskTrios/BT1B.jpg","null","",NA,NA,NA,NA,""
"image-keyboard-response",388,320058,"0.0-3.125-2.125","jy0po99ckc5rgql",169,"197.csv","","null","resources/images/coin2.png","null","",NA,NA,NA,NA,""
"image-keyboard-response",389,320383,"0.0-3.126-0.126","jy0po99ckc5rgql",169,"197.csv","","322.39999997615814","resources/trios/L2T1A3.jpg","38","restless",0.8,0.4,0.7,0.358769392090685,"true"
"image-keyboard-response",390,320790,"0.0-3.126-1.126","jy0po99ckc5rgql",169,"197.csv","","null","resources/maskTrios/BT1B.jpg","null","",NA,NA,NA,NA,""
"image-keyboard-response",391,321997,"0.0-3.126-2.126","jy0po99ckc5rgql",169,"197.csv","","null","resources/images/coin2.png","null","",NA,NA,NA,NA,""
"image-keyboard-response",392,322496,"0.0-3.127-0.127","jy0po99ckc5rgql",169,"197.csv","","497.4000000357628","resources/trios/L2T4A3.jpg","38","restless",0.9,0.4,0.7,0.17329334918775,"true"
"image-keyboard-response",393,322899,"0.0-3.127-1.127","jy0po99ckc5rgql",169,"197.csv","","null","resources/maskTrios/BT4B.jpg","null","",NA,NA,NA,NA,""
"image-keyboard-response",394,324102,"0.0-3.127-2.127","jy0po99ckc5rgql",169,"197.csv","","null","resources/images/coin2.png","null","",NA,NA,NA,NA,""
"image-keyboard-response",395,324369,"0.0-3.128-0.128","jy0po99ckc5rgql",169,"197.csv","","265.5","resources/trios/L1T4A3.jpg","38","restless",0.9,0.4,0.8,0.470164696174367,"false"
"image-keyboard-response",396,324773,"0.0-3.128-1.128","jy0po99ckc5rgql",169,"197.csv","","null","resources/maskTrios/BT4B.jpg","null","",NA,NA,NA,NA,""
"image-keyboard-response",397,325977,"0.0-3.128-2.128","jy0po99ckc5rgql",169,"197.csv","","null","resources/images/fishbone.png","null","",NA,NA,NA,NA,""
"image-keyboard-response",398,326936,"0.0-3.129-0.129","jy0po99ckc5rgql",169,"197.csv","","957.3000000119209","resources/trios/L2T1A3.jpg","38","restless",0.8,0.5,0.8,0.870468197501938,"false"
"image-keyboard-response",399,327343,"0.0-3.129-1.129","jy0po99ckc5rgql",169,"197.csv","","null","resources/maskTrios/BT1B.jpg","null","",NA,NA,NA,NA,""
"image-keyboard-response",400,328549,"0.0-3.129-2.129","jy0po99ckc5rgql",169,"197.csv","","null","resources/images/fishbone.png","null","",NA,NA,NA,NA,""
"image-keyboard-response",401,329011,"0.0-3.130-0.130","jy0po99ckc5rgql",169,"197.csv","","459.9000000357628","resources/trios/L2T1A2.jpg","37","restless",0.8,0.5,0.8,0.277540617206078,"true"
"image-keyboard-response",402,329418,"0.0-3.130-1.130","jy0po99ckc5rgql",169,"197.csv","","null","resources/maskTrios/L2BB.jpg","null","",NA,NA,NA,NA,""
"image-keyboard-response",403,330625,"0.0-3.130-2.130","jy0po99ckc5rgql",169,"197.csv","","null","resources/images/coin2.png","null","",NA,NA,NA,NA,""
"image-keyboard-response",404,330861,"0.0-3.131-0.131","jy0po99ckc5rgql",169,"197.csv","","234.60000002384186","resources/trios/L1T1A2.jpg","39","restless",0.8,0.5,0.8,0.14360727355305,"true"
"image-keyboard-response",405,331268,"0.0-3.131-1.131","jy0po99ckc5rgql",169,"197.csv","","null","resources/maskTrios/BBA2.jpg","null","",NA,NA,NA,NA,""
"image-keyboard-response",406,332473,"0.0-3.131-2.131","jy0po99ckc5rgql",169,"197.csv","","null","resources/images/coin2.png","null","",NA,NA,NA,NA,""
"image-keyboard-response",407,332614,"0.0-3.132-0.132","jy0po99ckc5rgql",169,"197.csv","","139.80000001192093","resources/trios/L2T4A2.jpg","39","restless",0.8,0.5,0.8,0.643174191424041,"true"
"image-keyboard-response",408,333018,"0.0-3.132-1.132","jy0po99ckc5rgql",169,"197.csv","","null","resources/maskTrios/BBA2.jpg","null","",NA,NA,NA,NA,""
"image-keyboard-response",409,334223,"0.0-3.132-2.132","jy0po99ckc5rgql",169,"197.csv","","null","resources/images/coin2.png","null","",NA,NA,NA,NA,""
"image-keyboard-response",410,334464,"0.0-3.133-0.133","jy0po99ckc5rgql",169,"197.csv","","238.39999997615814","resources/trios/L1T1A3.jpg","39","restless",0.9,0.5,0.7,0.903149736772867,"false"
"image-keyboard-response",411,334868,"0.0-3.133-1.133","jy0po99ckc5rgql",169,"197.csv","","null","resources/maskTrios/BBA3.jpg","null","",NA,NA,NA,NA,""
"image-keyboard-response",412,336075,"0.0-3.133-2.133","jy0po99ckc5rgql",169,"197.csv","","null","resources/images/fishbone.png","null","",NA,NA,NA,NA,""
"image-keyboard-response",413,336371,"0.0-3.134-0.134","jy0po99ckc5rgql",169,"197.csv","","294.69999998807907","resources/trios/L2T1A3.jpg","38","restless",0.9,0.5,0.7,0.530685747809702,"false"
"image-keyboard-response",414,336779,"0.0-3.134-1.134","jy0po99ckc5rgql",169,"197.csv","","null","resources/maskTrios/BT1B.jpg","null","",NA,NA,NA,NA,""
"image-keyboard-response",415,337985,"0.0-3.134-2.134","jy0po99ckc5rgql",169,"197.csv","","null","resources/images/fishbone.png","null","",NA,NA,NA,NA,""
"image-keyboard-response",416,338197,"0.0-3.135-0.135","jy0po99ckc5rgql",169,"197.csv","","209.80000001192093","resources/trios/L1T4A3.jpg","39","restless",0.9,0.5,0.7,0.655244484749306,"true"
"image-keyboard-response",417,338604,"0.0-3.135-1.135","jy0po99ckc5rgql",169,"197.csv","","null","resources/maskTrios/BBA3.jpg","null","",NA,NA,NA,NA,""
"image-keyboard-response",418,339811,"0.0-3.135-2.135","jy0po99ckc5rgql",169,"197.csv","","null","resources/images/coin2.png","null","",NA,NA,NA,NA,""
"image-keyboard-response",419,340126,"0.0-3.136-0.136","jy0po99ckc5rgql",169,"197.csv","","312.89999997615814","resources/trios/L2T4A2.jpg","39","restless",0.9,0.5,0.7,0.191982408124002,"true"
"image-keyboard-response",420,340531,"0.0-3.136-1.136","jy0po99ckc5rgql",169,"197.csv","","null","resources/maskTrios/BBA2.jpg","null","",NA,NA,NA,NA,""
"image-keyboard-response",421,341738,"0.0-3.136-2.136","jy0po99ckc5rgql",169,"197.csv","","null","resources/images/coin2.png","null","",NA,NA,NA,NA,""
"image-keyboard-response",422,341941,"0.0-3.137-0.137","jy0po99ckc5rgql",169,"197.csv","","201.60000002384186","resources/trios/L2T1A2.jpg","37","restless",0.8,0.5,0.7,0.542451540890281,"true"
"image-keyboard-response",423,342349,"0.0-3.137-1.137","jy0po99ckc5rgql",169,"197.csv","","null","resources/maskTrios/L2BB.jpg","null","",NA,NA,NA,NA,""
"image-keyboard-response",424,343552,"0.0-3.137-2.137","jy0po99ckc5rgql",169,"197.csv","","null","resources/images/coin2.png","null","",NA,NA,NA,NA,""
"image-keyboard-response",425,343846,"0.0-3.138-0.138","jy0po99ckc5rgql",169,"197.csv","","292.7000000476837","resources/trios/L2T1A2.jpg","37","restless",0.8,0.5,0.7,0.156412526722268,"true"
"image-keyboard-response",426,344254,"0.0-3.138-1.138","jy0po99ckc5rgql",169,"197.csv","","null","resources/maskTrios/L2BB.jpg","null","",NA,NA,NA,NA,""
"image-keyboard-response",427,345461,"0.0-3.138-2.138","jy0po99ckc5rgql",169,"197.csv","","null","resources/images/coin2.png","null","",NA,NA,NA,NA,""
"image-keyboard-response",428,345579,"0.0-3.139-0.139","jy0po99ckc5rgql",169,"197.csv","","116.80000001192093","resources/trios/L1T1A3.jpg","38","restless",0.8,0.4,0.7,0.652461738840714,"false"
"image-keyboard-response",429,345987,"0.0-3.139-1.139","jy0po99ckc5rgql",169,"197.csv","","null","resources/maskTrios/BT1B.jpg","null","",NA,NA,NA,NA,""
"image-keyboard-response",430,347190,"0.0-3.139-2.139","jy0po99ckc5rgql",169,"197.csv","","null","resources/images/fishbone.png","null","",NA,NA,NA,NA,""
"image-keyboard-response",431,347441,"0.0-3.140-0.140","jy0po99ckc5rgql",169,"197.csv","","248.19999998807907","resources/trios/L1T1A2.jpg","37","restless",0.8,0.4,0.7,0.782312393304627,"true"
"image-keyboard-response",432,347848,"0.0-3.140-1.140","jy0po99ckc5rgql",169,"197.csv","","null","resources/maskTrios/L1BB.jpg","null","",NA,NA,NA,NA,""
"image-keyboard-response",433,349055,"0.0-3.140-2.140","jy0po99ckc5rgql",169,"197.csv","","null","resources/images/coin2.png","null","",NA,NA,NA,NA,""
"image-keyboard-response",434,349338,"0.0-3.141-0.141","jy0po99ckc5rgql",169,"197.csv","","281.0999999642372","resources/trios/L1T1A2.jpg","37","restless",0.8,0.4,0.7,0.371503224091743,"true"
"image-keyboard-response",435,349745,"0.0-3.141-1.141","jy0po99ckc5rgql",169,"197.csv","","null","resources/maskTrios/L1BB.jpg","null","",NA,NA,NA,NA,""
"image-keyboard-response",436,350949,"0.0-3.141-2.141","jy0po99ckc5rgql",169,"197.csv","","null","resources/images/coin2.png","null","",NA,NA,NA,NA,""
"image-keyboard-response",437,351253,"0.0-3.142-0.142","jy0po99ckc5rgql",169,"197.csv","","302","resources/trios/L1T4A2.jpg","37","restless",0.8,0.4,0.7,0.443904294500099,"true"
"image-keyboard-response",438,351660,"0.0-3.142-1.142","jy0po99ckc5rgql",169,"197.csv","","null","resources/maskTrios/L1BB.jpg","null","",NA,NA,NA,NA,""
"image-keyboard-response",439,352867,"0.0-3.142-2.142","jy0po99ckc5rgql",169,"197.csv","","null","resources/images/coin2.png","null","",NA,NA,NA,NA,""
"image-keyboard-response",440,353144,"0.0-3.143-0.143","jy0po99ckc5rgql",169,"197.csv","","275.10000002384186","resources/trios/L2T4A2.jpg","37","restless",0.8,0.4,0.6,0.365688153076281,"true"
"image-keyboard-response",441,353551,"0.0-3.143-1.143","jy0po99ckc5rgql",169,"197.csv","","null","resources/maskTrios/L2BB.jpg","null","",NA,NA,NA,NA,""
"image-keyboard-response",442,354758,"0.0-3.143-2.143","jy0po99ckc5rgql",169,"197.csv","","null","resources/images/coin2.png","null","",NA,NA,NA,NA,""
"image-keyboard-response",443,355013,"0.0-3.144-0.144","jy0po99ckc5rgql",169,"197.csv","","252.39999997615814","resources/trios/L2T1A2.jpg","37","restless",0.8,0.4,0.5,0.581503292207376,"true"
"image-keyboard-response",444,355420,"0.0-3.144-1.144","jy0po99ckc5rgql",169,"197.csv","","null","resources/maskTrios/L2BB.jpg","null","",NA,NA,NA,NA,""
"image-keyboard-response",445,356626,"0.0-3.144-2.144","jy0po99ckc5rgql",169,"197.csv","","null","resources/images/coin2.png","null","",NA,NA,NA,NA,""
"image-keyboard-response",446,356898,"0.0-3.145-0.145","jy0po99ckc5rgql",169,"197.csv","","270.4000000357628","resources/trios/L2T1A2.jpg","37","restless",0.8,0.4,0.5,0.357131629907337,"true"
"image-keyboard-response",447,357302,"0.0-3.145-1.145","jy0po99ckc5rgql",169,"197.csv","","null","resources/maskTrios/L2BB.jpg","null","",NA,NA,NA,NA,""
"image-keyboard-response",448,358505,"0.0-3.145-2.145","jy0po99ckc5rgql",169,"197.csv","","null","resources/images/coin2.png","null","",NA,NA,NA,NA,""
"image-keyboard-response",449,358752,"0.0-3.146-0.146","jy0po99ckc5rgql",169,"197.csv","","245.30000001192093","resources/trios/L1T4A3.jpg","37","restless",0.8,0.4,0.5,0.00954274142201106,"true"
"image-keyboard-response",450,359159,"0.0-3.146-1.146","jy0po99ckc5rgql",169,"197.csv","","null","resources/maskTrios/L1BB.jpg","null","",NA,NA,NA,NA,""
"image-keyboard-response",451,360363,"0.0-3.146-2.146","jy0po99ckc5rgql",169,"197.csv","","null","resources/images/coin2.png","null","",NA,NA,NA,NA,""
"image-keyboard-response",452,360589,"0.0-3.147-0.147","jy0po99ckc5rgql",169,"197.csv","","224","resources/trios/L1T4A2.jpg","37","restless",0.8,0.4,0.5,0.774275529910653,"true"
"image-keyboard-response",453,360997,"0.0-3.147-1.147","jy0po99ckc5rgql",169,"197.csv","","null","resources/maskTrios/L1BB.jpg","null","",NA,NA,NA,NA,""
"image-keyboard-response",454,362203,"0.0-3.147-2.147","jy0po99ckc5rgql",169,"197.csv","","null","resources/images/coin2.png","null","",NA,NA,NA,NA,""
"image-keyboard-response",455,362643,"0.0-3.148-0.148","jy0po99ckc5rgql",169,"197.csv","","438.19999998807907","resources/trios/L1T1A3.jpg","37","restless",0.8,0.4,0.5,0.600283819160415,"true"
"image-keyboard-response",456,363047,"0.0-3.148-1.148","jy0po99ckc5rgql",169,"197.csv","","null","resources/maskTrios/L1BB.jpg","null","",NA,NA,NA,NA,""
"image-keyboard-response",457,364254,"0.0-3.148-2.148","jy0po99ckc5rgql",169,"197.csv","","null","resources/images/coin2.png","null","",NA,NA,NA,NA,""
"image-keyboard-response",458,364576,"0.0-3.149-0.149","jy0po99ckc5rgql",169,"197.csv","","320.10000002384186","resources/trios/L2T1A2.jpg","37","restless",0.8,0.4,0.5,0.276714112212599,"true"
"image-keyboard-response",459,364982,"0.0-3.149-1.149","jy0po99ckc5rgql",169,"197.csv","","null","resources/maskTrios/L2BB.jpg","null","",NA,NA,NA,NA,""
"image-keyboard-response",460,366189,"0.0-3.149-2.149","jy0po99ckc5rgql",169,"197.csv","","null","resources/images/coin2.png","null","",NA,NA,NA,NA,""
"image-keyboard-response",461,366488,"0.0-3.150-0.150","jy0po99ckc5rgql",169,"197.csv","","297.10000002384186","resources/trios/L1T4A3.jpg","37","restless",0.8,0.4,0.5,0.246537140076627,"true"
"image-keyboard-response",462,366894,"0.0-3.150-1.150","jy0po99ckc5rgql",169,"197.csv","","null","resources/maskTrios/L1BB.jpg","null","",NA,NA,NA,NA,""
"image-keyboard-response",463,368101,"0.0-3.150-2.150","jy0po99ckc5rgql",169,"197.csv","","null","resources/images/coin2.png","null","",NA,NA,NA,NA,""
"image-keyboard-response",464,368431,"0.0-3.151-0.151","jy0po99ckc5rgql",169,"197.csv","","327.89999997615814","resources/trios/L2T1A3.jpg","37","restless",0.8,0.4,0.5,0.926026234443267,"false"
"image-keyboard-response",465,368835,"0.0-3.151-1.151","jy0po99ckc5rgql",169,"197.csv","","null","resources/maskTrios/L2BB.jpg","null","",NA,NA,NA,NA,""
"image-keyboard-response",466,370042,"0.0-3.151-2.151","jy0po99ckc5rgql",169,"197.csv","","null","resources/images/fishbone.png","null","",NA,NA,NA,NA,""
"image-keyboard-response",467,370281,"0.0-3.152-0.152","jy0po99ckc5rgql",169,"197.csv","","237.4000000357628","resources/trios/L1T1A2.jpg","37","restless",0.8,0.4,0.5,0.064086258852909,"true"
"image-keyboard-response",468,370684,"0.0-3.152-1.152","jy0po99ckc5rgql",169,"197.csv","","null","resources/maskTrios/L1BB.jpg","null","",NA,NA,NA,NA,""
"image-keyboard-response",469,371891,"0.0-3.152-2.152","jy0po99ckc5rgql",169,"197.csv","","null","resources/images/coin2.png","null","",NA,NA,NA,NA,""
"image-keyboard-response",470,372203,"0.0-3.153-0.153","jy0po99ckc5rgql",169,"197.csv","","311","resources/trios/L1T4A2.jpg","37","restless",0.8,0.4,0.5,0.165998817449716,"true"
"image-keyboard-response",471,372610,"0.0-3.153-1.153","jy0po99ckc5rgql",169,"197.csv","","null","resources/maskTrios/L1BB.jpg","null","",NA,NA,NA,NA,""
"image-keyboard-response",472,373814,"0.0-3.153-2.153","jy0po99ckc5rgql",169,"197.csv","","null","resources/images/coin2.png","null","",NA,NA,NA,NA,""
"image-keyboard-response",473,374127,"0.0-3.154-0.154","jy0po99ckc5rgql",169,"197.csv","","311.2999999523163","resources/trios/L2T4A2.jpg","37","restless",0.8,0.4,0.5,0.222719635420313,"true"
"image-keyboard-response",474,374532,"0.0-3.154-1.154","jy0po99ckc5rgql",169,"197.csv","","null","resources/maskTrios/L2BB.jpg","null","",NA,NA,NA,NA,""
"image-keyboard-response",475,375738,"0.0-3.154-2.154","jy0po99ckc5rgql",169,"197.csv","","null","resources/images/coin2.png","null","",NA,NA,NA,NA,""
"image-keyboard-response",476,375994,"0.0-3.155-0.155","jy0po99ckc5rgql",169,"197.csv","","254.5","resources/trios/L1T1A3.jpg","37","restless",0.8,0.4,0.5,0.27845158581565,"true"
"image-keyboard-response",477,376401,"0.0-3.155-1.155","jy0po99ckc5rgql",169,"197.csv","","null","resources/maskTrios/L1BB.jpg","null","",NA,NA,NA,NA,""
"image-keyboard-response",478,377604,"0.0-3.155-2.155","jy0po99ckc5rgql",169,"197.csv","","null","resources/images/coin2.png","null","",NA,NA,NA,NA,""
"image-keyboard-response",479,377957,"0.0-3.156-0.156","jy0po99ckc5rgql",169,"197.csv","","350.7999999523163","resources/trios/L1T1A2.jpg","37","restless",0.9,0.4,0.5,0.222794539498232,"true"
"image-keyboard-response",480,378364,"0.0-3.156-1.156","jy0po99ckc5rgql",169,"197.csv","","null","resources/maskTrios/L1BB.jpg","null","",NA,NA,NA,NA,""
"image-keyboard-response",481,379569,"0.0-3.156-2.156","jy0po99ckc5rgql",169,"197.csv","","null","resources/images/coin2.png","null","",NA,NA,NA,NA,""
"image-keyboard-response",482,379962,"0.0-3.157-0.157","jy0po99ckc5rgql",169,"197.csv","","390.89999997615814","resources/trios/L1T1A3.jpg","37","restless",0.9,0.4,0.5,0.477529060227774,"true"
"image-keyboard-response",483,380368,"0.0-3.157-1.157","jy0po99ckc5rgql",169,"197.csv","","null","resources/maskTrios/L1BB.jpg","null","",NA,NA,NA,NA,""
"image-keyboard-response",484,381575,"0.0-3.157-2.157","jy0po99ckc5rgql",169,"197.csv","","null","resources/images/coin2.png","null","",NA,NA,NA,NA,""
"image-keyboard-response",485,381886,"0.0-3.158-0.158","jy0po99ckc5rgql",169,"197.csv","","308.9000000357628","resources/trios/L1T4A3.jpg","37","restless",0.9,0.4,0.5,0.598572836972486,"true"
"image-keyboard-response",486,382293,"0.0-3.158-1.158","jy0po99ckc5rgql",169,"197.csv","","null","resources/maskTrios/L1BB.jpg","null","",NA,NA,NA,NA,""
"image-keyboard-response",487,383498,"0.0-3.158-2.158","jy0po99ckc5rgql",169,"197.csv","","null","resources/images/coin2.png","null","",NA,NA,NA,NA,""
"image-keyboard-response",488,383793,"0.0-3.159-0.159","jy0po99ckc5rgql",169,"197.csv","","293.69999998807907","resources/trios/L1T4A3.jpg","37","restless",0.9,0.4,0.5,0.294511536124056,"true"
"image-keyboard-response",489,384200,"0.0-3.159-1.159","jy0po99ckc5rgql",169,"197.csv","","null","resources/maskTrios/L1BB.jpg","null","",NA,NA,NA,NA,""
"image-keyboard-response",490,385407,"0.0-3.159-2.159","jy0po99ckc5rgql",169,"197.csv","","null","resources/images/coin2.png","null","",NA,NA,NA,NA,""
"image-keyboard-response",491,385679,"0.0-3.160-0.160","jy0po99ckc5rgql",169,"197.csv","","269.89999997615814","resources/trios/L1T1A3.jpg","37","restless",0.9,0.4,0.5,0.470995355778082,"true"
"image-keyboard-response",492,386086,"0.0-3.160-1.160","jy0po99ckc5rgql",169,"197.csv","","null","resources/maskTrios/L1BB.jpg","null","",NA,NA,NA,NA,""
"image-keyboard-response",493,387293,"0.0-3.160-2.160","jy0po99ckc5rgql",169,"197.csv","","null","resources/images/coin2.png","null","",NA,NA,NA,NA,""
"image-keyboard-response",494,387555,"0.0-3.161-0.161","jy0po99ckc5rgql",169,"197.csv","","260","resources/trios/L1T1A3.jpg","37","restless",0.9,0.4,0.5,0.203342915315068,"true"
"image-keyboard-response",495,387962,"0.0-3.161-1.161","jy0po99ckc5rgql",169,"197.csv","","null","resources/maskTrios/L1BB.jpg","null","",NA,NA,NA,NA,""
"image-keyboard-response",496,389169,"0.0-3.161-2.161","jy0po99ckc5rgql",169,"197.csv","","null","resources/images/coin2.png","null","",NA,NA,NA,NA,""
"image-keyboard-response",497,389488,"0.0-3.162-0.162","jy0po99ckc5rgql",169,"197.csv","","316.9000000357628","resources/trios/L1T4A2.jpg","37","restless",0.9,0.3,0.5,0.597776836442034,"true"
"image-keyboard-response",498,389892,"0.0-3.162-1.162","jy0po99ckc5rgql",169,"197.csv","","null","resources/maskTrios/L1BB.jpg","null","",NA,NA,NA,NA,""
"image-keyboard-response",499,391097,"0.0-3.162-2.162","jy0po99ckc5rgql",169,"197.csv","","null","resources/images/coin2.png","null","",NA,NA,NA,NA,""
"image-keyboard-response",500,391398,"0.0-3.163-0.163","jy0po99ckc5rgql",169,"197.csv","","299","resources/trios/L1T1A3.jpg","37","restless",0.9,0.3,0.5,0.129505741422609,"true"
"image-keyboard-response",501,391802,"0.0-3.163-1.163","jy0po99ckc5rgql",169,"197.csv","","null","resources/maskTrios/L1BB.jpg","null","",NA,NA,NA,NA,""
"image-keyboard-response",502,393006,"0.0-3.163-2.163","jy0po99ckc5rgql",169,"197.csv","","null","resources/images/coin2.png","null","",NA,NA,NA,NA,""
"image-keyboard-response",503,393447,"0.0-3.164-0.164","jy0po99ckc5rgql",169,"197.csv","","438.5","resources/trios/L1T1A3.jpg","37","restless",0.8,0.3,0.5,0.49440968192965,"true"
"image-keyboard-response",504,393854,"0.0-3.164-1.164","jy0po99ckc5rgql",169,"197.csv","","null","resources/maskTrios/L1BB.jpg","null","",NA,NA,NA,NA,""
"image-keyboard-response",505,395061,"0.0-3.164-2.164","jy0po99ckc5rgql",169,"197.csv","","null","resources/images/coin2.png","null","",NA,NA,NA,NA,""
"image-keyboard-response",506,395354,"0.0-3.165-0.165","jy0po99ckc5rgql",169,"197.csv","","290.4000000357628","resources/trios/L2T1A2.jpg","37","restless",0.8,0.3,0.5,0.4951877524645,"true"
"image-keyboard-response",507,395760,"0.0-3.165-1.165","jy0po99ckc5rgql",169,"197.csv","","null","resources/maskTrios/L2BB.jpg","null","",NA,NA,NA,NA,""
"image-keyboard-response",508,396966,"0.0-3.165-2.165","jy0po99ckc5rgql",169,"197.csv","","null","resources/images/coin2.png","null","",NA,NA,NA,NA,""
"image-keyboard-response",509,397259,"0.0-3.166-0.166","jy0po99ckc5rgql",169,"197.csv","","290.69999998807907","resources/trios/L2T1A3.jpg","37","restless",0.8,0.3,0.4,0.6832717753546,"true"
"image-keyboard-response",510,397663,"0.0-3.166-1.166","jy0po99ckc5rgql",169,"197.csv","","null","resources/maskTrios/L2BB.jpg","null","",NA,NA,NA,NA,""
"image-keyboard-response",511,398870,"0.0-3.166-2.166","jy0po99ckc5rgql",169,"197.csv","","null","resources/images/coin2.png","null","",NA,NA,NA,NA,""
"image-keyboard-response",512,399203,"0.0-3.167-0.167","jy0po99ckc5rgql",169,"197.csv","","330.89999997615814","resources/trios/L2T1A3.jpg","37","restless",0.8,0.3,0.4,0.852538668971791,"false"
"image-keyboard-response",513,399610,"0.0-3.167-1.167","jy0po99ckc5rgql",169,"197.csv","","null","resources/maskTrios/L2BB.jpg","null","",NA,NA,NA,NA,""
"image-keyboard-response",514,400812,"0.0-3.167-2.167","jy0po99ckc5rgql",169,"197.csv","","null","resources/images/fishbone.png","null","",NA,NA,NA,NA,""
"image-keyboard-response",515,401060,"0.0-3.168-0.168","jy0po99ckc5rgql",169,"197.csv","","245.4000000357628","resources/trios/L1T1A2.jpg","38","restless",0.9,0.3,0.5,0.996970576768383,"false"
"image-keyboard-response",516,401466,"0.0-3.168-1.168","jy0po99ckc5rgql",169,"197.csv","","null","resources/maskTrios/BT1B.jpg","null","",NA,NA,NA,NA,""
"image-keyboard-response",517,402670,"0.0-3.168-2.168","jy0po99ckc5rgql",169,"197.csv","","null","resources/images/fishbone.png","null","",NA,NA,NA,NA,""
"image-keyboard-response",518,402885,"0.0-3.169-0.169","jy0po99ckc5rgql",169,"197.csv","","213.30000001192093","resources/trios/L1T1A2.jpg","37","restless",0.9,0.3,0.5,0.358984332466242,"true"
"image-keyboard-response",519,403292,"0.0-3.169-1.169","jy0po99ckc5rgql",169,"197.csv","","null","resources/maskTrios/L1BB.jpg","null","",NA,NA,NA,NA,""
"image-keyboard-response",520,404498,"0.0-3.169-2.169","jy0po99ckc5rgql",169,"197.csv","","null","resources/images/coin2.png","null","",NA,NA,NA,NA,""
"image-keyboard-response",521,404775,"0.0-3.170-0.170","jy0po99ckc5rgql",169,"197.csv","","275.5999999642372","resources/trios/L1T1A2.jpg","37","restless",0.8,0.3,0.5,0.517258246624943,"true"
"image-keyboard-response",522,405178,"0.0-3.170-1.170","jy0po99ckc5rgql",169,"197.csv","","null","resources/maskTrios/L1BB.jpg","null","",NA,NA,NA,NA,""
"image-keyboard-response",523,406385,"0.0-3.170-2.170","jy0po99ckc5rgql",169,"197.csv","","null","resources/images/coin2.png","null","",NA,NA,NA,NA,""
"image-keyboard-response",524,406741,"0.0-3.171-0.171","jy0po99ckc5rgql",169,"197.csv","","354.39999997615814","resources/trios/L1T4A2.jpg","37","restless",0.8,0.3,0.5,0.312658302545337,"true"
"image-keyboard-response",525,407148,"0.0-3.171-1.171","jy0po99ckc5rgql",169,"197.csv","","null","resources/maskTrios/L1BB.jpg","null","",NA,NA,NA,NA,""
"image-keyboard-response",526,408354,"0.0-3.171-2.171","jy0po99ckc5rgql",169,"197.csv","","null","resources/images/coin2.png","null","",NA,NA,NA,NA,""
"image-keyboard-response",527,408760,"0.0-3.172-0.172","jy0po99ckc5rgql",169,"197.csv","","404.30000001192093","resources/trios/L1T4A2.jpg","37","restless",0.8,0.3,0.5,0.581031786357633,"true"
"image-keyboard-response",528,409167,"0.0-3.172-1.172","jy0po99ckc5rgql",169,"197.csv","","null","resources/maskTrios/L1BB.jpg","null","",NA,NA,NA,NA,""
"image-keyboard-response",529,410374,"0.0-3.172-2.172","jy0po99ckc5rgql",169,"197.csv","","null","resources/images/coin2.png","null","",NA,NA,NA,NA,""
"image-keyboard-response",530,410762,"0.0-3.173-0.173","jy0po99ckc5rgql",169,"197.csv","","386.80000001192093","resources/trios/L1T1A2.jpg","37","restless",0.8,0.3,0.5,0.138614755901804,"true"
"image-keyboard-response",531,411168,"0.0-3.173-1.173","jy0po99ckc5rgql",169,"197.csv","","null","resources/maskTrios/L1BB.jpg","null","",NA,NA,NA,NA,""
"image-keyboard-response",532,412370,"0.0-3.173-2.173","jy0po99ckc5rgql",169,"197.csv","","null","resources/images/coin2.png","null","",NA,NA,NA,NA,""
"image-keyboard-response",533,412946,"0.0-3.174-0.174","jy0po99ckc5rgql",169,"197.csv","","574.1000000238419","resources/trios/L2T4A3.jpg","37","restless",0.8,0.3,0.5,0.366409897097257,"true"
"image-keyboard-response",534,413351,"0.0-3.174-1.174","jy0po99ckc5rgql",169,"197.csv","","null","resources/maskTrios/L2BB.jpg","null","",NA,NA,NA,NA,""
"image-keyboard-response",535,414558,"0.0-3.174-2.174","jy0po99ckc5rgql",169,"197.csv","","null","resources/images/coin2.png","null","",NA,NA,NA,NA,""
"image-keyboard-response",536,414923,"0.0-3.175-0.175","jy0po99ckc5rgql",169,"197.csv","","363.5999999642372","resources/trios/L2T1A3.jpg","37","restless",0.8,0.3,0.4,0.170459583522326,"true"
"image-keyboard-response",537,415330,"0.0-3.175-1.175","jy0po99ckc5rgql",169,"197.csv","","null","resources/maskTrios/L2BB.jpg","null","",NA,NA,NA,NA,""
"image-keyboard-response",538,416536,"0.0-3.175-2.175","jy0po99ckc5rgql",169,"197.csv","","null","resources/images/coin2.png","null","",NA,NA,NA,NA,""
"image-keyboard-response",539,417026,"0.0-3.176-0.176","jy0po99ckc5rgql",169,"197.csv","","488.30000001192093","resources/trios/L1T1A3.jpg","37","restless",0.8,0.3,0.4,0.0665897628268455,"true"
"image-keyboard-response",540,417433,"0.0-3.176-1.176","jy0po99ckc5rgql",169,"197.csv","","null","resources/maskTrios/L1BB.jpg","null","",NA,NA,NA,NA,""
"image-keyboard-response",541,418638,"0.0-3.176-2.176","jy0po99ckc5rgql",169,"197.csv","","null","resources/images/coin2.png","null","",NA,NA,NA,NA,""
"image-keyboard-response",542,418973,"0.0-3.177-0.177","jy0po99ckc5rgql",169,"197.csv","","333.30000001192093","resources/trios/L2T4A3.jpg","37","restless",0.8,0.3,0.4,0.867033633654631,"false"
"image-keyboard-response",543,419377,"0.0-3.177-1.177","jy0po99ckc5rgql",169,"197.csv","","null","resources/maskTrios/L2BB.jpg","null","",NA,NA,NA,NA,""
"image-keyboard-response",544,420581,"0.0-3.177-2.177","jy0po99ckc5rgql",169,"197.csv","","null","resources/images/fishbone.png","null","",NA,NA,NA,NA,""
"image-keyboard-response",545,421048,"0.0-3.178-0.178","jy0po99ckc5rgql",169,"197.csv","","465.7999999523163","resources/trios/L1T4A3.jpg","37","restless",0.8,0.3,0.4,0.26511890061115,"true"
"image-keyboard-response",546,421453,"0.0-3.178-1.178","jy0po99ckc5rgql",169,"197.csv","","null","resources/maskTrios/L1BB.jpg","null","",NA,NA,NA,NA,""
"image-keyboard-response",547,422660,"0.0-3.178-2.178","jy0po99ckc5rgql",169,"197.csv","","null","resources/images/coin2.png","null","",NA,NA,NA,NA,""
"image-keyboard-response",548,423024,"0.0-3.179-0.179","jy0po99ckc5rgql",169,"197.csv","","362.69999998807907","resources/trios/L2T4A2.jpg","37","restless",0.8,0.3,0.4,0.33718689128167,"true"
"image-keyboard-response",549,423428,"0.0-3.179-1.179","jy0po99ckc5rgql",169,"197.csv","","null","resources/maskTrios/L2BB.jpg","null","",NA,NA,NA,NA,""
"image-keyboard-response",550,424634,"0.0-3.179-2.179","jy0po99ckc5rgql",169,"197.csv","","null","resources/images/coin2.png","null","",NA,NA,NA,NA,""
"image-keyboard-response",551,424996,"0.0-3.180-0.180","jy0po99ckc5rgql",169,"197.csv","","360.80000001192093","resources/trios/L1T1A2.jpg","37","restless",0.8,0.2,0.4,0.960999451011912,"false"
"image-keyboard-response",552,425400,"0.0-3.180-1.180","jy0po99ckc5rgql",169,"197.csv","","null","resources/maskTrios/L1BB.jpg","null","",NA,NA,NA,NA,""
"image-keyboard-response",553,426606,"0.0-3.180-2.180","jy0po99ckc5rgql",169,"197.csv","","null","resources/images/fishbone.png","null","",NA,NA,NA,NA,""
"image-keyboard-response",554,426814,"0.0-3.181-0.181","jy0po99ckc5rgql",169,"197.csv","","206.5","resources/trios/L2T1A2.jpg","37","restless",0.8,0.2,0.4,0.46959500429454,"true"
"image-keyboard-response",555,427219,"0.0-3.181-1.181","jy0po99ckc5rgql",169,"197.csv","","null","resources/maskTrios/L2BB.jpg","null","",NA,NA,NA,NA,""
"image-keyboard-response",556,428425,"0.0-3.181-2.181","jy0po99ckc5rgql",169,"197.csv","","null","resources/images/coin2.png","null","",NA,NA,NA,NA,""
"image-keyboard-response",557,428859,"0.0-3.182-0.182","jy0po99ckc5rgql",169,"197.csv","","432.60000002384186","resources/trios/L1T4A2.jpg","37","restless",0.8,0.2,0.4,0.360074406345762,"true"
"image-keyboard-response",558,429262,"0.0-3.182-1.182","jy0po99ckc5rgql",169,"197.csv","","null","resources/maskTrios/L1BB.jpg","null","",NA,NA,NA,NA,""
"image-keyboard-response",559,430466,"0.0-3.182-2.182","jy0po99ckc5rgql",169,"197.csv","","null","resources/images/coin2.png","null","",NA,NA,NA,NA,""
"image-keyboard-response",560,430819,"0.0-3.183-0.183","jy0po99ckc5rgql",169,"197.csv","","350.7999999523163","resources/trios/L1T1A3.jpg","37","restless",0.8,0.2,0.4,0.337351126086024,"true"
"image-keyboard-response",561,431224,"0.0-3.183-1.183","jy0po99ckc5rgql",169,"197.csv","","null","resources/maskTrios/L1BB.jpg","null","",NA,NA,NA,NA,""
"image-keyboard-response",562,432428,"0.0-3.183-2.183","jy0po99ckc5rgql",169,"197.csv","","null","resources/images/coin2.png","null","",NA,NA,NA,NA,""
"image-keyboard-response",563,432867,"0.0-3.184-0.184","jy0po99ckc5rgql",169,"197.csv","","437.5","resources/trios/L2T1A3.jpg","37","restless",0.8,0.1,0.4,0.441629280971454,"true"
"image-keyboard-response",564,433271,"0.0-3.184-1.184","jy0po99ckc5rgql",169,"197.csv","","null","resources/maskTrios/L2BB.jpg","null","",NA,NA,NA,NA,""
"image-keyboard-response",565,434477,"0.0-3.184-2.184","jy0po99ckc5rgql",169,"197.csv","","null","resources/images/coin2.png","null","",NA,NA,NA,NA,""
"image-keyboard-response",566,435063,"0.0-3.185-0.185","jy0po99ckc5rgql",169,"197.csv","","584.6999999880791","resources/trios/L1T4A3.jpg","37","restless",0.8,0.1,0.4,0.104907564671327,"true"
"image-keyboard-response",567,435468,"0.0-3.185-1.185","jy0po99ckc5rgql",169,"197.csv","","null","resources/maskTrios/L1BB.jpg","null","",NA,NA,NA,NA,""
"image-keyboard-response",568,436675,"0.0-3.185-2.185","jy0po99ckc5rgql",169,"197.csv","","null","resources/images/coin2.png","null","",NA,NA,NA,NA,""
"image-keyboard-response",569,437057,"0.0-3.186-0.186","jy0po99ckc5rgql",169,"197.csv","","380.69999998807907","resources/trios/L1T4A2.jpg","37","restless",0.8,0.1,0.4,0.155136347935528,"true"
"image-keyboard-response",570,437464,"0.0-3.186-1.186","jy0po99ckc5rgql",169,"197.csv","","null","resources/maskTrios/L1BB.jpg","null","",NA,NA,NA,NA,""
"image-keyboard-response",571,438671,"0.0-3.186-2.186","jy0po99ckc5rgql",169,"197.csv","","null","resources/images/coin2.png","null","",NA,NA,NA,NA,""
"image-keyboard-response",572,439035,"0.0-3.187-0.187","jy0po99ckc5rgql",169,"197.csv","","362.5999999642372","resources/trios/L1T4A2.jpg","37","restless",0.7,0.1,0.4,0.91418265389678,"false"
"image-keyboard-response",573,439440,"0.0-3.187-1.187","jy0po99ckc5rgql",169,"197.csv","","null","resources/maskTrios/L1BB.jpg","null","",NA,NA,NA,NA,""
"image-keyboard-response",574,440642,"0.0-3.187-2.187","jy0po99ckc5rgql",169,"197.csv","","null","resources/images/fishbone.png","null","",NA,NA,NA,NA,""
"image-keyboard-response",575,440953,"0.0-3.188-0.188","jy0po99ckc5rgql",169,"197.csv","","309.39999997615814","resources/trios/L1T1A2.jpg","37","restless",0.7,0.1,0.4,0.625604887594618,"true"
"image-keyboard-response",576,441356,"0.0-3.188-1.188","jy0po99ckc5rgql",169,"197.csv","","null","resources/maskTrios/L1BB.jpg","null","",NA,NA,NA,NA,""
"image-keyboard-response",577,442562,"0.0-3.188-2.188","jy0po99ckc5rgql",169,"197.csv","","null","resources/images/coin2.png","null","",NA,NA,NA,NA,""
"image-keyboard-response",578,443029,"0.0-3.189-0.189","jy0po99ckc5rgql",169,"197.csv","","464.80000001192093","resources/trios/L1T4A3.jpg","37","restless",0.7,0.1,0.4,0.878796496873508,"false"
"image-keyboard-response",579,443431,"0.0-3.189-1.189","jy0po99ckc5rgql",169,"197.csv","","null","resources/maskTrios/L1BB.jpg","null","",NA,NA,NA,NA,""
"image-keyboard-response",580,444636,"0.0-3.189-2.189","jy0po99ckc5rgql",169,"197.csv","","null","resources/images/fishbone.png","null","",NA,NA,NA,NA,""
"image-keyboard-response",581,444953,"0.0-3.190-0.190","jy0po99ckc5rgql",169,"197.csv","","316.80000001192093","resources/trios/L1T1A3.jpg","38","restless",0.7,0.1,0.4,0.281132576322539,"false"
"image-keyboard-response",582,445359,"0.0-3.190-1.190","jy0po99ckc5rgql",169,"197.csv","","null","resources/maskTrios/BT1B.jpg","null","",NA,NA,NA,NA,""
"image-keyboard-response",583,446566,"0.0-3.190-2.190","jy0po99ckc5rgql",169,"197.csv","","null","resources/images/fishbone.png","null","",NA,NA,NA,NA,""
"image-keyboard-response",584,446704,"0.0-3.191-0.191","jy0po99ckc5rgql",169,"197.csv","","137.19999998807907","resources/trios/L1T4A2.jpg","39","restless",0.7,0.1,0.4,0.108604002329422,"true"
"image-keyboard-response",585,447109,"0.0-3.191-1.191","jy0po99ckc5rgql",169,"197.csv","","null","resources/maskTrios/BBA2.jpg","null","",NA,NA,NA,NA,""
"image-keyboard-response",586,448316,"0.0-3.191-2.191","jy0po99ckc5rgql",169,"197.csv","","null","resources/images/coin2.png","null","",NA,NA,NA,NA,""
"image-keyboard-response",587,448575,"0.0-3.192-0.192","jy0po99ckc5rgql",169,"197.csv","","257.60000002384186","resources/trios/L2T4A2.jpg","39","restless",0.7,0.1,0.4,0.869021230703519,"false"
"image-keyboard-response",588,448980,"0.0-3.192-1.192","jy0po99ckc5rgql",169,"197.csv","","null","resources/maskTrios/BBA2.jpg","null","",NA,NA,NA,NA,""
"image-keyboard-response",589,450182,"0.0-3.192-2.192","jy0po99ckc5rgql",169,"197.csv","","null","resources/images/fishbone.png","null","",NA,NA,NA,NA,""
"image-keyboard-response",590,450437,"0.0-3.193-0.193","jy0po99ckc5rgql",169,"197.csv","","253.5","resources/trios/L1T4A3.jpg","37","restless",0.7,0.1,0.4,0.962420597902319,"false"
"image-keyboard-response",591,450843,"0.0-3.193-1.193","jy0po99ckc5rgql",169,"197.csv","","null","resources/maskTrios/L1BB.jpg","null","",NA,NA,NA,NA,""
"image-keyboard-response",592,452049,"0.0-3.193-2.193","jy0po99ckc5rgql",169,"197.csv","","null","resources/images/fishbone.png","null","",NA,NA,NA,NA,""
"image-keyboard-response",593,452270,"0.0-3.194-0.194","jy0po99ckc5rgql",169,"197.csv","","218.80000001192093","resources/trios/L2T1A2.jpg","39","restless",0.7,0.1,0.4,0.304690870371936,"true"
"image-keyboard-response",594,452675,"0.0-3.194-1.194","jy0po99ckc5rgql",169,"197.csv","","null","resources/maskTrios/BBA2.jpg","null","",NA,NA,NA,NA,""
"image-keyboard-response",595,453879,"0.0-3.194-2.194","jy0po99ckc5rgql",169,"197.csv","","null","resources/images/coin2.png","null","",NA,NA,NA,NA,""
"image-keyboard-response",596,454201,"0.0-3.195-0.195","jy0po99ckc5rgql",169,"197.csv","","320.2999999523163","resources/trios/L1T4A2.jpg","39","restless",0.7,0.1,0.4,0.60166978602419,"false"
"image-keyboard-response",597,454604,"0.0-3.195-1.195","jy0po99ckc5rgql",169,"197.csv","","null","resources/maskTrios/BBA2.jpg","null","",NA,NA,NA,NA,""
"image-keyboard-response",598,455811,"0.0-3.195-2.195","jy0po99ckc5rgql",169,"197.csv","","null","resources/images/fishbone.png","null","",NA,NA,NA,NA,""
"image-keyboard-response",599,456198,"0.0-3.196-0.196","jy0po99ckc5rgql",169,"197.csv","","385.0999999642372","resources/trios/L1T4A2.jpg","37","restless",0.7,0.1,0.4,0.515297918659387,"true"
"image-keyboard-response",600,456605,"0.0-3.196-1.196","jy0po99ckc5rgql",169,"197.csv","","null","resources/maskTrios/L1BB.jpg","null","",NA,NA,NA,NA,""
"image-keyboard-response",601,457811,"0.0-3.196-2.196","jy0po99ckc5rgql",169,"197.csv","","null","resources/images/coin2.png","null","",NA,NA,NA,NA,""
"image-keyboard-response",602,458551,"0.0-3.197-0.197","jy0po99ckc5rgql",169,"197.csv","","737.1999999880791","resources/trios/L1T1A2.jpg","37","restless",0.7,0.1,0.5,0.863493582897189,"false"
"image-keyboard-response",603,458958,"0.0-3.197-1.197","jy0po99ckc5rgql",169,"197.csv","","null","resources/maskTrios/L1BB.jpg","null","",NA,NA,NA,NA,""
"image-keyboard-response",604,460163,"0.0-3.197-2.197","jy0po99ckc5rgql",169,"197.csv","","null","resources/images/fishbone.png","null","",NA,NA,NA,NA,""
"image-keyboard-response",605,460494,"0.0-3.198-0.198","jy0po99ckc5rgql",169,"197.csv","","328.5","resources/trios/L2T1A3.jpg","39","restless",0.7,0.1,0.5,0.903854962730866,"false"
"image-keyboard-response",606,460900,"0.0-3.198-1.198","jy0po99ckc5rgql",169,"197.csv","","null","resources/maskTrios/BBA3.jpg","null","",NA,NA,NA,NA,""
