"trial_type","trial_index","time_elapsed","internal_node_id","subject","participantCode","walkNumber","success","rt","stimulus","key_press","test_part","leftProb","midProb","rightProb","generatedNum","correct"
"pavlovia",0,1070,"0.0-0.0","t1m87ukxkyw5atc",854,"50.csv","","","","","",NA,NA,NA,NA,""
"fullscreen",1,7984,"0.0-1.0","t1m87ukxkyw5atc",854,"50.csv","true","","","","",NA,NA,NA,NA,""
"html-keyboard-response",2,16940,"0.0-2.0-0.0","t1m87ukxkyw5atc",854,"50.csv","","8953.59999999404","<p><font size='6'>Arrrgh!</p></font><p>Can you be the best pirate? Try to find lots of gold! But beware, some islands have more gold than others, and over time, the island with the most gold may change. Can YOU figure it out? </p><font size='6'>GOOD LUCK, CAPTAIN!!!</font><p>Press any key to begin</p>","32","",NA,NA,NA,NA,""
"image-keyboard-response",3,19947,"0.0-2.0-1.0","t1m87ukxkyw5atc",854,"50.csv","","null","resources/image_sets/111.png","null","",NA,NA,NA,NA,""
"image-keyboard-response",4,24117,"0.0-2.0-2.0","t1m87ukxkyw5atc",854,"50.csv","","4168.199999988079","resources/image_sets/left_highlight.png","37","",NA,NA,NA,NA,""
"image-keyboard-response",5,27884,"0.0-2.0-3.0","t1m87ukxkyw5atc",854,"50.csv","","3765.4000000059605","resources/image_sets/mid_highlight.png","38","",NA,NA,NA,NA,""
"image-keyboard-response",6,32333,"0.0-2.0-4.0","t1m87ukxkyw5atc",854,"50.csv","","4447.4000000059605","resources/image_sets/right_highlight.png","39","",NA,NA,NA,NA,""
"image-keyboard-response",7,36292,"0.0-2.0-5.0","t1m87ukxkyw5atc",854,"50.csv","","3957.9000000059605","resources/image_sets/111.png","13","",NA,NA,NA,NA,""
"image-keyboard-response",8,41039,"0.0-2.0-6.0","t1m87ukxkyw5atc",854,"50.csv","","4746.800000011921","resources/images/coin2.png","13","",NA,NA,NA,NA,""
"image-keyboard-response",9,42873,"0.0-2.0-7.0","t1m87ukxkyw5atc",854,"50.csv","","1833.8999999761581","resources/images/fishbone.png","13","",NA,NA,NA,NA,""
"html-keyboard-response",10,47572,"0.0-2.0-8.0","t1m87ukxkyw5atc",854,"50.csv","","4698.300000011921","<p>Your first journey will be a long one, but you will get a well deserved break at the end</p><p>After the break you will have four more journeys, but each will be much shorter than the first, and you will have breaks in between each</p><p>Press Enter to begin</p>","13","",NA,NA,NA,NA,""
"image-keyboard-response",11,51184,"0.0-3.0-0.0","t1m87ukxkyw5atc",854,"50.csv","","3610.399999976158","resources/trios/L2T4A2.jpg","37","restless",0.9,0.3,0.7,0.748396320530134,"true"
"image-keyboard-response",12,51598,"0.0-3.0-1.0","t1m87ukxkyw5atc",854,"50.csv","","null","resources/maskTrios/L2BB.jpg","null","",NA,NA,NA,NA,""
"image-keyboard-response",13,52810,"0.0-3.0-2.0","t1m87ukxkyw5atc",854,"50.csv","","null","resources/images/coin2.png","null","",NA,NA,NA,NA,""
"image-keyboard-response",14,56275,"0.0-3.1-0.1","t1m87ukxkyw5atc",854,"50.csv","","3462.699999988079","resources/trios/L2T4A2.jpg","37","restless",0.9,0.3,0.7,0.890866586866857,"true"
"image-keyboard-response",15,56682,"0.0-3.1-1.1","t1m87ukxkyw5atc",854,"50.csv","","null","resources/maskTrios/L2BB.jpg","null","",NA,NA,NA,NA,""
"image-keyboard-response",16,57890,"0.0-3.1-2.1","t1m87ukxkyw5atc",854,"50.csv","","null","resources/images/coin2.png","null","",NA,NA,NA,NA,""
"image-keyboard-response",17,61385,"0.0-3.2-0.2","t1m87ukxkyw5atc",854,"50.csv","","3489.4000000059605","resources/trios/L1T2A1.jpg","38","restless",0.8,0.3,0.7,0.992198839869789,"false"
"image-keyboard-response",18,61791,"0.0-3.2-1.2","t1m87ukxkyw5atc",854,"50.csv","","null","resources/maskTrios/BT2B.jpg","null","",NA,NA,NA,NA,""
"image-keyboard-response",19,63010,"0.0-3.2-2.2","t1m87ukxkyw5atc",854,"50.csv","","null","resources/images/fishbone.png","null","",NA,NA,NA,NA,""
"image-keyboard-response",20,64360,"0.0-3.3-0.3","t1m87ukxkyw5atc",854,"50.csv","","1349.2999999821186","resources/trios/L1T4A1.jpg","37","restless",0.8,0.3,0.7,0.255461081496843,"true"
"image-keyboard-response",21,64769,"0.0-3.3-1.3","t1m87ukxkyw5atc",854,"50.csv","","null","resources/maskTrios/L1BB.jpg","null","",NA,NA,NA,NA,""
"image-keyboard-response",22,65981,"0.0-3.3-2.3","t1m87ukxkyw5atc",854,"50.csv","","null","resources/images/coin2.png","null","",NA,NA,NA,NA,""
"image-keyboard-response",23,67135,"0.0-3.4-0.4","t1m87ukxkyw5atc",854,"50.csv","","1152.5","resources/trios/L2T2A1.jpg","37","restless",0.8,0.2,0.7,0.40735716333903,"true"
"image-keyboard-response",24,67548,"0.0-3.4-1.4","t1m87ukxkyw5atc",854,"50.csv","","null","resources/maskTrios/L2BB.jpg","null","",NA,NA,NA,NA,""
"image-keyboard-response",25,68771,"0.0-3.4-2.4","t1m87ukxkyw5atc",854,"50.csv","","null","resources/images/coin2.png","null","",NA,NA,NA,NA,""
"image-keyboard-response",26,69140,"0.0-3.5-0.5","t1m87ukxkyw5atc",854,"50.csv","","367.89999997615814","resources/trios/L2T2A1.jpg","37","restless",0.8,0.2,0.7,0.14944314522265,"true"
"image-keyboard-response",27,69559,"0.0-3.5-1.5","t1m87ukxkyw5atc",854,"50.csv","","null","resources/maskTrios/L2BB.jpg","null","",NA,NA,NA,NA,""
"image-keyboard-response",28,70779,"0.0-3.5-2.5","t1m87ukxkyw5atc",854,"50.csv","","null","resources/images/coin2.png","null","",NA,NA,NA,NA,""
"image-keyboard-response",29,71732,"0.0-3.6-0.6","t1m87ukxkyw5atc",854,"50.csv","","951.5","resources/trios/L1T2A2.jpg","37","restless",0.8,0.2,0.7,0.777386774845191,"true"
"image-keyboard-response",30,72144,"0.0-3.6-1.6","t1m87ukxkyw5atc",854,"50.csv","","null","resources/maskTrios/L1BB.jpg","null","",NA,NA,NA,NA,""
"image-keyboard-response",31,73359,"0.0-3.6-2.6","t1m87ukxkyw5atc",854,"50.csv","","null","resources/images/coin2.png","null","",NA,NA,NA,NA,""
"image-keyboard-response",32,73796,"0.0-3.7-0.7","t1m87ukxkyw5atc",854,"50.csv","","435.69999998807907","resources/trios/L1T4A1.jpg","37","restless",0.8,0.2,0.7,0.186002557391145,"true"
"image-keyboard-response",33,74205,"0.0-3.7-1.7","t1m87ukxkyw5atc",854,"50.csv","","null","resources/maskTrios/L1BB.jpg","null","",NA,NA,NA,NA,""
"image-keyboard-response",34,75420,"0.0-3.7-2.7","t1m87ukxkyw5atc",854,"50.csv","","null","resources/images/coin2.png","null","",NA,NA,NA,NA,""
"image-keyboard-response",35,75820,"0.0-3.8-0.8","t1m87ukxkyw5atc",854,"50.csv","","399.09999999403954","resources/trios/L1T4A2.jpg","37","restless",0.8,0.2,0.7,0.410153759044094,"true"
"image-keyboard-response",36,76239,"0.0-3.8-1.8","t1m87ukxkyw5atc",854,"50.csv","","null","resources/maskTrios/L1BB.jpg","null","",NA,NA,NA,NA,""
"image-keyboard-response",37,77458,"0.0-3.8-2.8","t1m87ukxkyw5atc",854,"50.csv","","null","resources/images/coin2.png","null","",NA,NA,NA,NA,""
"image-keyboard-response",38,77981,"0.0-3.9-0.9","t1m87ukxkyw5atc",854,"50.csv","","521.4000000059605","resources/trios/L1T2A2.jpg","37","restless",0.8,0.2,0.6,0.887688585536169,"false"
"image-keyboard-response",39,78404,"0.0-3.9-1.9","t1m87ukxkyw5atc",854,"50.csv","","null","resources/maskTrios/L1BB.jpg","null","",NA,NA,NA,NA,""
"image-keyboard-response",40,79617,"0.0-3.9-2.9","t1m87ukxkyw5atc",854,"50.csv","","null","resources/images/fishbone.png","null","",NA,NA,NA,NA,""
"image-keyboard-response",41,80416,"0.0-3.10-0.10","t1m87ukxkyw5atc",854,"50.csv","","797.8000000119209","resources/trios/L2T2A2.jpg","37","restless",0.8,0.2,0.6,0.552024349760861,"true"
"image-keyboard-response",42,80827,"0.0-3.10-1.10","t1m87ukxkyw5atc",854,"50.csv","","null","resources/maskTrios/L2BB.jpg","null","",NA,NA,NA,NA,""
"image-keyboard-response",43,82037,"0.0-3.10-2.10","t1m87ukxkyw5atc",854,"50.csv","","null","resources/images/coin2.png","null","",NA,NA,NA,NA,""
"image-keyboard-response",44,84568,"0.0-3.11-0.11","t1m87ukxkyw5atc",854,"50.csv","","2529","resources/trios/L1T2A1.jpg","37","restless",0.7,0.2,0.6,0.6244635827199,"true"
"image-keyboard-response",45,84980,"0.0-3.11-1.11","t1m87ukxkyw5atc",854,"50.csv","","null","resources/maskTrios/L1BB.jpg","null","",NA,NA,NA,NA,""
"image-keyboard-response",46,86192,"0.0-3.11-2.11","t1m87ukxkyw5atc",854,"50.csv","","null","resources/images/coin2.png","null","",NA,NA,NA,NA,""
"image-keyboard-response",47,86782,"0.0-3.12-0.12","t1m87ukxkyw5atc",854,"50.csv","","588.4000000059605","resources/trios/L1T2A2.jpg","37","restless",0.7,0.2,0.6,0.660238644925777,"true"
"image-keyboard-response",48,87190,"0.0-3.12-1.12","t1m87ukxkyw5atc",854,"50.csv","","null","resources/maskTrios/L1BB.jpg","null","",NA,NA,NA,NA,""
"image-keyboard-response",49,88408,"0.0-3.12-2.12","t1m87ukxkyw5atc",854,"50.csv","","null","resources/images/coin2.png","null","",NA,NA,NA,NA,""
"image-keyboard-response",50,88817,"0.0-3.13-0.13","t1m87ukxkyw5atc",854,"50.csv","","408","resources/trios/L2T4A2.jpg","37","restless",0.7,0.2,0.6,0.0732701411262004,"true"
"image-keyboard-response",51,89228,"0.0-3.13-1.13","t1m87ukxkyw5atc",854,"50.csv","","null","resources/maskTrios/L2BB.jpg","null","",NA,NA,NA,NA,""
"image-keyboard-response",52,90445,"0.0-3.13-2.13","t1m87ukxkyw5atc",854,"50.csv","","null","resources/images/coin2.png","null","",NA,NA,NA,NA,""
"image-keyboard-response",53,90897,"0.0-3.14-0.14","t1m87ukxkyw5atc",854,"50.csv","","451.09999999403954","resources/trios/L2T4A2.jpg","37","restless",0.7,0.2,0.6,0.136044263775741,"true"
"image-keyboard-response",54,91315,"0.0-3.14-1.14","t1m87ukxkyw5atc",854,"50.csv","","null","resources/maskTrios/L2BB.jpg","null","",NA,NA,NA,NA,""
"image-keyboard-response",55,92528,"0.0-3.14-2.14","t1m87ukxkyw5atc",854,"50.csv","","null","resources/images/coin2.png","null","",NA,NA,NA,NA,""
"image-keyboard-response",56,93257,"0.0-3.15-0.15","t1m87ukxkyw5atc",854,"50.csv","","728.2000000178814","resources/trios/L2T4A1.jpg","37","restless",0.7,0.2,0.6,0.498023238421193,"true"
"image-keyboard-response",57,93674,"0.0-3.15-1.15","t1m87ukxkyw5atc",854,"50.csv","","null","resources/maskTrios/L2BB.jpg","null","",NA,NA,NA,NA,""
"image-keyboard-response",58,94878,"0.0-3.15-2.15","t1m87ukxkyw5atc",854,"50.csv","","null","resources/images/coin2.png","null","",NA,NA,NA,NA,""
"image-keyboard-response",59,96163,"0.0-3.16-0.16","t1m87ukxkyw5atc",854,"50.csv","","1283.9000000059605","resources/trios/L1T2A1.jpg","37","restless",0.7,0.2,0.6,0.505175205337604,"true"
"image-keyboard-response",60,96585,"0.0-3.16-1.16","t1m87ukxkyw5atc",854,"50.csv","","null","resources/maskTrios/L1BB.jpg","null","",NA,NA,NA,NA,""
"image-keyboard-response",61,97792,"0.0-3.16-2.16","t1m87ukxkyw5atc",854,"50.csv","","null","resources/images/coin2.png","null","",NA,NA,NA,NA,""
"image-keyboard-response",62,98323,"0.0-3.17-0.17","t1m87ukxkyw5atc",854,"50.csv","","529","resources/trios/L1T2A2.jpg","37","restless",0.7,0.2,0.6,0.814853346973784,"false"
"image-keyboard-response",63,98735,"0.0-3.17-1.17","t1m87ukxkyw5atc",854,"50.csv","","null","resources/maskTrios/L1BB.jpg","null","",NA,NA,NA,NA,""
"image-keyboard-response",64,99948,"0.0-3.17-2.17","t1m87ukxkyw5atc",854,"50.csv","","null","resources/images/fishbone.png","null","",NA,NA,NA,NA,""
"image-keyboard-response",65,102493,"0.0-3.18-0.18","t1m87ukxkyw5atc",854,"50.csv","","2544","resources/trios/L2T2A2.jpg","37","restless",0.7,0.2,0.6,0.645892487899185,"true"
"image-keyboard-response",66,102911,"0.0-3.18-1.18","t1m87ukxkyw5atc",854,"50.csv","","null","resources/maskTrios/L2BB.jpg","null","",NA,NA,NA,NA,""
"image-keyboard-response",67,104117,"0.0-3.18-2.18","t1m87ukxkyw5atc",854,"50.csv","","null","resources/images/coin2.png","null","",NA,NA,NA,NA,""
"image-keyboard-response",68,105039,"0.0-3.19-0.19","t1m87ukxkyw5atc",854,"50.csv","","920.6000000238419","resources/trios/L1T2A2.jpg","37","restless",0.7,0.3,0.6,0.621053836104696,"true"
"image-keyboard-response",69,105450,"0.0-3.19-1.19","t1m87ukxkyw5atc",854,"50.csv","","null","resources/maskTrios/L1BB.jpg","null","",NA,NA,NA,NA,""
"image-keyboard-response",70,106664,"0.0-3.19-2.19","t1m87ukxkyw5atc",854,"50.csv","","null","resources/images/coin2.png","null","",NA,NA,NA,NA,""
"image-keyboard-response",71,111175,"0.0-3.20-0.20","t1m87ukxkyw5atc",854,"50.csv","","4509.5","resources/trios/L1T4A2.jpg","37","restless",0.7,0.3,0.6,0.736151034876687,"false"
"image-keyboard-response",72,111584,"0.0-3.20-1.20","t1m87ukxkyw5atc",854,"50.csv","","null","resources/maskTrios/L1BB.jpg","null","",NA,NA,NA,NA,""
"image-keyboard-response",73,112793,"0.0-3.20-2.20","t1m87ukxkyw5atc",854,"50.csv","","null","resources/images/fishbone.png","null","",NA,NA,NA,NA,""
"image-keyboard-response",74,115049,"0.0-3.21-0.21","t1m87ukxkyw5atc",854,"50.csv","","2253.800000011921","resources/trios/L1T4A2.jpg","38","restless",0.7,0.3,0.6,0.820839661960841,"false"
"image-keyboard-response",75,115465,"0.0-3.21-1.21","t1m87ukxkyw5atc",854,"50.csv","","null","resources/maskTrios/BT4B.jpg","null","",NA,NA,NA,NA,""
"image-keyboard-response",76,116669,"0.0-3.21-2.21","t1m87ukxkyw5atc",854,"50.csv","","null","resources/images/fishbone.png","null","",NA,NA,NA,NA,""
"image-keyboard-response",77,117019,"0.0-3.22-0.22","t1m87ukxkyw5atc",854,"50.csv","","348.59999999403954","resources/trios/L1T4A2.jpg","37","restless",0.7,0.3,0.6,0.621938117302364,"true"
"image-keyboard-response",78,117440,"0.0-3.22-1.22","t1m87ukxkyw5atc",854,"50.csv","","null","resources/maskTrios/L1BB.jpg","null","",NA,NA,NA,NA,""
"image-keyboard-response",79,118645,"0.0-3.22-2.22","t1m87ukxkyw5atc",854,"50.csv","","null","resources/images/coin2.png","null","",NA,NA,NA,NA,""
"image-keyboard-response",80,119355,"0.0-3.23-0.23","t1m87ukxkyw5atc",854,"50.csv","","709.0999999940395","resources/trios/L2T2A2.jpg","37","restless",0.7,0.3,0.6,0.14404060709136,"true"
"image-keyboard-response",81,119766,"0.0-3.23-1.23","t1m87ukxkyw5atc",854,"50.csv","","null","resources/maskTrios/L2BB.jpg","null","",NA,NA,NA,NA,""
"image-keyboard-response",82,120984,"0.0-3.23-2.23","t1m87ukxkyw5atc",854,"50.csv","","null","resources/images/coin2.png","null","",NA,NA,NA,NA,""
"image-keyboard-response",83,121774,"0.0-3.24-0.24","t1m87ukxkyw5atc",854,"50.csv","","789.9000000059605","resources/trios/L2T4A1.jpg","37","restless",0.7,0.3,0.6,0.412899821062323,"true"
"image-keyboard-response",84,122186,"0.0-3.24-1.24","t1m87ukxkyw5atc",854,"50.csv","","null","resources/maskTrios/L2BB.jpg","null","",NA,NA,NA,NA,""
"image-keyboard-response",85,123401,"0.0-3.24-2.24","t1m87ukxkyw5atc",854,"50.csv","","null","resources/images/coin2.png","null","",NA,NA,NA,NA,""
"image-keyboard-response",86,124184,"0.0-3.25-0.25","t1m87ukxkyw5atc",854,"50.csv","","781.6999999880791","resources/trios/L1T2A2.jpg","37","restless",0.7,0.3,0.6,0.176585002063379,"true"
"image-keyboard-response",87,124590,"0.0-3.25-1.25","t1m87ukxkyw5atc",854,"50.csv","","null","resources/maskTrios/L1BB.jpg","null","",NA,NA,NA,NA,""
"image-keyboard-response",88,125797,"0.0-3.25-2.25","t1m87ukxkyw5atc",854,"50.csv","","null","resources/images/coin2.png","null","",NA,NA,NA,NA,""
"image-keyboard-response",89,126280,"0.0-3.26-0.26","t1m87ukxkyw5atc",854,"50.csv","","480.60000002384186","resources/trios/L2T4A1.jpg","37","restless",0.7,0.3,0.6,0.762502319532002,"false"
"image-keyboard-response",90,126691,"0.0-3.26-1.26","t1m87ukxkyw5atc",854,"50.csv","","null","resources/maskTrios/L2BB.jpg","null","",NA,NA,NA,NA,""
"image-keyboard-response",91,127907,"0.0-3.26-2.26","t1m87ukxkyw5atc",854,"50.csv","","null","resources/images/fishbone.png","null","",NA,NA,NA,NA,""
"image-keyboard-response",92,128730,"0.0-3.27-0.27","t1m87ukxkyw5atc",854,"50.csv","","821.0999999940395","resources/trios/L2T2A2.jpg","37","restless",0.7,0.3,0.6,0.712467302815958,"false"
"image-keyboard-response",93,129144,"0.0-3.27-1.27","t1m87ukxkyw5atc",854,"50.csv","","null","resources/maskTrios/L2BB.jpg","null","",NA,NA,NA,NA,""
"image-keyboard-response",94,130350,"0.0-3.27-2.27","t1m87ukxkyw5atc",854,"50.csv","","null","resources/images/fishbone.png","null","",NA,NA,NA,NA,""
"image-keyboard-response",95,131175,"0.0-3.28-0.28","t1m87ukxkyw5atc",854,"50.csv","","823.5999999940395","resources/trios/L1T4A2.jpg","37","restless",0.7,0.4,0.5,0.573154495886295,"true"
"image-keyboard-response",96,131583,"0.0-3.28-1.28","t1m87ukxkyw5atc",854,"50.csv","","null","resources/maskTrios/L1BB.jpg","null","",NA,NA,NA,NA,""
"image-keyboard-response",97,132793,"0.0-3.28-2.28","t1m87ukxkyw5atc",854,"50.csv","","null","resources/images/coin2.png","null","",NA,NA,NA,NA,""
"image-keyboard-response",98,134716,"0.0-3.29-0.29","t1m87ukxkyw5atc",854,"50.csv","","1921.5999999940395","resources/trios/L2T4A2.jpg","37","restless",0.7,0.4,0.5,0.755643917489785,"false"
"image-keyboard-response",99,135129,"0.0-3.29-1.29","t1m87ukxkyw5atc",854,"50.csv","","null","resources/maskTrios/L2BB.jpg","null","",NA,NA,NA,NA,""
"image-keyboard-response",100,136338,"0.0-3.29-2.29","t1m87ukxkyw5atc",854,"50.csv","","null","resources/images/fishbone.png","null","",NA,NA,NA,NA,""
"image-keyboard-response",101,138260,"0.0-3.30-0.30","t1m87ukxkyw5atc",854,"50.csv","","1920.9000000059605","resources/trios/L2T2A2.jpg","37","restless",0.7,0.4,0.5,0.0797974260641274,"true"
"image-keyboard-response",102,138669,"0.0-3.30-1.30","t1m87ukxkyw5atc",854,"50.csv","","null","resources/maskTrios/L2BB.jpg","null","",NA,NA,NA,NA,""
"image-keyboard-response",103,139876,"0.0-3.30-2.30","t1m87ukxkyw5atc",854,"50.csv","","null","resources/images/coin2.png","null","",NA,NA,NA,NA,""
"image-keyboard-response",104,140491,"0.0-3.31-0.31","t1m87ukxkyw5atc",854,"50.csv","","613.2999999821186","resources/trios/L1T2A2.jpg","38","restless",0.7,0.4,0.5,0.536656442486016,"false"
"image-keyboard-response",105,140902,"0.0-3.31-1.31","t1m87ukxkyw5atc",854,"50.csv","","null","resources/maskTrios/BT2B.jpg","null","",NA,NA,NA,NA,""
"image-keyboard-response",106,142107,"0.0-3.31-2.31","t1m87ukxkyw5atc",854,"50.csv","","null","resources/images/fishbone.png","null","",NA,NA,NA,NA,""
"image-keyboard-response",107,142601,"0.0-3.32-0.32","t1m87ukxkyw5atc",854,"50.csv","","493.40000000596046","resources/trios/L1T4A2.jpg","39","restless",0.7,0.4,0.5,0.0796169984488846,"true"
"image-keyboard-response",108,143027,"0.0-3.32-1.32","t1m87ukxkyw5atc",854,"50.csv","","null","resources/maskTrios/BBA2.jpg","null","",NA,NA,NA,NA,""
"image-keyboard-response",109,144241,"0.0-3.32-2.32","t1m87ukxkyw5atc",854,"50.csv","","null","resources/images/coin2.png","null","",NA,NA,NA,NA,""
"image-keyboard-response",110,145186,"0.0-3.33-0.33","t1m87ukxkyw5atc",854,"50.csv","","943.2999999821186","resources/trios/L2T2A1.jpg","37","restless",0.7,0.4,0.5,0.368794201997401,"true"
"image-keyboard-response",111,145608,"0.0-3.33-1.33","t1m87ukxkyw5atc",854,"50.csv","","null","resources/maskTrios/L2BB.jpg","null","",NA,NA,NA,NA,""
"image-keyboard-response",112,146816,"0.0-3.33-2.33","t1m87ukxkyw5atc",854,"50.csv","","null","resources/images/coin2.png","null","",NA,NA,NA,NA,""
"image-keyboard-response",113,148001,"0.0-3.34-0.34","t1m87ukxkyw5atc",854,"50.csv","","1183.5999999940395","resources/trios/L2T4A2.jpg","39","restless",0.7,0.4,0.5,0.37688814837915,"true"
"image-keyboard-response",114,148416,"0.0-3.34-1.34","t1m87ukxkyw5atc",854,"50.csv","","null","resources/maskTrios/BBA2.jpg","null","",NA,NA,NA,NA,""
"image-keyboard-response",115,149622,"0.0-3.34-2.34","t1m87ukxkyw5atc",854,"50.csv","","null","resources/images/coin2.png","null","",NA,NA,NA,NA,""
"image-keyboard-response",116,150501,"0.0-3.35-0.35","t1m87ukxkyw5atc",854,"50.csv","","876.5","resources/trios/L1T4A1.jpg","39","restless",0.7,0.4,0.5,0.169800183756667,"true"
"image-keyboard-response",117,150916,"0.0-3.35-1.35","t1m87ukxkyw5atc",854,"50.csv","","null","resources/maskTrios/BBA1.jpg","null","",NA,NA,NA,NA,""
"image-keyboard-response",118,152127,"0.0-3.35-2.35","t1m87ukxkyw5atc",854,"50.csv","","null","resources/images/coin2.png","null","",NA,NA,NA,NA,""
"image-keyboard-response",119,152591,"0.0-3.36-0.36","t1m87ukxkyw5atc",854,"50.csv","","462.90000000596046","resources/trios/L2T2A2.jpg","39","restless",0.7,0.4,0.5,0.127876236583597,"true"
"image-keyboard-response",120,152999,"0.0-3.36-1.36","t1m87ukxkyw5atc",854,"50.csv","","null","resources/maskTrios/BBA2.jpg","null","",NA,NA,NA,NA,""
"image-keyboard-response",121,154216,"0.0-3.36-2.36","t1m87ukxkyw5atc",854,"50.csv","","null","resources/images/coin2.png","null","",NA,NA,NA,NA,""
"image-keyboard-response",122,154491,"0.0-3.37-0.37","t1m87ukxkyw5atc",854,"50.csv","","273.5","resources/trios/L2T2A1.jpg","39","restless",0.7,0.4,0.5,0.77828339072357,"false"
"image-keyboard-response",123,154913,"0.0-3.37-1.37","t1m87ukxkyw5atc",854,"50.csv","","null","resources/maskTrios/BBA1.jpg","null","",NA,NA,NA,NA,""
"image-keyboard-response",124,156123,"0.0-3.37-2.37","t1m87ukxkyw5atc",854,"50.csv","","null","resources/images/fishbone.png","null","",NA,NA,NA,NA,""
"image-keyboard-response",125,156782,"0.0-3.38-0.38","t1m87ukxkyw5atc",854,"50.csv","","657.5999999940395","resources/trios/L1T4A1.jpg","37","restless",0.8,0.4,0.5,0.567322632830489,"true"
"image-keyboard-response",126,157190,"0.0-3.38-1.38","t1m87ukxkyw5atc",854,"50.csv","","null","resources/maskTrios/L1BB.jpg","null","",NA,NA,NA,NA,""
"image-keyboard-response",127,158401,"0.0-3.38-2.38","t1m87ukxkyw5atc",854,"50.csv","","null","resources/images/coin2.png","null","",NA,NA,NA,NA,""
"image-keyboard-response",128,159762,"0.0-3.39-0.39","t1m87ukxkyw5atc",854,"50.csv","","1359.5","resources/trios/L1T2A2.jpg","37","restless",0.8,0.4,0.5,0.995649153033821,"false"
"image-keyboard-response",129,160183,"0.0-3.39-1.39","t1m87ukxkyw5atc",854,"50.csv","","null","resources/maskTrios/L1BB.jpg","null","",NA,NA,NA,NA,""
"image-keyboard-response",130,161397,"0.0-3.39-2.39","t1m87ukxkyw5atc",854,"50.csv","","null","resources/images/fishbone.png","null","",NA,NA,NA,NA,""
"image-keyboard-response",131,162752,"0.0-3.40-0.40","t1m87ukxkyw5atc",854,"50.csv","","1353.0999999940395","resources/trios/L1T4A1.jpg","37","restless",0.8,0.4,0.5,0.135220967468339,"true"
"image-keyboard-response",132,163161,"0.0-3.40-1.40","t1m87ukxkyw5atc",854,"50.csv","","null","resources/maskTrios/L1BB.jpg","null","",NA,NA,NA,NA,""
"image-keyboard-response",133,164373,"0.0-3.40-2.40","t1m87ukxkyw5atc",854,"50.csv","","null","resources/images/coin2.png","null","",NA,NA,NA,NA,""
"image-keyboard-response",134,165152,"0.0-3.41-0.41","t1m87ukxkyw5atc",854,"50.csv","","777","resources/trios/L1T4A1.jpg","39","restless",0.8,0.4,0.5,0.749656781847744,"false"
"image-keyboard-response",135,165556,"0.0-3.41-1.41","t1m87ukxkyw5atc",854,"50.csv","","null","resources/maskTrios/BBA1.jpg","null","",NA,NA,NA,NA,""
"image-keyboard-response",136,166770,"0.0-3.41-2.41","t1m87ukxkyw5atc",854,"50.csv","","null","resources/images/fishbone.png","null","",NA,NA,NA,NA,""
"image-keyboard-response",137,167312,"0.0-3.42-0.42","t1m87ukxkyw5atc",854,"50.csv","","540.6000000238419","resources/trios/L1T4A2.jpg","37","restless",0.8,0.5,0.5,0.365115127784139,"true"
"image-keyboard-response",138,167723,"0.0-3.42-1.42","t1m87ukxkyw5atc",854,"50.csv","","null","resources/maskTrios/L1BB.jpg","null","",NA,NA,NA,NA,""
"image-keyboard-response",139,168935,"0.0-3.42-2.42","t1m87ukxkyw5atc",854,"50.csv","","null","resources/images/coin2.png","null","",NA,NA,NA,NA,""
"image-keyboard-response",140,169471,"0.0-3.43-0.43","t1m87ukxkyw5atc",854,"50.csv","","535.4000000059605","resources/trios/L2T4A1.jpg","38","restless",0.8,0.5,0.5,0.895564956890388,"false"
"image-keyboard-response",141,169881,"0.0-3.43-1.43","t1m87ukxkyw5atc",854,"50.csv","","null","resources/maskTrios/BT4B.jpg","null","",NA,NA,NA,NA,""
"image-keyboard-response",142,171086,"0.0-3.43-2.43","t1m87ukxkyw5atc",854,"50.csv","","null","resources/images/fishbone.png","null","",NA,NA,NA,NA,""
"image-keyboard-response",143,171471,"0.0-3.44-0.44","t1m87ukxkyw5atc",854,"50.csv","","384","resources/trios/L1T4A1.jpg","37","restless",0.8,0.5,0.5,0.0447952247168966,"true"
"image-keyboard-response",144,171889,"0.0-3.44-1.44","t1m87ukxkyw5atc",854,"50.csv","","null","resources/maskTrios/L1BB.jpg","null","",NA,NA,NA,NA,""
"image-keyboard-response",145,173091,"0.0-3.44-2.44","t1m87ukxkyw5atc",854,"50.csv","","null","resources/images/coin2.png","null","",NA,NA,NA,NA,""
"image-keyboard-response",146,173826,"0.0-3.45-0.45","t1m87ukxkyw5atc",854,"50.csv","","733.5","resources/trios/L2T4A2.jpg","39","restless",0.8,0.5,0.5,0.769308700907286,"false"
"image-keyboard-response",147,174241,"0.0-3.45-1.45","t1m87ukxkyw5atc",854,"50.csv","","null","resources/maskTrios/BBA2.jpg","null","",NA,NA,NA,NA,""
"image-keyboard-response",148,175451,"0.0-3.45-2.45","t1m87ukxkyw5atc",854,"50.csv","","null","resources/images/fishbone.png","null","",NA,NA,NA,NA,""
"image-keyboard-response",149,175773,"0.0-3.46-0.46","t1m87ukxkyw5atc",854,"50.csv","","320.40000000596046","resources/trios/L1T4A2.jpg","37","restless",0.7,0.5,0.5,0.434653398266451,"true"
"image-keyboard-response",150,176191,"0.0-3.46-1.46","t1m87ukxkyw5atc",854,"50.csv","","null","resources/maskTrios/L1BB.jpg","null","",NA,NA,NA,NA,""
"image-keyboard-response",151,177410,"0.0-3.46-2.46","t1m87ukxkyw5atc",854,"50.csv","","null","resources/images/coin2.png","null","",NA,NA,NA,NA,""
"image-keyboard-response",152,177812,"0.0-3.47-0.47","t1m87ukxkyw5atc",854,"50.csv","","401","resources/trios/L2T2A2.jpg","37","restless",0.7,0.5,0.5,0.323777882644513,"true"
"image-keyboard-response",153,178224,"0.0-3.47-1.47","t1m87ukxkyw5atc",854,"50.csv","","null","resources/maskTrios/L2BB.jpg","null","",NA,NA,NA,NA,""
"image-keyboard-response",154,179430,"0.0-3.47-2.47","t1m87ukxkyw5atc",854,"50.csv","","null","resources/images/coin2.png","null","",NA,NA,NA,NA,""
"image-keyboard-response",155,179788,"0.0-3.48-0.48","t1m87ukxkyw5atc",854,"50.csv","","356.59999999403954","resources/trios/L1T4A2.jpg","37","restless",0.7,0.6,0.5,0.71206995021921,"false"
"image-keyboard-response",156,180199,"0.0-3.48-1.48","t1m87ukxkyw5atc",854,"50.csv","","null","resources/maskTrios/L1BB.jpg","null","",NA,NA,NA,NA,""
"image-keyboard-response",157,181412,"0.0-3.48-2.48","t1m87ukxkyw5atc",854,"50.csv","","null","resources/images/fishbone.png","null","",NA,NA,NA,NA,""
"image-keyboard-response",158,200843,"0.0-3.49-0.49","t1m87ukxkyw5atc",854,"50.csv","","19428.399999976158","resources/trios/L1T2A2.jpg","37","restless",0.7,0.7,0.5,0.736101989110444,"false"
"image-keyboard-response",159,201253,"0.0-3.49-1.49","t1m87ukxkyw5atc",854,"50.csv","","null","resources/maskTrios/L1BB.jpg","null","",NA,NA,NA,NA,""
"image-keyboard-response",160,202461,"0.0-3.49-2.49","t1m87ukxkyw5atc",854,"50.csv","","null","resources/images/fishbone.png","null","",NA,NA,NA,NA,""
"image-keyboard-response",161,203560,"0.0-3.50-0.50","t1m87ukxkyw5atc",854,"50.csv","","1097.5999999940395","resources/trios/L2T2A2.jpg","39","restless",0.7,0.7,0.5,0.244442345797589,"true"
"image-keyboard-response",162,203965,"0.0-3.50-1.50","t1m87ukxkyw5atc",854,"50.csv","","null","resources/maskTrios/BBA2.jpg","null","",NA,NA,NA,NA,""
"image-keyboard-response",163,205173,"0.0-3.50-2.50","t1m87ukxkyw5atc",854,"50.csv","","null","resources/images/coin2.png","null","",NA,NA,NA,NA,""
"image-keyboard-response",164,205894,"0.0-3.51-0.51","t1m87ukxkyw5atc",854,"50.csv","","720.5","resources/trios/L1T4A2.jpg","39","restless",0.7,0.7,0.5,0.42917216065983,"true"
"image-keyboard-response",165,206309,"0.0-3.51-1.51","t1m87ukxkyw5atc",854,"50.csv","","null","resources/maskTrios/BBA2.jpg","null","",NA,NA,NA,NA,""
"image-keyboard-response",166,207511,"0.0-3.51-2.51","t1m87ukxkyw5atc",854,"50.csv","","null","resources/images/coin2.png","null","",NA,NA,NA,NA,""
"image-keyboard-response",167,208211,"0.0-3.52-0.52","t1m87ukxkyw5atc",854,"50.csv","","698.5","resources/trios/L2T4A1.jpg","39","restless",0.7,0.7,0.6,0.440355062649173,"true"
"image-keyboard-response",168,208621,"0.0-3.52-1.52","t1m87ukxkyw5atc",854,"50.csv","","null","resources/maskTrios/BBA1.jpg","null","",NA,NA,NA,NA,""
"image-keyboard-response",169,209838,"0.0-3.52-2.52","t1m87ukxkyw5atc",854,"50.csv","","null","resources/images/coin2.png","null","",NA,NA,NA,NA,""
"image-keyboard-response",170,210720,"0.0-3.53-0.53","t1m87ukxkyw5atc",854,"50.csv","","881.3000000119209","resources/trios/L2T2A1.jpg","39","restless",0.7,0.7,0.6,0.259711804565163,"true"
"image-keyboard-response",171,211125,"0.0-3.53-1.53","t1m87ukxkyw5atc",854,"50.csv","","null","resources/maskTrios/BBA1.jpg","null","",NA,NA,NA,NA,""
"image-keyboard-response",172,212339,"0.0-3.53-2.53","t1m87ukxkyw5atc",854,"50.csv","","null","resources/images/coin2.png","null","",NA,NA,NA,NA,""
"image-keyboard-response",173,212905,"0.0-3.54-0.54","t1m87ukxkyw5atc",854,"50.csv","","565.2999999821186","resources/trios/L1T2A2.jpg","39","restless",0.6,0.7,0.6,0.583644361947479,"true"
"image-keyboard-response",174,213317,"0.0-3.54-1.54","t1m87ukxkyw5atc",854,"50.csv","","null","resources/maskTrios/BBA2.jpg","null","",NA,NA,NA,NA,""
"image-keyboard-response",175,214536,"0.0-3.54-2.54","t1m87ukxkyw5atc",854,"50.csv","","null","resources/images/coin2.png","null","",NA,NA,NA,NA,""
"image-keyboard-response",176,215281,"0.0-3.55-0.55","t1m87ukxkyw5atc",854,"50.csv","","743","resources/trios/L1T2A1.jpg","39","restless",0.5,0.7,0.6,0.829921178338523,"false"
"image-keyboard-response",177,215699,"0.0-3.55-1.55","t1m87ukxkyw5atc",854,"50.csv","","null","resources/maskTrios/BBA1.jpg","null","",NA,NA,NA,NA,""
"image-keyboard-response",178,216919,"0.0-3.55-2.55","t1m87ukxkyw5atc",854,"50.csv","","null","resources/images/fishbone.png","null","",NA,NA,NA,NA,""
"image-keyboard-response",179,217445,"0.0-3.56-0.56","t1m87ukxkyw5atc",854,"50.csv","","524.7000000178814","resources/trios/L1T2A1.jpg","37","restless",0.5,0.7,0.6,0.680943050483008,"false"
"image-keyboard-response",180,217864,"0.0-3.56-1.56","t1m87ukxkyw5atc",854,"50.csv","","null","resources/maskTrios/L1BB.jpg","null","",NA,NA,NA,NA,""
"image-keyboard-response",181,219078,"0.0-3.56-2.56","t1m87ukxkyw5atc",854,"50.csv","","null","resources/images/fishbone.png","null","",NA,NA,NA,NA,""
"image-keyboard-response",182,219525,"0.0-3.57-0.57","t1m87ukxkyw5atc",854,"50.csv","","445.90000000596046","resources/trios/L1T4A2.jpg","38","restless",0.5,0.7,0.6,0.550792981019437,"true"
"image-keyboard-response",183,219946,"0.0-3.57-1.57","t1m87ukxkyw5atc",854,"50.csv","","null","resources/maskTrios/BT4B.jpg","null","",NA,NA,NA,NA,""
"image-keyboard-response",184,221163,"0.0-3.57-2.57","t1m87ukxkyw5atc",854,"50.csv","","null","resources/images/coin2.png","null","",NA,NA,NA,NA,""
"image-keyboard-response",185,221401,"0.0-3.58-0.58","t1m87ukxkyw5atc",854,"50.csv","","236.5","resources/trios/L1T2A2.jpg","38","restless",0.5,0.7,0.6,0.467932930605579,"true"
"image-keyboard-response",186,221810,"0.0-3.58-1.58","t1m87ukxkyw5atc",854,"50.csv","","null","resources/maskTrios/BT2B.jpg","null","",NA,NA,NA,NA,""
"image-keyboard-response",187,223028,"0.0-3.58-2.58","t1m87ukxkyw5atc",854,"50.csv","","null","resources/images/coin2.png","null","",NA,NA,NA,NA,""
"image-keyboard-response",188,223261,"0.0-3.59-0.59","t1m87ukxkyw5atc",854,"50.csv","","232.19999998807907","resources/trios/L2T2A2.jpg","38","restless",0.5,0.7,0.6,0.256668060187554,"true"
"image-keyboard-response",189,223669,"0.0-3.59-1.59","t1m87ukxkyw5atc",854,"50.csv","","null","resources/maskTrios/BT2B.jpg","null","",NA,NA,NA,NA,""
"image-keyboard-response",190,224884,"0.0-3.59-2.59","t1m87ukxkyw5atc",854,"50.csv","","null","resources/images/coin2.png","null","",NA,NA,NA,NA,""
"image-keyboard-response",191,226741,"0.0-3.60-0.60","t1m87ukxkyw5atc",854,"50.csv","","1855","resources/trios/L2T4A2.jpg","38","restless",0.5,0.7,0.6,0.949088394222651,"false"
"image-keyboard-response",192,227153,"0.0-3.60-1.60","t1m87ukxkyw5atc",854,"50.csv","","null","resources/maskTrios/BT4B.jpg","null","",NA,NA,NA,NA,""
"image-keyboard-response",193,228363,"0.0-3.60-2.60","t1m87ukxkyw5atc",854,"50.csv","","null","resources/images/fishbone.png","null","",NA,NA,NA,NA,""
"image-keyboard-response",194,229481,"0.0-3.61-0.61","t1m87ukxkyw5atc",854,"50.csv","","1116.0999999940395","resources/trios/L2T4A2.jpg","38","restless",0.5,0.7,0.6,0.51839645274274,"true"
"image-keyboard-response",195,229890,"0.0-3.61-1.61","t1m87ukxkyw5atc",854,"50.csv","","null","resources/maskTrios/BT4B.jpg","null","",NA,NA,NA,NA,""
"image-keyboard-response",196,231107,"0.0-3.61-2.61","t1m87ukxkyw5atc",854,"50.csv","","null","resources/images/coin2.png","null","",NA,NA,NA,NA,""
"image-keyboard-response",197,232488,"0.0-3.62-0.62","t1m87ukxkyw5atc",854,"50.csv","","1379.5999999940395","resources/trios/L2T4A2.jpg","38","restless",0.5,0.7,0.6,0.613485196880711,"true"
"image-keyboard-response",198,232902,"0.0-3.62-1.62","t1m87ukxkyw5atc",854,"50.csv","","null","resources/maskTrios/BT4B.jpg","null","",NA,NA,NA,NA,""
"image-keyboard-response",199,234115,"0.0-3.62-2.62","t1m87ukxkyw5atc",854,"50.csv","","null","resources/images/coin2.png","null","",NA,NA,NA,NA,""
"image-keyboard-response",200,236181,"0.0-3.63-0.63","t1m87ukxkyw5atc",854,"50.csv","","2064.199999988079","resources/trios/L1T2A1.jpg","38","restless",0.5,0.7,0.6,0.964268002732571,"false"
"image-keyboard-response",201,236589,"0.0-3.63-1.63","t1m87ukxkyw5atc",854,"50.csv","","null","resources/maskTrios/BT2B.jpg","null","",NA,NA,NA,NA,""
"image-keyboard-response",202,237806,"0.0-3.63-2.63","t1m87ukxkyw5atc",854,"50.csv","","null","resources/images/fishbone.png","null","",NA,NA,NA,NA,""
"image-keyboard-response",203,240026,"0.0-3.64-0.64","t1m87ukxkyw5atc",854,"50.csv","","2218.0999999940395","resources/trios/L2T2A2.jpg","37","restless",0.5,0.7,0.6,0.200224084744468,"true"
"image-keyboard-response",204,240431,"0.0-3.64-1.64","t1m87ukxkyw5atc",854,"50.csv","","null","resources/maskTrios/L2BB.jpg","null","",NA,NA,NA,NA,""
"image-keyboard-response",205,241638,"0.0-3.64-2.64","t1m87ukxkyw5atc",854,"50.csv","","null","resources/images/coin2.png","null","",NA,NA,NA,NA,""
"image-keyboard-response",206,242305,"0.0-3.65-0.65","t1m87ukxkyw5atc",854,"50.csv","","665.5999999940395","resources/trios/L1T4A2.jpg","37","restless",0.5,0.7,0.6,0.664832814820591,"false"
"image-keyboard-response",207,242719,"0.0-3.65-1.65","t1m87ukxkyw5atc",854,"50.csv","","null","resources/maskTrios/L1BB.jpg","null","",NA,NA,NA,NA,""
"image-keyboard-response",208,243928,"0.0-3.65-2.65","t1m87ukxkyw5atc",854,"50.csv","","null","resources/images/fishbone.png","null","",NA,NA,NA,NA,""
"image-keyboard-response",209,244495,"0.0-3.66-0.66","t1m87ukxkyw5atc",854,"50.csv","","566.4000000059605","resources/trios/L1T2A2.jpg","39","restless",0.5,0.7,0.6,0.260026215499551,"true"
"image-keyboard-response",210,244901,"0.0-3.66-1.66","t1m87ukxkyw5atc",854,"50.csv","","null","resources/maskTrios/BBA2.jpg","null","",NA,NA,NA,NA,""
"image-keyboard-response",211,246114,"0.0-3.66-2.66","t1m87ukxkyw5atc",854,"50.csv","","null","resources/images/coin2.png","null","",NA,NA,NA,NA,""
"image-keyboard-response",212,246971,"0.0-3.67-0.67","t1m87ukxkyw5atc",854,"50.csv","","854.6999999880791","resources/trios/L1T2A1.jpg","39","restless",0.5,0.7,0.6,0.177970213915794,"true"
"image-keyboard-response",213,247394,"0.0-3.67-1.67","t1m87ukxkyw5atc",854,"50.csv","","null","resources/maskTrios/BBA1.jpg","null","",NA,NA,NA,NA,""
"image-keyboard-response",214,248602,"0.0-3.67-2.67","t1m87ukxkyw5atc",854,"50.csv","","null","resources/images/coin2.png","null","",NA,NA,NA,NA,""
"image-keyboard-response",215,250695,"0.0-3.68-0.68","t1m87ukxkyw5atc",854,"50.csv","","2092.199999988079","resources/trios/L2T4A2.jpg","37","restless",0.5,0.7,0.6,0.498534157695403,"true"
"image-keyboard-response",216,251103,"0.0-3.68-1.68","t1m87ukxkyw5atc",854,"50.csv","","null","resources/maskTrios/L2BB.jpg","null","",NA,NA,NA,NA,""
"image-keyboard-response",217,252317,"0.0-3.68-2.68","t1m87ukxkyw5atc",854,"50.csv","","null","resources/images/coin2.png","null","",NA,NA,NA,NA,""
"image-keyboard-response",218,255945,"0.0-3.69-0.69","t1m87ukxkyw5atc",854,"50.csv","","3626.199999988079","resources/trios/L1T2A2.jpg","37","restless",0.5,0.7,0.6,0.693547225656432,"false"
"image-keyboard-response",219,256350,"0.0-3.69-1.69","t1m87ukxkyw5atc",854,"50.csv","","null","resources/maskTrios/L1BB.jpg","null","",NA,NA,NA,NA,""
"image-keyboard-response",220,257561,"0.0-3.69-2.69","t1m87ukxkyw5atc",854,"50.csv","","null","resources/images/fishbone.png","null","",NA,NA,NA,NA,""
"image-keyboard-response",221,303581,"0.0-3.70-0.70","t1m87ukxkyw5atc",854,"50.csv","","46020.10000002384","resources/trios/L1T2A1.jpg","37","restless",0.4,0.7,0.6,0.940413168258848,"false"
"image-keyboard-response",222,303988,"0.0-3.70-1.70","t1m87ukxkyw5atc",854,"50.csv","","null","resources/maskTrios/L1BB.jpg","null","",NA,NA,NA,NA,""
"image-keyboard-response",223,305203,"0.0-3.70-2.70","t1m87ukxkyw5atc",854,"50.csv","","null","resources/images/fishbone.png","null","",NA,NA,NA,NA,""
"image-keyboard-response",224,305780,"0.0-3.71-0.71","t1m87ukxkyw5atc",854,"50.csv","","575.6999999880791","resources/trios/L1T2A1.jpg","39","restless",0.4,0.7,0.6,0.579338583583854,"true"
"image-keyboard-response",225,306189,"0.0-3.71-1.71","t1m87ukxkyw5atc",854,"50.csv","","null","resources/maskTrios/BBA1.jpg","null","",NA,NA,NA,NA,""
"image-keyboard-response",226,307408,"0.0-3.71-2.71","t1m87ukxkyw5atc",854,"50.csv","","null","resources/images/coin2.png","null","",NA,NA,NA,NA,""
"image-keyboard-response",227,308560,"0.0-3.72-0.72","t1m87ukxkyw5atc",854,"50.csv","","1149.800000011921","resources/trios/L1T4A1.jpg","39","restless",0.3,0.7,0.6,0.101817127859672,"true"
"image-keyboard-response",228,308977,"0.0-3.72-1.72","t1m87ukxkyw5atc",854,"50.csv","","null","resources/maskTrios/BBA1.jpg","null","",NA,NA,NA,NA,""
"image-keyboard-response",229,310179,"0.0-3.72-2.72","t1m87ukxkyw5atc",854,"50.csv","","null","resources/images/coin2.png","null","",NA,NA,NA,NA,""
"image-keyboard-response",230,311050,"0.0-3.73-0.73","t1m87ukxkyw5atc",854,"50.csv","","869.3999999761581","resources/trios/L1T2A1.jpg","38","restless",0.3,0.7,0.6,0.0711108692929419,"true"
"image-keyboard-response",231,311464,"0.0-3.73-1.73","t1m87ukxkyw5atc",854,"50.csv","","null","resources/maskTrios/BT2B.jpg","null","",NA,NA,NA,NA,""
"image-keyboard-response",232,312676,"0.0-3.73-2.73","t1m87ukxkyw5atc",854,"50.csv","","null","resources/images/coin2.png","null","",NA,NA,NA,NA,""
"image-keyboard-response",233,313216,"0.0-3.74-0.74","t1m87ukxkyw5atc",854,"50.csv","","537.9000000059605","resources/trios/L1T2A2.jpg","38","restless",0.3,0.7,0.6,0.0976899902337529,"true"
"image-keyboard-response",234,313622,"0.0-3.74-1.74","t1m87ukxkyw5atc",854,"50.csv","","null","resources/maskTrios/BT2B.jpg","null","",NA,NA,NA,NA,""
"image-keyboard-response",235,314832,"0.0-3.74-2.74","t1m87ukxkyw5atc",854,"50.csv","","null","resources/images/coin2.png","null","",NA,NA,NA,NA,""
"image-keyboard-response",236,315601,"0.0-3.75-0.75","t1m87ukxkyw5atc",854,"50.csv","","767.2999999821186","resources/trios/L1T2A2.jpg","38","restless",0.3,0.7,0.6,0.967898249325641,"false"
"image-keyboard-response",237,316016,"0.0-3.75-1.75","t1m87ukxkyw5atc",854,"50.csv","","null","resources/maskTrios/BT2B.jpg","null","",NA,NA,NA,NA,""
"image-keyboard-response",238,317231,"0.0-3.75-2.75","t1m87ukxkyw5atc",854,"50.csv","","null","resources/images/fishbone.png","null","",NA,NA,NA,NA,""
"image-keyboard-response",239,328520,"0.0-3.76-0.76","t1m87ukxkyw5atc",854,"50.csv","","11287.600000023842","resources/trios/L1T2A1.jpg","37","restless",0.3,0.7,0.6,0.510193974879817,"false"
"image-keyboard-response",240,328939,"0.0-3.76-1.76","t1m87ukxkyw5atc",854,"50.csv","","null","resources/maskTrios/L1BB.jpg","null","",NA,NA,NA,NA,""
"image-keyboard-response",241,330150,"0.0-3.76-2.76","t1m87ukxkyw5atc",854,"50.csv","","null","resources/images/fishbone.png","null","",NA,NA,NA,NA,""
"image-keyboard-response",242,332905,"0.0-3.77-0.77","t1m87ukxkyw5atc",854,"50.csv","","2753.699999988079","resources/trios/L1T2A2.jpg","39","restless",0.3,0.7,0.6,0.546845927808135,"true"
"image-keyboard-response",243,333316,"0.0-3.77-1.77","t1m87ukxkyw5atc",854,"50.csv","","null","resources/maskTrios/BBA2.jpg","null","",NA,NA,NA,NA,""
"image-keyboard-response",244,334538,"0.0-3.77-2.77","t1m87ukxkyw5atc",854,"50.csv","","null","resources/images/coin2.png","null","",NA,NA,NA,NA,""
"image-keyboard-response",245,338140,"0.0-3.78-0.78","t1m87ukxkyw5atc",854,"50.csv","","3600","resources/trios/L2T4A1.jpg","38","restless",0.3,0.8,0.6,0.0635310998090177,"true"
"image-keyboard-response",246,338561,"0.0-3.78-1.78","t1m87ukxkyw5atc",854,"50.csv","","null","resources/maskTrios/BT4B.jpg","null","",NA,NA,NA,NA,""
"image-keyboard-response",247,339776,"0.0-3.78-2.78","t1m87ukxkyw5atc",854,"50.csv","","null","resources/images/coin2.png","null","",NA,NA,NA,NA,""
"image-keyboard-response",248,341390,"0.0-3.79-0.79","t1m87ukxkyw5atc",854,"50.csv","","1612.800000011921","resources/trios/L2T4A2.jpg","37","restless",0.3,0.8,0.6,0.399600589742981,"false"
"image-keyboard-response",249,341804,"0.0-3.79-1.79","t1m87ukxkyw5atc",854,"50.csv","","null","resources/maskTrios/L2BB.jpg","null","",NA,NA,NA,NA,""
"image-keyboard-response",250,343017,"0.0-3.79-2.79","t1m87ukxkyw5atc",854,"50.csv","","null","resources/images/fishbone.png","null","",NA,NA,NA,NA,""
"image-keyboard-response",251,343887,"0.0-3.80-0.80","t1m87ukxkyw5atc",854,"50.csv","","868.5","resources/trios/L1T2A1.jpg","39","restless",0.3,0.8,0.6,0.0582340132713608,"true"
"image-keyboard-response",252,344293,"0.0-3.80-1.80","t1m87ukxkyw5atc",854,"50.csv","","null","resources/maskTrios/BBA1.jpg","null","",NA,NA,NA,NA,""
"image-keyboard-response",253,345505,"0.0-3.80-2.80","t1m87ukxkyw5atc",854,"50.csv","","null","resources/images/coin2.png","null","",NA,NA,NA,NA,""
"image-keyboard-response",254,346387,"0.0-3.81-0.81","t1m87ukxkyw5atc",854,"50.csv","","880.7000000178814","resources/trios/L2T4A1.jpg","38","restless",0.3,0.8,0.6,0.901773466913905,"false"
"image-keyboard-response",255,346800,"0.0-3.81-1.81","t1m87ukxkyw5atc",854,"50.csv","","null","resources/maskTrios/BT4B.jpg","null","",NA,NA,NA,NA,""
"image-keyboard-response",256,348012,"0.0-3.81-2.81","t1m87ukxkyw5atc",854,"50.csv","","null","resources/images/fishbone.png","null","",NA,NA,NA,NA,""
"image-keyboard-response",257,348339,"0.0-3.82-0.82","t1m87ukxkyw5atc",854,"50.csv","","325.7999999821186","resources/trios/L2T2A1.jpg","37","restless",0.4,0.8,0.6,0.445319437638482,"false"
"image-keyboard-response",258,348756,"0.0-3.82-1.82","t1m87ukxkyw5atc",854,"50.csv","","null","resources/maskTrios/L2BB.jpg","null","",NA,NA,NA,NA,""
"image-keyboard-response",259,349966,"0.0-3.82-2.82","t1m87ukxkyw5atc",854,"50.csv","","null","resources/images/fishbone.png","null","",NA,NA,NA,NA,""
"image-keyboard-response",260,350159,"0.0-3.83-0.83","t1m87ukxkyw5atc",854,"50.csv","","191.7000000178814","resources/trios/L2T2A1.jpg","39","restless",0.4,0.8,0.6,0.596841257445407,"true"
"image-keyboard-response",261,350577,"0.0-3.83-1.83","t1m87ukxkyw5atc",854,"50.csv","","null","resources/maskTrios/BBA1.jpg","null","",NA,NA,NA,NA,""
"image-keyboard-response",262,351781,"0.0-3.83-2.83","t1m87ukxkyw5atc",854,"50.csv","","null","resources/images/coin2.png","null","",NA,NA,NA,NA,""
"image-keyboard-response",263,352230,"0.0-3.84-0.84","t1m87ukxkyw5atc",854,"50.csv","","448","resources/trios/L1T4A2.jpg","39","restless",0.4,0.8,0.6,0.3420275626815,"true"
"image-keyboard-response",264,352645,"0.0-3.84-1.84","t1m87ukxkyw5atc",854,"50.csv","","null","resources/maskTrios/BBA2.jpg","null","",NA,NA,NA,NA,""
"image-keyboard-response",265,353852,"0.0-3.84-2.84","t1m87ukxkyw5atc",854,"50.csv","","null","resources/images/coin2.png","null","",NA,NA,NA,NA,""
"image-keyboard-response",266,354719,"0.0-3.85-0.85","t1m87ukxkyw5atc",854,"50.csv","","865.5999999940395","resources/trios/L1T4A2.jpg","39","restless",0.5,0.8,0.6,0.956242433287527,"false"
"image-keyboard-response",267,355124,"0.0-3.85-1.85","t1m87ukxkyw5atc",854,"50.csv","","null","resources/maskTrios/BBA2.jpg","null","",NA,NA,NA,NA,""
"image-keyboard-response",268,356344,"0.0-3.85-2.85","t1m87ukxkyw5atc",854,"50.csv","","null","resources/images/fishbone.png","null","",NA,NA,NA,NA,""
"image-keyboard-response",269,401575,"0.0-3.86-0.86","t1m87ukxkyw5atc",854,"50.csv","","45229.09999999404","resources/trios/L1T4A2.jpg","39","restless",0.5,0.8,0.5,0.0147761956382477,"true"
"image-keyboard-response",270,401986,"0.0-3.86-1.86","t1m87ukxkyw5atc",854,"50.csv","","null","resources/maskTrios/BBA2.jpg","null","",NA,NA,NA,NA,""
"image-keyboard-response",271,403206,"0.0-3.86-2.86","t1m87ukxkyw5atc",854,"50.csv","","null","resources/images/coin2.png","null","",NA,NA,NA,NA,""
"image-keyboard-response",272,403998,"0.0-3.87-0.87","t1m87ukxkyw5atc",854,"50.csv","","790.9000000059605","resources/trios/L2T4A1.jpg","37","restless",0.5,0.8,0.4,0.748213333894771,"false"
"image-keyboard-response",273,404407,"0.0-3.87-1.87","t1m87ukxkyw5atc",854,"50.csv","","null","resources/maskTrios/L2BB.jpg","null","",NA,NA,NA,NA,""
"image-keyboard-response",274,405617,"0.0-3.87-2.87","t1m87ukxkyw5atc",854,"50.csv","","null","resources/images/fishbone.png","null","",NA,NA,NA,NA,""
"image-keyboard-response",275,406059,"0.0-3.88-0.88","t1m87ukxkyw5atc",854,"50.csv","","440.90000000596046","resources/trios/L2T4A1.jpg","39","restless",0.5,0.8,0.4,0.609312033397029,"false"
"image-keyboard-response",276,406480,"0.0-3.88-1.88","t1m87ukxkyw5atc",854,"50.csv","","null","resources/maskTrios/BBA1.jpg","null","",NA,NA,NA,NA,""
"image-keyboard-response",277,407691,"0.0-3.88-2.88","t1m87ukxkyw5atc",854,"50.csv","","null","resources/images/fishbone.png","null","",NA,NA,NA,NA,""
"image-keyboard-response",278,408109,"0.0-3.89-0.89","t1m87ukxkyw5atc",854,"50.csv","","416.40000000596046","resources/trios/L1T2A2.jpg","38","restless",0.5,0.8,0.4,0.944603727469286,"false"
"image-keyboard-response",279,408519,"0.0-3.89-1.89","t1m87ukxkyw5atc",854,"50.csv","","null","resources/maskTrios/BT2B.jpg","null","",NA,NA,NA,NA,""
"image-keyboard-response",280,409738,"0.0-3.89-2.89","t1m87ukxkyw5atc",854,"50.csv","","null","resources/images/fishbone.png","null","",NA,NA,NA,NA,""
"image-keyboard-response",281,410049,"0.0-3.90-0.90","t1m87ukxkyw5atc",854,"50.csv","","309.80000001192093","resources/trios/L2T2A2.jpg","37","restless",0.5,0.8,0.4,0.761929836370844,"false"
"image-keyboard-response",282,410456,"0.0-3.90-1.90","t1m87ukxkyw5atc",854,"50.csv","","null","resources/maskTrios/L2BB.jpg","null","",NA,NA,NA,NA,""
"image-keyboard-response",283,411672,"0.0-3.90-2.90","t1m87ukxkyw5atc",854,"50.csv","","null","resources/images/fishbone.png","null","",NA,NA,NA,NA,""
"image-keyboard-response",284,412005,"0.0-3.91-0.91","t1m87ukxkyw5atc",854,"50.csv","","331.40000000596046","resources/trios/L1T4A1.jpg","37","restless",0.5,0.8,0.3,0.313523282618886,"true"
"image-keyboard-response",285,412423,"0.0-3.91-1.91","t1m87ukxkyw5atc",854,"50.csv","","null","resources/maskTrios/L1BB.jpg","null","",NA,NA,NA,NA,""
"image-keyboard-response",286,413640,"0.0-3.91-2.91","t1m87ukxkyw5atc",854,"50.csv","","null","resources/images/coin2.png","null","",NA,NA,NA,NA,""
"image-keyboard-response",287,414704,"0.0-3.92-0.92","t1m87ukxkyw5atc",854,"50.csv","","1062","resources/trios/L2T4A2.jpg","37","restless",0.5,0.8,0.3,0.671492832681318,"false"
"image-keyboard-response",288,415113,"0.0-3.92-1.92","t1m87ukxkyw5atc",854,"50.csv","","null","resources/maskTrios/L2BB.jpg","null","",NA,NA,NA,NA,""
"image-keyboard-response",289,416318,"0.0-3.92-2.92","t1m87ukxkyw5atc",854,"50.csv","","null","resources/images/fishbone.png","null","",NA,NA,NA,NA,""
"image-keyboard-response",290,416580,"0.0-3.93-0.93","t1m87ukxkyw5atc",854,"50.csv","","260.30000001192093","resources/trios/L1T4A1.jpg","39","restless",0.4,0.8,0.3,0.782191166604175,"false"
"image-keyboard-response",291,416990,"0.0-3.93-1.93","t1m87ukxkyw5atc",854,"50.csv","","null","resources/maskTrios/BBA1.jpg","null","",NA,NA,NA,NA,""
"image-keyboard-response",292,418207,"0.0-3.93-2.93","t1m87ukxkyw5atc",854,"50.csv","","null","resources/images/fishbone.png","null","",NA,NA,NA,NA,""
"image-keyboard-response",293,418444,"0.0-3.94-0.94","t1m87ukxkyw5atc",854,"50.csv","","235.5","resources/trios/L2T4A2.jpg","38","restless",0.4,0.8,0.3,0.47376840609772,"true"
"image-keyboard-response",294,418855,"0.0-3.94-1.94","t1m87ukxkyw5atc",854,"50.csv","","null","resources/maskTrios/BT4B.jpg","null","",NA,NA,NA,NA,""
"image-keyboard-response",295,420067,"0.0-3.94-2.94","t1m87ukxkyw5atc",854,"50.csv","","null","resources/images/coin2.png","null","",NA,NA,NA,NA,""
"image-keyboard-response",296,420354,"0.0-3.95-0.95","t1m87ukxkyw5atc",854,"50.csv","","286.2000000178814","resources/trios/L1T4A1.jpg","38","restless",0.4,0.8,0.3,0.417724419630379,"true"
"image-keyboard-response",297,420771,"0.0-3.95-1.95","t1m87ukxkyw5atc",854,"50.csv","","null","resources/maskTrios/BT4B.jpg","null","",NA,NA,NA,NA,""
"image-keyboard-response",298,421985,"0.0-3.95-2.95","t1m87ukxkyw5atc",854,"50.csv","","null","resources/images/coin2.png","null","",NA,NA,NA,NA,""
"image-keyboard-response",299,422545,"0.0-3.96-0.96","t1m87ukxkyw5atc",854,"50.csv","","557.6999999880791","resources/trios/L2T4A2.jpg","38","restless",0.4,0.8,0.3,0.542335539582546,"true"
"image-keyboard-response",300,422956,"0.0-3.96-1.96","t1m87ukxkyw5atc",854,"50.csv","","null","resources/maskTrios/BT4B.jpg","null","",NA,NA,NA,NA,""
"image-keyboard-response",301,424179,"0.0-3.96-2.96","t1m87ukxkyw5atc",854,"50.csv","","null","resources/images/coin2.png","null","",NA,NA,NA,NA,""
"image-keyboard-response",302,424350,"0.0-3.97-0.97","t1m87ukxkyw5atc",854,"50.csv","","169.59999999403954","resources/trios/L1T4A2.jpg","38","restless",0.4,0.8,0.3,0.558832442314217,"true"
"image-keyboard-response",303,424769,"0.0-3.97-1.97","t1m87ukxkyw5atc",854,"50.csv","","null","resources/maskTrios/BT4B.jpg","null","",NA,NA,NA,NA,""
"image-keyboard-response",304,425978,"0.0-3.97-2.97","t1m87ukxkyw5atc",854,"50.csv","","null","resources/images/coin2.png","null","",NA,NA,NA,NA,""
"image-keyboard-response",305,426790,"0.0-3.98-0.98","t1m87ukxkyw5atc",854,"50.csv","","810.2999999821186","resources/trios/L1T2A1.jpg","38","restless",0.4,0.8,0.3,0.679282554063087,"true"
"image-keyboard-response",306,427198,"0.0-3.98-1.98","t1m87ukxkyw5atc",854,"50.csv","","null","resources/maskTrios/BT2B.jpg","null","",NA,NA,NA,NA,""
"image-keyboard-response",307,428419,"0.0-3.98-2.98","t1m87ukxkyw5atc",854,"50.csv","","null","resources/images/coin2.png","null","",NA,NA,NA,NA,""
"image-keyboard-response",308,428939,"0.0-3.99-0.99","t1m87ukxkyw5atc",854,"50.csv","","519.1000000238419","resources/trios/L1T2A2.jpg","38","restless",0.4,0.8,0.3,0.678668625277754,"true"
"image-keyboard-response",309,429362,"0.0-3.99-1.99","t1m87ukxkyw5atc",854,"50.csv","","null","resources/maskTrios/BT2B.jpg","null","",NA,NA,NA,NA,""
"image-keyboard-response",310,430585,"0.0-3.99-2.99","t1m87ukxkyw5atc",854,"50.csv","","null","resources/images/coin2.png","null","",NA,NA,NA,NA,""
"image-keyboard-response",311,430970,"0.0-3.100-0.100","t1m87ukxkyw5atc",854,"50.csv","","383.69999998807907","resources/trios/L1T4A2.jpg","38","restless",0.4,0.8,0.3,0.531541751373387,"true"
"image-keyboard-response",312,431392,"0.0-3.100-1.100","t1m87ukxkyw5atc",854,"50.csv","","null","resources/maskTrios/BT4B.jpg","null","",NA,NA,NA,NA,""
"image-keyboard-response",313,432600,"0.0-3.100-2.100","t1m87ukxkyw5atc",854,"50.csv","","null","resources/images/coin2.png","null","",NA,NA,NA,NA,""
"image-keyboard-response",314,433045,"0.0-3.101-0.101","t1m87ukxkyw5atc",854,"50.csv","","444","resources/trios/L1T2A2.jpg","38","restless",0.4,0.8,0.3,0.513900887980074,"true"
"image-keyboard-response",315,433462,"0.0-3.101-1.101","t1m87ukxkyw5atc",854,"50.csv","","null","resources/maskTrios/BT2B.jpg","null","",NA,NA,NA,NA,""
"image-keyboard-response",316,434679,"0.0-3.101-2.101","t1m87ukxkyw5atc",854,"50.csv","","null","resources/images/coin2.png","null","",NA,NA,NA,NA,""
"image-keyboard-response",317,434934,"0.0-3.102-0.102","t1m87ukxkyw5atc",854,"50.csv","","253.59999999403954","resources/trios/L2T2A1.jpg","38","restless",0.4,0.8,0.3,0.150878916368583,"true"
"image-keyboard-response",318,435348,"0.0-3.102-1.102","t1m87ukxkyw5atc",854,"50.csv","","null","resources/maskTrios/BT2B.jpg","null","",NA,NA,NA,NA,""
"image-keyboard-response",319,436561,"0.0-3.102-2.102","t1m87ukxkyw5atc",854,"50.csv","","null","resources/images/coin2.png","null","",NA,NA,NA,NA,""
"image-keyboard-response",320,440725,"0.0-3.103-0.103","t1m87ukxkyw5atc",854,"50.csv","","4162.299999982119","resources/trios/L1T2A2.jpg","38","restless",0.4,0.8,0.3,0.52134414199859,"true"
"image-keyboard-response",321,441147,"0.0-3.103-1.103","t1m87ukxkyw5atc",854,"50.csv","","null","resources/maskTrios/BT2B.jpg","null","",NA,NA,NA,NA,""
"image-keyboard-response",322,442362,"0.0-3.103-2.103","t1m87ukxkyw5atc",854,"50.csv","","null","resources/images/coin2.png","null","",NA,NA,NA,NA,""
"image-keyboard-response",323,443009,"0.0-3.104-0.104","t1m87ukxkyw5atc",854,"50.csv","","645.4000000059605","resources/trios/L1T2A1.jpg","38","restless",0.4,0.8,0.4,0.619731324660348,"true"
"image-keyboard-response",324,443413,"0.0-3.104-1.104","t1m87ukxkyw5atc",854,"50.csv","","null","resources/maskTrios/BT2B.jpg","null","",NA,NA,NA,NA,""
"image-keyboard-response",325,444626,"0.0-3.104-2.104","t1m87ukxkyw5atc",854,"50.csv","","null","resources/images/coin2.png","null","",NA,NA,NA,NA,""
"image-keyboard-response",326,444845,"0.0-3.105-0.105","t1m87ukxkyw5atc",854,"50.csv","","216.90000000596046","resources/trios/L2T2A1.jpg","38","restless",0.4,0.9,0.3,0.251822636755633,"true"
"image-keyboard-response",327,445248,"0.0-3.105-1.105","t1m87ukxkyw5atc",854,"50.csv","","null","resources/maskTrios/BT2B.jpg","null","",NA,NA,NA,NA,""
"image-keyboard-response",328,446460,"0.0-3.105-2.105","t1m87ukxkyw5atc",854,"50.csv","","null","resources/images/coin2.png","null","",NA,NA,NA,NA,""
"image-keyboard-response",329,446764,"0.0-3.106-0.106","t1m87ukxkyw5atc",854,"50.csv","","303.40000000596046","resources/trios/L1T2A2.jpg","38","restless",0.4,0.9,0.3,0.180478265428655,"true"
"image-keyboard-response",330,447174,"0.0-3.106-1.106","t1m87ukxkyw5atc",854,"50.csv","","null","resources/maskTrios/BT2B.jpg","null","",NA,NA,NA,NA,""
"image-keyboard-response",331,448385,"0.0-3.106-2.106","t1m87ukxkyw5atc",854,"50.csv","","null","resources/images/coin2.png","null","",NA,NA,NA,NA,""
"image-keyboard-response",332,448648,"0.0-3.107-0.107","t1m87ukxkyw5atc",854,"50.csv","","262.40000000596046","resources/trios/L2T4A2.jpg","38","restless",0.4,0.9,0.3,0.452155655208771,"true"
"image-keyboard-response",333,449058,"0.0-3.107-1.107","t1m87ukxkyw5atc",854,"50.csv","","null","resources/maskTrios/BT4B.jpg","null","",NA,NA,NA,NA,""
"image-keyboard-response",334,450276,"0.0-3.107-2.107","t1m87ukxkyw5atc",854,"50.csv","","null","resources/images/coin2.png","null","",NA,NA,NA,NA,""
"image-keyboard-response",335,471991,"0.0-3.108-0.108","t1m87ukxkyw5atc",854,"50.csv","","21712.80000001192","resources/trios/L1T2A2.jpg","37","restless",0.4,0.9,0.3,0.528197989371795,"false"
"image-keyboard-response",336,472412,"0.0-3.108-1.108","t1m87ukxkyw5atc",854,"50.csv","","null","resources/maskTrios/L1BB.jpg","null","",NA,NA,NA,NA,""
"image-keyboard-response",337,473623,"0.0-3.108-2.108","t1m87ukxkyw5atc",854,"50.csv","","null","resources/images/fishbone.png","null","",NA,NA,NA,NA,""
"image-keyboard-response",338,474019,"0.0-3.109-0.109","t1m87ukxkyw5atc",854,"50.csv","","393.90000000596046","resources/trios/L1T2A2.jpg","38","restless",0.4,0.9,0.3,0.856793200192331,"true"
"image-keyboard-response",339,474435,"0.0-3.109-1.109","t1m87ukxkyw5atc",854,"50.csv","","null","resources/maskTrios/BT2B.jpg","null","",NA,NA,NA,NA,""
"image-keyboard-response",340,475656,"0.0-3.109-2.109","t1m87ukxkyw5atc",854,"50.csv","","null","resources/images/coin2.png","null","",NA,NA,NA,NA,""
"image-keyboard-response",341,476719,"0.0-3.110-0.110","t1m87ukxkyw5atc",854,"50.csv","","1060.699999988079","resources/trios/L2T2A2.jpg","39","restless",0.4,0.9,0.3,0.230563331916811,"true"
"image-keyboard-response",342,477130,"0.0-3.110-1.110","t1m87ukxkyw5atc",854,"50.csv","","null","resources/maskTrios/BBA2.jpg","null","",NA,NA,NA,NA,""
"image-keyboard-response",343,478340,"0.0-3.110-2.110","t1m87ukxkyw5atc",854,"50.csv","","null","resources/images/coin2.png","null","",NA,NA,NA,NA,""
"image-keyboard-response",344,478574,"0.0-3.111-0.111","t1m87ukxkyw5atc",854,"50.csv","","232.5","resources/trios/L1T2A2.jpg","39","restless",0.4,0.9,0.3,0.35586326338446,"false"
"image-keyboard-response",345,478989,"0.0-3.111-1.111","t1m87ukxkyw5atc",854,"50.csv","","null","resources/maskTrios/BBA2.jpg","null","",NA,NA,NA,NA,""
"image-keyboard-response",346,480210,"0.0-3.111-2.111","t1m87ukxkyw5atc",854,"50.csv","","null","resources/images/fishbone.png","null","",NA,NA,NA,NA,""
"image-keyboard-response",347,480486,"0.0-3.112-0.112","t1m87ukxkyw5atc",854,"50.csv","","274.5","resources/trios/L1T2A2.jpg","38","restless",0.4,0.9,0.3,0.699657909956843,"true"
"image-keyboard-response",348,480898,"0.0-3.112-1.112","t1m87ukxkyw5atc",854,"50.csv","","null","resources/maskTrios/BT2B.jpg","null","",NA,NA,NA,NA,""
"image-keyboard-response",349,482108,"0.0-3.112-2.112","t1m87ukxkyw5atc",854,"50.csv","","null","resources/images/coin2.png","null","",NA,NA,NA,NA,""
"image-keyboard-response",350,482375,"0.0-3.113-0.113","t1m87ukxkyw5atc",854,"50.csv","","265.30000001192093","resources/trios/L1T2A2.jpg","38","restless",0.4,0.9,0.3,0.97500613835879,"false"
"image-keyboard-response",351,482787,"0.0-3.113-1.113","t1m87ukxkyw5atc",854,"50.csv","","null","resources/maskTrios/BT2B.jpg","null","",NA,NA,NA,NA,""
"image-keyboard-response",352,484008,"0.0-3.113-2.113","t1m87ukxkyw5atc",854,"50.csv","","null","resources/images/fishbone.png","null","",NA,NA,NA,NA,""
"image-keyboard-response",353,484258,"0.0-3.114-0.114","t1m87ukxkyw5atc",854,"50.csv","","249.39999997615814","resources/trios/L1T2A1.jpg","37","restless",0.4,0.9,0.3,0.228768933968921,"true"
"image-keyboard-response",354,484681,"0.0-3.114-1.114","t1m87ukxkyw5atc",854,"50.csv","","null","resources/maskTrios/L1BB.jpg","null","",NA,NA,NA,NA,""
"image-keyboard-response",355,485891,"0.0-3.114-2.114","t1m87ukxkyw5atc",854,"50.csv","","null","resources/images/coin2.png","null","",NA,NA,NA,NA,""
"image-keyboard-response",356,486138,"0.0-3.115-0.115","t1m87ukxkyw5atc",854,"50.csv","","245.69999998807907","resources/trios/L1T4A1.jpg","37","restless",0.4,0.9,0.3,0.542901016656331,"false"
"image-keyboard-response",357,486562,"0.0-3.115-1.115","t1m87ukxkyw5atc",854,"50.csv","","null","resources/maskTrios/L1BB.jpg","null","",NA,NA,NA,NA,""
"image-keyboard-response",358,487763,"0.0-3.115-2.115","t1m87ukxkyw5atc",854,"50.csv","","null","resources/images/fishbone.png","null","",NA,NA,NA,NA,""
"image-keyboard-response",359,488004,"0.0-3.116-0.116","t1m87ukxkyw5atc",854,"50.csv","","239.10000002384186","resources/trios/L1T2A2.jpg","39","restless",0.4,0.9,0.4,0.0983022214497227,"true"
"image-keyboard-response",360,488419,"0.0-3.116-1.116","t1m87ukxkyw5atc",854,"50.csv","","null","resources/maskTrios/BBA2.jpg","null","",NA,NA,NA,NA,""
"image-keyboard-response",361,489636,"0.0-3.116-2.116","t1m87ukxkyw5atc",854,"50.csv","","null","resources/images/coin2.png","null","",NA,NA,NA,NA,""
"image-keyboard-response",362,489988,"0.0-3.117-0.117","t1m87ukxkyw5atc",854,"50.csv","","350.7999999821186","resources/trios/L2T2A1.jpg","38","restless",0.4,0.9,0.4,0.564324520965833,"true"
"image-keyboard-response",363,490399,"0.0-3.117-1.117","t1m87ukxkyw5atc",854,"50.csv","","null","resources/maskTrios/BT2B.jpg","null","",NA,NA,NA,NA,""
"image-keyboard-response",364,491605,"0.0-3.117-2.117","t1m87ukxkyw5atc",854,"50.csv","","null","resources/images/coin2.png","null","",NA,NA,NA,NA,""
"image-keyboard-response",365,491923,"0.0-3.118-0.118","t1m87ukxkyw5atc",854,"50.csv","","316.90000000596046","resources/trios/L2T2A2.jpg","38","restless",0.4,0.9,0.4,0.154736780221882,"true"
"image-keyboard-response",366,492340,"0.0-3.118-1.118","t1m87ukxkyw5atc",854,"50.csv","","null","resources/maskTrios/BT2B.jpg","null","",NA,NA,NA,NA,""
"image-keyboard-response",367,493558,"0.0-3.118-2.118","t1m87ukxkyw5atc",854,"50.csv","","null","resources/images/coin2.png","null","",NA,NA,NA,NA,""
"image-keyboard-response",368,493630,"0.0-3.119-0.119","t1m87ukxkyw5atc",854,"50.csv","","70.5","resources/trios/L2T4A1.jpg","38","restless",0.3,0.9,0.4,0.133412470937016,"true"
"image-keyboard-response",369,494047,"0.0-3.119-1.119","t1m87ukxkyw5atc",854,"50.csv","","null","resources/maskTrios/BT4B.jpg","null","",NA,NA,NA,NA,""
"image-keyboard-response",370,495264,"0.0-3.119-2.119","t1m87ukxkyw5atc",854,"50.csv","","null","resources/images/coin2.png","null","",NA,NA,NA,NA,""
"image-keyboard-response",371,495504,"0.0-3.120-0.120","t1m87ukxkyw5atc",854,"50.csv","","238.30000001192093","resources/trios/L2T2A2.jpg","38","restless",0.3,0.9,0.4,0.490238638164595,"true"
"image-keyboard-response",372,495908,"0.0-3.120-1.120","t1m87ukxkyw5atc",854,"50.csv","","null","resources/maskTrios/BT2B.jpg","null","",NA,NA,NA,NA,""
"image-keyboard-response",373,497129,"0.0-3.120-2.120","t1m87ukxkyw5atc",854,"50.csv","","null","resources/images/coin2.png","null","",NA,NA,NA,NA,""
"image-keyboard-response",374,497333,"0.0-3.121-0.121","t1m87ukxkyw5atc",854,"50.csv","","202.40000000596046","resources/trios/L1T2A1.jpg","38","restless",0.3,0.9,0.4,0.372168675049752,"true"
"image-keyboard-response",375,497743,"0.0-3.121-1.121","t1m87ukxkyw5atc",854,"50.csv","","null","resources/maskTrios/BT2B.jpg","null","",NA,NA,NA,NA,""
"image-keyboard-response",376,498955,"0.0-3.121-2.121","t1m87ukxkyw5atc",854,"50.csv","","null","resources/images/coin2.png","null","",NA,NA,NA,NA,""
"image-keyboard-response",377,500168,"0.0-3.122-0.122","t1m87ukxkyw5atc",854,"50.csv","","1211","resources/trios/L1T4A2.jpg","38","restless",0.3,0.9,0.5,0.244116802439845,"true"
"image-keyboard-response",378,500572,"0.0-3.122-1.122","t1m87ukxkyw5atc",854,"50.csv","","null","resources/maskTrios/BT4B.jpg","null","",NA,NA,NA,NA,""
"image-keyboard-response",379,501780,"0.0-3.122-2.122","t1m87ukxkyw5atc",854,"50.csv","","null","resources/images/coin2.png","null","",NA,NA,NA,NA,""
"image-keyboard-response",380,501994,"0.0-3.123-0.123","t1m87ukxkyw5atc",854,"50.csv","","212.59999999403954","resources/trios/L1T2A2.jpg","38","restless",0.3,0.9,0.5,0.973079532569184,"false"
"image-keyboard-response",381,502408,"0.0-3.123-1.123","t1m87ukxkyw5atc",854,"50.csv","","null","resources/maskTrios/BT2B.jpg","null","",NA,NA,NA,NA,""
"image-keyboard-response",382,503624,"0.0-3.123-2.123","t1m87ukxkyw5atc",854,"50.csv","","null","resources/images/fishbone.png","null","",NA,NA,NA,NA,""
"image-keyboard-response",383,503874,"0.0-3.124-0.124","t1m87ukxkyw5atc",854,"50.csv","","248.90000000596046","resources/trios/L1T2A2.jpg","37","restless",0.2,0.9,0.5,0.923583632628451,"false"
"image-keyboard-response",384,504292,"0.0-3.124-1.124","t1m87ukxkyw5atc",854,"50.csv","","null","resources/maskTrios/L1BB.jpg","null","",NA,NA,NA,NA,""
"image-keyboard-response",385,505500,"0.0-3.124-2.124","t1m87ukxkyw5atc",854,"50.csv","","null","resources/images/fishbone.png","null","",NA,NA,NA,NA,""
"image-keyboard-response",386,505732,"0.0-3.125-0.125","t1m87ukxkyw5atc",854,"50.csv","","231.40000000596046","resources/trios/L1T2A2.jpg","39","restless",0.2,0.9,0.5,0.249746067656201,"true"
"image-keyboard-response",387,506152,"0.0-3.125-1.125","t1m87ukxkyw5atc",854,"50.csv","","null","resources/maskTrios/BBA2.jpg","null","",NA,NA,NA,NA,""
"image-keyboard-response",388,507366,"0.0-3.125-2.125","t1m87ukxkyw5atc",854,"50.csv","","null","resources/images/coin2.png","null","",NA,NA,NA,NA,""
"image-keyboard-response",389,507676,"0.0-3.126-0.126","t1m87ukxkyw5atc",854,"50.csv","","308.60000002384186","resources/trios/L2T2A2.jpg","39","restless",0.2,0.9,0.4,0.868351512066364,"false"
"image-keyboard-response",390,508100,"0.0-3.126-1.126","t1m87ukxkyw5atc",854,"50.csv","","null","resources/maskTrios/BBA2.jpg","null","",NA,NA,NA,NA,""
"image-keyboard-response",391,509318,"0.0-3.126-2.126","t1m87ukxkyw5atc",854,"50.csv","","null","resources/images/fishbone.png","null","",NA,NA,NA,NA,""
"image-keyboard-response",392,509528,"0.0-3.127-0.127","t1m87ukxkyw5atc",854,"50.csv","","208.39999997615814","resources/trios/L2T2A2.jpg","38","restless",0.3,0.9,0.5,0.916663370366977,"false"
"image-keyboard-response",393,509938,"0.0-3.127-1.127","t1m87ukxkyw5atc",854,"50.csv","","null","resources/maskTrios/BT2B.jpg","null","",NA,NA,NA,NA,""
"image-keyboard-response",394,511152,"0.0-3.127-2.127","t1m87ukxkyw5atc",854,"50.csv","","null","resources/images/fishbone.png","null","",NA,NA,NA,NA,""
"image-keyboard-response",395,511422,"0.0-3.128-0.128","t1m87ukxkyw5atc",854,"50.csv","","267.69999998807907","resources/trios/L2T4A1.jpg","37","restless",0.3,0.9,0.5,0.970906607822413,"false"
"image-keyboard-response",396,511837,"0.0-3.128-1.128","t1m87ukxkyw5atc",854,"50.csv","","null","resources/maskTrios/L2BB.jpg","null","",NA,NA,NA,NA,""
"image-keyboard-response",397,513056,"0.0-3.128-2.128","t1m87ukxkyw5atc",854,"50.csv","","null","resources/images/fishbone.png","null","",NA,NA,NA,NA,""
"image-keyboard-response",398,513308,"0.0-3.129-0.129","t1m87ukxkyw5atc",854,"50.csv","","249.80000001192093","resources/trios/L2T4A1.jpg","39","restless",0.3,0.8,0.5,0.851915340000756,"false"
"image-keyboard-response",399,513726,"0.0-3.129-1.129","t1m87ukxkyw5atc",854,"50.csv","","null","resources/maskTrios/BBA1.jpg","null","",NA,NA,NA,NA,""
"image-keyboard-response",400,514938,"0.0-3.129-2.129","t1m87ukxkyw5atc",854,"50.csv","","null","resources/images/fishbone.png","null","",NA,NA,NA,NA,""
"image-keyboard-response",401,515028,"0.0-3.130-0.130","t1m87ukxkyw5atc",854,"50.csv","","88.7000000178814","resources/trios/L2T2A1.jpg","39","restless",0.3,0.8,0.5,0.00997787095132052,"true"
"image-keyboard-response",402,515444,"0.0-3.130-1.130","t1m87ukxkyw5atc",854,"50.csv","","null","resources/maskTrios/BBA1.jpg","null","",NA,NA,NA,NA,""
"image-keyboard-response",403,516661,"0.0-3.130-2.130","t1m87ukxkyw5atc",854,"50.csv","","null","resources/images/coin2.png","null","",NA,NA,NA,NA,""
"image-keyboard-response",404,516828,"0.0-3.131-0.131","t1m87ukxkyw5atc",854,"50.csv","","164.59999999403954","resources/trios/L1T4A1.jpg","39","restless",0.3,0.8,0.5,0.0500579421725005,"true"
"image-keyboard-response",405,517239,"0.0-3.131-1.131","t1m87ukxkyw5atc",854,"50.csv","","null","resources/maskTrios/BBA1.jpg","null","",NA,NA,NA,NA,""
"image-keyboard-response",406,518451,"0.0-3.131-2.131","t1m87ukxkyw5atc",854,"50.csv","","null","resources/images/coin2.png","null","",NA,NA,NA,NA,""
"image-keyboard-response",407,518952,"0.0-3.132-0.132","t1m87ukxkyw5atc",854,"50.csv","","500.19999998807907","resources/trios/L1T4A2.jpg","39","restless",0.3,0.8,0.5,0.16795974560768,"true"
"image-keyboard-response",408,519371,"0.0-3.132-1.132","t1m87ukxkyw5atc",854,"50.csv","","null","resources/maskTrios/BBA2.jpg","null","",NA,NA,NA,NA,""
"image-keyboard-response",409,520588,"0.0-3.132-2.132","t1m87ukxkyw5atc",854,"50.csv","","null","resources/images/coin2.png","null","",NA,NA,NA,NA,""
"image-keyboard-response",410,520833,"0.0-3.133-0.133","t1m87ukxkyw5atc",854,"50.csv","","243.40000000596046","resources/trios/L1T2A1.jpg","39","restless",0.3,0.8,0.5,0.849688625528782,"false"
"image-keyboard-response",411,521239,"0.0-3.133-1.133","t1m87ukxkyw5atc",854,"50.csv","","null","resources/maskTrios/BBA1.jpg","null","",NA,NA,NA,NA,""
"image-keyboard-response",412,522458,"0.0-3.133-2.133","t1m87ukxkyw5atc",854,"50.csv","","null","resources/images/fishbone.png","null","",NA,NA,NA,NA,""
"image-keyboard-response",413,522752,"0.0-3.134-0.134","t1m87ukxkyw5atc",854,"50.csv","","292.59999999403954","resources/trios/L2T4A2.jpg","37","restless",0.2,0.8,0.5,0.731747830979555,"false"
"image-keyboard-response",414,523159,"0.0-3.134-1.134","t1m87ukxkyw5atc",854,"50.csv","","null","resources/maskTrios/L2BB.jpg","null","",NA,NA,NA,NA,""
"image-keyboard-response",415,524378,"0.0-3.134-2.134","t1m87ukxkyw5atc",854,"50.csv","","null","resources/images/fishbone.png","null","",NA,NA,NA,NA,""
"image-keyboard-response",416,524737,"0.0-3.135-0.135","t1m87ukxkyw5atc",854,"50.csv","","357.40000000596046","resources/trios/L1T4A1.jpg","38","restless",0.2,0.8,0.5,0.643304036600003,"true"
"image-keyboard-response",417,525146,"0.0-3.135-1.135","t1m87ukxkyw5atc",854,"50.csv","","null","resources/maskTrios/BT4B.jpg","null","",NA,NA,NA,NA,""
"image-keyboard-response",418,526355,"0.0-3.135-2.135","t1m87ukxkyw5atc",854,"50.csv","","null","resources/images/coin2.png","null","",NA,NA,NA,NA,""
"image-keyboard-response",419,527058,"0.0-3.136-0.136","t1m87ukxkyw5atc",854,"50.csv","","702","resources/trios/L1T4A1.jpg","38","restless",0.2,0.8,0.5,0.457206691955385,"true"
"image-keyboard-response",420,527479,"0.0-3.136-1.136","t1m87ukxkyw5atc",854,"50.csv","","null","resources/maskTrios/BT4B.jpg","null","",NA,NA,NA,NA,""
"image-keyboard-response",421,528691,"0.0-3.136-2.136","t1m87ukxkyw5atc",854,"50.csv","","null","resources/images/coin2.png","null","",NA,NA,NA,NA,""
"image-keyboard-response",422,528936,"0.0-3.137-0.137","t1m87ukxkyw5atc",854,"50.csv","","243.19999998807907","resources/trios/L2T2A1.jpg","38","restless",0.2,0.8,0.5,0.583289178753849,"true"
"image-keyboard-response",423,529342,"0.0-3.137-1.137","t1m87ukxkyw5atc",854,"50.csv","","null","resources/maskTrios/BT2B.jpg","null","",NA,NA,NA,NA,""
"image-keyboard-response",424,530560,"0.0-3.137-2.137","t1m87ukxkyw5atc",854,"50.csv","","null","resources/images/coin2.png","null","",NA,NA,NA,NA,""
"image-keyboard-response",425,530891,"0.0-3.138-0.138","t1m87ukxkyw5atc",854,"50.csv","","330.40000000596046","resources/trios/L2T4A1.jpg","38","restless",0.2,0.8,0.5,0.363947654353665,"true"
"image-keyboard-response",426,531303,"0.0-3.138-1.138","t1m87ukxkyw5atc",854,"50.csv","","null","resources/maskTrios/BT4B.jpg","null","",NA,NA,NA,NA,""
"image-keyboard-response",427,532512,"0.0-3.138-2.138","t1m87ukxkyw5atc",854,"50.csv","","null","resources/images/coin2.png","null","",NA,NA,NA,NA,""
"image-keyboard-response",428,532727,"0.0-3.139-0.139","t1m87ukxkyw5atc",854,"50.csv","","213.90000000596046","resources/trios/L2T4A1.jpg","38","restless",0.3,0.8,0.5,0.547291307888539,"true"
"image-keyboard-response",429,533138,"0.0-3.139-1.139","t1m87ukxkyw5atc",854,"50.csv","","null","resources/maskTrios/BT4B.jpg","null","",NA,NA,NA,NA,""
"image-keyboard-response",430,534343,"0.0-3.139-2.139","t1m87ukxkyw5atc",854,"50.csv","","null","resources/images/coin2.png","null","",NA,NA,NA,NA,""
"image-keyboard-response",431,535782,"0.0-3.140-0.140","t1m87ukxkyw5atc",854,"50.csv","","1437.8999999761581","resources/trios/L2T2A2.jpg","38","restless",0.3,0.8,0.5,0.666282382903109,"true"
"image-keyboard-response",432,536192,"0.0-3.140-1.140","t1m87ukxkyw5atc",854,"50.csv","","null","resources/maskTrios/BT2B.jpg","null","",NA,NA,NA,NA,""
"image-keyboard-response",433,537402,"0.0-3.140-2.140","t1m87ukxkyw5atc",854,"50.csv","","null","resources/images/coin2.png","null","",NA,NA,NA,NA,""
"image-keyboard-response",434,537962,"0.0-3.141-0.141","t1m87ukxkyw5atc",854,"50.csv","","558.7999999821186","resources/trios/L1T2A2.jpg","38","restless",0.3,0.8,0.5,0.876614368646547,"false"
"image-keyboard-response",435,538381,"0.0-3.141-1.141","t1m87ukxkyw5atc",854,"50.csv","","null","resources/maskTrios/BT2B.jpg","null","",NA,NA,NA,NA,""
"image-keyboard-response",436,539588,"0.0-3.141-2.141","t1m87ukxkyw5atc",854,"50.csv","","null","resources/images/fishbone.png","null","",NA,NA,NA,NA,""
"image-keyboard-response",437,539822,"0.0-3.142-0.142","t1m87ukxkyw5atc",854,"50.csv","","232.80000001192093","resources/trios/L2T2A1.jpg","39","restless",0.3,0.8,0.4,0.69426500703382,"false"
"image-keyboard-response",438,540230,"0.0-3.142-1.142","t1m87ukxkyw5atc",854,"50.csv","","null","resources/maskTrios/BBA1.jpg","null","",NA,NA,NA,NA,""
"image-keyboard-response",439,541446,"0.0-3.142-2.142","t1m87ukxkyw5atc",854,"50.csv","","null","resources/images/fishbone.png","null","",NA,NA,NA,NA,""
"image-keyboard-response",440,541792,"0.0-3.143-0.143","t1m87ukxkyw5atc",854,"50.csv","","344.80000001192093","resources/trios/L1T4A2.jpg","37","restless",0.3,0.8,0.4,0.573234845972421,"false"
"image-keyboard-response",441,542208,"0.0-3.143-1.143","t1m87ukxkyw5atc",854,"50.csv","","null","resources/maskTrios/L1BB.jpg","null","",NA,NA,NA,NA,""
"image-keyboard-response",442,543428,"0.0-3.143-2.143","t1m87ukxkyw5atc",854,"50.csv","","null","resources/images/fishbone.png","null","",NA,NA,NA,NA,""
"image-keyboard-response",443,543672,"0.0-3.144-0.144","t1m87ukxkyw5atc",854,"50.csv","","242.09999999403954","resources/trios/L2T2A1.jpg","38","restless",0.3,0.8,0.4,0.253624974102897,"true"
"image-keyboard-response",444,544090,"0.0-3.144-1.144","t1m87ukxkyw5atc",854,"50.csv","","null","resources/maskTrios/BT2B.jpg","null","",NA,NA,NA,NA,""
"image-keyboard-response",445,545307,"0.0-3.144-2.144","t1m87ukxkyw5atc",854,"50.csv","","null","resources/images/coin2.png","null","",NA,NA,NA,NA,""
"image-keyboard-response",446,545512,"0.0-3.145-0.145","t1m87ukxkyw5atc",854,"50.csv","","203.5","resources/trios/L2T4A1.jpg","38","restless",0.3,0.9,0.5,0.184803320973178,"true"
"image-keyboard-response",447,545916,"0.0-3.145-1.145","t1m87ukxkyw5atc",854,"50.csv","","null","resources/maskTrios/BT4B.jpg","null","",NA,NA,NA,NA,""
"image-keyboard-response",448,547132,"0.0-3.145-2.145","t1m87ukxkyw5atc",854,"50.csv","","null","resources/images/coin2.png","null","",NA,NA,NA,NA,""
"image-keyboard-response",449,547208,"0.0-3.146-0.146","t1m87ukxkyw5atc",854,"50.csv","","74.40000000596046","resources/trios/L1T4A1.jpg","38","restless",0.3,0.9,0.5,0.42817058967858,"true"
"image-keyboard-response",450,547620,"0.0-3.146-1.146","t1m87ukxkyw5atc",854,"50.csv","","null","resources/maskTrios/BT4B.jpg","null","",NA,NA,NA,NA,""
"image-keyboard-response",451,548839,"0.0-3.146-2.146","t1m87ukxkyw5atc",854,"50.csv","","null","resources/images/coin2.png","null","",NA,NA,NA,NA,""
"image-keyboard-response",452,549153,"0.0-3.147-0.147","t1m87ukxkyw5atc",854,"50.csv","","312.69999998807907","resources/trios/L1T4A1.jpg","38","restless",0.3,0.9,0.5,0.249767451687761,"true"
"image-keyboard-response",453,549560,"0.0-3.147-1.147","t1m87ukxkyw5atc",854,"50.csv","","null","resources/maskTrios/BT4B.jpg","null","",NA,NA,NA,NA,""
"image-keyboard-response",454,550768,"0.0-3.147-2.147","t1m87ukxkyw5atc",854,"50.csv","","null","resources/images/coin2.png","null","",NA,NA,NA,NA,""
"image-keyboard-response",455,551096,"0.0-3.148-0.148","t1m87ukxkyw5atc",854,"50.csv","","326.69999998807907","resources/trios/L2T2A1.jpg","38","restless",0.3,0.9,0.5,0.28528355520722,"true"
"image-keyboard-response",456,551509,"0.0-3.148-1.148","t1m87ukxkyw5atc",854,"50.csv","","null","resources/maskTrios/BT2B.jpg","null","",NA,NA,NA,NA,""
"image-keyboard-response",457,552721,"0.0-3.148-2.148","t1m87ukxkyw5atc",854,"50.csv","","null","resources/images/coin2.png","null","",NA,NA,NA,NA,""
"image-keyboard-response",458,552982,"0.0-3.149-0.149","t1m87ukxkyw5atc",854,"50.csv","","259.39999997615814","resources/trios/L1T2A2.jpg","38","restless",0.3,0.9,0.5,0.432436852110324,"true"
"image-keyboard-response",459,553402,"0.0-3.149-1.149","t1m87ukxkyw5atc",854,"50.csv","","null","resources/maskTrios/BT2B.jpg","null","",NA,NA,NA,NA,""
"image-keyboard-response",460,554605,"0.0-3.149-2.149","t1m87ukxkyw5atc",854,"50.csv","","null","resources/images/coin2.png","null","",NA,NA,NA,NA,""
"image-keyboard-response",461,554934,"0.0-3.150-0.150","t1m87ukxkyw5atc",854,"50.csv","","328","resources/trios/L1T4A1.jpg","39","restless",0.4,0.9,0.5,0.642306291170183,"false"
"image-keyboard-response",462,555351,"0.0-3.150-1.150","t1m87ukxkyw5atc",854,"50.csv","","null","resources/maskTrios/BBA1.jpg","null","",NA,NA,NA,NA,""
"image-keyboard-response",463,556560,"0.0-3.150-2.150","t1m87ukxkyw5atc",854,"50.csv","","null","resources/images/fishbone.png","null","",NA,NA,NA,NA,""
"image-keyboard-response",464,557167,"0.0-3.151-0.151","t1m87ukxkyw5atc",854,"50.csv","","605.8999999761581","resources/trios/L1T2A2.jpg","38","restless",0.4,0.9,0.5,0.00921257492499961,"true"
"image-keyboard-response",465,557579,"0.0-3.151-1.151","t1m87ukxkyw5atc",854,"50.csv","","null","resources/maskTrios/BT2B.jpg","null","",NA,NA,NA,NA,""
"image-keyboard-response",466,558800,"0.0-3.151-2.151","t1m87ukxkyw5atc",854,"50.csv","","null","resources/images/coin2.png","null","",NA,NA,NA,NA,""
"image-keyboard-response",467,559156,"0.0-3.152-0.152","t1m87ukxkyw5atc",854,"50.csv","","354.89999997615814","resources/trios/L1T2A1.jpg","38","restless",0.4,0.9,0.5,0.883099060747311,"true"
"image-keyboard-response",468,559566,"0.0-3.152-1.152","t1m87ukxkyw5atc",854,"50.csv","","null","resources/maskTrios/BT2B.jpg","null","",NA,NA,NA,NA,""
"image-keyboard-response",469,560773,"0.0-3.152-2.152","t1m87ukxkyw5atc",854,"50.csv","","null","resources/images/coin2.png","null","",NA,NA,NA,NA,""
"image-keyboard-response",470,561038,"0.0-3.153-0.153","t1m87ukxkyw5atc",854,"50.csv","","263.39999997615814","resources/trios/L2T2A1.jpg","38","restless",0.4,0.8,0.5,0.567311023759368,"true"
"image-keyboard-response",471,561450,"0.0-3.153-1.153","t1m87ukxkyw5atc",854,"50.csv","","null","resources/maskTrios/BT2B.jpg","null","",NA,NA,NA,NA,""
"image-keyboard-response",472,562666,"0.0-3.153-2.153","t1m87ukxkyw5atc",854,"50.csv","","null","resources/images/coin2.png","null","",NA,NA,NA,NA,""
"image-keyboard-response",473,562892,"0.0-3.154-0.154","t1m87ukxkyw5atc",854,"50.csv","","224.30000001192093","resources/trios/L2T4A2.jpg","38","restless",0.5,0.8,0.5,0.18469445709232,"true"
"image-keyboard-response",474,563315,"0.0-3.154-1.154","t1m87ukxkyw5atc",854,"50.csv","","null","resources/maskTrios/BT4B.jpg","null","",NA,NA,NA,NA,""
"image-keyboard-response",475,564530,"0.0-3.154-2.154","t1m87ukxkyw5atc",854,"50.csv","","null","resources/images/coin2.png","null","",NA,NA,NA,NA,""
"image-keyboard-response",476,564771,"0.0-3.155-0.155","t1m87ukxkyw5atc",854,"50.csv","","239.5","resources/trios/L1T2A1.jpg","38","restless",0.5,0.8,0.5,0.290264530568029,"true"
"image-keyboard-response",477,565183,"0.0-3.155-1.155","t1m87ukxkyw5atc",854,"50.csv","","null","resources/maskTrios/BT2B.jpg","null","",NA,NA,NA,NA,""
"image-keyboard-response",478,566397,"0.0-3.155-2.155","t1m87ukxkyw5atc",854,"50.csv","","null","resources/images/coin2.png","null","",NA,NA,NA,NA,""
"image-keyboard-response",479,567197,"0.0-3.156-0.156","t1m87ukxkyw5atc",854,"50.csv","","798.5","resources/trios/L1T2A1.jpg","38","restless",0.5,0.8,0.5,0.441895852895766,"true"
"image-keyboard-response",480,567608,"0.0-3.156-1.156","t1m87ukxkyw5atc",854,"50.csv","","null","resources/maskTrios/BT2B.jpg","null","",NA,NA,NA,NA,""
"image-keyboard-response",481,568813,"0.0-3.156-2.156","t1m87ukxkyw5atc",854,"50.csv","","null","resources/images/coin2.png","null","",NA,NA,NA,NA,""
"image-keyboard-response",482,570422,"0.0-3.157-0.157","t1m87ukxkyw5atc",854,"50.csv","","1608.5","resources/trios/L2T2A1.jpg","38","restless",0.5,0.8,0.5,0.527364653389085,"true"
"image-keyboard-response",483,570835,"0.0-3.157-1.157","t1m87ukxkyw5atc",854,"50.csv","","null","resources/maskTrios/BT2B.jpg","null","",NA,NA,NA,NA,""
"image-keyboard-response",484,572058,"0.0-3.157-2.157","t1m87ukxkyw5atc",854,"50.csv","","null","resources/images/coin2.png","null","",NA,NA,NA,NA,""
"image-keyboard-response",485,596728,"0.0-3.158-0.158","t1m87ukxkyw5atc",854,"50.csv","","24673.09999999404","resources/trios/L2T2A1.jpg","39","restless",0.5,0.8,0.5,0.477482004363355,"true"
"image-keyboard-response",486,597145,"0.0-3.158-1.158","t1m87ukxkyw5atc",854,"50.csv","","null","resources/maskTrios/BBA1.jpg","null","",NA,NA,NA,NA,""
"image-keyboard-response",487,598366,"0.0-3.158-2.158","t1m87ukxkyw5atc",854,"50.csv","","null","resources/images/coin2.png","null","",NA,NA,NA,NA,""
"image-keyboard-response",488,598802,"0.0-3.159-0.159","t1m87ukxkyw5atc",854,"50.csv","","434.40000000596046","resources/trios/L1T2A2.jpg","39","restless",0.5,0.8,0.5,0.0778681566153285,"true"
"image-keyboard-response",489,599222,"0.0-3.159-1.159","t1m87ukxkyw5atc",854,"50.csv","","null","resources/maskTrios/BBA2.jpg","null","",NA,NA,NA,NA,""
"image-keyboard-response",490,600437,"0.0-3.159-2.159","t1m87ukxkyw5atc",854,"50.csv","","null","resources/images/coin2.png","null","",NA,NA,NA,NA,""
"image-keyboard-response",491,600697,"0.0-3.160-0.160","t1m87ukxkyw5atc",854,"50.csv","","258.80000001192093","resources/trios/L1T2A1.jpg","39","restless",0.4,0.8,0.5,0.920785517134963,"false"
"image-keyboard-response",492,601106,"0.0-3.160-1.160","t1m87ukxkyw5atc",854,"50.csv","","null","resources/maskTrios/BBA1.jpg","null","",NA,NA,NA,NA,""
"image-keyboard-response",493,602317,"0.0-3.160-2.160","t1m87ukxkyw5atc",854,"50.csv","","null","resources/images/fishbone.png","null","",NA,NA,NA,NA,""
"image-keyboard-response",494,602652,"0.0-3.161-0.161","t1m87ukxkyw5atc",854,"50.csv","","333.59999999403954","resources/trios/L2T4A2.jpg","37","restless",0.4,0.8,0.5,0.48740688760084,"false"
"image-keyboard-response",495,603069,"0.0-3.161-1.161","t1m87ukxkyw5atc",854,"50.csv","","null","resources/maskTrios/L2BB.jpg","null","",NA,NA,NA,NA,""
"image-keyboard-response",496,604277,"0.0-3.161-2.161","t1m87ukxkyw5atc",854,"50.csv","","null","resources/images/fishbone.png","null","",NA,NA,NA,NA,""
"image-keyboard-response",497,604471,"0.0-3.162-0.162","t1m87ukxkyw5atc",854,"50.csv","","192.5","resources/trios/L1T4A1.jpg","38","restless",0.4,0.8,0.5,0.843855713646972,"false"
"image-keyboard-response",498,604895,"0.0-3.162-1.162","t1m87ukxkyw5atc",854,"50.csv","","null","resources/maskTrios/BT4B.jpg","null","",NA,NA,NA,NA,""
"image-keyboard-response",499,606118,"0.0-3.162-2.162","t1m87ukxkyw5atc",854,"50.csv","","null","resources/images/fishbone.png","null","",NA,NA,NA,NA,""
"image-keyboard-response",500,606317,"0.0-3.163-0.163","t1m87ukxkyw5atc",854,"50.csv","","197.69999998807907","resources/trios/L1T4A2.jpg","39","restless",0.4,0.8,0.5,0.967652376553464,"false"
"image-keyboard-response",501,606735,"0.0-3.163-1.163","t1m87ukxkyw5atc",854,"50.csv","","null","resources/maskTrios/BBA2.jpg","null","",NA,NA,NA,NA,""
"image-keyboard-response",502,607959,"0.0-3.163-2.163","t1m87ukxkyw5atc",854,"50.csv","","null","resources/images/fishbone.png","null","",NA,NA,NA,NA,""
"image-keyboard-response",503,608168,"0.0-3.164-0.164","t1m87ukxkyw5atc",854,"50.csv","","206.60000002384186","resources/trios/L2T4A2.jpg","39","restless",0.4,0.8,0.5,0.813986769087463,"false"
"image-keyboard-response",504,608578,"0.0-3.164-1.164","t1m87ukxkyw5atc",854,"50.csv","","null","resources/maskTrios/BBA2.jpg","null","",NA,NA,NA,NA,""
"image-keyboard-response",505,609799,"0.0-3.164-2.164","t1m87ukxkyw5atc",854,"50.csv","","null","resources/images/fishbone.png","null","",NA,NA,NA,NA,""
"image-keyboard-response",506,609966,"0.0-3.165-0.165","t1m87ukxkyw5atc",854,"50.csv","","165.7999999821186","resources/trios/L2T2A1.jpg","38","restless",0.4,0.8,0.5,0.348686829465636,"true"
"image-keyboard-response",507,610378,"0.0-3.165-1.165","t1m87ukxkyw5atc",854,"50.csv","","null","resources/maskTrios/BT2B.jpg","null","",NA,NA,NA,NA,""
"image-keyboard-response",508,611590,"0.0-3.165-2.165","t1m87ukxkyw5atc",854,"50.csv","","null","resources/images/coin2.png","null","",NA,NA,NA,NA,""
"image-keyboard-response",509,611891,"0.0-3.166-0.166","t1m87ukxkyw5atc",854,"50.csv","","299.60000002384186","resources/trios/L2T2A2.jpg","38","restless",0.4,0.8,0.5,0.343277289605677,"true"
"image-keyboard-response",510,612298,"0.0-3.166-1.166","t1m87ukxkyw5atc",854,"50.csv","","null","resources/maskTrios/BT2B.jpg","null","",NA,NA,NA,NA,""
"image-keyboard-response",511,613508,"0.0-3.166-2.166","t1m87ukxkyw5atc",854,"50.csv","","null","resources/images/coin2.png","null","",NA,NA,NA,NA,""
"image-keyboard-response",512,613716,"0.0-3.167-0.167","t1m87ukxkyw5atc",854,"50.csv","","206.59999999403954","resources/trios/L1T4A2.jpg","38","restless",0.4,0.7,0.5,0.928390375414466,"false"
"image-keyboard-response",513,614130,"0.0-3.167-1.167","t1m87ukxkyw5atc",854,"50.csv","","null","resources/maskTrios/BT4B.jpg","null","",NA,NA,NA,NA,""
"image-keyboard-response",514,615349,"0.0-3.167-2.167","t1m87ukxkyw5atc",854,"50.csv","","null","resources/images/fishbone.png","null","",NA,NA,NA,NA,""
"image-keyboard-response",515,615581,"0.0-3.168-0.168","t1m87ukxkyw5atc",854,"50.csv","","230.30000001192093","resources/trios/L1T4A1.jpg","37","restless",0.4,0.7,0.5,0.376489507004752,"true"
"image-keyboard-response",516,615994,"0.0-3.168-1.168","t1m87ukxkyw5atc",854,"50.csv","","null","resources/maskTrios/L1BB.jpg","null","",NA,NA,NA,NA,""
"image-keyboard-response",517,617201,"0.0-3.168-2.168","t1m87ukxkyw5atc",854,"50.csv","","null","resources/images/coin2.png","null","",NA,NA,NA,NA,""
"image-keyboard-response",518,617495,"0.0-3.169-0.169","t1m87ukxkyw5atc",854,"50.csv","","293.09999999403954","resources/trios/L2T4A2.jpg","37","restless",0.4,0.7,0.5,0.927259007515717,"false"
"image-keyboard-response",519,617918,"0.0-3.169-1.169","t1m87ukxkyw5atc",854,"50.csv","","null","resources/maskTrios/L2BB.jpg","null","",NA,NA,NA,NA,""
"image-keyboard-response",520,619124,"0.0-3.169-2.169","t1m87ukxkyw5atc",854,"50.csv","","null","resources/images/fishbone.png","null","",NA,NA,NA,NA,""
"image-keyboard-response",521,685823,"0.0-3.170-0.170","t1m87ukxkyw5atc",854,"50.csv","","66694.59999999404","resources/trios/L1T4A2.jpg","37","restless",0.4,0.7,0.5,0.758049064124146,"false"
"image-keyboard-response",522,686237,"0.0-3.170-1.170","t1m87ukxkyw5atc",854,"50.csv","","null","resources/maskTrios/L1BB.jpg","null","",NA,NA,NA,NA,""
"image-keyboard-response",523,687453,"0.0-3.170-2.170","t1m87ukxkyw5atc",854,"50.csv","","null","resources/images/fishbone.png","null","",NA,NA,NA,NA,""
"image-keyboard-response",524,687767,"0.0-3.171-0.171","t1m87ukxkyw5atc",854,"50.csv","","310.90000000596046","resources/trios/L1T4A2.jpg","39","restless",0.4,0.7,0.5,0.287678822716684,"true"
"image-keyboard-response",525,688172,"0.0-3.171-1.171","t1m87ukxkyw5atc",854,"50.csv","","null","resources/maskTrios/BBA2.jpg","null","",NA,NA,NA,NA,""
"image-keyboard-response",526,689384,"0.0-3.171-2.171","t1m87ukxkyw5atc",854,"50.csv","","null","resources/images/coin2.png","null","",NA,NA,NA,NA,""
"image-keyboard-response",527,689801,"0.0-3.172-0.172","t1m87ukxkyw5atc",854,"50.csv","","416.19999998807907","resources/trios/L2T2A2.jpg","39","restless",0.4,0.6,0.5,0.935420173816844,"false"
"image-keyboard-response",528,690219,"0.0-3.172-1.172","t1m87ukxkyw5atc",854,"50.csv","","null","resources/maskTrios/BBA2.jpg","null","",NA,NA,NA,NA,""
"image-keyboard-response",529,691429,"0.0-3.172-2.172","t1m87ukxkyw5atc",854,"50.csv","","null","resources/images/fishbone.png","null","",NA,NA,NA,NA,""
"image-keyboard-response",530,693690,"0.0-3.173-0.173","t1m87ukxkyw5atc",854,"50.csv","","2259.899999976158","resources/trios/L1T4A2.jpg","38","restless",0.4,0.6,0.5,0.42971847119544,"true"
"image-keyboard-response",531,694104,"0.0-3.173-1.173","t1m87ukxkyw5atc",854,"50.csv","","null","resources/maskTrios/BT4B.jpg","null","",NA,NA,NA,NA,""
"image-keyboard-response",532,695311,"0.0-3.173-2.173","t1m87ukxkyw5atc",854,"50.csv","","null","resources/images/coin2.png","null","",NA,NA,NA,NA,""
"image-keyboard-response",533,699012,"0.0-3.174-0.174","t1m87ukxkyw5atc",854,"50.csv","","3699.9000000059605","resources/trios/L2T4A2.jpg","38","restless",0.4,0.6,0.5,0.519177103929826,"true"
"image-keyboard-response",534,699426,"0.0-3.174-1.174","t1m87ukxkyw5atc",854,"50.csv","","null","resources/maskTrios/BT4B.jpg","null","",NA,NA,NA,NA,""
"image-keyboard-response",535,700647,"0.0-3.174-2.174","t1m87ukxkyw5atc",854,"50.csv","","null","resources/images/coin2.png","null","",NA,NA,NA,NA,""
"image-keyboard-response",536,701030,"0.0-3.175-0.175","t1m87ukxkyw5atc",854,"50.csv","","381.80000001192093","resources/trios/L2T2A2.jpg","38","restless",0.3,0.6,0.4,0.165571826358361,"true"
"image-keyboard-response",537,701437,"0.0-3.175-1.175","t1m87ukxkyw5atc",854,"50.csv","","null","resources/maskTrios/BT2B.jpg","null","",NA,NA,NA,NA,""
"image-keyboard-response",538,702646,"0.0-3.175-2.175","t1m87ukxkyw5atc",854,"50.csv","","null","resources/images/coin2.png","null","",NA,NA,NA,NA,""
"image-keyboard-response",539,702751,"0.0-3.176-0.176","t1m87ukxkyw5atc",854,"50.csv","","103.90000000596046","resources/trios/L1T2A1.jpg","38","restless",0.4,0.6,0.4,0.291441603071085,"true"
"image-keyboard-response",540,703163,"0.0-3.176-1.176","t1m87ukxkyw5atc",854,"50.csv","","null","resources/maskTrios/BT2B.jpg","null","",NA,NA,NA,NA,""
"image-keyboard-response",541,704387,"0.0-3.176-2.176","t1m87ukxkyw5atc",854,"50.csv","","null","resources/images/coin2.png","null","",NA,NA,NA,NA,""
"image-keyboard-response",542,704690,"0.0-3.177-0.177","t1m87ukxkyw5atc",854,"50.csv","","301","resources/trios/L2T4A1.jpg","38","restless",0.5,0.6,0.4,0.901106162012513,"false"
"image-keyboard-response",543,705106,"0.0-3.177-1.177","t1m87ukxkyw5atc",854,"50.csv","","null","resources/maskTrios/BT4B.jpg","null","",NA,NA,NA,NA,""
"image-keyboard-response",544,706329,"0.0-3.177-2.177","t1m87ukxkyw5atc",854,"50.csv","","null","resources/images/fishbone.png","null","",NA,NA,NA,NA,""
"image-keyboard-response",545,706571,"0.0-3.178-0.178","t1m87ukxkyw5atc",854,"50.csv","","239.7999999821186","resources/trios/L1T4A2.jpg","37","restless",0.5,0.6,0.4,0.268858542356199,"true"
"image-keyboard-response",546,706981,"0.0-3.178-1.178","t1m87ukxkyw5atc",854,"50.csv","","null","resources/maskTrios/L1BB.jpg","null","",NA,NA,NA,NA,""
"image-keyboard-response",547,708202,"0.0-3.178-2.178","t1m87ukxkyw5atc",854,"50.csv","","null","resources/images/coin2.png","null","",NA,NA,NA,NA,""
"image-keyboard-response",548,708431,"0.0-3.179-0.179","t1m87ukxkyw5atc",854,"50.csv","","225.59999999403954","resources/trios/L2T4A2.jpg","37","restless",0.5,0.6,0.4,0.75192633359609,"false"
"image-keyboard-response",549,708840,"0.0-3.179-1.179","t1m87ukxkyw5atc",854,"50.csv","","null","resources/maskTrios/L2BB.jpg","null","",NA,NA,NA,NA,""
"image-keyboard-response",550,710053,"0.0-3.179-2.179","t1m87ukxkyw5atc",854,"50.csv","","null","resources/images/fishbone.png","null","",NA,NA,NA,NA,""
"image-keyboard-response",551,710354,"0.0-3.180-0.180","t1m87ukxkyw5atc",854,"50.csv","","300.19999998807907","resources/trios/L2T2A2.jpg","39","restless",0.5,0.6,0.5,0.514522293587144,"false"
"image-keyboard-response",552,710774,"0.0-3.180-1.180","t1m87ukxkyw5atc",854,"50.csv","","null","resources/maskTrios/BBA2.jpg","null","",NA,NA,NA,NA,""
"image-keyboard-response",553,711976,"0.0-3.180-2.180","t1m87ukxkyw5atc",854,"50.csv","","null","resources/images/fishbone.png","null","",NA,NA,NA,NA,""
"image-keyboard-response",554,712234,"0.0-3.181-0.181","t1m87ukxkyw5atc",854,"50.csv","","257.2999999821186","resources/trios/L1T4A1.jpg","38","restless",0.5,0.5,0.4,0.226949070085478,"true"
"image-keyboard-response",555,712647,"0.0-3.181-1.181","t1m87ukxkyw5atc",854,"50.csv","","null","resources/maskTrios/BT4B.jpg","null","",NA,NA,NA,NA,""
"image-keyboard-response",556,713863,"0.0-3.181-2.181","t1m87ukxkyw5atc",854,"50.csv","","null","resources/images/coin2.png","null","",NA,NA,NA,NA,""
"image-keyboard-response",557,714160,"0.0-3.182-0.182","t1m87ukxkyw5atc",854,"50.csv","","295.40000000596046","resources/trios/L1T4A2.jpg","38","restless",0.5,0.5,0.4,0.591231691906988,"false"
"image-keyboard-response",558,714566,"0.0-3.182-1.182","t1m87ukxkyw5atc",854,"50.csv","","null","resources/maskTrios/BT4B.jpg","null","",NA,NA,NA,NA,""
"image-keyboard-response",559,715779,"0.0-3.182-2.182","t1m87ukxkyw5atc",854,"50.csv","","null","resources/images/fishbone.png","null","",NA,NA,NA,NA,""
"image-keyboard-response",560,716010,"0.0-3.183-0.183","t1m87ukxkyw5atc",854,"50.csv","","229.19999998807907","resources/trios/L1T2A2.jpg","39","restless",0.5,0.4,0.4,0.861488385735328,"false"
"image-keyboard-response",561,716420,"0.0-3.183-1.183","t1m87ukxkyw5atc",854,"50.csv","","null","resources/maskTrios/BBA2.jpg","null","",NA,NA,NA,NA,""
"image-keyboard-response",562,717635,"0.0-3.183-2.183","t1m87ukxkyw5atc",854,"50.csv","","null","resources/images/fishbone.png","null","",NA,NA,NA,NA,""
"image-keyboard-response",563,718429,"0.0-3.184-0.184","t1m87ukxkyw5atc",854,"50.csv","","792.7000000178814","resources/trios/L2T2A1.jpg","37","restless",0.6,0.4,0.4,0.722941012871491,"false"
"image-keyboard-response",564,718837,"0.0-3.184-1.184","t1m87ukxkyw5atc",854,"50.csv","","null","resources/maskTrios/L2BB.jpg","null","",NA,NA,NA,NA,""
"image-keyboard-response",565,720047,"0.0-3.184-2.184","t1m87ukxkyw5atc",854,"50.csv","","null","resources/images/fishbone.png","null","",NA,NA,NA,NA,""
"image-keyboard-response",566,720370,"0.0-3.185-0.185","t1m87ukxkyw5atc",854,"50.csv","","321.69999998807907","resources/trios/L2T2A2.jpg","38","restless",0.7,0.4,0.4,0.977875811543354,"false"
"image-keyboard-response",567,720792,"0.0-3.185-1.185","t1m87ukxkyw5atc",854,"50.csv","","null","resources/maskTrios/BT2B.jpg","null","",NA,NA,NA,NA,""
"image-keyboard-response",568,722007,"0.0-3.185-2.185","t1m87ukxkyw5atc",854,"50.csv","","null","resources/images/fishbone.png","null","",NA,NA,NA,NA,""
"image-keyboard-response",569,727003,"0.0-3.186-0.186","t1m87ukxkyw5atc",854,"50.csv","","4995.0999999940395","resources/trios/L1T4A1.jpg","38","restless",0.7,0.4,0.4,0.600041400114137,"false"
"image-keyboard-response",570,727415,"0.0-3.186-1.186","t1m87ukxkyw5atc",854,"50.csv","","null","resources/maskTrios/BT4B.jpg","null","",NA,NA,NA,NA,""
"image-keyboard-response",571,728628,"0.0-3.186-2.186","t1m87ukxkyw5atc",854,"50.csv","","null","resources/images/fishbone.png","null","",NA,NA,NA,NA,""
"image-keyboard-response",572,729028,"0.0-3.187-0.187","t1m87ukxkyw5atc",854,"50.csv","","398.69999998807907","resources/trios/L1T2A1.jpg","37","restless",0.7,0.4,0.4,0.194164109381948,"true"
"image-keyboard-response",573,729444,"0.0-3.187-1.187","t1m87ukxkyw5atc",854,"50.csv","","null","resources/maskTrios/L1BB.jpg","null","",NA,NA,NA,NA,""
"image-keyboard-response",574,730656,"0.0-3.187-2.187","t1m87ukxkyw5atc",854,"50.csv","","null","resources/images/coin2.png","null","",NA,NA,NA,NA,""
"image-keyboard-response",575,730922,"0.0-3.188-0.188","t1m87ukxkyw5atc",854,"50.csv","","265.2000000178814","resources/trios/L2T2A2.jpg","37","restless",0.7,0.4,0.4,0.945974032212599,"false"
"image-keyboard-response",576,731341,"0.0-3.188-1.188","t1m87ukxkyw5atc",854,"50.csv","","null","resources/maskTrios/L2BB.jpg","null","",NA,NA,NA,NA,""
"image-keyboard-response",577,732562,"0.0-3.188-2.188","t1m87ukxkyw5atc",854,"50.csv","","null","resources/images/fishbone.png","null","",NA,NA,NA,NA,""
"image-keyboard-response",578,810049,"0.0-3.189-0.189","t1m87ukxkyw5atc",854,"50.csv","","77488.09999999404","resources/trios/L2T4A1.jpg","37","restless",0.7,0.4,0.4,0.587212745455914,"true"
"image-keyboard-response",579,810465,"0.0-3.189-1.189","t1m87ukxkyw5atc",854,"50.csv","","null","resources/maskTrios/L2BB.jpg","null","",NA,NA,NA,NA,""
"image-keyboard-response",580,811685,"0.0-3.189-2.189","t1m87ukxkyw5atc",854,"50.csv","","null","resources/images/coin2.png","null","",NA,NA,NA,NA,""
"image-keyboard-response",581,812125,"0.0-3.190-0.190","t1m87ukxkyw5atc",854,"50.csv","","437.80000001192093","resources/trios/L1T4A1.jpg","38","restless",0.7,0.4,0.4,0.114260310010535,"true"
"image-keyboard-response",582,812537,"0.0-3.190-1.190","t1m87ukxkyw5atc",854,"50.csv","","null","resources/maskTrios/BT4B.jpg","null","",NA,NA,NA,NA,""
"image-keyboard-response",583,813757,"0.0-3.190-2.190","t1m87ukxkyw5atc",854,"50.csv","","null","resources/images/coin2.png","null","",NA,NA,NA,NA,""
"image-keyboard-response",584,814025,"0.0-3.191-0.191","t1m87ukxkyw5atc",854,"50.csv","","266.5","resources/trios/L1T4A1.jpg","39","restless",0.7,0.4,0.4,0.565638182297234,"false"
"image-keyboard-response",585,814438,"0.0-3.191-1.191","t1m87ukxkyw5atc",854,"50.csv","","null","resources/maskTrios/BBA1.jpg","null","",NA,NA,NA,NA,""
"image-keyboard-response",586,815650,"0.0-3.191-2.191","t1m87ukxkyw5atc",854,"50.csv","","null","resources/images/fishbone.png","null","",NA,NA,NA,NA,""
"image-keyboard-response",587,815994,"0.0-3.192-0.192","t1m87ukxkyw5atc",854,"50.csv","","342.80000001192093","resources/trios/L1T4A2.jpg","38","restless",0.7,0.4,0.4,0.196145174100447,"true"
"image-keyboard-response",588,816407,"0.0-3.192-1.192","t1m87ukxkyw5atc",854,"50.csv","","null","resources/maskTrios/BT4B.jpg","null","",NA,NA,NA,NA,""
"image-keyboard-response",589,817621,"0.0-3.192-2.192","t1m87ukxkyw5atc",854,"50.csv","","null","resources/images/coin2.png","null","",NA,NA,NA,NA,""
"image-keyboard-response",590,817799,"0.0-3.193-0.193","t1m87ukxkyw5atc",854,"50.csv","","176.69999998807907","resources/trios/L2T2A1.jpg","38","restless",0.7,0.4,0.4,0.849550767906077,"false"
"image-keyboard-response",591,818214,"0.0-3.193-1.193","t1m87ukxkyw5atc",854,"50.csv","","null","resources/maskTrios/BT2B.jpg","null","",NA,NA,NA,NA,""
"image-keyboard-response",592,819418,"0.0-3.193-2.193","t1m87ukxkyw5atc",854,"50.csv","","null","resources/images/fishbone.png","null","",NA,NA,NA,NA,""
"image-keyboard-response",593,819676,"0.0-3.194-0.194","t1m87ukxkyw5atc",854,"50.csv","","255.59999999403954","resources/trios/L2T2A1.jpg","37","restless",0.7,0.4,0.4,0.292113682786582,"true"
"image-keyboard-response",594,820088,"0.0-3.194-1.194","t1m87ukxkyw5atc",854,"50.csv","","null","resources/maskTrios/L2BB.jpg","null","",NA,NA,NA,NA,""
"image-keyboard-response",595,821302,"0.0-3.194-2.194","t1m87ukxkyw5atc",854,"50.csv","","null","resources/images/coin2.png","null","",NA,NA,NA,NA,""
"image-keyboard-response",596,821545,"0.0-3.195-0.195","t1m87ukxkyw5atc",854,"50.csv","","241.59999999403954","resources/trios/L1T4A2.jpg","38","restless",0.7,0.4,0.4,0.225775625911806,"true"
"image-keyboard-response",597,821954,"0.0-3.195-1.195","t1m87ukxkyw5atc",854,"50.csv","","null","resources/maskTrios/BT4B.jpg","null","",NA,NA,NA,NA,""
"image-keyboard-response",598,823165,"0.0-3.195-2.195","t1m87ukxkyw5atc",854,"50.csv","","null","resources/images/coin2.png","null","",NA,NA,NA,NA,""
"image-keyboard-response",599,823425,"0.0-3.196-0.196","t1m87ukxkyw5atc",854,"50.csv","","258.40000000596046","resources/trios/L1T4A1.jpg","38","restless",0.7,0.4,0.4,0.715325825023214,"false"
"image-keyboard-response",600,823837,"0.0-3.196-1.196","t1m87ukxkyw5atc",854,"50.csv","","null","resources/maskTrios/BT4B.jpg","null","",NA,NA,NA,NA,""
"image-keyboard-response",601,825047,"0.0-3.196-2.196","t1m87ukxkyw5atc",854,"50.csv","","null","resources/images/fishbone.png","null","",NA,NA,NA,NA,""
"image-keyboard-response",602,825320,"0.0-3.197-0.197","t1m87ukxkyw5atc",854,"50.csv","","270.7999999821186","resources/trios/L2T4A2.jpg","37","restless",0.7,0.3,0.4,0.118349359514476,"true"
"image-keyboard-response",603,825740,"0.0-3.197-1.197","t1m87ukxkyw5atc",854,"50.csv","","null","resources/maskTrios/L2BB.jpg","null","",NA,NA,NA,NA,""
"image-keyboard-response",604,826958,"0.0-3.197-2.197","t1m87ukxkyw5atc",854,"50.csv","","null","resources/images/coin2.png","null","",NA,NA,NA,NA,""
"image-keyboard-response",605,827235,"0.0-3.198-0.198","t1m87ukxkyw5atc",854,"50.csv","","275.59999999403954","resources/trios/L1T4A1.jpg","37","restless",0.7,0.3,0.5,0.752153245635806,"false"
"image-keyboard-response",606,827641,"0.0-3.198-1.198","t1m87ukxkyw5atc",854,"50.csv","","null","resources/maskTrios/L1BB.jpg","null","",NA,NA,NA,NA,""
"image-keyboard-response",607,828854,"0.0-3.198-2.198","t1m87ukxkyw5atc",854,"50.csv","","null","resources/images/fishbone.png","null","",NA,NA,NA,NA,""
"image-keyboard-response",608,829136,"0.0-3.199-0.199","t1m87ukxkyw5atc",854,"50.csv","","280.5","resources/trios/L2T2A1.jpg","39","restless",0.7,0.3,0.5,0.293993493563126,"true"
"image-keyboard-response",609,829552,"0.0-3.199-1.199","t1m87ukxkyw5atc",854,"50.csv","","null","resources/maskTrios/BBA1.jpg","null","",NA,NA,NA,NA,""
