"trial_type","trial_index","time_elapsed","internal_node_id","subject","participantCode","walkNumber","success","rt","stimulus","key_press","test_part","leftProb","midProb","rightProb","generatedNum","correct"
"pavlovia",0,947,"0.0-0.0","1qztpkrssqxql7x",446,"144.csv","","","","","",NA,NA,NA,NA,""
"fullscreen",1,3077,"0.0-1.0","1qztpkrssqxql7x",446,"144.csv","true","","","","",NA,NA,NA,NA,""
"html-keyboard-response",2,9929,"0.0-2.0-0.0","1qztpkrssqxql7x",446,"144.csv","","6849.800000011921","<p><font size='6'>Arrrgh!</p></font><p>Can you be the best pirate? Try to find lots of gold! But beware, some islands have more gold than others, and over time, the island with the most gold may change. Can YOU figure it out? </p><font size='6'>GOOD LUCK, CAPTAIN!!!</font><p>Press any key to begin</p>","72","",NA,NA,NA,NA,""
"image-keyboard-response",3,12936,"0.0-2.0-1.0","1qztpkrssqxql7x",446,"144.csv","","null","resources/image_sets/111.png","null","",NA,NA,NA,NA,""
"image-keyboard-response",4,16989,"0.0-2.0-2.0","1qztpkrssqxql7x",446,"144.csv","","4051.4000000059605","resources/image_sets/left_highlight.png","37","",NA,NA,NA,NA,""
"image-keyboard-response",5,18870,"0.0-2.0-3.0","1qztpkrssqxql7x",446,"144.csv","","1879.4000000059605","resources/image_sets/mid_highlight.png","38","",NA,NA,NA,NA,""
"image-keyboard-response",6,19550,"0.0-2.0-4.0","1qztpkrssqxql7x",446,"144.csv","","678.0999999940395","resources/image_sets/right_highlight.png","39","",NA,NA,NA,NA,""
"image-keyboard-response",7,22152,"0.0-2.0-5.0","1qztpkrssqxql7x",446,"144.csv","","2601","resources/image_sets/111.png","13","",NA,NA,NA,NA,""
"image-keyboard-response",8,23895,"0.0-2.0-6.0","1qztpkrssqxql7x",446,"144.csv","","1741.300000011921","resources/images/coin2.png","13","",NA,NA,NA,NA,""
"image-keyboard-response",9,27092,"0.0-2.0-7.0","1qztpkrssqxql7x",446,"144.csv","","3195.2000000178814","resources/images/fishbone.png","13","",NA,NA,NA,NA,""
"html-keyboard-response",10,37065,"0.0-2.0-8.0","1qztpkrssqxql7x",446,"144.csv","","9972.59999999404","<p>Your first journey will be a long one, but you will get a well deserved break at the end</p><p>After the break you will have four more journeys, but each will be much shorter than the first, and you will have breaks in between each</p><p>Press Enter to begin</p>","13","",NA,NA,NA,NA,""
"image-keyboard-response",11,39129,"0.0-3.0-0.0","1qztpkrssqxql7x",446,"144.csv","","2060.9000000059605","resources/trios/L1T4A3.jpg","38","restless",0.9,0.3,0.7,0.520730882507028,"false"
"image-keyboard-response",12,39536,"0.0-3.0-1.0","1qztpkrssqxql7x",446,"144.csv","","null","resources/maskTrios/BT4B.jpg","null","",NA,NA,NA,NA,""
"image-keyboard-response",13,40743,"0.0-3.0-2.0","1qztpkrssqxql7x",446,"144.csv","","null","resources/images/fishbone.png","null","",NA,NA,NA,NA,""
"image-keyboard-response",14,42906,"0.0-3.1-0.1","1qztpkrssqxql7x",446,"144.csv","","2160.4000000059605","resources/trios/L1T1A2.jpg","39","restless",0.9,0.3,0.7,0.742663656732925,"false"
"image-keyboard-response",15,43313,"0.0-3.1-1.1","1qztpkrssqxql7x",446,"144.csv","","null","resources/maskTrios/BBA2.jpg","null","",NA,NA,NA,NA,""
"image-keyboard-response",16,44519,"0.0-3.1-2.1","1qztpkrssqxql7x",446,"144.csv","","null","resources/images/fishbone.png","null","",NA,NA,NA,NA,""
"image-keyboard-response",17,45092,"0.0-3.2-0.2","1qztpkrssqxql7x",446,"144.csv","","570.7999999821186","resources/trios/L1T1A2.jpg","38","restless",0.9,0.3,0.8,0.382285562571848,"false"
"image-keyboard-response",18,45499,"0.0-3.2-1.2","1qztpkrssqxql7x",446,"144.csv","","null","resources/maskTrios/BT1B.jpg","null","",NA,NA,NA,NA,""
"image-keyboard-response",19,46703,"0.0-3.2-2.2","1qztpkrssqxql7x",446,"144.csv","","null","resources/images/fishbone.png","null","",NA,NA,NA,NA,""
"image-keyboard-response",20,46982,"0.0-3.3-0.3","1qztpkrssqxql7x",446,"144.csv","","277.30000001192093","resources/trios/L1T4A3.jpg","37","restless",0.9,0.3,0.8,0.0649086722058154,"true"
"image-keyboard-response",21,47385,"0.0-3.3-1.3","1qztpkrssqxql7x",446,"144.csv","","null","resources/maskTrios/L1BB.jpg","null","",NA,NA,NA,NA,""
"image-keyboard-response",22,48592,"0.0-3.3-2.3","1qztpkrssqxql7x",446,"144.csv","","null","resources/images/coin2.png","null","",NA,NA,NA,NA,""
"image-keyboard-response",23,49958,"0.0-3.4-0.4","1qztpkrssqxql7x",446,"144.csv","","1363.2000000178814","resources/trios/L2T4A3.jpg","37","restless",0.8,0.3,0.8,0.718390841025067,"true"
"image-keyboard-response",24,50365,"0.0-3.4-1.4","1qztpkrssqxql7x",446,"144.csv","","null","resources/maskTrios/L2BB.jpg","null","",NA,NA,NA,NA,""
"image-keyboard-response",25,51569,"0.0-3.4-2.4","1qztpkrssqxql7x",446,"144.csv","","null","resources/images/coin2.png","null","",NA,NA,NA,NA,""
"image-keyboard-response",26,51896,"0.0-3.5-0.5","1qztpkrssqxql7x",446,"144.csv","","324.80000001192093","resources/trios/L1T4A2.jpg","37","restless",0.8,0.3,0.7,0.0929760422361712,"true"
"image-keyboard-response",27,52303,"0.0-3.5-1.5","1qztpkrssqxql7x",446,"144.csv","","null","resources/maskTrios/L1BB.jpg","null","",NA,NA,NA,NA,""
"image-keyboard-response",28,53509,"0.0-3.5-2.5","1qztpkrssqxql7x",446,"144.csv","","null","resources/images/coin2.png","null","",NA,NA,NA,NA,""
"image-keyboard-response",29,53740,"0.0-3.6-0.6","1qztpkrssqxql7x",446,"144.csv","","229.09999999403954","resources/trios/L1T1A3.jpg","37","restless",0.8,0.3,0.7,0.207394889147943,"true"
"image-keyboard-response",30,54145,"0.0-3.6-1.6","1qztpkrssqxql7x",446,"144.csv","","null","resources/maskTrios/L1BB.jpg","null","",NA,NA,NA,NA,""
"image-keyboard-response",31,55351,"0.0-3.6-2.6","1qztpkrssqxql7x",446,"144.csv","","null","resources/images/coin2.png","null","",NA,NA,NA,NA,""
"image-keyboard-response",32,55396,"0.0-3.7-0.7","1qztpkrssqxql7x",446,"144.csv","","43.5","resources/trios/L2T1A3.jpg","37","restless",0.8,0.3,0.7,0.302512010501187,"true"
"image-keyboard-response",33,55802,"0.0-3.7-1.7","1qztpkrssqxql7x",446,"144.csv","","null","resources/maskTrios/L2BB.jpg","null","",NA,NA,NA,NA,""
"image-keyboard-response",34,57006,"0.0-3.7-2.7","1qztpkrssqxql7x",446,"144.csv","","null","resources/images/coin2.png","null","",NA,NA,NA,NA,""
"image-keyboard-response",35,57013,"0.0-3.8-0.8","1qztpkrssqxql7x",446,"144.csv","","5","resources/trios/L1T1A2.jpg","37","restless",0.8,0.3,0.7,0.988805982767772,"false"
"image-keyboard-response",36,57420,"0.0-3.8-1.8","1qztpkrssqxql7x",446,"144.csv","","null","resources/maskTrios/L1BB.jpg","null","",NA,NA,NA,NA,""
"image-keyboard-response",37,58626,"0.0-3.8-2.8","1qztpkrssqxql7x",446,"144.csv","","null","resources/images/fishbone.png","null","",NA,NA,NA,NA,""
"image-keyboard-response",38,58717,"0.0-3.9-0.9","1qztpkrssqxql7x",446,"144.csv","","88","resources/trios/L2T4A3.jpg","38","restless",0.8,0.3,0.8,0.819874957770413,"false"
"image-keyboard-response",39,59119,"0.0-3.9-1.9","1qztpkrssqxql7x",446,"144.csv","","null","resources/maskTrios/BT4B.jpg","null","",NA,NA,NA,NA,""
"image-keyboard-response",40,60323,"0.0-3.9-2.9","1qztpkrssqxql7x",446,"144.csv","","null","resources/images/fishbone.png","null","",NA,NA,NA,NA,""
"image-keyboard-response",41,60781,"0.0-3.10-0.10","1qztpkrssqxql7x",446,"144.csv","","456.2999999821186","resources/trios/L1T1A3.jpg","39","restless",0.8,0.3,0.8,0.968426158256092,"false"
"image-keyboard-response",42,61184,"0.0-3.10-1.10","1qztpkrssqxql7x",446,"144.csv","","null","resources/maskTrios/BBA3.jpg","null","",NA,NA,NA,NA,""
"image-keyboard-response",43,62387,"0.0-3.10-2.10","1qztpkrssqxql7x",446,"144.csv","","null","resources/images/fishbone.png","null","",NA,NA,NA,NA,""
"image-keyboard-response",44,63113,"0.0-3.11-0.11","1qztpkrssqxql7x",446,"144.csv","","724.1999999880791","resources/trios/L1T4A2.jpg","37","restless",0.8,0.3,0.8,0.810616623269792,"false"
"image-keyboard-response",45,63519,"0.0-3.11-1.11","1qztpkrssqxql7x",446,"144.csv","","null","resources/maskTrios/L1BB.jpg","null","",NA,NA,NA,NA,""
"image-keyboard-response",46,64726,"0.0-3.11-2.11","1qztpkrssqxql7x",446,"144.csv","","null","resources/images/fishbone.png","null","",NA,NA,NA,NA,""
"image-keyboard-response",47,64809,"0.0-3.12-0.12","1qztpkrssqxql7x",446,"144.csv","","81","resources/trios/L2T1A3.jpg","38","restless",0.8,0.3,0.8,0.107941395114607,"true"
"image-keyboard-response",48,65216,"0.0-3.12-1.12","1qztpkrssqxql7x",446,"144.csv","","null","resources/maskTrios/BT1B.jpg","null","",NA,NA,NA,NA,""
"image-keyboard-response",49,66423,"0.0-3.12-2.12","1qztpkrssqxql7x",446,"144.csv","","null","resources/images/coin2.png","null","",NA,NA,NA,NA,""
"image-keyboard-response",50,66916,"0.0-3.13-0.13","1qztpkrssqxql7x",446,"144.csv","","490.80000001192093","resources/trios/L1T4A3.jpg","38","restless",0.8,0.3,0.8,0.990257254200094,"false"
"image-keyboard-response",51,67319,"0.0-3.13-1.13","1qztpkrssqxql7x",446,"144.csv","","null","resources/maskTrios/BT4B.jpg","null","",NA,NA,NA,NA,""
"image-keyboard-response",52,68523,"0.0-3.13-2.13","1qztpkrssqxql7x",446,"144.csv","","null","resources/images/fishbone.png","null","",NA,NA,NA,NA,""
"image-keyboard-response",53,68889,"0.0-3.14-0.14","1qztpkrssqxql7x",446,"144.csv","","364.40000000596046","resources/trios/L1T1A2.jpg","37","restless",0.8,0.2,0.8,0.649971978160769,"true"
"image-keyboard-response",54,69297,"0.0-3.14-1.14","1qztpkrssqxql7x",446,"144.csv","","null","resources/maskTrios/L1BB.jpg","null","",NA,NA,NA,NA,""
"image-keyboard-response",55,70504,"0.0-3.14-2.14","1qztpkrssqxql7x",446,"144.csv","","null","resources/images/coin2.png","null","",NA,NA,NA,NA,""
"image-keyboard-response",56,70920,"0.0-3.15-0.15","1qztpkrssqxql7x",446,"144.csv","","414.09999999403954","resources/trios/L2T4A3.jpg","39","restless",0.8,0.2,0.8,0.864878642918782,"false"
"image-keyboard-response",57,71327,"0.0-3.15-1.15","1qztpkrssqxql7x",446,"144.csv","","null","resources/maskTrios/BBA3.jpg","null","",NA,NA,NA,NA,""
"image-keyboard-response",58,72534,"0.0-3.15-2.15","1qztpkrssqxql7x",446,"144.csv","","null","resources/images/fishbone.png","null","",NA,NA,NA,NA,""
"image-keyboard-response",59,73017,"0.0-3.16-0.16","1qztpkrssqxql7x",446,"144.csv","","481.2999999821186","resources/trios/L1T4A3.jpg","39","restless",0.8,0.2,0.8,0.724330952010352,"true"
"image-keyboard-response",60,73424,"0.0-3.16-1.16","1qztpkrssqxql7x",446,"144.csv","","null","resources/maskTrios/BBA3.jpg","null","",NA,NA,NA,NA,""
"image-keyboard-response",61,74630,"0.0-3.16-2.16","1qztpkrssqxql7x",446,"144.csv","","null","resources/images/coin2.png","null","",NA,NA,NA,NA,""
"image-keyboard-response",62,74940,"0.0-3.17-0.17","1qztpkrssqxql7x",446,"144.csv","","308","resources/trios/L1T4A3.jpg","37","restless",0.8,0.1,0.8,0.00694795453466157,"true"
"image-keyboard-response",63,75347,"0.0-3.17-1.17","1qztpkrssqxql7x",446,"144.csv","","null","resources/maskTrios/L1BB.jpg","null","",NA,NA,NA,NA,""
"image-keyboard-response",64,76555,"0.0-3.17-2.17","1qztpkrssqxql7x",446,"144.csv","","null","resources/images/coin2.png","null","",NA,NA,NA,NA,""
"image-keyboard-response",65,76711,"0.0-3.18-0.18","1qztpkrssqxql7x",446,"144.csv","","154.7000000178814","resources/trios/L1T1A3.jpg","38","restless",0.8,0.1,0.7,0.1726333364221,"false"
"image-keyboard-response",66,77118,"0.0-3.18-1.18","1qztpkrssqxql7x",446,"144.csv","","null","resources/maskTrios/BT1B.jpg","null","",NA,NA,NA,NA,""
"image-keyboard-response",67,78325,"0.0-3.18-2.18","1qztpkrssqxql7x",446,"144.csv","","null","resources/images/fishbone.png","null","",NA,NA,NA,NA,""
"image-keyboard-response",68,78636,"0.0-3.19-0.19","1qztpkrssqxql7x",446,"144.csv","","309.09999999403954","resources/trios/L2T4A2.jpg","39","restless",0.7,0.2,0.7,0.689562348863684,"true"
"image-keyboard-response",69,79043,"0.0-3.19-1.19","1qztpkrssqxql7x",446,"144.csv","","null","resources/maskTrios/BBA2.jpg","null","",NA,NA,NA,NA,""
"image-keyboard-response",70,80248,"0.0-3.19-2.19","1qztpkrssqxql7x",446,"144.csv","","null","resources/images/coin2.png","null","",NA,NA,NA,NA,""
"image-keyboard-response",71,80577,"0.0-3.20-0.20","1qztpkrssqxql7x",446,"144.csv","","326.59999999403954","resources/trios/L2T1A2.jpg","37","restless",0.7,0.2,0.7,0.396585583093897,"true"
"image-keyboard-response",72,80985,"0.0-3.20-1.20","1qztpkrssqxql7x",446,"144.csv","","null","resources/maskTrios/L2BB.jpg","null","",NA,NA,NA,NA,""
"image-keyboard-response",73,82192,"0.0-3.20-2.20","1qztpkrssqxql7x",446,"144.csv","","null","resources/images/coin2.png","null","",NA,NA,NA,NA,""
"image-keyboard-response",74,82289,"0.0-3.21-0.21","1qztpkrssqxql7x",446,"144.csv","","95.80000001192093","resources/trios/L1T4A2.jpg","39","restless",0.7,0.2,0.6,0.822763862737719,"false"
"image-keyboard-response",75,82697,"0.0-3.21-1.21","1qztpkrssqxql7x",446,"144.csv","","null","resources/maskTrios/BBA2.jpg","null","",NA,NA,NA,NA,""
"image-keyboard-response",76,83903,"0.0-3.21-2.21","1qztpkrssqxql7x",446,"144.csv","","null","resources/images/fishbone.png","null","",NA,NA,NA,NA,""
"image-keyboard-response",77,84406,"0.0-3.22-0.22","1qztpkrssqxql7x",446,"144.csv","","500","resources/trios/L2T1A3.jpg","37","restless",0.7,0.2,0.6,0.955621585277462,"false"
"image-keyboard-response",78,84811,"0.0-3.22-1.22","1qztpkrssqxql7x",446,"144.csv","","null","resources/maskTrios/L2BB.jpg","null","",NA,NA,NA,NA,""
"image-keyboard-response",79,86018,"0.0-3.22-2.22","1qztpkrssqxql7x",446,"144.csv","","null","resources/images/fishbone.png","null","",NA,NA,NA,NA,""
"image-keyboard-response",80,86250,"0.0-3.23-0.23","1qztpkrssqxql7x",446,"144.csv","","230.5","resources/trios/L1T4A2.jpg","38","restless",0.7,0.2,0.6,0.543319497925612,"false"
"image-keyboard-response",81,86652,"0.0-3.23-1.23","1qztpkrssqxql7x",446,"144.csv","","null","resources/maskTrios/BT4B.jpg","null","",NA,NA,NA,NA,""
"image-keyboard-response",82,87859,"0.0-3.23-2.23","1qztpkrssqxql7x",446,"144.csv","","null","resources/images/fishbone.png","null","",NA,NA,NA,NA,""
"image-keyboard-response",83,87919,"0.0-3.24-0.24","1qztpkrssqxql7x",446,"144.csv","","58.20000001788139","resources/trios/L2T1A3.jpg","37","restless",0.7,0.2,0.5,0.466498876299381,"true"
"image-keyboard-response",84,88326,"0.0-3.24-1.24","1qztpkrssqxql7x",446,"144.csv","","null","resources/maskTrios/L2BB.jpg","null","",NA,NA,NA,NA,""
"image-keyboard-response",85,89533,"0.0-3.24-2.24","1qztpkrssqxql7x",446,"144.csv","","null","resources/images/coin2.png","null","",NA,NA,NA,NA,""
"image-keyboard-response",86,89704,"0.0-3.25-0.25","1qztpkrssqxql7x",446,"144.csv","","168.7999999821186","resources/trios/L1T4A3.jpg","37","restless",0.7,0.2,0.5,0.957422436740494,"false"
"image-keyboard-response",87,90111,"0.0-3.25-1.25","1qztpkrssqxql7x",446,"144.csv","","null","resources/maskTrios/L1BB.jpg","null","",NA,NA,NA,NA,""
"image-keyboard-response",88,91316,"0.0-3.25-2.25","1qztpkrssqxql7x",446,"144.csv","","null","resources/images/fishbone.png","null","",NA,NA,NA,NA,""
"image-keyboard-response",89,91418,"0.0-3.26-0.26","1qztpkrssqxql7x",446,"144.csv","","99.7000000178814","resources/trios/L1T1A2.jpg","37","restless",0.7,0.2,0.5,0.484218472790901,"true"
"image-keyboard-response",90,91825,"0.0-3.26-1.26","1qztpkrssqxql7x",446,"144.csv","","null","resources/maskTrios/L1BB.jpg","null","",NA,NA,NA,NA,""
"image-keyboard-response",91,93032,"0.0-3.26-2.26","1qztpkrssqxql7x",446,"144.csv","","null","resources/images/coin2.png","null","",NA,NA,NA,NA,""
"image-keyboard-response",92,93074,"0.0-3.27-0.27","1qztpkrssqxql7x",446,"144.csv","","39.70000001788139","resources/trios/L2T4A2.jpg","39","restless",0.7,0.2,0.5,0.946182514175911,"false"
"image-keyboard-response",93,93481,"0.0-3.27-1.27","1qztpkrssqxql7x",446,"144.csv","","null","resources/maskTrios/BBA2.jpg","null","",NA,NA,NA,NA,""
"image-keyboard-response",94,94685,"0.0-3.27-2.27","1qztpkrssqxql7x",446,"144.csv","","null","resources/images/fishbone.png","null","",NA,NA,NA,NA,""
"image-keyboard-response",95,94757,"0.0-3.28-0.28","1qztpkrssqxql7x",446,"144.csv","","68.90000000596046","resources/trios/L2T4A3.jpg","37","restless",0.7,0.2,0.5,0.630666712966661,"true"
"image-keyboard-response",96,95163,"0.0-3.28-1.28","1qztpkrssqxql7x",446,"144.csv","","null","resources/maskTrios/L2BB.jpg","null","",NA,NA,NA,NA,""
"image-keyboard-response",97,96369,"0.0-3.28-2.28","1qztpkrssqxql7x",446,"144.csv","","null","resources/images/coin2.png","null","",NA,NA,NA,NA,""
"image-keyboard-response",98,96482,"0.0-3.29-0.29","1qztpkrssqxql7x",446,"144.csv","","111.69999998807907","resources/trios/L2T1A3.jpg","38","restless",0.7,0.2,0.5,0.117993759372139,"true"
"image-keyboard-response",99,96885,"0.0-3.29-1.29","1qztpkrssqxql7x",446,"144.csv","","null","resources/maskTrios/BT1B.jpg","null","",NA,NA,NA,NA,""
"image-keyboard-response",100,98089,"0.0-3.29-2.29","1qztpkrssqxql7x",446,"144.csv","","null","resources/images/coin2.png","null","",NA,NA,NA,NA,""
"image-keyboard-response",101,98271,"0.0-3.30-0.30","1qztpkrssqxql7x",446,"144.csv","","179.59999999403954","resources/trios/L1T1A3.jpg","37","restless",0.7,0.2,0.5,0.861004057913487,"false"
"image-keyboard-response",102,98677,"0.0-3.30-1.30","1qztpkrssqxql7x",446,"144.csv","","null","resources/maskTrios/L1BB.jpg","null","",NA,NA,NA,NA,""
"image-keyboard-response",103,99881,"0.0-3.30-2.30","1qztpkrssqxql7x",446,"144.csv","","null","resources/images/fishbone.png","null","",NA,NA,NA,NA,""
"image-keyboard-response",104,99996,"0.0-3.31-0.31","1qztpkrssqxql7x",446,"144.csv","","113.5","resources/trios/L2T1A3.jpg","38","restless",0.7,0.2,0.5,0.521188678977814,"false"
"image-keyboard-response",105,100400,"0.0-3.31-1.31","1qztpkrssqxql7x",446,"144.csv","","null","resources/maskTrios/BT1B.jpg","null","",NA,NA,NA,NA,""
"image-keyboard-response",106,101602,"0.0-3.31-2.31","1qztpkrssqxql7x",446,"144.csv","","null","resources/images/fishbone.png","null","",NA,NA,NA,NA,""
"image-keyboard-response",107,102203,"0.0-3.32-0.32","1qztpkrssqxql7x",446,"144.csv","","599.2999999821186","resources/trios/L2T1A2.jpg","37","restless",0.7,0.2,0.5,0.736468766980384,"false"
"image-keyboard-response",108,102610,"0.0-3.32-1.32","1qztpkrssqxql7x",446,"144.csv","","null","resources/maskTrios/L2BB.jpg","null","",NA,NA,NA,NA,""
"image-keyboard-response",109,103816,"0.0-3.32-2.32","1qztpkrssqxql7x",446,"144.csv","","null","resources/images/fishbone.png","null","",NA,NA,NA,NA,""
"image-keyboard-response",110,104312,"0.0-3.33-0.33","1qztpkrssqxql7x",446,"144.csv","","493.5","resources/trios/L1T1A3.jpg","37","restless",0.7,0.2,0.5,0.168247683566755,"true"
"image-keyboard-response",111,104719,"0.0-3.33-1.33","1qztpkrssqxql7x",446,"144.csv","","null","resources/maskTrios/L1BB.jpg","null","",NA,NA,NA,NA,""
"image-keyboard-response",112,105926,"0.0-3.33-2.33","1qztpkrssqxql7x",446,"144.csv","","null","resources/images/coin2.png","null","",NA,NA,NA,NA,""
"image-keyboard-response",113,106112,"0.0-3.34-0.34","1qztpkrssqxql7x",446,"144.csv","","184.2999999821186","resources/trios/L1T4A3.jpg","39","restless",0.7,0.2,0.5,0.488299171981813,"true"
"image-keyboard-response",114,106519,"0.0-3.34-1.34","1qztpkrssqxql7x",446,"144.csv","","null","resources/maskTrios/BBA3.jpg","null","",NA,NA,NA,NA,""
"image-keyboard-response",115,107726,"0.0-3.34-2.34","1qztpkrssqxql7x",446,"144.csv","","null","resources/images/coin2.png","null","",NA,NA,NA,NA,""
"image-keyboard-response",116,107862,"0.0-3.35-0.35","1qztpkrssqxql7x",446,"144.csv","","133.80000001192093","resources/trios/L2T4A3.jpg","38","restless",0.7,0.3,0.5,0.323252634618902,"false"
"image-keyboard-response",117,108265,"0.0-3.35-1.35","1qztpkrssqxql7x",446,"144.csv","","null","resources/maskTrios/BT4B.jpg","null","",NA,NA,NA,NA,""
"image-keyboard-response",118,109468,"0.0-3.35-2.35","1qztpkrssqxql7x",446,"144.csv","","null","resources/images/fishbone.png","null","",NA,NA,NA,NA,""
"image-keyboard-response",119,109517,"0.0-3.36-0.36","1qztpkrssqxql7x",446,"144.csv","","47.20000001788139","resources/trios/L1T1A2.jpg","37","restless",0.7,0.4,0.5,0.751918552774836,"false"
"image-keyboard-response",120,109924,"0.0-3.36-1.36","1qztpkrssqxql7x",446,"144.csv","","null","resources/maskTrios/L1BB.jpg","null","",NA,NA,NA,NA,""
"image-keyboard-response",121,111126,"0.0-3.36-2.36","1qztpkrssqxql7x",446,"144.csv","","null","resources/images/fishbone.png","null","",NA,NA,NA,NA,""
"image-keyboard-response",122,111295,"0.0-3.37-0.37","1qztpkrssqxql7x",446,"144.csv","","166.39999997615814","resources/trios/L1T4A2.jpg","39","restless",0.7,0.4,0.5,0.619707643401924,"false"
"image-keyboard-response",123,111702,"0.0-3.37-1.37","1qztpkrssqxql7x",446,"144.csv","","null","resources/maskTrios/BBA2.jpg","null","",NA,NA,NA,NA,""
"image-keyboard-response",124,112904,"0.0-3.37-2.37","1qztpkrssqxql7x",446,"144.csv","","null","resources/images/fishbone.png","null","",NA,NA,NA,NA,""
"image-keyboard-response",125,112969,"0.0-3.38-0.38","1qztpkrssqxql7x",446,"144.csv","","63.20000001788139","resources/trios/L2T1A3.jpg","37","restless",0.7,0.4,0.5,0.884551003978729,"false"
"image-keyboard-response",126,113375,"0.0-3.38-1.38","1qztpkrssqxql7x",446,"144.csv","","null","resources/maskTrios/L2BB.jpg","null","",NA,NA,NA,NA,""
"image-keyboard-response",127,114579,"0.0-3.38-2.38","1qztpkrssqxql7x",446,"144.csv","","null","resources/images/fishbone.png","null","",NA,NA,NA,NA,""
"image-keyboard-response",128,114708,"0.0-3.39-0.39","1qztpkrssqxql7x",446,"144.csv","","127.5","resources/trios/L2T4A2.jpg","38","restless",0.7,0.4,0.5,0.511624908385592,"false"
"image-keyboard-response",129,115110,"0.0-3.39-1.39","1qztpkrssqxql7x",446,"144.csv","","null","resources/maskTrios/BT4B.jpg","null","",NA,NA,NA,NA,""
"image-keyboard-response",130,116313,"0.0-3.39-2.39","1qztpkrssqxql7x",446,"144.csv","","null","resources/images/fishbone.png","null","",NA,NA,NA,NA,""
"image-keyboard-response",131,116442,"0.0-3.40-0.40","1qztpkrssqxql7x",446,"144.csv","","126.90000000596046","resources/trios/L2T1A2.jpg","37","restless",0.7,0.4,0.5,0.440619830062463,"true"
"image-keyboard-response",132,116849,"0.0-3.40-1.40","1qztpkrssqxql7x",446,"144.csv","","null","resources/maskTrios/L2BB.jpg","null","",NA,NA,NA,NA,""
"image-keyboard-response",133,118052,"0.0-3.40-2.40","1qztpkrssqxql7x",446,"144.csv","","null","resources/images/coin2.png","null","",NA,NA,NA,NA,""
"image-keyboard-response",134,118062,"0.0-3.41-0.41","1qztpkrssqxql7x",446,"144.csv","","6.5","resources/trios/L1T4A3.jpg","39","restless",0.7,0.5,0.5,0.645049076177654,"false"
"image-keyboard-response",135,118467,"0.0-3.41-1.41","1qztpkrssqxql7x",446,"144.csv","","null","resources/maskTrios/BBA3.jpg","null","",NA,NA,NA,NA,""
"image-keyboard-response",136,119669,"0.0-3.41-2.41","1qztpkrssqxql7x",446,"144.csv","","null","resources/images/fishbone.png","null","",NA,NA,NA,NA,""
"image-keyboard-response",137,119788,"0.0-3.42-0.42","1qztpkrssqxql7x",446,"144.csv","","117.5","resources/trios/L1T4A3.jpg","37","restless",0.7,0.5,0.5,0.218303871734984,"true"
"image-keyboard-response",138,120193,"0.0-3.42-1.42","1qztpkrssqxql7x",446,"144.csv","","null","resources/maskTrios/L1BB.jpg","null","",NA,NA,NA,NA,""
"image-keyboard-response",139,121395,"0.0-3.42-2.42","1qztpkrssqxql7x",446,"144.csv","","null","resources/images/coin2.png","null","",NA,NA,NA,NA,""
"image-keyboard-response",140,121442,"0.0-3.43-0.43","1qztpkrssqxql7x",446,"144.csv","","44.19999998807907","resources/trios/L1T4A3.jpg","38","restless",0.7,0.5,0.5,0.471666855279935,"true"
"image-keyboard-response",141,121848,"0.0-3.43-1.43","1qztpkrssqxql7x",446,"144.csv","","null","resources/maskTrios/BT4B.jpg","null","",NA,NA,NA,NA,""
"image-keyboard-response",142,123052,"0.0-3.43-2.43","1qztpkrssqxql7x",446,"144.csv","","null","resources/images/coin2.png","null","",NA,NA,NA,NA,""
"image-keyboard-response",143,123159,"0.0-3.44-0.44","1qztpkrssqxql7x",446,"144.csv","","105.59999999403954","resources/trios/L2T1A3.jpg","37","restless",0.7,0.5,0.5,0.759297311037682,"false"
"image-keyboard-response",144,123563,"0.0-3.44-1.44","1qztpkrssqxql7x",446,"144.csv","","null","resources/maskTrios/L2BB.jpg","null","",NA,NA,NA,NA,""
"image-keyboard-response",145,124769,"0.0-3.44-2.44","1qztpkrssqxql7x",446,"144.csv","","null","resources/images/fishbone.png","null","",NA,NA,NA,NA,""
"image-keyboard-response",146,124814,"0.0-3.45-0.45","1qztpkrssqxql7x",446,"144.csv","","43.5","resources/trios/L1T1A3.jpg","38","restless",0.7,0.5,0.5,0.552855138340278,"false"
"image-keyboard-response",147,125218,"0.0-3.45-1.45","1qztpkrssqxql7x",446,"144.csv","","null","resources/maskTrios/BT1B.jpg","null","",NA,NA,NA,NA,""
"image-keyboard-response",148,126422,"0.0-3.45-2.45","1qztpkrssqxql7x",446,"144.csv","","null","resources/images/fishbone.png","null","",NA,NA,NA,NA,""
"image-keyboard-response",149,126457,"0.0-3.46-0.46","1qztpkrssqxql7x",446,"144.csv","","33","resources/trios/L1T4A2.jpg","37","restless",0.7,0.6,0.5,0.897185962353135,"false"
"image-keyboard-response",150,126860,"0.0-3.46-1.46","1qztpkrssqxql7x",446,"144.csv","","null","resources/maskTrios/L1BB.jpg","null","",NA,NA,NA,NA,""
"image-keyboard-response",151,128067,"0.0-3.46-2.46","1qztpkrssqxql7x",446,"144.csv","","null","resources/images/fishbone.png","null","",NA,NA,NA,NA,""
"image-keyboard-response",152,128075,"0.0-3.47-0.47","1qztpkrssqxql7x",446,"144.csv","","6.299999982118607","resources/trios/L1T1A2.jpg","39","restless",0.7,0.6,0.5,0.880481063748894,"false"
"image-keyboard-response",153,128477,"0.0-3.47-1.47","1qztpkrssqxql7x",446,"144.csv","","null","resources/maskTrios/BBA2.jpg","null","",NA,NA,NA,NA,""
"image-keyboard-response",154,129681,"0.0-3.47-2.47","1qztpkrssqxql7x",446,"144.csv","","null","resources/images/fishbone.png","null","",NA,NA,NA,NA,""
"image-keyboard-response",155,129712,"0.0-3.48-0.48","1qztpkrssqxql7x",446,"144.csv","","29.599999994039536","resources/trios/L1T4A2.jpg","37","restless",0.7,0.6,0.5,0.886446980365329,"false"
"image-keyboard-response",156,130119,"0.0-3.48-1.48","1qztpkrssqxql7x",446,"144.csv","","null","resources/maskTrios/L1BB.jpg","null","",NA,NA,NA,NA,""
"image-keyboard-response",157,131322,"0.0-3.48-2.48","1qztpkrssqxql7x",446,"144.csv","","null","resources/images/fishbone.png","null","",NA,NA,NA,NA,""
"image-keyboard-response",158,131355,"0.0-3.49-0.49","1qztpkrssqxql7x",446,"144.csv","","31.299999982118607","resources/trios/L2T1A3.jpg","38","restless",0.7,0.6,0.5,0.92396125563805,"false"
"image-keyboard-response",159,131762,"0.0-3.49-1.49","1qztpkrssqxql7x",446,"144.csv","","null","resources/maskTrios/BT1B.jpg","null","",NA,NA,NA,NA,""
"image-keyboard-response",160,132965,"0.0-3.49-2.49","1qztpkrssqxql7x",446,"144.csv","","null","resources/images/fishbone.png","null","",NA,NA,NA,NA,""
"image-keyboard-response",161,133034,"0.0-3.50-0.50","1qztpkrssqxql7x",446,"144.csv","","67.89999997615814","resources/trios/L1T1A2.jpg","38","restless",0.7,0.6,0.5,0.592247730720773,"true"
"image-keyboard-response",162,133436,"0.0-3.50-1.50","1qztpkrssqxql7x",446,"144.csv","","null","resources/maskTrios/BT1B.jpg","null","",NA,NA,NA,NA,""
"image-keyboard-response",163,134638,"0.0-3.50-2.50","1qztpkrssqxql7x",446,"144.csv","","null","resources/images/coin2.png","null","",NA,NA,NA,NA,""
"image-keyboard-response",164,134646,"0.0-3.51-0.51","1qztpkrssqxql7x",446,"144.csv","","6.199999988079071","resources/trios/L2T1A3.jpg","37","restless",0.7,0.6,0.5,0.718229166295084,"false"
"image-keyboard-response",165,135049,"0.0-3.51-1.51","1qztpkrssqxql7x",446,"144.csv","","null","resources/maskTrios/L2BB.jpg","null","",NA,NA,NA,NA,""
"image-keyboard-response",166,136252,"0.0-3.51-2.51","1qztpkrssqxql7x",446,"144.csv","","null","resources/images/fishbone.png","null","",NA,NA,NA,NA,""
"image-keyboard-response",167,136279,"0.0-3.52-0.52","1qztpkrssqxql7x",446,"144.csv","","24.69999998807907","resources/trios/L1T4A3.jpg","37","restless",0.7,0.6,0.5,0.805883744336955,"false"
"image-keyboard-response",168,136685,"0.0-3.52-1.52","1qztpkrssqxql7x",446,"144.csv","","null","resources/maskTrios/L1BB.jpg","null","",NA,NA,NA,NA,""
"image-keyboard-response",169,137891,"0.0-3.52-2.52","1qztpkrssqxql7x",446,"144.csv","","null","resources/images/fishbone.png","null","",NA,NA,NA,NA,""
"image-keyboard-response",170,137934,"0.0-3.53-0.53","1qztpkrssqxql7x",446,"144.csv","","40.80000001192093","resources/trios/L2T1A3.jpg","39","restless",0.7,0.7,0.5,0.3398143366106,"true"
"image-keyboard-response",171,138341,"0.0-3.53-1.53","1qztpkrssqxql7x",446,"144.csv","","null","resources/maskTrios/BBA3.jpg","null","",NA,NA,NA,NA,""
"image-keyboard-response",172,139548,"0.0-3.53-2.53","1qztpkrssqxql7x",446,"144.csv","","null","resources/images/coin2.png","null","",NA,NA,NA,NA,""
"image-keyboard-response",173,139634,"0.0-3.54-0.54","1qztpkrssqxql7x",446,"144.csv","","84","resources/trios/L2T4A3.jpg","38","restless",0.7,0.7,0.5,0.159433481013519,"true"
"image-keyboard-response",174,140039,"0.0-3.54-1.54","1qztpkrssqxql7x",446,"144.csv","","null","resources/maskTrios/BT4B.jpg","null","",NA,NA,NA,NA,""
"image-keyboard-response",175,141246,"0.0-3.54-2.54","1qztpkrssqxql7x",446,"144.csv","","null","resources/images/coin2.png","null","",NA,NA,NA,NA,""
"image-keyboard-response",176,141374,"0.0-3.55-0.55","1qztpkrssqxql7x",446,"144.csv","","125.80000001192093","resources/trios/L2T4A2.jpg","39","restless",0.7,0.7,0.5,0.274826263169135,"true"
"image-keyboard-response",177,141777,"0.0-3.55-1.55","1qztpkrssqxql7x",446,"144.csv","","null","resources/maskTrios/BBA2.jpg","null","",NA,NA,NA,NA,""
"image-keyboard-response",178,142979,"0.0-3.55-2.55","1qztpkrssqxql7x",446,"144.csv","","null","resources/images/coin2.png","null","",NA,NA,NA,NA,""
"image-keyboard-response",179,143158,"0.0-3.56-0.56","1qztpkrssqxql7x",446,"144.csv","","177.5","resources/trios/L2T1A3.jpg","38","restless",0.7,0.7,0.5,0.0553574066823557,"true"
"image-keyboard-response",180,143565,"0.0-3.56-1.56","1qztpkrssqxql7x",446,"144.csv","","null","resources/maskTrios/BT1B.jpg","null","",NA,NA,NA,NA,""
"image-keyboard-response",181,144769,"0.0-3.56-2.56","1qztpkrssqxql7x",446,"144.csv","","null","resources/images/coin2.png","null","",NA,NA,NA,NA,""
"image-keyboard-response",182,144913,"0.0-3.57-0.57","1qztpkrssqxql7x",446,"144.csv","","142.40000000596046","resources/trios/L1T4A3.jpg","39","restless",0.7,0.7,0.5,0.507029248892592,"false"
"image-keyboard-response",183,145317,"0.0-3.57-1.57","1qztpkrssqxql7x",446,"144.csv","","null","resources/maskTrios/BBA3.jpg","null","",NA,NA,NA,NA,""
"image-keyboard-response",184,146519,"0.0-3.57-2.57","1qztpkrssqxql7x",446,"144.csv","","null","resources/images/fishbone.png","null","",NA,NA,NA,NA,""
"image-keyboard-response",185,146597,"0.0-3.58-0.58","1qztpkrssqxql7x",446,"144.csv","","75.90000000596046","resources/trios/L2T4A2.jpg","38","restless",0.7,0.7,0.5,0.580493891301572,"true"
"image-keyboard-response",186,147002,"0.0-3.58-1.58","1qztpkrssqxql7x",446,"144.csv","","null","resources/maskTrios/BT4B.jpg","null","",NA,NA,NA,NA,""
"image-keyboard-response",187,148208,"0.0-3.58-2.58","1qztpkrssqxql7x",446,"144.csv","","null","resources/images/coin2.png","null","",NA,NA,NA,NA,""
"image-keyboard-response",188,148271,"0.0-3.59-0.59","1qztpkrssqxql7x",446,"144.csv","","60.599999994039536","resources/trios/L1T4A3.jpg","37","restless",0.7,0.7,0.5,0.47687542391886,"true"
"image-keyboard-response",189,148678,"0.0-3.59-1.59","1qztpkrssqxql7x",446,"144.csv","","null","resources/maskTrios/L1BB.jpg","null","",NA,NA,NA,NA,""
"image-keyboard-response",190,149885,"0.0-3.59-2.59","1qztpkrssqxql7x",446,"144.csv","","null","resources/images/coin2.png","null","",NA,NA,NA,NA,""
"image-keyboard-response",191,149892,"0.0-3.60-0.60","1qztpkrssqxql7x",446,"144.csv","","5","resources/trios/L2T1A2.jpg","38","restless",0.7,0.7,0.6,0.193879921511352,"true"
"image-keyboard-response",192,150294,"0.0-3.60-1.60","1qztpkrssqxql7x",446,"144.csv","","null","resources/maskTrios/BT1B.jpg","null","",NA,NA,NA,NA,""
"image-keyboard-response",193,151500,"0.0-3.60-2.60","1qztpkrssqxql7x",446,"144.csv","","null","resources/images/coin2.png","null","",NA,NA,NA,NA,""
"image-keyboard-response",194,151528,"0.0-3.61-0.61","1qztpkrssqxql7x",446,"144.csv","","26.599999994039536","resources/trios/L2T4A3.jpg","39","restless",0.7,0.7,0.6,0.879399582212347,"false"
"image-keyboard-response",195,151934,"0.0-3.61-1.61","1qztpkrssqxql7x",446,"144.csv","","null","resources/maskTrios/BBA3.jpg","null","",NA,NA,NA,NA,""
"image-keyboard-response",196,153136,"0.0-3.61-2.61","1qztpkrssqxql7x",446,"144.csv","","null","resources/images/fishbone.png","null","",NA,NA,NA,NA,""
"image-keyboard-response",197,153208,"0.0-3.62-0.62","1qztpkrssqxql7x",446,"144.csv","","70.30000001192093","resources/trios/L1T1A2.jpg","39","restless",0.8,0.7,0.6,0.45793688206104,"true"
"image-keyboard-response",198,153614,"0.0-3.62-1.62","1qztpkrssqxql7x",446,"144.csv","","null","resources/maskTrios/BBA2.jpg","null","",NA,NA,NA,NA,""
"image-keyboard-response",199,154819,"0.0-3.62-2.62","1qztpkrssqxql7x",446,"144.csv","","null","resources/images/coin2.png","null","",NA,NA,NA,NA,""
"image-keyboard-response",200,154828,"0.0-3.63-0.63","1qztpkrssqxql7x",446,"144.csv","","7.4000000059604645","resources/trios/L2T1A3.jpg","38","restless",0.8,0.6,0.6,0.368420947586222,"true"
"image-keyboard-response",201,155230,"0.0-3.63-1.63","1qztpkrssqxql7x",446,"144.csv","","null","resources/maskTrios/BT1B.jpg","null","",NA,NA,NA,NA,""
"image-keyboard-response",202,156435,"0.0-3.63-2.63","1qztpkrssqxql7x",446,"144.csv","","null","resources/images/coin2.png","null","",NA,NA,NA,NA,""
"image-keyboard-response",203,156473,"0.0-3.64-0.64","1qztpkrssqxql7x",446,"144.csv","","36.30000001192093","resources/trios/L1T4A3.jpg","37","restless",0.7,0.6,0.6,0.543684578186475,"true"
"image-keyboard-response",204,156876,"0.0-3.64-1.64","1qztpkrssqxql7x",446,"144.csv","","null","resources/maskTrios/L1BB.jpg","null","",NA,NA,NA,NA,""
"image-keyboard-response",205,158078,"0.0-3.64-2.64","1qztpkrssqxql7x",446,"144.csv","","null","resources/images/coin2.png","null","",NA,NA,NA,NA,""
"image-keyboard-response",206,158080,"0.0-3.65-0.65","1qztpkrssqxql7x",446,"144.csv","","0.09999999403953552","resources/trios/L1T4A2.jpg","38","restless",0.7,0.6,0.6,0.637330772770831,"false"
"image-keyboard-response",207,158485,"0.0-3.65-1.65","1qztpkrssqxql7x",446,"144.csv","","null","resources/maskTrios/BT4B.jpg","null","",NA,NA,NA,NA,""
"image-keyboard-response",208,159691,"0.0-3.65-2.65","1qztpkrssqxql7x",446,"144.csv","","null","resources/images/fishbone.png","null","",NA,NA,NA,NA,""
"image-keyboard-response",209,159979,"0.0-3.66-0.66","1qztpkrssqxql7x",446,"144.csv","","286","resources/trios/L2T1A3.jpg","39","restless",0.7,0.6,0.6,0.382588508589445,"true"
"image-keyboard-response",210,160384,"0.0-3.66-1.66","1qztpkrssqxql7x",446,"144.csv","","null","resources/maskTrios/BBA3.jpg","null","",NA,NA,NA,NA,""
"image-keyboard-response",211,161585,"0.0-3.66-2.66","1qztpkrssqxql7x",446,"144.csv","","null","resources/images/coin2.png","null","",NA,NA,NA,NA,""
"image-keyboard-response",212,161664,"0.0-3.67-0.67","1qztpkrssqxql7x",446,"144.csv","","77.09999999403954","resources/trios/L1T1A3.jpg","37","restless",0.7,0.6,0.6,0.157656675510848,"true"
"image-keyboard-response",213,162068,"0.0-3.67-1.67","1qztpkrssqxql7x",446,"144.csv","","null","resources/maskTrios/L1BB.jpg","null","",NA,NA,NA,NA,""
"image-keyboard-response",214,163275,"0.0-3.67-2.67","1qztpkrssqxql7x",446,"144.csv","","null","resources/images/coin2.png","null","",NA,NA,NA,NA,""
"image-keyboard-response",215,163382,"0.0-3.68-0.68","1qztpkrssqxql7x",446,"144.csv","","105.2999999821186","resources/trios/L1T4A3.jpg","38","restless",0.7,0.6,0.6,0.272208509703258,"true"
"image-keyboard-response",216,163787,"0.0-3.68-1.68","1qztpkrssqxql7x",446,"144.csv","","null","resources/maskTrios/BT4B.jpg","null","",NA,NA,NA,NA,""
"image-keyboard-response",217,164991,"0.0-3.68-2.68","1qztpkrssqxql7x",446,"144.csv","","null","resources/images/coin2.png","null","",NA,NA,NA,NA,""
"image-keyboard-response",218,165250,"0.0-3.69-0.69","1qztpkrssqxql7x",446,"144.csv","","257.5","resources/trios/L2T4A3.jpg","39","restless",0.7,0.6,0.6,0.0632743547688921,"true"
"image-keyboard-response",219,165652,"0.0-3.69-1.69","1qztpkrssqxql7x",446,"144.csv","","null","resources/maskTrios/BBA3.jpg","null","",NA,NA,NA,NA,""
"image-keyboard-response",220,166854,"0.0-3.69-2.69","1qztpkrssqxql7x",446,"144.csv","","null","resources/images/coin2.png","null","",NA,NA,NA,NA,""
"image-keyboard-response",221,166950,"0.0-3.70-0.70","1qztpkrssqxql7x",446,"144.csv","","93.59999999403954","resources/trios/L2T1A2.jpg","37","restless",0.7,0.6,0.6,0.162308077448039,"true"
"image-keyboard-response",222,167352,"0.0-3.70-1.70","1qztpkrssqxql7x",446,"144.csv","","null","resources/maskTrios/L2BB.jpg","null","",NA,NA,NA,NA,""
"image-keyboard-response",223,168559,"0.0-3.70-2.70","1qztpkrssqxql7x",446,"144.csv","","null","resources/images/coin2.png","null","",NA,NA,NA,NA,""
"image-keyboard-response",224,168597,"0.0-3.71-0.71","1qztpkrssqxql7x",446,"144.csv","","35.900000005960464","resources/trios/L1T1A2.jpg","38","restless",0.7,0.7,0.7,0.169663719182656,"true"
"image-keyboard-response",225,169002,"0.0-3.71-1.71","1qztpkrssqxql7x",446,"144.csv","","null","resources/maskTrios/BT1B.jpg","null","",NA,NA,NA,NA,""
"image-keyboard-response",226,170208,"0.0-3.71-2.71","1qztpkrssqxql7x",446,"144.csv","","null","resources/images/coin2.png","null","",NA,NA,NA,NA,""
"image-keyboard-response",227,170250,"0.0-3.72-0.72","1qztpkrssqxql7x",446,"144.csv","","39.599999994039536","resources/trios/L2T1A2.jpg","39","restless",0.6,0.7,0.6,0.673706576807517,"false"
"image-keyboard-response",228,170652,"0.0-3.72-1.72","1qztpkrssqxql7x",446,"144.csv","","null","resources/maskTrios/BBA2.jpg","null","",NA,NA,NA,NA,""
"image-keyboard-response",229,171858,"0.0-3.72-2.72","1qztpkrssqxql7x",446,"144.csv","","null","resources/images/fishbone.png","null","",NA,NA,NA,NA,""
"image-keyboard-response",230,171993,"0.0-3.73-0.73","1qztpkrssqxql7x",446,"144.csv","","132.30000001192093","resources/trios/L2T4A2.jpg","37","restless",0.6,0.7,0.6,0.795901637696669,"false"
"image-keyboard-response",231,172400,"0.0-3.73-1.73","1qztpkrssqxql7x",446,"144.csv","","null","resources/maskTrios/L2BB.jpg","null","",NA,NA,NA,NA,""
"image-keyboard-response",232,173602,"0.0-3.73-2.73","1qztpkrssqxql7x",446,"144.csv","","null","resources/images/fishbone.png","null","",NA,NA,NA,NA,""
"image-keyboard-response",233,173739,"0.0-3.74-0.74","1qztpkrssqxql7x",446,"144.csv","","135","resources/trios/L1T1A3.jpg","38","restless",0.6,0.7,0.6,0.26600978959771,"true"
"image-keyboard-response",234,174145,"0.0-3.74-1.74","1qztpkrssqxql7x",446,"144.csv","","null","resources/maskTrios/BT1B.jpg","null","",NA,NA,NA,NA,""
"image-keyboard-response",235,175352,"0.0-3.74-2.74","1qztpkrssqxql7x",446,"144.csv","","null","resources/images/coin2.png","null","",NA,NA,NA,NA,""
"image-keyboard-response",236,175357,"0.0-3.75-0.75","1qztpkrssqxql7x",446,"144.csv","","3.2000000178813934","resources/trios/L1T1A2.jpg","39","restless",0.7,0.7,0.6,0.38385906970546,"true"
"image-keyboard-response",237,175760,"0.0-3.75-1.75","1qztpkrssqxql7x",446,"144.csv","","null","resources/maskTrios/BBA2.jpg","null","",NA,NA,NA,NA,""
"image-keyboard-response",238,176963,"0.0-3.75-2.75","1qztpkrssqxql7x",446,"144.csv","","null","resources/images/coin2.png","null","",NA,NA,NA,NA,""
"image-keyboard-response",239,177032,"0.0-3.76-0.76","1qztpkrssqxql7x",446,"144.csv","","66.80000001192093","resources/trios/L2T1A2.jpg","37","restless",0.7,0.7,0.6,0.936562238676432,"false"
"image-keyboard-response",240,177435,"0.0-3.76-1.76","1qztpkrssqxql7x",446,"144.csv","","null","resources/maskTrios/L2BB.jpg","null","",NA,NA,NA,NA,""
"image-keyboard-response",241,178640,"0.0-3.76-2.76","1qztpkrssqxql7x",446,"144.csv","","null","resources/images/fishbone.png","null","",NA,NA,NA,NA,""
"image-keyboard-response",242,178721,"0.0-3.77-0.77","1qztpkrssqxql7x",446,"144.csv","","78","resources/trios/L1T1A3.jpg","38","restless",0.7,0.7,0.6,0.727481855412103,"false"
"image-keyboard-response",243,179126,"0.0-3.77-1.77","1qztpkrssqxql7x",446,"144.csv","","null","resources/maskTrios/BT1B.jpg","null","",NA,NA,NA,NA,""
"image-keyboard-response",244,180330,"0.0-3.77-2.77","1qztpkrssqxql7x",446,"144.csv","","null","resources/images/fishbone.png","null","",NA,NA,NA,NA,""
"image-keyboard-response",245,180333,"0.0-3.78-0.78","1qztpkrssqxql7x",446,"144.csv","","1.7000000178813934","resources/trios/L2T1A3.jpg","39","restless",0.7,0.8,0.6,0.0291556684917502,"true"
"image-keyboard-response",246,180735,"0.0-3.78-1.78","1qztpkrssqxql7x",446,"144.csv","","null","resources/maskTrios/BBA3.jpg","null","",NA,NA,NA,NA,""
"image-keyboard-response",247,181939,"0.0-3.78-2.78","1qztpkrssqxql7x",446,"144.csv","","null","resources/images/coin2.png","null","",NA,NA,NA,NA,""
"image-keyboard-response",248,182066,"0.0-3.79-0.79","1qztpkrssqxql7x",446,"144.csv","","125","resources/trios/L2T1A2.jpg","37","restless",0.7,0.8,0.6,0.552623913498538,"true"
"image-keyboard-response",249,182469,"0.0-3.79-1.79","1qztpkrssqxql7x",446,"144.csv","","null","resources/maskTrios/L2BB.jpg","null","",NA,NA,NA,NA,""
"image-keyboard-response",250,183672,"0.0-3.79-2.79","1qztpkrssqxql7x",446,"144.csv","","null","resources/images/coin2.png","null","",NA,NA,NA,NA,""
"image-keyboard-response",251,183709,"0.0-3.80-0.80","1qztpkrssqxql7x",446,"144.csv","","34.900000005960464","resources/trios/L2T1A2.jpg","38","restless",0.7,0.8,0.6,0.5460812963992,"true"
"image-keyboard-response",252,184111,"0.0-3.80-1.80","1qztpkrssqxql7x",446,"144.csv","","null","resources/maskTrios/BT1B.jpg","null","",NA,NA,NA,NA,""
"image-keyboard-response",253,185313,"0.0-3.80-2.80","1qztpkrssqxql7x",446,"144.csv","","null","resources/images/coin2.png","null","",NA,NA,NA,NA,""
"image-keyboard-response",254,185451,"0.0-3.81-0.81","1qztpkrssqxql7x",446,"144.csv","","135.5","resources/trios/L1T1A3.jpg","39","restless",0.7,0.8,0.6,0.222494712043541,"true"
"image-keyboard-response",255,185858,"0.0-3.81-1.81","1qztpkrssqxql7x",446,"144.csv","","null","resources/maskTrios/BBA3.jpg","null","",NA,NA,NA,NA,""
"image-keyboard-response",256,187060,"0.0-3.81-2.81","1qztpkrssqxql7x",446,"144.csv","","null","resources/images/coin2.png","null","",NA,NA,NA,NA,""
"image-keyboard-response",257,187231,"0.0-3.82-0.82","1qztpkrssqxql7x",446,"144.csv","","169","resources/trios/L1T4A2.jpg","37","restless",0.7,0.8,0.6,0.906894198125363,"false"
"image-keyboard-response",258,187633,"0.0-3.82-1.82","1qztpkrssqxql7x",446,"144.csv","","null","resources/maskTrios/L1BB.jpg","null","",NA,NA,NA,NA,""
"image-keyboard-response",259,188839,"0.0-3.82-2.82","1qztpkrssqxql7x",446,"144.csv","","null","resources/images/fishbone.png","null","",NA,NA,NA,NA,""
"image-keyboard-response",260,188843,"0.0-3.83-0.83","1qztpkrssqxql7x",446,"144.csv","","1.699999988079071","resources/trios/L2T1A3.jpg","38","restless",0.7,0.9,0.6,0.446652928182428,"true"
"image-keyboard-response",261,189249,"0.0-3.83-1.83","1qztpkrssqxql7x",446,"144.csv","","null","resources/maskTrios/BT1B.jpg","null","",NA,NA,NA,NA,""
"image-keyboard-response",262,190452,"0.0-3.83-2.83","1qztpkrssqxql7x",446,"144.csv","","null","resources/images/coin2.png","null","",NA,NA,NA,NA,""
"image-keyboard-response",263,190587,"0.0-3.84-0.84","1qztpkrssqxql7x",446,"144.csv","","133.19999998807907","resources/trios/L2T4A2.jpg","39","restless",0.7,0.9,0.6,0.126182722693258,"true"
"image-keyboard-response",264,190990,"0.0-3.84-1.84","1qztpkrssqxql7x",446,"144.csv","","null","resources/maskTrios/BBA2.jpg","null","",NA,NA,NA,NA,""
"image-keyboard-response",265,192194,"0.0-3.84-2.84","1qztpkrssqxql7x",446,"144.csv","","null","resources/images/coin2.png","null","",NA,NA,NA,NA,""
"image-keyboard-response",266,192301,"0.0-3.85-0.85","1qztpkrssqxql7x",446,"144.csv","","104.90000000596046","resources/trios/L1T1A3.jpg","38","restless",0.7,0.8,0.6,0.0731473438734065,"true"
"image-keyboard-response",267,192705,"0.0-3.85-1.85","1qztpkrssqxql7x",446,"144.csv","","null","resources/maskTrios/BT1B.jpg","null","",NA,NA,NA,NA,""
"image-keyboard-response",268,193909,"0.0-3.85-2.85","1qztpkrssqxql7x",446,"144.csv","","null","resources/images/coin2.png","null","",NA,NA,NA,NA,""
"image-keyboard-response",269,193961,"0.0-3.86-0.86","1qztpkrssqxql7x",446,"144.csv","","50.29999998211861","resources/trios/L2T4A3.jpg","39","restless",0.8,0.8,0.6,0.764926591863285,"false"
"image-keyboard-response",270,194368,"0.0-3.86-1.86","1qztpkrssqxql7x",446,"144.csv","","null","resources/maskTrios/BBA3.jpg","null","",NA,NA,NA,NA,""
"image-keyboard-response",271,195575,"0.0-3.86-2.86","1qztpkrssqxql7x",446,"144.csv","","null","resources/images/fishbone.png","null","",NA,NA,NA,NA,""
"image-keyboard-response",272,195697,"0.0-3.87-0.87","1qztpkrssqxql7x",446,"144.csv","","120.2999999821186","resources/trios/L1T1A3.jpg","38","restless",0.8,0.8,0.6,0.0945873942118187,"true"
"image-keyboard-response",273,196100,"0.0-3.87-1.87","1qztpkrssqxql7x",446,"144.csv","","null","resources/maskTrios/BT1B.jpg","null","",NA,NA,NA,NA,""
"image-keyboard-response",274,197305,"0.0-3.87-2.87","1qztpkrssqxql7x",446,"144.csv","","null","resources/images/coin2.png","null","",NA,NA,NA,NA,""
"image-keyboard-response",275,197459,"0.0-3.88-0.88","1qztpkrssqxql7x",446,"144.csv","","151.7000000178814","resources/trios/L1T1A2.jpg","37","restless",0.8,0.8,0.5,0.174289975545786,"true"
"image-keyboard-response",276,197866,"0.0-3.88-1.88","1qztpkrssqxql7x",446,"144.csv","","null","resources/maskTrios/L1BB.jpg","null","",NA,NA,NA,NA,""
"image-keyboard-response",277,199068,"0.0-3.88-2.88","1qztpkrssqxql7x",446,"144.csv","","null","resources/images/coin2.png","null","",NA,NA,NA,NA,""
"image-keyboard-response",278,199193,"0.0-3.89-0.89","1qztpkrssqxql7x",446,"144.csv","","123.5","resources/trios/L2T1A3.jpg","38","restless",0.8,0.8,0.5,0.991472961836004,"false"
"image-keyboard-response",279,199596,"0.0-3.89-1.89","1qztpkrssqxql7x",446,"144.csv","","null","resources/maskTrios/BT1B.jpg","null","",NA,NA,NA,NA,""
"image-keyboard-response",280,200798,"0.0-3.89-2.89","1qztpkrssqxql7x",446,"144.csv","","null","resources/images/fishbone.png","null","",NA,NA,NA,NA,""
"image-keyboard-response",281,200875,"0.0-3.90-0.90","1qztpkrssqxql7x",446,"144.csv","","74.40000000596046","resources/trios/L2T1A2.jpg","37","restless",0.8,0.8,0.5,0.983947863374681,"false"
"image-keyboard-response",282,201277,"0.0-3.90-1.90","1qztpkrssqxql7x",446,"144.csv","","null","resources/maskTrios/L2BB.jpg","null","",NA,NA,NA,NA,""
"image-keyboard-response",283,202484,"0.0-3.90-2.90","1qztpkrssqxql7x",446,"144.csv","","null","resources/images/fishbone.png","null","",NA,NA,NA,NA,""
"image-keyboard-response",284,202603,"0.0-3.91-0.91","1qztpkrssqxql7x",446,"144.csv","","117.80000001192093","resources/trios/L2T1A3.jpg","39","restless",0.8,0.8,0.4,0.688660337836227,"false"
"image-keyboard-response",285,203008,"0.0-3.91-1.91","1qztpkrssqxql7x",446,"144.csv","","null","resources/maskTrios/BBA3.jpg","null","",NA,NA,NA,NA,""
"image-keyboard-response",286,204212,"0.0-3.91-2.91","1qztpkrssqxql7x",446,"144.csv","","null","resources/images/fishbone.png","null","",NA,NA,NA,NA,""
"image-keyboard-response",287,204363,"0.0-3.92-0.92","1qztpkrssqxql7x",446,"144.csv","","149","resources/trios/L1T1A2.jpg","37","restless",0.8,0.9,0.4,0.287975014519202,"true"
"image-keyboard-response",288,204769,"0.0-3.92-1.92","1qztpkrssqxql7x",446,"144.csv","","null","resources/maskTrios/L1BB.jpg","null","",NA,NA,NA,NA,""
"image-keyboard-response",289,205971,"0.0-3.92-2.92","1qztpkrssqxql7x",446,"144.csv","","null","resources/images/coin2.png","null","",NA,NA,NA,NA,""
"image-keyboard-response",290,206001,"0.0-3.93-0.93","1qztpkrssqxql7x",446,"144.csv","","28.5","resources/trios/L2T4A2.jpg","38","restless",0.7,0.8,0.4,0.4713646853419,"true"
"image-keyboard-response",291,206408,"0.0-3.93-1.93","1qztpkrssqxql7x",446,"144.csv","","null","resources/maskTrios/BT4B.jpg","null","",NA,NA,NA,NA,""
"image-keyboard-response",292,207615,"0.0-3.93-2.93","1qztpkrssqxql7x",446,"144.csv","","null","resources/images/coin2.png","null","",NA,NA,NA,NA,""
"image-keyboard-response",293,207741,"0.0-3.94-0.94","1qztpkrssqxql7x",446,"144.csv","","124.2000000178814","resources/trios/L2T1A2.jpg","39","restless",0.7,0.8,0.4,0.238209216152629,"true"
"image-keyboard-response",294,208145,"0.0-3.94-1.94","1qztpkrssqxql7x",446,"144.csv","","null","resources/maskTrios/BBA2.jpg","null","",NA,NA,NA,NA,""
"image-keyboard-response",295,209352,"0.0-3.94-2.94","1qztpkrssqxql7x",446,"144.csv","","null","resources/images/coin2.png","null","",NA,NA,NA,NA,""
"image-keyboard-response",296,209489,"0.0-3.95-0.95","1qztpkrssqxql7x",446,"144.csv","","135","resources/trios/L2T4A3.jpg","37","restless",0.7,0.8,0.4,0.454159717784589,"true"
"image-keyboard-response",297,209893,"0.0-3.95-1.95","1qztpkrssqxql7x",446,"144.csv","","null","resources/maskTrios/L2BB.jpg","null","",NA,NA,NA,NA,""
"image-keyboard-response",298,211099,"0.0-3.95-2.95","1qztpkrssqxql7x",446,"144.csv","","null","resources/images/coin2.png","null","",NA,NA,NA,NA,""
"image-keyboard-response",299,211177,"0.0-3.96-0.96","1qztpkrssqxql7x",446,"144.csv","","75.5","resources/trios/L1T4A2.jpg","38","restless",0.7,0.8,0.4,0.425394670764529,"true"
"image-keyboard-response",300,211582,"0.0-3.96-1.96","1qztpkrssqxql7x",446,"144.csv","","null","resources/maskTrios/BT4B.jpg","null","",NA,NA,NA,NA,""
"image-keyboard-response",301,212785,"0.0-3.96-2.96","1qztpkrssqxql7x",446,"144.csv","","null","resources/images/coin2.png","null","",NA,NA,NA,NA,""
"image-keyboard-response",302,212817,"0.0-3.97-0.97","1qztpkrssqxql7x",446,"144.csv","","29.399999976158142","resources/trios/L2T4A2.jpg","39","restless",0.7,0.8,0.4,0.343880362700796,"true"
"image-keyboard-response",303,213218,"0.0-3.97-1.97","1qztpkrssqxql7x",446,"144.csv","","null","resources/maskTrios/BBA2.jpg","null","",NA,NA,NA,NA,""
"image-keyboard-response",304,214423,"0.0-3.97-2.97","1qztpkrssqxql7x",446,"144.csv","","null","resources/images/coin2.png","null","",NA,NA,NA,NA,""
"image-keyboard-response",305,214497,"0.0-3.98-0.98","1qztpkrssqxql7x",446,"144.csv","","71.40000000596046","resources/trios/L2T4A3.jpg","37","restless",0.7,0.8,0.4,0.850764289439276,"false"
"image-keyboard-response",306,214902,"0.0-3.98-1.98","1qztpkrssqxql7x",446,"144.csv","","null","resources/maskTrios/L2BB.jpg","null","",NA,NA,NA,NA,""
"image-keyboard-response",307,216103,"0.0-3.98-2.98","1qztpkrssqxql7x",446,"144.csv","","null","resources/images/fishbone.png","null","",NA,NA,NA,NA,""
"image-keyboard-response",308,216195,"0.0-3.99-0.99","1qztpkrssqxql7x",446,"144.csv","","89.90000000596046","resources/trios/L1T1A2.jpg","38","restless",0.7,0.8,0.4,0.26921676922438,"true"
"image-keyboard-response",309,216602,"0.0-3.99-1.99","1qztpkrssqxql7x",446,"144.csv","","null","resources/maskTrios/BT1B.jpg","null","",NA,NA,NA,NA,""
"image-keyboard-response",310,217807,"0.0-3.99-2.99","1qztpkrssqxql7x",446,"144.csv","","null","resources/images/coin2.png","null","",NA,NA,NA,NA,""
"image-keyboard-response",311,217984,"0.0-3.100-0.100","1qztpkrssqxql7x",446,"144.csv","","174.2000000178814","resources/trios/L1T4A3.jpg","37","restless",0.7,0.8,0.4,0.849347535870254,"false"
"image-keyboard-response",312,218390,"0.0-3.100-1.100","1qztpkrssqxql7x",446,"144.csv","","null","resources/maskTrios/L1BB.jpg","null","",NA,NA,NA,NA,""
"image-keyboard-response",313,219595,"0.0-3.100-2.100","1qztpkrssqxql7x",446,"144.csv","","null","resources/images/fishbone.png","null","",NA,NA,NA,NA,""
"image-keyboard-response",314,219730,"0.0-3.101-0.101","1qztpkrssqxql7x",446,"144.csv","","132.59999999403954","resources/trios/L2T1A3.jpg","38","restless",0.7,0.8,0.4,0.427863176416483,"true"
"image-keyboard-response",315,220137,"0.0-3.101-1.101","1qztpkrssqxql7x",446,"144.csv","","null","resources/maskTrios/BT1B.jpg","null","",NA,NA,NA,NA,""
"image-keyboard-response",316,221341,"0.0-3.101-2.101","1qztpkrssqxql7x",446,"144.csv","","null","resources/images/coin2.png","null","",NA,NA,NA,NA,""
"image-keyboard-response",317,221545,"0.0-3.102-0.102","1qztpkrssqxql7x",446,"144.csv","","202.90000000596046","resources/trios/L2T1A2.jpg","37","restless",0.7,0.8,0.4,0.499886744983492,"true"
"image-keyboard-response",318,221949,"0.0-3.102-1.102","1qztpkrssqxql7x",446,"144.csv","","null","resources/maskTrios/L2BB.jpg","null","",NA,NA,NA,NA,""
"image-keyboard-response",319,223156,"0.0-3.102-2.102","1qztpkrssqxql7x",446,"144.csv","","null","resources/images/coin2.png","null","",NA,NA,NA,NA,""
"image-keyboard-response",320,223227,"0.0-3.103-0.103","1qztpkrssqxql7x",446,"144.csv","","69.19999998807907","resources/trios/L2T1A3.jpg","39","restless",0.7,0.8,0.4,0.180824348792665,"true"
"image-keyboard-response",321,223630,"0.0-3.103-1.103","1qztpkrssqxql7x",446,"144.csv","","null","resources/maskTrios/BBA3.jpg","null","",NA,NA,NA,NA,""
"image-keyboard-response",322,224832,"0.0-3.103-2.103","1qztpkrssqxql7x",446,"144.csv","","null","resources/images/coin2.png","null","",NA,NA,NA,NA,""
"image-keyboard-response",323,224949,"0.0-3.104-0.104","1qztpkrssqxql7x",446,"144.csv","","115.7000000178814","resources/trios/L1T4A3.jpg","38","restless",0.7,0.8,0.4,0.346138166924695,"true"
"image-keyboard-response",324,225352,"0.0-3.104-1.104","1qztpkrssqxql7x",446,"144.csv","","null","resources/maskTrios/BT4B.jpg","null","",NA,NA,NA,NA,""
"image-keyboard-response",325,226558,"0.0-3.104-2.104","1qztpkrssqxql7x",446,"144.csv","","null","resources/images/coin2.png","null","",NA,NA,NA,NA,""
"image-keyboard-response",326,226642,"0.0-3.105-0.105","1qztpkrssqxql7x",446,"144.csv","","81.2999999821186","resources/trios/L1T4A3.jpg","37","restless",0.7,0.8,0.4,0.371582995722181,"true"
"image-keyboard-response",327,227044,"0.0-3.105-1.105","1qztpkrssqxql7x",446,"144.csv","","null","resources/maskTrios/L1BB.jpg","null","",NA,NA,NA,NA,""
"image-keyboard-response",328,228247,"0.0-3.105-2.105","1qztpkrssqxql7x",446,"144.csv","","null","resources/images/coin2.png","null","",NA,NA,NA,NA,""
"image-keyboard-response",329,228367,"0.0-3.106-0.106","1qztpkrssqxql7x",446,"144.csv","","118","resources/trios/L2T1A3.jpg","39","restless",0.7,0.9,0.4,0.242050616417806,"true"
"image-keyboard-response",330,228771,"0.0-3.106-1.106","1qztpkrssqxql7x",446,"144.csv","","null","resources/maskTrios/BBA3.jpg","null","",NA,NA,NA,NA,""
"image-keyboard-response",331,229974,"0.0-3.106-2.106","1qztpkrssqxql7x",446,"144.csv","","null","resources/images/coin2.png","null","",NA,NA,NA,NA,""
"image-keyboard-response",332,230084,"0.0-3.107-0.107","1qztpkrssqxql7x",446,"144.csv","","108.5","resources/trios/L1T1A3.jpg","37","restless",0.7,0.9,0.4,0.584578976898397,"true"
"image-keyboard-response",333,230487,"0.0-3.107-1.107","1qztpkrssqxql7x",446,"144.csv","","null","resources/maskTrios/L1BB.jpg","null","",NA,NA,NA,NA,""
"image-keyboard-response",334,231693,"0.0-3.107-2.107","1qztpkrssqxql7x",446,"144.csv","","null","resources/images/coin2.png","null","",NA,NA,NA,NA,""
"image-keyboard-response",335,231882,"0.0-3.108-0.108","1qztpkrssqxql7x",446,"144.csv","","186.69999998807907","resources/trios/L2T1A2.jpg","39","restless",0.7,0.9,0.4,0.0886035513021486,"true"
"image-keyboard-response",336,232285,"0.0-3.108-1.108","1qztpkrssqxql7x",446,"144.csv","","null","resources/maskTrios/BBA2.jpg","null","",NA,NA,NA,NA,""
"image-keyboard-response",337,233488,"0.0-3.108-2.108","1qztpkrssqxql7x",446,"144.csv","","null","resources/images/coin2.png","null","",NA,NA,NA,NA,""
"image-keyboard-response",338,233656,"0.0-3.109-0.109","1qztpkrssqxql7x",446,"144.csv","","166.40000000596046","resources/trios/L1T4A3.jpg","38","restless",0.7,0.9,0.4,0.990552292232985,"false"
"image-keyboard-response",339,234061,"0.0-3.109-1.109","1qztpkrssqxql7x",446,"144.csv","","null","resources/maskTrios/BT4B.jpg","null","",NA,NA,NA,NA,""
"image-keyboard-response",340,235266,"0.0-3.109-2.109","1qztpkrssqxql7x",446,"144.csv","","null","resources/images/fishbone.png","null","",NA,NA,NA,NA,""
"image-keyboard-response",341,235457,"0.0-3.110-0.110","1qztpkrssqxql7x",446,"144.csv","","189.30000001192093","resources/trios/L2T4A3.jpg","37","restless",0.7,0.9,0.4,0.811972584345385,"false"
"image-keyboard-response",342,235864,"0.0-3.110-1.110","1qztpkrssqxql7x",446,"144.csv","","null","resources/maskTrios/L2BB.jpg","null","",NA,NA,NA,NA,""
"image-keyboard-response",343,237068,"0.0-3.110-2.110","1qztpkrssqxql7x",446,"144.csv","","null","resources/images/fishbone.png","null","",NA,NA,NA,NA,""
"image-keyboard-response",344,237269,"0.0-3.111-0.111","1qztpkrssqxql7x",446,"144.csv","","199.10000002384186","resources/trios/L1T4A3.jpg","37","restless",0.7,0.9,0.4,0.637492353145381,"true"
"image-keyboard-response",345,237671,"0.0-3.111-1.111","1qztpkrssqxql7x",446,"144.csv","","null","resources/maskTrios/L1BB.jpg","null","",NA,NA,NA,NA,""
"image-keyboard-response",346,238878,"0.0-3.111-2.111","1qztpkrssqxql7x",446,"144.csv","","null","resources/images/coin2.png","null","",NA,NA,NA,NA,""
"image-keyboard-response",347,239033,"0.0-3.112-0.112","1qztpkrssqxql7x",446,"144.csv","","153.89999997615814","resources/trios/L2T1A3.jpg","39","restless",0.7,0.9,0.4,0.965919798765329,"false"
"image-keyboard-response",348,239435,"0.0-3.112-1.112","1qztpkrssqxql7x",446,"144.csv","","null","resources/maskTrios/BBA3.jpg","null","",NA,NA,NA,NA,""
"image-keyboard-response",349,240638,"0.0-3.112-2.112","1qztpkrssqxql7x",446,"144.csv","","null","resources/images/fishbone.png","null","",NA,NA,NA,NA,""
"image-keyboard-response",350,240658,"0.0-3.113-0.113","1qztpkrssqxql7x",446,"144.csv","","19.200000017881393","resources/trios/L2T1A3.jpg","37","restless",0.7,0.9,0.4,0.0534390488005976,"true"
"image-keyboard-response",351,241065,"0.0-3.113-1.113","1qztpkrssqxql7x",446,"144.csv","","null","resources/maskTrios/L2BB.jpg","null","",NA,NA,NA,NA,""
"image-keyboard-response",352,242268,"0.0-3.113-2.113","1qztpkrssqxql7x",446,"144.csv","","null","resources/images/coin2.png","null","",NA,NA,NA,NA,""
"image-keyboard-response",353,242480,"0.0-3.114-0.114","1qztpkrssqxql7x",446,"144.csv","","210.19999998807907","resources/trios/L2T1A3.jpg","37","restless",0.7,0.9,0.4,0.655959534396982,"true"
"image-keyboard-response",354,242885,"0.0-3.114-1.114","1qztpkrssqxql7x",446,"144.csv","","null","resources/maskTrios/L2BB.jpg","null","",NA,NA,NA,NA,""
"image-keyboard-response",355,244092,"0.0-3.114-2.114","1qztpkrssqxql7x",446,"144.csv","","null","resources/images/coin2.png","null","",NA,NA,NA,NA,""
"image-keyboard-response",356,244235,"0.0-3.115-0.115","1qztpkrssqxql7x",446,"144.csv","","140.69999998807907","resources/trios/L2T1A3.jpg","37","restless",0.7,0.9,0.4,0.0806088968412619,"true"
"image-keyboard-response",357,244641,"0.0-3.115-1.115","1qztpkrssqxql7x",446,"144.csv","","null","resources/maskTrios/L2BB.jpg","null","",NA,NA,NA,NA,""
"image-keyboard-response",358,245843,"0.0-3.115-2.115","1qztpkrssqxql7x",446,"144.csv","","null","resources/images/coin2.png","null","",NA,NA,NA,NA,""
"image-keyboard-response",359,245928,"0.0-3.116-0.116","1qztpkrssqxql7x",446,"144.csv","","82.90000000596046","resources/trios/L1T1A3.jpg","37","restless",0.7,0.9,0.4,0.922389998843049,"false"
"image-keyboard-response",360,246331,"0.0-3.116-1.116","1qztpkrssqxql7x",446,"144.csv","","null","resources/maskTrios/L1BB.jpg","null","",NA,NA,NA,NA,""
"image-keyboard-response",361,247534,"0.0-3.116-2.116","1qztpkrssqxql7x",446,"144.csv","","null","resources/images/fishbone.png","null","",NA,NA,NA,NA,""
"image-keyboard-response",362,247719,"0.0-3.117-0.117","1qztpkrssqxql7x",446,"144.csv","","184.2999999821186","resources/trios/L1T4A2.jpg","38","restless",0.7,0.9,0.4,0.126278745368187,"true"
"image-keyboard-response",363,248123,"0.0-3.117-1.117","1qztpkrssqxql7x",446,"144.csv","","null","resources/maskTrios/BT4B.jpg","null","",NA,NA,NA,NA,""
"image-keyboard-response",364,249327,"0.0-3.117-2.117","1qztpkrssqxql7x",446,"144.csv","","null","resources/images/coin2.png","null","",NA,NA,NA,NA,""
"image-keyboard-response",365,249416,"0.0-3.118-0.118","1qztpkrssqxql7x",446,"144.csv","","86.59999999403954","resources/trios/L2T1A3.jpg","39","restless",0.7,0.9,0.3,0.184636813967936,"true"
"image-keyboard-response",366,249822,"0.0-3.118-1.118","1qztpkrssqxql7x",446,"144.csv","","null","resources/maskTrios/BBA3.jpg","null","",NA,NA,NA,NA,""
"image-keyboard-response",367,251026,"0.0-3.118-2.118","1qztpkrssqxql7x",446,"144.csv","","null","resources/images/coin2.png","null","",NA,NA,NA,NA,""
"image-keyboard-response",368,251165,"0.0-3.119-0.119","1qztpkrssqxql7x",446,"144.csv","","136.7000000178814","resources/trios/L1T1A3.jpg","37","restless",0.7,0.9,0.3,0.270210762221684,"true"
"image-keyboard-response",369,251569,"0.0-3.119-1.119","1qztpkrssqxql7x",446,"144.csv","","null","resources/maskTrios/L1BB.jpg","null","",NA,NA,NA,NA,""
"image-keyboard-response",370,252775,"0.0-3.119-2.119","1qztpkrssqxql7x",446,"144.csv","","null","resources/images/coin2.png","null","",NA,NA,NA,NA,""
"image-keyboard-response",371,252944,"0.0-3.120-0.120","1qztpkrssqxql7x",446,"144.csv","","166.09999999403954","resources/trios/L2T4A2.jpg","38","restless",0.7,0.9,0.3,0.08884870690455,"true"
"image-keyboard-response",372,253350,"0.0-3.120-1.120","1qztpkrssqxql7x",446,"144.csv","","null","resources/maskTrios/BT4B.jpg","null","",NA,NA,NA,NA,""
"image-keyboard-response",373,254554,"0.0-3.120-2.120","1qztpkrssqxql7x",446,"144.csv","","null","resources/images/coin2.png","null","",NA,NA,NA,NA,""
"image-keyboard-response",374,254647,"0.0-3.121-0.121","1qztpkrssqxql7x",446,"144.csv","","91.5","resources/trios/L2T1A3.jpg","39","restless",0.6,0.9,0.3,0.0350411962646362,"true"
"image-keyboard-response",375,255052,"0.0-3.121-1.121","1qztpkrssqxql7x",446,"144.csv","","null","resources/maskTrios/BBA3.jpg","null","",NA,NA,NA,NA,""
"image-keyboard-response",376,256254,"0.0-3.121-2.121","1qztpkrssqxql7x",446,"144.csv","","null","resources/images/coin2.png","null","",NA,NA,NA,NA,""
"image-keyboard-response",377,256467,"0.0-3.122-0.122","1qztpkrssqxql7x",446,"144.csv","","210.7000000178814","resources/trios/L1T4A2.jpg","37","restless",0.6,0.9,0.4,0.403524442259225,"true"
"image-keyboard-response",378,256869,"0.0-3.122-1.122","1qztpkrssqxql7x",446,"144.csv","","null","resources/maskTrios/L1BB.jpg","null","",NA,NA,NA,NA,""
"image-keyboard-response",379,258075,"0.0-3.122-2.122","1qztpkrssqxql7x",446,"144.csv","","null","resources/images/coin2.png","null","",NA,NA,NA,NA,""
"image-keyboard-response",380,258240,"0.0-3.123-0.123","1qztpkrssqxql7x",446,"144.csv","","163","resources/trios/L1T1A2.jpg","38","restless",0.6,0.9,0.4,0.880770678367746,"true"
"image-keyboard-response",381,258647,"0.0-3.123-1.123","1qztpkrssqxql7x",446,"144.csv","","null","resources/maskTrios/BT1B.jpg","null","",NA,NA,NA,NA,""
"image-keyboard-response",382,259852,"0.0-3.123-2.123","1qztpkrssqxql7x",446,"144.csv","","null","resources/images/coin2.png","null","",NA,NA,NA,NA,""
"image-keyboard-response",383,259892,"0.0-3.124-0.124","1qztpkrssqxql7x",446,"144.csv","","38.70000001788139","resources/trios/L2T4A3.jpg","37","restless",0.6,0.9,0.4,0.232807429327759,"true"
"image-keyboard-response",384,260297,"0.0-3.124-1.124","1qztpkrssqxql7x",446,"144.csv","","null","resources/maskTrios/L2BB.jpg","null","",NA,NA,NA,NA,""
"image-keyboard-response",385,261499,"0.0-3.124-2.124","1qztpkrssqxql7x",446,"144.csv","","null","resources/images/coin2.png","null","",NA,NA,NA,NA,""
"image-keyboard-response",386,261577,"0.0-3.125-0.125","1qztpkrssqxql7x",446,"144.csv","","76.90000000596046","resources/trios/L1T1A2.jpg","38","restless",0.6,0.9,0.4,0.37758448375521,"true"
"image-keyboard-response",387,261980,"0.0-3.125-1.125","1qztpkrssqxql7x",446,"144.csv","","null","resources/maskTrios/BT1B.jpg","null","",NA,NA,NA,NA,""
"image-keyboard-response",388,263185,"0.0-3.125-2.125","1qztpkrssqxql7x",446,"144.csv","","null","resources/images/coin2.png","null","",NA,NA,NA,NA,""
"image-keyboard-response",389,263354,"0.0-3.126-0.126","1qztpkrssqxql7x",446,"144.csv","","166.5","resources/trios/L2T1A2.jpg","37","restless",0.5,0.8,0.4,0.0359192594863287,"true"
"image-keyboard-response",390,263758,"0.0-3.126-1.126","1qztpkrssqxql7x",446,"144.csv","","null","resources/maskTrios/L2BB.jpg","null","",NA,NA,NA,NA,""
"image-keyboard-response",391,264965,"0.0-3.126-2.126","1qztpkrssqxql7x",446,"144.csv","","null","resources/images/coin2.png","null","",NA,NA,NA,NA,""
"image-keyboard-response",392,264971,"0.0-3.127-0.127","1qztpkrssqxql7x",446,"144.csv","","3.9000000059604645","resources/trios/L1T1A3.jpg","39","restless",0.5,0.8,0.4,0.209081587202921,"true"
"image-keyboard-response",393,265374,"0.0-3.127-1.127","1qztpkrssqxql7x",446,"144.csv","","null","resources/maskTrios/BBA3.jpg","null","",NA,NA,NA,NA,""
"image-keyboard-response",394,266580,"0.0-3.127-2.127","1qztpkrssqxql7x",446,"144.csv","","null","resources/images/coin2.png","null","",NA,NA,NA,NA,""
"image-keyboard-response",395,266581,"0.0-3.128-0.128","1qztpkrssqxql7x",446,"144.csv","","0.09999999403953552","resources/trios/L2T4A3.jpg","37","restless",0.5,0.8,0.5,0.935874143448797,"false"
"image-keyboard-response",396,266985,"0.0-3.128-1.128","1qztpkrssqxql7x",446,"144.csv","","null","resources/maskTrios/L2BB.jpg","null","",NA,NA,NA,NA,""
"image-keyboard-response",397,268187,"0.0-3.128-2.128","1qztpkrssqxql7x",446,"144.csv","","null","resources/images/fishbone.png","null","",NA,NA,NA,NA,""
"image-keyboard-response",398,268344,"0.0-3.129-0.129","1qztpkrssqxql7x",446,"144.csv","","154.7999999821186","resources/trios/L1T1A3.jpg","38","restless",0.4,0.8,0.5,0.444436525831906,"true"
"image-keyboard-response",399,268748,"0.0-3.129-1.129","1qztpkrssqxql7x",446,"144.csv","","null","resources/maskTrios/BT1B.jpg","null","",NA,NA,NA,NA,""
"image-keyboard-response",400,269952,"0.0-3.129-2.129","1qztpkrssqxql7x",446,"144.csv","","null","resources/images/coin2.png","null","",NA,NA,NA,NA,""
"image-keyboard-response",401,270015,"0.0-3.130-0.130","1qztpkrssqxql7x",446,"144.csv","","61.79999998211861","resources/trios/L2T4A3.jpg","39","restless",0.4,0.8,0.5,0.300681431923173,"true"
"image-keyboard-response",402,270418,"0.0-3.130-1.130","1qztpkrssqxql7x",446,"144.csv","","null","resources/maskTrios/BBA3.jpg","null","",NA,NA,NA,NA,""
"image-keyboard-response",403,271625,"0.0-3.130-2.130","1qztpkrssqxql7x",446,"144.csv","","null","resources/images/coin2.png","null","",NA,NA,NA,NA,""
"image-keyboard-response",404,271820,"0.0-3.131-0.131","1qztpkrssqxql7x",446,"144.csv","","192.60000002384186","resources/trios/L2T1A2.jpg","38","restless",0.4,0.8,0.5,0.584065342233219,"true"
"image-keyboard-response",405,272226,"0.0-3.131-1.131","1qztpkrssqxql7x",446,"144.csv","","null","resources/maskTrios/BT1B.jpg","null","",NA,NA,NA,NA,""
"image-keyboard-response",406,273428,"0.0-3.131-2.131","1qztpkrssqxql7x",446,"144.csv","","null","resources/images/coin2.png","null","",NA,NA,NA,NA,""
"image-keyboard-response",407,273537,"0.0-3.132-0.132","1qztpkrssqxql7x",446,"144.csv","","107","resources/trios/L2T1A3.jpg","39","restless",0.3,0.8,0.6,0.52560552986753,"true"
"image-keyboard-response",408,273944,"0.0-3.132-1.132","1qztpkrssqxql7x",446,"144.csv","","null","resources/maskTrios/BBA3.jpg","null","",NA,NA,NA,NA,""
"image-keyboard-response",409,275149,"0.0-3.132-2.132","1qztpkrssqxql7x",446,"144.csv","","null","resources/images/coin2.png","null","",NA,NA,NA,NA,""
"image-keyboard-response",410,275347,"0.0-3.133-0.133","1qztpkrssqxql7x",446,"144.csv","","196.69999998807907","resources/trios/L2T1A2.jpg","37","restless",0.4,0.8,0.6,0.696832758293714,"false"
"image-keyboard-response",411,275749,"0.0-3.133-1.133","1qztpkrssqxql7x",446,"144.csv","","null","resources/maskTrios/L2BB.jpg","null","",NA,NA,NA,NA,""
"image-keyboard-response",412,276954,"0.0-3.133-2.133","1qztpkrssqxql7x",446,"144.csv","","null","resources/images/fishbone.png","null","",NA,NA,NA,NA,""
"image-keyboard-response",413,277139,"0.0-3.134-0.134","1qztpkrssqxql7x",446,"144.csv","","182.7000000178814","resources/trios/L1T4A3.jpg","38","restless",0.4,0.8,0.6,0.156436634756813,"true"
"image-keyboard-response",414,277546,"0.0-3.134-1.134","1qztpkrssqxql7x",446,"144.csv","","null","resources/maskTrios/BT4B.jpg","null","",NA,NA,NA,NA,""
"image-keyboard-response",415,278749,"0.0-3.134-2.134","1qztpkrssqxql7x",446,"144.csv","","null","resources/images/coin2.png","null","",NA,NA,NA,NA,""
"image-keyboard-response",416,278767,"0.0-3.135-0.135","1qztpkrssqxql7x",446,"144.csv","","16.600000023841858","resources/trios/L1T1A2.jpg","37","restless",0.4,0.7,0.6,0.0728699272846496,"true"
"image-keyboard-response",417,279171,"0.0-3.135-1.135","1qztpkrssqxql7x",446,"144.csv","","null","resources/maskTrios/L1BB.jpg","null","",NA,NA,NA,NA,""
"image-keyboard-response",418,280376,"0.0-3.135-2.135","1qztpkrssqxql7x",446,"144.csv","","null","resources/images/coin2.png","null","",NA,NA,NA,NA,""
"image-keyboard-response",419,280468,"0.0-3.136-0.136","1qztpkrssqxql7x",446,"144.csv","","90","resources/trios/L2T1A2.jpg","38","restless",0.4,0.7,0.7,0.268241123244013,"true"
"image-keyboard-response",420,280875,"0.0-3.136-1.136","1qztpkrssqxql7x",446,"144.csv","","null","resources/maskTrios/BT1B.jpg","null","",NA,NA,NA,NA,""
"image-keyboard-response",421,282082,"0.0-3.136-2.136","1qztpkrssqxql7x",446,"144.csv","","null","resources/images/coin2.png","null","",NA,NA,NA,NA,""
"image-keyboard-response",422,282246,"0.0-3.137-0.137","1qztpkrssqxql7x",446,"144.csv","","162.30000001192093","resources/trios/L1T4A2.jpg","37","restless",0.4,0.7,0.7,0.608279815808676,"false"
"image-keyboard-response",423,282651,"0.0-3.137-1.137","1qztpkrssqxql7x",446,"144.csv","","null","resources/maskTrios/L1BB.jpg","null","",NA,NA,NA,NA,""
"image-keyboard-response",424,283856,"0.0-3.137-2.137","1qztpkrssqxql7x",446,"144.csv","","null","resources/images/fishbone.png","null","",NA,NA,NA,NA,""
"image-keyboard-response",425,284008,"0.0-3.138-0.138","1qztpkrssqxql7x",446,"144.csv","","149.7000000178814","resources/trios/L2T1A2.jpg","38","restless",0.4,0.7,0.7,0.84994657373979,"false"
"image-keyboard-response",426,284412,"0.0-3.138-1.138","1qztpkrssqxql7x",446,"144.csv","","null","resources/maskTrios/BT1B.jpg","null","",NA,NA,NA,NA,""
"image-keyboard-response",427,285619,"0.0-3.138-2.138","1qztpkrssqxql7x",446,"144.csv","","null","resources/images/fishbone.png","null","",NA,NA,NA,NA,""
"image-keyboard-response",428,285667,"0.0-3.139-0.139","1qztpkrssqxql7x",446,"144.csv","","46","resources/trios/L1T1A3.jpg","39","restless",0.4,0.7,0.7,0.304715015894999,"true"
"image-keyboard-response",429,286068,"0.0-3.139-1.139","1qztpkrssqxql7x",446,"144.csv","","null","resources/maskTrios/BBA3.jpg","null","",NA,NA,NA,NA,""
"image-keyboard-response",430,287275,"0.0-3.139-2.139","1qztpkrssqxql7x",446,"144.csv","","null","resources/images/coin2.png","null","",NA,NA,NA,NA,""
"image-keyboard-response",431,287479,"0.0-3.140-0.140","1qztpkrssqxql7x",446,"144.csv","","202.2999999821186","resources/trios/L1T4A3.jpg","37","restless",0.4,0.7,0.6,0.554904919206259,"false"
"image-keyboard-response",432,287885,"0.0-3.140-1.140","1qztpkrssqxql7x",446,"144.csv","","null","resources/maskTrios/L1BB.jpg","null","",NA,NA,NA,NA,""
"image-keyboard-response",433,289092,"0.0-3.140-2.140","1qztpkrssqxql7x",446,"144.csv","","null","resources/images/fishbone.png","null","",NA,NA,NA,NA,""
"image-keyboard-response",434,289128,"0.0-3.141-0.141","1qztpkrssqxql7x",446,"144.csv","","33.70000001788139","resources/trios/L1T1A2.jpg","37","restless",0.4,0.7,0.6,0.0931873186725614,"true"
"image-keyboard-response",435,289534,"0.0-3.141-1.141","1qztpkrssqxql7x",446,"144.csv","","null","resources/maskTrios/L1BB.jpg","null","",NA,NA,NA,NA,""
"image-keyboard-response",436,290741,"0.0-3.141-2.141","1qztpkrssqxql7x",446,"144.csv","","null","resources/images/coin2.png","null","",NA,NA,NA,NA,""
"image-keyboard-response",437,290798,"0.0-3.142-0.142","1qztpkrssqxql7x",446,"144.csv","","55","resources/trios/L2T1A2.jpg","39","restless",0.4,0.7,0.6,0.73564902610263,"false"
"image-keyboard-response",438,291200,"0.0-3.142-1.142","1qztpkrssqxql7x",446,"144.csv","","null","resources/maskTrios/BBA2.jpg","null","",NA,NA,NA,NA,""
"image-keyboard-response",439,292402,"0.0-3.142-2.142","1qztpkrssqxql7x",446,"144.csv","","null","resources/images/fishbone.png","null","",NA,NA,NA,NA,""
"image-keyboard-response",440,292460,"0.0-3.143-0.143","1qztpkrssqxql7x",446,"144.csv","","55.80000001192093","resources/trios/L1T4A3.jpg","38","restless",0.4,0.7,0.6,0.91964928235702,"false"
"image-keyboard-response",441,292865,"0.0-3.143-1.143","1qztpkrssqxql7x",446,"144.csv","","null","resources/maskTrios/BT4B.jpg","null","",NA,NA,NA,NA,""
"image-keyboard-response",442,294068,"0.0-3.143-2.143","1qztpkrssqxql7x",446,"144.csv","","null","resources/images/fishbone.png","null","",NA,NA,NA,NA,""
"image-keyboard-response",443,294151,"0.0-3.144-0.144","1qztpkrssqxql7x",446,"144.csv","","81.39999997615814","resources/trios/L1T1A2.jpg","37","restless",0.4,0.7,0.6,0.611799609318294,"false"
"image-keyboard-response",444,294558,"0.0-3.144-1.144","1qztpkrssqxql7x",446,"144.csv","","null","resources/maskTrios/L1BB.jpg","null","",NA,NA,NA,NA,""
"image-keyboard-response",445,295762,"0.0-3.144-2.144","1qztpkrssqxql7x",446,"144.csv","","null","resources/images/fishbone.png","null","",NA,NA,NA,NA,""
"image-keyboard-response",446,295887,"0.0-3.145-0.145","1qztpkrssqxql7x",446,"144.csv","","123","resources/trios/L2T4A3.jpg","37","restless",0.4,0.7,0.6,0.271025330137452,"true"
"image-keyboard-response",447,296293,"0.0-3.145-1.145","1qztpkrssqxql7x",446,"144.csv","","null","resources/maskTrios/L2BB.jpg","null","",NA,NA,NA,NA,""
"image-keyboard-response",448,297495,"0.0-3.145-2.145","1qztpkrssqxql7x",446,"144.csv","","null","resources/images/coin2.png","null","",NA,NA,NA,NA,""
"image-keyboard-response",449,297611,"0.0-3.146-0.146","1qztpkrssqxql7x",446,"144.csv","","114.59999999403954","resources/trios/L2T1A3.jpg","38","restless",0.4,0.7,0.6,0.690158754448002,"true"
"image-keyboard-response",450,298016,"0.0-3.146-1.146","1qztpkrssqxql7x",446,"144.csv","","null","resources/maskTrios/BT1B.jpg","null","",NA,NA,NA,NA,""
"image-keyboard-response",451,299223,"0.0-3.146-2.146","1qztpkrssqxql7x",446,"144.csv","","null","resources/images/coin2.png","null","",NA,NA,NA,NA,""
"image-keyboard-response",452,299379,"0.0-3.147-0.147","1qztpkrssqxql7x",446,"144.csv","","153.7999999821186","resources/trios/L1T1A3.jpg","37","restless",0.5,0.7,0.6,0.985009551667835,"false"
"image-keyboard-response",453,299781,"0.0-3.147-1.147","1qztpkrssqxql7x",446,"144.csv","","null","resources/maskTrios/L1BB.jpg","null","",NA,NA,NA,NA,""
"image-keyboard-response",454,300985,"0.0-3.147-2.147","1qztpkrssqxql7x",446,"144.csv","","null","resources/images/fishbone.png","null","",NA,NA,NA,NA,""
"image-keyboard-response",455,301059,"0.0-3.148-0.148","1qztpkrssqxql7x",446,"144.csv","","72.30000001192093","resources/trios/L1T4A2.jpg","37","restless",0.5,0.7,0.6,0.328301640844366,"true"
"image-keyboard-response",456,301461,"0.0-3.148-1.148","1qztpkrssqxql7x",446,"144.csv","","null","resources/maskTrios/L1BB.jpg","null","",NA,NA,NA,NA,""
"image-keyboard-response",457,302665,"0.0-3.148-2.148","1qztpkrssqxql7x",446,"144.csv","","null","resources/images/coin2.png","null","",NA,NA,NA,NA,""
"image-keyboard-response",458,302824,"0.0-3.149-0.149","1qztpkrssqxql7x",446,"144.csv","","156.60000002384186","resources/trios/L2T4A3.jpg","39","restless",0.5,0.7,0.6,0.251815509667466,"true"
"image-keyboard-response",459,303227,"0.0-3.149-1.149","1qztpkrssqxql7x",446,"144.csv","","null","resources/maskTrios/BBA3.jpg","null","",NA,NA,NA,NA,""
"image-keyboard-response",460,304430,"0.0-3.149-2.149","1qztpkrssqxql7x",446,"144.csv","","null","resources/images/coin2.png","null","",NA,NA,NA,NA,""
"image-keyboard-response",461,304459,"0.0-3.150-0.150","1qztpkrssqxql7x",446,"144.csv","","26.5","resources/trios/L2T4A3.jpg","37","restless",0.5,0.7,0.6,0.302965705928869,"true"
"image-keyboard-response",462,304862,"0.0-3.150-1.150","1qztpkrssqxql7x",446,"144.csv","","null","resources/maskTrios/L2BB.jpg","null","",NA,NA,NA,NA,""
"image-keyboard-response",463,306065,"0.0-3.150-2.150","1qztpkrssqxql7x",446,"144.csv","","null","resources/images/coin2.png","null","",NA,NA,NA,NA,""
"image-keyboard-response",464,306125,"0.0-3.151-0.151","1qztpkrssqxql7x",446,"144.csv","","57.20000001788139","resources/trios/L2T1A3.jpg","37","restless",0.5,0.7,0.6,0.125252801489338,"true"
"image-keyboard-response",465,306527,"0.0-3.151-1.151","1qztpkrssqxql7x",446,"144.csv","","null","resources/maskTrios/L2BB.jpg","null","",NA,NA,NA,NA,""
"image-keyboard-response",466,307733,"0.0-3.151-2.151","1qztpkrssqxql7x",446,"144.csv","","null","resources/images/coin2.png","null","",NA,NA,NA,NA,""
"image-keyboard-response",467,307934,"0.0-3.152-0.152","1qztpkrssqxql7x",446,"144.csv","","198.69999998807907","resources/trios/L1T1A3.jpg","38","restless",0.5,0.7,0.6,0.536193125264171,"true"
"image-keyboard-response",468,308340,"0.0-3.152-1.152","1qztpkrssqxql7x",446,"144.csv","","null","resources/maskTrios/BT1B.jpg","null","",NA,NA,NA,NA,""
"image-keyboard-response",469,309543,"0.0-3.152-2.152","1qztpkrssqxql7x",446,"144.csv","","null","resources/images/coin2.png","null","",NA,NA,NA,NA,""
"image-keyboard-response",470,309603,"0.0-3.153-0.153","1qztpkrssqxql7x",446,"144.csv","","58.599999994039536","resources/trios/L2T1A3.jpg","37","restless",0.5,0.7,0.6,0.639333234583351,"false"
"image-keyboard-response",471,310010,"0.0-3.153-1.153","1qztpkrssqxql7x",446,"144.csv","","null","resources/maskTrios/L2BB.jpg","null","",NA,NA,NA,NA,""
"image-keyboard-response",472,311214,"0.0-3.153-2.153","1qztpkrssqxql7x",446,"144.csv","","null","resources/images/fishbone.png","null","",NA,NA,NA,NA,""
"image-keyboard-response",473,311282,"0.0-3.154-0.154","1qztpkrssqxql7x",446,"144.csv","","65.80000001192093","resources/trios/L2T1A3.jpg","37","restless",0.5,0.7,0.6,0.469279539090342,"true"
"image-keyboard-response",474,311685,"0.0-3.154-1.154","1qztpkrssqxql7x",446,"144.csv","","null","resources/maskTrios/L2BB.jpg","null","",NA,NA,NA,NA,""
"image-keyboard-response",475,312888,"0.0-3.154-2.154","1qztpkrssqxql7x",446,"144.csv","","null","resources/images/coin2.png","null","",NA,NA,NA,NA,""
"image-keyboard-response",476,312950,"0.0-3.155-0.155","1qztpkrssqxql7x",446,"144.csv","","59.60000002384186","resources/trios/L2T4A2.jpg","37","restless",0.5,0.7,0.6,0.456590256116211,"true"
"image-keyboard-response",477,313357,"0.0-3.155-1.155","1qztpkrssqxql7x",446,"144.csv","","null","resources/maskTrios/L2BB.jpg","null","",NA,NA,NA,NA,""
"image-keyboard-response",478,314560,"0.0-3.155-2.155","1qztpkrssqxql7x",446,"144.csv","","null","resources/images/coin2.png","null","",NA,NA,NA,NA,""
"image-keyboard-response",479,314871,"0.0-3.156-0.156","1qztpkrssqxql7x",446,"144.csv","","309.10000002384186","resources/trios/L2T1A2.jpg","37","restless",0.5,0.6,0.6,0.812510524103655,"false"
"image-keyboard-response",480,315278,"0.0-3.156-1.156","1qztpkrssqxql7x",446,"144.csv","","null","resources/maskTrios/L2BB.jpg","null","",NA,NA,NA,NA,""
"image-keyboard-response",481,316481,"0.0-3.156-2.156","1qztpkrssqxql7x",446,"144.csv","","null","resources/images/fishbone.png","null","",NA,NA,NA,NA,""
"image-keyboard-response",482,316510,"0.0-3.157-0.157","1qztpkrssqxql7x",446,"144.csv","","27.200000017881393","resources/trios/L2T1A3.jpg","39","restless",0.5,0.6,0.6,0.326174420441271,"true"
"image-keyboard-response",483,316913,"0.0-3.157-1.157","1qztpkrssqxql7x",446,"144.csv","","null","resources/maskTrios/BBA3.jpg","null","",NA,NA,NA,NA,""
"image-keyboard-response",484,318115,"0.0-3.157-2.157","1qztpkrssqxql7x",446,"144.csv","","null","resources/images/coin2.png","null","",NA,NA,NA,NA,""
"image-keyboard-response",485,318196,"0.0-3.158-0.158","1qztpkrssqxql7x",446,"144.csv","","79.40000000596046","resources/trios/L2T1A3.jpg","38","restless",0.5,0.6,0.6,0.424197305617121,"true"
"image-keyboard-response",486,318602,"0.0-3.158-1.158","1qztpkrssqxql7x",446,"144.csv","","null","resources/maskTrios/BT1B.jpg","null","",NA,NA,NA,NA,""
"image-keyboard-response",487,319804,"0.0-3.158-2.158","1qztpkrssqxql7x",446,"144.csv","","null","resources/images/coin2.png","null","",NA,NA,NA,NA,""
"image-keyboard-response",488,319872,"0.0-3.159-0.159","1qztpkrssqxql7x",446,"144.csv","","66","resources/trios/L1T4A3.jpg","38","restless",0.5,0.6,0.6,0.314783596475007,"true"
"image-keyboard-response",489,320275,"0.0-3.159-1.159","1qztpkrssqxql7x",446,"144.csv","","null","resources/maskTrios/BT4B.jpg","null","",NA,NA,NA,NA,""
"image-keyboard-response",490,321477,"0.0-3.159-2.159","1qztpkrssqxql7x",446,"144.csv","","null","resources/images/coin2.png","null","",NA,NA,NA,NA,""
"image-keyboard-response",491,321511,"0.0-3.160-0.160","1qztpkrssqxql7x",446,"144.csv","","32.69999998807907","resources/trios/L1T1A3.jpg","38","restless",0.5,0.5,0.6,0.390664033508793,"true"
"image-keyboard-response",492,321914,"0.0-3.160-1.160","1qztpkrssqxql7x",446,"144.csv","","null","resources/maskTrios/BT1B.jpg","null","",NA,NA,NA,NA,""
"image-keyboard-response",493,323115,"0.0-3.160-2.160","1qztpkrssqxql7x",446,"144.csv","","null","resources/images/coin2.png","null","",NA,NA,NA,NA,""
"image-keyboard-response",494,323255,"0.0-3.161-0.161","1qztpkrssqxql7x",446,"144.csv","","137.80000001192093","resources/trios/L1T4A2.jpg","39","restless",0.5,0.5,0.5,0.718183383805102,"false"
"image-keyboard-response",495,323659,"0.0-3.161-1.161","1qztpkrssqxql7x",446,"144.csv","","null","resources/maskTrios/BBA2.jpg","null","",NA,NA,NA,NA,""
"image-keyboard-response",496,324866,"0.0-3.161-2.161","1qztpkrssqxql7x",446,"144.csv","","null","resources/images/fishbone.png","null","",NA,NA,NA,NA,""
"image-keyboard-response",497,324896,"0.0-3.162-0.162","1qztpkrssqxql7x",446,"144.csv","","28.099999994039536","resources/trios/L1T4A3.jpg","39","restless",0.5,0.5,0.5,0.389082044552201,"true"
"image-keyboard-response",498,325298,"0.0-3.162-1.162","1qztpkrssqxql7x",446,"144.csv","","null","resources/maskTrios/BBA3.jpg","null","",NA,NA,NA,NA,""
"image-keyboard-response",499,326502,"0.0-3.162-2.162","1qztpkrssqxql7x",446,"144.csv","","null","resources/images/coin2.png","null","",NA,NA,NA,NA,""
"image-keyboard-response",500,326518,"0.0-3.163-0.163","1qztpkrssqxql7x",446,"144.csv","","14.099999994039536","resources/trios/L2T1A3.jpg","37","restless",0.5,0.5,0.5,0.090898234614998,"true"
"image-keyboard-response",501,326919,"0.0-3.163-1.163","1qztpkrssqxql7x",446,"144.csv","","null","resources/maskTrios/L2BB.jpg","null","",NA,NA,NA,NA,""
"image-keyboard-response",502,328126,"0.0-3.163-2.163","1qztpkrssqxql7x",446,"144.csv","","null","resources/images/coin2.png","null","",NA,NA,NA,NA,""
"image-keyboard-response",503,328175,"0.0-3.164-0.164","1qztpkrssqxql7x",446,"144.csv","","47.69999998807907","resources/trios/L1T4A2.jpg","37","restless",0.5,0.5,0.5,0.34430354312346,"true"
"image-keyboard-response",504,328578,"0.0-3.164-1.164","1qztpkrssqxql7x",446,"144.csv","","null","resources/maskTrios/L1BB.jpg","null","",NA,NA,NA,NA,""
"image-keyboard-response",505,329780,"0.0-3.164-2.164","1qztpkrssqxql7x",446,"144.csv","","null","resources/images/coin2.png","null","",NA,NA,NA,NA,""
"image-keyboard-response",506,329791,"0.0-3.165-0.165","1qztpkrssqxql7x",446,"144.csv","","8.800000011920929","resources/trios/L1T4A2.jpg","39","restless",0.5,0.6,0.5,0.468142271063922,"true"
"image-keyboard-response",507,330197,"0.0-3.165-1.165","1qztpkrssqxql7x",446,"144.csv","","null","resources/maskTrios/BBA2.jpg","null","",NA,NA,NA,NA,""
"image-keyboard-response",508,331399,"0.0-3.165-2.165","1qztpkrssqxql7x",446,"144.csv","","null","resources/images/coin2.png","null","",NA,NA,NA,NA,""
"image-keyboard-response",509,331537,"0.0-3.166-0.166","1qztpkrssqxql7x",446,"144.csv","","135.80000001192093","resources/trios/L1T4A3.jpg","37","restless",0.5,0.5,0.5,0.67508444433102,"false"
"image-keyboard-response",510,331940,"0.0-3.166-1.166","1qztpkrssqxql7x",446,"144.csv","","null","resources/maskTrios/L1BB.jpg","null","",NA,NA,NA,NA,""
"image-keyboard-response",511,333143,"0.0-3.166-2.166","1qztpkrssqxql7x",446,"144.csv","","null","resources/images/fishbone.png","null","",NA,NA,NA,NA,""
"image-keyboard-response",512,333182,"0.0-3.167-0.167","1qztpkrssqxql7x",446,"144.csv","","36.69999998807907","resources/trios/L2T4A3.jpg","38","restless",0.5,0.5,0.5,0.936562044634284,"false"
"image-keyboard-response",513,333583,"0.0-3.167-1.167","1qztpkrssqxql7x",446,"144.csv","","null","resources/maskTrios/BT4B.jpg","null","",NA,NA,NA,NA,""
"image-keyboard-response",514,334786,"0.0-3.167-2.167","1qztpkrssqxql7x",446,"144.csv","","null","resources/images/fishbone.png","null","",NA,NA,NA,NA,""
"image-keyboard-response",515,334787,"0.0-3.168-0.168","1qztpkrssqxql7x",446,"144.csv","","0","resources/trios/L1T4A2.jpg","38","restless",0.5,0.5,0.5,0.153669462794512,"true"
"image-keyboard-response",516,335193,"0.0-3.168-1.168","1qztpkrssqxql7x",446,"144.csv","","null","resources/maskTrios/BT4B.jpg","null","",NA,NA,NA,NA,""
"image-keyboard-response",517,336399,"0.0-3.168-2.168","1qztpkrssqxql7x",446,"144.csv","","null","resources/images/coin2.png","null","",NA,NA,NA,NA,""
"image-keyboard-response",518,336503,"0.0-3.169-0.169","1qztpkrssqxql7x",446,"144.csv","","101.59999999403954","resources/trios/L2T4A2.jpg","38","restless",0.5,0.5,0.5,0.841565413213803,"false"
"image-keyboard-response",519,336909,"0.0-3.169-1.169","1qztpkrssqxql7x",446,"144.csv","","null","resources/maskTrios/BT4B.jpg","null","",NA,NA,NA,NA,""
"image-keyboard-response",520,338111,"0.0-3.169-2.169","1qztpkrssqxql7x",446,"144.csv","","null","resources/images/fishbone.png","null","",NA,NA,NA,NA,""
"image-keyboard-response",521,338313,"0.0-3.170-0.170","1qztpkrssqxql7x",446,"144.csv","","199.59999999403954","resources/trios/L2T4A3.jpg","38","restless",0.5,0.5,0.5,0.918275324255987,"false"
"image-keyboard-response",522,338718,"0.0-3.170-1.170","1qztpkrssqxql7x",446,"144.csv","","null","resources/maskTrios/BT4B.jpg","null","",NA,NA,NA,NA,""
"image-keyboard-response",523,339924,"0.0-3.170-2.170","1qztpkrssqxql7x",446,"144.csv","","null","resources/images/fishbone.png","null","",NA,NA,NA,NA,""
"image-keyboard-response",524,339931,"0.0-3.171-0.171","1qztpkrssqxql7x",446,"144.csv","","4.9000000059604645","resources/trios/L1T4A2.jpg","37","restless",0.5,0.5,0.5,0.857408529448592,"false"
"image-keyboard-response",525,340337,"0.0-3.171-1.171","1qztpkrssqxql7x",446,"144.csv","","null","resources/maskTrios/L1BB.jpg","null","",NA,NA,NA,NA,""
"image-keyboard-response",526,341544,"0.0-3.171-2.171","1qztpkrssqxql7x",446,"144.csv","","null","resources/images/fishbone.png","null","",NA,NA,NA,NA,""
"image-keyboard-response",527,341630,"0.0-3.172-0.172","1qztpkrssqxql7x",446,"144.csv","","83.5","resources/trios/L2T4A3.jpg","39","restless",0.5,0.5,0.5,0.180632409914028,"true"
"image-keyboard-response",528,342033,"0.0-3.172-1.172","1qztpkrssqxql7x",446,"144.csv","","null","resources/maskTrios/BBA3.jpg","null","",NA,NA,NA,NA,""
"image-keyboard-response",529,343235,"0.0-3.172-2.172","1qztpkrssqxql7x",446,"144.csv","","null","resources/images/coin2.png","null","",NA,NA,NA,NA,""
"image-keyboard-response",530,343386,"0.0-3.173-0.173","1qztpkrssqxql7x",446,"144.csv","","149.19999998807907","resources/trios/L2T4A2.jpg","37","restless",0.4,0.4,0.5,0.270247203829287,"true"
"image-keyboard-response",531,343790,"0.0-3.173-1.173","1qztpkrssqxql7x",446,"144.csv","","null","resources/maskTrios/L2BB.jpg","null","",NA,NA,NA,NA,""
"image-keyboard-response",532,344993,"0.0-3.173-2.173","1qztpkrssqxql7x",446,"144.csv","","null","resources/images/coin2.png","null","",NA,NA,NA,NA,""
"image-keyboard-response",533,345099,"0.0-3.174-0.174","1qztpkrssqxql7x",446,"144.csv","","104.40000000596046","resources/trios/L2T4A3.jpg","38","restless",0.3,0.4,0.5,0.853212120523459,"false"
"image-keyboard-response",534,345502,"0.0-3.174-1.174","1qztpkrssqxql7x",446,"144.csv","","null","resources/maskTrios/BT4B.jpg","null","",NA,NA,NA,NA,""
"image-keyboard-response",535,346709,"0.0-3.174-2.174","1qztpkrssqxql7x",446,"144.csv","","null","resources/images/fishbone.png","null","",NA,NA,NA,NA,""
"image-keyboard-response",536,346844,"0.0-3.175-0.175","1qztpkrssqxql7x",446,"144.csv","","133.2999999821186","resources/trios/L1T1A3.jpg","38","restless",0.3,0.5,0.5,0.956053912173799,"false"
"image-keyboard-response",537,347247,"0.0-3.175-1.175","1qztpkrssqxql7x",446,"144.csv","","null","resources/maskTrios/BT1B.jpg","null","",NA,NA,NA,NA,""
"image-keyboard-response",538,348452,"0.0-3.175-2.175","1qztpkrssqxql7x",446,"144.csv","","null","resources/images/fishbone.png","null","",NA,NA,NA,NA,""
"image-keyboard-response",539,348590,"0.0-3.176-0.176","1qztpkrssqxql7x",446,"144.csv","","136.69999998807907","resources/trios/L1T1A2.jpg","37","restless",0.3,0.5,0.5,0.53389014122056,"false"
"image-keyboard-response",540,348993,"0.0-3.176-1.176","1qztpkrssqxql7x",446,"144.csv","","null","resources/maskTrios/L1BB.jpg","null","",NA,NA,NA,NA,""
"image-keyboard-response",541,350198,"0.0-3.176-2.176","1qztpkrssqxql7x",446,"144.csv","","null","resources/images/fishbone.png","null","",NA,NA,NA,NA,""
"image-keyboard-response",542,350310,"0.0-3.177-0.177","1qztpkrssqxql7x",446,"144.csv","","109.59999999403954","resources/trios/L1T1A2.jpg","39","restless",0.3,0.5,0.5,0.867666738570152,"false"
"image-keyboard-response",543,350716,"0.0-3.177-1.177","1qztpkrssqxql7x",446,"144.csv","","null","resources/maskTrios/BBA2.jpg","null","",NA,NA,NA,NA,""
"image-keyboard-response",544,351918,"0.0-3.177-2.177","1qztpkrssqxql7x",446,"144.csv","","null","resources/images/fishbone.png","null","",NA,NA,NA,NA,""
"image-keyboard-response",545,351930,"0.0-3.178-0.178","1qztpkrssqxql7x",446,"144.csv","","9.5","resources/trios/L2T4A2.jpg","38","restless",0.3,0.5,0.5,0.888257212709229,"false"
"image-keyboard-response",546,352335,"0.0-3.178-1.178","1qztpkrssqxql7x",446,"144.csv","","null","resources/maskTrios/BT4B.jpg","null","",NA,NA,NA,NA,""
"image-keyboard-response",547,353540,"0.0-3.178-2.178","1qztpkrssqxql7x",446,"144.csv","","null","resources/images/fishbone.png","null","",NA,NA,NA,NA,""
"image-keyboard-response",548,353680,"0.0-3.179-0.179","1qztpkrssqxql7x",446,"144.csv","","137.2999999821186","resources/trios/L1T4A2.jpg","37","restless",0.3,0.5,0.5,0.746284771893803,"false"
"image-keyboard-response",549,354085,"0.0-3.179-1.179","1qztpkrssqxql7x",446,"144.csv","","null","resources/maskTrios/L1BB.jpg","null","",NA,NA,NA,NA,""
"image-keyboard-response",550,355287,"0.0-3.179-2.179","1qztpkrssqxql7x",446,"144.csv","","null","resources/images/fishbone.png","null","",NA,NA,NA,NA,""
"image-keyboard-response",551,355423,"0.0-3.180-0.180","1qztpkrssqxql7x",446,"144.csv","","133.90000000596046","resources/trios/L2T1A2.jpg","37","restless",0.3,0.5,0.5,0.109266077706199,"true"
"image-keyboard-response",552,355825,"0.0-3.180-1.180","1qztpkrssqxql7x",446,"144.csv","","null","resources/maskTrios/L2BB.jpg","null","",NA,NA,NA,NA,""
"image-keyboard-response",553,357028,"0.0-3.180-2.180","1qztpkrssqxql7x",446,"144.csv","","null","resources/images/coin2.png","null","",NA,NA,NA,NA,""
"image-keyboard-response",554,357063,"0.0-3.181-0.181","1qztpkrssqxql7x",446,"144.csv","","33.70000001788139","resources/trios/L2T4A2.jpg","37","restless",0.3,0.5,0.5,0.749230516217643,"false"
"image-keyboard-response",555,357466,"0.0-3.181-1.181","1qztpkrssqxql7x",446,"144.csv","","null","resources/maskTrios/L2BB.jpg","null","",NA,NA,NA,NA,""
"image-keyboard-response",556,358670,"0.0-3.181-2.181","1qztpkrssqxql7x",446,"144.csv","","null","resources/images/fishbone.png","null","",NA,NA,NA,NA,""
"image-keyboard-response",557,358741,"0.0-3.182-0.182","1qztpkrssqxql7x",446,"144.csv","","68.89999997615814","resources/trios/L2T1A3.jpg","37","restless",0.3,0.5,0.5,0.746125434839263,"false"
"image-keyboard-response",558,359145,"0.0-3.182-1.182","1qztpkrssqxql7x",446,"144.csv","","null","resources/maskTrios/L2BB.jpg","null","",NA,NA,NA,NA,""
"image-keyboard-response",559,360351,"0.0-3.182-2.182","1qztpkrssqxql7x",446,"144.csv","","null","resources/images/fishbone.png","null","",NA,NA,NA,NA,""
"image-keyboard-response",560,360402,"0.0-3.183-0.183","1qztpkrssqxql7x",446,"144.csv","","48.70000001788139","resources/trios/L1T4A2.jpg","37","restless",0.3,0.5,0.5,0.115637135599812,"true"
"image-keyboard-response",561,360809,"0.0-3.183-1.183","1qztpkrssqxql7x",446,"144.csv","","null","resources/maskTrios/L1BB.jpg","null","",NA,NA,NA,NA,""
"image-keyboard-response",562,362013,"0.0-3.183-2.183","1qztpkrssqxql7x",446,"144.csv","","null","resources/images/coin2.png","null","",NA,NA,NA,NA,""
"image-keyboard-response",563,362155,"0.0-3.184-0.184","1qztpkrssqxql7x",446,"144.csv","","140.5","resources/trios/L2T1A2.jpg","37","restless",0.3,0.5,0.4,0.31536742448752,"false"
"image-keyboard-response",564,362561,"0.0-3.184-1.184","1qztpkrssqxql7x",446,"144.csv","","null","resources/maskTrios/L2BB.jpg","null","",NA,NA,NA,NA,""
"image-keyboard-response",565,363764,"0.0-3.184-2.184","1qztpkrssqxql7x",446,"144.csv","","null","resources/images/fishbone.png","null","",NA,NA,NA,NA,""
"image-keyboard-response",566,363830,"0.0-3.185-0.185","1qztpkrssqxql7x",446,"144.csv","","63.30000001192093","resources/trios/L2T4A3.jpg","37","restless",0.3,0.6,0.4,0.47752818341516,"false"
"image-keyboard-response",567,364235,"0.0-3.185-1.185","1qztpkrssqxql7x",446,"144.csv","","null","resources/maskTrios/L2BB.jpg","null","",NA,NA,NA,NA,""
"image-keyboard-response",568,365436,"0.0-3.185-2.185","1qztpkrssqxql7x",446,"144.csv","","null","resources/images/fishbone.png","null","",NA,NA,NA,NA,""
"image-keyboard-response",569,365608,"0.0-3.186-0.186","1qztpkrssqxql7x",446,"144.csv","","170.5","resources/trios/L2T4A3.jpg","39","restless",0.3,0.6,0.4,0.760064620231696,"false"
"image-keyboard-response",570,366012,"0.0-3.186-1.186","1qztpkrssqxql7x",446,"144.csv","","null","resources/maskTrios/BBA3.jpg","null","",NA,NA,NA,NA,""
"image-keyboard-response",571,367217,"0.0-3.186-2.186","1qztpkrssqxql7x",446,"144.csv","","null","resources/images/fishbone.png","null","",NA,NA,NA,NA,""
"image-keyboard-response",572,367221,"0.0-3.187-0.187","1qztpkrssqxql7x",446,"144.csv","","2.7000000178813934","resources/trios/L2T4A3.jpg","39","restless",0.3,0.7,0.3,0.519591314429827,"false"
"image-keyboard-response",573,367625,"0.0-3.187-1.187","1qztpkrssqxql7x",446,"144.csv","","null","resources/maskTrios/BBA3.jpg","null","",NA,NA,NA,NA,""
"image-keyboard-response",574,368828,"0.0-3.187-2.187","1qztpkrssqxql7x",446,"144.csv","","null","resources/images/fishbone.png","null","",NA,NA,NA,NA,""
"image-keyboard-response",575,369009,"0.0-3.188-0.188","1qztpkrssqxql7x",446,"144.csv","","179.09999999403954","resources/trios/L1T1A3.jpg","39","restless",0.2,0.7,0.3,0.759455803154178,"false"
"image-keyboard-response",576,369412,"0.0-3.188-1.188","1qztpkrssqxql7x",446,"144.csv","","null","resources/maskTrios/BBA3.jpg","null","",NA,NA,NA,NA,""
"image-keyboard-response",577,370618,"0.0-3.188-2.188","1qztpkrssqxql7x",446,"144.csv","","null","resources/images/fishbone.png","null","",NA,NA,NA,NA,""
"image-keyboard-response",578,370647,"0.0-3.189-0.189","1qztpkrssqxql7x",446,"144.csv","","26.899999976158142","resources/trios/L1T1A2.jpg","38","restless",0.2,0.7,0.3,0.331469050086725,"true"
"image-keyboard-response",579,371051,"0.0-3.189-1.189","1qztpkrssqxql7x",446,"144.csv","","null","resources/maskTrios/BT1B.jpg","null","",NA,NA,NA,NA,""
"image-keyboard-response",580,372258,"0.0-3.189-2.189","1qztpkrssqxql7x",446,"144.csv","","null","resources/images/coin2.png","null","",NA,NA,NA,NA,""
"image-keyboard-response",581,372293,"0.0-3.190-0.190","1qztpkrssqxql7x",446,"144.csv","","32.79999998211861","resources/trios/L2T1A2.jpg","37","restless",0.2,0.7,0.3,0.166287255246209,"true"
"image-keyboard-response",582,372700,"0.0-3.190-1.190","1qztpkrssqxql7x",446,"144.csv","","null","resources/maskTrios/L2BB.jpg","null","",NA,NA,NA,NA,""
"image-keyboard-response",583,373907,"0.0-3.190-2.190","1qztpkrssqxql7x",446,"144.csv","","null","resources/images/coin2.png","null","",NA,NA,NA,NA,""
"image-keyboard-response",584,374038,"0.0-3.191-0.191","1qztpkrssqxql7x",446,"144.csv","","129.09999999403954","resources/trios/L2T1A2.jpg","38","restless",0.2,0.7,0.3,0.26366454378521,"true"
"image-keyboard-response",585,374441,"0.0-3.191-1.191","1qztpkrssqxql7x",446,"144.csv","","null","resources/maskTrios/BT1B.jpg","null","",NA,NA,NA,NA,""
"image-keyboard-response",586,375644,"0.0-3.191-2.191","1qztpkrssqxql7x",446,"144.csv","","null","resources/images/coin2.png","null","",NA,NA,NA,NA,""
"image-keyboard-response",587,375792,"0.0-3.192-0.192","1qztpkrssqxql7x",446,"144.csv","","146.7000000178814","resources/trios/L1T1A2.jpg","39","restless",0.2,0.7,0.2,0.733361793413492,"false"
"image-keyboard-response",588,376197,"0.0-3.192-1.192","1qztpkrssqxql7x",446,"144.csv","","null","resources/maskTrios/BBA2.jpg","null","",NA,NA,NA,NA,""
"image-keyboard-response",589,377402,"0.0-3.192-2.192","1qztpkrssqxql7x",446,"144.csv","","null","resources/images/fishbone.png","null","",NA,NA,NA,NA,""
"image-keyboard-response",590,377539,"0.0-3.193-0.193","1qztpkrssqxql7x",446,"144.csv","","135.09999999403954","resources/trios/L1T1A3.jpg","37","restless",0.2,0.7,0.2,0.991262685441094,"false"
"image-keyboard-response",591,377941,"0.0-3.193-1.193","1qztpkrssqxql7x",446,"144.csv","","null","resources/maskTrios/L1BB.jpg","null","",NA,NA,NA,NA,""
"image-keyboard-response",592,379148,"0.0-3.193-2.193","1qztpkrssqxql7x",446,"144.csv","","null","resources/images/fishbone.png","null","",NA,NA,NA,NA,""
"image-keyboard-response",593,379209,"0.0-3.194-0.194","1qztpkrssqxql7x",446,"144.csv","","58.900000005960464","resources/trios/L1T4A2.jpg","39","restless",0.2,0.7,0.1,0.189075575735808,"false"
"image-keyboard-response",594,379612,"0.0-3.194-1.194","1qztpkrssqxql7x",446,"144.csv","","null","resources/maskTrios/BBA2.jpg","null","",NA,NA,NA,NA,""
"image-keyboard-response",595,380818,"0.0-3.194-2.194","1qztpkrssqxql7x",446,"144.csv","","null","resources/images/fishbone.png","null","",NA,NA,NA,NA,""
"image-keyboard-response",596,380847,"0.0-3.195-0.195","1qztpkrssqxql7x",446,"144.csv","","26.899999976158142","resources/trios/L2T4A2.jpg","38","restless",0.2,0.7,0.1,0.042823740987864,"true"
"image-keyboard-response",597,381251,"0.0-3.195-1.195","1qztpkrssqxql7x",446,"144.csv","","null","resources/maskTrios/BT4B.jpg","null","",NA,NA,NA,NA,""
"image-keyboard-response",598,382453,"0.0-3.195-2.195","1qztpkrssqxql7x",446,"144.csv","","null","resources/images/coin2.png","null","",NA,NA,NA,NA,""
"image-keyboard-response",599,382477,"0.0-3.196-0.196","1qztpkrssqxql7x",446,"144.csv","","21.5","resources/trios/L1T4A3.jpg","37","restless",0.2,0.7,0.1,0.123806123585406,"true"
"image-keyboard-response",600,382880,"0.0-3.196-1.196","1qztpkrssqxql7x",446,"144.csv","","null","resources/maskTrios/L1BB.jpg","null","",NA,NA,NA,NA,""
"image-keyboard-response",601,384085,"0.0-3.196-2.196","1qztpkrssqxql7x",446,"144.csv","","null","resources/images/coin2.png","null","",NA,NA,NA,NA,""
"image-keyboard-response",602,384222,"0.0-3.197-0.197","1qztpkrssqxql7x",446,"144.csv","","134.90000000596046","resources/trios/L1T1A2.jpg","37","restless",0.2,0.7,0.1,0.750143490259779,"false"
"image-keyboard-response",603,384626,"0.0-3.197-1.197","1qztpkrssqxql7x",446,"144.csv","","null","resources/maskTrios/L1BB.jpg","null","",NA,NA,NA,NA,""
"image-keyboard-response",604,385830,"0.0-3.197-2.197","1qztpkrssqxql7x",446,"144.csv","","null","resources/images/fishbone.png","null","",NA,NA,NA,NA,""
"image-keyboard-response",605,386011,"0.0-3.198-0.198","1qztpkrssqxql7x",446,"144.csv","","179.59999999403954","resources/trios/L2T1A3.jpg","37","restless",0.2,0.7,0.1,0.130893133405527,"true"
"image-keyboard-response",606,386417,"0.0-3.198-1.198","1qztpkrssqxql7x",446,"144.csv","","null","resources/maskTrios/L2BB.jpg","null","",NA,NA,NA,NA,""
"image-keyboard-response",607,387623,"0.0-3.198-2.198","1qztpkrssqxql7x",446,"144.csv","","null","resources/images/coin2.png","null","",NA,NA,NA,NA,""
