"trial_type","trial_index","time_elapsed","internal_node_id","subject","participantCode","walkNumber","success","rt","stimulus","key_press","test_part","leftProb","midProb","rightProb","generatedNum","correct"
"pavlovia",0,1115,"0.0-0.0","c6bthx3byy52eu3",48,"8.csv","","","","","",NA,NA,NA,NA,""
"fullscreen",1,5350,"0.0-1.0","c6bthx3byy52eu3",48,"8.csv","true","","","","",NA,NA,NA,NA,""
"html-keyboard-response",2,13675,"0.0-2.0-0.0","c6bthx3byy52eu3",48,"8.csv","","8323.900000035763","<p><font size='6'>Arrrgh!</p></font><p>Can you be the best pirate? Try to find lots of gold! But beware, some islands have more gold than others, and over time, the island with the most gold may change. Can YOU figure it out? </p><font size='6'>GOOD LUCK, CAPTAIN!!!</font><p>Press any key to begin</p>","32","",NA,NA,NA,NA,""
"image-keyboard-response",3,16681,"0.0-2.0-1.0","c6bthx3byy52eu3",48,"8.csv","","null","resources/image_sets/111.png","null","",NA,NA,NA,NA,""
"image-keyboard-response",4,25026,"0.0-2.0-2.0","c6bthx3byy52eu3",48,"8.csv","","8343.800000011921","resources/image_sets/left_highlight.png","37","",NA,NA,NA,NA,""
"image-keyboard-response",5,29993,"0.0-2.0-3.0","c6bthx3byy52eu3",48,"8.csv","","4964.699999988079","resources/image_sets/mid_highlight.png","38","",NA,NA,NA,NA,""
"image-keyboard-response",6,31757,"0.0-2.0-4.0","c6bthx3byy52eu3",48,"8.csv","","1763.300000011921","resources/image_sets/right_highlight.png","39","",NA,NA,NA,NA,""
"image-keyboard-response",7,36517,"0.0-2.0-5.0","c6bthx3byy52eu3",48,"8.csv","","4758.399999976158","resources/image_sets/111.png","13","",NA,NA,NA,NA,""
"image-keyboard-response",8,38588,"0.0-2.0-6.0","c6bthx3byy52eu3",48,"8.csv","","2070","resources/images/coin2.png","13","",NA,NA,NA,NA,""
"image-keyboard-response",9,40349,"0.0-2.0-7.0","c6bthx3byy52eu3",48,"8.csv","","1760.3999999761581","resources/images/fishbone.png","13","",NA,NA,NA,NA,""
"html-keyboard-response",10,46292,"0.0-2.0-8.0","c6bthx3byy52eu3",48,"8.csv","","5942","<p>Your first journey will be a long one, but you will get a well deserved break at the end</p><p>After the break you will have four more journeys, but each will be much shorter than the first, and you will have breaks in between each</p><p>Press Enter to begin</p>","13","",NA,NA,NA,NA,""
"image-keyboard-response",11,48877,"0.0-3.0-0.0","c6bthx3byy52eu3",48,"8.csv","","2582","resources/trios/L2T1A2.jpg","38","restless",0.3,0.9,0.7,0.896440643212459,"true"
"image-keyboard-response",12,49283,"0.0-3.0-1.0","c6bthx3byy52eu3",48,"8.csv","","null","resources/maskTrios/BT1B.jpg","null","",NA,NA,NA,NA,""
"image-keyboard-response",13,50487,"0.0-3.0-2.0","c6bthx3byy52eu3",48,"8.csv","","null","resources/images/coin2.png","null","",NA,NA,NA,NA,""
"image-keyboard-response",14,52020,"0.0-3.1-0.1","c6bthx3byy52eu3",48,"8.csv","","1530.8999999761581","resources/trios/L1T1A2.jpg","37","restless",0.3,0.9,0.7,0.28017687704062,"true"
"image-keyboard-response",15,52423,"0.0-3.1-1.1","c6bthx3byy52eu3",48,"8.csv","","null","resources/maskTrios/L1BB.jpg","null","",NA,NA,NA,NA,""
"image-keyboard-response",16,53629,"0.0-3.1-2.1","c6bthx3byy52eu3",48,"8.csv","","null","resources/images/coin2.png","null","",NA,NA,NA,NA,""
"image-keyboard-response",17,54089,"0.0-3.2-0.2","c6bthx3byy52eu3",48,"8.csv","","458","resources/trios/L1T2A2.jpg","38","restless",0.3,0.9,0.7,0.862924526991997,"true"
"image-keyboard-response",18,54491,"0.0-3.2-1.2","c6bthx3byy52eu3",48,"8.csv","","null","resources/maskTrios/BT2B.jpg","null","",NA,NA,NA,NA,""
"image-keyboard-response",19,55693,"0.0-3.2-2.2","c6bthx3byy52eu3",48,"8.csv","","null","resources/images/coin2.png","null","",NA,NA,NA,NA,""
"image-keyboard-response",20,56025,"0.0-3.3-0.3","c6bthx3byy52eu3",48,"8.csv","","330.60000002384186","resources/trios/L2T1A1.jpg","38","restless",0.3,0.8,0.8,0.60874124453731,"true"
"image-keyboard-response",21,56431,"0.0-3.3-1.3","c6bthx3byy52eu3",48,"8.csv","","null","resources/maskTrios/BT1B.jpg","null","",NA,NA,NA,NA,""
"image-keyboard-response",22,57637,"0.0-3.3-2.3","c6bthx3byy52eu3",48,"8.csv","","null","resources/images/coin2.png","null","",NA,NA,NA,NA,""
"image-keyboard-response",23,58478,"0.0-3.4-0.4","c6bthx3byy52eu3",48,"8.csv","","839.6999999880791","resources/trios/L1T1A1.jpg","37","restless",0.3,0.7,0.8,0.120409482665567,"true"
"image-keyboard-response",24,58885,"0.0-3.4-1.4","c6bthx3byy52eu3",48,"8.csv","","null","resources/maskTrios/L1BB.jpg","null","",NA,NA,NA,NA,""
"image-keyboard-response",25,60091,"0.0-3.4-2.4","c6bthx3byy52eu3",48,"8.csv","","null","resources/images/coin2.png","null","",NA,NA,NA,NA,""
"image-keyboard-response",26,60565,"0.0-3.5-0.5","c6bthx3byy52eu3",48,"8.csv","","472.80000001192093","resources/trios/L2T1A2.jpg","38","restless",0.3,0.7,0.8,0.185268757694821,"true"
"image-keyboard-response",27,60972,"0.0-3.5-1.5","c6bthx3byy52eu3",48,"8.csv","","null","resources/maskTrios/BT1B.jpg","null","",NA,NA,NA,NA,""
"image-keyboard-response",28,62178,"0.0-3.5-2.5","c6bthx3byy52eu3",48,"8.csv","","null","resources/images/coin2.png","null","",NA,NA,NA,NA,""
"image-keyboard-response",29,62504,"0.0-3.6-0.6","c6bthx3byy52eu3",48,"8.csv","","324.39999997615814","resources/trios/L1T1A1.jpg","37","restless",0.3,0.7,0.8,0.638257733452394,"false"
"image-keyboard-response",30,62911,"0.0-3.6-1.6","c6bthx3byy52eu3",48,"8.csv","","null","resources/maskTrios/L1BB.jpg","null","",NA,NA,NA,NA,""
"image-keyboard-response",31,64117,"0.0-3.6-2.6","c6bthx3byy52eu3",48,"8.csv","","null","resources/images/fishbone.png","null","",NA,NA,NA,NA,""
"image-keyboard-response",32,64571,"0.0-3.7-0.7","c6bthx3byy52eu3",48,"8.csv","","453","resources/trios/L1T1A2.jpg","38","restless",0.3,0.7,0.8,0.307764133672384,"true"
"image-keyboard-response",33,64976,"0.0-3.7-1.7","c6bthx3byy52eu3",48,"8.csv","","null","resources/maskTrios/BT1B.jpg","null","",NA,NA,NA,NA,""
"image-keyboard-response",34,66182,"0.0-3.7-2.7","c6bthx3byy52eu3",48,"8.csv","","null","resources/images/coin2.png","null","",NA,NA,NA,NA,""
"image-keyboard-response",35,66481,"0.0-3.8-0.8","c6bthx3byy52eu3",48,"8.csv","","297.19999998807907","resources/trios/L1T2A1.jpg","39","restless",0.3,0.7,0.8,0.488646036985249,"true"
"image-keyboard-response",36,66887,"0.0-3.8-1.8","c6bthx3byy52eu3",48,"8.csv","","null","resources/maskTrios/BBA1.jpg","null","",NA,NA,NA,NA,""
"image-keyboard-response",37,68094,"0.0-3.8-2.8","c6bthx3byy52eu3",48,"8.csv","","null","resources/images/coin2.png","null","",NA,NA,NA,NA,""
"image-keyboard-response",38,68374,"0.0-3.9-0.9","c6bthx3byy52eu3",48,"8.csv","","278.10000002384186","resources/trios/L1T1A2.jpg","39","restless",0.3,0.7,0.8,0.20374823592893,"true"
"image-keyboard-response",39,68780,"0.0-3.9-1.9","c6bthx3byy52eu3",48,"8.csv","","null","resources/maskTrios/BBA2.jpg","null","",NA,NA,NA,NA,""
"image-keyboard-response",40,69987,"0.0-3.9-2.9","c6bthx3byy52eu3",48,"8.csv","","null","resources/images/coin2.png","null","",NA,NA,NA,NA,""
"image-keyboard-response",41,70218,"0.0-3.10-0.10","c6bthx3byy52eu3",48,"8.csv","","229.5","resources/trios/L1T1A1.jpg","38","restless",0.3,0.6,0.8,0.226485179351681,"true"
"image-keyboard-response",42,70621,"0.0-3.10-1.10","c6bthx3byy52eu3",48,"8.csv","","null","resources/maskTrios/BT1B.jpg","null","",NA,NA,NA,NA,""
"image-keyboard-response",43,71823,"0.0-3.10-2.10","c6bthx3byy52eu3",48,"8.csv","","null","resources/images/coin2.png","null","",NA,NA,NA,NA,""
"image-keyboard-response",44,72032,"0.0-3.11-0.11","c6bthx3byy52eu3",48,"8.csv","","207.0999999642372","resources/trios/L1T2A1.jpg","37","restless",0.3,0.6,0.8,0.91228139381237,"false"
"image-keyboard-response",45,72438,"0.0-3.11-1.11","c6bthx3byy52eu3",48,"8.csv","","null","resources/maskTrios/L1BB.jpg","null","",NA,NA,NA,NA,""
"image-keyboard-response",46,73645,"0.0-3.11-2.11","c6bthx3byy52eu3",48,"8.csv","","null","resources/images/fishbone.png","null","",NA,NA,NA,NA,""
"image-keyboard-response",47,73931,"0.0-3.12-0.12","c6bthx3byy52eu3",48,"8.csv","","285.4000000357628","resources/trios/L1T1A1.jpg","38","restless",0.3,0.6,0.8,0.582961679502397,"true"
"image-keyboard-response",48,74338,"0.0-3.12-1.12","c6bthx3byy52eu3",48,"8.csv","","null","resources/maskTrios/BT1B.jpg","null","",NA,NA,NA,NA,""
"image-keyboard-response",49,75540,"0.0-3.12-2.12","c6bthx3byy52eu3",48,"8.csv","","null","resources/images/coin2.png","null","",NA,NA,NA,NA,""
"image-keyboard-response",50,75904,"0.0-3.13-0.13","c6bthx3byy52eu3",48,"8.csv","","362.5999999642372","resources/trios/L2T1A2.jpg","38","restless",0.3,0.6,0.8,0.0572041626322204,"true"
"image-keyboard-response",51,76309,"0.0-3.13-1.13","c6bthx3byy52eu3",48,"8.csv","","null","resources/maskTrios/BT1B.jpg","null","",NA,NA,NA,NA,""
"image-keyboard-response",52,77515,"0.0-3.13-2.13","c6bthx3byy52eu3",48,"8.csv","","null","resources/images/coin2.png","null","",NA,NA,NA,NA,""
"image-keyboard-response",53,77787,"0.0-3.14-0.14","c6bthx3byy52eu3",48,"8.csv","","269.89999997615814","resources/trios/L2T2A2.jpg","38","restless",0.3,0.6,0.8,0.307316404406921,"true"
"image-keyboard-response",54,78193,"0.0-3.14-1.14","c6bthx3byy52eu3",48,"8.csv","","null","resources/maskTrios/BT2B.jpg","null","",NA,NA,NA,NA,""
"image-keyboard-response",55,79400,"0.0-3.14-2.14","c6bthx3byy52eu3",48,"8.csv","","null","resources/images/coin2.png","null","",NA,NA,NA,NA,""
"image-keyboard-response",56,79662,"0.0-3.15-0.15","c6bthx3byy52eu3",48,"8.csv","","261","resources/trios/L2T2A2.jpg","38","restless",0.2,0.5,0.8,0.998857885090046,"false"
"image-keyboard-response",57,80068,"0.0-3.15-1.15","c6bthx3byy52eu3",48,"8.csv","","null","resources/maskTrios/BT2B.jpg","null","",NA,NA,NA,NA,""
"image-keyboard-response",58,81271,"0.0-3.15-2.15","c6bthx3byy52eu3",48,"8.csv","","null","resources/images/fishbone.png","null","",NA,NA,NA,NA,""
"image-keyboard-response",59,81548,"0.0-3.16-0.16","c6bthx3byy52eu3",48,"8.csv","","276.10000002384186","resources/trios/L2T2A1.jpg","38","restless",0.2,0.5,0.8,0.18502836039448,"true"
"image-keyboard-response",60,81953,"0.0-3.16-1.16","c6bthx3byy52eu3",48,"8.csv","","null","resources/maskTrios/BT2B.jpg","null","",NA,NA,NA,NA,""
"image-keyboard-response",61,83156,"0.0-3.16-2.16","c6bthx3byy52eu3",48,"8.csv","","null","resources/images/coin2.png","null","",NA,NA,NA,NA,""
"image-keyboard-response",62,83408,"0.0-3.17-0.17","c6bthx3byy52eu3",48,"8.csv","","250.89999997615814","resources/trios/L2T2A1.jpg","38","restless",0.2,0.5,0.8,0.768530288212824,"false"
"image-keyboard-response",63,83814,"0.0-3.17-1.17","c6bthx3byy52eu3",48,"8.csv","","null","resources/maskTrios/BT2B.jpg","null","",NA,NA,NA,NA,""
"image-keyboard-response",64,85019,"0.0-3.17-2.17","c6bthx3byy52eu3",48,"8.csv","","null","resources/images/fishbone.png","null","",NA,NA,NA,NA,""
"image-keyboard-response",65,85334,"0.0-3.18-0.18","c6bthx3byy52eu3",48,"8.csv","","312.80000001192093","resources/trios/L2T1A2.jpg","38","restless",0.2,0.5,0.8,0.0576210112320805,"true"
"image-keyboard-response",66,85740,"0.0-3.18-1.18","c6bthx3byy52eu3",48,"8.csv","","null","resources/maskTrios/BT1B.jpg","null","",NA,NA,NA,NA,""
"image-keyboard-response",67,86942,"0.0-3.18-2.18","c6bthx3byy52eu3",48,"8.csv","","null","resources/images/coin2.png","null","",NA,NA,NA,NA,""
"image-keyboard-response",68,87298,"0.0-3.19-0.19","c6bthx3byy52eu3",48,"8.csv","","354.89999997615814","resources/trios/L2T2A1.jpg","39","restless",0.2,0.5,0.8,0.60011246510509,"true"
"image-keyboard-response",69,87704,"0.0-3.19-1.19","c6bthx3byy52eu3",48,"8.csv","","null","resources/maskTrios/BBA1.jpg","null","",NA,NA,NA,NA,""
"image-keyboard-response",70,88911,"0.0-3.19-2.19","c6bthx3byy52eu3",48,"8.csv","","null","resources/images/coin2.png","null","",NA,NA,NA,NA,""
"image-keyboard-response",71,89215,"0.0-3.20-0.20","c6bthx3byy52eu3",48,"8.csv","","303.30000001192093","resources/trios/L2T1A2.jpg","39","restless",0.2,0.5,0.8,0.915621889472568,"false"
"image-keyboard-response",72,89621,"0.0-3.20-1.20","c6bthx3byy52eu3",48,"8.csv","","null","resources/maskTrios/BBA2.jpg","null","",NA,NA,NA,NA,""
"image-keyboard-response",73,90827,"0.0-3.20-2.20","c6bthx3byy52eu3",48,"8.csv","","null","resources/images/fishbone.png","null","",NA,NA,NA,NA,""
"image-keyboard-response",74,91162,"0.0-3.21-0.21","c6bthx3byy52eu3",48,"8.csv","","333.5","resources/trios/L1T1A1.jpg","39","restless",0.2,0.5,0.8,0.930446435056717,"false"
"image-keyboard-response",75,91564,"0.0-3.21-1.21","c6bthx3byy52eu3",48,"8.csv","","null","resources/maskTrios/BBA1.jpg","null","",NA,NA,NA,NA,""
"image-keyboard-response",76,92771,"0.0-3.21-2.21","c6bthx3byy52eu3",48,"8.csv","","null","resources/images/fishbone.png","null","",NA,NA,NA,NA,""
"image-keyboard-response",77,93039,"0.0-3.22-0.22","c6bthx3byy52eu3",48,"8.csv","","267.30000001192093","resources/trios/L1T1A2.jpg","39","restless",0.1,0.5,0.8,0.366165275322081,"true"
"image-keyboard-response",78,93446,"0.0-3.22-1.22","c6bthx3byy52eu3",48,"8.csv","","null","resources/maskTrios/BBA2.jpg","null","",NA,NA,NA,NA,""
"image-keyboard-response",79,94650,"0.0-3.22-2.22","c6bthx3byy52eu3",48,"8.csv","","null","resources/images/coin2.png","null","",NA,NA,NA,NA,""
"image-keyboard-response",80,94952,"0.0-3.23-0.23","c6bthx3byy52eu3",48,"8.csv","","299.80000001192093","resources/trios/L2T1A1.jpg","39","restless",0.1,0.5,0.8,0.70859849910531,"true"
"image-keyboard-response",81,95358,"0.0-3.23-1.23","c6bthx3byy52eu3",48,"8.csv","","null","resources/maskTrios/BBA1.jpg","null","",NA,NA,NA,NA,""
"image-keyboard-response",82,96565,"0.0-3.23-2.23","c6bthx3byy52eu3",48,"8.csv","","null","resources/images/coin2.png","null","",NA,NA,NA,NA,""
"image-keyboard-response",83,96843,"0.0-3.24-0.24","c6bthx3byy52eu3",48,"8.csv","","277.30000001192093","resources/trios/L1T1A2.jpg","38","restless",0.1,0.5,0.8,0.396067448427766,"true"
"image-keyboard-response",84,97250,"0.0-3.24-1.24","c6bthx3byy52eu3",48,"8.csv","","null","resources/maskTrios/BT1B.jpg","null","",NA,NA,NA,NA,""
"image-keyboard-response",85,98453,"0.0-3.24-2.24","c6bthx3byy52eu3",48,"8.csv","","null","resources/images/coin2.png","null","",NA,NA,NA,NA,""
"image-keyboard-response",86,98541,"0.0-3.25-0.25","c6bthx3byy52eu3",48,"8.csv","","86.30000001192093","resources/trios/L1T1A2.jpg","38","restless",0.1,0.5,0.8,0.384406003149257,"true"
"image-keyboard-response",87,98947,"0.0-3.25-1.25","c6bthx3byy52eu3",48,"8.csv","","null","resources/maskTrios/BT1B.jpg","null","",NA,NA,NA,NA,""
"image-keyboard-response",88,100151,"0.0-3.25-2.25","c6bthx3byy52eu3",48,"8.csv","","null","resources/images/coin2.png","null","",NA,NA,NA,NA,""
"image-keyboard-response",89,100313,"0.0-3.26-0.26","c6bthx3byy52eu3",48,"8.csv","","161.0999999642372","resources/trios/L2T2A1.jpg","38","restless",0.1,0.5,0.8,0.293350644274716,"true"
"image-keyboard-response",90,100720,"0.0-3.26-1.26","c6bthx3byy52eu3",48,"8.csv","","null","resources/maskTrios/BT2B.jpg","null","",NA,NA,NA,NA,""
"image-keyboard-response",91,101926,"0.0-3.26-2.26","c6bthx3byy52eu3",48,"8.csv","","null","resources/images/coin2.png","null","",NA,NA,NA,NA,""
"image-keyboard-response",92,102070,"0.0-3.27-0.27","c6bthx3byy52eu3",48,"8.csv","","142.29999995231628","resources/trios/L2T1A1.jpg","37","restless",0.1,0.5,0.9,0.0208074604863835,"true"
"image-keyboard-response",93,102473,"0.0-3.27-1.27","c6bthx3byy52eu3",48,"8.csv","","null","resources/maskTrios/L2BB.jpg","null","",NA,NA,NA,NA,""
"image-keyboard-response",94,103679,"0.0-3.27-2.27","c6bthx3byy52eu3",48,"8.csv","","null","resources/images/coin2.png","null","",NA,NA,NA,NA,""
"image-keyboard-response",95,104009,"0.0-3.28-0.28","c6bthx3byy52eu3",48,"8.csv","","328.9000000357628","resources/trios/L2T2A2.jpg","37","restless",0.1,0.5,0.9,0.349192589653261,"false"
"image-keyboard-response",96,104412,"0.0-3.28-1.28","c6bthx3byy52eu3",48,"8.csv","","null","resources/maskTrios/L2BB.jpg","null","",NA,NA,NA,NA,""
"image-keyboard-response",97,105619,"0.0-3.28-2.28","c6bthx3byy52eu3",48,"8.csv","","null","resources/images/fishbone.png","null","",NA,NA,NA,NA,""
"image-keyboard-response",98,105944,"0.0-3.29-0.29","c6bthx3byy52eu3",48,"8.csv","","324","resources/trios/L1T2A1.jpg","38","restless",0.1,0.5,0.9,0.356153029716227,"true"
"image-keyboard-response",99,106351,"0.0-3.29-1.29","c6bthx3byy52eu3",48,"8.csv","","null","resources/maskTrios/BT2B.jpg","null","",NA,NA,NA,NA,""
"image-keyboard-response",100,107557,"0.0-3.29-2.29","c6bthx3byy52eu3",48,"8.csv","","null","resources/images/coin2.png","null","",NA,NA,NA,NA,""
"image-keyboard-response",101,107829,"0.0-3.30-0.30","c6bthx3byy52eu3",48,"8.csv","","270.2999999523163","resources/trios/L2T1A1.jpg","38","restless",0.1,0.5,0.8,0.243557168006054,"true"
"image-keyboard-response",102,108232,"0.0-3.30-1.30","c6bthx3byy52eu3",48,"8.csv","","null","resources/maskTrios/BT1B.jpg","null","",NA,NA,NA,NA,""
"image-keyboard-response",103,109437,"0.0-3.30-2.30","c6bthx3byy52eu3",48,"8.csv","","null","resources/images/coin2.png","null","",NA,NA,NA,NA,""
"image-keyboard-response",104,109793,"0.0-3.31-0.31","c6bthx3byy52eu3",48,"8.csv","","354.39999997615814","resources/trios/L2T1A1.jpg","38","restless",0.1,0.5,0.8,0.0686406814867451,"true"
"image-keyboard-response",105,110200,"0.0-3.31-1.31","c6bthx3byy52eu3",48,"8.csv","","null","resources/maskTrios/BT1B.jpg","null","",NA,NA,NA,NA,""
"image-keyboard-response",106,111405,"0.0-3.31-2.31","c6bthx3byy52eu3",48,"8.csv","","null","resources/images/coin2.png","null","",NA,NA,NA,NA,""
"image-keyboard-response",107,111542,"0.0-3.32-0.32","c6bthx3byy52eu3",48,"8.csv","","135","resources/trios/L2T1A1.jpg","38","restless",0.1,0.6,0.8,0.752551701359591,"false"
"image-keyboard-response",108,111948,"0.0-3.32-1.32","c6bthx3byy52eu3",48,"8.csv","","null","resources/maskTrios/BT1B.jpg","null","",NA,NA,NA,NA,""
"image-keyboard-response",109,113151,"0.0-3.32-2.32","c6bthx3byy52eu3",48,"8.csv","","null","resources/images/fishbone.png","null","",NA,NA,NA,NA,""
"image-keyboard-response",110,113211,"0.0-3.33-0.33","c6bthx3byy52eu3",48,"8.csv","","59.09999996423721","resources/trios/L2T2A2.jpg","38","restless",0.1,0.6,0.8,0.0415542447760111,"true"
"image-keyboard-response",111,113618,"0.0-3.33-1.33","c6bthx3byy52eu3",48,"8.csv","","null","resources/maskTrios/BT2B.jpg","null","",NA,NA,NA,NA,""
"image-keyboard-response",112,114824,"0.0-3.33-2.33","c6bthx3byy52eu3",48,"8.csv","","null","resources/images/coin2.png","null","",NA,NA,NA,NA,""
"image-keyboard-response",113,114863,"0.0-3.34-0.34","c6bthx3byy52eu3",48,"8.csv","","37.60000002384186","resources/trios/L1T1A2.jpg","38","restless",0.1,0.6,0.8,0.731438512592702,"false"
"image-keyboard-response",114,115270,"0.0-3.34-1.34","c6bthx3byy52eu3",48,"8.csv","","null","resources/maskTrios/BT1B.jpg","null","",NA,NA,NA,NA,""
"image-keyboard-response",115,116473,"0.0-3.34-2.34","c6bthx3byy52eu3",48,"8.csv","","null","resources/images/fishbone.png","null","",NA,NA,NA,NA,""
"image-keyboard-response",116,116722,"0.0-3.35-0.35","c6bthx3byy52eu3",48,"8.csv","","247.69999998807907","resources/trios/L1T1A2.jpg","38","restless",0.1,0.6,0.8,0.353432375826195,"true"
"image-keyboard-response",117,117129,"0.0-3.35-1.35","c6bthx3byy52eu3",48,"8.csv","","null","resources/maskTrios/BT1B.jpg","null","",NA,NA,NA,NA,""
"image-keyboard-response",118,118331,"0.0-3.35-2.35","c6bthx3byy52eu3",48,"8.csv","","null","resources/images/coin2.png","null","",NA,NA,NA,NA,""
"image-keyboard-response",119,118725,"0.0-3.36-0.36","c6bthx3byy52eu3",48,"8.csv","","392.4000000357628","resources/trios/L2T1A2.jpg","37","restless",0.2,0.6,0.8,0.265922768770108,"false"
"image-keyboard-response",120,119128,"0.0-3.36-1.36","c6bthx3byy52eu3",48,"8.csv","","null","resources/maskTrios/L2BB.jpg","null","",NA,NA,NA,NA,""
"image-keyboard-response",121,120332,"0.0-3.36-2.36","c6bthx3byy52eu3",48,"8.csv","","null","resources/images/fishbone.png","null","",NA,NA,NA,NA,""
"image-keyboard-response",122,120503,"0.0-3.37-0.37","c6bthx3byy52eu3",48,"8.csv","","168.80000001192093","resources/trios/L1T1A2.jpg","37","restless",0.2,0.6,0.9,0.713985526649662,"false"
"image-keyboard-response",123,120909,"0.0-3.37-1.37","c6bthx3byy52eu3",48,"8.csv","","null","resources/maskTrios/L1BB.jpg","null","",NA,NA,NA,NA,""
"image-keyboard-response",124,122111,"0.0-3.37-2.37","c6bthx3byy52eu3",48,"8.csv","","null","resources/images/fishbone.png","null","",NA,NA,NA,NA,""
"image-keyboard-response",125,122553,"0.0-3.38-0.38","c6bthx3byy52eu3",48,"8.csv","","440.80000001192093","resources/trios/L1T1A2.jpg","39","restless",0.2,0.6,0.9,0.0167653475419982,"true"
"image-keyboard-response",126,122957,"0.0-3.38-1.38","c6bthx3byy52eu3",48,"8.csv","","null","resources/maskTrios/BBA2.jpg","null","",NA,NA,NA,NA,""
"image-keyboard-response",127,124163,"0.0-3.38-2.38","c6bthx3byy52eu3",48,"8.csv","","null","resources/images/coin2.png","null","",NA,NA,NA,NA,""
"image-keyboard-response",128,124268,"0.0-3.39-0.39","c6bthx3byy52eu3",48,"8.csv","","103.79999995231628","resources/trios/L2T1A1.jpg","39","restless",0.2,0.6,0.9,0.745836051674742,"true"
"image-keyboard-response",129,124672,"0.0-3.39-1.39","c6bthx3byy52eu3",48,"8.csv","","null","resources/maskTrios/BBA1.jpg","null","",NA,NA,NA,NA,""
"image-keyboard-response",130,125875,"0.0-3.39-2.39","c6bthx3byy52eu3",48,"8.csv","","null","resources/images/coin2.png","null","",NA,NA,NA,NA,""
"image-keyboard-response",131,126479,"0.0-3.40-0.40","c6bthx3byy52eu3",48,"8.csv","","600.6000000238419","resources/trios/L1T2A1.jpg","39","restless",0.2,0.6,0.8,0.763449951103825,"true"
"image-keyboard-response",132,126885,"0.0-3.40-1.40","c6bthx3byy52eu3",48,"8.csv","","null","resources/maskTrios/BBA1.jpg","null","",NA,NA,NA,NA,""
"image-keyboard-response",133,128087,"0.0-3.40-2.40","c6bthx3byy52eu3",48,"8.csv","","null","resources/images/coin2.png","null","",NA,NA,NA,NA,""
"image-keyboard-response",134,128437,"0.0-3.41-0.41","c6bthx3byy52eu3",48,"8.csv","","348.19999998807907","resources/trios/L1T1A1.jpg","39","restless",0.2,0.6,0.8,0.763642483481133,"true"
"image-keyboard-response",135,128843,"0.0-3.41-1.41","c6bthx3byy52eu3",48,"8.csv","","null","resources/maskTrios/BBA1.jpg","null","",NA,NA,NA,NA,""
"image-keyboard-response",136,130050,"0.0-3.41-2.41","c6bthx3byy52eu3",48,"8.csv","","null","resources/images/coin2.png","null","",NA,NA,NA,NA,""
"image-keyboard-response",137,130184,"0.0-3.42-0.42","c6bthx3byy52eu3",48,"8.csv","","133.39999997615814","resources/trios/L1T1A1.jpg","39","restless",0.2,0.6,0.8,0.157839014688065,"true"
"image-keyboard-response",138,130588,"0.0-3.42-1.42","c6bthx3byy52eu3",48,"8.csv","","null","resources/maskTrios/BBA1.jpg","null","",NA,NA,NA,NA,""
"image-keyboard-response",139,131792,"0.0-3.42-2.42","c6bthx3byy52eu3",48,"8.csv","","null","resources/images/coin2.png","null","",NA,NA,NA,NA,""
"image-keyboard-response",140,132138,"0.0-3.43-0.43","c6bthx3byy52eu3",48,"8.csv","","344.5","resources/trios/L1T1A1.jpg","39","restless",0.3,0.6,0.8,0.404408596912651,"true"
"image-keyboard-response",141,132542,"0.0-3.43-1.43","c6bthx3byy52eu3",48,"8.csv","","null","resources/maskTrios/BBA1.jpg","null","",NA,NA,NA,NA,""
"image-keyboard-response",142,133748,"0.0-3.43-2.43","c6bthx3byy52eu3",48,"8.csv","","null","resources/images/coin2.png","null","",NA,NA,NA,NA,""
"image-keyboard-response",143,134054,"0.0-3.44-0.44","c6bthx3byy52eu3",48,"8.csv","","304.60000002384186","resources/trios/L2T1A2.jpg","39","restless",0.3,0.6,0.8,0.545089035579929,"true"
"image-keyboard-response",144,134457,"0.0-3.44-1.44","c6bthx3byy52eu3",48,"8.csv","","null","resources/maskTrios/BBA2.jpg","null","",NA,NA,NA,NA,""
"image-keyboard-response",145,135663,"0.0-3.44-2.44","c6bthx3byy52eu3",48,"8.csv","","null","resources/images/coin2.png","null","",NA,NA,NA,NA,""
"image-keyboard-response",146,135885,"0.0-3.45-0.45","c6bthx3byy52eu3",48,"8.csv","","220.79999995231628","resources/trios/L1T2A2.jpg","39","restless",0.3,0.6,0.9,0.124996841247226,"true"
"image-keyboard-response",147,136292,"0.0-3.45-1.45","c6bthx3byy52eu3",48,"8.csv","","null","resources/maskTrios/BBA2.jpg","null","",NA,NA,NA,NA,""
"image-keyboard-response",148,137497,"0.0-3.45-2.45","c6bthx3byy52eu3",48,"8.csv","","null","resources/images/coin2.png","null","",NA,NA,NA,NA,""
"image-keyboard-response",149,138063,"0.0-3.46-0.46","c6bthx3byy52eu3",48,"8.csv","","565.3000000119209","resources/trios/L1T1A1.jpg","39","restless",0.3,0.6,0.9,0.658130152029937,"true"
"image-keyboard-response",150,138465,"0.0-3.46-1.46","c6bthx3byy52eu3",48,"8.csv","","null","resources/maskTrios/BBA1.jpg","null","",NA,NA,NA,NA,""
"image-keyboard-response",151,139672,"0.0-3.46-2.46","c6bthx3byy52eu3",48,"8.csv","","null","resources/images/coin2.png","null","",NA,NA,NA,NA,""
"image-keyboard-response",152,139966,"0.0-3.47-0.47","c6bthx3byy52eu3",48,"8.csv","","292.39999997615814","resources/trios/L2T1A1.jpg","39","restless",0.3,0.6,0.9,0.783366503005775,"true"
"image-keyboard-response",153,140371,"0.0-3.47-1.47","c6bthx3byy52eu3",48,"8.csv","","null","resources/maskTrios/BBA1.jpg","null","",NA,NA,NA,NA,""
"image-keyboard-response",154,141576,"0.0-3.47-2.47","c6bthx3byy52eu3",48,"8.csv","","null","resources/images/coin2.png","null","",NA,NA,NA,NA,""
"image-keyboard-response",155,141830,"0.0-3.48-0.48","c6bthx3byy52eu3",48,"8.csv","","252.19999998807907","resources/trios/L1T1A2.jpg","39","restless",0.4,0.6,0.9,0.0802720242139758,"true"
"image-keyboard-response",156,142233,"0.0-3.48-1.48","c6bthx3byy52eu3",48,"8.csv","","null","resources/maskTrios/BBA2.jpg","null","",NA,NA,NA,NA,""
"image-keyboard-response",157,143437,"0.0-3.48-2.48","c6bthx3byy52eu3",48,"8.csv","","null","resources/images/coin2.png","null","",NA,NA,NA,NA,""
"image-keyboard-response",158,143668,"0.0-3.49-0.49","c6bthx3byy52eu3",48,"8.csv","","229.19999998807907","resources/trios/L1T2A2.jpg","39","restless",0.4,0.6,0.9,0.493970807846511,"true"
"image-keyboard-response",159,144070,"0.0-3.49-1.49","c6bthx3byy52eu3",48,"8.csv","","null","resources/maskTrios/BBA2.jpg","null","",NA,NA,NA,NA,""
"image-keyboard-response",160,145275,"0.0-3.49-2.49","c6bthx3byy52eu3",48,"8.csv","","null","resources/images/coin2.png","null","",NA,NA,NA,NA,""
"image-keyboard-response",161,145488,"0.0-3.50-0.50","c6bthx3byy52eu3",48,"8.csv","","211","resources/trios/L2T2A2.jpg","39","restless",0.4,0.6,0.9,0.564692436441882,"true"
"image-keyboard-response",162,145894,"0.0-3.50-1.50","c6bthx3byy52eu3",48,"8.csv","","null","resources/maskTrios/BBA2.jpg","null","",NA,NA,NA,NA,""
"image-keyboard-response",163,147096,"0.0-3.50-2.50","c6bthx3byy52eu3",48,"8.csv","","null","resources/images/coin2.png","null","",NA,NA,NA,NA,""
"image-keyboard-response",164,147324,"0.0-3.51-0.51","c6bthx3byy52eu3",48,"8.csv","","226.30000001192093","resources/trios/L1T2A2.jpg","39","restless",0.4,0.6,0.9,0.224122122886116,"true"
"image-keyboard-response",165,147726,"0.0-3.51-1.51","c6bthx3byy52eu3",48,"8.csv","","null","resources/maskTrios/BBA2.jpg","null","",NA,NA,NA,NA,""
"image-keyboard-response",166,148932,"0.0-3.51-2.51","c6bthx3byy52eu3",48,"8.csv","","null","resources/images/coin2.png","null","",NA,NA,NA,NA,""
"image-keyboard-response",167,149225,"0.0-3.52-0.52","c6bthx3byy52eu3",48,"8.csv","","291.30000001192093","resources/trios/L2T2A1.jpg","39","restless",0.4,0.6,0.9,0.0730590409968321,"true"
"image-keyboard-response",168,149632,"0.0-3.52-1.52","c6bthx3byy52eu3",48,"8.csv","","null","resources/maskTrios/BBA1.jpg","null","",NA,NA,NA,NA,""
"image-keyboard-response",169,150838,"0.0-3.52-2.52","c6bthx3byy52eu3",48,"8.csv","","null","resources/images/coin2.png","null","",NA,NA,NA,NA,""
"image-keyboard-response",170,151140,"0.0-3.53-0.53","c6bthx3byy52eu3",48,"8.csv","","300.39999997615814","resources/trios/L1T2A2.jpg","39","restless",0.4,0.6,0.9,0.23847713017378,"true"
"image-keyboard-response",171,151542,"0.0-3.53-1.53","c6bthx3byy52eu3",48,"8.csv","","null","resources/maskTrios/BBA2.jpg","null","",NA,NA,NA,NA,""
"image-keyboard-response",172,152744,"0.0-3.53-2.53","c6bthx3byy52eu3",48,"8.csv","","null","resources/images/coin2.png","null","",NA,NA,NA,NA,""
"image-keyboard-response",173,153088,"0.0-3.54-0.54","c6bthx3byy52eu3",48,"8.csv","","342.4000000357628","resources/trios/L2T1A2.jpg","39","restless",0.4,0.6,0.8,0.415703240474628,"true"
"image-keyboard-response",174,153493,"0.0-3.54-1.54","c6bthx3byy52eu3",48,"8.csv","","null","resources/maskTrios/BBA2.jpg","null","",NA,NA,NA,NA,""
"image-keyboard-response",175,154695,"0.0-3.54-2.54","c6bthx3byy52eu3",48,"8.csv","","null","resources/images/coin2.png","null","",NA,NA,NA,NA,""
"image-keyboard-response",176,155014,"0.0-3.55-0.55","c6bthx3byy52eu3",48,"8.csv","","317.7000000476837","resources/trios/L1T1A1.jpg","39","restless",0.4,0.5,0.8,0.816778156306475,"false"
"image-keyboard-response",177,155417,"0.0-3.55-1.55","c6bthx3byy52eu3",48,"8.csv","","null","resources/maskTrios/BBA1.jpg","null","",NA,NA,NA,NA,""
"image-keyboard-response",178,156620,"0.0-3.55-2.55","c6bthx3byy52eu3",48,"8.csv","","null","resources/images/fishbone.png","null","",NA,NA,NA,NA,""
"image-keyboard-response",179,157044,"0.0-3.56-0.56","c6bthx3byy52eu3",48,"8.csv","","422.7000000476837","resources/trios/L1T2A1.jpg","38","restless",0.4,0.4,0.8,0.847846656395241,"false"
"image-keyboard-response",180,157450,"0.0-3.56-1.56","c6bthx3byy52eu3",48,"8.csv","","null","resources/maskTrios/BT2B.jpg","null","",NA,NA,NA,NA,""
"image-keyboard-response",181,158652,"0.0-3.56-2.56","c6bthx3byy52eu3",48,"8.csv","","null","resources/images/fishbone.png","null","",NA,NA,NA,NA,""
"image-keyboard-response",182,158932,"0.0-3.57-0.57","c6bthx3byy52eu3",48,"8.csv","","278.4000000357628","resources/trios/L2T2A1.jpg","37","restless",0.4,0.4,0.8,0.807581739812865,"false"
"image-keyboard-response",183,159334,"0.0-3.57-1.57","c6bthx3byy52eu3",48,"8.csv","","null","resources/maskTrios/L2BB.jpg","null","",NA,NA,NA,NA,""
"image-keyboard-response",184,160540,"0.0-3.57-2.57","c6bthx3byy52eu3",48,"8.csv","","null","resources/images/fishbone.png","null","",NA,NA,NA,NA,""
"image-keyboard-response",185,160820,"0.0-3.58-0.58","c6bthx3byy52eu3",48,"8.csv","","278.89999997615814","resources/trios/L1T1A1.jpg","39","restless",0.4,0.3,0.8,0.241784514990276,"true"
"image-keyboard-response",186,161226,"0.0-3.58-1.58","c6bthx3byy52eu3",48,"8.csv","","null","resources/maskTrios/BBA1.jpg","null","",NA,NA,NA,NA,""
"image-keyboard-response",187,162433,"0.0-3.58-2.58","c6bthx3byy52eu3",48,"8.csv","","null","resources/images/coin2.png","null","",NA,NA,NA,NA,""
"image-keyboard-response",188,162528,"0.0-3.59-0.59","c6bthx3byy52eu3",48,"8.csv","","93.29999995231628","resources/trios/L1T2A1.jpg","39","restless",0.4,0.3,0.8,0.892129529665372,"false"
"image-keyboard-response",189,162933,"0.0-3.59-1.59","c6bthx3byy52eu3",48,"8.csv","","null","resources/maskTrios/BBA1.jpg","null","",NA,NA,NA,NA,""
"image-keyboard-response",190,164139,"0.0-3.59-2.59","c6bthx3byy52eu3",48,"8.csv","","null","resources/images/fishbone.png","null","",NA,NA,NA,NA,""
"image-keyboard-response",191,164398,"0.0-3.60-0.60","c6bthx3byy52eu3",48,"8.csv","","257.2999999523163","resources/trios/L2T1A1.jpg","39","restless",0.4,0.3,0.7,0.27088765191167,"true"
"image-keyboard-response",192,164803,"0.0-3.60-1.60","c6bthx3byy52eu3",48,"8.csv","","null","resources/maskTrios/BBA1.jpg","null","",NA,NA,NA,NA,""
"image-keyboard-response",193,166005,"0.0-3.60-2.60","c6bthx3byy52eu3",48,"8.csv","","null","resources/images/coin2.png","null","",NA,NA,NA,NA,""
"image-keyboard-response",194,166512,"0.0-3.61-0.61","c6bthx3byy52eu3",48,"8.csv","","505.5","resources/trios/L1T1A1.jpg","39","restless",0.4,0.3,0.7,0.0544545853665597,"true"
"image-keyboard-response",195,166917,"0.0-3.61-1.61","c6bthx3byy52eu3",48,"8.csv","","null","resources/maskTrios/BBA1.jpg","null","",NA,NA,NA,NA,""
"image-keyboard-response",196,168119,"0.0-3.61-2.61","c6bthx3byy52eu3",48,"8.csv","","null","resources/images/coin2.png","null","",NA,NA,NA,NA,""
"image-keyboard-response",197,168366,"0.0-3.62-0.62","c6bthx3byy52eu3",48,"8.csv","","245.80000001192093","resources/trios/L2T2A2.jpg","39","restless",0.4,0.3,0.7,0.689800397233364,"true"
"image-keyboard-response",198,168769,"0.0-3.62-1.62","c6bthx3byy52eu3",48,"8.csv","","null","resources/maskTrios/BBA2.jpg","null","",NA,NA,NA,NA,""
"image-keyboard-response",199,169974,"0.0-3.62-2.62","c6bthx3byy52eu3",48,"8.csv","","null","resources/images/coin2.png","null","",NA,NA,NA,NA,""
"image-keyboard-response",200,171026,"0.0-3.63-0.63","c6bthx3byy52eu3",48,"8.csv","","1050.3999999761581","resources/trios/L2T2A1.jpg","39","restless",0.4,0.3,0.7,0.972285627253086,"false"
"image-keyboard-response",201,171433,"0.0-3.63-1.63","c6bthx3byy52eu3",48,"8.csv","","null","resources/maskTrios/BBA1.jpg","null","",NA,NA,NA,NA,""
"image-keyboard-response",202,172639,"0.0-3.63-2.63","c6bthx3byy52eu3",48,"8.csv","","null","resources/images/fishbone.png","null","",NA,NA,NA,NA,""
"image-keyboard-response",203,173206,"0.0-3.64-0.64","c6bthx3byy52eu3",48,"8.csv","","566","resources/trios/L2T2A1.jpg","39","restless",0.4,0.3,0.7,0.256178150263726,"true"
"image-keyboard-response",204,173613,"0.0-3.64-1.64","c6bthx3byy52eu3",48,"8.csv","","null","resources/maskTrios/BBA1.jpg","null","",NA,NA,NA,NA,""
"image-keyboard-response",205,174819,"0.0-3.64-2.64","c6bthx3byy52eu3",48,"8.csv","","null","resources/images/coin2.png","null","",NA,NA,NA,NA,""
"image-keyboard-response",206,175078,"0.0-3.65-0.65","c6bthx3byy52eu3",48,"8.csv","","255.80000001192093","resources/trios/L1T2A2.jpg","39","restless",0.4,0.3,0.7,0.801517190209848,"false"
"image-keyboard-response",207,175484,"0.0-3.65-1.65","c6bthx3byy52eu3",48,"8.csv","","null","resources/maskTrios/BBA2.jpg","null","",NA,NA,NA,NA,""
"image-keyboard-response",208,176687,"0.0-3.65-2.65","c6bthx3byy52eu3",48,"8.csv","","null","resources/images/fishbone.png","null","",NA,NA,NA,NA,""
"image-keyboard-response",209,176805,"0.0-3.66-0.66","c6bthx3byy52eu3",48,"8.csv","","117.5","resources/trios/L1T1A2.jpg","38","restless",0.3,0.3,0.7,0.320579147671213,"false"
"image-keyboard-response",210,177209,"0.0-3.66-1.66","c6bthx3byy52eu3",48,"8.csv","","null","resources/maskTrios/BT1B.jpg","null","",NA,NA,NA,NA,""
"image-keyboard-response",211,178415,"0.0-3.66-2.66","c6bthx3byy52eu3",48,"8.csv","","null","resources/images/fishbone.png","null","",NA,NA,NA,NA,""
"image-keyboard-response",212,178659,"0.0-3.67-0.67","c6bthx3byy52eu3",48,"8.csv","","241.9000000357628","resources/trios/L1T1A2.jpg","37","restless",0.3,0.3,0.7,0.121266134816213,"true"
"image-keyboard-response",213,179065,"0.0-3.67-1.67","c6bthx3byy52eu3",48,"8.csv","","null","resources/maskTrios/L1BB.jpg","null","",NA,NA,NA,NA,""
"image-keyboard-response",214,180270,"0.0-3.67-2.67","c6bthx3byy52eu3",48,"8.csv","","null","resources/images/coin2.png","null","",NA,NA,NA,NA,""
"image-keyboard-response",215,180653,"0.0-3.68-0.68","c6bthx3byy52eu3",48,"8.csv","","382.2000000476837","resources/trios/L2T2A2.jpg","37","restless",0.3,0.3,0.7,0.337869735809259,"false"
"image-keyboard-response",216,181060,"0.0-3.68-1.68","c6bthx3byy52eu3",48,"8.csv","","null","resources/maskTrios/L2BB.jpg","null","",NA,NA,NA,NA,""
"image-keyboard-response",217,182266,"0.0-3.68-2.68","c6bthx3byy52eu3",48,"8.csv","","null","resources/images/fishbone.png","null","",NA,NA,NA,NA,""
"image-keyboard-response",218,182558,"0.0-3.69-0.69","c6bthx3byy52eu3",48,"8.csv","","291","resources/trios/L2T2A2.jpg","37","restless",0.3,0.3,0.7,0.886277813078604,"false"
"image-keyboard-response",219,182965,"0.0-3.69-1.69","c6bthx3byy52eu3",48,"8.csv","","null","resources/maskTrios/L2BB.jpg","null","",NA,NA,NA,NA,""
"image-keyboard-response",220,184171,"0.0-3.69-2.69","c6bthx3byy52eu3",48,"8.csv","","null","resources/images/fishbone.png","null","",NA,NA,NA,NA,""
"image-keyboard-response",221,184460,"0.0-3.70-0.70","c6bthx3byy52eu3",48,"8.csv","","287.7000000476837","resources/trios/L1T2A2.jpg","38","restless",0.3,0.3,0.7,0.680752916921603,"false"
"image-keyboard-response",222,184865,"0.0-3.70-1.70","c6bthx3byy52eu3",48,"8.csv","","null","resources/maskTrios/BT2B.jpg","null","",NA,NA,NA,NA,""
"image-keyboard-response",223,186070,"0.0-3.70-2.70","c6bthx3byy52eu3",48,"8.csv","","null","resources/images/fishbone.png","null","",NA,NA,NA,NA,""
"image-keyboard-response",224,186512,"0.0-3.71-0.71","c6bthx3byy52eu3",48,"8.csv","","440.30000001192093","resources/trios/L1T1A2.jpg","38","restless",0.3,0.3,0.7,0.1831807922014,"true"
"image-keyboard-response",225,186917,"0.0-3.71-1.71","c6bthx3byy52eu3",48,"8.csv","","null","resources/maskTrios/BT1B.jpg","null","",NA,NA,NA,NA,""
"image-keyboard-response",226,188119,"0.0-3.71-2.71","c6bthx3byy52eu3",48,"8.csv","","null","resources/images/coin2.png","null","",NA,NA,NA,NA,""
"image-keyboard-response",227,189289,"0.0-3.72-0.72","c6bthx3byy52eu3",48,"8.csv","","1167.800000011921","resources/trios/L1T2A1.jpg","38","restless",0.3,0.3,0.7,0.644349053806241,"false"
"image-keyboard-response",228,189693,"0.0-3.72-1.72","c6bthx3byy52eu3",48,"8.csv","","null","resources/maskTrios/BT2B.jpg","null","",NA,NA,NA,NA,""
"image-keyboard-response",229,190900,"0.0-3.72-2.72","c6bthx3byy52eu3",48,"8.csv","","null","resources/images/fishbone.png","null","",NA,NA,NA,NA,""
"image-keyboard-response",230,191217,"0.0-3.73-0.73","c6bthx3byy52eu3",48,"8.csv","","316.10000002384186","resources/trios/L2T1A2.jpg","39","restless",0.3,0.2,0.6,0.189990922664057,"true"
"image-keyboard-response",231,191619,"0.0-3.73-1.73","c6bthx3byy52eu3",48,"8.csv","","null","resources/maskTrios/BBA2.jpg","null","",NA,NA,NA,NA,""
"image-keyboard-response",232,192822,"0.0-3.73-2.73","c6bthx3byy52eu3",48,"8.csv","","null","resources/images/coin2.png","null","",NA,NA,NA,NA,""
"image-keyboard-response",233,193477,"0.0-3.74-0.74","c6bthx3byy52eu3",48,"8.csv","","653.8999999761581","resources/trios/L2T1A2.jpg","38","restless",0.3,0.2,0.6,0.479219616626764,"false"
"image-keyboard-response",234,193882,"0.0-3.74-1.74","c6bthx3byy52eu3",48,"8.csv","","null","resources/maskTrios/BT1B.jpg","null","",NA,NA,NA,NA,""
"image-keyboard-response",235,195086,"0.0-3.74-2.74","c6bthx3byy52eu3",48,"8.csv","","null","resources/images/fishbone.png","null","",NA,NA,NA,NA,""
"image-keyboard-response",236,195375,"0.0-3.75-0.75","c6bthx3byy52eu3",48,"8.csv","","288.19999998807907","resources/trios/L1T2A2.jpg","39","restless",0.3,0.2,0.6,0.587627645377888,"true"
"image-keyboard-response",237,195782,"0.0-3.75-1.75","c6bthx3byy52eu3",48,"8.csv","","null","resources/maskTrios/BBA2.jpg","null","",NA,NA,NA,NA,""
"image-keyboard-response",238,196984,"0.0-3.75-2.75","c6bthx3byy52eu3",48,"8.csv","","null","resources/images/coin2.png","null","",NA,NA,NA,NA,""
"image-keyboard-response",239,198179,"0.0-3.76-0.76","c6bthx3byy52eu3",48,"8.csv","","1193.9000000357628","resources/trios/L2T2A2.jpg","39","restless",0.3,0.2,0.6,0.168894425066087,"true"
"image-keyboard-response",240,198584,"0.0-3.76-1.76","c6bthx3byy52eu3",48,"8.csv","","null","resources/maskTrios/BBA2.jpg","null","",NA,NA,NA,NA,""
"image-keyboard-response",241,199790,"0.0-3.76-2.76","c6bthx3byy52eu3",48,"8.csv","","null","resources/images/coin2.png","null","",NA,NA,NA,NA,""
"image-keyboard-response",242,200183,"0.0-3.77-0.77","c6bthx3byy52eu3",48,"8.csv","","392.10000002384186","resources/trios/L1T2A2.jpg","39","restless",0.3,0.2,0.6,0.0365652034940747,"true"
"image-keyboard-response",243,200588,"0.0-3.77-1.77","c6bthx3byy52eu3",48,"8.csv","","null","resources/maskTrios/BBA2.jpg","null","",NA,NA,NA,NA,""
"image-keyboard-response",244,201794,"0.0-3.77-2.77","c6bthx3byy52eu3",48,"8.csv","","null","resources/images/coin2.png","null","",NA,NA,NA,NA,""
"image-keyboard-response",245,202364,"0.0-3.78-0.78","c6bthx3byy52eu3",48,"8.csv","","568.4000000357628","resources/trios/L1T2A1.jpg","39","restless",0.3,0.2,0.6,0.733496376004158,"false"
"image-keyboard-response",246,202768,"0.0-3.78-1.78","c6bthx3byy52eu3",48,"8.csv","","null","resources/maskTrios/BBA1.jpg","null","",NA,NA,NA,NA,""
"image-keyboard-response",247,203974,"0.0-3.78-2.78","c6bthx3byy52eu3",48,"8.csv","","null","resources/images/fishbone.png","null","",NA,NA,NA,NA,""
"image-keyboard-response",248,204307,"0.0-3.79-0.79","c6bthx3byy52eu3",48,"8.csv","","331.19999998807907","resources/trios/L2T1A2.jpg","38","restless",0.3,0.2,0.6,0.57005357048196,"false"
"image-keyboard-response",249,204709,"0.0-3.79-1.79","c6bthx3byy52eu3",48,"8.csv","","null","resources/maskTrios/BT1B.jpg","null","",NA,NA,NA,NA,""
"image-keyboard-response",250,205915,"0.0-3.79-2.79","c6bthx3byy52eu3",48,"8.csv","","null","resources/images/fishbone.png","null","",NA,NA,NA,NA,""
"image-keyboard-response",251,206257,"0.0-3.80-0.80","c6bthx3byy52eu3",48,"8.csv","","340.2000000476837","resources/trios/L1T2A1.jpg","39","restless",0.3,0.2,0.6,0.413033347757096,"true"
"image-keyboard-response",252,206661,"0.0-3.80-1.80","c6bthx3byy52eu3",48,"8.csv","","null","resources/maskTrios/BBA1.jpg","null","",NA,NA,NA,NA,""
"image-keyboard-response",253,207864,"0.0-3.80-2.80","c6bthx3byy52eu3",48,"8.csv","","null","resources/images/coin2.png","null","",NA,NA,NA,NA,""
"image-keyboard-response",254,208437,"0.0-3.81-0.81","c6bthx3byy52eu3",48,"8.csv","","571.0999999642372","resources/trios/L1T2A1.jpg","39","restless",0.4,0.2,0.5,0.800212807039309,"false"
"image-keyboard-response",255,208843,"0.0-3.81-1.81","c6bthx3byy52eu3",48,"8.csv","","null","resources/maskTrios/BBA1.jpg","null","",NA,NA,NA,NA,""
"image-keyboard-response",256,210050,"0.0-3.81-2.81","c6bthx3byy52eu3",48,"8.csv","","null","resources/images/fishbone.png","null","",NA,NA,NA,NA,""
"image-keyboard-response",257,210372,"0.0-3.82-0.82","c6bthx3byy52eu3",48,"8.csv","","320.80000001192093","resources/trios/L1T2A1.jpg","38","restless",0.4,0.2,0.5,0.992607355909523,"false"
"image-keyboard-response",258,210774,"0.0-3.82-1.82","c6bthx3byy52eu3",48,"8.csv","","null","resources/maskTrios/BT2B.jpg","null","",NA,NA,NA,NA,""
"image-keyboard-response",259,211979,"0.0-3.82-2.82","c6bthx3byy52eu3",48,"8.csv","","null","resources/images/fishbone.png","null","",NA,NA,NA,NA,""
"image-keyboard-response",260,212281,"0.0-3.83-0.83","c6bthx3byy52eu3",48,"8.csv","","300.2999999523163","resources/trios/L1T1A2.jpg","38","restless",0.4,0.2,0.5,0.223462888428855,"false"
"image-keyboard-response",261,212687,"0.0-3.83-1.83","c6bthx3byy52eu3",48,"8.csv","","null","resources/maskTrios/BT1B.jpg","null","",NA,NA,NA,NA,""
"image-keyboard-response",262,213894,"0.0-3.83-2.83","c6bthx3byy52eu3",48,"8.csv","","null","resources/images/fishbone.png","null","",NA,NA,NA,NA,""
"image-keyboard-response",263,214304,"0.0-3.84-0.84","c6bthx3byy52eu3",48,"8.csv","","408.89999997615814","resources/trios/L2T1A1.jpg","38","restless",0.4,0.2,0.5,0.945607077209096,"false"
"image-keyboard-response",264,214710,"0.0-3.84-1.84","c6bthx3byy52eu3",48,"8.csv","","null","resources/maskTrios/BT1B.jpg","null","",NA,NA,NA,NA,""
"image-keyboard-response",265,215917,"0.0-3.84-2.84","c6bthx3byy52eu3",48,"8.csv","","null","resources/images/fishbone.png","null","",NA,NA,NA,NA,""
"image-keyboard-response",266,216670,"0.0-3.85-0.85","c6bthx3byy52eu3",48,"8.csv","","751.6999999880791","resources/trios/L2T2A2.jpg","39","restless",0.4,0.2,0.5,0.738196105586695,"false"
"image-keyboard-response",267,217071,"0.0-3.85-1.85","c6bthx3byy52eu3",48,"8.csv","","null","resources/maskTrios/BBA2.jpg","null","",NA,NA,NA,NA,""
"image-keyboard-response",268,218275,"0.0-3.85-2.85","c6bthx3byy52eu3",48,"8.csv","","null","resources/images/fishbone.png","null","",NA,NA,NA,NA,""
"image-keyboard-response",269,218598,"0.0-3.86-0.86","c6bthx3byy52eu3",48,"8.csv","","321.7999999523163","resources/trios/L1T2A1.jpg","37","restless",0.4,0.3,0.5,0.326582641291346,"true"
"image-keyboard-response",270,219004,"0.0-3.86-1.86","c6bthx3byy52eu3",48,"8.csv","","null","resources/maskTrios/L1BB.jpg","null","",NA,NA,NA,NA,""
"image-keyboard-response",271,220210,"0.0-3.86-2.86","c6bthx3byy52eu3",48,"8.csv","","null","resources/images/coin2.png","null","",NA,NA,NA,NA,""
"image-keyboard-response",272,220958,"0.0-3.87-0.87","c6bthx3byy52eu3",48,"8.csv","","746","resources/trios/L1T2A1.jpg","37","restless",0.4,0.3,0.6,0.359849716009187,"true"
"image-keyboard-response",273,221364,"0.0-3.87-1.87","c6bthx3byy52eu3",48,"8.csv","","null","resources/maskTrios/L1BB.jpg","null","",NA,NA,NA,NA,""
"image-keyboard-response",274,222569,"0.0-3.87-2.87","c6bthx3byy52eu3",48,"8.csv","","null","resources/images/coin2.png","null","",NA,NA,NA,NA,""
"image-keyboard-response",275,222737,"0.0-3.88-0.88","c6bthx3byy52eu3",48,"8.csv","","167.19999998807907","resources/trios/L1T1A1.jpg","37","restless",0.4,0.3,0.6,0.746048755693463,"false"
"image-keyboard-response",276,223140,"0.0-3.88-1.88","c6bthx3byy52eu3",48,"8.csv","","null","resources/maskTrios/L1BB.jpg","null","",NA,NA,NA,NA,""
"image-keyboard-response",277,224342,"0.0-3.88-2.88","c6bthx3byy52eu3",48,"8.csv","","null","resources/images/fishbone.png","null","",NA,NA,NA,NA,""
"image-keyboard-response",278,224403,"0.0-3.89-0.89","c6bthx3byy52eu3",48,"8.csv","","59.19999998807907","resources/trios/L1T2A1.jpg","39","restless",0.4,0.3,0.6,0.341333606039345,"true"
"image-keyboard-response",279,224810,"0.0-3.89-1.89","c6bthx3byy52eu3",48,"8.csv","","null","resources/maskTrios/BBA1.jpg","null","",NA,NA,NA,NA,""
"image-keyboard-response",280,226015,"0.0-3.89-2.89","c6bthx3byy52eu3",48,"8.csv","","null","resources/images/coin2.png","null","",NA,NA,NA,NA,""
"image-keyboard-response",281,227097,"0.0-3.90-0.90","c6bthx3byy52eu3",48,"8.csv","","1081.0999999642372","resources/trios/L1T1A1.jpg","39","restless",0.4,0.3,0.6,0.470452470033893,"true"
"image-keyboard-response",282,227502,"0.0-3.90-1.90","c6bthx3byy52eu3",48,"8.csv","","null","resources/maskTrios/BBA1.jpg","null","",NA,NA,NA,NA,""
"image-keyboard-response",283,228707,"0.0-3.90-2.90","c6bthx3byy52eu3",48,"8.csv","","null","resources/images/coin2.png","null","",NA,NA,NA,NA,""
"image-keyboard-response",284,230351,"0.0-3.91-0.91","c6bthx3byy52eu3",48,"8.csv","","1643.300000011921","resources/trios/L2T1A1.jpg","39","restless",0.4,0.3,0.6,0.745736622942671,"false"
"image-keyboard-response",285,230758,"0.0-3.91-1.91","c6bthx3byy52eu3",48,"8.csv","","null","resources/maskTrios/BBA1.jpg","null","",NA,NA,NA,NA,""
"image-keyboard-response",286,231960,"0.0-3.91-2.91","c6bthx3byy52eu3",48,"8.csv","","null","resources/images/fishbone.png","null","",NA,NA,NA,NA,""
"image-keyboard-response",287,232283,"0.0-3.92-0.92","c6bthx3byy52eu3",48,"8.csv","","322.30000001192093","resources/trios/L2T2A2.jpg","39","restless",0.4,0.3,0.6,0.904272052563931,"false"
"image-keyboard-response",288,232690,"0.0-3.92-1.92","c6bthx3byy52eu3",48,"8.csv","","null","resources/maskTrios/BBA2.jpg","null","",NA,NA,NA,NA,""
"image-keyboard-response",289,233896,"0.0-3.92-2.92","c6bthx3byy52eu3",48,"8.csv","","null","resources/images/fishbone.png","null","",NA,NA,NA,NA,""
"image-keyboard-response",290,234333,"0.0-3.93-0.93","c6bthx3byy52eu3",48,"8.csv","","435.5999999642372","resources/trios/L2T2A2.jpg","38","restless",0.4,0.4,0.6,0.21103349466819,"true"
"image-keyboard-response",291,234735,"0.0-3.93-1.93","c6bthx3byy52eu3",48,"8.csv","","null","resources/maskTrios/BT2B.jpg","null","",NA,NA,NA,NA,""
"image-keyboard-response",292,235940,"0.0-3.93-2.93","c6bthx3byy52eu3",48,"8.csv","","null","resources/images/coin2.png","null","",NA,NA,NA,NA,""
"image-keyboard-response",293,236453,"0.0-3.94-0.94","c6bthx3byy52eu3",48,"8.csv","","511.5","resources/trios/L2T1A2.jpg","38","restless",0.4,0.4,0.6,0.446113050917144,"false"
"image-keyboard-response",294,236856,"0.0-3.94-1.94","c6bthx3byy52eu3",48,"8.csv","","null","resources/maskTrios/BT1B.jpg","null","",NA,NA,NA,NA,""
"image-keyboard-response",295,238062,"0.0-3.94-2.94","c6bthx3byy52eu3",48,"8.csv","","null","resources/images/fishbone.png","null","",NA,NA,NA,NA,""
"image-keyboard-response",296,238789,"0.0-3.95-0.95","c6bthx3byy52eu3",48,"8.csv","","725.5999999642372","resources/trios/L2T2A1.jpg","39","restless",0.4,0.4,0.6,0.149794570883245,"true"
"image-keyboard-response",297,239195,"0.0-3.95-1.95","c6bthx3byy52eu3",48,"8.csv","","null","resources/maskTrios/BBA1.jpg","null","",NA,NA,NA,NA,""
"image-keyboard-response",298,240401,"0.0-3.95-2.95","c6bthx3byy52eu3",48,"8.csv","","null","resources/images/coin2.png","null","",NA,NA,NA,NA,""
"image-keyboard-response",299,241025,"0.0-3.96-0.96","c6bthx3byy52eu3",48,"8.csv","","622.3000000119209","resources/trios/L1T2A2.jpg","39","restless",0.4,0.4,0.6,0.150011073831478,"true"
"image-keyboard-response",300,241432,"0.0-3.96-1.96","c6bthx3byy52eu3",48,"8.csv","","null","resources/maskTrios/BBA2.jpg","null","",NA,NA,NA,NA,""
"image-keyboard-response",301,242635,"0.0-3.96-2.96","c6bthx3byy52eu3",48,"8.csv","","null","resources/images/coin2.png","null","",NA,NA,NA,NA,""
"image-keyboard-response",302,243596,"0.0-3.97-0.97","c6bthx3byy52eu3",48,"8.csv","","959","resources/trios/L1T2A1.jpg","39","restless",0.4,0.4,0.6,0.502018515901325,"true"
"image-keyboard-response",303,244001,"0.0-3.97-1.97","c6bthx3byy52eu3",48,"8.csv","","null","resources/maskTrios/BBA1.jpg","null","",NA,NA,NA,NA,""
"image-keyboard-response",304,245207,"0.0-3.97-2.97","c6bthx3byy52eu3",48,"8.csv","","null","resources/images/coin2.png","null","",NA,NA,NA,NA,""
"image-keyboard-response",305,246016,"0.0-3.98-0.98","c6bthx3byy52eu3",48,"8.csv","","807.5","resources/trios/L2T2A2.jpg","38","restless",0.4,0.4,0.5,0.795148939593929,"false"
"image-keyboard-response",306,246421,"0.0-3.98-1.98","c6bthx3byy52eu3",48,"8.csv","","null","resources/maskTrios/BT2B.jpg","null","",NA,NA,NA,NA,""
"image-keyboard-response",307,247628,"0.0-3.98-2.98","c6bthx3byy52eu3",48,"8.csv","","null","resources/images/fishbone.png","null","",NA,NA,NA,NA,""
"image-keyboard-response",308,248512,"0.0-3.99-0.99","c6bthx3byy52eu3",48,"8.csv","","883.2000000476837","resources/trios/L1T1A1.jpg","39","restless",0.4,0.4,0.5,0.300780878740065,"true"
"image-keyboard-response",309,248918,"0.0-3.99-1.99","c6bthx3byy52eu3",48,"8.csv","","null","resources/maskTrios/BBA1.jpg","null","",NA,NA,NA,NA,""
"image-keyboard-response",310,250125,"0.0-3.99-2.99","c6bthx3byy52eu3",48,"8.csv","","null","resources/images/coin2.png","null","",NA,NA,NA,NA,""
"image-keyboard-response",311,250430,"0.0-3.100-0.100","c6bthx3byy52eu3",48,"8.csv","","303.89999997615814","resources/trios/L2T2A1.jpg","39","restless",0.4,0.4,0.5,0.589799331607505,"false"
"image-keyboard-response",312,250835,"0.0-3.100-1.100","c6bthx3byy52eu3",48,"8.csv","","null","resources/maskTrios/BBA1.jpg","null","",NA,NA,NA,NA,""
"image-keyboard-response",313,252041,"0.0-3.100-2.100","c6bthx3byy52eu3",48,"8.csv","","null","resources/images/fishbone.png","null","",NA,NA,NA,NA,""
"image-keyboard-response",314,252046,"0.0-3.101-0.101","c6bthx3byy52eu3",48,"8.csv","","3.800000011920929","resources/trios/L1T2A2.jpg","39","restless",0.5,0.4,0.5,0.366184693445941,"true"
"image-keyboard-response",315,252450,"0.0-3.101-1.101","c6bthx3byy52eu3",48,"8.csv","","null","resources/maskTrios/BBA2.jpg","null","",NA,NA,NA,NA,""
"image-keyboard-response",316,253654,"0.0-3.101-2.101","c6bthx3byy52eu3",48,"8.csv","","null","resources/images/coin2.png","null","",NA,NA,NA,NA,""
"image-keyboard-response",317,254459,"0.0-3.102-0.102","c6bthx3byy52eu3",48,"8.csv","","803.2999999523163","resources/trios/L2T2A2.jpg","39","restless",0.5,0.4,0.5,0.696962414480295,"false"
"image-keyboard-response",318,254865,"0.0-3.102-1.102","c6bthx3byy52eu3",48,"8.csv","","null","resources/maskTrios/BBA2.jpg","null","",NA,NA,NA,NA,""
"image-keyboard-response",319,256072,"0.0-3.102-2.102","c6bthx3byy52eu3",48,"8.csv","","null","resources/images/fishbone.png","null","",NA,NA,NA,NA,""
"image-keyboard-response",320,256413,"0.0-3.103-0.103","c6bthx3byy52eu3",48,"8.csv","","339.7999999523163","resources/trios/L1T1A1.jpg","37","restless",0.5,0.4,0.5,0.174759264559148,"true"
"image-keyboard-response",321,256818,"0.0-3.103-1.103","c6bthx3byy52eu3",48,"8.csv","","null","resources/maskTrios/L1BB.jpg","null","",NA,NA,NA,NA,""
"image-keyboard-response",322,258023,"0.0-3.103-2.103","c6bthx3byy52eu3",48,"8.csv","","null","resources/images/coin2.png","null","",NA,NA,NA,NA,""
"image-keyboard-response",323,258351,"0.0-3.104-0.104","c6bthx3byy52eu3",48,"8.csv","","326","resources/trios/L2T2A2.jpg","37","restless",0.6,0.4,0.5,0.614900485312136,"false"
"image-keyboard-response",324,258757,"0.0-3.104-1.104","c6bthx3byy52eu3",48,"8.csv","","null","resources/maskTrios/L2BB.jpg","null","",NA,NA,NA,NA,""
"image-keyboard-response",325,259960,"0.0-3.104-2.104","c6bthx3byy52eu3",48,"8.csv","","null","resources/images/fishbone.png","null","",NA,NA,NA,NA,""
"image-keyboard-response",326,260377,"0.0-3.105-0.105","c6bthx3byy52eu3",48,"8.csv","","415.5","resources/trios/L2T1A1.jpg","37","restless",0.6,0.4,0.5,0.287466788743125,"true"
"image-keyboard-response",327,260783,"0.0-3.105-1.105","c6bthx3byy52eu3",48,"8.csv","","null","resources/maskTrios/L2BB.jpg","null","",NA,NA,NA,NA,""
"image-keyboard-response",328,261985,"0.0-3.105-2.105","c6bthx3byy52eu3",48,"8.csv","","null","resources/images/coin2.png","null","",NA,NA,NA,NA,""
"image-keyboard-response",329,262124,"0.0-3.106-0.106","c6bthx3byy52eu3",48,"8.csv","","137.5","resources/trios/L1T2A2.jpg","37","restless",0.6,0.3,0.5,0.198954397370366,"true"
"image-keyboard-response",330,262531,"0.0-3.106-1.106","c6bthx3byy52eu3",48,"8.csv","","null","resources/maskTrios/L1BB.jpg","null","",NA,NA,NA,NA,""
"image-keyboard-response",331,263736,"0.0-3.106-2.106","c6bthx3byy52eu3",48,"8.csv","","null","resources/images/coin2.png","null","",NA,NA,NA,NA,""
"image-keyboard-response",332,264800,"0.0-3.107-0.107","c6bthx3byy52eu3",48,"8.csv","","1063.199999988079","resources/trios/L2T2A2.jpg","37","restless",0.6,0.3,0.5,0.597124361348928,"true"
"image-keyboard-response",333,265207,"0.0-3.107-1.107","c6bthx3byy52eu3",48,"8.csv","","null","resources/maskTrios/L2BB.jpg","null","",NA,NA,NA,NA,""
"image-keyboard-response",334,266413,"0.0-3.107-2.107","c6bthx3byy52eu3",48,"8.csv","","null","resources/images/coin2.png","null","",NA,NA,NA,NA,""
"image-keyboard-response",335,267478,"0.0-3.108-0.108","c6bthx3byy52eu3",48,"8.csv","","1062.9000000357628","resources/trios/L1T1A1.jpg","37","restless",0.6,0.3,0.5,0.0663474768285386,"true"
"image-keyboard-response",336,267884,"0.0-3.108-1.108","c6bthx3byy52eu3",48,"8.csv","","null","resources/maskTrios/L1BB.jpg","null","",NA,NA,NA,NA,""
"image-keyboard-response",337,269086,"0.0-3.108-2.108","c6bthx3byy52eu3",48,"8.csv","","null","resources/images/coin2.png","null","",NA,NA,NA,NA,""
"image-keyboard-response",338,269163,"0.0-3.109-0.109","c6bthx3byy52eu3",48,"8.csv","","76.20000004768372","resources/trios/L2T2A2.jpg","37","restless",0.6,0.3,0.5,0.594225898006027,"true"
"image-keyboard-response",339,269570,"0.0-3.109-1.109","c6bthx3byy52eu3",48,"8.csv","","null","resources/maskTrios/L2BB.jpg","null","",NA,NA,NA,NA,""
"image-keyboard-response",340,270776,"0.0-3.109-2.109","c6bthx3byy52eu3",48,"8.csv","","null","resources/images/coin2.png","null","",NA,NA,NA,NA,""
"image-keyboard-response",341,270870,"0.0-3.110-0.110","c6bthx3byy52eu3",48,"8.csv","","92.79999995231628","resources/trios/L1T1A1.jpg","37","restless",0.6,0.3,0.5,0.973168264192448,"false"
"image-keyboard-response",342,271276,"0.0-3.110-1.110","c6bthx3byy52eu3",48,"8.csv","","null","resources/maskTrios/L1BB.jpg","null","",NA,NA,NA,NA,""
"image-keyboard-response",343,272480,"0.0-3.110-2.110","c6bthx3byy52eu3",48,"8.csv","","null","resources/images/fishbone.png","null","",NA,NA,NA,NA,""
"image-keyboard-response",344,272782,"0.0-3.111-0.111","c6bthx3byy52eu3",48,"8.csv","","299.80000001192093","resources/trios/L1T1A1.jpg","37","restless",0.7,0.3,0.5,0.568736315083053,"true"
"image-keyboard-response",345,273188,"0.0-3.111-1.111","c6bthx3byy52eu3",48,"8.csv","","null","resources/maskTrios/L1BB.jpg","null","",NA,NA,NA,NA,""
"image-keyboard-response",346,274395,"0.0-3.111-2.111","c6bthx3byy52eu3",48,"8.csv","","null","resources/images/coin2.png","null","",NA,NA,NA,NA,""
"image-keyboard-response",347,274682,"0.0-3.112-0.112","c6bthx3byy52eu3",48,"8.csv","","286","resources/trios/L1T2A2.jpg","37","restless",0.7,0.3,0.5,0.759000093486113,"false"
"image-keyboard-response",348,275085,"0.0-3.112-1.112","c6bthx3byy52eu3",48,"8.csv","","null","resources/maskTrios/L1BB.jpg","null","",NA,NA,NA,NA,""
"image-keyboard-response",349,276288,"0.0-3.112-2.112","c6bthx3byy52eu3",48,"8.csv","","null","resources/images/fishbone.png","null","",NA,NA,NA,NA,""
"image-keyboard-response",350,276782,"0.0-3.113-0.113","c6bthx3byy52eu3",48,"8.csv","","493.10000002384186","resources/trios/L1T1A1.jpg","37","restless",0.7,0.3,0.5,0.535958553393083,"true"
"image-keyboard-response",351,277184,"0.0-3.113-1.113","c6bthx3byy52eu3",48,"8.csv","","null","resources/maskTrios/L1BB.jpg","null","",NA,NA,NA,NA,""
"image-keyboard-response",352,278391,"0.0-3.113-2.113","c6bthx3byy52eu3",48,"8.csv","","null","resources/images/coin2.png","null","",NA,NA,NA,NA,""
"image-keyboard-response",353,278726,"0.0-3.114-0.114","c6bthx3byy52eu3",48,"8.csv","","334","resources/trios/L2T1A2.jpg","37","restless",0.8,0.3,0.5,0.861847473465583,"false"
"image-keyboard-response",354,279133,"0.0-3.114-1.114","c6bthx3byy52eu3",48,"8.csv","","null","resources/maskTrios/L2BB.jpg","null","",NA,NA,NA,NA,""
"image-keyboard-response",355,280336,"0.0-3.114-2.114","c6bthx3byy52eu3",48,"8.csv","","null","resources/images/fishbone.png","null","",NA,NA,NA,NA,""
"image-keyboard-response",356,280348,"0.0-3.115-0.115","c6bthx3byy52eu3",48,"8.csv","","10.100000023841858","resources/trios/L2T1A2.jpg","37","restless",0.8,0.3,0.5,0.00766421110063487,"true"
"image-keyboard-response",357,280754,"0.0-3.115-1.115","c6bthx3byy52eu3",48,"8.csv","","null","resources/maskTrios/L2BB.jpg","null","",NA,NA,NA,NA,""
"image-keyboard-response",358,281958,"0.0-3.115-2.115","c6bthx3byy52eu3",48,"8.csv","","null","resources/images/coin2.png","null","",NA,NA,NA,NA,""
"image-keyboard-response",359,282387,"0.0-3.116-0.116","c6bthx3byy52eu3",48,"8.csv","","427.60000002384186","resources/trios/L2T1A1.jpg","37","restless",0.8,0.3,0.6,0.732685572411968,"true"
"image-keyboard-response",360,282794,"0.0-3.116-1.116","c6bthx3byy52eu3",48,"8.csv","","null","resources/maskTrios/L2BB.jpg","null","",NA,NA,NA,NA,""
"image-keyboard-response",361,283997,"0.0-3.116-2.116","c6bthx3byy52eu3",48,"8.csv","","null","resources/images/coin2.png","null","",NA,NA,NA,NA,""
"image-keyboard-response",362,285308,"0.0-3.117-0.117","c6bthx3byy52eu3",48,"8.csv","","1309.7000000476837","resources/trios/L1T1A1.jpg","37","restless",0.8,0.3,0.6,0.677111561492191,"true"
"image-keyboard-response",363,285712,"0.0-3.117-1.117","c6bthx3byy52eu3",48,"8.csv","","null","resources/maskTrios/L1BB.jpg","null","",NA,NA,NA,NA,""
"image-keyboard-response",364,286915,"0.0-3.117-2.117","c6bthx3byy52eu3",48,"8.csv","","null","resources/images/coin2.png","null","",NA,NA,NA,NA,""
"image-keyboard-response",365,287210,"0.0-3.118-0.118","c6bthx3byy52eu3",48,"8.csv","","294","resources/trios/L2T2A2.jpg","37","restless",0.8,0.4,0.6,0.830297935490238,"false"
"image-keyboard-response",366,287617,"0.0-3.118-1.118","c6bthx3byy52eu3",48,"8.csv","","null","resources/maskTrios/L2BB.jpg","null","",NA,NA,NA,NA,""
"image-keyboard-response",367,288823,"0.0-3.118-2.118","c6bthx3byy52eu3",48,"8.csv","","null","resources/images/fishbone.png","null","",NA,NA,NA,NA,""
"image-keyboard-response",368,289184,"0.0-3.119-0.119","c6bthx3byy52eu3",48,"8.csv","","359.69999998807907","resources/trios/L1T1A1.jpg","37","restless",0.8,0.4,0.6,0.489113670944445,"true"
"image-keyboard-response",369,289586,"0.0-3.119-1.119","c6bthx3byy52eu3",48,"8.csv","","null","resources/maskTrios/L1BB.jpg","null","",NA,NA,NA,NA,""
"image-keyboard-response",370,290793,"0.0-3.119-2.119","c6bthx3byy52eu3",48,"8.csv","","null","resources/images/coin2.png","null","",NA,NA,NA,NA,""
"image-keyboard-response",371,290835,"0.0-3.120-0.120","c6bthx3byy52eu3",48,"8.csv","","41.39999997615814","resources/trios/L1T1A1.jpg","37","restless",0.8,0.4,0.6,0.659206826031221,"true"
"image-keyboard-response",372,291242,"0.0-3.120-1.120","c6bthx3byy52eu3",48,"8.csv","","null","resources/maskTrios/L1BB.jpg","null","",NA,NA,NA,NA,""
"image-keyboard-response",373,292444,"0.0-3.120-2.120","c6bthx3byy52eu3",48,"8.csv","","null","resources/images/coin2.png","null","",NA,NA,NA,NA,""
"image-keyboard-response",374,295497,"0.0-3.121-0.121","c6bthx3byy52eu3",48,"8.csv","","3051","resources/trios/L1T2A2.jpg","39","restless",0.8,0.4,0.6,0.264953006826375,"true"
"image-keyboard-response",375,295901,"0.0-3.121-1.121","c6bthx3byy52eu3",48,"8.csv","","null","resources/maskTrios/BBA2.jpg","null","",NA,NA,NA,NA,""
"image-keyboard-response",376,297107,"0.0-3.121-2.121","c6bthx3byy52eu3",48,"8.csv","","null","resources/images/coin2.png","null","",NA,NA,NA,NA,""
"image-keyboard-response",377,297951,"0.0-3.122-0.122","c6bthx3byy52eu3",48,"8.csv","","843.3000000119209","resources/trios/L2T1A1.jpg","39","restless",0.8,0.4,0.6,0.867780254716243,"false"
"image-keyboard-response",378,298355,"0.0-3.122-1.122","c6bthx3byy52eu3",48,"8.csv","","null","resources/maskTrios/BBA1.jpg","null","",NA,NA,NA,NA,""
"image-keyboard-response",379,299561,"0.0-3.122-2.122","c6bthx3byy52eu3",48,"8.csv","","null","resources/images/fishbone.png","null","",NA,NA,NA,NA,""
"image-keyboard-response",380,300221,"0.0-3.123-0.123","c6bthx3byy52eu3",48,"8.csv","","657.7999999523163","resources/trios/L2T1A1.jpg","39","restless",0.8,0.4,0.6,0.327766116441068,"true"
"image-keyboard-response",381,300622,"0.0-3.123-1.123","c6bthx3byy52eu3",48,"8.csv","","null","resources/maskTrios/BBA1.jpg","null","",NA,NA,NA,NA,""
"image-keyboard-response",382,301827,"0.0-3.123-2.123","c6bthx3byy52eu3",48,"8.csv","","null","resources/images/coin2.png","null","",NA,NA,NA,NA,""
"image-keyboard-response",383,302327,"0.0-3.124-0.124","c6bthx3byy52eu3",48,"8.csv","","498.30000001192093","resources/trios/L1T1A2.jpg","39","restless",0.8,0.5,0.6,0.0643717157367008,"true"
"image-keyboard-response",384,302729,"0.0-3.124-1.124","c6bthx3byy52eu3",48,"8.csv","","null","resources/maskTrios/BBA2.jpg","null","",NA,NA,NA,NA,""
"image-keyboard-response",385,303934,"0.0-3.124-2.124","c6bthx3byy52eu3",48,"8.csv","","null","resources/images/coin2.png","null","",NA,NA,NA,NA,""
"image-keyboard-response",386,304159,"0.0-3.125-0.125","c6bthx3byy52eu3",48,"8.csv","","223.5999999642372","resources/trios/L2T1A2.jpg","39","restless",0.8,0.5,0.6,0.307775091712366,"true"
"image-keyboard-response",387,304566,"0.0-3.125-1.125","c6bthx3byy52eu3",48,"8.csv","","null","resources/maskTrios/BBA2.jpg","null","",NA,NA,NA,NA,""
"image-keyboard-response",388,305767,"0.0-3.125-2.125","c6bthx3byy52eu3",48,"8.csv","","null","resources/images/coin2.png","null","",NA,NA,NA,NA,""
"image-keyboard-response",389,306213,"0.0-3.126-0.126","c6bthx3byy52eu3",48,"8.csv","","444.30000001192093","resources/trios/L2T1A2.jpg","39","restless",0.8,0.5,0.6,0.240931357305436,"true"
"image-keyboard-response",390,306617,"0.0-3.126-1.126","c6bthx3byy52eu3",48,"8.csv","","null","resources/maskTrios/BBA2.jpg","null","",NA,NA,NA,NA,""
"image-keyboard-response",391,307824,"0.0-3.126-2.126","c6bthx3byy52eu3",48,"8.csv","","null","resources/images/coin2.png","null","",NA,NA,NA,NA,""
"image-keyboard-response",392,308550,"0.0-3.127-0.127","c6bthx3byy52eu3",48,"8.csv","","725.6000000238419","resources/trios/L1T2A2.jpg","39","restless",0.8,0.5,0.6,0.574021664990988,"true"
"image-keyboard-response",393,308955,"0.0-3.127-1.127","c6bthx3byy52eu3",48,"8.csv","","null","resources/maskTrios/BBA2.jpg","null","",NA,NA,NA,NA,""
"image-keyboard-response",394,310161,"0.0-3.127-2.127","c6bthx3byy52eu3",48,"8.csv","","null","resources/images/coin2.png","null","",NA,NA,NA,NA,""
"image-keyboard-response",395,311111,"0.0-3.128-0.128","c6bthx3byy52eu3",48,"8.csv","","948.5","resources/trios/L2T2A2.jpg","39","restless",0.8,0.5,0.6,0.378230509767779,"true"
"image-keyboard-response",396,311518,"0.0-3.128-1.128","c6bthx3byy52eu3",48,"8.csv","","null","resources/maskTrios/BBA2.jpg","null","",NA,NA,NA,NA,""
"image-keyboard-response",397,312724,"0.0-3.128-2.128","c6bthx3byy52eu3",48,"8.csv","","null","resources/images/coin2.png","null","",NA,NA,NA,NA,""
"image-keyboard-response",398,313054,"0.0-3.129-0.129","c6bthx3byy52eu3",48,"8.csv","","328.4000000357628","resources/trios/L1T2A1.jpg","39","restless",0.8,0.5,0.6,0.249062589919745,"true"
"image-keyboard-response",399,313459,"0.0-3.129-1.129","c6bthx3byy52eu3",48,"8.csv","","null","resources/maskTrios/BBA1.jpg","null","",NA,NA,NA,NA,""
"image-keyboard-response",400,314665,"0.0-3.129-2.129","c6bthx3byy52eu3",48,"8.csv","","null","resources/images/coin2.png","null","",NA,NA,NA,NA,""
"image-keyboard-response",401,314964,"0.0-3.130-0.130","c6bthx3byy52eu3",48,"8.csv","","297.89999997615814","resources/trios/L2T1A1.jpg","39","restless",0.8,0.5,0.6,0.972718744911024,"false"
"image-keyboard-response",402,315367,"0.0-3.130-1.130","c6bthx3byy52eu3",48,"8.csv","","null","resources/maskTrios/BBA1.jpg","null","",NA,NA,NA,NA,""
"image-keyboard-response",403,316573,"0.0-3.130-2.130","c6bthx3byy52eu3",48,"8.csv","","null","resources/images/fishbone.png","null","",NA,NA,NA,NA,""
"image-keyboard-response",404,316889,"0.0-3.131-0.131","c6bthx3byy52eu3",48,"8.csv","","314.60000002384186","resources/trios/L2T2A2.jpg","37","restless",0.8,0.6,0.6,0.132402462826583,"true"
"image-keyboard-response",405,317296,"0.0-3.131-1.131","c6bthx3byy52eu3",48,"8.csv","","null","resources/maskTrios/L2BB.jpg","null","",NA,NA,NA,NA,""
"image-keyboard-response",406,318501,"0.0-3.131-2.131","c6bthx3byy52eu3",48,"8.csv","","null","resources/images/coin2.png","null","",NA,NA,NA,NA,""
"image-keyboard-response",407,318817,"0.0-3.132-0.132","c6bthx3byy52eu3",48,"8.csv","","315.30000001192093","resources/trios/L2T2A2.jpg","37","restless",0.7,0.6,0.6,0.127476646641814,"true"
"image-keyboard-response",408,319224,"0.0-3.132-1.132","c6bthx3byy52eu3",48,"8.csv","","null","resources/maskTrios/L2BB.jpg","null","",NA,NA,NA,NA,""
"image-keyboard-response",409,320429,"0.0-3.132-2.132","c6bthx3byy52eu3",48,"8.csv","","null","resources/images/coin2.png","null","",NA,NA,NA,NA,""
"image-keyboard-response",410,320752,"0.0-3.133-0.133","c6bthx3byy52eu3",48,"8.csv","","321.5999999642372","resources/trios/L1T2A2.jpg","37","restless",0.7,0.6,0.6,0.800857781609652,"false"
"image-keyboard-response",411,321156,"0.0-3.133-1.133","c6bthx3byy52eu3",48,"8.csv","","null","resources/maskTrios/L1BB.jpg","null","",NA,NA,NA,NA,""
"image-keyboard-response",412,322358,"0.0-3.133-2.133","c6bthx3byy52eu3",48,"8.csv","","null","resources/images/fishbone.png","null","",NA,NA,NA,NA,""
"image-keyboard-response",413,322743,"0.0-3.134-0.134","c6bthx3byy52eu3",48,"8.csv","","383.4000000357628","resources/trios/L1T2A1.jpg","37","restless",0.7,0.6,0.6,0.59965460271639,"true"
"image-keyboard-response",414,323151,"0.0-3.134-1.134","c6bthx3byy52eu3",48,"8.csv","","null","resources/maskTrios/L1BB.jpg","null","",NA,NA,NA,NA,""
"image-keyboard-response",415,324357,"0.0-3.134-2.134","c6bthx3byy52eu3",48,"8.csv","","null","resources/images/coin2.png","null","",NA,NA,NA,NA,""
"image-keyboard-response",416,324449,"0.0-3.135-0.135","c6bthx3byy52eu3",48,"8.csv","","90.39999997615814","resources/trios/L2T2A2.jpg","37","restless",0.7,0.6,0.6,0.775891279098669,"false"
"image-keyboard-response",417,324851,"0.0-3.135-1.135","c6bthx3byy52eu3",48,"8.csv","","null","resources/maskTrios/L2BB.jpg","null","",NA,NA,NA,NA,""
"image-keyboard-response",418,326053,"0.0-3.135-2.135","c6bthx3byy52eu3",48,"8.csv","","null","resources/images/fishbone.png","null","",NA,NA,NA,NA,""
"image-keyboard-response",419,326424,"0.0-3.136-0.136","c6bthx3byy52eu3",48,"8.csv","","369.60000002384186","resources/trios/L2T2A1.jpg","37","restless",0.7,0.6,0.6,0.936688844007273,"false"
"image-keyboard-response",420,326831,"0.0-3.136-1.136","c6bthx3byy52eu3",48,"8.csv","","null","resources/maskTrios/L2BB.jpg","null","",NA,NA,NA,NA,""
"image-keyboard-response",421,328037,"0.0-3.136-2.136","c6bthx3byy52eu3",48,"8.csv","","null","resources/images/fishbone.png","null","",NA,NA,NA,NA,""
"image-keyboard-response",422,328417,"0.0-3.137-0.137","c6bthx3byy52eu3",48,"8.csv","","379","resources/trios/L2T1A2.jpg","39","restless",0.7,0.6,0.6,0.221555719740429,"true"
"image-keyboard-response",423,328824,"0.0-3.137-1.137","c6bthx3byy52eu3",48,"8.csv","","null","resources/maskTrios/BBA2.jpg","null","",NA,NA,NA,NA,""
"image-keyboard-response",424,330026,"0.0-3.137-2.137","c6bthx3byy52eu3",48,"8.csv","","null","resources/images/coin2.png","null","",NA,NA,NA,NA,""
"image-keyboard-response",425,331120,"0.0-3.138-0.138","c6bthx3byy52eu3",48,"8.csv","","1092.699999988079","resources/trios/L2T1A2.jpg","39","restless",0.7,0.6,0.5,0.923836355017193,"false"
"image-keyboard-response",426,331525,"0.0-3.138-1.138","c6bthx3byy52eu3",48,"8.csv","","null","resources/maskTrios/BBA2.jpg","null","",NA,NA,NA,NA,""
"image-keyboard-response",427,332731,"0.0-3.138-2.138","c6bthx3byy52eu3",48,"8.csv","","null","resources/images/fishbone.png","null","",NA,NA,NA,NA,""
"image-keyboard-response",428,334445,"0.0-3.139-0.139","c6bthx3byy52eu3",48,"8.csv","","1712.5999999642372","resources/trios/L1T2A2.jpg","39","restless",0.6,0.6,0.5,0.987627151145962,"false"
"image-keyboard-response",429,334850,"0.0-3.139-1.139","c6bthx3byy52eu3",48,"8.csv","","null","resources/maskTrios/BBA2.jpg","null","",NA,NA,NA,NA,""
"image-keyboard-response",430,336057,"0.0-3.139-2.139","c6bthx3byy52eu3",48,"8.csv","","null","resources/images/fishbone.png","null","",NA,NA,NA,NA,""
"image-keyboard-response",431,336312,"0.0-3.140-0.140","c6bthx3byy52eu3",48,"8.csv","","254.30000001192093","resources/trios/L2T2A1.jpg","37","restless",0.6,0.6,0.5,0.495100157356047,"true"
"image-keyboard-response",432,336719,"0.0-3.140-1.140","c6bthx3byy52eu3",48,"8.csv","","null","resources/maskTrios/L2BB.jpg","null","",NA,NA,NA,NA,""
"image-keyboard-response",433,337921,"0.0-3.140-2.140","c6bthx3byy52eu3",48,"8.csv","","null","resources/images/coin2.png","null","",NA,NA,NA,NA,""
"image-keyboard-response",434,338371,"0.0-3.141-0.141","c6bthx3byy52eu3",48,"8.csv","","449.10000002384186","resources/trios/L2T2A2.jpg","37","restless",0.6,0.6,0.5,0.644894524885924,"false"
"image-keyboard-response",435,338777,"0.0-3.141-1.141","c6bthx3byy52eu3",48,"8.csv","","null","resources/maskTrios/L2BB.jpg","null","",NA,NA,NA,NA,""
"image-keyboard-response",436,339983,"0.0-3.141-2.141","c6bthx3byy52eu3",48,"8.csv","","null","resources/images/fishbone.png","null","",NA,NA,NA,NA,""
"image-keyboard-response",437,340353,"0.0-3.142-0.142","c6bthx3byy52eu3",48,"8.csv","","369.19999998807907","resources/trios/L1T2A2.jpg","39","restless",0.6,0.6,0.5,0.238065303706711,"true"
"image-keyboard-response",438,340760,"0.0-3.142-1.142","c6bthx3byy52eu3",48,"8.csv","","null","resources/maskTrios/BBA2.jpg","null","",NA,NA,NA,NA,""
"image-keyboard-response",439,341962,"0.0-3.142-2.142","c6bthx3byy52eu3",48,"8.csv","","null","resources/images/coin2.png","null","",NA,NA,NA,NA,""
"image-keyboard-response",440,342323,"0.0-3.143-0.143","c6bthx3byy52eu3",48,"8.csv","","358.5","resources/trios/L2T2A2.jpg","39","restless",0.5,0.6,0.5,0.0831670366467578,"true"
"image-keyboard-response",441,342729,"0.0-3.143-1.143","c6bthx3byy52eu3",48,"8.csv","","null","resources/maskTrios/BBA2.jpg","null","",NA,NA,NA,NA,""
"image-keyboard-response",442,343934,"0.0-3.143-2.143","c6bthx3byy52eu3",48,"8.csv","","null","resources/images/coin2.png","null","",NA,NA,NA,NA,""
"image-keyboard-response",443,344434,"0.0-3.144-0.144","c6bthx3byy52eu3",48,"8.csv","","498.69999998807907","resources/trios/L1T1A2.jpg","39","restless",0.5,0.6,0.5,0.0592605189185802,"true"
"image-keyboard-response",444,344839,"0.0-3.144-1.144","c6bthx3byy52eu3",48,"8.csv","","null","resources/maskTrios/BBA2.jpg","null","",NA,NA,NA,NA,""
"image-keyboard-response",445,346041,"0.0-3.144-2.144","c6bthx3byy52eu3",48,"8.csv","","null","resources/images/coin2.png","null","",NA,NA,NA,NA,""
"image-keyboard-response",446,346507,"0.0-3.145-0.145","c6bthx3byy52eu3",48,"8.csv","","463.7000000476837","resources/trios/L1T1A2.jpg","39","restless",0.5,0.6,0.5,0.0456439696595996,"true"
"image-keyboard-response",447,346908,"0.0-3.145-1.145","c6bthx3byy52eu3",48,"8.csv","","null","resources/maskTrios/BBA2.jpg","null","",NA,NA,NA,NA,""
"image-keyboard-response",448,348115,"0.0-3.145-2.145","c6bthx3byy52eu3",48,"8.csv","","null","resources/images/coin2.png","null","",NA,NA,NA,NA,""
"image-keyboard-response",449,348581,"0.0-3.146-0.146","c6bthx3byy52eu3",48,"8.csv","","464.5","resources/trios/L2T1A2.jpg","39","restless",0.5,0.6,0.5,0.971477651489841,"false"
"image-keyboard-response",450,348983,"0.0-3.146-1.146","c6bthx3byy52eu3",48,"8.csv","","null","resources/maskTrios/BBA2.jpg","null","",NA,NA,NA,NA,""
"image-keyboard-response",451,350185,"0.0-3.146-2.146","c6bthx3byy52eu3",48,"8.csv","","null","resources/images/fishbone.png","null","",NA,NA,NA,NA,""
"image-keyboard-response",452,350483,"0.0-3.147-0.147","c6bthx3byy52eu3",48,"8.csv","","296.19999998807907","resources/trios/L1T2A1.jpg","39","restless",0.4,0.6,0.5,0.0764056248002936,"true"
"image-keyboard-response",453,350889,"0.0-3.147-1.147","c6bthx3byy52eu3",48,"8.csv","","null","resources/maskTrios/BBA1.jpg","null","",NA,NA,NA,NA,""
"image-keyboard-response",454,352096,"0.0-3.147-2.147","c6bthx3byy52eu3",48,"8.csv","","null","resources/images/coin2.png","null","",NA,NA,NA,NA,""
"image-keyboard-response",455,352544,"0.0-3.148-0.148","c6bthx3byy52eu3",48,"8.csv","","446.5999999642372","resources/trios/L2T2A2.jpg","39","restless",0.4,0.6,0.5,0.468941183814342,"true"
"image-keyboard-response",456,352949,"0.0-3.148-1.148","c6bthx3byy52eu3",48,"8.csv","","null","resources/maskTrios/BBA2.jpg","null","",NA,NA,NA,NA,""
"image-keyboard-response",457,354156,"0.0-3.148-2.148","c6bthx3byy52eu3",48,"8.csv","","null","resources/images/coin2.png","null","",NA,NA,NA,NA,""
"image-keyboard-response",458,354490,"0.0-3.149-0.149","c6bthx3byy52eu3",48,"8.csv","","332.2000000476837","resources/trios/L1T1A2.jpg","39","restless",0.4,0.6,0.5,0.804335228017983,"false"
"image-keyboard-response",459,354896,"0.0-3.149-1.149","c6bthx3byy52eu3",48,"8.csv","","null","resources/maskTrios/BBA2.jpg","null","",NA,NA,NA,NA,""
"image-keyboard-response",460,356100,"0.0-3.149-2.149","c6bthx3byy52eu3",48,"8.csv","","null","resources/images/fishbone.png","null","",NA,NA,NA,NA,""
"image-keyboard-response",461,356460,"0.0-3.150-0.150","c6bthx3byy52eu3",48,"8.csv","","358.2000000476837","resources/trios/L1T2A1.jpg","39","restless",0.3,0.6,0.5,0.866502300042598,"false"
"image-keyboard-response",462,356866,"0.0-3.150-1.150","c6bthx3byy52eu3",48,"8.csv","","null","resources/maskTrios/BBA1.jpg","null","",NA,NA,NA,NA,""
"image-keyboard-response",463,358073,"0.0-3.150-2.150","c6bthx3byy52eu3",48,"8.csv","","null","resources/images/fishbone.png","null","",NA,NA,NA,NA,""
"image-keyboard-response",464,358204,"0.0-3.151-0.151","c6bthx3byy52eu3",48,"8.csv","","130.5","resources/trios/L2T2A1.jpg","37","restless",0.3,0.7,0.5,0.897520613773479,"false"
"image-keyboard-response",465,358607,"0.0-3.151-1.151","c6bthx3byy52eu3",48,"8.csv","","null","resources/maskTrios/L2BB.jpg","null","",NA,NA,NA,NA,""
"image-keyboard-response",466,359814,"0.0-3.151-2.151","c6bthx3byy52eu3",48,"8.csv","","null","resources/images/fishbone.png","null","",NA,NA,NA,NA,""
"image-keyboard-response",467,360154,"0.0-3.152-0.152","c6bthx3byy52eu3",48,"8.csv","","339.19999998807907","resources/trios/L1T2A2.jpg","39","restless",0.3,0.7,0.5,0.361519536964561,"true"
"image-keyboard-response",468,360556,"0.0-3.152-1.152","c6bthx3byy52eu3",48,"8.csv","","null","resources/maskTrios/BBA2.jpg","null","",NA,NA,NA,NA,""
"image-keyboard-response",469,361763,"0.0-3.152-2.152","c6bthx3byy52eu3",48,"8.csv","","null","resources/images/coin2.png","null","",NA,NA,NA,NA,""
"image-keyboard-response",470,362631,"0.0-3.153-0.153","c6bthx3byy52eu3",48,"8.csv","","866.6000000238419","resources/trios/L1T2A1.jpg","39","restless",0.3,0.7,0.5,0.158803743387597,"true"
"image-keyboard-response",471,363033,"0.0-3.153-1.153","c6bthx3byy52eu3",48,"8.csv","","null","resources/maskTrios/BBA1.jpg","null","",NA,NA,NA,NA,""
"image-keyboard-response",472,364238,"0.0-3.153-2.153","c6bthx3byy52eu3",48,"8.csv","","null","resources/images/coin2.png","null","",NA,NA,NA,NA,""
"image-keyboard-response",473,364663,"0.0-3.154-0.154","c6bthx3byy52eu3",48,"8.csv","","423.69999998807907","resources/trios/L2T1A2.jpg","39","restless",0.3,0.7,0.5,0.51929193477125,"false"
"image-keyboard-response",474,365066,"0.0-3.154-1.154","c6bthx3byy52eu3",48,"8.csv","","null","resources/maskTrios/BBA2.jpg","null","",NA,NA,NA,NA,""
"image-keyboard-response",475,366272,"0.0-3.154-2.154","c6bthx3byy52eu3",48,"8.csv","","null","resources/images/fishbone.png","null","",NA,NA,NA,NA,""
"image-keyboard-response",476,367002,"0.0-3.155-0.155","c6bthx3byy52eu3",48,"8.csv","","727.8000000119209","resources/trios/L2T1A1.jpg","37","restless",0.3,0.7,0.5,0.880546398211618,"false"
"image-keyboard-response",477,367409,"0.0-3.155-1.155","c6bthx3byy52eu3",48,"8.csv","","null","resources/maskTrios/L2BB.jpg","null","",NA,NA,NA,NA,""
"image-keyboard-response",478,368615,"0.0-3.155-2.155","c6bthx3byy52eu3",48,"8.csv","","null","resources/images/fishbone.png","null","",NA,NA,NA,NA,""
"image-keyboard-response",479,369581,"0.0-3.156-0.156","c6bthx3byy52eu3",48,"8.csv","","964.5","resources/trios/L2T1A2.jpg","39","restless",0.3,0.7,0.5,0.764830337601574,"false"
"image-keyboard-response",480,369983,"0.0-3.156-1.156","c6bthx3byy52eu3",48,"8.csv","","null","resources/maskTrios/BBA2.jpg","null","",NA,NA,NA,NA,""
"image-keyboard-response",481,371189,"0.0-3.156-2.156","c6bthx3byy52eu3",48,"8.csv","","null","resources/images/fishbone.png","null","",NA,NA,NA,NA,""
"image-keyboard-response",482,371588,"0.0-3.157-0.157","c6bthx3byy52eu3",48,"8.csv","","397.5999999642372","resources/trios/L2T2A2.jpg","37","restless",0.3,0.7,0.5,0.50310967762877,"false"
"image-keyboard-response",483,371995,"0.0-3.157-1.157","c6bthx3byy52eu3",48,"8.csv","","null","resources/maskTrios/L2BB.jpg","null","",NA,NA,NA,NA,""
"image-keyboard-response",484,373200,"0.0-3.157-2.157","c6bthx3byy52eu3",48,"8.csv","","null","resources/images/fishbone.png","null","",NA,NA,NA,NA,""
"image-keyboard-response",485,373549,"0.0-3.158-0.158","c6bthx3byy52eu3",48,"8.csv","","347.7000000476837","resources/trios/L2T1A1.jpg","39","restless",0.3,0.7,0.5,0.610858673890839,"false"
"image-keyboard-response",486,373955,"0.0-3.158-1.158","c6bthx3byy52eu3",48,"8.csv","","null","resources/maskTrios/BBA1.jpg","null","",NA,NA,NA,NA,""
"image-keyboard-response",487,375157,"0.0-3.158-2.158","c6bthx3byy52eu3",48,"8.csv","","null","resources/images/fishbone.png","null","",NA,NA,NA,NA,""
"image-keyboard-response",488,375328,"0.0-3.159-0.159","c6bthx3byy52eu3",48,"8.csv","","169.69999998807907","resources/trios/L1T1A2.jpg","38","restless",0.3,0.7,0.4,0.948352482726308,"false"
"image-keyboard-response",489,375732,"0.0-3.159-1.159","c6bthx3byy52eu3",48,"8.csv","","null","resources/maskTrios/BT1B.jpg","null","",NA,NA,NA,NA,""
"image-keyboard-response",490,376938,"0.0-3.159-2.159","c6bthx3byy52eu3",48,"8.csv","","null","resources/images/fishbone.png","null","",NA,NA,NA,NA,""
"image-keyboard-response",491,377217,"0.0-3.160-0.160","c6bthx3byy52eu3",48,"8.csv","","277.39999997615814","resources/trios/L1T1A2.jpg","38","restless",0.3,0.6,0.4,0.564386983601486,"true"
"image-keyboard-response",492,377624,"0.0-3.160-1.160","c6bthx3byy52eu3",48,"8.csv","","null","resources/maskTrios/BT1B.jpg","null","",NA,NA,NA,NA,""
"image-keyboard-response",493,378830,"0.0-3.160-2.160","c6bthx3byy52eu3",48,"8.csv","","null","resources/images/coin2.png","null","",NA,NA,NA,NA,""
"image-keyboard-response",494,379479,"0.0-3.161-0.161","c6bthx3byy52eu3",48,"8.csv","","647.8999999761581","resources/trios/L2T2A2.jpg","38","restless",0.3,0.6,0.4,0.547621429982989,"true"
"image-keyboard-response",495,379886,"0.0-3.161-1.161","c6bthx3byy52eu3",48,"8.csv","","null","resources/maskTrios/BT2B.jpg","null","",NA,NA,NA,NA,""
"image-keyboard-response",496,381092,"0.0-3.161-2.161","c6bthx3byy52eu3",48,"8.csv","","null","resources/images/coin2.png","null","",NA,NA,NA,NA,""
"image-keyboard-response",497,381498,"0.0-3.162-0.162","c6bthx3byy52eu3",48,"8.csv","","404.19999998807907","resources/trios/L1T2A1.jpg","38","restless",0.3,0.6,0.4,0.749540104486387,"false"
"image-keyboard-response",498,381902,"0.0-3.162-1.162","c6bthx3byy52eu3",48,"8.csv","","null","resources/maskTrios/BT2B.jpg","null","",NA,NA,NA,NA,""
"image-keyboard-response",499,383107,"0.0-3.162-2.162","c6bthx3byy52eu3",48,"8.csv","","null","resources/images/fishbone.png","null","",NA,NA,NA,NA,""
"image-keyboard-response",500,383362,"0.0-3.163-0.163","c6bthx3byy52eu3",48,"8.csv","","253.29999995231628","resources/trios/L2T2A1.jpg","38","restless",0.4,0.6,0.4,0.986141190451384,"false"
"image-keyboard-response",501,383769,"0.0-3.163-1.163","c6bthx3byy52eu3",48,"8.csv","","null","resources/maskTrios/BT2B.jpg","null","",NA,NA,NA,NA,""
"image-keyboard-response",502,384975,"0.0-3.163-2.163","c6bthx3byy52eu3",48,"8.csv","","null","resources/images/fishbone.png","null","",NA,NA,NA,NA,""
"image-keyboard-response",503,385384,"0.0-3.164-0.164","c6bthx3byy52eu3",48,"8.csv","","407.89999997615814","resources/trios/L2T2A2.jpg","39","restless",0.4,0.6,0.4,0.937505431787834,"false"
"image-keyboard-response",504,385791,"0.0-3.164-1.164","c6bthx3byy52eu3",48,"8.csv","","null","resources/maskTrios/BBA2.jpg","null","",NA,NA,NA,NA,""
"image-keyboard-response",505,386994,"0.0-3.164-2.164","c6bthx3byy52eu3",48,"8.csv","","null","resources/images/fishbone.png","null","",NA,NA,NA,NA,""
"image-keyboard-response",506,387250,"0.0-3.165-0.165","c6bthx3byy52eu3",48,"8.csv","","253.89999997615814","resources/trios/L1T1A2.jpg","38","restless",0.4,0.6,0.4,0.913953103525851,"false"
"image-keyboard-response",507,387655,"0.0-3.165-1.165","c6bthx3byy52eu3",48,"8.csv","","null","resources/maskTrios/BT1B.jpg","null","",NA,NA,NA,NA,""
"image-keyboard-response",508,388861,"0.0-3.165-2.165","c6bthx3byy52eu3",48,"8.csv","","null","resources/images/fishbone.png","null","",NA,NA,NA,NA,""
"image-keyboard-response",509,389424,"0.0-3.166-0.166","c6bthx3byy52eu3",48,"8.csv","","561.3000000119209","resources/trios/L2T2A2.jpg","37","restless",0.4,0.6,0.4,0.234699411930356,"true"
"image-keyboard-response",510,389831,"0.0-3.166-1.166","c6bthx3byy52eu3",48,"8.csv","","null","resources/maskTrios/L2BB.jpg","null","",NA,NA,NA,NA,""
"image-keyboard-response",511,391037,"0.0-3.166-2.166","c6bthx3byy52eu3",48,"8.csv","","null","resources/images/coin2.png","null","",NA,NA,NA,NA,""
"image-keyboard-response",512,391276,"0.0-3.167-0.167","c6bthx3byy52eu3",48,"8.csv","","237.19999998807907","resources/trios/L2T1A1.jpg","37","restless",0.4,0.6,0.4,0.485773175394272,"false"
"image-keyboard-response",513,391682,"0.0-3.167-1.167","c6bthx3byy52eu3",48,"8.csv","","null","resources/maskTrios/L2BB.jpg","null","",NA,NA,NA,NA,""
"image-keyboard-response",514,392887,"0.0-3.167-2.167","c6bthx3byy52eu3",48,"8.csv","","null","resources/images/fishbone.png","null","",NA,NA,NA,NA,""
"image-keyboard-response",515,393925,"0.0-3.168-0.168","c6bthx3byy52eu3",48,"8.csv","","1036.1000000238419","resources/trios/L2T1A1.jpg","37","restless",0.4,0.6,0.4,0.630974198128522,"false"
"image-keyboard-response",516,394331,"0.0-3.168-1.168","c6bthx3byy52eu3",48,"8.csv","","null","resources/maskTrios/L2BB.jpg","null","",NA,NA,NA,NA,""
"image-keyboard-response",517,395533,"0.0-3.168-2.168","c6bthx3byy52eu3",48,"8.csv","","null","resources/images/fishbone.png","null","",NA,NA,NA,NA,""
"image-keyboard-response",518,398365,"0.0-3.169-0.169","c6bthx3byy52eu3",48,"8.csv","","2829.800000011921","resources/trios/L1T2A2.jpg","39","restless",0.4,0.6,0.4,0.967945967045122,"false"
"image-keyboard-response",519,398771,"0.0-3.169-1.169","c6bthx3byy52eu3",48,"8.csv","","null","resources/maskTrios/BBA2.jpg","null","",NA,NA,NA,NA,""
"image-keyboard-response",520,399977,"0.0-3.169-2.169","c6bthx3byy52eu3",48,"8.csv","","null","resources/images/fishbone.png","null","",NA,NA,NA,NA,""
"image-keyboard-response",521,400054,"0.0-3.170-0.170","c6bthx3byy52eu3",48,"8.csv","","75.79999995231628","resources/trios/L2T1A1.jpg","39","restless",0.4,0.5,0.4,0.694344365011872,"false"
"image-keyboard-response",522,400458,"0.0-3.170-1.170","c6bthx3byy52eu3",48,"8.csv","","null","resources/maskTrios/BBA1.jpg","null","",NA,NA,NA,NA,""
"image-keyboard-response",523,401664,"0.0-3.170-2.170","c6bthx3byy52eu3",48,"8.csv","","null","resources/images/fishbone.png","null","",NA,NA,NA,NA,""
"image-keyboard-response",524,405486,"0.0-3.171-0.171","c6bthx3byy52eu3",48,"8.csv","","3820.7000000476837","resources/trios/L2T1A1.jpg","39","restless",0.4,0.5,0.4,0.920997466001705,"false"
"image-keyboard-response",525,405893,"0.0-3.171-1.171","c6bthx3byy52eu3",48,"8.csv","","null","resources/maskTrios/BBA1.jpg","null","",NA,NA,NA,NA,""
"image-keyboard-response",526,407099,"0.0-3.171-2.171","c6bthx3byy52eu3",48,"8.csv","","null","resources/images/fishbone.png","null","",NA,NA,NA,NA,""
"image-keyboard-response",527,407395,"0.0-3.172-0.172","c6bthx3byy52eu3",48,"8.csv","","294.39999997615814","resources/trios/L1T1A2.jpg","38","restless",0.4,0.5,0.4,0.567474151756627,"false"
"image-keyboard-response",528,407799,"0.0-3.172-1.172","c6bthx3byy52eu3",48,"8.csv","","null","resources/maskTrios/BT1B.jpg","null","",NA,NA,NA,NA,""
"image-keyboard-response",529,409004,"0.0-3.172-2.172","c6bthx3byy52eu3",48,"8.csv","","null","resources/images/fishbone.png","null","",NA,NA,NA,NA,""
"image-keyboard-response",530,409818,"0.0-3.173-0.173","c6bthx3byy52eu3",48,"8.csv","","811.6000000238419","resources/trios/L2T1A1.jpg","37","restless",0.4,0.5,0.4,0.598752610066618,"false"
"image-keyboard-response",531,410224,"0.0-3.173-1.173","c6bthx3byy52eu3",48,"8.csv","","null","resources/maskTrios/L2BB.jpg","null","",NA,NA,NA,NA,""
"image-keyboard-response",532,411430,"0.0-3.173-2.173","c6bthx3byy52eu3",48,"8.csv","","null","resources/images/fishbone.png","null","",NA,NA,NA,NA,""
"image-keyboard-response",533,412230,"0.0-3.174-0.174","c6bthx3byy52eu3",48,"8.csv","","798.3999999761581","resources/trios/L1T2A2.jpg","37","restless",0.4,0.5,0.4,0.700589327001715,"false"
"image-keyboard-response",534,412632,"0.0-3.174-1.174","c6bthx3byy52eu3",48,"8.csv","","null","resources/maskTrios/L1BB.jpg","null","",NA,NA,NA,NA,""
"image-keyboard-response",535,413838,"0.0-3.174-2.174","c6bthx3byy52eu3",48,"8.csv","","null","resources/images/fishbone.png","null","",NA,NA,NA,NA,""
"image-keyboard-response",536,414290,"0.0-3.175-0.175","c6bthx3byy52eu3",48,"8.csv","","450.5999999642372","resources/trios/L1T2A2.jpg","39","restless",0.4,0.5,0.4,0.761699968405308,"false"
"image-keyboard-response",537,414697,"0.0-3.175-1.175","c6bthx3byy52eu3",48,"8.csv","","null","resources/maskTrios/BBA2.jpg","null","",NA,NA,NA,NA,""
"image-keyboard-response",538,415899,"0.0-3.175-2.175","c6bthx3byy52eu3",48,"8.csv","","null","resources/images/fishbone.png","null","",NA,NA,NA,NA,""
"image-keyboard-response",539,416198,"0.0-3.176-0.176","c6bthx3byy52eu3",48,"8.csv","","297.80000001192093","resources/trios/L2T2A2.jpg","39","restless",0.4,0.5,0.4,0.362198595566117,"true"
"image-keyboard-response",540,416605,"0.0-3.176-1.176","c6bthx3byy52eu3",48,"8.csv","","null","resources/maskTrios/BBA2.jpg","null","",NA,NA,NA,NA,""
"image-keyboard-response",541,417811,"0.0-3.176-2.176","c6bthx3byy52eu3",48,"8.csv","","null","resources/images/coin2.png","null","",NA,NA,NA,NA,""
"image-keyboard-response",542,418163,"0.0-3.177-0.177","c6bthx3byy52eu3",48,"8.csv","","350.5","resources/trios/L1T2A2.jpg","38","restless",0.4,0.5,0.4,0.584519721769659,"false"
"image-keyboard-response",543,418566,"0.0-3.177-1.177","c6bthx3byy52eu3",48,"8.csv","","null","resources/maskTrios/BT2B.jpg","null","",NA,NA,NA,NA,""
"image-keyboard-response",544,419772,"0.0-3.177-2.177","c6bthx3byy52eu3",48,"8.csv","","null","resources/images/fishbone.png","null","",NA,NA,NA,NA,""
"image-keyboard-response",545,420777,"0.0-3.178-0.178","c6bthx3byy52eu3",48,"8.csv","","1003.3999999761581","resources/trios/L2T2A2.jpg","38","restless",0.4,0.5,0.4,0.470772318187106,"true"
"image-keyboard-response",546,421184,"0.0-3.178-1.178","c6bthx3byy52eu3",48,"8.csv","","null","resources/maskTrios/BT2B.jpg","null","",NA,NA,NA,NA,""
"image-keyboard-response",547,422390,"0.0-3.178-2.178","c6bthx3byy52eu3",48,"8.csv","","null","resources/images/coin2.png","null","",NA,NA,NA,NA,""
"image-keyboard-response",548,423303,"0.0-3.179-0.179","c6bthx3byy52eu3",48,"8.csv","","911","resources/trios/L2T2A2.jpg","38","restless",0.4,0.5,0.4,0.366747706987158,"true"
"image-keyboard-response",549,423709,"0.0-3.179-1.179","c6bthx3byy52eu3",48,"8.csv","","null","resources/maskTrios/BT2B.jpg","null","",NA,NA,NA,NA,""
"image-keyboard-response",550,424911,"0.0-3.179-2.179","c6bthx3byy52eu3",48,"8.csv","","null","resources/images/coin2.png","null","",NA,NA,NA,NA,""
"image-keyboard-response",551,425237,"0.0-3.180-0.180","c6bthx3byy52eu3",48,"8.csv","","325","resources/trios/L1T2A1.jpg","38","restless",0.4,0.5,0.4,0.824096706565477,"false"
"image-keyboard-response",552,425639,"0.0-3.180-1.180","c6bthx3byy52eu3",48,"8.csv","","null","resources/maskTrios/BT2B.jpg","null","",NA,NA,NA,NA,""
"image-keyboard-response",553,426841,"0.0-3.180-2.180","c6bthx3byy52eu3",48,"8.csv","","null","resources/images/fishbone.png","null","",NA,NA,NA,NA,""
"image-keyboard-response",554,427019,"0.0-3.181-0.181","c6bthx3byy52eu3",48,"8.csv","","176","resources/trios/L1T1A1.jpg","39","restless",0.4,0.5,0.4,0.320346831150284,"true"
"image-keyboard-response",555,427423,"0.0-3.181-1.181","c6bthx3byy52eu3",48,"8.csv","","null","resources/maskTrios/BBA1.jpg","null","",NA,NA,NA,NA,""
"image-keyboard-response",556,428629,"0.0-3.181-2.181","c6bthx3byy52eu3",48,"8.csv","","null","resources/images/coin2.png","null","",NA,NA,NA,NA,""
"image-keyboard-response",557,429200,"0.0-3.182-0.182","c6bthx3byy52eu3",48,"8.csv","","569","resources/trios/L1T2A1.jpg","39","restless",0.4,0.5,0.5,0.859226189024441,"false"
"image-keyboard-response",558,429607,"0.0-3.182-1.182","c6bthx3byy52eu3",48,"8.csv","","null","resources/maskTrios/BBA1.jpg","null","",NA,NA,NA,NA,""
"image-keyboard-response",559,430813,"0.0-3.182-2.182","c6bthx3byy52eu3",48,"8.csv","","null","resources/images/fishbone.png","null","",NA,NA,NA,NA,""
"image-keyboard-response",560,431192,"0.0-3.183-0.183","c6bthx3byy52eu3",48,"8.csv","","377.5999999642372","resources/trios/L2T2A1.jpg","39","restless",0.5,0.5,0.5,0.203837675574141,"true"
"image-keyboard-response",561,431599,"0.0-3.183-1.183","c6bthx3byy52eu3",48,"8.csv","","null","resources/maskTrios/BBA1.jpg","null","",NA,NA,NA,NA,""
"image-keyboard-response",562,432804,"0.0-3.183-2.183","c6bthx3byy52eu3",48,"8.csv","","null","resources/images/coin2.png","null","",NA,NA,NA,NA,""
"image-keyboard-response",563,434243,"0.0-3.184-0.184","c6bthx3byy52eu3",48,"8.csv","","1437.699999988079","resources/trios/L1T2A2.jpg","39","restless",0.5,0.4,0.5,0.398742476320562,"true"
"image-keyboard-response",564,434645,"0.0-3.184-1.184","c6bthx3byy52eu3",48,"8.csv","","null","resources/maskTrios/BBA2.jpg","null","",NA,NA,NA,NA,""
"image-keyboard-response",565,435849,"0.0-3.184-2.184","c6bthx3byy52eu3",48,"8.csv","","null","resources/images/coin2.png","null","",NA,NA,NA,NA,""
"image-keyboard-response",566,438233,"0.0-3.185-0.185","c6bthx3byy52eu3",48,"8.csv","","2382.5","resources/trios/L1T2A1.jpg","39","restless",0.5,0.4,0.5,0.557911728665516,"false"
"image-keyboard-response",567,438640,"0.0-3.185-1.185","c6bthx3byy52eu3",48,"8.csv","","null","resources/maskTrios/BBA1.jpg","null","",NA,NA,NA,NA,""
"image-keyboard-response",568,439846,"0.0-3.185-2.185","c6bthx3byy52eu3",48,"8.csv","","null","resources/images/fishbone.png","null","",NA,NA,NA,NA,""
"image-keyboard-response",569,440947,"0.0-3.186-0.186","c6bthx3byy52eu3",48,"8.csv","","1099.8999999761581","resources/trios/L2T2A2.jpg","39","restless",0.5,0.4,0.5,0.310221465808726,"true"
"image-keyboard-response",570,441353,"0.0-3.186-1.186","c6bthx3byy52eu3",48,"8.csv","","null","resources/maskTrios/BBA2.jpg","null","",NA,NA,NA,NA,""
"image-keyboard-response",571,442559,"0.0-3.186-2.186","c6bthx3byy52eu3",48,"8.csv","","null","resources/images/coin2.png","null","",NA,NA,NA,NA,""
"image-keyboard-response",572,444608,"0.0-3.187-0.187","c6bthx3byy52eu3",48,"8.csv","","2047.199999988079","resources/trios/L1T1A1.jpg","39","restless",0.5,0.4,0.5,0.970833276869056,"false"
"image-keyboard-response",573,445010,"0.0-3.187-1.187","c6bthx3byy52eu3",48,"8.csv","","null","resources/maskTrios/BBA1.jpg","null","",NA,NA,NA,NA,""
"image-keyboard-response",574,446215,"0.0-3.187-2.187","c6bthx3byy52eu3",48,"8.csv","","null","resources/images/fishbone.png","null","",NA,NA,NA,NA,""
"image-keyboard-response",575,446224,"0.0-3.188-0.188","c6bthx3byy52eu3",48,"8.csv","","7.300000011920929","resources/trios/L1T2A1.jpg","37","restless",0.5,0.4,0.5,0.994336037765912,"false"
"image-keyboard-response",576,446627,"0.0-3.188-1.188","c6bthx3byy52eu3",48,"8.csv","","null","resources/maskTrios/L1BB.jpg","null","",NA,NA,NA,NA,""
"image-keyboard-response",577,447831,"0.0-3.188-2.188","c6bthx3byy52eu3",48,"8.csv","","null","resources/images/fishbone.png","null","",NA,NA,NA,NA,""
"image-keyboard-response",578,449571,"0.0-3.189-0.189","c6bthx3byy52eu3",48,"8.csv","","1738.8999999761581","resources/trios/L2T1A2.jpg","39","restless",0.5,0.4,0.5,0.780894030880072,"false"
"image-keyboard-response",579,449978,"0.0-3.189-1.189","c6bthx3byy52eu3",48,"8.csv","","null","resources/maskTrios/BBA2.jpg","null","",NA,NA,NA,NA,""
"image-keyboard-response",580,451183,"0.0-3.189-2.189","c6bthx3byy52eu3",48,"8.csv","","null","resources/images/fishbone.png","null","",NA,NA,NA,NA,""
"image-keyboard-response",581,451530,"0.0-3.190-0.190","c6bthx3byy52eu3",48,"8.csv","","346.30000001192093","resources/trios/L2T1A2.jpg","38","restless",0.5,0.4,0.5,0.64775402903957,"false"
"image-keyboard-response",582,451933,"0.0-3.190-1.190","c6bthx3byy52eu3",48,"8.csv","","null","resources/maskTrios/BT1B.jpg","null","",NA,NA,NA,NA,""
"image-keyboard-response",583,453139,"0.0-3.190-2.190","c6bthx3byy52eu3",48,"8.csv","","null","resources/images/fishbone.png","null","",NA,NA,NA,NA,""
"image-keyboard-response",584,453660,"0.0-3.191-0.191","c6bthx3byy52eu3",48,"8.csv","","519","resources/trios/L2T1A2.jpg","39","restless",0.5,0.3,0.5,0.884125423447051,"false"
"image-keyboard-response",585,454065,"0.0-3.191-1.191","c6bthx3byy52eu3",48,"8.csv","","null","resources/maskTrios/BBA2.jpg","null","",NA,NA,NA,NA,""
"image-keyboard-response",586,455271,"0.0-3.191-2.191","c6bthx3byy52eu3",48,"8.csv","","null","resources/images/fishbone.png","null","",NA,NA,NA,NA,""
"image-keyboard-response",587,455731,"0.0-3.192-0.192","c6bthx3byy52eu3",48,"8.csv","","459","resources/trios/L2T1A1.jpg","39","restless",0.5,0.3,0.5,0.969834674924397,"false"
"image-keyboard-response",588,456137,"0.0-3.192-1.192","c6bthx3byy52eu3",48,"8.csv","","null","resources/maskTrios/BBA1.jpg","null","",NA,NA,NA,NA,""
"image-keyboard-response",589,457340,"0.0-3.192-2.192","c6bthx3byy52eu3",48,"8.csv","","null","resources/images/fishbone.png","null","",NA,NA,NA,NA,""
"image-keyboard-response",590,457799,"0.0-3.193-0.193","c6bthx3byy52eu3",48,"8.csv","","457.7999999523163","resources/trios/L1T2A2.jpg","39","restless",0.5,0.4,0.5,0.0724848406250349,"true"
"image-keyboard-response",591,458202,"0.0-3.193-1.193","c6bthx3byy52eu3",48,"8.csv","","null","resources/maskTrios/BBA2.jpg","null","",NA,NA,NA,NA,""
"image-keyboard-response",592,459409,"0.0-3.193-2.193","c6bthx3byy52eu3",48,"8.csv","","null","resources/images/coin2.png","null","",NA,NA,NA,NA,""
"image-keyboard-response",593,459971,"0.0-3.194-0.194","c6bthx3byy52eu3",48,"8.csv","","561.3999999761581","resources/trios/L1T1A1.jpg","38","restless",0.5,0.4,0.5,0.121781526530683,"true"
"image-keyboard-response",594,460376,"0.0-3.194-1.194","c6bthx3byy52eu3",48,"8.csv","","null","resources/maskTrios/BT1B.jpg","null","",NA,NA,NA,NA,""
"image-keyboard-response",595,461577,"0.0-3.194-2.194","c6bthx3byy52eu3",48,"8.csv","","null","resources/images/coin2.png","null","",NA,NA,NA,NA,""
"image-keyboard-response",596,463785,"0.0-3.195-0.195","c6bthx3byy52eu3",48,"8.csv","","2205.800000011921","resources/trios/L2T2A2.jpg","39","restless",0.5,0.4,0.4,0.302718020384654,"true"
"image-keyboard-response",597,464191,"0.0-3.195-1.195","c6bthx3byy52eu3",48,"8.csv","","null","resources/maskTrios/BBA2.jpg","null","",NA,NA,NA,NA,""
"image-keyboard-response",598,465398,"0.0-3.195-2.195","c6bthx3byy52eu3",48,"8.csv","","null","resources/images/coin2.png","null","",NA,NA,NA,NA,""
"image-keyboard-response",599,466085,"0.0-3.196-0.196","c6bthx3byy52eu3",48,"8.csv","","686.3000000119209","resources/trios/L2T2A2.jpg","39","restless",0.5,0.4,0.4,0.678795863439431,"false"
"image-keyboard-response",600,466489,"0.0-3.196-1.196","c6bthx3byy52eu3",48,"8.csv","","null","resources/maskTrios/BBA2.jpg","null","",NA,NA,NA,NA,""
"image-keyboard-response",601,467695,"0.0-3.196-2.196","c6bthx3byy52eu3",48,"8.csv","","null","resources/images/fishbone.png","null","",NA,NA,NA,NA,""
"image-keyboard-response",602,469069,"0.0-3.197-0.197","c6bthx3byy52eu3",48,"8.csv","","1372.5","resources/trios/L1T2A2.jpg","39","restless",0.5,0.4,0.4,0.0524268925925793,"true"
"image-keyboard-response",603,469472,"0.0-3.197-1.197","c6bthx3byy52eu3",48,"8.csv","","null","resources/maskTrios/BBA2.jpg","null","",NA,NA,NA,NA,""
"image-keyboard-response",604,470678,"0.0-3.197-2.197","c6bthx3byy52eu3",48,"8.csv","","null","resources/images/coin2.png","null","",NA,NA,NA,NA,""
"image-keyboard-response",605,472605,"0.0-3.198-0.198","c6bthx3byy52eu3",48,"8.csv","","1924.699999988079","resources/trios/L1T2A1.jpg","39","restless",0.5,0.4,0.4,0.345470010692755,"true"
"image-keyboard-response",606,473009,"0.0-3.198-1.198","c6bthx3byy52eu3",48,"8.csv","","null","resources/maskTrios/BBA1.jpg","null","",NA,NA,NA,NA,""
"image-keyboard-response",607,474211,"0.0-3.198-2.198","c6bthx3byy52eu3",48,"8.csv","","null","resources/images/coin2.png","null","",NA,NA,NA,NA,""
"image-keyboard-response",608,474941,"0.0-3.199-0.199","c6bthx3byy52eu3",48,"8.csv","","729.1000000238419","resources/trios/L2T1A1.jpg","39","restless",0.6,0.5,0.4,0.0690722021819015,"true"
"image-keyboard-response",609,475348,"0.0-3.199-1.199","c6bthx3byy52eu3",48,"8.csv","","null","resources/maskTrios/BBA1.jpg","null","",NA,NA,NA,NA,""
"image-keyboard-response",610,476550,"0.0-3.199-2.199","c6bthx3byy52eu3",48,"8.csv","","null","resources/images/coin2.png","null","",NA,NA,NA,NA,""
"image-keyboard-response",611,477466,"0.0-3.200-0.200","c6bthx3byy52eu3",48,"8.csv","","915","resources/trios/L2T1A2.jpg","39","restless",0.6,0.5,0.4,0.14487396659076,"true"
"image-keyboard-response",612,477873,"0.0-3.200-1.200","c6bthx3byy52eu3",48,"8.csv","","null","resources/maskTrios/BBA2.jpg","null","",NA,NA,NA,NA,""
"image-keyboard-response",613,479077,"0.0-3.200-2.200","c6bthx3byy52eu3",48,"8.csv","","null","resources/images/coin2.png","null","",NA,NA,NA,NA,""
"image-keyboard-response",614,481363,"0.0-3.201-0.201","c6bthx3byy52eu3",48,"8.csv","","2284.400000035763","resources/trios/L2T2A1.jpg","39","restless",0.6,0.6,0.4,0.243987051093642,"true"
"image-keyboard-response",615,481768,"0.0-3.201-1.201","c6bthx3byy52eu3",48,"8.csv","","null","resources/maskTrios/BBA1.jpg","null","",NA,NA,NA,NA,""
"image-keyboard-response",616,482974,"0.0-3.201-2.201","c6bthx3byy52eu3",48,"8.csv","","null","resources/images/coin2.png","null","",NA,NA,NA,NA,""
"image-keyboard-response",617,483181,"0.0-3.202-0.202","c6bthx3byy52eu3",48,"8.csv","","206","resources/trios/L1T1A2.jpg","39","restless",0.6,0.6,0.4,0.206128759675538,"true"
