"trial_type","trial_index","time_elapsed","internal_node_id","subject","participantCode","walkNumber","success","rt","stimulus","key_press","test_part","leftProb","midProb","rightProb","generatedNum","correct"
"pavlovia",0,1105,"0.0-0.0","7wz4tw9nckd7jlc",639,"71.csv","","","","","",NA,NA,NA,NA,""
"fullscreen",1,5513,"0.0-1.0","7wz4tw9nckd7jlc",639,"71.csv","true","","","","",NA,NA,NA,NA,""
"html-keyboard-response",2,20654,"0.0-2.0-0.0","7wz4tw9nckd7jlc",639,"71.csv","","15139","<p><font size='6'>Arrrgh!</p></font><p>Can you be the best pirate? Try to find lots of gold! But beware, some islands have more gold than others, and over time, the island with the most gold may change. Can YOU figure it out? </p><font size='6'>GOOD LUCK, CAPTAIN!!!</font><p>Press any key to begin</p>","32","",NA,NA,NA,NA,""
"image-keyboard-response",3,23657,"0.0-2.0-1.0","7wz4tw9nckd7jlc",639,"71.csv","","null","resources/image_sets/111.png","null","",NA,NA,NA,NA,""
"image-keyboard-response",4,30610,"0.0-2.0-2.0","7wz4tw9nckd7jlc",639,"71.csv","","6951","resources/image_sets/left_highlight.png","37","",NA,NA,NA,NA,""
"image-keyboard-response",5,31968,"0.0-2.0-3.0","7wz4tw9nckd7jlc",639,"71.csv","","1355","resources/image_sets/mid_highlight.png","38","",NA,NA,NA,NA,""
"image-keyboard-response",6,36733,"0.0-2.0-4.0","7wz4tw9nckd7jlc",639,"71.csv","","4764","resources/image_sets/right_highlight.png","39","",NA,NA,NA,NA,""
"image-keyboard-response",7,41924,"0.0-2.0-5.0","7wz4tw9nckd7jlc",639,"71.csv","","5188","resources/image_sets/111.png","13","",NA,NA,NA,NA,""
"image-keyboard-response",8,44591,"0.0-2.0-6.0","7wz4tw9nckd7jlc",639,"71.csv","","2666","resources/images/coin2.png","13","",NA,NA,NA,NA,""
"image-keyboard-response",9,45804,"0.0-2.0-7.0","7wz4tw9nckd7jlc",639,"71.csv","","1211","resources/images/fishbone.png","13","",NA,NA,NA,NA,""
"html-keyboard-response",10,52989,"0.0-2.0-8.0","7wz4tw9nckd7jlc",639,"71.csv","","7183","<p>Your first journey will be a long one, but you will get a well deserved break at the end</p><p>After the break you will have four more journeys, but each will be much shorter than the first, and you will have breaks in between each</p><p>Press Enter to begin</p>","13","",NA,NA,NA,NA,""
"image-keyboard-response",11,56475,"0.0-3.0-0.0","7wz4tw9nckd7jlc",639,"71.csv","","3484","resources/trios/L1T1A1.jpg","37","restless",0.3,0.9,0.7,0.129934433086864,"true"
"image-keyboard-response",12,56880,"0.0-3.0-1.0","7wz4tw9nckd7jlc",639,"71.csv","","null","resources/maskTrios/L1BB.jpg","null","",NA,NA,NA,NA,""
"image-keyboard-response",13,58085,"0.0-3.0-2.0","7wz4tw9nckd7jlc",639,"71.csv","","null","resources/images/coin2.png","null","",NA,NA,NA,NA,""
"image-keyboard-response",14,58920,"0.0-3.1-0.1","7wz4tw9nckd7jlc",639,"71.csv","","831","resources/trios/L1T1A1.jpg","38","restless",0.3,0.9,0.7,0.084203208385379,"true"
"image-keyboard-response",15,59324,"0.0-3.1-1.1","7wz4tw9nckd7jlc",639,"71.csv","","null","resources/maskTrios/BT1B.jpg","null","",NA,NA,NA,NA,""
"image-keyboard-response",16,60527,"0.0-3.1-2.1","7wz4tw9nckd7jlc",639,"71.csv","","null","resources/images/coin2.png","null","",NA,NA,NA,NA,""
"image-keyboard-response",17,61809,"0.0-3.2-0.2","7wz4tw9nckd7jlc",639,"71.csv","","1280","resources/trios/L4T2A1.jpg","38","restless",0.3,0.9,0.7,0.91632021396344,"false"
"image-keyboard-response",18,62213,"0.0-3.2-1.2","7wz4tw9nckd7jlc",639,"71.csv","","null","resources/maskTrios/BT2B.jpg","null","",NA,NA,NA,NA,""
"image-keyboard-response",19,63415,"0.0-3.2-2.2","7wz4tw9nckd7jlc",639,"71.csv","","null","resources/images/fishbone.png","null","",NA,NA,NA,NA,""
"image-keyboard-response",20,64578,"0.0-3.3-0.3","7wz4tw9nckd7jlc",639,"71.csv","","1159","resources/trios/L4T1A1.jpg","37","restless",0.3,0.9,0.7,0.798747201668124,"false"
"image-keyboard-response",21,64982,"0.0-3.3-1.3","7wz4tw9nckd7jlc",639,"71.csv","","null","resources/maskTrios/L4BB.jpg","null","",NA,NA,NA,NA,""
"image-keyboard-response",22,66184,"0.0-3.3-2.3","7wz4tw9nckd7jlc",639,"71.csv","","null","resources/images/fishbone.png","null","",NA,NA,NA,NA,""
"image-keyboard-response",23,66640,"0.0-3.4-0.4","7wz4tw9nckd7jlc",639,"71.csv","","453","resources/trios/L4T1A3.jpg","38","restless",0.3,0.9,0.7,0.606188109634769,"true"
"image-keyboard-response",24,67043,"0.0-3.4-1.4","7wz4tw9nckd7jlc",639,"71.csv","","null","resources/maskTrios/BT1B.jpg","null","",NA,NA,NA,NA,""
"image-keyboard-response",25,68246,"0.0-3.4-2.4","7wz4tw9nckd7jlc",639,"71.csv","","null","resources/images/coin2.png","null","",NA,NA,NA,NA,""
"image-keyboard-response",26,68926,"0.0-3.5-0.5","7wz4tw9nckd7jlc",639,"71.csv","","678.0000000000146","resources/trios/L4T1A1.jpg","39","restless",0.3,0.9,0.7,0.526192695972346,"true"
"image-keyboard-response",27,69330,"0.0-3.5-1.5","7wz4tw9nckd7jlc",639,"71.csv","","null","resources/maskTrios/BBA1.jpg","null","",NA,NA,NA,NA,""
"image-keyboard-response",28,70533,"0.0-3.5-2.5","7wz4tw9nckd7jlc",639,"71.csv","","null","resources/images/coin2.png","null","",NA,NA,NA,NA,""
"image-keyboard-response",29,71837,"0.0-3.6-0.6","7wz4tw9nckd7jlc",639,"71.csv","","1301","resources/trios/L1T2A3.jpg","39","restless",0.3,0.9,0.7,0.350778261055057,"true"
"image-keyboard-response",30,72240,"0.0-3.6-1.6","7wz4tw9nckd7jlc",639,"71.csv","","null","resources/maskTrios/BBA3.jpg","null","",NA,NA,NA,NA,""
"image-keyboard-response",31,73443,"0.0-3.6-2.6","7wz4tw9nckd7jlc",639,"71.csv","","null","resources/images/coin2.png","null","",NA,NA,NA,NA,""
"image-keyboard-response",32,78271,"0.0-3.7-0.7","7wz4tw9nckd7jlc",639,"71.csv","","4825","resources/trios/L1T1A3.jpg","38","restless",0.3,0.9,0.7,0.135820158044809,"true"
"image-keyboard-response",33,78675,"0.0-3.7-1.7","7wz4tw9nckd7jlc",639,"71.csv","","null","resources/maskTrios/BT1B.jpg","null","",NA,NA,NA,NA,""
"image-keyboard-response",34,79878,"0.0-3.7-2.7","7wz4tw9nckd7jlc",639,"71.csv","","null","resources/images/coin2.png","null","",NA,NA,NA,NA,""
"image-keyboard-response",35,81289,"0.0-3.8-0.8","7wz4tw9nckd7jlc",639,"71.csv","","1408","resources/trios/L1T1A3.jpg","37","restless",0.3,0.8,0.7,0.114738485722161,"true"
"image-keyboard-response",36,81693,"0.0-3.8-1.8","7wz4tw9nckd7jlc",639,"71.csv","","null","resources/maskTrios/L1BB.jpg","null","",NA,NA,NA,NA,""
"image-keyboard-response",37,82897,"0.0-3.8-2.8","7wz4tw9nckd7jlc",639,"71.csv","","null","resources/images/coin2.png","null","",NA,NA,NA,NA,""
"image-keyboard-response",38,84130,"0.0-3.9-0.9","7wz4tw9nckd7jlc",639,"71.csv","","1231","resources/trios/L4T1A3.jpg","39","restless",0.3,0.8,0.7,0.830012674257957,"false"
"image-keyboard-response",39,84534,"0.0-3.9-1.9","7wz4tw9nckd7jlc",639,"71.csv","","null","resources/maskTrios/BBA3.jpg","null","",NA,NA,NA,NA,""
"image-keyboard-response",40,85736,"0.0-3.9-2.9","7wz4tw9nckd7jlc",639,"71.csv","","null","resources/images/fishbone.png","null","",NA,NA,NA,NA,""
"image-keyboard-response",41,87730,"0.0-3.10-0.10","7wz4tw9nckd7jlc",639,"71.csv","","1992","resources/trios/L1T2A3.jpg","38","restless",0.3,0.8,0.7,0.154351443247965,"true"
"image-keyboard-response",42,88134,"0.0-3.10-1.10","7wz4tw9nckd7jlc",639,"71.csv","","null","resources/maskTrios/BT2B.jpg","null","",NA,NA,NA,NA,""
"image-keyboard-response",43,89337,"0.0-3.10-2.10","7wz4tw9nckd7jlc",639,"71.csv","","null","resources/images/coin2.png","null","",NA,NA,NA,NA,""
"image-keyboard-response",44,92139,"0.0-3.11-0.11","7wz4tw9nckd7jlc",639,"71.csv","","2801","resources/trios/L1T1A1.jpg","37","restless",0.3,0.7,0.7,0.988011927725699,"false"
"image-keyboard-response",45,92542,"0.0-3.11-1.11","7wz4tw9nckd7jlc",639,"71.csv","","null","resources/maskTrios/L1BB.jpg","null","",NA,NA,NA,NA,""
"image-keyboard-response",46,93745,"0.0-3.11-2.11","7wz4tw9nckd7jlc",639,"71.csv","","null","resources/images/fishbone.png","null","",NA,NA,NA,NA,""
"image-keyboard-response",47,96693,"0.0-3.12-0.12","7wz4tw9nckd7jlc",639,"71.csv","","2946","resources/trios/L4T1A1.jpg","38","restless",0.3,0.7,0.7,0.967158839337675,"false"
"image-keyboard-response",48,97096,"0.0-3.12-1.12","7wz4tw9nckd7jlc",639,"71.csv","","null","resources/maskTrios/BT1B.jpg","null","",NA,NA,NA,NA,""
"image-keyboard-response",49,98299,"0.0-3.12-2.12","7wz4tw9nckd7jlc",639,"71.csv","","null","resources/images/fishbone.png","null","",NA,NA,NA,NA,""
"image-keyboard-response",50,98634,"0.0-3.13-0.13","7wz4tw9nckd7jlc",639,"71.csv","","332.99999999998545","resources/trios/L1T1A3.jpg","37","restless",0.3,0.7,0.7,0.530180058255428,"false"
"image-keyboard-response",51,99038,"0.0-3.13-1.13","7wz4tw9nckd7jlc",639,"71.csv","","null","resources/maskTrios/L1BB.jpg","null","",NA,NA,NA,NA,""
"image-keyboard-response",52,100240,"0.0-3.13-2.13","7wz4tw9nckd7jlc",639,"71.csv","","null","resources/images/fishbone.png","null","",NA,NA,NA,NA,""
"image-keyboard-response",53,100502,"0.0-3.14-0.14","7wz4tw9nckd7jlc",639,"71.csv","","260","resources/trios/L1T2A3.jpg","37","restless",0.3,0.7,0.7,0.257362384382436,"true"
"image-keyboard-response",54,100906,"0.0-3.14-1.14","7wz4tw9nckd7jlc",639,"71.csv","","null","resources/maskTrios/L1BB.jpg","null","",NA,NA,NA,NA,""
"image-keyboard-response",55,102108,"0.0-3.14-2.14","7wz4tw9nckd7jlc",639,"71.csv","","null","resources/images/coin2.png","null","",NA,NA,NA,NA,""
"image-keyboard-response",56,102380,"0.0-3.15-0.15","7wz4tw9nckd7jlc",639,"71.csv","","270","resources/trios/L1T2A3.jpg","38","restless",0.3,0.7,0.8,0.284799813658188,"true"
"image-keyboard-response",57,102783,"0.0-3.15-1.15","7wz4tw9nckd7jlc",639,"71.csv","","null","resources/maskTrios/BT2B.jpg","null","",NA,NA,NA,NA,""
"image-keyboard-response",58,103986,"0.0-3.15-2.15","7wz4tw9nckd7jlc",639,"71.csv","","null","resources/images/coin2.png","null","",NA,NA,NA,NA,""
"image-keyboard-response",59,104277,"0.0-3.16-0.16","7wz4tw9nckd7jlc",639,"71.csv","","288","resources/trios/L4T1A1.jpg","39","restless",0.3,0.6,0.8,0.44169953101451,"true"
"image-keyboard-response",60,104680,"0.0-3.16-1.16","7wz4tw9nckd7jlc",639,"71.csv","","null","resources/maskTrios/BBA1.jpg","null","",NA,NA,NA,NA,""
"image-keyboard-response",61,105883,"0.0-3.16-2.16","7wz4tw9nckd7jlc",639,"71.csv","","null","resources/images/coin2.png","null","",NA,NA,NA,NA,""
"image-keyboard-response",62,106208,"0.0-3.17-0.17","7wz4tw9nckd7jlc",639,"71.csv","","324","resources/trios/L1T2A3.jpg","37","restless",0.3,0.6,0.7,0.310258914109702,"false"
"image-keyboard-response",63,106611,"0.0-3.17-1.17","7wz4tw9nckd7jlc",639,"71.csv","","null","resources/maskTrios/L1BB.jpg","null","",NA,NA,NA,NA,""
"image-keyboard-response",64,107814,"0.0-3.17-2.17","7wz4tw9nckd7jlc",639,"71.csv","","null","resources/images/fishbone.png","null","",NA,NA,NA,NA,""
"image-keyboard-response",65,108090,"0.0-3.18-0.18","7wz4tw9nckd7jlc",639,"71.csv","","275.00000000001455","resources/trios/L4T1A1.jpg","38","restless",0.3,0.6,0.6,0.184843277613126,"true"
"image-keyboard-response",66,108493,"0.0-3.18-1.18","7wz4tw9nckd7jlc",639,"71.csv","","null","resources/maskTrios/BT1B.jpg","null","",NA,NA,NA,NA,""
"image-keyboard-response",67,109696,"0.0-3.18-2.18","7wz4tw9nckd7jlc",639,"71.csv","","null","resources/images/coin2.png","null","",NA,NA,NA,NA,""
"image-keyboard-response",68,109729,"0.0-3.19-0.19","7wz4tw9nckd7jlc",639,"71.csv","","31","resources/trios/L1T1A1.jpg","37","restless",0.3,0.6,0.6,0.103274304664491,"true"
"image-keyboard-response",69,110131,"0.0-3.19-1.19","7wz4tw9nckd7jlc",639,"71.csv","","null","resources/maskTrios/L1BB.jpg","null","",NA,NA,NA,NA,""
"image-keyboard-response",70,111334,"0.0-3.19-2.19","7wz4tw9nckd7jlc",639,"71.csv","","null","resources/images/coin2.png","null","",NA,NA,NA,NA,""
"image-keyboard-response",71,111720,"0.0-3.20-0.20","7wz4tw9nckd7jlc",639,"71.csv","","385","resources/trios/L4T1A3.jpg","37","restless",0.4,0.6,0.6,0.405445768537489,"false"
"image-keyboard-response",72,112123,"0.0-3.20-1.20","7wz4tw9nckd7jlc",639,"71.csv","","null","resources/maskTrios/L4BB.jpg","null","",NA,NA,NA,NA,""
"image-keyboard-response",73,113326,"0.0-3.20-2.20","7wz4tw9nckd7jlc",639,"71.csv","","null","resources/images/fishbone.png","null","",NA,NA,NA,NA,""
"image-keyboard-response",74,114287,"0.0-3.21-0.21","7wz4tw9nckd7jlc",639,"71.csv","","958.9999999999854","resources/trios/L4T2A3.jpg","37","restless",0.4,0.6,0.6,0.488658031684976,"false"
"image-keyboard-response",75,114690,"0.0-3.21-1.21","7wz4tw9nckd7jlc",639,"71.csv","","null","resources/maskTrios/L4BB.jpg","null","",NA,NA,NA,NA,""
"image-keyboard-response",76,115893,"0.0-3.21-2.21","7wz4tw9nckd7jlc",639,"71.csv","","null","resources/images/fishbone.png","null","",NA,NA,NA,NA,""
"image-keyboard-response",77,116074,"0.0-3.22-0.22","7wz4tw9nckd7jlc",639,"71.csv","","179","resources/trios/L4T2A1.jpg","37","restless",0.4,0.6,0.6,0.329887435602534,"true"
"image-keyboard-response",78,116477,"0.0-3.22-1.22","7wz4tw9nckd7jlc",639,"71.csv","","null","resources/maskTrios/L4BB.jpg","null","",NA,NA,NA,NA,""
"image-keyboard-response",79,117680,"0.0-3.22-2.22","7wz4tw9nckd7jlc",639,"71.csv","","null","resources/images/coin2.png","null","",NA,NA,NA,NA,""
"image-keyboard-response",80,118195,"0.0-3.23-0.23","7wz4tw9nckd7jlc",639,"71.csv","","512.9999999999854","resources/trios/L1T1A1.jpg","38","restless",0.4,0.6,0.6,0.710053468963858,"false"
"image-keyboard-response",81,118598,"0.0-3.23-1.23","7wz4tw9nckd7jlc",639,"71.csv","","null","resources/maskTrios/BT1B.jpg","null","",NA,NA,NA,NA,""
"image-keyboard-response",82,119800,"0.0-3.23-2.23","7wz4tw9nckd7jlc",639,"71.csv","","null","resources/images/fishbone.png","null","",NA,NA,NA,NA,""
"image-keyboard-response",83,120055,"0.0-3.24-0.24","7wz4tw9nckd7jlc",639,"71.csv","","253","resources/trios/L1T1A3.jpg","38","restless",0.4,0.5,0.6,0.647279146455391,"false"
"image-keyboard-response",84,120458,"0.0-3.24-1.24","7wz4tw9nckd7jlc",639,"71.csv","","null","resources/maskTrios/BT1B.jpg","null","",NA,NA,NA,NA,""
"image-keyboard-response",85,121660,"0.0-3.24-2.24","7wz4tw9nckd7jlc",639,"71.csv","","null","resources/images/fishbone.png","null","",NA,NA,NA,NA,""
"image-keyboard-response",86,122019,"0.0-3.25-0.25","7wz4tw9nckd7jlc",639,"71.csv","","356","resources/trios/L4T2A1.jpg","38","restless",0.4,0.5,0.6,0.239356591323079,"true"
"image-keyboard-response",87,122421,"0.0-3.25-1.25","7wz4tw9nckd7jlc",639,"71.csv","","null","resources/maskTrios/BT2B.jpg","null","",NA,NA,NA,NA,""
"image-keyboard-response",88,123624,"0.0-3.25-2.25","7wz4tw9nckd7jlc",639,"71.csv","","null","resources/images/coin2.png","null","",NA,NA,NA,NA,""
"image-keyboard-response",89,124695,"0.0-3.26-0.26","7wz4tw9nckd7jlc",639,"71.csv","","1068.0000000000146","resources/trios/L1T2A1.jpg","39","restless",0.4,0.5,0.7,0.553397012852675,"true"
"image-keyboard-response",90,125098,"0.0-3.26-1.26","7wz4tw9nckd7jlc",639,"71.csv","","null","resources/maskTrios/BBA1.jpg","null","",NA,NA,NA,NA,""
"image-keyboard-response",91,126301,"0.0-3.26-2.26","7wz4tw9nckd7jlc",639,"71.csv","","null","resources/images/coin2.png","null","",NA,NA,NA,NA,""
"image-keyboard-response",92,126815,"0.0-3.27-0.27","7wz4tw9nckd7jlc",639,"71.csv","","513","resources/trios/L1T2A3.jpg","38","restless",0.4,0.5,0.7,0.290014255099231,"true"
"image-keyboard-response",93,127218,"0.0-3.27-1.27","7wz4tw9nckd7jlc",639,"71.csv","","null","resources/maskTrios/BT2B.jpg","null","",NA,NA,NA,NA,""
"image-keyboard-response",94,128421,"0.0-3.27-2.27","7wz4tw9nckd7jlc",639,"71.csv","","null","resources/images/coin2.png","null","",NA,NA,NA,NA,""
"image-keyboard-response",95,128708,"0.0-3.28-0.28","7wz4tw9nckd7jlc",639,"71.csv","","284.99999999998545","resources/trios/L1T2A3.jpg","39","restless",0.4,0.4,0.7,0.761131631637152,"false"
"image-keyboard-response",96,129111,"0.0-3.28-1.28","7wz4tw9nckd7jlc",639,"71.csv","","null","resources/maskTrios/BBA3.jpg","null","",NA,NA,NA,NA,""
"image-keyboard-response",97,130314,"0.0-3.28-2.28","7wz4tw9nckd7jlc",639,"71.csv","","null","resources/images/fishbone.png","null","",NA,NA,NA,NA,""
"image-keyboard-response",98,130909,"0.0-3.29-0.29","7wz4tw9nckd7jlc",639,"71.csv","","592","resources/trios/L1T1A1.jpg","39","restless",0.4,0.4,0.7,0.904930160404104,"false"
"image-keyboard-response",99,131312,"0.0-3.29-1.29","7wz4tw9nckd7jlc",639,"71.csv","","null","resources/maskTrios/BBA1.jpg","null","",NA,NA,NA,NA,""
"image-keyboard-response",100,132515,"0.0-3.29-2.29","7wz4tw9nckd7jlc",639,"71.csv","","null","resources/images/fishbone.png","null","",NA,NA,NA,NA,""
"image-keyboard-response",101,132945,"0.0-3.30-0.30","7wz4tw9nckd7jlc",639,"71.csv","","428","resources/trios/L1T1A3.jpg","38","restless",0.4,0.3,0.7,0.847776463434187,"false"
"image-keyboard-response",102,133348,"0.0-3.30-1.30","7wz4tw9nckd7jlc",639,"71.csv","","null","resources/maskTrios/BT1B.jpg","null","",NA,NA,NA,NA,""
"image-keyboard-response",103,134551,"0.0-3.30-2.30","7wz4tw9nckd7jlc",639,"71.csv","","null","resources/images/fishbone.png","null","",NA,NA,NA,NA,""
"image-keyboard-response",104,134813,"0.0-3.31-0.31","7wz4tw9nckd7jlc",639,"71.csv","","260","resources/trios/L4T2A1.jpg","38","restless",0.4,0.4,0.7,0.717287694582485,"false"
"image-keyboard-response",105,135216,"0.0-3.31-1.31","7wz4tw9nckd7jlc",639,"71.csv","","null","resources/maskTrios/BT2B.jpg","null","",NA,NA,NA,NA,""
"image-keyboard-response",106,136419,"0.0-3.31-2.31","7wz4tw9nckd7jlc",639,"71.csv","","null","resources/images/fishbone.png","null","",NA,NA,NA,NA,""
"image-keyboard-response",107,136476,"0.0-3.32-0.32","7wz4tw9nckd7jlc",639,"71.csv","","55","resources/trios/L1T2A3.jpg","38","restless",0.4,0.4,0.7,0.033557048959951,"true"
"image-keyboard-response",108,136879,"0.0-3.32-1.32","7wz4tw9nckd7jlc",639,"71.csv","","null","resources/maskTrios/BT2B.jpg","null","",NA,NA,NA,NA,""
"image-keyboard-response",109,138082,"0.0-3.32-2.32","7wz4tw9nckd7jlc",639,"71.csv","","null","resources/images/coin2.png","null","",NA,NA,NA,NA,""
"image-keyboard-response",110,141866,"0.0-3.33-0.33","7wz4tw9nckd7jlc",639,"71.csv","","3782","resources/trios/L1T1A1.jpg","39","restless",0.4,0.4,0.7,0.3058898468099,"true"
"image-keyboard-response",111,142269,"0.0-3.33-1.33","7wz4tw9nckd7jlc",639,"71.csv","","null","resources/maskTrios/BBA1.jpg","null","",NA,NA,NA,NA,""
"image-keyboard-response",112,143476,"0.0-3.33-2.33","7wz4tw9nckd7jlc",639,"71.csv","","null","resources/images/coin2.png","null","",NA,NA,NA,NA,""
"image-keyboard-response",113,143974,"0.0-3.34-0.34","7wz4tw9nckd7jlc",639,"71.csv","","495","resources/trios/L1T1A1.jpg","38","restless",0.4,0.4,0.7,0.464040531038148,"false"
"image-keyboard-response",114,144377,"0.0-3.34-1.34","7wz4tw9nckd7jlc",639,"71.csv","","null","resources/maskTrios/BT1B.jpg","null","",NA,NA,NA,NA,""
"image-keyboard-response",115,145579,"0.0-3.34-2.34","7wz4tw9nckd7jlc",639,"71.csv","","null","resources/images/fishbone.png","null","",NA,NA,NA,NA,""
"image-keyboard-response",116,146790,"0.0-3.35-0.35","7wz4tw9nckd7jlc",639,"71.csv","","1207","resources/trios/L1T2A1.jpg","38","restless",0.4,0.4,0.7,0.690717543526047,"false"
"image-keyboard-response",117,147192,"0.0-3.35-1.35","7wz4tw9nckd7jlc",639,"71.csv","","null","resources/maskTrios/BT2B.jpg","null","",NA,NA,NA,NA,""
"image-keyboard-response",118,148395,"0.0-3.35-2.35","7wz4tw9nckd7jlc",639,"71.csv","","null","resources/images/fishbone.png","null","",NA,NA,NA,NA,""
"image-keyboard-response",119,148834,"0.0-3.36-0.36","7wz4tw9nckd7jlc",639,"71.csv","","437","resources/trios/L4T2A3.jpg","38","restless",0.4,0.4,0.7,0.182569818513629,"true"
"image-keyboard-response",120,149237,"0.0-3.36-1.36","7wz4tw9nckd7jlc",639,"71.csv","","null","resources/maskTrios/BT2B.jpg","null","",NA,NA,NA,NA,""
"image-keyboard-response",121,150440,"0.0-3.36-2.36","7wz4tw9nckd7jlc",639,"71.csv","","null","resources/images/coin2.png","null","",NA,NA,NA,NA,""
"image-keyboard-response",122,151485,"0.0-3.37-0.37","7wz4tw9nckd7jlc",639,"71.csv","","1043","resources/trios/L1T2A1.jpg","39","restless",0.4,0.4,0.7,0.904995516394393,"false"
"image-keyboard-response",123,151888,"0.0-3.37-1.37","7wz4tw9nckd7jlc",639,"71.csv","","null","resources/maskTrios/BBA1.jpg","null","",NA,NA,NA,NA,""
"image-keyboard-response",124,153091,"0.0-3.37-2.37","7wz4tw9nckd7jlc",639,"71.csv","","null","resources/images/fishbone.png","null","",NA,NA,NA,NA,""
"image-keyboard-response",125,153447,"0.0-3.38-0.38","7wz4tw9nckd7jlc",639,"71.csv","","353","resources/trios/L1T1A1.jpg","38","restless",0.4,0.4,0.7,0.123595937334429,"true"
"image-keyboard-response",126,153850,"0.0-3.38-1.38","7wz4tw9nckd7jlc",639,"71.csv","","null","resources/maskTrios/BT1B.jpg","null","",NA,NA,NA,NA,""
"image-keyboard-response",127,155053,"0.0-3.38-2.38","7wz4tw9nckd7jlc",639,"71.csv","","null","resources/images/coin2.png","null","",NA,NA,NA,NA,""
"image-keyboard-response",128,156117,"0.0-3.39-0.39","7wz4tw9nckd7jlc",639,"71.csv","","1062","resources/trios/L1T2A3.jpg","37","restless",0.4,0.4,0.8,0.12983093225013,"true"
"image-keyboard-response",129,156520,"0.0-3.39-1.39","7wz4tw9nckd7jlc",639,"71.csv","","null","resources/maskTrios/L1BB.jpg","null","",NA,NA,NA,NA,""
"image-keyboard-response",130,157723,"0.0-3.39-2.39","7wz4tw9nckd7jlc",639,"71.csv","","null","resources/images/coin2.png","null","",NA,NA,NA,NA,""
"image-keyboard-response",131,158208,"0.0-3.40-0.40","7wz4tw9nckd7jlc",639,"71.csv","","480","resources/trios/L1T2A3.jpg","39","restless",0.4,0.4,0.8,0.687200487731365,"true"
"image-keyboard-response",132,158611,"0.0-3.40-1.40","7wz4tw9nckd7jlc",639,"71.csv","","null","resources/maskTrios/BBA3.jpg","null","",NA,NA,NA,NA,""
"image-keyboard-response",133,159814,"0.0-3.40-2.40","7wz4tw9nckd7jlc",639,"71.csv","","null","resources/images/coin2.png","null","",NA,NA,NA,NA,""
"image-keyboard-response",134,160629,"0.0-3.41-0.41","7wz4tw9nckd7jlc",639,"71.csv","","809","resources/trios/L1T2A1.jpg","37","restless",0.3,0.4,0.8,0.054734212676541,"true"
"image-keyboard-response",135,161032,"0.0-3.41-1.41","7wz4tw9nckd7jlc",639,"71.csv","","null","resources/maskTrios/L1BB.jpg","null","",NA,NA,NA,NA,""
"image-keyboard-response",136,162235,"0.0-3.41-2.41","7wz4tw9nckd7jlc",639,"71.csv","","null","resources/images/coin2.png","null","",NA,NA,NA,NA,""
"image-keyboard-response",137,162528,"0.0-3.42-0.42","7wz4tw9nckd7jlc",639,"71.csv","","291","resources/trios/L1T2A3.jpg","38","restless",0.3,0.5,0.8,0.624448455063685,"false"
"image-keyboard-response",138,162931,"0.0-3.42-1.42","7wz4tw9nckd7jlc",639,"71.csv","","null","resources/maskTrios/BT2B.jpg","null","",NA,NA,NA,NA,""
"image-keyboard-response",139,164134,"0.0-3.42-2.42","7wz4tw9nckd7jlc",639,"71.csv","","null","resources/images/fishbone.png","null","",NA,NA,NA,NA,""
"image-keyboard-response",140,164468,"0.0-3.43-0.43","7wz4tw9nckd7jlc",639,"71.csv","","332","resources/trios/L1T2A3.jpg","38","restless",0.3,0.5,0.8,0.637548630684748,"false"
"image-keyboard-response",141,164872,"0.0-3.43-1.43","7wz4tw9nckd7jlc",639,"71.csv","","null","resources/maskTrios/BT2B.jpg","null","",NA,NA,NA,NA,""
"image-keyboard-response",142,166074,"0.0-3.43-2.43","7wz4tw9nckd7jlc",639,"71.csv","","null","resources/images/fishbone.png","null","",NA,NA,NA,NA,""
"image-keyboard-response",143,166284,"0.0-3.44-0.44","7wz4tw9nckd7jlc",639,"71.csv","","206","resources/trios/L4T2A1.jpg","38","restless",0.3,0.5,0.8,0.226162167445809,"true"
"image-keyboard-response",144,166687,"0.0-3.44-1.44","7wz4tw9nckd7jlc",639,"71.csv","","null","resources/maskTrios/BT2B.jpg","null","",NA,NA,NA,NA,""
"image-keyboard-response",145,167890,"0.0-3.44-2.44","7wz4tw9nckd7jlc",639,"71.csv","","null","resources/images/coin2.png","null","",NA,NA,NA,NA,""
"image-keyboard-response",146,169111,"0.0-3.45-0.45","7wz4tw9nckd7jlc",639,"71.csv","","1219","resources/trios/L4T2A3.jpg","39","restless",0.3,0.5,0.9,0.122954605931274,"true"
"image-keyboard-response",147,169514,"0.0-3.45-1.45","7wz4tw9nckd7jlc",639,"71.csv","","null","resources/maskTrios/BBA3.jpg","null","",NA,NA,NA,NA,""
"image-keyboard-response",148,170717,"0.0-3.45-2.45","7wz4tw9nckd7jlc",639,"71.csv","","null","resources/images/coin2.png","null","",NA,NA,NA,NA,""
"image-keyboard-response",149,171035,"0.0-3.46-0.46","7wz4tw9nckd7jlc",639,"71.csv","","315","resources/trios/L4T2A3.jpg","37","restless",0.3,0.5,0.9,0.0973569694630383,"true"
"image-keyboard-response",150,171438,"0.0-3.46-1.46","7wz4tw9nckd7jlc",639,"71.csv","","null","resources/maskTrios/L4BB.jpg","null","",NA,NA,NA,NA,""
"image-keyboard-response",151,172641,"0.0-3.46-2.46","7wz4tw9nckd7jlc",639,"71.csv","","null","resources/images/coin2.png","null","",NA,NA,NA,NA,""
"image-keyboard-response",152,187059,"0.0-3.47-0.47","7wz4tw9nckd7jlc",639,"71.csv","","14415","resources/trios/L4T2A1.jpg","38","restless",0.3,0.5,0.9,0.768988252207047,"false"
"image-keyboard-response",153,187463,"0.0-3.47-1.47","7wz4tw9nckd7jlc",639,"71.csv","","null","resources/maskTrios/BT2B.jpg","null","",NA,NA,NA,NA,""
"image-keyboard-response",154,188666,"0.0-3.47-2.47","7wz4tw9nckd7jlc",639,"71.csv","","null","resources/images/fishbone.png","null","",NA,NA,NA,NA,""
"image-keyboard-response",155,189416,"0.0-3.48-0.48","7wz4tw9nckd7jlc",639,"71.csv","","748","resources/trios/L4T2A3.jpg","37","restless",0.4,0.5,0.9,0.841629911802946,"false"
"image-keyboard-response",156,189820,"0.0-3.48-1.48","7wz4tw9nckd7jlc",639,"71.csv","","null","resources/maskTrios/L4BB.jpg","null","",NA,NA,NA,NA,""
"image-keyboard-response",157,191021,"0.0-3.48-2.48","7wz4tw9nckd7jlc",639,"71.csv","","null","resources/images/fishbone.png","null","",NA,NA,NA,NA,""
"image-keyboard-response",158,191484,"0.0-3.49-0.49","7wz4tw9nckd7jlc",639,"71.csv","","460","resources/trios/L4T2A1.jpg","37","restless",0.4,0.5,0.8,0.221941968768575,"true"
"image-keyboard-response",159,191887,"0.0-3.49-1.49","7wz4tw9nckd7jlc",639,"71.csv","","null","resources/maskTrios/L4BB.jpg","null","",NA,NA,NA,NA,""
"image-keyboard-response",160,193090,"0.0-3.49-2.49","7wz4tw9nckd7jlc",639,"71.csv","","null","resources/images/coin2.png","null","",NA,NA,NA,NA,""
"image-keyboard-response",161,194576,"0.0-3.50-0.50","7wz4tw9nckd7jlc",639,"71.csv","","1484","resources/trios/L4T1A1.jpg","38","restless",0.4,0.5,0.7,0.621948985619758,"false"
"image-keyboard-response",162,194978,"0.0-3.50-1.50","7wz4tw9nckd7jlc",639,"71.csv","","null","resources/maskTrios/BT1B.jpg","null","",NA,NA,NA,NA,""
"image-keyboard-response",163,196181,"0.0-3.50-2.50","7wz4tw9nckd7jlc",639,"71.csv","","null","resources/images/fishbone.png","null","",NA,NA,NA,NA,""
"image-keyboard-response",164,199099,"0.0-3.51-0.51","7wz4tw9nckd7jlc",639,"71.csv","","2916","resources/trios/L4T2A3.jpg","38","restless",0.4,0.5,0.7,0.732105483385565,"false"
"image-keyboard-response",165,199501,"0.0-3.51-1.51","7wz4tw9nckd7jlc",639,"71.csv","","null","resources/maskTrios/BT2B.jpg","null","",NA,NA,NA,NA,""
"image-keyboard-response",166,200704,"0.0-3.51-2.51","7wz4tw9nckd7jlc",639,"71.csv","","null","resources/images/fishbone.png","null","",NA,NA,NA,NA,""
"image-keyboard-response",167,202723,"0.0-3.52-0.52","7wz4tw9nckd7jlc",639,"71.csv","","2017","resources/trios/L1T1A1.jpg","38","restless",0.4,0.5,0.7,0.537123916620983,"false"
"image-keyboard-response",168,203128,"0.0-3.52-1.52","7wz4tw9nckd7jlc",639,"71.csv","","null","resources/maskTrios/BT1B.jpg","null","",NA,NA,NA,NA,""
"image-keyboard-response",169,204331,"0.0-3.52-2.52","7wz4tw9nckd7jlc",639,"71.csv","","null","resources/images/fishbone.png","null","",NA,NA,NA,NA,""
"image-keyboard-response",170,206264,"0.0-3.53-0.53","7wz4tw9nckd7jlc",639,"71.csv","","1929","resources/trios/L1T1A3.jpg","38","restless",0.4,0.5,0.7,0.829119577364206,"false"
"image-keyboard-response",171,206667,"0.0-3.53-1.53","7wz4tw9nckd7jlc",639,"71.csv","","null","resources/maskTrios/BT1B.jpg","null","",NA,NA,NA,NA,""
"image-keyboard-response",172,207869,"0.0-3.53-2.53","7wz4tw9nckd7jlc",639,"71.csv","","null","resources/images/fishbone.png","null","",NA,NA,NA,NA,""
"image-keyboard-response",173,210013,"0.0-3.54-0.54","7wz4tw9nckd7jlc",639,"71.csv","","2141","resources/trios/L4T2A3.jpg","38","restless",0.5,0.5,0.7,0.511496533189205,"false"
"image-keyboard-response",174,210418,"0.0-3.54-1.54","7wz4tw9nckd7jlc",639,"71.csv","","null","resources/maskTrios/BT2B.jpg","null","",NA,NA,NA,NA,""
"image-keyboard-response",175,211621,"0.0-3.54-2.54","7wz4tw9nckd7jlc",639,"71.csv","","null","resources/images/fishbone.png","null","",NA,NA,NA,NA,""
"image-keyboard-response",176,213230,"0.0-3.55-0.55","7wz4tw9nckd7jlc",639,"71.csv","","1606","resources/trios/L4T2A3.jpg","38","restless",0.5,0.5,0.6,0.141250664502911,"true"
"image-keyboard-response",177,213634,"0.0-3.55-1.55","7wz4tw9nckd7jlc",639,"71.csv","","null","resources/maskTrios/BT2B.jpg","null","",NA,NA,NA,NA,""
"image-keyboard-response",178,214837,"0.0-3.55-2.55","7wz4tw9nckd7jlc",639,"71.csv","","null","resources/images/coin2.png","null","",NA,NA,NA,NA,""
"image-keyboard-response",179,226321,"0.0-3.56-0.56","7wz4tw9nckd7jlc",639,"71.csv","","11483","resources/trios/L1T1A1.jpg","37","restless",0.5,0.5,0.6,0.81254726187553,"false"
"image-keyboard-response",180,226727,"0.0-3.56-1.56","7wz4tw9nckd7jlc",639,"71.csv","","null","resources/maskTrios/L1BB.jpg","null","",NA,NA,NA,NA,""
"image-keyboard-response",181,227930,"0.0-3.56-2.56","7wz4tw9nckd7jlc",639,"71.csv","","null","resources/images/fishbone.png","null","",NA,NA,NA,NA,""
"image-keyboard-response",182,230939,"0.0-3.57-0.57","7wz4tw9nckd7jlc",639,"71.csv","","3006","resources/trios/L1T1A3.jpg","39","restless",0.5,0.5,0.6,0.0443275323234404,"true"
"image-keyboard-response",183,231341,"0.0-3.57-1.57","7wz4tw9nckd7jlc",639,"71.csv","","null","resources/maskTrios/BBA3.jpg","null","",NA,NA,NA,NA,""
"image-keyboard-response",184,232544,"0.0-3.57-2.57","7wz4tw9nckd7jlc",639,"71.csv","","null","resources/images/coin2.png","null","",NA,NA,NA,NA,""
"image-keyboard-response",185,234712,"0.0-3.58-0.58","7wz4tw9nckd7jlc",639,"71.csv","","2165","resources/trios/L1T2A3.jpg","38","restless",0.5,0.5,0.6,0.226931603516733,"true"
"image-keyboard-response",186,235115,"0.0-3.58-1.58","7wz4tw9nckd7jlc",639,"71.csv","","null","resources/maskTrios/BT2B.jpg","null","",NA,NA,NA,NA,""
"image-keyboard-response",187,236317,"0.0-3.58-2.58","7wz4tw9nckd7jlc",639,"71.csv","","null","resources/images/coin2.png","null","",NA,NA,NA,NA,""
"image-keyboard-response",188,237772,"0.0-3.59-0.59","7wz4tw9nckd7jlc",639,"71.csv","","1452","resources/trios/L4T2A1.jpg","38","restless",0.5,0.5,0.6,0.204077475681594,"true"
"image-keyboard-response",189,238178,"0.0-3.59-1.59","7wz4tw9nckd7jlc",639,"71.csv","","null","resources/maskTrios/BT2B.jpg","null","",NA,NA,NA,NA,""
"image-keyboard-response",190,239381,"0.0-3.59-2.59","7wz4tw9nckd7jlc",639,"71.csv","","null","resources/images/coin2.png","null","",NA,NA,NA,NA,""
"image-keyboard-response",191,240038,"0.0-3.60-0.60","7wz4tw9nckd7jlc",639,"71.csv","","654.0000000000291","resources/trios/L1T1A3.jpg","39","restless",0.5,0.5,0.6,0.925491462016044,"false"
"image-keyboard-response",192,240441,"0.0-3.60-1.60","7wz4tw9nckd7jlc",639,"71.csv","","null","resources/maskTrios/BBA3.jpg","null","",NA,NA,NA,NA,""
"image-keyboard-response",193,241644,"0.0-3.60-2.60","7wz4tw9nckd7jlc",639,"71.csv","","null","resources/images/fishbone.png","null","",NA,NA,NA,NA,""
"image-keyboard-response",194,242296,"0.0-3.61-0.61","7wz4tw9nckd7jlc",639,"71.csv","","650","resources/trios/L4T2A1.jpg","38","restless",0.5,0.5,0.6,0.939517049006929,"false"
"image-keyboard-response",195,242699,"0.0-3.61-1.61","7wz4tw9nckd7jlc",639,"71.csv","","null","resources/maskTrios/BT2B.jpg","null","",NA,NA,NA,NA,""
"image-keyboard-response",196,243901,"0.0-3.61-2.61","7wz4tw9nckd7jlc",639,"71.csv","","null","resources/images/fishbone.png","null","",NA,NA,NA,NA,""
"image-keyboard-response",197,245443,"0.0-3.62-0.62","7wz4tw9nckd7jlc",639,"71.csv","","1539.000000000029","resources/trios/L4T2A1.jpg","37","restless",0.5,0.5,0.6,0.74172273571495,"false"
"image-keyboard-response",198,245846,"0.0-3.62-1.62","7wz4tw9nckd7jlc",639,"71.csv","","null","resources/maskTrios/L4BB.jpg","null","",NA,NA,NA,NA,""
"image-keyboard-response",199,247049,"0.0-3.62-2.62","7wz4tw9nckd7jlc",639,"71.csv","","null","resources/images/fishbone.png","null","",NA,NA,NA,NA,""
"image-keyboard-response",200,248686,"0.0-3.63-0.63","7wz4tw9nckd7jlc",639,"71.csv","","1636.000000000029","resources/trios/L4T1A3.jpg","39","restless",0.5,0.5,0.6,0.975045374950382,"false"
"image-keyboard-response",201,249090,"0.0-3.63-1.63","7wz4tw9nckd7jlc",639,"71.csv","","null","resources/maskTrios/BBA3.jpg","null","",NA,NA,NA,NA,""
"image-keyboard-response",202,250292,"0.0-3.63-2.63","7wz4tw9nckd7jlc",639,"71.csv","","null","resources/images/fishbone.png","null","",NA,NA,NA,NA,""
"image-keyboard-response",203,255610,"0.0-3.64-0.64","7wz4tw9nckd7jlc",639,"71.csv","","5317","resources/trios/L1T2A3.jpg","37","restless",0.5,0.4,0.6,0.424787391219799,"true"
"image-keyboard-response",204,256013,"0.0-3.64-1.64","7wz4tw9nckd7jlc",639,"71.csv","","null","resources/maskTrios/L1BB.jpg","null","",NA,NA,NA,NA,""
"image-keyboard-response",205,257216,"0.0-3.64-2.64","7wz4tw9nckd7jlc",639,"71.csv","","null","resources/images/coin2.png","null","",NA,NA,NA,NA,""
"image-keyboard-response",206,264634,"0.0-3.65-0.65","7wz4tw9nckd7jlc",639,"71.csv","","7411.000000000029","resources/trios/L4T2A3.jpg","39","restless",0.5,0.4,0.6,0.795704910710769,"false"
"image-keyboard-response",207,265037,"0.0-3.65-1.65","7wz4tw9nckd7jlc",639,"71.csv","","null","resources/maskTrios/BBA3.jpg","null","",NA,NA,NA,NA,""
"image-keyboard-response",208,266240,"0.0-3.65-2.65","7wz4tw9nckd7jlc",639,"71.csv","","null","resources/images/fishbone.png","null","",NA,NA,NA,NA,""
"image-keyboard-response",209,268742,"0.0-3.66-0.66","7wz4tw9nckd7jlc",639,"71.csv","","2500","resources/trios/L4T2A3.jpg","38","restless",0.6,0.4,0.6,0.0808381177796071,"true"
"image-keyboard-response",210,269144,"0.0-3.66-1.66","7wz4tw9nckd7jlc",639,"71.csv","","null","resources/maskTrios/BT2B.jpg","null","",NA,NA,NA,NA,""
"image-keyboard-response",211,270347,"0.0-3.66-2.66","7wz4tw9nckd7jlc",639,"71.csv","","null","resources/images/coin2.png","null","",NA,NA,NA,NA,""
"image-keyboard-response",212,273551,"0.0-3.67-0.67","7wz4tw9nckd7jlc",639,"71.csv","","3201","resources/trios/L1T1A3.jpg","37","restless",0.6,0.4,0.5,0.926610143994241,"false"
"image-keyboard-response",213,273954,"0.0-3.67-1.67","7wz4tw9nckd7jlc",639,"71.csv","","null","resources/maskTrios/L1BB.jpg","null","",NA,NA,NA,NA,""
"image-keyboard-response",214,275156,"0.0-3.67-2.67","7wz4tw9nckd7jlc",639,"71.csv","","null","resources/images/fishbone.png","null","",NA,NA,NA,NA,""
"image-keyboard-response",215,280787,"0.0-3.68-0.68","7wz4tw9nckd7jlc",639,"71.csv","","5628","resources/trios/L1T1A1.jpg","37","restless",0.5,0.4,0.5,0.80524256569598,"false"
"image-keyboard-response",216,281191,"0.0-3.68-1.68","7wz4tw9nckd7jlc",639,"71.csv","","null","resources/maskTrios/L1BB.jpg","null","",NA,NA,NA,NA,""
"image-keyboard-response",217,282393,"0.0-3.68-2.68","7wz4tw9nckd7jlc",639,"71.csv","","null","resources/images/fishbone.png","null","",NA,NA,NA,NA,""
"image-keyboard-response",218,283705,"0.0-3.69-0.69","7wz4tw9nckd7jlc",639,"71.csv","","1309","resources/trios/L4T2A1.jpg","38","restless",0.5,0.4,0.4,0.0860233894197356,"true"
"image-keyboard-response",219,284108,"0.0-3.69-1.69","7wz4tw9nckd7jlc",639,"71.csv","","null","resources/maskTrios/BT2B.jpg","null","",NA,NA,NA,NA,""
"image-keyboard-response",220,285311,"0.0-3.69-2.69","7wz4tw9nckd7jlc",639,"71.csv","","null","resources/images/coin2.png","null","",NA,NA,NA,NA,""
"image-keyboard-response",221,288330,"0.0-3.70-0.70","7wz4tw9nckd7jlc",639,"71.csv","","3016","resources/trios/L1T2A3.jpg","37","restless",0.5,0.4,0.4,0.376146259907912,"true"
"image-keyboard-response",222,288733,"0.0-3.70-1.70","7wz4tw9nckd7jlc",639,"71.csv","","null","resources/maskTrios/L1BB.jpg","null","",NA,NA,NA,NA,""
"image-keyboard-response",223,289936,"0.0-3.70-2.70","7wz4tw9nckd7jlc",639,"71.csv","","null","resources/images/coin2.png","null","",NA,NA,NA,NA,""
"image-keyboard-response",224,292214,"0.0-3.71-0.71","7wz4tw9nckd7jlc",639,"71.csv","","2275.000000000058","resources/trios/L4T2A3.jpg","37","restless",0.5,0.4,0.4,0.241549539883382,"true"
"image-keyboard-response",225,292619,"0.0-3.71-1.71","7wz4tw9nckd7jlc",639,"71.csv","","null","resources/maskTrios/L4BB.jpg","null","",NA,NA,NA,NA,""
"image-keyboard-response",226,293821,"0.0-3.71-2.71","7wz4tw9nckd7jlc",639,"71.csv","","null","resources/images/coin2.png","null","",NA,NA,NA,NA,""
"image-keyboard-response",227,296475,"0.0-3.72-0.72","7wz4tw9nckd7jlc",639,"71.csv","","2651","resources/trios/L4T2A1.jpg","38","restless",0.5,0.4,0.4,0.801448561318137,"false"
"image-keyboard-response",228,296879,"0.0-3.72-1.72","7wz4tw9nckd7jlc",639,"71.csv","","null","resources/maskTrios/BT2B.jpg","null","",NA,NA,NA,NA,""
"image-keyboard-response",229,298081,"0.0-3.72-2.72","7wz4tw9nckd7jlc",639,"71.csv","","null","resources/images/fishbone.png","null","",NA,NA,NA,NA,""
"image-keyboard-response",230,301425,"0.0-3.73-0.73","7wz4tw9nckd7jlc",639,"71.csv","","3340","resources/trios/L1T1A1.jpg","38","restless",0.5,0.4,0.3,0.544037032677607,"false"
"image-keyboard-response",231,301829,"0.0-3.73-1.73","7wz4tw9nckd7jlc",639,"71.csv","","null","resources/maskTrios/BT1B.jpg","null","",NA,NA,NA,NA,""
"image-keyboard-response",232,303032,"0.0-3.73-2.73","7wz4tw9nckd7jlc",639,"71.csv","","null","resources/images/fishbone.png","null","",NA,NA,NA,NA,""
"image-keyboard-response",233,304094,"0.0-3.74-0.74","7wz4tw9nckd7jlc",639,"71.csv","","1059","resources/trios/L1T2A3.jpg","37","restless",0.5,0.4,0.3,0.76430304762523,"false"
"image-keyboard-response",234,304497,"0.0-3.74-1.74","7wz4tw9nckd7jlc",639,"71.csv","","null","resources/maskTrios/L1BB.jpg","null","",NA,NA,NA,NA,""
"image-keyboard-response",235,305700,"0.0-3.74-2.74","7wz4tw9nckd7jlc",639,"71.csv","","null","resources/images/fishbone.png","null","",NA,NA,NA,NA,""
"image-keyboard-response",236,308171,"0.0-3.75-0.75","7wz4tw9nckd7jlc",639,"71.csv","","2468.999999999942","resources/trios/L1T1A1.jpg","38","restless",0.5,0.4,0.3,0.197113862284097,"true"
"image-keyboard-response",237,308573,"0.0-3.75-1.75","7wz4tw9nckd7jlc",639,"71.csv","","null","resources/maskTrios/BT1B.jpg","null","",NA,NA,NA,NA,""
"image-keyboard-response",238,309779,"0.0-3.75-2.75","7wz4tw9nckd7jlc",639,"71.csv","","null","resources/images/coin2.png","null","",NA,NA,NA,NA,""
"image-keyboard-response",239,314608,"0.0-3.76-0.76","7wz4tw9nckd7jlc",639,"71.csv","","4826","resources/trios/L4T2A1.jpg","38","restless",0.5,0.4,0.3,0.266197306013558,"true"
"image-keyboard-response",240,315012,"0.0-3.76-1.76","7wz4tw9nckd7jlc",639,"71.csv","","null","resources/maskTrios/BT2B.jpg","null","",NA,NA,NA,NA,""
"image-keyboard-response",241,316215,"0.0-3.76-2.76","7wz4tw9nckd7jlc",639,"71.csv","","null","resources/images/coin2.png","null","",NA,NA,NA,NA,""
"image-keyboard-response",242,323735,"0.0-3.77-0.77","7wz4tw9nckd7jlc",639,"71.csv","","7519","resources/trios/L1T1A1.jpg","39","restless",0.5,0.4,0.3,0.529055252884944,"false"
"image-keyboard-response",243,324139,"0.0-3.77-1.77","7wz4tw9nckd7jlc",639,"71.csv","","null","resources/maskTrios/BBA1.jpg","null","",NA,NA,NA,NA,""
"image-keyboard-response",244,325341,"0.0-3.77-2.77","7wz4tw9nckd7jlc",639,"71.csv","","null","resources/images/fishbone.png","null","",NA,NA,NA,NA,""
"image-keyboard-response",245,332988,"0.0-3.78-0.78","7wz4tw9nckd7jlc",639,"71.csv","","7644.000000000058","resources/trios/L4T2A1.jpg","38","restless",0.5,0.4,0.3,0.141294128519607,"true"
"image-keyboard-response",246,333392,"0.0-3.78-1.78","7wz4tw9nckd7jlc",639,"71.csv","","null","resources/maskTrios/BT2B.jpg","null","",NA,NA,NA,NA,""
"image-keyboard-response",247,334594,"0.0-3.78-2.78","7wz4tw9nckd7jlc",639,"71.csv","","null","resources/images/coin2.png","null","",NA,NA,NA,NA,""
"image-keyboard-response",248,336281,"0.0-3.79-0.79","7wz4tw9nckd7jlc",639,"71.csv","","1684","resources/trios/L4T1A3.jpg","39","restless",0.5,0.4,0.3,0.519287018287667,"false"
"image-keyboard-response",249,336684,"0.0-3.79-1.79","7wz4tw9nckd7jlc",639,"71.csv","","null","resources/maskTrios/BBA3.jpg","null","",NA,NA,NA,NA,""
"image-keyboard-response",250,337886,"0.0-3.79-2.79","7wz4tw9nckd7jlc",639,"71.csv","","null","resources/images/fishbone.png","null","",NA,NA,NA,NA,""
"image-keyboard-response",251,339325,"0.0-3.80-0.80","7wz4tw9nckd7jlc",639,"71.csv","","1436","resources/trios/L1T2A3.jpg","39","restless",0.5,0.4,0.3,0.0722138468086146,"true"
"image-keyboard-response",252,339728,"0.0-3.80-1.80","7wz4tw9nckd7jlc",639,"71.csv","","null","resources/maskTrios/BBA3.jpg","null","",NA,NA,NA,NA,""
"image-keyboard-response",253,340931,"0.0-3.80-2.80","7wz4tw9nckd7jlc",639,"71.csv","","null","resources/images/coin2.png","null","",NA,NA,NA,NA,""
"image-keyboard-response",254,344917,"0.0-3.81-0.81","7wz4tw9nckd7jlc",639,"71.csv","","3983","resources/trios/L4T1A3.jpg","38","restless",0.5,0.3,0.3,0.413356013373582,"false"
"image-keyboard-response",255,345320,"0.0-3.81-1.81","7wz4tw9nckd7jlc",639,"71.csv","","null","resources/maskTrios/BT1B.jpg","null","",NA,NA,NA,NA,""
"image-keyboard-response",256,346522,"0.0-3.81-2.81","7wz4tw9nckd7jlc",639,"71.csv","","null","resources/images/fishbone.png","null","",NA,NA,NA,NA,""
"image-keyboard-response",257,348470,"0.0-3.82-0.82","7wz4tw9nckd7jlc",639,"71.csv","","1945","resources/trios/L4T2A3.jpg","37","restless",0.5,0.3,0.3,0.480749757327155,"true"
"image-keyboard-response",258,348872,"0.0-3.82-1.82","7wz4tw9nckd7jlc",639,"71.csv","","null","resources/maskTrios/L4BB.jpg","null","",NA,NA,NA,NA,""
"image-keyboard-response",259,350075,"0.0-3.82-2.82","7wz4tw9nckd7jlc",639,"71.csv","","null","resources/images/coin2.png","null","",NA,NA,NA,NA,""
"image-keyboard-response",260,351465,"0.0-3.83-0.83","7wz4tw9nckd7jlc",639,"71.csv","","1388","resources/trios/L1T1A1.jpg","39","restless",0.5,0.4,0.4,0.433897806077869,"false"
"image-keyboard-response",261,351869,"0.0-3.83-1.83","7wz4tw9nckd7jlc",639,"71.csv","","null","resources/maskTrios/BBA1.jpg","null","",NA,NA,NA,NA,""
"image-keyboard-response",262,353071,"0.0-3.83-2.83","7wz4tw9nckd7jlc",639,"71.csv","","null","resources/images/fishbone.png","null","",NA,NA,NA,NA,""
"image-keyboard-response",263,355426,"0.0-3.84-0.84","7wz4tw9nckd7jlc",639,"71.csv","","2354","resources/trios/L4T1A1.jpg","38","restless",0.5,0.4,0.4,0.123213862778662,"true"
"image-keyboard-response",264,355829,"0.0-3.84-1.84","7wz4tw9nckd7jlc",639,"71.csv","","null","resources/maskTrios/BT1B.jpg","null","",NA,NA,NA,NA,""
"image-keyboard-response",265,357032,"0.0-3.84-2.84","7wz4tw9nckd7jlc",639,"71.csv","","null","resources/images/coin2.png","null","",NA,NA,NA,NA,""
"image-keyboard-response",266,358038,"0.0-3.85-0.85","7wz4tw9nckd7jlc",639,"71.csv","","1005","resources/trios/L1T1A3.jpg","39","restless",0.5,0.4,0.4,0.819219713016567,"false"
"image-keyboard-response",267,358442,"0.0-3.85-1.85","7wz4tw9nckd7jlc",639,"71.csv","","null","resources/maskTrios/BBA3.jpg","null","",NA,NA,NA,NA,""
"image-keyboard-response",268,359644,"0.0-3.85-2.85","7wz4tw9nckd7jlc",639,"71.csv","","null","resources/images/fishbone.png","null","",NA,NA,NA,NA,""
"image-keyboard-response",269,362875,"0.0-3.86-0.86","7wz4tw9nckd7jlc",639,"71.csv","","3229","resources/trios/L4T2A1.jpg","38","restless",0.5,0.4,0.4,0.699761912137075,"false"
"image-keyboard-response",270,363278,"0.0-3.86-1.86","7wz4tw9nckd7jlc",639,"71.csv","","null","resources/maskTrios/BT2B.jpg","null","",NA,NA,NA,NA,""
"image-keyboard-response",271,364481,"0.0-3.86-2.86","7wz4tw9nckd7jlc",639,"71.csv","","null","resources/images/fishbone.png","null","",NA,NA,NA,NA,""
"image-keyboard-response",272,366509,"0.0-3.87-0.87","7wz4tw9nckd7jlc",639,"71.csv","","2023","resources/trios/L1T1A3.jpg","38","restless",0.5,0.4,0.4,0.323141885709521,"true"
"image-keyboard-response",273,366912,"0.0-3.87-1.87","7wz4tw9nckd7jlc",639,"71.csv","","null","resources/maskTrios/BT1B.jpg","null","",NA,NA,NA,NA,""
"image-keyboard-response",274,368116,"0.0-3.87-2.87","7wz4tw9nckd7jlc",639,"71.csv","","null","resources/images/coin2.png","null","",NA,NA,NA,NA,""
"image-keyboard-response",275,371637,"0.0-3.88-0.88","7wz4tw9nckd7jlc",639,"71.csv","","3519.000000000058","resources/trios/L4T1A3.jpg","38","restless",0.5,0.4,0.4,0.587895556200929,"false"
"image-keyboard-response",276,372040,"0.0-3.88-1.88","7wz4tw9nckd7jlc",639,"71.csv","","null","resources/maskTrios/BT1B.jpg","null","",NA,NA,NA,NA,""
"image-keyboard-response",277,373242,"0.0-3.88-2.88","7wz4tw9nckd7jlc",639,"71.csv","","null","resources/images/fishbone.png","null","",NA,NA,NA,NA,""
"image-keyboard-response",278,374396,"0.0-3.89-0.89","7wz4tw9nckd7jlc",639,"71.csv","","1148","resources/trios/L1T2A1.jpg","38","restless",0.5,0.4,0.4,0.00949577336796859,"true"
"image-keyboard-response",279,374799,"0.0-3.89-1.89","7wz4tw9nckd7jlc",639,"71.csv","","null","resources/maskTrios/BT2B.jpg","null","",NA,NA,NA,NA,""
"image-keyboard-response",280,376002,"0.0-3.89-2.89","7wz4tw9nckd7jlc",639,"71.csv","","null","resources/images/coin2.png","null","",NA,NA,NA,NA,""
"image-keyboard-response",281,377157,"0.0-3.90-0.90","7wz4tw9nckd7jlc",639,"71.csv","","1152","resources/trios/L1T1A1.jpg","37","restless",0.5,0.4,0.4,0.0812268728201235,"true"
"image-keyboard-response",282,377560,"0.0-3.90-1.90","7wz4tw9nckd7jlc",639,"71.csv","","null","resources/maskTrios/L1BB.jpg","null","",NA,NA,NA,NA,""
"image-keyboard-response",283,378763,"0.0-3.90-2.90","7wz4tw9nckd7jlc",639,"71.csv","","null","resources/images/coin2.png","null","",NA,NA,NA,NA,""
"image-keyboard-response",284,383195,"0.0-3.91-0.91","7wz4tw9nckd7jlc",639,"71.csv","","4429","resources/trios/L1T1A1.jpg","38","restless",0.5,0.4,0.4,0.723729097284249,"false"
"image-keyboard-response",285,383598,"0.0-3.91-1.91","7wz4tw9nckd7jlc",639,"71.csv","","null","resources/maskTrios/BT1B.jpg","null","",NA,NA,NA,NA,""
"image-keyboard-response",286,384801,"0.0-3.91-2.91","7wz4tw9nckd7jlc",639,"71.csv","","null","resources/images/fishbone.png","null","",NA,NA,NA,NA,""
"image-keyboard-response",287,385587,"0.0-3.92-0.92","7wz4tw9nckd7jlc",639,"71.csv","","784","resources/trios/L4T2A1.jpg","38","restless",0.5,0.4,0.4,0.873724681820327,"false"
"image-keyboard-response",288,385990,"0.0-3.92-1.92","7wz4tw9nckd7jlc",639,"71.csv","","null","resources/maskTrios/BT2B.jpg","null","",NA,NA,NA,NA,""
"image-keyboard-response",289,387192,"0.0-3.92-2.92","7wz4tw9nckd7jlc",639,"71.csv","","null","resources/images/fishbone.png","null","",NA,NA,NA,NA,""
"image-keyboard-response",290,388393,"0.0-3.93-0.93","7wz4tw9nckd7jlc",639,"71.csv","","1198","resources/trios/L4T2A3.jpg","37","restless",0.5,0.4,0.3,0.887869860247307,"false"
"image-keyboard-response",291,388796,"0.0-3.93-1.93","7wz4tw9nckd7jlc",639,"71.csv","","null","resources/maskTrios/L4BB.jpg","null","",NA,NA,NA,NA,""
"image-keyboard-response",292,389998,"0.0-3.93-2.93","7wz4tw9nckd7jlc",639,"71.csv","","null","resources/images/fishbone.png","null","",NA,NA,NA,NA,""
"image-keyboard-response",293,390550,"0.0-3.94-0.94","7wz4tw9nckd7jlc",639,"71.csv","","549","resources/trios/L4T2A1.jpg","38","restless",0.5,0.4,0.2,0.125262162312621,"true"
"image-keyboard-response",294,390955,"0.0-3.94-1.94","7wz4tw9nckd7jlc",639,"71.csv","","null","resources/maskTrios/BT2B.jpg","null","",NA,NA,NA,NA,""
"image-keyboard-response",295,392157,"0.0-3.94-2.94","7wz4tw9nckd7jlc",639,"71.csv","","null","resources/images/coin2.png","null","",NA,NA,NA,NA,""
"image-keyboard-response",296,392682,"0.0-3.95-0.95","7wz4tw9nckd7jlc",639,"71.csv","","523","resources/trios/L1T2A3.jpg","37","restless",0.5,0.4,0.2,0.931953485461676,"false"
"image-keyboard-response",297,393085,"0.0-3.95-1.95","7wz4tw9nckd7jlc",639,"71.csv","","null","resources/maskTrios/L1BB.jpg","null","",NA,NA,NA,NA,""
"image-keyboard-response",298,394288,"0.0-3.95-2.95","7wz4tw9nckd7jlc",639,"71.csv","","null","resources/images/fishbone.png","null","",NA,NA,NA,NA,""
"image-keyboard-response",299,394689,"0.0-3.96-0.96","7wz4tw9nckd7jlc",639,"71.csv","","399","resources/trios/L4T2A3.jpg","39","restless",0.5,0.4,0.2,0.215443562536504,"false"
"image-keyboard-response",300,395093,"0.0-3.96-1.96","7wz4tw9nckd7jlc",639,"71.csv","","null","resources/maskTrios/BBA3.jpg","null","",NA,NA,NA,NA,""
"image-keyboard-response",301,396295,"0.0-3.96-2.96","7wz4tw9nckd7jlc",639,"71.csv","","null","resources/images/fishbone.png","null","",NA,NA,NA,NA,""
"image-keyboard-response",302,396738,"0.0-3.97-0.97","7wz4tw9nckd7jlc",639,"71.csv","","440","resources/trios/L1T1A3.jpg","38","restless",0.5,0.4,0.2,0.911004132903485,"false"
"image-keyboard-response",303,397141,"0.0-3.97-1.97","7wz4tw9nckd7jlc",639,"71.csv","","null","resources/maskTrios/BT1B.jpg","null","",NA,NA,NA,NA,""
"image-keyboard-response",304,398343,"0.0-3.97-2.97","7wz4tw9nckd7jlc",639,"71.csv","","null","resources/images/fishbone.png","null","",NA,NA,NA,NA,""
"image-keyboard-response",305,399158,"0.0-3.98-0.98","7wz4tw9nckd7jlc",639,"71.csv","","812","resources/trios/L1T2A1.jpg","38","restless",0.4,0.4,0.2,0.895932949754399,"false"
"image-keyboard-response",306,399561,"0.0-3.98-1.98","7wz4tw9nckd7jlc",639,"71.csv","","null","resources/maskTrios/BT2B.jpg","null","",NA,NA,NA,NA,""
"image-keyboard-response",307,400764,"0.0-3.98-2.98","7wz4tw9nckd7jlc",639,"71.csv","","null","resources/images/fishbone.png","null","",NA,NA,NA,NA,""
"image-keyboard-response",308,406752,"0.0-3.99-0.99","7wz4tw9nckd7jlc",639,"71.csv","","5986","resources/trios/L4T1A3.jpg","38","restless",0.4,0.4,0.2,0.224988754189259,"true"
"image-keyboard-response",309,407157,"0.0-3.99-1.99","7wz4tw9nckd7jlc",639,"71.csv","","null","resources/maskTrios/BT1B.jpg","null","",NA,NA,NA,NA,""
"image-keyboard-response",310,408359,"0.0-3.99-2.99","7wz4tw9nckd7jlc",639,"71.csv","","null","resources/images/coin2.png","null","",NA,NA,NA,NA,""
"image-keyboard-response",311,412489,"0.0-3.100-0.100","7wz4tw9nckd7jlc",639,"71.csv","","4125.999999999942","resources/trios/L1T2A3.jpg","37","restless",0.4,0.4,0.2,0.305937987609028,"true"
"image-keyboard-response",312,412892,"0.0-3.100-1.100","7wz4tw9nckd7jlc",639,"71.csv","","null","resources/maskTrios/L1BB.jpg","null","",NA,NA,NA,NA,""
"image-keyboard-response",313,414095,"0.0-3.100-2.100","7wz4tw9nckd7jlc",639,"71.csv","","null","resources/images/coin2.png","null","",NA,NA,NA,NA,""
"image-keyboard-response",314,419039,"0.0-3.101-0.101","7wz4tw9nckd7jlc",639,"71.csv","","4940","resources/trios/L4T1A1.jpg","39","restless",0.4,0.4,0.2,0.760020639586793,"false"
"image-keyboard-response",315,419442,"0.0-3.101-1.101","7wz4tw9nckd7jlc",639,"71.csv","","null","resources/maskTrios/BBA1.jpg","null","",NA,NA,NA,NA,""
"image-keyboard-response",316,420645,"0.0-3.101-2.101","7wz4tw9nckd7jlc",639,"71.csv","","null","resources/images/fishbone.png","null","",NA,NA,NA,NA,""
"image-keyboard-response",317,423276,"0.0-3.102-0.102","7wz4tw9nckd7jlc",639,"71.csv","","2628","resources/trios/L1T2A3.jpg","38","restless",0.4,0.4,0.3,0.0737318973540498,"true"
"image-keyboard-response",318,423679,"0.0-3.102-1.102","7wz4tw9nckd7jlc",639,"71.csv","","null","resources/maskTrios/BT2B.jpg","null","",NA,NA,NA,NA,""
"image-keyboard-response",319,424882,"0.0-3.102-2.102","7wz4tw9nckd7jlc",639,"71.csv","","null","resources/images/coin2.png","null","",NA,NA,NA,NA,""
"image-keyboard-response",320,425740,"0.0-3.103-0.103","7wz4tw9nckd7jlc",639,"71.csv","","855","resources/trios/L4T1A3.jpg","38","restless",0.5,0.4,0.3,0.859185520668093,"false"
"image-keyboard-response",321,426143,"0.0-3.103-1.103","7wz4tw9nckd7jlc",639,"71.csv","","null","resources/maskTrios/BT1B.jpg","null","",NA,NA,NA,NA,""
"image-keyboard-response",322,427346,"0.0-3.103-2.103","7wz4tw9nckd7jlc",639,"71.csv","","null","resources/images/fishbone.png","null","",NA,NA,NA,NA,""
"image-keyboard-response",323,432104,"0.0-3.104-0.104","7wz4tw9nckd7jlc",639,"71.csv","","4755","resources/trios/L1T2A3.jpg","39","restless",0.4,0.4,0.3,0.729788047814258,"false"
"image-keyboard-response",324,432507,"0.0-3.104-1.104","7wz4tw9nckd7jlc",639,"71.csv","","null","resources/maskTrios/BBA3.jpg","null","",NA,NA,NA,NA,""
"image-keyboard-response",325,433710,"0.0-3.104-2.104","7wz4tw9nckd7jlc",639,"71.csv","","null","resources/images/fishbone.png","null","",NA,NA,NA,NA,""
"image-keyboard-response",326,434449,"0.0-3.105-0.105","7wz4tw9nckd7jlc",639,"71.csv","","737","resources/trios/L4T1A3.jpg","38","restless",0.4,0.3,0.3,0.651316468932544,"false"
"image-keyboard-response",327,434853,"0.0-3.105-1.105","7wz4tw9nckd7jlc",639,"71.csv","","null","resources/maskTrios/BT1B.jpg","null","",NA,NA,NA,NA,""
"image-keyboard-response",328,436055,"0.0-3.105-2.105","7wz4tw9nckd7jlc",639,"71.csv","","null","resources/images/fishbone.png","null","",NA,NA,NA,NA,""
"image-keyboard-response",329,437341,"0.0-3.106-0.106","7wz4tw9nckd7jlc",639,"71.csv","","1284","resources/trios/L4T2A3.jpg","37","restless",0.4,0.3,0.3,0.553330080410162,"false"
"image-keyboard-response",330,437744,"0.0-3.106-1.106","7wz4tw9nckd7jlc",639,"71.csv","","null","resources/maskTrios/L4BB.jpg","null","",NA,NA,NA,NA,""
"image-keyboard-response",331,438947,"0.0-3.106-2.106","7wz4tw9nckd7jlc",639,"71.csv","","null","resources/images/fishbone.png","null","",NA,NA,NA,NA,""
"image-keyboard-response",332,440075,"0.0-3.107-0.107","7wz4tw9nckd7jlc",639,"71.csv","","1126","resources/trios/L4T2A3.jpg","38","restless",0.4,0.3,0.3,0.113044600185423,"true"
"image-keyboard-response",333,440480,"0.0-3.107-1.107","7wz4tw9nckd7jlc",639,"71.csv","","null","resources/maskTrios/BT2B.jpg","null","",NA,NA,NA,NA,""
"image-keyboard-response",334,441682,"0.0-3.107-2.107","7wz4tw9nckd7jlc",639,"71.csv","","null","resources/images/coin2.png","null","",NA,NA,NA,NA,""
"image-keyboard-response",335,447508,"0.0-3.108-0.108","7wz4tw9nckd7jlc",639,"71.csv","","5821.999999999942","resources/trios/L1T2A3.jpg","39","restless",0.3,0.3,0.4,0.506852058078466,"false"
"image-keyboard-response",336,447912,"0.0-3.108-1.108","7wz4tw9nckd7jlc",639,"71.csv","","null","resources/maskTrios/BBA3.jpg","null","",NA,NA,NA,NA,""
"image-keyboard-response",337,449114,"0.0-3.108-2.108","7wz4tw9nckd7jlc",639,"71.csv","","null","resources/images/fishbone.png","null","",NA,NA,NA,NA,""
"image-keyboard-response",338,449692,"0.0-3.109-0.109","7wz4tw9nckd7jlc",639,"71.csv","","575","resources/trios/L1T2A1.jpg","38","restless",0.3,0.3,0.4,0.29115248014983,"true"
"image-keyboard-response",339,450095,"0.0-3.109-1.109","7wz4tw9nckd7jlc",639,"71.csv","","null","resources/maskTrios/BT2B.jpg","null","",NA,NA,NA,NA,""
"image-keyboard-response",340,451298,"0.0-3.109-2.109","7wz4tw9nckd7jlc",639,"71.csv","","null","resources/images/coin2.png","null","",NA,NA,NA,NA,""
"image-keyboard-response",341,453904,"0.0-3.110-0.110","7wz4tw9nckd7jlc",639,"71.csv","","2603.000000000058","resources/trios/L1T2A3.jpg","39","restless",0.3,0.3,0.4,0.685163923234275,"false"
"image-keyboard-response",342,454306,"0.0-3.110-1.110","7wz4tw9nckd7jlc",639,"71.csv","","null","resources/maskTrios/BBA3.jpg","null","",NA,NA,NA,NA,""
"image-keyboard-response",343,455509,"0.0-3.110-2.110","7wz4tw9nckd7jlc",639,"71.csv","","null","resources/images/fishbone.png","null","",NA,NA,NA,NA,""
"image-keyboard-response",344,455943,"0.0-3.111-0.111","7wz4tw9nckd7jlc",639,"71.csv","","429","resources/trios/L1T2A1.jpg","38","restless",0.3,0.3,0.4,0.94961447224681,"false"
"image-keyboard-response",345,456346,"0.0-3.111-1.111","7wz4tw9nckd7jlc",639,"71.csv","","null","resources/maskTrios/BT2B.jpg","null","",NA,NA,NA,NA,""
"image-keyboard-response",346,457549,"0.0-3.111-2.111","7wz4tw9nckd7jlc",639,"71.csv","","null","resources/images/fishbone.png","null","",NA,NA,NA,NA,""
"image-keyboard-response",347,458909,"0.0-3.112-0.112","7wz4tw9nckd7jlc",639,"71.csv","","1358","resources/trios/L4T1A3.jpg","38","restless",0.3,0.3,0.4,0.270080845086075,"true"
"image-keyboard-response",348,459313,"0.0-3.112-1.112","7wz4tw9nckd7jlc",639,"71.csv","","null","resources/maskTrios/BT1B.jpg","null","",NA,NA,NA,NA,""
"image-keyboard-response",349,460516,"0.0-3.112-2.112","7wz4tw9nckd7jlc",639,"71.csv","","null","resources/images/coin2.png","null","",NA,NA,NA,NA,""
"image-keyboard-response",350,461384,"0.0-3.113-0.113","7wz4tw9nckd7jlc",639,"71.csv","","866","resources/trios/L1T2A1.jpg","37","restless",0.3,0.3,0.4,0.649454963568831,"false"
"image-keyboard-response",351,461787,"0.0-3.113-1.113","7wz4tw9nckd7jlc",639,"71.csv","","null","resources/maskTrios/L1BB.jpg","null","",NA,NA,NA,NA,""
"image-keyboard-response",352,462990,"0.0-3.113-2.113","7wz4tw9nckd7jlc",639,"71.csv","","null","resources/images/fishbone.png","null","",NA,NA,NA,NA,""
"image-keyboard-response",353,465728,"0.0-3.114-0.114","7wz4tw9nckd7jlc",639,"71.csv","","2735","resources/trios/L1T1A3.jpg","39","restless",0.3,0.3,0.3,0.0556993925852024,"true"
"image-keyboard-response",354,466131,"0.0-3.114-1.114","7wz4tw9nckd7jlc",639,"71.csv","","null","resources/maskTrios/BBA3.jpg","null","",NA,NA,NA,NA,""
"image-keyboard-response",355,467335,"0.0-3.114-2.114","7wz4tw9nckd7jlc",639,"71.csv","","null","resources/images/coin2.png","null","",NA,NA,NA,NA,""
"image-keyboard-response",356,470458,"0.0-3.115-0.115","7wz4tw9nckd7jlc",639,"71.csv","","3121.000000000058","resources/trios/L1T2A1.jpg","37","restless",0.3,0.3,0.3,0.957925445858878,"false"
"image-keyboard-response",357,470861,"0.0-3.115-1.115","7wz4tw9nckd7jlc",639,"71.csv","","null","resources/maskTrios/L1BB.jpg","null","",NA,NA,NA,NA,""
"image-keyboard-response",358,472064,"0.0-3.115-2.115","7wz4tw9nckd7jlc",639,"71.csv","","null","resources/images/fishbone.png","null","",NA,NA,NA,NA,""
"image-keyboard-response",359,472975,"0.0-3.116-0.116","7wz4tw9nckd7jlc",639,"71.csv","","909.0000000000582","resources/trios/L1T2A3.jpg","38","restless",0.3,0.4,0.3,0.885090042006675,"false"
"image-keyboard-response",360,473378,"0.0-3.116-1.116","7wz4tw9nckd7jlc",639,"71.csv","","null","resources/maskTrios/BT2B.jpg","null","",NA,NA,NA,NA,""
"image-keyboard-response",361,474581,"0.0-3.116-2.116","7wz4tw9nckd7jlc",639,"71.csv","","null","resources/images/fishbone.png","null","",NA,NA,NA,NA,""
"image-keyboard-response",362,488034,"0.0-3.117-0.117","7wz4tw9nckd7jlc",639,"71.csv","","13450.999999999942","resources/trios/L4T2A1.jpg","38","restless",0.3,0.4,0.3,0.00389080125496388,"true"
"image-keyboard-response",363,488437,"0.0-3.117-1.117","7wz4tw9nckd7jlc",639,"71.csv","","null","resources/maskTrios/BT2B.jpg","null","",NA,NA,NA,NA,""
"image-keyboard-response",364,489639,"0.0-3.117-2.117","7wz4tw9nckd7jlc",639,"71.csv","","null","resources/images/coin2.png","null","",NA,NA,NA,NA,""
"image-keyboard-response",365,491032,"0.0-3.118-0.118","7wz4tw9nckd7jlc",639,"71.csv","","1389","resources/trios/L4T2A1.jpg","39","restless",0.3,0.4,0.3,0.561802280511568,"false"
"image-keyboard-response",366,491435,"0.0-3.118-1.118","7wz4tw9nckd7jlc",639,"71.csv","","null","resources/maskTrios/BBA1.jpg","null","",NA,NA,NA,NA,""
"image-keyboard-response",367,492637,"0.0-3.118-2.118","7wz4tw9nckd7jlc",639,"71.csv","","null","resources/images/fishbone.png","null","",NA,NA,NA,NA,""
"image-keyboard-response",368,503689,"0.0-3.119-0.119","7wz4tw9nckd7jlc",639,"71.csv","","11050.000000000058","resources/trios/L4T1A3.jpg","38","restless",0.3,0.4,0.3,0.105944753281222,"true"
"image-keyboard-response",369,504093,"0.0-3.119-1.119","7wz4tw9nckd7jlc",639,"71.csv","","null","resources/maskTrios/BT1B.jpg","null","",NA,NA,NA,NA,""
"image-keyboard-response",370,505296,"0.0-3.119-2.119","7wz4tw9nckd7jlc",639,"71.csv","","null","resources/images/coin2.png","null","",NA,NA,NA,NA,""
"image-keyboard-response",371,507281,"0.0-3.120-0.120","7wz4tw9nckd7jlc",639,"71.csv","","1982","resources/trios/L4T2A1.jpg","37","restless",0.3,0.4,0.3,0.770028232703115,"false"
"image-keyboard-response",372,507684,"0.0-3.120-1.120","7wz4tw9nckd7jlc",639,"71.csv","","null","resources/maskTrios/L4BB.jpg","null","",NA,NA,NA,NA,""
"image-keyboard-response",373,508887,"0.0-3.120-2.120","7wz4tw9nckd7jlc",639,"71.csv","","null","resources/images/fishbone.png","null","",NA,NA,NA,NA,""
"image-keyboard-response",374,510276,"0.0-3.121-0.121","7wz4tw9nckd7jlc",639,"71.csv","","1387","resources/trios/L1T2A3.jpg","37","restless",0.3,0.4,0.3,0.62574553819282,"false"
"image-keyboard-response",375,510679,"0.0-3.121-1.121","7wz4tw9nckd7jlc",639,"71.csv","","null","resources/maskTrios/L1BB.jpg","null","",NA,NA,NA,NA,""
"image-keyboard-response",376,511882,"0.0-3.121-2.121","7wz4tw9nckd7jlc",639,"71.csv","","null","resources/images/fishbone.png","null","",NA,NA,NA,NA,""
"image-keyboard-response",377,513315,"0.0-3.122-0.122","7wz4tw9nckd7jlc",639,"71.csv","","1431.0000000000582","resources/trios/L4T1A1.jpg","38","restless",0.3,0.4,0.3,0.373408521167774,"true"
"image-keyboard-response",378,513718,"0.0-3.122-1.122","7wz4tw9nckd7jlc",639,"71.csv","","null","resources/maskTrios/BT1B.jpg","null","",NA,NA,NA,NA,""
"image-keyboard-response",379,514922,"0.0-3.122-2.122","7wz4tw9nckd7jlc",639,"71.csv","","null","resources/images/coin2.png","null","",NA,NA,NA,NA,""
"image-keyboard-response",380,518477,"0.0-3.123-0.123","7wz4tw9nckd7jlc",639,"71.csv","","3550.000000000058","resources/trios/L4T1A3.jpg","38","restless",0.3,0.4,0.3,0.167133373218499,"true"
"image-keyboard-response",381,518881,"0.0-3.123-1.123","7wz4tw9nckd7jlc",639,"71.csv","","null","resources/maskTrios/BT1B.jpg","null","",NA,NA,NA,NA,""
"image-keyboard-response",382,520084,"0.0-3.123-2.123","7wz4tw9nckd7jlc",639,"71.csv","","null","resources/images/coin2.png","null","",NA,NA,NA,NA,""
"image-keyboard-response",383,521966,"0.0-3.124-0.124","7wz4tw9nckd7jlc",639,"71.csv","","1875","resources/trios/L1T1A1.jpg","38","restless",0.4,0.4,0.3,0.895971701057768,"false"
"image-keyboard-response",384,522369,"0.0-3.124-1.124","7wz4tw9nckd7jlc",639,"71.csv","","null","resources/maskTrios/BT1B.jpg","null","",NA,NA,NA,NA,""
"image-keyboard-response",385,523572,"0.0-3.124-2.124","7wz4tw9nckd7jlc",639,"71.csv","","null","resources/images/fishbone.png","null","",NA,NA,NA,NA,""
"image-keyboard-response",386,525952,"0.0-3.125-0.125","7wz4tw9nckd7jlc",639,"71.csv","","2377","resources/trios/L1T1A3.jpg","39","restless",0.4,0.4,0.3,0.0200924522607205,"true"
"image-keyboard-response",387,526354,"0.0-3.125-1.125","7wz4tw9nckd7jlc",639,"71.csv","","null","resources/maskTrios/BBA3.jpg","null","",NA,NA,NA,NA,""
"image-keyboard-response",388,527557,"0.0-3.125-2.125","7wz4tw9nckd7jlc",639,"71.csv","","null","resources/images/coin2.png","null","",NA,NA,NA,NA,""
"image-keyboard-response",389,530365,"0.0-3.126-0.126","7wz4tw9nckd7jlc",639,"71.csv","","2806","resources/trios/L4T2A3.jpg","39","restless",0.4,0.4,0.3,0.418477300681994,"false"
"image-keyboard-response",390,530768,"0.0-3.126-1.126","7wz4tw9nckd7jlc",639,"71.csv","","null","resources/maskTrios/BBA3.jpg","null","",NA,NA,NA,NA,""
"image-keyboard-response",391,531971,"0.0-3.126-2.126","7wz4tw9nckd7jlc",639,"71.csv","","null","resources/images/fishbone.png","null","",NA,NA,NA,NA,""
"image-keyboard-response",392,532385,"0.0-3.127-0.127","7wz4tw9nckd7jlc",639,"71.csv","","411","resources/trios/L1T1A1.jpg","37","restless",0.5,0.4,0.3,0.927293912440437,"false"
"image-keyboard-response",393,532788,"0.0-3.127-1.127","7wz4tw9nckd7jlc",639,"71.csv","","null","resources/maskTrios/L1BB.jpg","null","",NA,NA,NA,NA,""
"image-keyboard-response",394,533991,"0.0-3.127-2.127","7wz4tw9nckd7jlc",639,"71.csv","","null","resources/images/fishbone.png","null","",NA,NA,NA,NA,""
"image-keyboard-response",395,534460,"0.0-3.128-0.128","7wz4tw9nckd7jlc",639,"71.csv","","467","resources/trios/L4T1A1.jpg","38","restless",0.5,0.4,0.3,0.866372455571026,"false"
"image-keyboard-response",396,534864,"0.0-3.128-1.128","7wz4tw9nckd7jlc",639,"71.csv","","null","resources/maskTrios/BT1B.jpg","null","",NA,NA,NA,NA,""
"image-keyboard-response",397,536066,"0.0-3.128-2.128","7wz4tw9nckd7jlc",639,"71.csv","","null","resources/images/fishbone.png","null","",NA,NA,NA,NA,""
"image-keyboard-response",398,540168,"0.0-3.129-0.129","7wz4tw9nckd7jlc",639,"71.csv","","4100","resources/trios/L4T1A1.jpg","37","restless",0.5,0.3,0.3,0.941967159106109,"false"
"image-keyboard-response",399,540572,"0.0-3.129-1.129","7wz4tw9nckd7jlc",639,"71.csv","","null","resources/maskTrios/L4BB.jpg","null","",NA,NA,NA,NA,""
"image-keyboard-response",400,541775,"0.0-3.129-2.129","7wz4tw9nckd7jlc",639,"71.csv","","null","resources/images/fishbone.png","null","",NA,NA,NA,NA,""
"image-keyboard-response",401,542318,"0.0-3.130-0.130","7wz4tw9nckd7jlc",639,"71.csv","","539","resources/trios/L4T2A1.jpg","38","restless",0.5,0.4,0.3,0.95446140339746,"false"
"image-keyboard-response",402,542721,"0.0-3.130-1.130","7wz4tw9nckd7jlc",639,"71.csv","","null","resources/maskTrios/BT2B.jpg","null","",NA,NA,NA,NA,""
"image-keyboard-response",403,543924,"0.0-3.130-2.130","7wz4tw9nckd7jlc",639,"71.csv","","null","resources/images/fishbone.png","null","",NA,NA,NA,NA,""
"image-keyboard-response",404,544285,"0.0-3.131-0.131","7wz4tw9nckd7jlc",639,"71.csv","","359","resources/trios/L1T2A3.jpg","39","restless",0.5,0.4,0.3,0.729511405687657,"false"
"image-keyboard-response",405,544688,"0.0-3.131-1.131","7wz4tw9nckd7jlc",639,"71.csv","","null","resources/maskTrios/BBA3.jpg","null","",NA,NA,NA,NA,""
"image-keyboard-response",406,545890,"0.0-3.131-2.131","7wz4tw9nckd7jlc",639,"71.csv","","null","resources/images/fishbone.png","null","",NA,NA,NA,NA,""
"image-keyboard-response",407,553305,"0.0-3.132-0.132","7wz4tw9nckd7jlc",639,"71.csv","","7413","resources/trios/L1T2A3.jpg","39","restless",0.5,0.4,0.3,0.931739948770521,"false"
"image-keyboard-response",408,553708,"0.0-3.132-1.132","7wz4tw9nckd7jlc",639,"71.csv","","null","resources/maskTrios/BBA3.jpg","null","",NA,NA,NA,NA,""
"image-keyboard-response",409,554911,"0.0-3.132-2.132","7wz4tw9nckd7jlc",639,"71.csv","","null","resources/images/fishbone.png","null","",NA,NA,NA,NA,""
"image-keyboard-response",410,565448,"0.0-3.133-0.133","7wz4tw9nckd7jlc",639,"71.csv","","10535","resources/trios/L1T2A1.jpg","37","restless",0.5,0.4,0.3,0.660367567952024,"false"
"image-keyboard-response",411,565851,"0.0-3.133-1.133","7wz4tw9nckd7jlc",639,"71.csv","","null","resources/maskTrios/L1BB.jpg","null","",NA,NA,NA,NA,""
"image-keyboard-response",412,567054,"0.0-3.133-2.133","7wz4tw9nckd7jlc",639,"71.csv","","null","resources/images/fishbone.png","null","",NA,NA,NA,NA,""
"image-keyboard-response",413,568607,"0.0-3.134-0.134","7wz4tw9nckd7jlc",639,"71.csv","","1550","resources/trios/L4T1A1.jpg","38","restless",0.6,0.4,0.3,0.96646878782559,"false"
"image-keyboard-response",414,569010,"0.0-3.134-1.134","7wz4tw9nckd7jlc",639,"71.csv","","null","resources/maskTrios/BT1B.jpg","null","",NA,NA,NA,NA,""
"image-keyboard-response",415,570213,"0.0-3.134-2.134","7wz4tw9nckd7jlc",639,"71.csv","","null","resources/images/fishbone.png","null","",NA,NA,NA,NA,""
"image-keyboard-response",416,574871,"0.0-3.135-0.135","7wz4tw9nckd7jlc",639,"71.csv","","4656","resources/trios/L1T1A3.jpg","38","restless",0.6,0.4,0.3,0.562336711396222,"false"
"image-keyboard-response",417,575274,"0.0-3.135-1.135","7wz4tw9nckd7jlc",639,"71.csv","","null","resources/maskTrios/BT1B.jpg","null","",NA,NA,NA,NA,""
"image-keyboard-response",418,576476,"0.0-3.135-2.135","7wz4tw9nckd7jlc",639,"71.csv","","null","resources/images/fishbone.png","null","",NA,NA,NA,NA,""
"image-keyboard-response",419,582836,"0.0-3.136-0.136","7wz4tw9nckd7jlc",639,"71.csv","","6354.999999999884","resources/trios/L4T2A3.jpg","39","restless",0.6,0.3,0.3,0.703990570254459,"false"
"image-keyboard-response",420,583239,"0.0-3.136-1.136","7wz4tw9nckd7jlc",639,"71.csv","","null","resources/maskTrios/BBA3.jpg","null","",NA,NA,NA,NA,""
"image-keyboard-response",421,584442,"0.0-3.136-2.136","7wz4tw9nckd7jlc",639,"71.csv","","null","resources/images/fishbone.png","null","",NA,NA,NA,NA,""
"image-keyboard-response",422,585659,"0.0-3.137-0.137","7wz4tw9nckd7jlc",639,"71.csv","","1215.0000000001164","resources/trios/L4T2A1.jpg","38","restless",0.7,0.2,0.3,0.0677591233760876,"true"
"image-keyboard-response",423,586062,"0.0-3.137-1.137","7wz4tw9nckd7jlc",639,"71.csv","","null","resources/maskTrios/BT2B.jpg","null","",NA,NA,NA,NA,""
"image-keyboard-response",424,587266,"0.0-3.137-2.137","7wz4tw9nckd7jlc",639,"71.csv","","null","resources/images/coin2.png","null","",NA,NA,NA,NA,""
"image-keyboard-response",425,602259,"0.0-3.138-0.138","7wz4tw9nckd7jlc",639,"71.csv","","14991","resources/trios/L1T2A1.jpg","38","restless",0.7,0.2,0.3,0.392513024821918,"false"
"image-keyboard-response",426,602662,"0.0-3.138-1.138","7wz4tw9nckd7jlc",639,"71.csv","","null","resources/maskTrios/BT2B.jpg","null","",NA,NA,NA,NA,""
"image-keyboard-response",427,603865,"0.0-3.138-2.138","7wz4tw9nckd7jlc",639,"71.csv","","null","resources/images/fishbone.png","null","",NA,NA,NA,NA,""
"image-keyboard-response",428,608865,"0.0-3.139-0.139","7wz4tw9nckd7jlc",639,"71.csv","","4997","resources/trios/L4T2A1.jpg","39","restless",0.7,0.2,0.3,0.693757053815311,"false"
"image-keyboard-response",429,609268,"0.0-3.139-1.139","7wz4tw9nckd7jlc",639,"71.csv","","null","resources/maskTrios/BBA1.jpg","null","",NA,NA,NA,NA,""
"image-keyboard-response",430,610471,"0.0-3.139-2.139","7wz4tw9nckd7jlc",639,"71.csv","","null","resources/images/fishbone.png","null","",NA,NA,NA,NA,""
"image-keyboard-response",431,616516,"0.0-3.140-0.140","7wz4tw9nckd7jlc",639,"71.csv","","6043","resources/trios/L4T1A3.jpg","38","restless",0.7,0.2,0.3,0.997121894614,"false"
"image-keyboard-response",432,616919,"0.0-3.140-1.140","7wz4tw9nckd7jlc",639,"71.csv","","null","resources/maskTrios/BT1B.jpg","null","",NA,NA,NA,NA,""
"image-keyboard-response",433,618122,"0.0-3.140-2.140","7wz4tw9nckd7jlc",639,"71.csv","","null","resources/images/fishbone.png","null","",NA,NA,NA,NA,""
"image-keyboard-response",434,621781,"0.0-3.141-0.141","7wz4tw9nckd7jlc",639,"71.csv","","3655.9999999998836","resources/trios/L1T1A1.jpg","38","restless",0.7,0.2,0.3,0.708486017827979,"false"
"image-keyboard-response",435,622184,"0.0-3.141-1.141","7wz4tw9nckd7jlc",639,"71.csv","","null","resources/maskTrios/BT1B.jpg","null","",NA,NA,NA,NA,""
"image-keyboard-response",436,623387,"0.0-3.141-2.141","7wz4tw9nckd7jlc",639,"71.csv","","null","resources/images/fishbone.png","null","",NA,NA,NA,NA,""
"image-keyboard-response",437,625517,"0.0-3.142-0.142","7wz4tw9nckd7jlc",639,"71.csv","","2128","resources/trios/L4T1A3.jpg","38","restless",0.8,0.2,0.3,0.671271300546227,"false"
"image-keyboard-response",438,625920,"0.0-3.142-1.142","7wz4tw9nckd7jlc",639,"71.csv","","null","resources/maskTrios/BT1B.jpg","null","",NA,NA,NA,NA,""
"image-keyboard-response",439,627123,"0.0-3.142-2.142","7wz4tw9nckd7jlc",639,"71.csv","","null","resources/images/fishbone.png","null","",NA,NA,NA,NA,""
"image-keyboard-response",440,630824,"0.0-3.143-0.143","7wz4tw9nckd7jlc",639,"71.csv","","3698","resources/trios/L1T2A1.jpg","38","restless",0.8,0.2,0.3,0.689387689535215,"false"
"image-keyboard-response",441,631227,"0.0-3.143-1.143","7wz4tw9nckd7jlc",639,"71.csv","","null","resources/maskTrios/BT2B.jpg","null","",NA,NA,NA,NA,""
"image-keyboard-response",442,632430,"0.0-3.143-2.143","7wz4tw9nckd7jlc",639,"71.csv","","null","resources/images/fishbone.png","null","",NA,NA,NA,NA,""
"image-keyboard-response",443,633542,"0.0-3.144-0.144","7wz4tw9nckd7jlc",639,"71.csv","","1108.9999999998836","resources/trios/L4T1A1.jpg","38","restless",0.8,0.2,0.3,0.503838141018307,"false"
"image-keyboard-response",444,633945,"0.0-3.144-1.144","7wz4tw9nckd7jlc",639,"71.csv","","null","resources/maskTrios/BT1B.jpg","null","",NA,NA,NA,NA,""
"image-keyboard-response",445,635148,"0.0-3.144-2.144","7wz4tw9nckd7jlc",639,"71.csv","","null","resources/images/fishbone.png","null","",NA,NA,NA,NA,""
"image-keyboard-response",446,637485,"0.0-3.145-0.145","7wz4tw9nckd7jlc",639,"71.csv","","2334","resources/trios/L4T1A1.jpg","38","restless",0.8,0.2,0.3,0.785108473119647,"false"
"image-keyboard-response",447,637888,"0.0-3.145-1.145","7wz4tw9nckd7jlc",639,"71.csv","","null","resources/maskTrios/BT1B.jpg","null","",NA,NA,NA,NA,""
"image-keyboard-response",448,639090,"0.0-3.145-2.145","7wz4tw9nckd7jlc",639,"71.csv","","null","resources/images/fishbone.png","null","",NA,NA,NA,NA,""
"image-keyboard-response",449,641782,"0.0-3.146-0.146","7wz4tw9nckd7jlc",639,"71.csv","","2690","resources/trios/L1T2A3.jpg","37","restless",0.8,0.2,0.3,0.0108225911818487,"true"
"image-keyboard-response",450,642187,"0.0-3.146-1.146","7wz4tw9nckd7jlc",639,"71.csv","","null","resources/maskTrios/L1BB.jpg","null","",NA,NA,NA,NA,""
"image-keyboard-response",451,643391,"0.0-3.146-2.146","7wz4tw9nckd7jlc",639,"71.csv","","null","resources/images/coin2.png","null","",NA,NA,NA,NA,""
"image-keyboard-response",452,662280,"0.0-3.147-0.147","7wz4tw9nckd7jlc",639,"71.csv","","18886","resources/trios/L4T1A1.jpg","39","restless",0.8,0.2,0.3,0.446535100393043,"false"
"image-keyboard-response",453,662683,"0.0-3.147-1.147","7wz4tw9nckd7jlc",639,"71.csv","","null","resources/maskTrios/BBA1.jpg","null","",NA,NA,NA,NA,""
"image-keyboard-response",454,663886,"0.0-3.147-2.147","7wz4tw9nckd7jlc",639,"71.csv","","null","resources/images/fishbone.png","null","",NA,NA,NA,NA,""
"image-keyboard-response",455,671378,"0.0-3.148-0.148","7wz4tw9nckd7jlc",639,"71.csv","","7489","resources/trios/L1T1A3.jpg","39","restless",0.9,0.3,0.3,0.42662920596462,"false"
"image-keyboard-response",456,671781,"0.0-3.148-1.148","7wz4tw9nckd7jlc",639,"71.csv","","null","resources/maskTrios/BBA3.jpg","null","",NA,NA,NA,NA,""
"image-keyboard-response",457,672983,"0.0-3.148-2.148","7wz4tw9nckd7jlc",639,"71.csv","","null","resources/images/fishbone.png","null","",NA,NA,NA,NA,""
"image-keyboard-response",458,677454,"0.0-3.149-0.149","7wz4tw9nckd7jlc",639,"71.csv","","4468","resources/trios/L4T2A1.jpg","38","restless",0.9,0.4,0.3,0.456572118341233,"false"
"image-keyboard-response",459,677857,"0.0-3.149-1.149","7wz4tw9nckd7jlc",639,"71.csv","","null","resources/maskTrios/BT2B.jpg","null","",NA,NA,NA,NA,""
"image-keyboard-response",460,679059,"0.0-3.149-2.149","7wz4tw9nckd7jlc",639,"71.csv","","null","resources/images/fishbone.png","null","",NA,NA,NA,NA,""
"image-keyboard-response",461,687461,"0.0-3.150-0.150","7wz4tw9nckd7jlc",639,"71.csv","","8397","resources/trios/L4T2A3.jpg","38","restless",0.9,0.5,0.3,0.808623787560737,"false"
"image-keyboard-response",462,687864,"0.0-3.150-1.150","7wz4tw9nckd7jlc",639,"71.csv","","null","resources/maskTrios/BT2B.jpg","null","",NA,NA,NA,NA,""
"image-keyboard-response",463,689067,"0.0-3.150-2.150","7wz4tw9nckd7jlc",639,"71.csv","","null","resources/images/fishbone.png","null","",NA,NA,NA,NA,""
"image-keyboard-response",464,691762,"0.0-3.151-0.151","7wz4tw9nckd7jlc",639,"71.csv","","2692","resources/trios/L1T1A3.jpg","39","restless",0.9,0.4,0.3,0.860320234202446,"false"
"image-keyboard-response",465,692165,"0.0-3.151-1.151","7wz4tw9nckd7jlc",639,"71.csv","","null","resources/maskTrios/BBA3.jpg","null","",NA,NA,NA,NA,""
"image-keyboard-response",466,693367,"0.0-3.151-2.151","7wz4tw9nckd7jlc",639,"71.csv","","null","resources/images/fishbone.png","null","",NA,NA,NA,NA,""
"image-keyboard-response",467,698381,"0.0-3.152-0.152","7wz4tw9nckd7jlc",639,"71.csv","","5011","resources/trios/L4T2A1.jpg","37","restless",0.9,0.4,0.3,0.359139969148888,"true"
"image-keyboard-response",468,698784,"0.0-3.152-1.152","7wz4tw9nckd7jlc",639,"71.csv","","null","resources/maskTrios/L4BB.jpg","null","",NA,NA,NA,NA,""
"image-keyboard-response",469,699987,"0.0-3.152-2.152","7wz4tw9nckd7jlc",639,"71.csv","","null","resources/images/coin2.png","null","",NA,NA,NA,NA,""
"image-keyboard-response",470,714790,"0.0-3.153-0.153","7wz4tw9nckd7jlc",639,"71.csv","","14800","resources/trios/L4T1A1.jpg","37","restless",0.9,0.4,0.3,0.850161598259728,"true"
"image-keyboard-response",471,715193,"0.0-3.153-1.153","7wz4tw9nckd7jlc",639,"71.csv","","null","resources/maskTrios/L4BB.jpg","null","",NA,NA,NA,NA,""
"image-keyboard-response",472,716396,"0.0-3.153-2.153","7wz4tw9nckd7jlc",639,"71.csv","","null","resources/images/coin2.png","null","",NA,NA,NA,NA,""
"image-keyboard-response",473,727355,"0.0-3.154-0.154","7wz4tw9nckd7jlc",639,"71.csv","","10955.999999999884","resources/trios/L4T1A3.jpg","38","restless",0.9,0.4,0.3,0.361035516958528,"true"
"image-keyboard-response",474,727759,"0.0-3.154-1.154","7wz4tw9nckd7jlc",639,"71.csv","","null","resources/maskTrios/BT1B.jpg","null","",NA,NA,NA,NA,""
"image-keyboard-response",475,728961,"0.0-3.154-2.154","7wz4tw9nckd7jlc",639,"71.csv","","null","resources/images/coin2.png","null","",NA,NA,NA,NA,""
"image-keyboard-response",476,737726,"0.0-3.155-0.155","7wz4tw9nckd7jlc",639,"71.csv","","8761.000000000116","resources/trios/L1T1A3.jpg","39","restless",0.9,0.4,0.3,0.326750497999799,"false"
"image-keyboard-response",477,738129,"0.0-3.155-1.155","7wz4tw9nckd7jlc",639,"71.csv","","null","resources/maskTrios/BBA3.jpg","null","",NA,NA,NA,NA,""
"image-keyboard-response",478,739332,"0.0-3.155-2.155","7wz4tw9nckd7jlc",639,"71.csv","","null","resources/images/fishbone.png","null","",NA,NA,NA,NA,""
"image-keyboard-response",479,750098,"0.0-3.156-0.156","7wz4tw9nckd7jlc",639,"71.csv","","10763","resources/trios/L1T1A3.jpg","39","restless",0.9,0.4,0.3,0.235198218233159,"true"
"image-keyboard-response",480,750501,"0.0-3.156-1.156","7wz4tw9nckd7jlc",639,"71.csv","","null","resources/maskTrios/BBA3.jpg","null","",NA,NA,NA,NA,""
"image-keyboard-response",481,751704,"0.0-3.156-2.156","7wz4tw9nckd7jlc",639,"71.csv","","null","resources/images/coin2.png","null","",NA,NA,NA,NA,""
"image-keyboard-response",482,760738,"0.0-3.157-0.157","7wz4tw9nckd7jlc",639,"71.csv","","9030","resources/trios/L1T2A3.jpg","37","restless",0.9,0.4,0.4,0.808175076309715,"true"
"image-keyboard-response",483,761142,"0.0-3.157-1.157","7wz4tw9nckd7jlc",639,"71.csv","","null","resources/maskTrios/L1BB.jpg","null","",NA,NA,NA,NA,""
"image-keyboard-response",484,762345,"0.0-3.157-2.157","7wz4tw9nckd7jlc",639,"71.csv","","null","resources/images/coin2.png","null","",NA,NA,NA,NA,""
"image-keyboard-response",485,768081,"0.0-3.158-0.158","7wz4tw9nckd7jlc",639,"71.csv","","5733","resources/trios/L1T1A3.jpg","39","restless",0.9,0.4,0.4,0.996546749298727,"false"
"image-keyboard-response",486,768484,"0.0-3.158-1.158","7wz4tw9nckd7jlc",639,"71.csv","","null","resources/maskTrios/BBA3.jpg","null","",NA,NA,NA,NA,""
"image-keyboard-response",487,769687,"0.0-3.158-2.158","7wz4tw9nckd7jlc",639,"71.csv","","null","resources/images/fishbone.png","null","",NA,NA,NA,NA,""
"image-keyboard-response",488,775485,"0.0-3.159-0.159","7wz4tw9nckd7jlc",639,"71.csv","","5795","resources/trios/L4T2A1.jpg","38","restless",0.9,0.4,0.5,0.393767705536331,"true"
"image-keyboard-response",489,775888,"0.0-3.159-1.159","7wz4tw9nckd7jlc",639,"71.csv","","null","resources/maskTrios/BT2B.jpg","null","",NA,NA,NA,NA,""
"image-keyboard-response",490,777091,"0.0-3.159-2.159","7wz4tw9nckd7jlc",639,"71.csv","","null","resources/images/coin2.png","null","",NA,NA,NA,NA,""
"image-keyboard-response",491,783475,"0.0-3.160-0.160","7wz4tw9nckd7jlc",639,"71.csv","","6377.999999999884","resources/trios/L4T2A3.jpg","38","restless",0.9,0.4,0.5,0.205300531809593,"true"
"image-keyboard-response",492,783878,"0.0-3.160-1.160","7wz4tw9nckd7jlc",639,"71.csv","","null","resources/maskTrios/BT2B.jpg","null","",NA,NA,NA,NA,""
"image-keyboard-response",493,785081,"0.0-3.160-2.160","7wz4tw9nckd7jlc",639,"71.csv","","null","resources/images/coin2.png","null","",NA,NA,NA,NA,""
"image-keyboard-response",494,788442,"0.0-3.161-0.161","7wz4tw9nckd7jlc",639,"71.csv","","3359","resources/trios/L4T1A3.jpg","38","restless",0.8,0.4,0.5,0.286381271986432,"true"
"image-keyboard-response",495,788845,"0.0-3.161-1.161","7wz4tw9nckd7jlc",639,"71.csv","","null","resources/maskTrios/BT1B.jpg","null","",NA,NA,NA,NA,""
"image-keyboard-response",496,790048,"0.0-3.161-2.161","7wz4tw9nckd7jlc",639,"71.csv","","null","resources/images/coin2.png","null","",NA,NA,NA,NA,""
"image-keyboard-response",497,793859,"0.0-3.162-0.162","7wz4tw9nckd7jlc",639,"71.csv","","3809","resources/trios/L1T2A1.jpg","39","restless",0.9,0.4,0.5,0.766179272376591,"false"
"image-keyboard-response",498,794263,"0.0-3.162-1.162","7wz4tw9nckd7jlc",639,"71.csv","","null","resources/maskTrios/BBA1.jpg","null","",NA,NA,NA,NA,""
"image-keyboard-response",499,795466,"0.0-3.162-2.162","7wz4tw9nckd7jlc",639,"71.csv","","null","resources/images/fishbone.png","null","",NA,NA,NA,NA,""
"image-keyboard-response",500,798122,"0.0-3.163-0.163","7wz4tw9nckd7jlc",639,"71.csv","","2654","resources/trios/L1T1A3.jpg","38","restless",0.9,0.5,0.4,0.570925455470235,"false"
"image-keyboard-response",501,798527,"0.0-3.163-1.163","7wz4tw9nckd7jlc",639,"71.csv","","null","resources/maskTrios/BT1B.jpg","null","",NA,NA,NA,NA,""
"image-keyboard-response",502,799729,"0.0-3.163-2.163","7wz4tw9nckd7jlc",639,"71.csv","","null","resources/images/fishbone.png","null","",NA,NA,NA,NA,""
"image-keyboard-response",503,802874,"0.0-3.164-0.164","7wz4tw9nckd7jlc",639,"71.csv","","3142","resources/trios/L1T1A3.jpg","38","restless",0.9,0.5,0.4,0.39490403217697,"true"
"image-keyboard-response",504,803277,"0.0-3.164-1.164","7wz4tw9nckd7jlc",639,"71.csv","","null","resources/maskTrios/BT1B.jpg","null","",NA,NA,NA,NA,""
"image-keyboard-response",505,804480,"0.0-3.164-2.164","7wz4tw9nckd7jlc",639,"71.csv","","null","resources/images/coin2.png","null","",NA,NA,NA,NA,""
"image-keyboard-response",506,811212,"0.0-3.165-0.165","7wz4tw9nckd7jlc",639,"71.csv","","6730","resources/trios/L4T1A3.jpg","38","restless",0.9,0.5,0.4,0.0960645171237491,"true"
"image-keyboard-response",507,811616,"0.0-3.165-1.165","7wz4tw9nckd7jlc",639,"71.csv","","null","resources/maskTrios/BT1B.jpg","null","",NA,NA,NA,NA,""
"image-keyboard-response",508,812819,"0.0-3.165-2.165","7wz4tw9nckd7jlc",639,"71.csv","","null","resources/images/coin2.png","null","",NA,NA,NA,NA,""
"image-keyboard-response",509,819643,"0.0-3.166-0.166","7wz4tw9nckd7jlc",639,"71.csv","","6822","resources/trios/L4T2A3.jpg","37","restless",0.9,0.5,0.4,0.11514837512476,"true"
"image-keyboard-response",510,820047,"0.0-3.166-1.166","7wz4tw9nckd7jlc",639,"71.csv","","null","resources/maskTrios/L4BB.jpg","null","",NA,NA,NA,NA,""
"image-keyboard-response",511,821249,"0.0-3.166-2.166","7wz4tw9nckd7jlc",639,"71.csv","","null","resources/images/coin2.png","null","",NA,NA,NA,NA,""
"image-keyboard-response",512,824740,"0.0-3.167-0.167","7wz4tw9nckd7jlc",639,"71.csv","","3484.9999999998836","resources/trios/L1T2A3.jpg","37","restless",0.9,0.5,0.4,0.155805939582632,"true"
"image-keyboard-response",513,825143,"0.0-3.167-1.167","7wz4tw9nckd7jlc",639,"71.csv","","null","resources/maskTrios/L1BB.jpg","null","",NA,NA,NA,NA,""
"image-keyboard-response",514,826346,"0.0-3.167-2.167","7wz4tw9nckd7jlc",639,"71.csv","","null","resources/images/coin2.png","null","",NA,NA,NA,NA,""
"image-keyboard-response",515,829063,"0.0-3.168-0.168","7wz4tw9nckd7jlc",639,"71.csv","","2715","resources/trios/L1T1A3.jpg","39","restless",0.9,0.5,0.4,0.147724311463784,"true"
"image-keyboard-response",516,829467,"0.0-3.168-1.168","7wz4tw9nckd7jlc",639,"71.csv","","null","resources/maskTrios/BBA3.jpg","null","",NA,NA,NA,NA,""
"image-keyboard-response",517,830670,"0.0-3.168-2.168","7wz4tw9nckd7jlc",639,"71.csv","","null","resources/images/coin2.png","null","",NA,NA,NA,NA,""
"image-keyboard-response",518,833771,"0.0-3.169-0.169","7wz4tw9nckd7jlc",639,"71.csv","","3098.9999999998836","resources/trios/L1T1A1.jpg","39","restless",0.9,0.5,0.4,0.411209033320351,"false"
"image-keyboard-response",519,834174,"0.0-3.169-1.169","7wz4tw9nckd7jlc",639,"71.csv","","null","resources/maskTrios/BBA1.jpg","null","",NA,NA,NA,NA,""
"image-keyboard-response",520,835377,"0.0-3.169-2.169","7wz4tw9nckd7jlc",639,"71.csv","","null","resources/images/fishbone.png","null","",NA,NA,NA,NA,""
"image-keyboard-response",521,836612,"0.0-3.170-0.170","7wz4tw9nckd7jlc",639,"71.csv","","1232.9999999998836","resources/trios/L1T2A3.jpg","37","restless",0.9,0.5,0.4,0.704853587024549,"true"
"image-keyboard-response",522,837015,"0.0-3.170-1.170","7wz4tw9nckd7jlc",639,"71.csv","","null","resources/maskTrios/L1BB.jpg","null","",NA,NA,NA,NA,""
"image-keyboard-response",523,838218,"0.0-3.170-2.170","7wz4tw9nckd7jlc",639,"71.csv","","null","resources/images/coin2.png","null","",NA,NA,NA,NA,""
"image-keyboard-response",524,844597,"0.0-3.171-0.171","7wz4tw9nckd7jlc",639,"71.csv","","6376.999999999884","resources/trios/L1T2A1.jpg","38","restless",0.9,0.6,0.4,0.696009034727616,"false"
"image-keyboard-response",525,845002,"0.0-3.171-1.171","7wz4tw9nckd7jlc",639,"71.csv","","null","resources/maskTrios/BT2B.jpg","null","",NA,NA,NA,NA,""
"image-keyboard-response",526,846205,"0.0-3.171-2.171","7wz4tw9nckd7jlc",639,"71.csv","","null","resources/images/fishbone.png","null","",NA,NA,NA,NA,""
"image-keyboard-response",527,856143,"0.0-3.172-0.172","7wz4tw9nckd7jlc",639,"71.csv","","9934","resources/trios/L1T1A3.jpg","37","restless",0.9,0.6,0.4,0.322366034385711,"true"
"image-keyboard-response",528,856545,"0.0-3.172-1.172","7wz4tw9nckd7jlc",639,"71.csv","","null","resources/maskTrios/L1BB.jpg","null","",NA,NA,NA,NA,""
"image-keyboard-response",529,857749,"0.0-3.172-2.172","7wz4tw9nckd7jlc",639,"71.csv","","null","resources/images/coin2.png","null","",NA,NA,NA,NA,""
"image-keyboard-response",530,864397,"0.0-3.173-0.173","7wz4tw9nckd7jlc",639,"71.csv","","6646","resources/trios/L4T1A1.jpg","38","restless",0.9,0.6,0.4,0.481463710815266,"true"
"image-keyboard-response",531,864801,"0.0-3.173-1.173","7wz4tw9nckd7jlc",639,"71.csv","","null","resources/maskTrios/BT1B.jpg","null","",NA,NA,NA,NA,""
"image-keyboard-response",532,866004,"0.0-3.173-2.173","7wz4tw9nckd7jlc",639,"71.csv","","null","resources/images/coin2.png","null","",NA,NA,NA,NA,""
"image-keyboard-response",533,868046,"0.0-3.174-0.174","7wz4tw9nckd7jlc",639,"71.csv","","2038","resources/trios/L1T1A1.jpg","39","restless",0.9,0.6,0.4,0.691940430867439,"false"
"image-keyboard-response",534,868451,"0.0-3.174-1.174","7wz4tw9nckd7jlc",639,"71.csv","","null","resources/maskTrios/BBA1.jpg","null","",NA,NA,NA,NA,""
"image-keyboard-response",535,869653,"0.0-3.174-2.174","7wz4tw9nckd7jlc",639,"71.csv","","null","resources/images/fishbone.png","null","",NA,NA,NA,NA,""
"image-keyboard-response",536,876056,"0.0-3.175-0.175","7wz4tw9nckd7jlc",639,"71.csv","","6399","resources/trios/L4T1A1.jpg","38","restless",0.9,0.6,0.4,0.0418264956060208,"true"
"image-keyboard-response",537,876459,"0.0-3.175-1.175","7wz4tw9nckd7jlc",639,"71.csv","","null","resources/maskTrios/BT1B.jpg","null","",NA,NA,NA,NA,""
"image-keyboard-response",538,877662,"0.0-3.175-2.175","7wz4tw9nckd7jlc",639,"71.csv","","null","resources/images/coin2.png","null","",NA,NA,NA,NA,""
"image-keyboard-response",539,886083,"0.0-3.176-0.176","7wz4tw9nckd7jlc",639,"71.csv","","8416","resources/trios/L4T2A3.jpg","39","restless",0.9,0.6,0.4,0.645533931471874,"false"
"image-keyboard-response",540,886486,"0.0-3.176-1.176","7wz4tw9nckd7jlc",639,"71.csv","","null","resources/maskTrios/BBA3.jpg","null","",NA,NA,NA,NA,""
"image-keyboard-response",541,887689,"0.0-3.176-2.176","7wz4tw9nckd7jlc",639,"71.csv","","null","resources/images/fishbone.png","null","",NA,NA,NA,NA,""
"image-keyboard-response",542,900725,"0.0-3.177-0.177","7wz4tw9nckd7jlc",639,"71.csv","","13032.999999999884","resources/trios/L1T1A1.jpg","37","restless",0.8,0.5,0.4,0.45048456009599,"true"
"image-keyboard-response",543,901130,"0.0-3.177-1.177","7wz4tw9nckd7jlc",639,"71.csv","","null","resources/maskTrios/L1BB.jpg","null","",NA,NA,NA,NA,""
"image-keyboard-response",544,902333,"0.0-3.177-2.177","7wz4tw9nckd7jlc",639,"71.csv","","null","resources/images/coin2.png","null","",NA,NA,NA,NA,""
"image-keyboard-response",545,903661,"0.0-3.178-0.178","7wz4tw9nckd7jlc",639,"71.csv","","1324","resources/trios/L1T2A1.jpg","38","restless",0.9,0.5,0.3,0.639070448691071,"false"
"image-keyboard-response",546,904064,"0.0-3.178-1.178","7wz4tw9nckd7jlc",639,"71.csv","","null","resources/maskTrios/BT2B.jpg","null","",NA,NA,NA,NA,""
"image-keyboard-response",547,905267,"0.0-3.178-2.178","7wz4tw9nckd7jlc",639,"71.csv","","null","resources/images/fishbone.png","null","",NA,NA,NA,NA,""
"image-keyboard-response",548,908229,"0.0-3.179-0.179","7wz4tw9nckd7jlc",639,"71.csv","","2960","resources/trios/L4T2A3.jpg","37","restless",0.9,0.5,0.3,0.506998366464271,"true"
"image-keyboard-response",549,908633,"0.0-3.179-1.179","7wz4tw9nckd7jlc",639,"71.csv","","null","resources/maskTrios/L4BB.jpg","null","",NA,NA,NA,NA,""
"image-keyboard-response",550,909836,"0.0-3.179-2.179","7wz4tw9nckd7jlc",639,"71.csv","","null","resources/images/coin2.png","null","",NA,NA,NA,NA,""
"image-keyboard-response",551,913989,"0.0-3.180-0.180","7wz4tw9nckd7jlc",639,"71.csv","","4151","resources/trios/L1T2A1.jpg","38","restless",0.8,0.5,0.3,0.193141257795312,"true"
"image-keyboard-response",552,914392,"0.0-3.180-1.180","7wz4tw9nckd7jlc",639,"71.csv","","null","resources/maskTrios/BT2B.jpg","null","",NA,NA,NA,NA,""
"image-keyboard-response",553,915596,"0.0-3.180-2.180","7wz4tw9nckd7jlc",639,"71.csv","","null","resources/images/coin2.png","null","",NA,NA,NA,NA,""
"image-keyboard-response",554,920095,"0.0-3.181-0.181","7wz4tw9nckd7jlc",639,"71.csv","","4497.000000000116","resources/trios/L1T2A1.jpg","39","restless",0.8,0.5,0.3,0.182261576276546,"true"
"image-keyboard-response",555,920498,"0.0-3.181-1.181","7wz4tw9nckd7jlc",639,"71.csv","","null","resources/maskTrios/BBA1.jpg","null","",NA,NA,NA,NA,""
"image-keyboard-response",556,921701,"0.0-3.181-2.181","7wz4tw9nckd7jlc",639,"71.csv","","null","resources/images/coin2.png","null","",NA,NA,NA,NA,""
"image-keyboard-response",557,937169,"0.0-3.182-0.182","7wz4tw9nckd7jlc",639,"71.csv","","15461","resources/trios/L4T1A3.jpg","39","restless",0.8,0.5,0.3,0.568185354965568,"false"
"image-keyboard-response",558,937572,"0.0-3.182-1.182","7wz4tw9nckd7jlc",639,"71.csv","","null","resources/maskTrios/BBA3.jpg","null","",NA,NA,NA,NA,""
"image-keyboard-response",559,938775,"0.0-3.182-2.182","7wz4tw9nckd7jlc",639,"71.csv","","null","resources/images/fishbone.png","null","",NA,NA,NA,NA,""
"image-keyboard-response",560,940016,"0.0-3.183-0.183","7wz4tw9nckd7jlc",639,"71.csv","","1239","resources/trios/L1T2A1.jpg","37","restless",0.8,0.5,0.3,0.808371115255431,"false"
"image-keyboard-response",561,940419,"0.0-3.183-1.183","7wz4tw9nckd7jlc",639,"71.csv","","null","resources/maskTrios/L1BB.jpg","null","",NA,NA,NA,NA,""
"image-keyboard-response",562,941622,"0.0-3.183-2.183","7wz4tw9nckd7jlc",639,"71.csv","","null","resources/images/fishbone.png","null","",NA,NA,NA,NA,""
"image-keyboard-response",563,942888,"0.0-3.184-0.184","7wz4tw9nckd7jlc",639,"71.csv","","1263","resources/trios/L4T2A3.jpg","38","restless",0.8,0.5,0.3,0.239418486346371,"true"
"image-keyboard-response",564,943291,"0.0-3.184-1.184","7wz4tw9nckd7jlc",639,"71.csv","","null","resources/maskTrios/BT2B.jpg","null","",NA,NA,NA,NA,""
"image-keyboard-response",565,944494,"0.0-3.184-2.184","7wz4tw9nckd7jlc",639,"71.csv","","null","resources/images/coin2.png","null","",NA,NA,NA,NA,""
"image-keyboard-response",566,945437,"0.0-3.185-0.185","7wz4tw9nckd7jlc",639,"71.csv","","940","resources/trios/L4T2A1.jpg","37","restless",0.8,0.5,0.3,0.0896220974125367,"true"
"image-keyboard-response",567,945841,"0.0-3.185-1.185","7wz4tw9nckd7jlc",639,"71.csv","","null","resources/maskTrios/L4BB.jpg","null","",NA,NA,NA,NA,""
"image-keyboard-response",568,947043,"0.0-3.185-2.185","7wz4tw9nckd7jlc",639,"71.csv","","null","resources/images/coin2.png","null","",NA,NA,NA,NA,""
"image-keyboard-response",569,948317,"0.0-3.186-0.186","7wz4tw9nckd7jlc",639,"71.csv","","1271","resources/trios/L4T2A3.jpg","39","restless",0.8,0.5,0.3,0.839355214568816,"false"
"image-keyboard-response",570,948720,"0.0-3.186-1.186","7wz4tw9nckd7jlc",639,"71.csv","","null","resources/maskTrios/BBA3.jpg","null","",NA,NA,NA,NA,""
"image-keyboard-response",571,949923,"0.0-3.186-2.186","7wz4tw9nckd7jlc",639,"71.csv","","null","resources/images/fishbone.png","null","",NA,NA,NA,NA,""
"image-keyboard-response",572,952689,"0.0-3.187-0.187","7wz4tw9nckd7jlc",639,"71.csv","","2763","resources/trios/L1T1A1.jpg","37","restless",0.8,0.5,0.3,0.981854231196043,"false"
"image-keyboard-response",573,953093,"0.0-3.187-1.187","7wz4tw9nckd7jlc",639,"71.csv","","null","resources/maskTrios/L1BB.jpg","null","",NA,NA,NA,NA,""
"image-keyboard-response",574,954295,"0.0-3.187-2.187","7wz4tw9nckd7jlc",639,"71.csv","","null","resources/images/fishbone.png","null","",NA,NA,NA,NA,""
"image-keyboard-response",575,956943,"0.0-3.188-0.188","7wz4tw9nckd7jlc",639,"71.csv","","2645","resources/trios/L1T1A1.jpg","38","restless",0.8,0.5,0.3,0.186332853417286,"true"
"image-keyboard-response",576,957347,"0.0-3.188-1.188","7wz4tw9nckd7jlc",639,"71.csv","","null","resources/maskTrios/BT1B.jpg","null","",NA,NA,NA,NA,""
"image-keyboard-response",577,958550,"0.0-3.188-2.188","7wz4tw9nckd7jlc",639,"71.csv","","null","resources/images/coin2.png","null","",NA,NA,NA,NA,""
"image-keyboard-response",578,959395,"0.0-3.189-0.189","7wz4tw9nckd7jlc",639,"71.csv","","841.9999999998836","resources/trios/L1T1A1.jpg","37","restless",0.8,0.5,0.3,0.4547833815755,"true"
"image-keyboard-response",579,959798,"0.0-3.189-1.189","7wz4tw9nckd7jlc",639,"71.csv","","null","resources/maskTrios/L1BB.jpg","null","",NA,NA,NA,NA,""
"image-keyboard-response",580,961001,"0.0-3.189-2.189","7wz4tw9nckd7jlc",639,"71.csv","","null","resources/images/coin2.png","null","",NA,NA,NA,NA,""
"image-keyboard-response",581,961296,"0.0-3.190-0.190","7wz4tw9nckd7jlc",639,"71.csv","","293","resources/trios/L4T2A1.jpg","39","restless",0.8,0.6,0.3,0.828695767674841,"false"
"image-keyboard-response",582,961698,"0.0-3.190-1.190","7wz4tw9nckd7jlc",639,"71.csv","","null","resources/maskTrios/BBA1.jpg","null","",NA,NA,NA,NA,""
"image-keyboard-response",583,962901,"0.0-3.190-2.190","7wz4tw9nckd7jlc",639,"71.csv","","null","resources/images/fishbone.png","null","",NA,NA,NA,NA,""
"image-keyboard-response",584,963373,"0.0-3.191-0.191","7wz4tw9nckd7jlc",639,"71.csv","","469","resources/trios/L1T1A1.jpg","38","restless",0.8,0.6,0.3,0.578624860411212,"true"
"image-keyboard-response",585,963776,"0.0-3.191-1.191","7wz4tw9nckd7jlc",639,"71.csv","","null","resources/maskTrios/BT1B.jpg","null","",NA,NA,NA,NA,""
"image-keyboard-response",586,964979,"0.0-3.191-2.191","7wz4tw9nckd7jlc",639,"71.csv","","null","resources/images/coin2.png","null","",NA,NA,NA,NA,""
"image-keyboard-response",587,965795,"0.0-3.192-0.192","7wz4tw9nckd7jlc",639,"71.csv","","812","resources/trios/L4T2A3.jpg","37","restless",0.8,0.6,0.3,0.0130998073151429,"true"
"image-keyboard-response",588,966198,"0.0-3.192-1.192","7wz4tw9nckd7jlc",639,"71.csv","","null","resources/maskTrios/L4BB.jpg","null","",NA,NA,NA,NA,""
"image-keyboard-response",589,967404,"0.0-3.192-2.192","7wz4tw9nckd7jlc",639,"71.csv","","null","resources/images/coin2.png","null","",NA,NA,NA,NA,""
"image-keyboard-response",590,969054,"0.0-3.193-0.193","7wz4tw9nckd7jlc",639,"71.csv","","1648","resources/trios/L1T2A3.jpg","39","restless",0.8,0.6,0.3,0.0707312466310821,"true"
"image-keyboard-response",591,969457,"0.0-3.193-1.193","7wz4tw9nckd7jlc",639,"71.csv","","null","resources/maskTrios/BBA3.jpg","null","",NA,NA,NA,NA,""
"image-keyboard-response",592,970660,"0.0-3.193-2.193","7wz4tw9nckd7jlc",639,"71.csv","","null","resources/images/coin2.png","null","",NA,NA,NA,NA,""
"image-keyboard-response",593,972738,"0.0-3.194-0.194","7wz4tw9nckd7jlc",639,"71.csv","","2075","resources/trios/L4T2A3.jpg","37","restless",0.7,0.6,0.3,0.0514052774483587,"true"
"image-keyboard-response",594,973141,"0.0-3.194-1.194","7wz4tw9nckd7jlc",639,"71.csv","","null","resources/maskTrios/L4BB.jpg","null","",NA,NA,NA,NA,""
"image-keyboard-response",595,974344,"0.0-3.194-2.194","7wz4tw9nckd7jlc",639,"71.csv","","null","resources/images/coin2.png","null","",NA,NA,NA,NA,""
"image-keyboard-response",596,976746,"0.0-3.195-0.195","7wz4tw9nckd7jlc",639,"71.csv","","2400","resources/trios/L1T1A3.jpg","39","restless",0.7,0.6,0.3,0.592212976882123,"false"
"image-keyboard-response",597,977149,"0.0-3.195-1.195","7wz4tw9nckd7jlc",639,"71.csv","","null","resources/maskTrios/BBA3.jpg","null","",NA,NA,NA,NA,""
"image-keyboard-response",598,978352,"0.0-3.195-2.195","7wz4tw9nckd7jlc",639,"71.csv","","null","resources/images/fishbone.png","null","",NA,NA,NA,NA,""
"image-keyboard-response",599,978748,"0.0-3.196-0.196","7wz4tw9nckd7jlc",639,"71.csv","","394","resources/trios/L1T2A3.jpg","38","restless",0.7,0.6,0.4,0.97174890006813,"false"
"image-keyboard-response",600,979152,"0.0-3.196-1.196","7wz4tw9nckd7jlc",639,"71.csv","","null","resources/maskTrios/BT2B.jpg","null","",NA,NA,NA,NA,""
"image-keyboard-response",601,980354,"0.0-3.196-2.196","7wz4tw9nckd7jlc",639,"71.csv","","null","resources/images/fishbone.png","null","",NA,NA,NA,NA,""
"image-keyboard-response",602,981439,"0.0-3.197-0.197","7wz4tw9nckd7jlc",639,"71.csv","","1082","resources/trios/L4T1A1.jpg","38","restless",0.7,0.6,0.4,0.357520452443336,"true"
"image-keyboard-response",603,981842,"0.0-3.197-1.197","7wz4tw9nckd7jlc",639,"71.csv","","null","resources/maskTrios/BT1B.jpg","null","",NA,NA,NA,NA,""
"image-keyboard-response",604,983045,"0.0-3.197-2.197","7wz4tw9nckd7jlc",639,"71.csv","","null","resources/images/coin2.png","null","",NA,NA,NA,NA,""
"image-keyboard-response",605,983389,"0.0-3.198-0.198","7wz4tw9nckd7jlc",639,"71.csv","","341","resources/trios/L4T1A1.jpg","37","restless",0.7,0.6,0.4,0.361938778401163,"true"
"image-keyboard-response",606,983793,"0.0-3.198-1.198","7wz4tw9nckd7jlc",639,"71.csv","","null","resources/maskTrios/L4BB.jpg","null","",NA,NA,NA,NA,""
"image-keyboard-response",607,984996,"0.0-3.198-2.198","7wz4tw9nckd7jlc",639,"71.csv","","null","resources/images/coin2.png","null","",NA,NA,NA,NA,""
"image-keyboard-response",608,985362,"0.0-3.199-0.199","7wz4tw9nckd7jlc",639,"71.csv","","364","resources/trios/L4T1A3.jpg","39","restless",0.7,0.6,0.4,0.887981178115731,"false"
"image-keyboard-response",609,985765,"0.0-3.199-1.199","7wz4tw9nckd7jlc",639,"71.csv","","null","resources/maskTrios/BBA3.jpg","null","",NA,NA,NA,NA,""
"image-keyboard-response",610,986968,"0.0-3.199-2.199","7wz4tw9nckd7jlc",639,"71.csv","","null","resources/images/fishbone.png","null","",NA,NA,NA,NA,""
"image-keyboard-response",611,988751,"0.0-3.200-0.200","7wz4tw9nckd7jlc",639,"71.csv","","1780","resources/trios/L1T2A1.jpg","38","restless",0.7,0.6,0.4,0.566223195590897,"true"
"image-keyboard-response",612,989155,"0.0-3.200-1.200","7wz4tw9nckd7jlc",639,"71.csv","","null","resources/maskTrios/BT2B.jpg","null","",NA,NA,NA,NA,""
"image-keyboard-response",613,990358,"0.0-3.200-2.200","7wz4tw9nckd7jlc",639,"71.csv","","null","resources/images/coin2.png","null","",NA,NA,NA,NA,""
"image-keyboard-response",614,990675,"0.0-3.201-0.201","7wz4tw9nckd7jlc",639,"71.csv","","314","resources/trios/L4T1A3.jpg","37","restless",0.7,0.6,0.4,0.851103054522341,"false"
"image-keyboard-response",615,991078,"0.0-3.201-1.201","7wz4tw9nckd7jlc",639,"71.csv","","null","resources/maskTrios/L4BB.jpg","null","",NA,NA,NA,NA,""
"image-keyboard-response",616,992281,"0.0-3.201-2.201","7wz4tw9nckd7jlc",639,"71.csv","","null","resources/images/fishbone.png","null","",NA,NA,NA,NA,""
"image-keyboard-response",617,992577,"0.0-3.202-0.202","7wz4tw9nckd7jlc",639,"71.csv","","293","resources/trios/L1T1A3.jpg","38","restless",0.6,0.6,0.4,0.690657672438229,"false"
"image-keyboard-response",618,992981,"0.0-3.202-1.202","7wz4tw9nckd7jlc",639,"71.csv","","null","resources/maskTrios/BT1B.jpg","null","",NA,NA,NA,NA,""
"image-keyboard-response",619,994183,"0.0-3.202-2.202","7wz4tw9nckd7jlc",639,"71.csv","","null","resources/images/fishbone.png","null","",NA,NA,NA,NA,""
"image-keyboard-response",620,994526,"0.0-3.203-0.203","7wz4tw9nckd7jlc",639,"71.csv","","340","resources/trios/L4T1A1.jpg","39","restless",0.6,0.6,0.4,0.0637454868515344,"true"
