"trial_type","trial_index","time_elapsed","internal_node_id","subject","participantCode","walkNumber","success","rt","stimulus","key_press","test_part","leftProb","midProb","rightProb","generatedNum","correct"
"pavlovia",0,1451,"0.0-0.0","6kvhxeu8tkahahy",728,"179.csv","","","","","",NA,NA,NA,NA,""
"fullscreen",1,3607,"0.0-1.0","6kvhxeu8tkahahy",728,"179.csv","true","","","","",NA,NA,NA,NA,""
"html-keyboard-response",2,5308,"0.0-2.0-0.0","6kvhxeu8tkahahy",728,"179.csv","","1699.4000000357628","<p><font size='6'>Arrrgh!</p></font><p>Can you be the best pirate? Try to find lots of gold! But beware, some islands have more gold than others, and over time, the island with the most gold may change. Can YOU figure it out? </p><font size='6'>GOOD LUCK, CAPTAIN!!!</font><p>Press any key to begin</p>","70","",NA,NA,NA,NA,""
"image-keyboard-response",3,8315,"0.0-2.0-1.0","6kvhxeu8tkahahy",728,"179.csv","","null","resources/image_sets/111.png","null","",NA,NA,NA,NA,""
"image-keyboard-response",4,17337,"0.0-2.0-2.0","6kvhxeu8tkahahy",728,"179.csv","","9019.600000023842","resources/image_sets/left_highlight.png","37","",NA,NA,NA,NA,""
"image-keyboard-response",5,24339,"0.0-2.0-3.0","6kvhxeu8tkahahy",728,"179.csv","","7000.5","resources/image_sets/mid_highlight.png","38","",NA,NA,NA,NA,""
"image-keyboard-response",6,27419,"0.0-2.0-4.0","6kvhxeu8tkahahy",728,"179.csv","","3078.699999988079","resources/image_sets/right_highlight.png","39","",NA,NA,NA,NA,""
"image-keyboard-response",7,29465,"0.0-2.0-5.0","6kvhxeu8tkahahy",728,"179.csv","","2044.6000000238419","resources/image_sets/111.png","13","",NA,NA,NA,NA,""
"image-keyboard-response",8,32189,"0.0-2.0-6.0","6kvhxeu8tkahahy",728,"179.csv","","2722.699999988079","resources/images/coin2.png","13","",NA,NA,NA,NA,""
"image-keyboard-response",9,34731,"0.0-2.0-7.0","6kvhxeu8tkahahy",728,"179.csv","","2539.699999988079","resources/images/fishbone.png","13","",NA,NA,NA,NA,""
"html-keyboard-response",10,42678,"0.0-2.0-8.0","6kvhxeu8tkahahy",728,"179.csv","","7945.600000023842","<p>Your first journey will be a long one, but you will get a well deserved break at the end</p><p>After the break you will have four more journeys, but each will be much shorter than the first, and you will have breaks in between each</p><p>Press Enter to begin</p>","13","",NA,NA,NA,NA,""
"image-keyboard-response",11,46501,"0.0-3.0-0.0","6kvhxeu8tkahahy",728,"179.csv","","3820.399999976158","resources/trios/L4T1A2.jpg","38","restless",0.7,0.9,0.3,0.866776217222744,"true"
"image-keyboard-response",12,46916,"0.0-3.0-1.0","6kvhxeu8tkahahy",728,"179.csv","","null","resources/maskTrios/BT1B.jpg","null","",NA,NA,NA,NA,""
"image-keyboard-response",13,48128,"0.0-3.0-2.0","6kvhxeu8tkahahy",728,"179.csv","","null","resources/images/coin2.png","null","",NA,NA,NA,NA,""
"image-keyboard-response",14,55224,"0.0-3.1-0.1","6kvhxeu8tkahahy",728,"179.csv","","7091.5","resources/trios/L1T1A1.jpg","38","restless",0.7,0.9,0.3,0.494939544543091,"true"
"image-keyboard-response",15,55643,"0.0-3.1-1.1","6kvhxeu8tkahahy",728,"179.csv","","null","resources/maskTrios/BT1B.jpg","null","",NA,NA,NA,NA,""
"image-keyboard-response",16,56856,"0.0-3.1-2.1","6kvhxeu8tkahahy",728,"179.csv","","null","resources/images/coin2.png","null","",NA,NA,NA,NA,""
"image-keyboard-response",17,60126,"0.0-3.2-0.2","6kvhxeu8tkahahy",728,"179.csv","","3269","resources/trios/L4T4A2.jpg","38","restless",0.7,0.9,0.3,0.052799457686431,"true"
"image-keyboard-response",18,60539,"0.0-3.2-1.2","6kvhxeu8tkahahy",728,"179.csv","","null","resources/maskTrios/BT4B.jpg","null","",NA,NA,NA,NA,""
"image-keyboard-response",19,61749,"0.0-3.2-2.2","6kvhxeu8tkahahy",728,"179.csv","","null","resources/images/coin2.png","null","",NA,NA,NA,NA,""
"image-keyboard-response",20,63970,"0.0-3.3-0.3","6kvhxeu8tkahahy",728,"179.csv","","2219.5","resources/trios/L1T1A1.jpg","38","restless",0.7,0.9,0.3,0.726751544407665,"true"
"image-keyboard-response",21,64384,"0.0-3.3-1.3","6kvhxeu8tkahahy",728,"179.csv","","null","resources/maskTrios/BT1B.jpg","null","",NA,NA,NA,NA,""
"image-keyboard-response",22,65597,"0.0-3.3-2.3","6kvhxeu8tkahahy",728,"179.csv","","null","resources/images/coin2.png","null","",NA,NA,NA,NA,""
"image-keyboard-response",23,66289,"0.0-3.4-0.4","6kvhxeu8tkahahy",728,"179.csv","","690","resources/trios/L1T1A1.jpg","38","restless",0.7,0.9,0.3,0.0893556806135742,"true"
"image-keyboard-response",24,66708,"0.0-3.4-1.4","6kvhxeu8tkahahy",728,"179.csv","","null","resources/maskTrios/BT1B.jpg","null","",NA,NA,NA,NA,""
"image-keyboard-response",25,67928,"0.0-3.4-2.4","6kvhxeu8tkahahy",728,"179.csv","","null","resources/images/coin2.png","null","",NA,NA,NA,NA,""
"image-keyboard-response",26,68694,"0.0-3.5-0.5","6kvhxeu8tkahahy",728,"179.csv","","764.8000000119209","resources/trios/L4T1A1.jpg","38","restless",0.7,0.9,0.3,0.729322708174718,"true"
"image-keyboard-response",27,69118,"0.0-3.5-1.5","6kvhxeu8tkahahy",728,"179.csv","","null","resources/maskTrios/BT1B.jpg","null","",NA,NA,NA,NA,""
"image-keyboard-response",28,70331,"0.0-3.5-2.5","6kvhxeu8tkahahy",728,"179.csv","","null","resources/images/coin2.png","null","",NA,NA,NA,NA,""
"image-keyboard-response",29,70988,"0.0-3.6-0.6","6kvhxeu8tkahahy",728,"179.csv","","655","resources/trios/L1T1A2.jpg","38","restless",0.7,0.9,0.3,0.676784909532881,"true"
"image-keyboard-response",30,71413,"0.0-3.6-1.6","6kvhxeu8tkahahy",728,"179.csv","","null","resources/maskTrios/BT1B.jpg","null","",NA,NA,NA,NA,""
"image-keyboard-response",31,72624,"0.0-3.6-2.6","6kvhxeu8tkahahy",728,"179.csv","","null","resources/images/coin2.png","null","",NA,NA,NA,NA,""
"image-keyboard-response",32,73123,"0.0-3.7-0.7","6kvhxeu8tkahahy",728,"179.csv","","497.69999998807907","resources/trios/L4T1A2.jpg","38","restless",0.7,0.9,0.3,0.656420096507567,"true"
"image-keyboard-response",33,73531,"0.0-3.7-1.7","6kvhxeu8tkahahy",728,"179.csv","","null","resources/maskTrios/BT1B.jpg","null","",NA,NA,NA,NA,""
"image-keyboard-response",34,74747,"0.0-3.7-2.7","6kvhxeu8tkahahy",728,"179.csv","","null","resources/images/coin2.png","null","",NA,NA,NA,NA,""
"image-keyboard-response",35,76192,"0.0-3.8-0.8","6kvhxeu8tkahahy",728,"179.csv","","1442.5","resources/trios/L1T4A1.jpg","38","restless",0.7,0.9,0.3,0.291387781282581,"true"
"image-keyboard-response",36,76609,"0.0-3.8-1.8","6kvhxeu8tkahahy",728,"179.csv","","null","resources/maskTrios/BT4B.jpg","null","",NA,NA,NA,NA,""
"image-keyboard-response",37,77820,"0.0-3.8-2.8","6kvhxeu8tkahahy",728,"179.csv","","null","resources/images/coin2.png","null","",NA,NA,NA,NA,""
"image-keyboard-response",38,78663,"0.0-3.9-0.9","6kvhxeu8tkahahy",728,"179.csv","","841.4000000357628","resources/trios/L1T1A2.jpg","38","restless",0.7,0.9,0.3,0.404936251513544,"true"
"image-keyboard-response",39,79071,"0.0-3.9-1.9","6kvhxeu8tkahahy",728,"179.csv","","null","resources/maskTrios/BT1B.jpg","null","",NA,NA,NA,NA,""
"image-keyboard-response",40,80284,"0.0-3.9-2.9","6kvhxeu8tkahahy",728,"179.csv","","null","resources/images/coin2.png","null","",NA,NA,NA,NA,""
"image-keyboard-response",41,80718,"0.0-3.10-0.10","6kvhxeu8tkahahy",728,"179.csv","","432.5","resources/trios/L1T4A1.jpg","38","restless",0.7,0.9,0.3,0.1505045282735,"true"
"image-keyboard-response",42,81137,"0.0-3.10-1.10","6kvhxeu8tkahahy",728,"179.csv","","null","resources/maskTrios/BT4B.jpg","null","",NA,NA,NA,NA,""
"image-keyboard-response",43,82347,"0.0-3.10-2.10","6kvhxeu8tkahahy",728,"179.csv","","null","resources/images/coin2.png","null","",NA,NA,NA,NA,""
"image-keyboard-response",44,85359,"0.0-3.11-0.11","6kvhxeu8tkahahy",728,"179.csv","","3010.400000035763","resources/trios/L1T1A2.jpg","38","restless",0.7,0.9,0.3,0.00129013746894335,"true"
"image-keyboard-response",45,85768,"0.0-3.11-1.11","6kvhxeu8tkahahy",728,"179.csv","","null","resources/maskTrios/BT1B.jpg","null","",NA,NA,NA,NA,""
"image-keyboard-response",46,86982,"0.0-3.11-2.11","6kvhxeu8tkahahy",728,"179.csv","","null","resources/images/coin2.png","null","",NA,NA,NA,NA,""
"image-keyboard-response",47,89659,"0.0-3.12-0.12","6kvhxeu8tkahahy",728,"179.csv","","2675.5","resources/trios/L1T1A2.jpg","39","restless",0.7,0.9,0.2,0.887135582588076,"false"
"image-keyboard-response",48,90075,"0.0-3.12-1.12","6kvhxeu8tkahahy",728,"179.csv","","null","resources/maskTrios/BBA2.jpg","null","",NA,NA,NA,NA,""
"image-keyboard-response",49,91280,"0.0-3.12-2.12","6kvhxeu8tkahahy",728,"179.csv","","null","resources/images/fishbone.png","null","",NA,NA,NA,NA,""
"image-keyboard-response",50,92632,"0.0-3.13-0.13","6kvhxeu8tkahahy",728,"179.csv","","1350","resources/trios/L1T4A2.jpg","38","restless",0.7,0.9,0.2,0.0292717076840512,"true"
"image-keyboard-response",51,93042,"0.0-3.13-1.13","6kvhxeu8tkahahy",728,"179.csv","","null","resources/maskTrios/BT4B.jpg","null","",NA,NA,NA,NA,""
"image-keyboard-response",52,94252,"0.0-3.13-2.13","6kvhxeu8tkahahy",728,"179.csv","","null","resources/images/coin2.png","null","",NA,NA,NA,NA,""
"image-keyboard-response",53,95218,"0.0-3.14-0.14","6kvhxeu8tkahahy",728,"179.csv","","963.6999999880791","resources/trios/L1T4A1.jpg","38","restless",0.8,0.9,0.2,0.75148402290845,"true"
"image-keyboard-response",54,95626,"0.0-3.14-1.14","6kvhxeu8tkahahy",728,"179.csv","","null","resources/maskTrios/BT4B.jpg","null","",NA,NA,NA,NA,""
"image-keyboard-response",55,96838,"0.0-3.14-2.14","6kvhxeu8tkahahy",728,"179.csv","","null","resources/images/coin2.png","null","",NA,NA,NA,NA,""
"image-keyboard-response",56,97062,"0.0-3.15-0.15","6kvhxeu8tkahahy",728,"179.csv","","221.9000000357628","resources/trios/L1T1A2.jpg","38","restless",0.8,0.8,0.2,0.237112121574528,"true"
"image-keyboard-response",57,97487,"0.0-3.15-1.15","6kvhxeu8tkahahy",728,"179.csv","","null","resources/maskTrios/BT1B.jpg","null","",NA,NA,NA,NA,""
"image-keyboard-response",58,98700,"0.0-3.15-2.15","6kvhxeu8tkahahy",728,"179.csv","","null","resources/images/coin2.png","null","",NA,NA,NA,NA,""
"image-keyboard-response",59,99201,"0.0-3.16-0.16","6kvhxeu8tkahahy",728,"179.csv","","500.19999998807907","resources/trios/L1T4A1.jpg","38","restless",0.8,0.7,0.2,0.271814271689851,"true"
"image-keyboard-response",60,99616,"0.0-3.16-1.16","6kvhxeu8tkahahy",728,"179.csv","","null","resources/maskTrios/BT4B.jpg","null","",NA,NA,NA,NA,""
"image-keyboard-response",61,100829,"0.0-3.16-2.16","6kvhxeu8tkahahy",728,"179.csv","","null","resources/images/coin2.png","null","",NA,NA,NA,NA,""
"image-keyboard-response",62,101009,"0.0-3.17-0.17","6kvhxeu8tkahahy",728,"179.csv","","177.69999998807907","resources/trios/L4T4A2.jpg","38","restless",0.8,0.7,0.2,0.6024471864868,"true"
"image-keyboard-response",63,101417,"0.0-3.17-1.17","6kvhxeu8tkahahy",728,"179.csv","","null","resources/maskTrios/BT4B.jpg","null","",NA,NA,NA,NA,""
"image-keyboard-response",64,102628,"0.0-3.17-2.17","6kvhxeu8tkahahy",728,"179.csv","","null","resources/images/coin2.png","null","",NA,NA,NA,NA,""
"image-keyboard-response",65,102810,"0.0-3.18-0.18","6kvhxeu8tkahahy",728,"179.csv","","180.19999998807907","resources/trios/L4T4A1.jpg","38","restless",0.8,0.7,0.2,0.429733797726424,"true"
"image-keyboard-response",66,103218,"0.0-3.18-1.18","6kvhxeu8tkahahy",728,"179.csv","","null","resources/maskTrios/BT4B.jpg","null","",NA,NA,NA,NA,""
"image-keyboard-response",67,104431,"0.0-3.18-2.18","6kvhxeu8tkahahy",728,"179.csv","","null","resources/images/coin2.png","null","",NA,NA,NA,NA,""
"image-keyboard-response",68,104669,"0.0-3.19-0.19","6kvhxeu8tkahahy",728,"179.csv","","236.19999998807907","resources/trios/L1T4A1.jpg","38","restless",0.8,0.6,0.3,0.563494297282293,"true"
"image-keyboard-response",69,105086,"0.0-3.19-1.19","6kvhxeu8tkahahy",728,"179.csv","","null","resources/maskTrios/BT4B.jpg","null","",NA,NA,NA,NA,""
"image-keyboard-response",70,106308,"0.0-3.19-2.19","6kvhxeu8tkahahy",728,"179.csv","","null","resources/images/coin2.png","null","",NA,NA,NA,NA,""
"image-keyboard-response",71,106552,"0.0-3.20-0.20","6kvhxeu8tkahahy",728,"179.csv","","242.19999998807907","resources/trios/L1T4A1.jpg","38","restless",0.8,0.6,0.3,0.981564979168724,"false"
"image-keyboard-response",72,106961,"0.0-3.20-1.20","6kvhxeu8tkahahy",728,"179.csv","","null","resources/maskTrios/BT4B.jpg","null","",NA,NA,NA,NA,""
"image-keyboard-response",73,108172,"0.0-3.20-2.20","6kvhxeu8tkahahy",728,"179.csv","","null","resources/images/fishbone.png","null","",NA,NA,NA,NA,""
"image-keyboard-response",74,109140,"0.0-3.21-0.21","6kvhxeu8tkahahy",728,"179.csv","","966.6000000238419","resources/trios/L1T4A2.jpg","37","restless",0.9,0.6,0.3,0.431797809929793,"true"
"image-keyboard-response",75,109557,"0.0-3.21-1.21","6kvhxeu8tkahahy",728,"179.csv","","null","resources/maskTrios/L1BB.jpg","null","",NA,NA,NA,NA,""
"image-keyboard-response",76,110770,"0.0-3.21-2.21","6kvhxeu8tkahahy",728,"179.csv","","null","resources/images/coin2.png","null","",NA,NA,NA,NA,""
"image-keyboard-response",77,111093,"0.0-3.22-0.22","6kvhxeu8tkahahy",728,"179.csv","","321.60000002384186","resources/trios/L1T1A2.jpg","37","restless",0.9,0.6,0.3,0.858791349972619,"true"
"image-keyboard-response",78,111509,"0.0-3.22-1.22","6kvhxeu8tkahahy",728,"179.csv","","null","resources/maskTrios/L1BB.jpg","null","",NA,NA,NA,NA,""
"image-keyboard-response",79,112720,"0.0-3.22-2.22","6kvhxeu8tkahahy",728,"179.csv","","null","resources/images/coin2.png","null","",NA,NA,NA,NA,""
"image-keyboard-response",80,112950,"0.0-3.23-0.23","6kvhxeu8tkahahy",728,"179.csv","","228.5","resources/trios/L1T4A1.jpg","37","restless",0.9,0.6,0.3,0.574525762816345,"true"
"image-keyboard-response",81,113374,"0.0-3.23-1.23","6kvhxeu8tkahahy",728,"179.csv","","null","resources/maskTrios/L1BB.jpg","null","",NA,NA,NA,NA,""
"image-keyboard-response",82,114587,"0.0-3.23-2.23","6kvhxeu8tkahahy",728,"179.csv","","null","resources/images/coin2.png","null","",NA,NA,NA,NA,""
"image-keyboard-response",83,114821,"0.0-3.24-0.24","6kvhxeu8tkahahy",728,"179.csv","","233.30000001192093","resources/trios/L4T1A2.jpg","37","restless",0.9,0.6,0.3,0.0107975419776782,"true"
"image-keyboard-response",84,115239,"0.0-3.24-1.24","6kvhxeu8tkahahy",728,"179.csv","","null","resources/maskTrios/L4BB.jpg","null","",NA,NA,NA,NA,""
"image-keyboard-response",85,116451,"0.0-3.24-2.24","6kvhxeu8tkahahy",728,"179.csv","","null","resources/images/coin2.png","null","",NA,NA,NA,NA,""
"image-keyboard-response",86,116718,"0.0-3.25-0.25","6kvhxeu8tkahahy",728,"179.csv","","265.19999998807907","resources/trios/L1T4A2.jpg","37","restless",0.9,0.6,0.3,0.875216236894818,"true"
"image-keyboard-response",87,117126,"0.0-3.25-1.25","6kvhxeu8tkahahy",728,"179.csv","","null","resources/maskTrios/L1BB.jpg","null","",NA,NA,NA,NA,""
"image-keyboard-response",88,118342,"0.0-3.25-2.25","6kvhxeu8tkahahy",728,"179.csv","","null","resources/images/coin2.png","null","",NA,NA,NA,NA,""
"image-keyboard-response",89,118628,"0.0-3.26-0.26","6kvhxeu8tkahahy",728,"179.csv","","283.7999999523163","resources/trios/L4T1A1.jpg","37","restless",0.9,0.6,0.3,0.92275618061568,"false"
"image-keyboard-response",90,119037,"0.0-3.26-1.26","6kvhxeu8tkahahy",728,"179.csv","","null","resources/maskTrios/L4BB.jpg","null","",NA,NA,NA,NA,""
"image-keyboard-response",91,120248,"0.0-3.26-2.26","6kvhxeu8tkahahy",728,"179.csv","","null","resources/images/fishbone.png","null","",NA,NA,NA,NA,""
"image-keyboard-response",92,121375,"0.0-3.27-0.27","6kvhxeu8tkahahy",728,"179.csv","","1125.300000011921","resources/trios/L4T1A2.jpg","38","restless",0.9,0.6,0.3,0.178721076799153,"true"
"image-keyboard-response",93,121785,"0.0-3.27-1.27","6kvhxeu8tkahahy",728,"179.csv","","null","resources/maskTrios/BT1B.jpg","null","",NA,NA,NA,NA,""
"image-keyboard-response",94,122995,"0.0-3.27-2.27","6kvhxeu8tkahahy",728,"179.csv","","null","resources/images/coin2.png","null","",NA,NA,NA,NA,""
"image-keyboard-response",95,123322,"0.0-3.28-0.28","6kvhxeu8tkahahy",728,"179.csv","","325.39999997615814","resources/trios/L4T1A2.jpg","38","restless",0.9,0.6,0.3,0.203600383699598,"true"
"image-keyboard-response",96,123733,"0.0-3.28-1.28","6kvhxeu8tkahahy",728,"179.csv","","null","resources/maskTrios/BT1B.jpg","null","",NA,NA,NA,NA,""
"image-keyboard-response",97,124943,"0.0-3.28-2.28","6kvhxeu8tkahahy",728,"179.csv","","null","resources/images/coin2.png","null","",NA,NA,NA,NA,""
"image-keyboard-response",98,125170,"0.0-3.29-0.29","6kvhxeu8tkahahy",728,"179.csv","","225.69999998807907","resources/trios/L1T1A2.jpg","38","restless",0.8,0.6,0.3,0.32226827733625,"true"
"image-keyboard-response",99,125582,"0.0-3.29-1.29","6kvhxeu8tkahahy",728,"179.csv","","null","resources/maskTrios/BT1B.jpg","null","",NA,NA,NA,NA,""
"image-keyboard-response",100,126791,"0.0-3.29-2.29","6kvhxeu8tkahahy",728,"179.csv","","null","resources/images/coin2.png","null","",NA,NA,NA,NA,""
"image-keyboard-response",101,127061,"0.0-3.30-0.30","6kvhxeu8tkahahy",728,"179.csv","","268.2000000476837","resources/trios/L4T4A1.jpg","38","restless",0.8,0.6,0.3,0.367754307965968,"true"
"image-keyboard-response",102,127477,"0.0-3.30-1.30","6kvhxeu8tkahahy",728,"179.csv","","null","resources/maskTrios/BT4B.jpg","null","",NA,NA,NA,NA,""
"image-keyboard-response",103,128690,"0.0-3.30-2.30","6kvhxeu8tkahahy",728,"179.csv","","null","resources/images/coin2.png","null","",NA,NA,NA,NA,""
"image-keyboard-response",104,128983,"0.0-3.31-0.31","6kvhxeu8tkahahy",728,"179.csv","","290.39999997615814","resources/trios/L1T4A1.jpg","38","restless",0.8,0.6,0.3,0.412410856043826,"true"
"image-keyboard-response",105,129394,"0.0-3.31-1.31","6kvhxeu8tkahahy",728,"179.csv","","null","resources/maskTrios/BT4B.jpg","null","",NA,NA,NA,NA,""
"image-keyboard-response",106,130604,"0.0-3.31-2.31","6kvhxeu8tkahahy",728,"179.csv","","null","resources/images/coin2.png","null","",NA,NA,NA,NA,""
"image-keyboard-response",107,130969,"0.0-3.32-0.32","6kvhxeu8tkahahy",728,"179.csv","","363.39999997615814","resources/trios/L4T1A2.jpg","38","restless",0.8,0.6,0.3,0.873315273261343,"false"
"image-keyboard-response",108,131393,"0.0-3.32-1.32","6kvhxeu8tkahahy",728,"179.csv","","null","resources/maskTrios/BT1B.jpg","null","",NA,NA,NA,NA,""
"image-keyboard-response",109,132604,"0.0-3.32-2.32","6kvhxeu8tkahahy",728,"179.csv","","null","resources/images/fishbone.png","null","",NA,NA,NA,NA,""
"image-keyboard-response",110,132966,"0.0-3.33-0.33","6kvhxeu8tkahahy",728,"179.csv","","360.5","resources/trios/L4T1A1.jpg","37","restless",0.8,0.6,0.3,0.422963649663622,"true"
"image-keyboard-response",111,133374,"0.0-3.33-1.33","6kvhxeu8tkahahy",728,"179.csv","","null","resources/maskTrios/L4BB.jpg","null","",NA,NA,NA,NA,""
"image-keyboard-response",112,134586,"0.0-3.33-2.33","6kvhxeu8tkahahy",728,"179.csv","","null","resources/images/coin2.png","null","",NA,NA,NA,NA,""
"image-keyboard-response",113,135089,"0.0-3.34-0.34","6kvhxeu8tkahahy",728,"179.csv","","501.89999997615814","resources/trios/L4T4A2.jpg","37","restless",0.8,0.6,0.4,0.0224499584242526,"true"
"image-keyboard-response",114,135503,"0.0-3.34-1.34","6kvhxeu8tkahahy",728,"179.csv","","null","resources/maskTrios/L4BB.jpg","null","",NA,NA,NA,NA,""
"image-keyboard-response",115,136717,"0.0-3.34-2.34","6kvhxeu8tkahahy",728,"179.csv","","null","resources/images/coin2.png","null","",NA,NA,NA,NA,""
"image-keyboard-response",116,137259,"0.0-3.35-0.35","6kvhxeu8tkahahy",728,"179.csv","","539.4000000357628","resources/trios/L4T4A2.jpg","37","restless",0.8,0.6,0.4,0.22970314916621,"true"
"image-keyboard-response",117,137670,"0.0-3.35-1.35","6kvhxeu8tkahahy",728,"179.csv","","null","resources/maskTrios/L4BB.jpg","null","",NA,NA,NA,NA,""
"image-keyboard-response",118,138879,"0.0-3.35-2.35","6kvhxeu8tkahahy",728,"179.csv","","null","resources/images/coin2.png","null","",NA,NA,NA,NA,""
"image-keyboard-response",119,139804,"0.0-3.36-0.36","6kvhxeu8tkahahy",728,"179.csv","","923.3999999761581","resources/trios/L1T4A2.jpg","38","restless",0.8,0.6,0.4,0.883017280429726,"false"
"image-keyboard-response",120,140218,"0.0-3.36-1.36","6kvhxeu8tkahahy",728,"179.csv","","null","resources/maskTrios/BT4B.jpg","null","",NA,NA,NA,NA,""
"image-keyboard-response",121,141431,"0.0-3.36-2.36","6kvhxeu8tkahahy",728,"179.csv","","null","resources/images/fishbone.png","null","",NA,NA,NA,NA,""
"image-keyboard-response",122,141716,"0.0-3.37-0.37","6kvhxeu8tkahahy",728,"179.csv","","282.5999999642372","resources/trios/L4T1A2.jpg","37","restless",0.8,0.6,0.4,0.0950681265544659,"true"
"image-keyboard-response",123,142132,"0.0-3.37-1.37","6kvhxeu8tkahahy",728,"179.csv","","null","resources/maskTrios/L4BB.jpg","null","",NA,NA,NA,NA,""
"image-keyboard-response",124,143345,"0.0-3.37-2.37","6kvhxeu8tkahahy",728,"179.csv","","null","resources/images/coin2.png","null","",NA,NA,NA,NA,""
"image-keyboard-response",125,143777,"0.0-3.38-0.38","6kvhxeu8tkahahy",728,"179.csv","","429.89999997615814","resources/trios/L4T1A1.jpg","37","restless",0.9,0.6,0.4,0.00380908887454523,"true"
"image-keyboard-response",126,144186,"0.0-3.38-1.38","6kvhxeu8tkahahy",728,"179.csv","","null","resources/maskTrios/L4BB.jpg","null","",NA,NA,NA,NA,""
"image-keyboard-response",127,145409,"0.0-3.38-2.38","6kvhxeu8tkahahy",728,"179.csv","","null","resources/images/coin2.png","null","",NA,NA,NA,NA,""
"image-keyboard-response",128,145941,"0.0-3.39-0.39","6kvhxeu8tkahahy",728,"179.csv","","531","resources/trios/L4T4A1.jpg","37","restless",0.8,0.6,0.4,0.643609175309058,"true"
"image-keyboard-response",129,146361,"0.0-3.39-1.39","6kvhxeu8tkahahy",728,"179.csv","","null","resources/maskTrios/L4BB.jpg","null","",NA,NA,NA,NA,""
"image-keyboard-response",130,147571,"0.0-3.39-2.39","6kvhxeu8tkahahy",728,"179.csv","","null","resources/images/coin2.png","null","",NA,NA,NA,NA,""
"image-keyboard-response",131,149506,"0.0-3.40-0.40","6kvhxeu8tkahahy",728,"179.csv","","1933.5999999642372","resources/trios/L1T4A1.jpg","37","restless",0.8,0.6,0.4,0.803783575144579,"false"
"image-keyboard-response",132,149922,"0.0-3.40-1.40","6kvhxeu8tkahahy",728,"179.csv","","null","resources/maskTrios/L1BB.jpg","null","",NA,NA,NA,NA,""
"image-keyboard-response",133,151134,"0.0-3.40-2.40","6kvhxeu8tkahahy",728,"179.csv","","null","resources/images/fishbone.png","null","",NA,NA,NA,NA,""
"image-keyboard-response",134,151197,"0.0-3.41-0.41","6kvhxeu8tkahahy",728,"179.csv","","61.19999998807907","resources/trios/L4T4A2.jpg","38","restless",0.7,0.6,0.5,0.103036798573612,"true"
"image-keyboard-response",135,151605,"0.0-3.41-1.41","6kvhxeu8tkahahy",728,"179.csv","","null","resources/maskTrios/BT4B.jpg","null","",NA,NA,NA,NA,""
"image-keyboard-response",136,152816,"0.0-3.41-2.41","6kvhxeu8tkahahy",728,"179.csv","","null","resources/images/coin2.png","null","",NA,NA,NA,NA,""
"image-keyboard-response",137,153174,"0.0-3.42-0.42","6kvhxeu8tkahahy",728,"179.csv","","357","resources/trios/L4T1A1.jpg","38","restless",0.7,0.5,0.5,0.296511493168235,"true"
"image-keyboard-response",138,153593,"0.0-3.42-1.42","6kvhxeu8tkahahy",728,"179.csv","","null","resources/maskTrios/BT1B.jpg","null","",NA,NA,NA,NA,""
"image-keyboard-response",139,154814,"0.0-3.42-2.42","6kvhxeu8tkahahy",728,"179.csv","","null","resources/images/coin2.png","null","",NA,NA,NA,NA,""
"image-keyboard-response",140,155834,"0.0-3.43-0.43","6kvhxeu8tkahahy",728,"179.csv","","1019.1999999880791","resources/trios/L1T1A1.jpg","38","restless",0.7,0.4,0.5,0.728558969514497,"false"
"image-keyboard-response",141,156248,"0.0-3.43-1.43","6kvhxeu8tkahahy",728,"179.csv","","null","resources/maskTrios/BT1B.jpg","null","",NA,NA,NA,NA,""
"image-keyboard-response",142,157453,"0.0-3.43-2.43","6kvhxeu8tkahahy",728,"179.csv","","null","resources/images/fishbone.png","null","",NA,NA,NA,NA,""
"image-keyboard-response",143,157813,"0.0-3.44-0.44","6kvhxeu8tkahahy",728,"179.csv","","358.19999998807907","resources/trios/L1T1A1.jpg","37","restless",0.7,0.4,0.5,0.621920983238338,"true"
"image-keyboard-response",144,158231,"0.0-3.44-1.44","6kvhxeu8tkahahy",728,"179.csv","","null","resources/maskTrios/L1BB.jpg","null","",NA,NA,NA,NA,""
"image-keyboard-response",145,159444,"0.0-3.44-2.44","6kvhxeu8tkahahy",728,"179.csv","","null","resources/images/coin2.png","null","",NA,NA,NA,NA,""
"image-keyboard-response",146,160520,"0.0-3.45-0.45","6kvhxeu8tkahahy",728,"179.csv","","1074.0999999642372","resources/trios/L4T4A2.jpg","37","restless",0.7,0.4,0.5,0.492762613707201,"true"
"image-keyboard-response",147,160929,"0.0-3.45-1.45","6kvhxeu8tkahahy",728,"179.csv","","null","resources/maskTrios/L4BB.jpg","null","",NA,NA,NA,NA,""
"image-keyboard-response",148,162142,"0.0-3.45-2.45","6kvhxeu8tkahahy",728,"179.csv","","null","resources/images/coin2.png","null","",NA,NA,NA,NA,""
"image-keyboard-response",149,162318,"0.0-3.46-0.46","6kvhxeu8tkahahy",728,"179.csv","","174","resources/trios/L1T4A1.jpg","38","restless",0.7,0.4,0.6,0.0638170589730047,"true"
"image-keyboard-response",150,162734,"0.0-3.46-1.46","6kvhxeu8tkahahy",728,"179.csv","","null","resources/maskTrios/BT4B.jpg","null","",NA,NA,NA,NA,""
"image-keyboard-response",151,163940,"0.0-3.46-2.46","6kvhxeu8tkahahy",728,"179.csv","","null","resources/images/coin2.png","null","",NA,NA,NA,NA,""
"image-keyboard-response",152,164070,"0.0-3.47-0.47","6kvhxeu8tkahahy",728,"179.csv","","128.30000001192093","resources/trios/L4T1A1.jpg","37","restless",0.7,0.3,0.6,0.198922367334791,"true"
"image-keyboard-response",153,164478,"0.0-3.47-1.47","6kvhxeu8tkahahy",728,"179.csv","","null","resources/maskTrios/L4BB.jpg","null","",NA,NA,NA,NA,""
"image-keyboard-response",154,165692,"0.0-3.47-2.47","6kvhxeu8tkahahy",728,"179.csv","","null","resources/images/coin2.png","null","",NA,NA,NA,NA,""
"image-keyboard-response",155,166117,"0.0-3.48-0.48","6kvhxeu8tkahahy",728,"179.csv","","423.2000000476837","resources/trios/L1T4A1.jpg","38","restless",0.7,0.3,0.6,0.413516815843923,"false"
"image-keyboard-response",156,166525,"0.0-3.48-1.48","6kvhxeu8tkahahy",728,"179.csv","","null","resources/maskTrios/BT4B.jpg","null","",NA,NA,NA,NA,""
"image-keyboard-response",157,167735,"0.0-3.48-2.48","6kvhxeu8tkahahy",728,"179.csv","","null","resources/images/fishbone.png","null","",NA,NA,NA,NA,""
"image-keyboard-response",158,167867,"0.0-3.49-0.49","6kvhxeu8tkahahy",728,"179.csv","","131.0999999642372","resources/trios/L1T4A2.jpg","37","restless",0.7,0.3,0.6,0.707989318301395,"false"
"image-keyboard-response",159,168281,"0.0-3.49-1.49","6kvhxeu8tkahahy",728,"179.csv","","null","resources/maskTrios/L1BB.jpg","null","",NA,NA,NA,NA,""
"image-keyboard-response",160,169486,"0.0-3.49-2.49","6kvhxeu8tkahahy",728,"179.csv","","null","resources/images/fishbone.png","null","",NA,NA,NA,NA,""
"image-keyboard-response",161,169600,"0.0-3.50-0.50","6kvhxeu8tkahahy",728,"179.csv","","112.89999997615814","resources/trios/L4T1A2.jpg","39","restless",0.7,0.3,0.6,0.912024089886466,"false"
"image-keyboard-response",162,170010,"0.0-3.50-1.50","6kvhxeu8tkahahy",728,"179.csv","","null","resources/maskTrios/BBA2.jpg","null","",NA,NA,NA,NA,""
"image-keyboard-response",163,171232,"0.0-3.50-2.50","6kvhxeu8tkahahy",728,"179.csv","","null","resources/images/fishbone.png","null","",NA,NA,NA,NA,""
"image-keyboard-response",164,171440,"0.0-3.51-0.51","6kvhxeu8tkahahy",728,"179.csv","","206.19999998807907","resources/trios/L4T1A1.jpg","38","restless",0.7,0.3,0.6,0.585216939646411,"false"
"image-keyboard-response",165,171844,"0.0-3.51-1.51","6kvhxeu8tkahahy",728,"179.csv","","null","resources/maskTrios/BT1B.jpg","null","",NA,NA,NA,NA,""
"image-keyboard-response",166,173064,"0.0-3.51-2.51","6kvhxeu8tkahahy",728,"179.csv","","null","resources/images/fishbone.png","null","",NA,NA,NA,NA,""
"image-keyboard-response",167,173089,"0.0-3.52-0.52","6kvhxeu8tkahahy",728,"179.csv","","23.100000023841858","resources/trios/L4T1A2.jpg","37","restless",0.7,0.3,0.6,0.523365988663125,"true"
"image-keyboard-response",168,173504,"0.0-3.52-1.52","6kvhxeu8tkahahy",728,"179.csv","","null","resources/maskTrios/L4BB.jpg","null","",NA,NA,NA,NA,""
"image-keyboard-response",169,174715,"0.0-3.52-2.52","6kvhxeu8tkahahy",728,"179.csv","","null","resources/images/coin2.png","null","",NA,NA,NA,NA,""
"image-keyboard-response",170,174993,"0.0-3.53-0.53","6kvhxeu8tkahahy",728,"179.csv","","276.80000001192093","resources/trios/L1T1A1.jpg","37","restless",0.7,0.3,0.6,0.070360175888831,"true"
"image-keyboard-response",171,175417,"0.0-3.53-1.53","6kvhxeu8tkahahy",728,"179.csv","","null","resources/maskTrios/L1BB.jpg","null","",NA,NA,NA,NA,""
"image-keyboard-response",172,176628,"0.0-3.53-2.53","6kvhxeu8tkahahy",728,"179.csv","","null","resources/images/coin2.png","null","",NA,NA,NA,NA,""
"image-keyboard-response",173,176708,"0.0-3.54-0.54","6kvhxeu8tkahahy",728,"179.csv","","78.80000001192093","resources/trios/L4T1A1.jpg","38","restless",0.7,0.3,0.6,0.157353735717594,"true"
"image-keyboard-response",174,177128,"0.0-3.54-1.54","6kvhxeu8tkahahy",728,"179.csv","","null","resources/maskTrios/BT1B.jpg","null","",NA,NA,NA,NA,""
"image-keyboard-response",175,178343,"0.0-3.54-2.54","6kvhxeu8tkahahy",728,"179.csv","","null","resources/images/coin2.png","null","",NA,NA,NA,NA,""
"image-keyboard-response",176,178729,"0.0-3.55-0.55","6kvhxeu8tkahahy",728,"179.csv","","384.19999998807907","resources/trios/L1T4A1.jpg","38","restless",0.7,0.3,0.6,0.856486655913658,"false"
"image-keyboard-response",177,179142,"0.0-3.55-1.55","6kvhxeu8tkahahy",728,"179.csv","","null","resources/maskTrios/BT4B.jpg","null","",NA,NA,NA,NA,""
"image-keyboard-response",178,180356,"0.0-3.55-2.55","6kvhxeu8tkahahy",728,"179.csv","","null","resources/images/fishbone.png","null","",NA,NA,NA,NA,""
"image-keyboard-response",179,180919,"0.0-3.56-0.56","6kvhxeu8tkahahy",728,"179.csv","","557.7999999523163","resources/trios/L1T1A1.jpg","37","restless",0.7,0.3,0.6,0.679916152790466,"true"
"image-keyboard-response",180,181324,"0.0-3.56-1.56","6kvhxeu8tkahahy",728,"179.csv","","null","resources/maskTrios/L1BB.jpg","null","",NA,NA,NA,NA,""
"image-keyboard-response",181,182539,"0.0-3.56-2.56","6kvhxeu8tkahahy",728,"179.csv","","null","resources/images/coin2.png","null","",NA,NA,NA,NA,""
"image-keyboard-response",182,182690,"0.0-3.57-0.57","6kvhxeu8tkahahy",728,"179.csv","","149.30000001192093","resources/trios/L1T4A1.jpg","37","restless",0.7,0.3,0.6,0.906737741606148,"false"
"image-keyboard-response",183,183108,"0.0-3.57-1.57","6kvhxeu8tkahahy",728,"179.csv","","null","resources/maskTrios/L1BB.jpg","null","",NA,NA,NA,NA,""
"image-keyboard-response",184,184321,"0.0-3.57-2.57","6kvhxeu8tkahahy",728,"179.csv","","null","resources/images/fishbone.png","null","",NA,NA,NA,NA,""
"image-keyboard-response",185,184356,"0.0-3.58-0.58","6kvhxeu8tkahahy",728,"179.csv","","34","resources/trios/L4T4A2.jpg","38","restless",0.7,0.3,0.6,0.74797676415785,"false"
"image-keyboard-response",186,184778,"0.0-3.58-1.58","6kvhxeu8tkahahy",728,"179.csv","","null","resources/maskTrios/BT4B.jpg","null","",NA,NA,NA,NA,""
"image-keyboard-response",187,185987,"0.0-3.58-2.58","6kvhxeu8tkahahy",728,"179.csv","","null","resources/images/fishbone.png","null","",NA,NA,NA,NA,""
"image-keyboard-response",188,186615,"0.0-3.59-0.59","6kvhxeu8tkahahy",728,"179.csv","","626.6000000238419","resources/trios/L1T4A1.jpg","39","restless",0.7,0.3,0.6,0.150766332390426,"true"
"image-keyboard-response",189,187022,"0.0-3.59-1.59","6kvhxeu8tkahahy",728,"179.csv","","null","resources/maskTrios/BBA1.jpg","null","",NA,NA,NA,NA,""
"image-keyboard-response",190,188235,"0.0-3.59-2.59","6kvhxeu8tkahahy",728,"179.csv","","null","resources/images/coin2.png","null","",NA,NA,NA,NA,""
"image-keyboard-response",191,188727,"0.0-3.60-0.60","6kvhxeu8tkahahy",728,"179.csv","","490.9000000357628","resources/trios/L4T4A2.jpg","39","restless",0.7,0.3,0.7,0.20743007600545,"true"
"image-keyboard-response",192,189150,"0.0-3.60-1.60","6kvhxeu8tkahahy",728,"179.csv","","null","resources/maskTrios/BBA2.jpg","null","",NA,NA,NA,NA,""
"image-keyboard-response",193,190356,"0.0-3.60-2.60","6kvhxeu8tkahahy",728,"179.csv","","null","resources/images/coin2.png","null","",NA,NA,NA,NA,""
"image-keyboard-response",194,190481,"0.0-3.61-0.61","6kvhxeu8tkahahy",728,"179.csv","","123.69999998807907","resources/trios/L1T4A2.jpg","38","restless",0.7,0.3,0.7,0.489704653603422,"false"
"image-keyboard-response",195,190897,"0.0-3.61-1.61","6kvhxeu8tkahahy",728,"179.csv","","null","resources/maskTrios/BT4B.jpg","null","",NA,NA,NA,NA,""
"image-keyboard-response",196,192102,"0.0-3.61-2.61","6kvhxeu8tkahahy",728,"179.csv","","null","resources/images/fishbone.png","null","",NA,NA,NA,NA,""
"image-keyboard-response",197,192342,"0.0-3.62-0.62","6kvhxeu8tkahahy",728,"179.csv","","238.19999998807907","resources/trios/L4T1A1.jpg","38","restless",0.7,0.3,0.7,0.965366539294638,"false"
"image-keyboard-response",198,192750,"0.0-3.62-1.62","6kvhxeu8tkahahy",728,"179.csv","","null","resources/maskTrios/BT1B.jpg","null","",NA,NA,NA,NA,""
"image-keyboard-response",199,193963,"0.0-3.62-2.62","6kvhxeu8tkahahy",728,"179.csv","","null","resources/images/fishbone.png","null","",NA,NA,NA,NA,""
"image-keyboard-response",200,194259,"0.0-3.63-0.63","6kvhxeu8tkahahy",728,"179.csv","","294.5999999642372","resources/trios/L1T4A2.jpg","37","restless",0.7,0.3,0.7,0.72621158560574,"false"
"image-keyboard-response",201,194668,"0.0-3.63-1.63","6kvhxeu8tkahahy",728,"179.csv","","null","resources/maskTrios/L1BB.jpg","null","",NA,NA,NA,NA,""
"image-keyboard-response",202,195877,"0.0-3.63-2.63","6kvhxeu8tkahahy",728,"179.csv","","null","resources/images/fishbone.png","null","",NA,NA,NA,NA,""
"image-keyboard-response",203,196008,"0.0-3.64-0.64","6kvhxeu8tkahahy",728,"179.csv","","130","resources/trios/L4T1A1.jpg","39","restless",0.7,0.3,0.7,0.804779590832424,"false"
"image-keyboard-response",204,196427,"0.0-3.64-1.64","6kvhxeu8tkahahy",728,"179.csv","","null","resources/maskTrios/BBA1.jpg","null","",NA,NA,NA,NA,""
"image-keyboard-response",205,197638,"0.0-3.64-2.64","6kvhxeu8tkahahy",728,"179.csv","","null","resources/images/fishbone.png","null","",NA,NA,NA,NA,""
"image-keyboard-response",206,198101,"0.0-3.65-0.65","6kvhxeu8tkahahy",728,"179.csv","","460.60000002384186","resources/trios/L4T1A1.jpg","38","restless",0.7,0.4,0.7,0.441237005775642,"false"
"image-keyboard-response",207,198510,"0.0-3.65-1.65","6kvhxeu8tkahahy",728,"179.csv","","null","resources/maskTrios/BT1B.jpg","null","",NA,NA,NA,NA,""
"image-keyboard-response",208,199720,"0.0-3.65-2.65","6kvhxeu8tkahahy",728,"179.csv","","null","resources/images/fishbone.png","null","",NA,NA,NA,NA,""
"image-keyboard-response",209,199937,"0.0-3.66-0.66","6kvhxeu8tkahahy",728,"179.csv","","215.9000000357628","resources/trios/L4T1A2.jpg","38","restless",0.7,0.4,0.7,0.0848669578832044,"true"
"image-keyboard-response",210,200361,"0.0-3.66-1.66","6kvhxeu8tkahahy",728,"179.csv","","null","resources/maskTrios/BT1B.jpg","null","",NA,NA,NA,NA,""
"image-keyboard-response",211,201577,"0.0-3.66-2.66","6kvhxeu8tkahahy",728,"179.csv","","null","resources/images/coin2.png","null","",NA,NA,NA,NA,""
"image-keyboard-response",212,202757,"0.0-3.67-0.67","6kvhxeu8tkahahy",728,"179.csv","","1178","resources/trios/L1T4A1.jpg","38","restless",0.7,0.4,0.7,0.0696944218510798,"true"
"image-keyboard-response",213,203173,"0.0-3.67-1.67","6kvhxeu8tkahahy",728,"179.csv","","null","resources/maskTrios/BT4B.jpg","null","",NA,NA,NA,NA,""
"image-keyboard-response",214,204384,"0.0-3.67-2.67","6kvhxeu8tkahahy",728,"179.csv","","null","resources/images/coin2.png","null","",NA,NA,NA,NA,""
"image-keyboard-response",215,204541,"0.0-3.68-0.68","6kvhxeu8tkahahy",728,"179.csv","","155.10000002384186","resources/trios/L4T1A1.jpg","37","restless",0.8,0.4,0.7,0.695310397296478,"true"
"image-keyboard-response",216,204953,"0.0-3.68-1.68","6kvhxeu8tkahahy",728,"179.csv","","null","resources/maskTrios/L4BB.jpg","null","",NA,NA,NA,NA,""
"image-keyboard-response",217,206163,"0.0-3.68-2.68","6kvhxeu8tkahahy",728,"179.csv","","null","resources/images/coin2.png","null","",NA,NA,NA,NA,""
"image-keyboard-response",218,206319,"0.0-3.69-0.69","6kvhxeu8tkahahy",728,"179.csv","","154.60000002384186","resources/trios/L4T1A1.jpg","37","restless",0.8,0.4,0.7,0.0962671380904638,"true"
"image-keyboard-response",219,206735,"0.0-3.69-1.69","6kvhxeu8tkahahy",728,"179.csv","","null","resources/maskTrios/L4BB.jpg","null","",NA,NA,NA,NA,""
"image-keyboard-response",220,207945,"0.0-3.69-2.69","6kvhxeu8tkahahy",728,"179.csv","","null","resources/images/coin2.png","null","",NA,NA,NA,NA,""
"image-keyboard-response",221,208130,"0.0-3.70-0.70","6kvhxeu8tkahahy",728,"179.csv","","183.80000001192093","resources/trios/L4T1A1.jpg","38","restless",0.8,0.4,0.7,0.544961618376232,"false"
"image-keyboard-response",222,208549,"0.0-3.70-1.70","6kvhxeu8tkahahy",728,"179.csv","","null","resources/maskTrios/BT1B.jpg","null","",NA,NA,NA,NA,""
"image-keyboard-response",223,209760,"0.0-3.70-2.70","6kvhxeu8tkahahy",728,"179.csv","","null","resources/images/fishbone.png","null","",NA,NA,NA,NA,""
"image-keyboard-response",224,209840,"0.0-3.71-0.71","6kvhxeu8tkahahy",728,"179.csv","","77.69999998807907","resources/trios/L1T1A1.jpg","37","restless",0.8,0.4,0.7,0.944010265667988,"false"
"image-keyboard-response",225,210256,"0.0-3.71-1.71","6kvhxeu8tkahahy",728,"179.csv","","null","resources/maskTrios/L1BB.jpg","null","",NA,NA,NA,NA,""
"image-keyboard-response",226,211461,"0.0-3.71-2.71","6kvhxeu8tkahahy",728,"179.csv","","null","resources/images/fishbone.png","null","",NA,NA,NA,NA,""
"image-keyboard-response",227,211524,"0.0-3.72-0.72","6kvhxeu8tkahahy",728,"179.csv","","62.200000047683716","resources/trios/L4T4A1.jpg","39","restless",0.8,0.4,0.7,0.174910243385434,"true"
"image-keyboard-response",228,211932,"0.0-3.72-1.72","6kvhxeu8tkahahy",728,"179.csv","","null","resources/maskTrios/BBA1.jpg","null","",NA,NA,NA,NA,""
"image-keyboard-response",229,213145,"0.0-3.72-2.72","6kvhxeu8tkahahy",728,"179.csv","","null","resources/images/coin2.png","null","",NA,NA,NA,NA,""
"image-keyboard-response",230,213357,"0.0-3.73-0.73","6kvhxeu8tkahahy",728,"179.csv","","210.5","resources/trios/L1T1A2.jpg","38","restless",0.8,0.4,0.7,0.319832346257393,"true"
"image-keyboard-response",231,213766,"0.0-3.73-1.73","6kvhxeu8tkahahy",728,"179.csv","","null","resources/maskTrios/BT1B.jpg","null","",NA,NA,NA,NA,""
"image-keyboard-response",232,214976,"0.0-3.73-2.73","6kvhxeu8tkahahy",728,"179.csv","","null","resources/images/coin2.png","null","",NA,NA,NA,NA,""
"image-keyboard-response",233,215097,"0.0-3.74-0.74","6kvhxeu8tkahahy",728,"179.csv","","118.69999998807907","resources/trios/L4T4A2.jpg","37","restless",0.8,0.4,0.8,0.0342633555412084,"true"
"image-keyboard-response",234,215501,"0.0-3.74-1.74","6kvhxeu8tkahahy",728,"179.csv","","null","resources/maskTrios/L4BB.jpg","null","",NA,NA,NA,NA,""
"image-keyboard-response",235,216705,"0.0-3.74-2.74","6kvhxeu8tkahahy",728,"179.csv","","null","resources/images/coin2.png","null","",NA,NA,NA,NA,""
"image-keyboard-response",236,217259,"0.0-3.75-0.75","6kvhxeu8tkahahy",728,"179.csv","","552.6000000238419","resources/trios/L1T4A1.jpg","38","restless",0.8,0.4,0.8,0.806104773946204,"false"
"image-keyboard-response",237,217676,"0.0-3.75-1.75","6kvhxeu8tkahahy",728,"179.csv","","null","resources/maskTrios/BT4B.jpg","null","",NA,NA,NA,NA,""
"image-keyboard-response",238,218893,"0.0-3.75-2.75","6kvhxeu8tkahahy",728,"179.csv","","null","resources/images/fishbone.png","null","",NA,NA,NA,NA,""
"image-keyboard-response",239,219093,"0.0-3.76-0.76","6kvhxeu8tkahahy",728,"179.csv","","196.80000001192093","resources/trios/L1T4A2.jpg","39","restless",0.8,0.4,0.8,0.807783138373843,"false"
"image-keyboard-response",240,219513,"0.0-3.76-1.76","6kvhxeu8tkahahy",728,"179.csv","","null","resources/maskTrios/BBA2.jpg","null","",NA,NA,NA,NA,""
"image-keyboard-response",241,220734,"0.0-3.76-2.76","6kvhxeu8tkahahy",728,"179.csv","","null","resources/images/fishbone.png","null","",NA,NA,NA,NA,""
"image-keyboard-response",242,220851,"0.0-3.77-0.77","6kvhxeu8tkahahy",728,"179.csv","","115.39999997615814","resources/trios/L4T4A1.jpg","37","restless",0.8,0.4,0.8,0.12471073526204,"true"
"image-keyboard-response",243,221270,"0.0-3.77-1.77","6kvhxeu8tkahahy",728,"179.csv","","null","resources/maskTrios/L4BB.jpg","null","",NA,NA,NA,NA,""
"image-keyboard-response",244,222481,"0.0-3.77-2.77","6kvhxeu8tkahahy",728,"179.csv","","null","resources/images/coin2.png","null","",NA,NA,NA,NA,""
"image-keyboard-response",245,222681,"0.0-3.78-0.78","6kvhxeu8tkahahy",728,"179.csv","","199","resources/trios/L4T4A2.jpg","38","restless",0.8,0.4,0.8,0.773224387462753,"false"
"image-keyboard-response",246,223105,"0.0-3.78-1.78","6kvhxeu8tkahahy",728,"179.csv","","null","resources/maskTrios/BT4B.jpg","null","",NA,NA,NA,NA,""
"image-keyboard-response",247,224318,"0.0-3.78-2.78","6kvhxeu8tkahahy",728,"179.csv","","null","resources/images/fishbone.png","null","",NA,NA,NA,NA,""
"image-keyboard-response",248,224433,"0.0-3.79-0.79","6kvhxeu8tkahahy",728,"179.csv","","114.5","resources/trios/L4T4A2.jpg","37","restless",0.8,0.4,0.8,0.696269866340314,"true"
"image-keyboard-response",249,224848,"0.0-3.79-1.79","6kvhxeu8tkahahy",728,"179.csv","","null","resources/maskTrios/L4BB.jpg","null","",NA,NA,NA,NA,""
"image-keyboard-response",250,226061,"0.0-3.79-2.79","6kvhxeu8tkahahy",728,"179.csv","","null","resources/images/coin2.png","null","",NA,NA,NA,NA,""
"image-keyboard-response",251,226490,"0.0-3.80-0.80","6kvhxeu8tkahahy",728,"179.csv","","427.39999997615814","resources/trios/L1T1A2.jpg","38","restless",0.8,0.4,0.8,0.811364438047428,"false"
"image-keyboard-response",252,226914,"0.0-3.80-1.80","6kvhxeu8tkahahy",728,"179.csv","","null","resources/maskTrios/BT1B.jpg","null","",NA,NA,NA,NA,""
"image-keyboard-response",253,228125,"0.0-3.80-2.80","6kvhxeu8tkahahy",728,"179.csv","","null","resources/images/fishbone.png","null","",NA,NA,NA,NA,""
"image-keyboard-response",254,229584,"0.0-3.81-0.81","6kvhxeu8tkahahy",728,"179.csv","","1457.4000000357628","resources/trios/L4T4A2.jpg","37","restless",0.8,0.4,0.9,0.375169541999414,"true"
"image-keyboard-response",255,230001,"0.0-3.81-1.81","6kvhxeu8tkahahy",728,"179.csv","","null","resources/maskTrios/L4BB.jpg","null","",NA,NA,NA,NA,""
"image-keyboard-response",256,231225,"0.0-3.81-2.81","6kvhxeu8tkahahy",728,"179.csv","","null","resources/images/coin2.png","null","",NA,NA,NA,NA,""
"image-keyboard-response",257,231281,"0.0-3.82-0.82","6kvhxeu8tkahahy",728,"179.csv","","54.19999998807907","resources/trios/L4T4A1.jpg","37","restless",0.8,0.4,0.8,0.734458377917905,"true"
"image-keyboard-response",258,231694,"0.0-3.82-1.82","6kvhxeu8tkahahy",728,"179.csv","","null","resources/maskTrios/L4BB.jpg","null","",NA,NA,NA,NA,""
"image-keyboard-response",259,232904,"0.0-3.82-2.82","6kvhxeu8tkahahy",728,"179.csv","","null","resources/images/coin2.png","null","",NA,NA,NA,NA,""
"image-keyboard-response",260,233290,"0.0-3.83-0.83","6kvhxeu8tkahahy",728,"179.csv","","381.4000000357628","resources/trios/L1T4A2.jpg","39","restless",0.8,0.4,0.9,0.123837797045043,"true"
"image-keyboard-response",261,233706,"0.0-3.83-1.83","6kvhxeu8tkahahy",728,"179.csv","","null","resources/maskTrios/BBA2.jpg","null","",NA,NA,NA,NA,""
"image-keyboard-response",262,234918,"0.0-3.83-2.83","6kvhxeu8tkahahy",728,"179.csv","","null","resources/images/coin2.png","null","",NA,NA,NA,NA,""
"image-keyboard-response",263,235102,"0.0-3.84-0.84","6kvhxeu8tkahahy",728,"179.csv","","182.5","resources/trios/L1T1A1.jpg","38","restless",0.8,0.4,0.9,0.53297767605498,"false"
"image-keyboard-response",264,235510,"0.0-3.84-1.84","6kvhxeu8tkahahy",728,"179.csv","","null","resources/maskTrios/BT1B.jpg","null","",NA,NA,NA,NA,""
"image-keyboard-response",265,236723,"0.0-3.84-2.84","6kvhxeu8tkahahy",728,"179.csv","","null","resources/images/fishbone.png","null","",NA,NA,NA,NA,""
"image-keyboard-response",266,236901,"0.0-3.85-0.85","6kvhxeu8tkahahy",728,"179.csv","","176.60000002384186","resources/trios/L1T4A2.jpg","37","restless",0.7,0.4,0.9,0.754481354542418,"false"
"image-keyboard-response",267,237310,"0.0-3.85-1.85","6kvhxeu8tkahahy",728,"179.csv","","null","resources/maskTrios/L1BB.jpg","null","",NA,NA,NA,NA,""
"image-keyboard-response",268,238524,"0.0-3.85-2.85","6kvhxeu8tkahahy",728,"179.csv","","null","resources/images/fishbone.png","null","",NA,NA,NA,NA,""
"image-keyboard-response",269,238718,"0.0-3.86-0.86","6kvhxeu8tkahahy",728,"179.csv","","191.79999995231628","resources/trios/L4T4A1.jpg","39","restless",0.7,0.4,0.9,0.582798952358368,"true"
"image-keyboard-response",270,239134,"0.0-3.86-1.86","6kvhxeu8tkahahy",728,"179.csv","","null","resources/maskTrios/BBA1.jpg","null","",NA,NA,NA,NA,""
"image-keyboard-response",271,240341,"0.0-3.86-2.86","6kvhxeu8tkahahy",728,"179.csv","","null","resources/images/coin2.png","null","",NA,NA,NA,NA,""
"image-keyboard-response",272,240508,"0.0-3.87-0.87","6kvhxeu8tkahahy",728,"179.csv","","164.9000000357628","resources/trios/L4T4A2.jpg","38","restless",0.7,0.5,0.8,0.270061291174485,"true"
"image-keyboard-response",273,240924,"0.0-3.87-1.87","6kvhxeu8tkahahy",728,"179.csv","","null","resources/maskTrios/BT4B.jpg","null","",NA,NA,NA,NA,""
"image-keyboard-response",274,242132,"0.0-3.87-2.87","6kvhxeu8tkahahy",728,"179.csv","","null","resources/images/coin2.png","null","",NA,NA,NA,NA,""
"image-keyboard-response",275,242312,"0.0-3.88-0.88","6kvhxeu8tkahahy",728,"179.csv","","178.30000001192093","resources/trios/L4T1A2.jpg","37","restless",0.7,0.5,0.7,0.429765343642698,"true"
"image-keyboard-response",276,242721,"0.0-3.88-1.88","6kvhxeu8tkahahy",728,"179.csv","","null","resources/maskTrios/L4BB.jpg","null","",NA,NA,NA,NA,""
"image-keyboard-response",277,243931,"0.0-3.88-2.88","6kvhxeu8tkahahy",728,"179.csv","","null","resources/images/coin2.png","null","",NA,NA,NA,NA,""
"image-keyboard-response",278,244140,"0.0-3.89-0.89","6kvhxeu8tkahahy",728,"179.csv","","208","resources/trios/L4T1A1.jpg","38","restless",0.6,0.5,0.7,0.926520640735176,"false"
"image-keyboard-response",279,244549,"0.0-3.89-1.89","6kvhxeu8tkahahy",728,"179.csv","","null","resources/maskTrios/BT1B.jpg","null","",NA,NA,NA,NA,""
"image-keyboard-response",280,245760,"0.0-3.89-2.89","6kvhxeu8tkahahy",728,"179.csv","","null","resources/images/fishbone.png","null","",NA,NA,NA,NA,""
"image-keyboard-response",281,245799,"0.0-3.90-0.90","6kvhxeu8tkahahy",728,"179.csv","","37.200000047683716","resources/trios/L1T4A2.jpg","39","restless",0.6,0.5,0.7,0.758832841145543,"false"
"image-keyboard-response",282,246203,"0.0-3.90-1.90","6kvhxeu8tkahahy",728,"179.csv","","null","resources/maskTrios/BBA2.jpg","null","",NA,NA,NA,NA,""
"image-keyboard-response",283,247416,"0.0-3.90-2.90","6kvhxeu8tkahahy",728,"179.csv","","null","resources/images/fishbone.png","null","",NA,NA,NA,NA,""
"image-keyboard-response",284,247574,"0.0-3.91-0.91","6kvhxeu8tkahahy",728,"179.csv","","156.5999999642372","resources/trios/L4T4A1.jpg","37","restless",0.6,0.5,0.7,0.986497350861179,"false"
"image-keyboard-response",285,247985,"0.0-3.91-1.91","6kvhxeu8tkahahy",728,"179.csv","","null","resources/maskTrios/L4BB.jpg","null","",NA,NA,NA,NA,""
"image-keyboard-response",286,249192,"0.0-3.91-2.91","6kvhxeu8tkahahy",728,"179.csv","","null","resources/images/fishbone.png","null","",NA,NA,NA,NA,""
"image-keyboard-response",287,249244,"0.0-3.92-0.92","6kvhxeu8tkahahy",728,"179.csv","","50.89999997615814","resources/trios/L4T1A2.jpg","39","restless",0.6,0.5,0.7,0.397614034355414,"true"
"image-keyboard-response",288,249661,"0.0-3.92-1.92","6kvhxeu8tkahahy",728,"179.csv","","null","resources/maskTrios/BBA2.jpg","null","",NA,NA,NA,NA,""
"image-keyboard-response",289,250875,"0.0-3.92-2.92","6kvhxeu8tkahahy",728,"179.csv","","null","resources/images/coin2.png","null","",NA,NA,NA,NA,""
"image-keyboard-response",290,250903,"0.0-3.93-0.93","6kvhxeu8tkahahy",728,"179.csv","","26.69999998807907","resources/trios/L4T4A1.jpg","38","restless",0.6,0.5,0.7,0.506807843087935,"false"
"image-keyboard-response",291,251316,"0.0-3.93-1.93","6kvhxeu8tkahahy",728,"179.csv","","null","resources/maskTrios/BT4B.jpg","null","",NA,NA,NA,NA,""
"image-keyboard-response",292,252538,"0.0-3.93-2.93","6kvhxeu8tkahahy",728,"179.csv","","null","resources/images/fishbone.png","null","",NA,NA,NA,NA,""
"image-keyboard-response",293,252571,"0.0-3.94-0.94","6kvhxeu8tkahahy",728,"179.csv","","32.19999998807907","resources/trios/L4T1A2.jpg","39","restless",0.6,0.5,0.7,0.54675123745909,"true"
"image-keyboard-response",294,252991,"0.0-3.94-1.94","6kvhxeu8tkahahy",728,"179.csv","","null","resources/maskTrios/BBA2.jpg","null","",NA,NA,NA,NA,""
"image-keyboard-response",295,254204,"0.0-3.94-2.94","6kvhxeu8tkahahy",728,"179.csv","","null","resources/images/coin2.png","null","",NA,NA,NA,NA,""
"image-keyboard-response",296,254251,"0.0-3.95-0.95","6kvhxeu8tkahahy",728,"179.csv","","45.799999952316284","resources/trios/L1T1A2.jpg","39","restless",0.6,0.4,0.7,0.939872762773398,"false"
"image-keyboard-response",297,254673,"0.0-3.95-1.95","6kvhxeu8tkahahy",728,"179.csv","","null","resources/maskTrios/BBA2.jpg","null","",NA,NA,NA,NA,""
"image-keyboard-response",298,255885,"0.0-3.95-2.95","6kvhxeu8tkahahy",728,"179.csv","","null","resources/images/fishbone.png","null","",NA,NA,NA,NA,""
"image-keyboard-response",299,256019,"0.0-3.96-0.96","6kvhxeu8tkahahy",728,"179.csv","","132.20000004768372","resources/trios/L4T4A1.jpg","38","restless",0.6,0.4,0.7,0.0507891568424246,"true"
"image-keyboard-response",300,256436,"0.0-3.96-1.96","6kvhxeu8tkahahy",728,"179.csv","","null","resources/maskTrios/BT4B.jpg","null","",NA,NA,NA,NA,""
"image-keyboard-response",301,257649,"0.0-3.96-2.96","6kvhxeu8tkahahy",728,"179.csv","","null","resources/images/coin2.png","null","",NA,NA,NA,NA,""
"image-keyboard-response",302,257881,"0.0-3.97-0.97","6kvhxeu8tkahahy",728,"179.csv","","230.79999995231628","resources/trios/L1T4A1.jpg","37","restless",0.6,0.4,0.7,0.945078948344951,"false"
"image-keyboard-response",303,258285,"0.0-3.97-1.97","6kvhxeu8tkahahy",728,"179.csv","","null","resources/maskTrios/L1BB.jpg","null","",NA,NA,NA,NA,""
"image-keyboard-response",304,259497,"0.0-3.97-2.97","6kvhxeu8tkahahy",728,"179.csv","","null","resources/images/fishbone.png","null","",NA,NA,NA,NA,""
"image-keyboard-response",305,259631,"0.0-3.98-0.98","6kvhxeu8tkahahy",728,"179.csv","","132.30000001192093","resources/trios/L4T1A1.jpg","39","restless",0.6,0.4,0.7,0.106136208454888,"true"
"image-keyboard-response",306,260050,"0.0-3.98-1.98","6kvhxeu8tkahahy",728,"179.csv","","null","resources/maskTrios/BBA1.jpg","null","",NA,NA,NA,NA,""
"image-keyboard-response",307,261262,"0.0-3.98-2.98","6kvhxeu8tkahahy",728,"179.csv","","null","resources/images/coin2.png","null","",NA,NA,NA,NA,""
"image-keyboard-response",308,261639,"0.0-3.99-0.99","6kvhxeu8tkahahy",728,"179.csv","","375","resources/trios/L4T4A2.jpg","38","restless",0.6,0.4,0.7,0.0786125148000907,"true"
"image-keyboard-response",309,262049,"0.0-3.99-1.99","6kvhxeu8tkahahy",728,"179.csv","","null","resources/maskTrios/BT4B.jpg","null","",NA,NA,NA,NA,""
"image-keyboard-response",310,263261,"0.0-3.99-2.99","6kvhxeu8tkahahy",728,"179.csv","","null","resources/images/coin2.png","null","",NA,NA,NA,NA,""
"image-keyboard-response",311,263405,"0.0-3.100-0.100","6kvhxeu8tkahahy",728,"179.csv","","141.70000004768372","resources/trios/L1T4A2.jpg","38","restless",0.6,0.4,0.8,0.899343834976058,"false"
"image-keyboard-response",312,263814,"0.0-3.100-1.100","6kvhxeu8tkahahy",728,"179.csv","","null","resources/maskTrios/BT4B.jpg","null","",NA,NA,NA,NA,""
"image-keyboard-response",313,265027,"0.0-3.100-2.100","6kvhxeu8tkahahy",728,"179.csv","","null","resources/images/fishbone.png","null","",NA,NA,NA,NA,""
"image-keyboard-response",314,265028,"0.0-3.101-0.101","6kvhxeu8tkahahy",728,"179.csv","","0.19999998807907104","resources/trios/L1T4A1.jpg","38","restless",0.7,0.4,0.8,0.728277860363459,"false"
"image-keyboard-response",315,265444,"0.0-3.101-1.101","6kvhxeu8tkahahy",728,"179.csv","","null","resources/maskTrios/BT4B.jpg","null","",NA,NA,NA,NA,""
"image-keyboard-response",316,266657,"0.0-3.101-2.101","6kvhxeu8tkahahy",728,"179.csv","","null","resources/images/fishbone.png","null","",NA,NA,NA,NA,""
"image-keyboard-response",317,266860,"0.0-3.102-0.102","6kvhxeu8tkahahy",728,"179.csv","","201.30000001192093","resources/trios/L1T1A2.jpg","39","restless",0.7,0.4,0.7,0.0512316146459382,"true"
"image-keyboard-response",318,267276,"0.0-3.102-1.102","6kvhxeu8tkahahy",728,"179.csv","","null","resources/maskTrios/BBA2.jpg","null","",NA,NA,NA,NA,""
"image-keyboard-response",319,268489,"0.0-3.102-2.102","6kvhxeu8tkahahy",728,"179.csv","","null","resources/images/coin2.png","null","",NA,NA,NA,NA,""
"image-keyboard-response",320,268508,"0.0-3.103-0.103","6kvhxeu8tkahahy",728,"179.csv","","17.80000001192093","resources/trios/L1T1A1.jpg","37","restless",0.7,0.4,0.7,0.34942176609794,"true"
"image-keyboard-response",321,268924,"0.0-3.103-1.103","6kvhxeu8tkahahy",728,"179.csv","","null","resources/maskTrios/L1BB.jpg","null","",NA,NA,NA,NA,""
"image-keyboard-response",322,270137,"0.0-3.103-2.103","6kvhxeu8tkahahy",728,"179.csv","","null","resources/images/coin2.png","null","",NA,NA,NA,NA,""
"image-keyboard-response",323,270468,"0.0-3.104-0.104","6kvhxeu8tkahahy",728,"179.csv","","329.10000002384186","resources/trios/L4T4A1.jpg","39","restless",0.6,0.4,0.7,0.139947630502584,"true"
"image-keyboard-response",324,270876,"0.0-3.104-1.104","6kvhxeu8tkahahy",728,"179.csv","","null","resources/maskTrios/BBA1.jpg","null","",NA,NA,NA,NA,""
"image-keyboard-response",325,272087,"0.0-3.104-2.104","6kvhxeu8tkahahy",728,"179.csv","","null","resources/images/coin2.png","null","",NA,NA,NA,NA,""
"image-keyboard-response",326,272200,"0.0-3.105-0.105","6kvhxeu8tkahahy",728,"179.csv","","111.80000001192093","resources/trios/L4T1A1.jpg","38","restless",0.6,0.5,0.7,0.737597046960909,"false"
"image-keyboard-response",327,272609,"0.0-3.105-1.105","6kvhxeu8tkahahy",728,"179.csv","","null","resources/maskTrios/BT1B.jpg","null","",NA,NA,NA,NA,""
"image-keyboard-response",328,273818,"0.0-3.105-2.105","6kvhxeu8tkahahy",728,"179.csv","","null","resources/images/fishbone.png","null","",NA,NA,NA,NA,""
"image-keyboard-response",329,273867,"0.0-3.106-0.106","6kvhxeu8tkahahy",728,"179.csv","","47.69999998807907","resources/trios/L1T1A1.jpg","37","restless",0.6,0.5,0.7,0.800108205141109,"false"
"image-keyboard-response",330,274287,"0.0-3.106-1.106","6kvhxeu8tkahahy",728,"179.csv","","null","resources/maskTrios/L1BB.jpg","null","",NA,NA,NA,NA,""
"image-keyboard-response",331,275500,"0.0-3.106-2.106","6kvhxeu8tkahahy",728,"179.csv","","null","resources/images/fishbone.png","null","",NA,NA,NA,NA,""
"image-keyboard-response",332,275593,"0.0-3.107-0.107","6kvhxeu8tkahahy",728,"179.csv","","91.70000004768372","resources/trios/L1T1A2.jpg","37","restless",0.6,0.5,0.6,0.863127978435975,"false"
"image-keyboard-response",333,276033,"0.0-3.107-1.107","6kvhxeu8tkahahy",728,"179.csv","","null","resources/maskTrios/L1BB.jpg","null","",NA,NA,NA,NA,""
"image-keyboard-response",334,277235,"0.0-3.107-2.107","6kvhxeu8tkahahy",728,"179.csv","","null","resources/images/fishbone.png","null","",NA,NA,NA,NA,""
"image-keyboard-response",335,277373,"0.0-3.108-0.108","6kvhxeu8tkahahy",728,"179.csv","","136.20000004768372","resources/trios/L4T1A1.jpg","38","restless",0.6,0.5,0.6,0.821396701147069,"false"
"image-keyboard-response",336,277783,"0.0-3.108-1.108","6kvhxeu8tkahahy",728,"179.csv","","null","resources/maskTrios/BT1B.jpg","null","",NA,NA,NA,NA,""
"image-keyboard-response",337,278996,"0.0-3.108-2.108","6kvhxeu8tkahahy",728,"179.csv","","null","resources/images/fishbone.png","null","",NA,NA,NA,NA,""
"image-keyboard-response",338,279218,"0.0-3.109-0.109","6kvhxeu8tkahahy",728,"179.csv","","220.19999998807907","resources/trios/L1T1A1.jpg","39","restless",0.6,0.5,0.6,0.456735707138079,"true"
"image-keyboard-response",339,279637,"0.0-3.109-1.109","6kvhxeu8tkahahy",728,"179.csv","","null","resources/maskTrios/BBA1.jpg","null","",NA,NA,NA,NA,""
"image-keyboard-response",340,280845,"0.0-3.109-2.109","6kvhxeu8tkahahy",728,"179.csv","","null","resources/images/coin2.png","null","",NA,NA,NA,NA,""
"image-keyboard-response",341,281009,"0.0-3.110-0.110","6kvhxeu8tkahahy",728,"179.csv","","161.60000002384186","resources/trios/L1T1A1.jpg","37","restless",0.6,0.5,0.6,0.0475775103988494,"true"
"image-keyboard-response",342,281428,"0.0-3.110-1.110","6kvhxeu8tkahahy",728,"179.csv","","null","resources/maskTrios/L1BB.jpg","null","",NA,NA,NA,NA,""
"image-keyboard-response",343,282641,"0.0-3.110-2.110","6kvhxeu8tkahahy",728,"179.csv","","null","resources/images/coin2.png","null","",NA,NA,NA,NA,""
"image-keyboard-response",344,282858,"0.0-3.111-0.111","6kvhxeu8tkahahy",728,"179.csv","","215.4000000357628","resources/trios/L4T1A2.jpg","37","restless",0.6,0.5,0.6,0.6398599679009,"false"
"image-keyboard-response",345,283274,"0.0-3.111-1.111","6kvhxeu8tkahahy",728,"179.csv","","null","resources/maskTrios/L4BB.jpg","null","",NA,NA,NA,NA,""
"image-keyboard-response",346,284490,"0.0-3.111-2.111","6kvhxeu8tkahahy",728,"179.csv","","null","resources/images/fishbone.png","null","",NA,NA,NA,NA,""
"image-keyboard-response",347,284744,"0.0-3.112-0.112","6kvhxeu8tkahahy",728,"179.csv","","252.89999997615814","resources/trios/L4T4A1.jpg","39","restless",0.6,0.5,0.6,0.687577560570489,"false"
"image-keyboard-response",348,285161,"0.0-3.112-1.112","6kvhxeu8tkahahy",728,"179.csv","","null","resources/maskTrios/BBA1.jpg","null","",NA,NA,NA,NA,""
"image-keyboard-response",349,286373,"0.0-3.112-2.112","6kvhxeu8tkahahy",728,"179.csv","","null","resources/images/fishbone.png","null","",NA,NA,NA,NA,""
"image-keyboard-response",350,286721,"0.0-3.113-0.113","6kvhxeu8tkahahy",728,"179.csv","","346.0999999642372","resources/trios/L4T4A2.jpg","37","restless",0.6,0.5,0.6,0.56900210983216,"true"
"image-keyboard-response",351,287137,"0.0-3.113-1.113","6kvhxeu8tkahahy",728,"179.csv","","null","resources/maskTrios/L4BB.jpg","null","",NA,NA,NA,NA,""
"image-keyboard-response",352,288352,"0.0-3.113-2.113","6kvhxeu8tkahahy",728,"179.csv","","null","resources/images/coin2.png","null","",NA,NA,NA,NA,""
"image-keyboard-response",353,288550,"0.0-3.114-0.114","6kvhxeu8tkahahy",728,"179.csv","","196.30000001192093","resources/trios/L4T1A2.jpg","38","restless",0.6,0.6,0.6,0.642398474295138,"false"
"image-keyboard-response",354,288959,"0.0-3.114-1.114","6kvhxeu8tkahahy",728,"179.csv","","null","resources/maskTrios/BT1B.jpg","null","",NA,NA,NA,NA,""
"image-keyboard-response",355,290176,"0.0-3.114-2.114","6kvhxeu8tkahahy",728,"179.csv","","null","resources/images/fishbone.png","null","",NA,NA,NA,NA,""
"image-keyboard-response",356,290373,"0.0-3.115-0.115","6kvhxeu8tkahahy",728,"179.csv","","195.29999995231628","resources/trios/L4T1A1.jpg","39","restless",0.6,0.6,0.6,0.304897915156873,"true"
"image-keyboard-response",357,290789,"0.0-3.115-1.115","6kvhxeu8tkahahy",728,"179.csv","","null","resources/maskTrios/BBA1.jpg","null","",NA,NA,NA,NA,""
"image-keyboard-response",358,292004,"0.0-3.115-2.115","6kvhxeu8tkahahy",728,"179.csv","","null","resources/images/coin2.png","null","",NA,NA,NA,NA,""
"image-keyboard-response",359,292270,"0.0-3.116-0.116","6kvhxeu8tkahahy",728,"179.csv","","264.39999997615814","resources/trios/L4T4A1.jpg","39","restless",0.6,0.7,0.6,0.753811201149426,"false"
"image-keyboard-response",360,292687,"0.0-3.116-1.116","6kvhxeu8tkahahy",728,"179.csv","","null","resources/maskTrios/BBA1.jpg","null","",NA,NA,NA,NA,""
"image-keyboard-response",361,293899,"0.0-3.116-2.116","6kvhxeu8tkahahy",728,"179.csv","","null","resources/images/fishbone.png","null","",NA,NA,NA,NA,""
"image-keyboard-response",362,294136,"0.0-3.117-0.117","6kvhxeu8tkahahy",728,"179.csv","","234.80000001192093","resources/trios/L1T1A1.jpg","37","restless",0.6,0.7,0.6,0.530646942309342,"true"
"image-keyboard-response",363,294551,"0.0-3.117-1.117","6kvhxeu8tkahahy",728,"179.csv","","null","resources/maskTrios/L1BB.jpg","null","",NA,NA,NA,NA,""
"image-keyboard-response",364,295764,"0.0-3.117-2.117","6kvhxeu8tkahahy",728,"179.csv","","null","resources/images/coin2.png","null","",NA,NA,NA,NA,""
"image-keyboard-response",365,295988,"0.0-3.118-0.118","6kvhxeu8tkahahy",728,"179.csv","","221.80000001192093","resources/trios/L1T4A1.jpg","38","restless",0.6,0.7,0.6,0.727328668070316,"false"
"image-keyboard-response",366,296404,"0.0-3.118-1.118","6kvhxeu8tkahahy",728,"179.csv","","null","resources/maskTrios/BT4B.jpg","null","",NA,NA,NA,NA,""
"image-keyboard-response",367,297611,"0.0-3.118-2.118","6kvhxeu8tkahahy",728,"179.csv","","null","resources/images/fishbone.png","null","",NA,NA,NA,NA,""
"image-keyboard-response",368,297742,"0.0-3.119-0.119","6kvhxeu8tkahahy",728,"179.csv","","129.69999998807907","resources/trios/L1T4A2.jpg","37","restless",0.6,0.7,0.6,0.68050016092346,"false"
"image-keyboard-response",369,298147,"0.0-3.119-1.119","6kvhxeu8tkahahy",728,"179.csv","","null","resources/maskTrios/L1BB.jpg","null","",NA,NA,NA,NA,""
"image-keyboard-response",370,299360,"0.0-3.119-2.119","6kvhxeu8tkahahy",728,"179.csv","","null","resources/images/fishbone.png","null","",NA,NA,NA,NA,""
"image-keyboard-response",371,299591,"0.0-3.120-0.120","6kvhxeu8tkahahy",728,"179.csv","","229.9000000357628","resources/trios/L1T4A1.jpg","39","restless",0.6,0.7,0.7,0.890463047885185,"false"
"image-keyboard-response",372,299995,"0.0-3.120-1.120","6kvhxeu8tkahahy",728,"179.csv","","null","resources/maskTrios/BBA1.jpg","null","",NA,NA,NA,NA,""
"image-keyboard-response",373,301207,"0.0-3.120-2.120","6kvhxeu8tkahahy",728,"179.csv","","null","resources/images/fishbone.png","null","",NA,NA,NA,NA,""
"image-keyboard-response",374,301405,"0.0-3.121-0.121","6kvhxeu8tkahahy",728,"179.csv","","196.5","resources/trios/L1T4A2.jpg","38","restless",0.6,0.7,0.7,0.582724148719972,"true"
"image-keyboard-response",375,301825,"0.0-3.121-1.121","6kvhxeu8tkahahy",728,"179.csv","","null","resources/maskTrios/BT4B.jpg","null","",NA,NA,NA,NA,""
"image-keyboard-response",376,303038,"0.0-3.121-2.121","6kvhxeu8tkahahy",728,"179.csv","","null","resources/images/coin2.png","null","",NA,NA,NA,NA,""
"image-keyboard-response",377,303255,"0.0-3.122-0.122","6kvhxeu8tkahahy",728,"179.csv","","215.29999995231628","resources/trios/L1T4A2.jpg","39","restless",0.6,0.7,0.7,0.495497819096197,"true"
"image-keyboard-response",378,303674,"0.0-3.122-1.122","6kvhxeu8tkahahy",728,"179.csv","","null","resources/maskTrios/BBA2.jpg","null","",NA,NA,NA,NA,""
"image-keyboard-response",379,304886,"0.0-3.122-2.122","6kvhxeu8tkahahy",728,"179.csv","","null","resources/images/coin2.png","null","",NA,NA,NA,NA,""
"image-keyboard-response",380,305013,"0.0-3.123-0.123","6kvhxeu8tkahahy",728,"179.csv","","124.70000004768372","resources/trios/L1T4A2.jpg","37","restless",0.6,0.7,0.7,0.886940420666338,"false"
"image-keyboard-response",381,305423,"0.0-3.123-1.123","6kvhxeu8tkahahy",728,"179.csv","","null","resources/maskTrios/L1BB.jpg","null","",NA,NA,NA,NA,""
"image-keyboard-response",382,306636,"0.0-3.123-2.123","6kvhxeu8tkahahy",728,"179.csv","","null","resources/images/fishbone.png","null","",NA,NA,NA,NA,""
"image-keyboard-response",383,306661,"0.0-3.124-0.124","6kvhxeu8tkahahy",728,"179.csv","","23.30000001192093","resources/trios/L4T1A1.jpg","37","restless",0.6,0.7,0.7,0.879710302810121,"false"
"image-keyboard-response",384,307073,"0.0-3.124-1.124","6kvhxeu8tkahahy",728,"179.csv","","null","resources/maskTrios/L4BB.jpg","null","",NA,NA,NA,NA,""
"image-keyboard-response",385,308285,"0.0-3.124-2.124","6kvhxeu8tkahahy",728,"179.csv","","null","resources/images/fishbone.png","null","",NA,NA,NA,NA,""
"image-keyboard-response",386,308532,"0.0-3.125-0.125","6kvhxeu8tkahahy",728,"179.csv","","245","resources/trios/L4T4A1.jpg","38","restless",0.6,0.7,0.7,0.140790281515974,"true"
"image-keyboard-response",387,308951,"0.0-3.125-1.125","6kvhxeu8tkahahy",728,"179.csv","","null","resources/maskTrios/BT4B.jpg","null","",NA,NA,NA,NA,""
"image-keyboard-response",388,310164,"0.0-3.125-2.125","6kvhxeu8tkahahy",728,"179.csv","","null","resources/images/coin2.png","null","",NA,NA,NA,NA,""
"image-keyboard-response",389,310220,"0.0-3.126-0.126","6kvhxeu8tkahahy",728,"179.csv","","53.89999997615814","resources/trios/L4T4A1.jpg","39","restless",0.6,0.7,0.7,0.941446589716283,"false"
"image-keyboard-response",390,310637,"0.0-3.126-1.126","6kvhxeu8tkahahy",728,"179.csv","","null","resources/maskTrios/BBA1.jpg","null","",NA,NA,NA,NA,""
"image-keyboard-response",391,311845,"0.0-3.126-2.126","6kvhxeu8tkahahy",728,"179.csv","","null","resources/images/fishbone.png","null","",NA,NA,NA,NA,""
"image-keyboard-response",392,312002,"0.0-3.127-0.127","6kvhxeu8tkahahy",728,"179.csv","","156.39999997615814","resources/trios/L4T4A1.jpg","37","restless",0.6,0.7,0.7,0.5514114887886,"true"
"image-keyboard-response",393,312417,"0.0-3.127-1.127","6kvhxeu8tkahahy",728,"179.csv","","null","resources/maskTrios/L4BB.jpg","null","",NA,NA,NA,NA,""
"image-keyboard-response",394,313630,"0.0-3.127-2.127","6kvhxeu8tkahahy",728,"179.csv","","null","resources/images/coin2.png","null","",NA,NA,NA,NA,""
"image-keyboard-response",395,313863,"0.0-3.128-0.128","6kvhxeu8tkahahy",728,"179.csv","","231.80000001192093","resources/trios/L4T4A2.jpg","38","restless",0.6,0.7,0.7,0.725195013252454,"false"
"image-keyboard-response",396,314280,"0.0-3.128-1.128","6kvhxeu8tkahahy",728,"179.csv","","null","resources/maskTrios/BT4B.jpg","null","",NA,NA,NA,NA,""
"image-keyboard-response",397,315493,"0.0-3.128-2.128","6kvhxeu8tkahahy",728,"179.csv","","null","resources/images/fishbone.png","null","",NA,NA,NA,NA,""
"image-keyboard-response",398,315587,"0.0-3.129-0.129","6kvhxeu8tkahahy",728,"179.csv","","92.5","resources/trios/L1T4A2.jpg","39","restless",0.6,0.7,0.7,0.673725973818584,"true"
"image-keyboard-response",399,315996,"0.0-3.129-1.129","6kvhxeu8tkahahy",728,"179.csv","","null","resources/maskTrios/BBA2.jpg","null","",NA,NA,NA,NA,""
"image-keyboard-response",400,317215,"0.0-3.129-2.129","6kvhxeu8tkahahy",728,"179.csv","","null","resources/images/coin2.png","null","",NA,NA,NA,NA,""
"image-keyboard-response",401,342910,"0.0-3.130-0.130","6kvhxeu8tkahahy",728,"179.csv","","25693.400000035763","resources/trios/L4T1A1.jpg","38","restless",0.6,0.7,0.7,0.15962463225017,"true"
"image-keyboard-response",402,343319,"0.0-3.130-1.130","6kvhxeu8tkahahy",728,"179.csv","","null","resources/maskTrios/BT1B.jpg","null","",NA,NA,NA,NA,""
"image-keyboard-response",403,344532,"0.0-3.130-2.130","6kvhxeu8tkahahy",728,"179.csv","","null","resources/images/coin2.png","null","",NA,NA,NA,NA,""
"image-keyboard-response",404,346868,"0.0-3.131-0.131","6kvhxeu8tkahahy",728,"179.csv","","2334.800000011921","resources/trios/L4T1A2.jpg","37","restless",0.6,0.7,0.7,0.336976843680918,"true"
"image-keyboard-response",405,347283,"0.0-3.131-1.131","6kvhxeu8tkahahy",728,"179.csv","","null","resources/maskTrios/L4BB.jpg","null","",NA,NA,NA,NA,""
"image-keyboard-response",406,348496,"0.0-3.131-2.131","6kvhxeu8tkahahy",728,"179.csv","","null","resources/images/coin2.png","null","",NA,NA,NA,NA,""
"image-keyboard-response",407,348653,"0.0-3.132-0.132","6kvhxeu8tkahahy",728,"179.csv","","155.5","resources/trios/L4T4A2.jpg","38","restless",0.6,0.6,0.6,0.754256975025455,"false"
"image-keyboard-response",408,349064,"0.0-3.132-1.132","6kvhxeu8tkahahy",728,"179.csv","","null","resources/maskTrios/BT4B.jpg","null","",NA,NA,NA,NA,""
"image-keyboard-response",409,350276,"0.0-3.132-2.132","6kvhxeu8tkahahy",728,"179.csv","","null","resources/images/fishbone.png","null","",NA,NA,NA,NA,""
"image-keyboard-response",410,350449,"0.0-3.133-0.133","6kvhxeu8tkahahy",728,"179.csv","","170.60000002384186","resources/trios/L4T1A2.jpg","37","restless",0.6,0.6,0.6,0.0288328053462807,"true"
"image-keyboard-response",411,350863,"0.0-3.133-1.133","6kvhxeu8tkahahy",728,"179.csv","","null","resources/maskTrios/L4BB.jpg","null","",NA,NA,NA,NA,""
"image-keyboard-response",412,352076,"0.0-3.133-2.133","6kvhxeu8tkahahy",728,"179.csv","","null","resources/images/coin2.png","null","",NA,NA,NA,NA,""
"image-keyboard-response",413,352839,"0.0-3.134-0.134","6kvhxeu8tkahahy",728,"179.csv","","762","resources/trios/L1T1A1.jpg","38","restless",0.6,0.6,0.6,0.417079214704093,"true"
"image-keyboard-response",414,353244,"0.0-3.134-1.134","6kvhxeu8tkahahy",728,"179.csv","","null","resources/maskTrios/BT1B.jpg","null","",NA,NA,NA,NA,""
"image-keyboard-response",415,354456,"0.0-3.134-2.134","6kvhxeu8tkahahy",728,"179.csv","","null","resources/images/coin2.png","null","",NA,NA,NA,NA,""
"image-keyboard-response",416,356435,"0.0-3.135-0.135","6kvhxeu8tkahahy",728,"179.csv","","1985.0999999642372","resources/trios/L4T1A2.jpg","38","restless",0.6,0.6,0.6,0.456803652979545,"true"
"image-keyboard-response",417,356850,"0.0-3.135-1.135","6kvhxeu8tkahahy",728,"179.csv","","null","resources/maskTrios/BT1B.jpg","null","",NA,NA,NA,NA,""
"image-keyboard-response",418,358056,"0.0-3.135-2.135","6kvhxeu8tkahahy",728,"179.csv","","null","resources/images/coin2.png","null","",NA,NA,NA,NA,""
"image-keyboard-response",419,358384,"0.0-3.136-0.136","6kvhxeu8tkahahy",728,"179.csv","","325.89999997615814","resources/trios/L4T4A2.jpg","39","restless",0.5,0.6,0.6,0.170687412000621,"true"
"image-keyboard-response",420,358797,"0.0-3.136-1.136","6kvhxeu8tkahahy",728,"179.csv","","null","resources/maskTrios/BBA2.jpg","null","",NA,NA,NA,NA,""
"image-keyboard-response",421,360010,"0.0-3.136-2.136","6kvhxeu8tkahahy",728,"179.csv","","null","resources/images/coin2.png","null","",NA,NA,NA,NA,""
"image-keyboard-response",422,360256,"0.0-3.137-0.137","6kvhxeu8tkahahy",728,"179.csv","","244.29999995231628","resources/trios/L4T4A1.jpg","37","restless",0.5,0.6,0.6,0.601413130920104,"false"
"image-keyboard-response",423,360664,"0.0-3.137-1.137","6kvhxeu8tkahahy",728,"179.csv","","null","resources/maskTrios/L4BB.jpg","null","",NA,NA,NA,NA,""
"image-keyboard-response",424,361876,"0.0-3.137-2.137","6kvhxeu8tkahahy",728,"179.csv","","null","resources/images/fishbone.png","null","",NA,NA,NA,NA,""
"image-keyboard-response",425,362270,"0.0-3.138-0.138","6kvhxeu8tkahahy",728,"179.csv","","392.5","resources/trios/L4T1A1.jpg","39","restless",0.5,0.6,0.6,0.778938140271527,"false"
"image-keyboard-response",426,362678,"0.0-3.138-1.138","6kvhxeu8tkahahy",728,"179.csv","","null","resources/maskTrios/BBA1.jpg","null","",NA,NA,NA,NA,""
"image-keyboard-response",427,363891,"0.0-3.138-2.138","6kvhxeu8tkahahy",728,"179.csv","","null","resources/images/fishbone.png","null","",NA,NA,NA,NA,""
"image-keyboard-response",428,364357,"0.0-3.139-0.139","6kvhxeu8tkahahy",728,"179.csv","","464.5","resources/trios/L4T1A1.jpg","38","restless",0.5,0.5,0.6,0.13033330939306,"true"
"image-keyboard-response",429,364772,"0.0-3.139-1.139","6kvhxeu8tkahahy",728,"179.csv","","null","resources/maskTrios/BT1B.jpg","null","",NA,NA,NA,NA,""
"image-keyboard-response",430,365986,"0.0-3.139-2.139","6kvhxeu8tkahahy",728,"179.csv","","null","resources/images/coin2.png","null","",NA,NA,NA,NA,""
"image-keyboard-response",431,366211,"0.0-3.140-0.140","6kvhxeu8tkahahy",728,"179.csv","","222.5","resources/trios/L1T1A2.jpg","38","restless",0.5,0.5,0.6,0.865764824058004,"false"
"image-keyboard-response",432,366623,"0.0-3.140-1.140","6kvhxeu8tkahahy",728,"179.csv","","null","resources/maskTrios/BT1B.jpg","null","",NA,NA,NA,NA,""
"image-keyboard-response",433,367836,"0.0-3.140-2.140","6kvhxeu8tkahahy",728,"179.csv","","null","resources/images/fishbone.png","null","",NA,NA,NA,NA,""
"image-keyboard-response",434,368044,"0.0-3.141-0.141","6kvhxeu8tkahahy",728,"179.csv","","206.69999998807907","resources/trios/L1T4A2.jpg","37","restless",0.5,0.5,0.6,0.423341829790284,"true"
"image-keyboard-response",435,368456,"0.0-3.141-1.141","6kvhxeu8tkahahy",728,"179.csv","","null","resources/maskTrios/L1BB.jpg","null","",NA,NA,NA,NA,""
"image-keyboard-response",436,369668,"0.0-3.141-2.141","6kvhxeu8tkahahy",728,"179.csv","","null","resources/images/coin2.png","null","",NA,NA,NA,NA,""
"image-keyboard-response",437,369713,"0.0-3.142-0.142","6kvhxeu8tkahahy",728,"179.csv","","43","resources/trios/L4T1A1.jpg","39","restless",0.5,0.5,0.6,0.138659556691678,"true"
"image-keyboard-response",438,370121,"0.0-3.142-1.142","6kvhxeu8tkahahy",728,"179.csv","","null","resources/maskTrios/BBA1.jpg","null","",NA,NA,NA,NA,""
"image-keyboard-response",439,371334,"0.0-3.142-2.142","6kvhxeu8tkahahy",728,"179.csv","","null","resources/images/coin2.png","null","",NA,NA,NA,NA,""
"image-keyboard-response",440,371565,"0.0-3.143-0.143","6kvhxeu8tkahahy",728,"179.csv","","228.30000001192093","resources/trios/L4T1A1.jpg","39","restless",0.5,0.5,0.6,0.0526147817595708,"true"
"image-keyboard-response",441,371974,"0.0-3.143-1.143","6kvhxeu8tkahahy",728,"179.csv","","null","resources/maskTrios/BBA1.jpg","null","",NA,NA,NA,NA,""
"image-keyboard-response",442,373193,"0.0-3.143-2.143","6kvhxeu8tkahahy",728,"179.csv","","null","resources/images/coin2.png","null","",NA,NA,NA,NA,""
"image-keyboard-response",443,373486,"0.0-3.144-0.144","6kvhxeu8tkahahy",728,"179.csv","","291.19999998807907","resources/trios/L4T1A2.jpg","38","restless",0.5,0.5,0.6,0.358400654047992,"true"
"image-keyboard-response",444,373900,"0.0-3.144-1.144","6kvhxeu8tkahahy",728,"179.csv","","null","resources/maskTrios/BT1B.jpg","null","",NA,NA,NA,NA,""
"image-keyboard-response",445,375113,"0.0-3.144-2.144","6kvhxeu8tkahahy",728,"179.csv","","null","resources/images/coin2.png","null","",NA,NA,NA,NA,""
"image-keyboard-response",446,375332,"0.0-3.145-0.145","6kvhxeu8tkahahy",728,"179.csv","","217.30000001192093","resources/trios/L4T4A2.jpg","37","restless",0.5,0.4,0.6,0.363572900544212,"true"
"image-keyboard-response",447,375748,"0.0-3.145-1.145","6kvhxeu8tkahahy",728,"179.csv","","null","resources/maskTrios/L4BB.jpg","null","",NA,NA,NA,NA,""
"image-keyboard-response",448,376961,"0.0-3.145-2.145","6kvhxeu8tkahahy",728,"179.csv","","null","resources/images/coin2.png","null","",NA,NA,NA,NA,""
"image-keyboard-response",449,377147,"0.0-3.146-0.146","6kvhxeu8tkahahy",728,"179.csv","","184.80000001192093","resources/trios/L4T4A1.jpg","37","restless",0.5,0.4,0.6,0.387164065096571,"true"
"image-keyboard-response",450,377563,"0.0-3.146-1.146","6kvhxeu8tkahahy",728,"179.csv","","null","resources/maskTrios/L4BB.jpg","null","",NA,NA,NA,NA,""
"image-keyboard-response",451,378776,"0.0-3.146-2.146","6kvhxeu8tkahahy",728,"179.csv","","null","resources/images/coin2.png","null","",NA,NA,NA,NA,""
"image-keyboard-response",452,378921,"0.0-3.147-0.147","6kvhxeu8tkahahy",728,"179.csv","","142.69999998807907","resources/trios/L1T1A2.jpg","39","restless",0.5,0.5,0.6,0.232326395056309,"true"
"image-keyboard-response",453,379327,"0.0-3.147-1.147","6kvhxeu8tkahahy",728,"179.csv","","null","resources/maskTrios/BBA2.jpg","null","",NA,NA,NA,NA,""
"image-keyboard-response",454,380540,"0.0-3.147-2.147","6kvhxeu8tkahahy",728,"179.csv","","null","resources/images/coin2.png","null","",NA,NA,NA,NA,""
"image-keyboard-response",455,381327,"0.0-3.148-0.148","6kvhxeu8tkahahy",728,"179.csv","","785.5","resources/trios/L4T4A1.jpg","37","restless",0.5,0.5,0.6,0.634644245431681,"false"
"image-keyboard-response",456,381743,"0.0-3.148-1.148","6kvhxeu8tkahahy",728,"179.csv","","null","resources/maskTrios/L4BB.jpg","null","",NA,NA,NA,NA,""
"image-keyboard-response",457,382955,"0.0-3.148-2.148","6kvhxeu8tkahahy",728,"179.csv","","null","resources/images/fishbone.png","null","",NA,NA,NA,NA,""
"image-keyboard-response",458,382957,"0.0-3.149-0.149","6kvhxeu8tkahahy",728,"179.csv","","0.19999998807907104","resources/trios/L4T1A2.jpg","39","restless",0.5,0.4,0.6,0.495719680161577,"true"
"image-keyboard-response",459,383373,"0.0-3.149-1.149","6kvhxeu8tkahahy",728,"179.csv","","null","resources/maskTrios/BBA2.jpg","null","",NA,NA,NA,NA,""
"image-keyboard-response",460,384586,"0.0-3.149-2.149","6kvhxeu8tkahahy",728,"179.csv","","null","resources/images/coin2.png","null","",NA,NA,NA,NA,""
"image-keyboard-response",461,384706,"0.0-3.150-0.150","6kvhxeu8tkahahy",728,"179.csv","","118.80000001192093","resources/trios/L1T1A1.jpg","39","restless",0.5,0.4,0.6,0.730792841506711,"false"
"image-keyboard-response",462,385123,"0.0-3.150-1.150","6kvhxeu8tkahahy",728,"179.csv","","null","resources/maskTrios/BBA1.jpg","null","",NA,NA,NA,NA,""
"image-keyboard-response",463,386335,"0.0-3.150-2.150","6kvhxeu8tkahahy",728,"179.csv","","null","resources/images/fishbone.png","null","",NA,NA,NA,NA,""
"image-keyboard-response",464,386549,"0.0-3.151-0.151","6kvhxeu8tkahahy",728,"179.csv","","212.4000000357628","resources/trios/L4T1A2.jpg","38","restless",0.5,0.4,0.6,0.811316692535234,"false"
"image-keyboard-response",465,386969,"0.0-3.151-1.151","6kvhxeu8tkahahy",728,"179.csv","","null","resources/maskTrios/BT1B.jpg","null","",NA,NA,NA,NA,""
"image-keyboard-response",466,388181,"0.0-3.151-2.151","6kvhxeu8tkahahy",728,"179.csv","","null","resources/images/fishbone.png","null","",NA,NA,NA,NA,""
"image-keyboard-response",467,388272,"0.0-3.152-0.152","6kvhxeu8tkahahy",728,"179.csv","","89.5","resources/trios/L4T1A2.jpg","38","restless",0.5,0.4,0.5,0.809776523576812,"false"
"image-keyboard-response",468,388684,"0.0-3.152-1.152","6kvhxeu8tkahahy",728,"179.csv","","null","resources/maskTrios/BT1B.jpg","null","",NA,NA,NA,NA,""
"image-keyboard-response",469,389897,"0.0-3.152-2.152","6kvhxeu8tkahahy",728,"179.csv","","null","resources/images/fishbone.png","null","",NA,NA,NA,NA,""
"image-keyboard-response",470,390150,"0.0-3.153-0.153","6kvhxeu8tkahahy",728,"179.csv","","251.69999998807907","resources/trios/L1T4A2.jpg","38","restless",0.5,0.4,0.5,0.990563896226132,"false"
"image-keyboard-response",471,390567,"0.0-3.153-1.153","6kvhxeu8tkahahy",728,"179.csv","","null","resources/maskTrios/BT4B.jpg","null","",NA,NA,NA,NA,""
"image-keyboard-response",472,391780,"0.0-3.153-2.153","6kvhxeu8tkahahy",728,"179.csv","","null","resources/images/fishbone.png","null","",NA,NA,NA,NA,""
"image-keyboard-response",473,391842,"0.0-3.154-0.154","6kvhxeu8tkahahy",728,"179.csv","","60.90000003576279","resources/trios/L4T4A2.jpg","37","restless",0.5,0.4,0.5,0.0641282193358235,"true"
"image-keyboard-response",474,392267,"0.0-3.154-1.154","6kvhxeu8tkahahy",728,"179.csv","","null","resources/maskTrios/L4BB.jpg","null","",NA,NA,NA,NA,""
"image-keyboard-response",475,393479,"0.0-3.154-2.154","6kvhxeu8tkahahy",728,"179.csv","","null","resources/images/coin2.png","null","",NA,NA,NA,NA,""
"image-keyboard-response",476,393535,"0.0-3.155-0.155","6kvhxeu8tkahahy",728,"179.csv","","54.10000002384186","resources/trios/L1T4A2.jpg","39","restless",0.5,0.4,0.5,0.434898428737672,"true"
"image-keyboard-response",477,393952,"0.0-3.155-1.155","6kvhxeu8tkahahy",728,"179.csv","","null","resources/maskTrios/BBA2.jpg","null","",NA,NA,NA,NA,""
"image-keyboard-response",478,395159,"0.0-3.155-2.155","6kvhxeu8tkahahy",728,"179.csv","","null","resources/images/coin2.png","null","",NA,NA,NA,NA,""
"image-keyboard-response",479,395354,"0.0-3.156-0.156","6kvhxeu8tkahahy",728,"179.csv","","193.69999998807907","resources/trios/L1T1A2.jpg","38","restless",0.5,0.4,0.5,0.178785449441511,"true"
"image-keyboard-response",480,395778,"0.0-3.156-1.156","6kvhxeu8tkahahy",728,"179.csv","","null","resources/maskTrios/BT1B.jpg","null","",NA,NA,NA,NA,""
"image-keyboard-response",481,396990,"0.0-3.156-2.156","6kvhxeu8tkahahy",728,"179.csv","","null","resources/images/coin2.png","null","",NA,NA,NA,NA,""
"image-keyboard-response",482,397378,"0.0-3.157-0.157","6kvhxeu8tkahahy",728,"179.csv","","386.89999997615814","resources/trios/L1T4A2.jpg","37","restless",0.5,0.4,0.5,0.231600889499723,"true"
"image-keyboard-response",483,397793,"0.0-3.157-1.157","6kvhxeu8tkahahy",728,"179.csv","","null","resources/maskTrios/L1BB.jpg","null","",NA,NA,NA,NA,""
"image-keyboard-response",484,399006,"0.0-3.157-2.157","6kvhxeu8tkahahy",728,"179.csv","","null","resources/images/coin2.png","null","",NA,NA,NA,NA,""
"image-keyboard-response",485,399143,"0.0-3.158-0.158","6kvhxeu8tkahahy",728,"179.csv","","134.9000000357628","resources/trios/L4T1A2.jpg","39","restless",0.5,0.4,0.4,0.0308377739948633,"true"
"image-keyboard-response",486,399559,"0.0-3.158-1.158","6kvhxeu8tkahahy",728,"179.csv","","null","resources/maskTrios/BBA2.jpg","null","",NA,NA,NA,NA,""
"image-keyboard-response",487,400771,"0.0-3.158-2.158","6kvhxeu8tkahahy",728,"179.csv","","null","resources/images/coin2.png","null","",NA,NA,NA,NA,""
"image-keyboard-response",488,401039,"0.0-3.159-0.159","6kvhxeu8tkahahy",728,"179.csv","","266.0999999642372","resources/trios/L1T4A1.jpg","39","restless",0.4,0.4,0.4,0.179661285864896,"true"
"image-keyboard-response",489,401444,"0.0-3.159-1.159","6kvhxeu8tkahahy",728,"179.csv","","null","resources/maskTrios/BBA1.jpg","null","",NA,NA,NA,NA,""
"image-keyboard-response",490,402652,"0.0-3.159-2.159","6kvhxeu8tkahahy",728,"179.csv","","null","resources/images/coin2.png","null","",NA,NA,NA,NA,""
"image-keyboard-response",491,402725,"0.0-3.160-0.160","6kvhxeu8tkahahy",728,"179.csv","","69.80000001192093","resources/trios/L4T4A2.jpg","38","restless",0.4,0.4,0.4,0.380339840577336,"true"
"image-keyboard-response",492,403142,"0.0-3.160-1.160","6kvhxeu8tkahahy",728,"179.csv","","null","resources/maskTrios/BT4B.jpg","null","",NA,NA,NA,NA,""
"image-keyboard-response",493,404350,"0.0-3.160-2.160","6kvhxeu8tkahahy",728,"179.csv","","null","resources/images/coin2.png","null","",NA,NA,NA,NA,""
"image-keyboard-response",494,404612,"0.0-3.161-0.161","6kvhxeu8tkahahy",728,"179.csv","","260.2999999523163","resources/trios/L1T1A1.jpg","37","restless",0.4,0.4,0.4,0.651960094055256,"false"
"image-keyboard-response",495,405020,"0.0-3.161-1.161","6kvhxeu8tkahahy",728,"179.csv","","null","resources/maskTrios/L1BB.jpg","null","",NA,NA,NA,NA,""
"image-keyboard-response",496,406232,"0.0-3.161-2.161","6kvhxeu8tkahahy",728,"179.csv","","null","resources/images/fishbone.png","null","",NA,NA,NA,NA,""
"image-keyboard-response",497,406678,"0.0-3.162-0.162","6kvhxeu8tkahahy",728,"179.csv","","443.69999998807907","resources/trios/L4T4A2.jpg","39","restless",0.4,0.4,0.4,0.658393682938998,"false"
"image-keyboard-response",498,407086,"0.0-3.162-1.162","6kvhxeu8tkahahy",728,"179.csv","","null","resources/maskTrios/BBA2.jpg","null","",NA,NA,NA,NA,""
"image-keyboard-response",499,408299,"0.0-3.162-2.162","6kvhxeu8tkahahy",728,"179.csv","","null","resources/images/fishbone.png","null","",NA,NA,NA,NA,""
"image-keyboard-response",500,409149,"0.0-3.163-0.163","6kvhxeu8tkahahy",728,"179.csv","","848.2999999523163","resources/trios/L4T1A1.jpg","39","restless",0.4,0.4,0.5,0.516888960821252,"false"
"image-keyboard-response",501,409565,"0.0-3.163-1.163","6kvhxeu8tkahahy",728,"179.csv","","null","resources/maskTrios/BBA1.jpg","null","",NA,NA,NA,NA,""
"image-keyboard-response",502,410778,"0.0-3.163-2.163","6kvhxeu8tkahahy",728,"179.csv","","null","resources/images/fishbone.png","null","",NA,NA,NA,NA,""
"image-keyboard-response",503,411368,"0.0-3.164-0.164","6kvhxeu8tkahahy",728,"179.csv","","588.0999999642372","resources/trios/L1T1A1.jpg","39","restless",0.4,0.4,0.5,0.469438625898056,"true"
"image-keyboard-response",504,411785,"0.0-3.164-1.164","6kvhxeu8tkahahy",728,"179.csv","","null","resources/maskTrios/BBA1.jpg","null","",NA,NA,NA,NA,""
"image-keyboard-response",505,412988,"0.0-3.164-2.164","6kvhxeu8tkahahy",728,"179.csv","","null","resources/images/coin2.png","null","",NA,NA,NA,NA,""
"image-keyboard-response",506,415470,"0.0-3.165-0.165","6kvhxeu8tkahahy",728,"179.csv","","2480.699999988079","resources/trios/L4T4A2.jpg","39","restless",0.3,0.4,0.5,0.203433011513535,"true"
"image-keyboard-response",507,415879,"0.0-3.165-1.165","6kvhxeu8tkahahy",728,"179.csv","","null","resources/maskTrios/BBA2.jpg","null","",NA,NA,NA,NA,""
"image-keyboard-response",508,417099,"0.0-3.165-2.165","6kvhxeu8tkahahy",728,"179.csv","","null","resources/images/coin2.png","null","",NA,NA,NA,NA,""
"image-keyboard-response",509,417109,"0.0-3.166-0.166","6kvhxeu8tkahahy",728,"179.csv","","8.400000035762787","resources/trios/L4T4A1.jpg","39","restless",0.3,0.4,0.5,0.598783971238463,"false"
"image-keyboard-response",510,417515,"0.0-3.166-1.166","6kvhxeu8tkahahy",728,"179.csv","","null","resources/maskTrios/BBA1.jpg","null","",NA,NA,NA,NA,""
"image-keyboard-response",511,418723,"0.0-3.166-2.166","6kvhxeu8tkahahy",728,"179.csv","","null","resources/images/fishbone.png","null","",NA,NA,NA,NA,""
"image-keyboard-response",512,418818,"0.0-3.167-0.167","6kvhxeu8tkahahy",728,"179.csv","","93.29999995231628","resources/trios/L1T4A2.jpg","39","restless",0.3,0.4,0.6,0.346176719986482,"true"
"image-keyboard-response",513,419234,"0.0-3.167-1.167","6kvhxeu8tkahahy",728,"179.csv","","null","resources/maskTrios/BBA2.jpg","null","",NA,NA,NA,NA,""
"image-keyboard-response",514,420436,"0.0-3.167-2.167","6kvhxeu8tkahahy",728,"179.csv","","null","resources/images/coin2.png","null","",NA,NA,NA,NA,""
"image-keyboard-response",515,420541,"0.0-3.168-0.168","6kvhxeu8tkahahy",728,"179.csv","","103","resources/trios/L1T1A1.jpg","39","restless",0.3,0.4,0.6,0.938333730880571,"false"
"image-keyboard-response",516,420950,"0.0-3.168-1.168","6kvhxeu8tkahahy",728,"179.csv","","null","resources/maskTrios/BBA1.jpg","null","",NA,NA,NA,NA,""
"image-keyboard-response",517,422157,"0.0-3.168-2.168","6kvhxeu8tkahahy",728,"179.csv","","null","resources/images/fishbone.png","null","",NA,NA,NA,NA,""
"image-keyboard-response",518,422520,"0.0-3.169-0.169","6kvhxeu8tkahahy",728,"179.csv","","360.7999999523163","resources/trios/L1T4A1.jpg","37","restless",0.3,0.4,0.6,0.916386394061675,"false"
"image-keyboard-response",519,422930,"0.0-3.169-1.169","6kvhxeu8tkahahy",728,"179.csv","","null","resources/maskTrios/L1BB.jpg","null","",NA,NA,NA,NA,""
"image-keyboard-response",520,424150,"0.0-3.169-2.169","6kvhxeu8tkahahy",728,"179.csv","","null","resources/images/fishbone.png","null","",NA,NA,NA,NA,""
"image-keyboard-response",521,424748,"0.0-3.170-0.170","6kvhxeu8tkahahy",728,"179.csv","","596.1999999880791","resources/trios/L1T1A2.jpg","38","restless",0.3,0.4,0.6,0.186991990464445,"true"
"image-keyboard-response",522,425163,"0.0-3.170-1.170","6kvhxeu8tkahahy",728,"179.csv","","null","resources/maskTrios/BT1B.jpg","null","",NA,NA,NA,NA,""
"image-keyboard-response",523,426382,"0.0-3.170-2.170","6kvhxeu8tkahahy",728,"179.csv","","null","resources/images/coin2.png","null","",NA,NA,NA,NA,""
"image-keyboard-response",524,426711,"0.0-3.171-0.171","6kvhxeu8tkahahy",728,"179.csv","","325.89999997615814","resources/trios/L4T4A1.jpg","39","restless",0.3,0.4,0.6,0.326553322349363,"true"
"image-keyboard-response",525,427118,"0.0-3.171-1.171","6kvhxeu8tkahahy",728,"179.csv","","null","resources/maskTrios/BBA1.jpg","null","",NA,NA,NA,NA,""
"image-keyboard-response",526,428329,"0.0-3.171-2.171","6kvhxeu8tkahahy",728,"179.csv","","null","resources/images/coin2.png","null","",NA,NA,NA,NA,""
"image-keyboard-response",527,428633,"0.0-3.172-0.172","6kvhxeu8tkahahy",728,"179.csv","","301.80000001192093","resources/trios/L1T4A2.jpg","37","restless",0.3,0.4,0.6,0.59936020453752,"false"
"image-keyboard-response",528,429050,"0.0-3.172-1.172","6kvhxeu8tkahahy",728,"179.csv","","null","resources/maskTrios/L1BB.jpg","null","",NA,NA,NA,NA,""
"image-keyboard-response",529,430261,"0.0-3.172-2.172","6kvhxeu8tkahahy",728,"179.csv","","null","resources/images/fishbone.png","null","",NA,NA,NA,NA,""
"image-keyboard-response",530,430634,"0.0-3.173-0.173","6kvhxeu8tkahahy",728,"179.csv","","371.5","resources/trios/L1T1A2.jpg","38","restless",0.3,0.4,0.6,0.669221926902232,"false"
"image-keyboard-response",531,431047,"0.0-3.173-1.173","6kvhxeu8tkahahy",728,"179.csv","","null","resources/maskTrios/BT1B.jpg","null","",NA,NA,NA,NA,""
"image-keyboard-response",532,432264,"0.0-3.173-2.173","6kvhxeu8tkahahy",728,"179.csv","","null","resources/images/fishbone.png","null","",NA,NA,NA,NA,""
"image-keyboard-response",533,432284,"0.0-3.174-0.174","6kvhxeu8tkahahy",728,"179.csv","","18.30000001192093","resources/trios/L1T4A2.jpg","39","restless",0.3,0.4,0.6,0.256162272832727,"true"
"image-keyboard-response",534,432703,"0.0-3.174-1.174","6kvhxeu8tkahahy",728,"179.csv","","null","resources/maskTrios/BBA2.jpg","null","",NA,NA,NA,NA,""
"image-keyboard-response",535,433909,"0.0-3.174-2.174","6kvhxeu8tkahahy",728,"179.csv","","null","resources/images/coin2.png","null","",NA,NA,NA,NA,""
"image-keyboard-response",536,435050,"0.0-3.175-0.175","6kvhxeu8tkahahy",728,"179.csv","","1139.5","resources/trios/L4T4A2.jpg","37","restless",0.3,0.4,0.6,0.0764287435252724,"true"
"image-keyboard-response",537,435464,"0.0-3.175-1.175","6kvhxeu8tkahahy",728,"179.csv","","null","resources/maskTrios/L4BB.jpg","null","",NA,NA,NA,NA,""
"image-keyboard-response",538,436676,"0.0-3.175-2.175","6kvhxeu8tkahahy",728,"179.csv","","null","resources/images/coin2.png","null","",NA,NA,NA,NA,""
"image-keyboard-response",539,436918,"0.0-3.176-0.176","6kvhxeu8tkahahy",728,"179.csv","","239.19999998807907","resources/trios/L1T4A2.jpg","38","restless",0.3,0.4,0.6,0.4061640979477,"false"
"image-keyboard-response",540,437328,"0.0-3.176-1.176","6kvhxeu8tkahahy",728,"179.csv","","null","resources/maskTrios/BT4B.jpg","null","",NA,NA,NA,NA,""
"image-keyboard-response",541,438540,"0.0-3.176-2.176","6kvhxeu8tkahahy",728,"179.csv","","null","resources/images/fishbone.png","null","",NA,NA,NA,NA,""
"image-keyboard-response",542,438825,"0.0-3.177-0.177","6kvhxeu8tkahahy",728,"179.csv","","283.69999998807907","resources/trios/L1T4A2.jpg","37","restless",0.3,0.5,0.6,0.310955073433604,"false"
"image-keyboard-response",543,439246,"0.0-3.177-1.177","6kvhxeu8tkahahy",728,"179.csv","","null","resources/maskTrios/L1BB.jpg","null","",NA,NA,NA,NA,""
"image-keyboard-response",544,440455,"0.0-3.177-2.177","6kvhxeu8tkahahy",728,"179.csv","","null","resources/images/fishbone.png","null","",NA,NA,NA,NA,""
"image-keyboard-response",545,440721,"0.0-3.178-0.178","6kvhxeu8tkahahy",728,"179.csv","","264.9000000357628","resources/trios/L1T4A2.jpg","39","restless",0.4,0.5,0.6,0.661077969856966,"false"
"image-keyboard-response",546,441137,"0.0-3.178-1.178","6kvhxeu8tkahahy",728,"179.csv","","null","resources/maskTrios/BBA2.jpg","null","",NA,NA,NA,NA,""
"image-keyboard-response",547,442343,"0.0-3.178-2.178","6kvhxeu8tkahahy",728,"179.csv","","null","resources/images/fishbone.png","null","",NA,NA,NA,NA,""
"image-keyboard-response",548,442633,"0.0-3.179-0.179","6kvhxeu8tkahahy",728,"179.csv","","289.39999997615814","resources/trios/L1T4A1.jpg","38","restless",0.4,0.5,0.6,0.856161028653555,"false"
"image-keyboard-response",549,443055,"0.0-3.179-1.179","6kvhxeu8tkahahy",728,"179.csv","","null","resources/maskTrios/BT4B.jpg","null","",NA,NA,NA,NA,""
"image-keyboard-response",550,444267,"0.0-3.179-2.179","6kvhxeu8tkahahy",728,"179.csv","","null","resources/images/fishbone.png","null","",NA,NA,NA,NA,""
"image-keyboard-response",551,444518,"0.0-3.180-0.180","6kvhxeu8tkahahy",728,"179.csv","","249.79999995231628","resources/trios/L4T1A2.jpg","37","restless",0.4,0.5,0.7,0.590276547806898,"false"
"image-keyboard-response",552,444935,"0.0-3.180-1.180","6kvhxeu8tkahahy",728,"179.csv","","null","resources/maskTrios/L4BB.jpg","null","",NA,NA,NA,NA,""
"image-keyboard-response",553,446148,"0.0-3.180-2.180","6kvhxeu8tkahahy",728,"179.csv","","null","resources/images/fishbone.png","null","",NA,NA,NA,NA,""
"image-keyboard-response",554,672871,"0.0-3.181-0.181","6kvhxeu8tkahahy",728,"179.csv","","226729","resources/trios/L1T4A1.jpg","38","restless",0.4,0.6,0.7,0.825653717189062,"false"
"image-keyboard-response",555,673289,"0.0-3.181-1.181","6kvhxeu8tkahahy",728,"179.csv","","null","resources/maskTrios/BT4B.jpg","null","",NA,NA,NA,NA,""
"image-keyboard-response",556,674500,"0.0-3.181-2.181","6kvhxeu8tkahahy",728,"179.csv","","null","resources/images/fishbone.png","null","",NA,NA,NA,NA,""
"image-keyboard-response",557,674766,"0.0-3.182-0.182","6kvhxeu8tkahahy",728,"179.csv","","264.5","resources/trios/L4T1A1.jpg","38","restless",0.4,0.6,0.8,0.974231215173433,"false"
"image-keyboard-response",558,675186,"0.0-3.182-1.182","6kvhxeu8tkahahy",728,"179.csv","","null","resources/maskTrios/BT1B.jpg","null","",NA,NA,NA,NA,""
"image-keyboard-response",559,676399,"0.0-3.182-2.182","6kvhxeu8tkahahy",728,"179.csv","","null","resources/images/fishbone.png","null","",NA,NA,NA,NA,""
"image-keyboard-response",560,676592,"0.0-3.183-0.183","6kvhxeu8tkahahy",728,"179.csv","","189.69999998807907","resources/trios/L1T1A1.jpg","39","restless",0.4,0.6,0.8,0.35502455631815,"true"
"image-keyboard-response",561,677015,"0.0-3.183-1.183","6kvhxeu8tkahahy",728,"179.csv","","null","resources/maskTrios/BBA1.jpg","null","",NA,NA,NA,NA,""
"image-keyboard-response",562,678221,"0.0-3.183-2.183","6kvhxeu8tkahahy",728,"179.csv","","null","resources/images/coin2.png","null","",NA,NA,NA,NA,""
"image-keyboard-response",563,678327,"0.0-3.184-0.184","6kvhxeu8tkahahy",728,"179.csv","","104.10000002384186","resources/trios/L4T4A2.jpg","39","restless",0.4,0.6,0.8,0.831689129533219,"false"
"image-keyboard-response",564,678735,"0.0-3.184-1.184","6kvhxeu8tkahahy",728,"179.csv","","null","resources/maskTrios/BBA2.jpg","null","",NA,NA,NA,NA,""
"image-keyboard-response",565,679948,"0.0-3.184-2.184","6kvhxeu8tkahahy",728,"179.csv","","null","resources/images/fishbone.png","null","",NA,NA,NA,NA,""
"image-keyboard-response",566,679979,"0.0-3.185-0.185","6kvhxeu8tkahahy",728,"179.csv","","30.5","resources/trios/L1T4A2.jpg","37","restless",0.4,0.6,0.8,0.835160147368012,"false"
"image-keyboard-response",567,680398,"0.0-3.185-1.185","6kvhxeu8tkahahy",728,"179.csv","","null","resources/maskTrios/L1BB.jpg","null","",NA,NA,NA,NA,""
"image-keyboard-response",568,681610,"0.0-3.185-2.185","6kvhxeu8tkahahy",728,"179.csv","","null","resources/images/fishbone.png","null","",NA,NA,NA,NA,""
"image-keyboard-response",569,681885,"0.0-3.186-0.186","6kvhxeu8tkahahy",728,"179.csv","","272.80000001192093","resources/trios/L1T4A2.jpg","37","restless",0.4,0.6,0.8,0.539739886395041,"false"
"image-keyboard-response",570,682296,"0.0-3.186-1.186","6kvhxeu8tkahahy",728,"179.csv","","null","resources/maskTrios/L1BB.jpg","null","",NA,NA,NA,NA,""
"image-keyboard-response",571,683509,"0.0-3.186-2.186","6kvhxeu8tkahahy",728,"179.csv","","null","resources/images/fishbone.png","null","",NA,NA,NA,NA,""
"image-keyboard-response",572,683625,"0.0-3.187-0.187","6kvhxeu8tkahahy",728,"179.csv","","115.29999995231628","resources/trios/L4T4A2.jpg","38","restless",0.4,0.6,0.8,0.716679647620881,"false"
"image-keyboard-response",573,684044,"0.0-3.187-1.187","6kvhxeu8tkahahy",728,"179.csv","","null","resources/maskTrios/BT4B.jpg","null","",NA,NA,NA,NA,""
"image-keyboard-response",574,685255,"0.0-3.187-2.187","6kvhxeu8tkahahy",728,"179.csv","","null","resources/images/fishbone.png","null","",NA,NA,NA,NA,""
"image-keyboard-response",575,685260,"0.0-3.188-0.188","6kvhxeu8tkahahy",728,"179.csv","","1.899999976158142","resources/trios/L1T1A1.jpg","39","restless",0.4,0.6,0.8,0.274008825386005,"true"
"image-keyboard-response",576,685676,"0.0-3.188-1.188","6kvhxeu8tkahahy",728,"179.csv","","null","resources/maskTrios/BBA1.jpg","null","",NA,NA,NA,NA,""
"image-keyboard-response",577,686889,"0.0-3.188-2.188","6kvhxeu8tkahahy",728,"179.csv","","null","resources/images/coin2.png","null","",NA,NA,NA,NA,""
"image-keyboard-response",578,687190,"0.0-3.189-0.189","6kvhxeu8tkahahy",728,"179.csv","","299.10000002384186","resources/trios/L1T4A2.jpg","37","restless",0.4,0.6,0.8,0.3641774734924,"true"
"image-keyboard-response",579,687606,"0.0-3.189-1.189","6kvhxeu8tkahahy",728,"179.csv","","null","resources/maskTrios/L1BB.jpg","null","",NA,NA,NA,NA,""
"image-keyboard-response",580,688820,"0.0-3.189-2.189","6kvhxeu8tkahahy",728,"179.csv","","null","resources/images/coin2.png","null","",NA,NA,NA,NA,""
"image-keyboard-response",581,688977,"0.0-3.190-0.190","6kvhxeu8tkahahy",728,"179.csv","","155.39999997615814","resources/trios/L4T1A1.jpg","37","restless",0.4,0.6,0.8,0.63251865106646,"false"
"image-keyboard-response",582,689391,"0.0-3.190-1.190","6kvhxeu8tkahahy",728,"179.csv","","null","resources/maskTrios/L4BB.jpg","null","",NA,NA,NA,NA,""
"image-keyboard-response",583,690604,"0.0-3.190-2.190","6kvhxeu8tkahahy",728,"179.csv","","null","resources/images/fishbone.png","null","",NA,NA,NA,NA,""
"image-keyboard-response",584,746898,"0.0-3.191-0.191","6kvhxeu8tkahahy",728,"179.csv","","56283.80000001192","resources/trios/L1T4A2.jpg","37","restless",0.4,0.6,0.7,0.479624723185818,"false"
"image-keyboard-response",585,747323,"0.0-3.191-1.191","6kvhxeu8tkahahy",728,"179.csv","","null","resources/maskTrios/L1BB.jpg","null","",NA,NA,NA,NA,""
"image-keyboard-response",586,748536,"0.0-3.191-2.191","6kvhxeu8tkahahy",728,"179.csv","","null","resources/images/fishbone.png","null","",NA,NA,NA,NA,""
"image-keyboard-response",587,748606,"0.0-3.192-0.192","6kvhxeu8tkahahy",728,"179.csv","","68.30000001192093","resources/trios/L1T4A2.jpg","38","restless",0.4,0.6,0.8,0.578081236790161,"true"
"image-keyboard-response",588,749023,"0.0-3.192-1.192","6kvhxeu8tkahahy",728,"179.csv","","null","resources/maskTrios/BT4B.jpg","null","",NA,NA,NA,NA,""
"image-keyboard-response",589,750235,"0.0-3.192-2.192","6kvhxeu8tkahahy",728,"179.csv","","null","resources/images/coin2.png","null","",NA,NA,NA,NA,""
"image-keyboard-response",590,750780,"0.0-3.193-0.193","6kvhxeu8tkahahy",728,"179.csv","","544.1000000238419","resources/trios/L1T4A1.jpg","38","restless",0.4,0.6,0.8,0.519760874919894,"true"
"image-keyboard-response",591,751189,"0.0-3.193-1.193","6kvhxeu8tkahahy",728,"179.csv","","null","resources/maskTrios/BT4B.jpg","null","",NA,NA,NA,NA,""
"image-keyboard-response",592,752401,"0.0-3.193-2.193","6kvhxeu8tkahahy",728,"179.csv","","null","resources/images/coin2.png","null","",NA,NA,NA,NA,""
"image-keyboard-response",593,752980,"0.0-3.194-0.194","6kvhxeu8tkahahy",728,"179.csv","","577.5","resources/trios/L1T1A1.jpg","39","restless",0.4,0.6,0.8,0.640026604119781,"true"
"image-keyboard-response",594,753389,"0.0-3.194-1.194","6kvhxeu8tkahahy",728,"179.csv","","null","resources/maskTrios/BBA1.jpg","null","",NA,NA,NA,NA,""
"image-keyboard-response",595,754601,"0.0-3.194-2.194","6kvhxeu8tkahahy",728,"179.csv","","null","resources/images/coin2.png","null","",NA,NA,NA,NA,""
"image-keyboard-response",596,755958,"0.0-3.195-0.195","6kvhxeu8tkahahy",728,"179.csv","","1355.5","resources/trios/L4T1A2.jpg","39","restless",0.4,0.6,0.8,0.246781625558706,"true"
"image-keyboard-response",597,756367,"0.0-3.195-1.195","6kvhxeu8tkahahy",728,"179.csv","","null","resources/maskTrios/BBA2.jpg","null","",NA,NA,NA,NA,""
"image-keyboard-response",598,757580,"0.0-3.195-2.195","6kvhxeu8tkahahy",728,"179.csv","","null","resources/images/coin2.png","null","",NA,NA,NA,NA,""
"image-keyboard-response",599,758007,"0.0-3.196-0.196","6kvhxeu8tkahahy",728,"179.csv","","425.30000001192093","resources/trios/L1T4A1.jpg","39","restless",0.4,0.6,0.7,0.0970703476055621,"true"
"image-keyboard-response",600,758415,"0.0-3.196-1.196","6kvhxeu8tkahahy",728,"179.csv","","null","resources/maskTrios/BBA1.jpg","null","",NA,NA,NA,NA,""
"image-keyboard-response",601,759625,"0.0-3.196-2.196","6kvhxeu8tkahahy",728,"179.csv","","null","resources/images/coin2.png","null","",NA,NA,NA,NA,""
"image-keyboard-response",602,759917,"0.0-3.197-0.197","6kvhxeu8tkahahy",728,"179.csv","","290.5999999642372","resources/trios/L1T1A2.jpg","38","restless",0.4,0.6,0.7,0.51138862979856,"true"
"image-keyboard-response",603,760326,"0.0-3.197-1.197","6kvhxeu8tkahahy",728,"179.csv","","null","resources/maskTrios/BT1B.jpg","null","",NA,NA,NA,NA,""
"image-keyboard-response",604,761537,"0.0-3.197-2.197","6kvhxeu8tkahahy",728,"179.csv","","null","resources/images/coin2.png","null","",NA,NA,NA,NA,""
"image-keyboard-response",605,831466,"0.0-3.198-0.198","6kvhxeu8tkahahy",728,"179.csv","","69929.60000002384","resources/trios/L1T4A2.jpg","37","restless",0.4,0.6,0.6,0.661653782459765,"false"
"image-keyboard-response",606,831887,"0.0-3.198-1.198","6kvhxeu8tkahahy",728,"179.csv","","null","resources/maskTrios/L1BB.jpg","null","",NA,NA,NA,NA,""
