"trial_type","trial_index","time_elapsed","internal_node_id","subject","participantCode","walkNumber","success","rt","stimulus","key_press","test_part","leftProb","midProb","rightProb","generatedNum","correct"
"pavlovia",0,931,"0.0-0.0","yjc6n9hsy0dqtmm",21,"22.csv","","","","","",NA,NA,NA,NA,""
"fullscreen",1,4544,"0.0-1.0","yjc6n9hsy0dqtmm",21,"22.csv","true","","","","",NA,NA,NA,NA,""
"html-keyboard-response",2,12084,"0.0-2.0-0.0","yjc6n9hsy0dqtmm",21,"22.csv","","7538","<p><font size='6'>Arrrgh!</p></font><p>Can you be the best pirate? Try to find lots of gold! But beware, some islands have more gold than others, and over time, the island with the most gold may change. Can YOU figure it out? </p><font size='6'>GOOD LUCK, CAPTAIN!!!</font><p>Press any key to begin</p>","32","",NA,NA,NA,NA,""
"image-keyboard-response",3,15092,"0.0-2.0-1.0","yjc6n9hsy0dqtmm",21,"22.csv","","null","resources/image_sets/111.png","null","",NA,NA,NA,NA,""
"image-keyboard-response",4,17896,"0.0-2.0-2.0","yjc6n9hsy0dqtmm",21,"22.csv","","2802.099999964237","resources/image_sets/left_highlight.png","37","",NA,NA,NA,NA,""
"image-keyboard-response",5,24243,"0.0-2.0-3.0","yjc6n9hsy0dqtmm",21,"22.csv","","6344.900000035763","resources/image_sets/mid_highlight.png","38","",NA,NA,NA,NA,""
"image-keyboard-response",6,25649,"0.0-2.0-4.0","yjc6n9hsy0dqtmm",21,"22.csv","","1402.800000011921","resources/image_sets/right_highlight.png","39","",NA,NA,NA,NA,""
"image-keyboard-response",7,30754,"0.0-2.0-5.0","yjc6n9hsy0dqtmm",21,"22.csv","","5103.900000035763","resources/image_sets/111.png","13","",NA,NA,NA,NA,""
"image-keyboard-response",8,33526,"0.0-2.0-6.0","yjc6n9hsy0dqtmm",21,"22.csv","","2770","resources/images/coin2.png","13","",NA,NA,NA,NA,""
"image-keyboard-response",9,35296,"0.0-2.0-7.0","yjc6n9hsy0dqtmm",21,"22.csv","","1768.0999999642372","resources/images/fishbone.png","13","",NA,NA,NA,NA,""
"html-keyboard-response",10,40701,"0.0-2.0-8.0","yjc6n9hsy0dqtmm",21,"22.csv","","5404.400000035763","<p>Your first journey will be a long one, but you will get a well deserved break at the end</p><p>After the break you will have four more journeys, but each will be much shorter than the first, and you will have breaks in between each</p><p>Press Enter to begin</p>","13","",NA,NA,NA,NA,""
"image-keyboard-response",11,43519,"0.0-3.0-0.0","yjc6n9hsy0dqtmm",21,"22.csv","","2815","resources/trios/L4T1A1.jpg","37","restless",0.3,0.9,0.7,0.344277101508805,"false"
"image-keyboard-response",12,43928,"0.0-3.0-1.0","yjc6n9hsy0dqtmm",21,"22.csv","","null","resources/maskTrios/L4BB.jpg","null","",NA,NA,NA,NA,""
"image-keyboard-response",13,45135,"0.0-3.0-2.0","yjc6n9hsy0dqtmm",21,"22.csv","","null","resources/images/fishbone.png","null","",NA,NA,NA,NA,""
"image-keyboard-response",14,46685,"0.0-3.1-0.1","yjc6n9hsy0dqtmm",21,"22.csv","","1546.7999999523163","resources/trios/L4T1A3.jpg","38","restless",0.4,0.9,0.7,0.487747186729548,"true"
"image-keyboard-response",15,47088,"0.0-3.1-1.1","yjc6n9hsy0dqtmm",21,"22.csv","","null","resources/maskTrios/BT1B.jpg","null","",NA,NA,NA,NA,""
"image-keyboard-response",16,48292,"0.0-3.1-2.1","yjc6n9hsy0dqtmm",21,"22.csv","","null","resources/images/coin2.png","null","",NA,NA,NA,NA,""
"image-keyboard-response",17,48788,"0.0-3.2-0.2","yjc6n9hsy0dqtmm",21,"22.csv","","492","resources/trios/L4T1A3.jpg","39","restless",0.4,0.9,0.7,0.606371903630667,"true"
"image-keyboard-response",18,49194,"0.0-3.2-1.2","yjc6n9hsy0dqtmm",21,"22.csv","","null","resources/maskTrios/BBA3.jpg","null","",NA,NA,NA,NA,""
"image-keyboard-response",19,50401,"0.0-3.2-2.2","yjc6n9hsy0dqtmm",21,"22.csv","","null","resources/images/coin2.png","null","",NA,NA,NA,NA,""
"image-keyboard-response",20,50824,"0.0-3.3-0.3","yjc6n9hsy0dqtmm",21,"22.csv","","420.10000002384186","resources/trios/L1T4A1.jpg","39","restless",0.4,0.9,0.7,0.848322927239493,"false"
"image-keyboard-response",21,51227,"0.0-3.3-1.3","yjc6n9hsy0dqtmm",21,"22.csv","","null","resources/maskTrios/BBA1.jpg","null","",NA,NA,NA,NA,""
"image-keyboard-response",22,52433,"0.0-3.3-2.3","yjc6n9hsy0dqtmm",21,"22.csv","","null","resources/images/fishbone.png","null","",NA,NA,NA,NA,""
"image-keyboard-response",23,52884,"0.0-3.4-0.4","yjc6n9hsy0dqtmm",21,"22.csv","","448.10000002384186","resources/trios/L1T4A3.jpg","37","restless",0.4,0.9,0.7,0.726817066251531,"false"
"image-keyboard-response",24,53289,"0.0-3.4-1.4","yjc6n9hsy0dqtmm",21,"22.csv","","null","resources/maskTrios/L1BB.jpg","null","",NA,NA,NA,NA,""
"image-keyboard-response",25,54496,"0.0-3.4-2.4","yjc6n9hsy0dqtmm",21,"22.csv","","null","resources/images/fishbone.png","null","",NA,NA,NA,NA,""
"image-keyboard-response",26,55307,"0.0-3.5-0.5","yjc6n9hsy0dqtmm",21,"22.csv","","808.8000000119209","resources/trios/L1T1A1.jpg","37","restless",0.3,0.9,0.7,0.431792227821539,"false"
"image-keyboard-response",27,55713,"0.0-3.5-1.5","yjc6n9hsy0dqtmm",21,"22.csv","","null","resources/maskTrios/L1BB.jpg","null","",NA,NA,NA,NA,""
"image-keyboard-response",28,56920,"0.0-3.5-2.5","yjc6n9hsy0dqtmm",21,"22.csv","","null","resources/images/fishbone.png","null","",NA,NA,NA,NA,""
"image-keyboard-response",29,57652,"0.0-3.6-0.6","yjc6n9hsy0dqtmm",21,"22.csv","","729.8000000119209","resources/trios/L4T1A1.jpg","38","restless",0.3,0.9,0.7,0.881154827056048,"true"
"image-keyboard-response",30,58060,"0.0-3.6-1.6","yjc6n9hsy0dqtmm",21,"22.csv","","null","resources/maskTrios/BT1B.jpg","null","",NA,NA,NA,NA,""
"image-keyboard-response",31,59263,"0.0-3.6-2.6","yjc6n9hsy0dqtmm",21,"22.csv","","null","resources/images/coin2.png","null","",NA,NA,NA,NA,""
"image-keyboard-response",32,60802,"0.0-3.7-0.7","yjc6n9hsy0dqtmm",21,"22.csv","","1535.8999999761581","resources/trios/L1T4A1.jpg","38","restless",0.3,0.9,0.6,0.16402457843081,"true"
"image-keyboard-response",33,61209,"0.0-3.7-1.7","yjc6n9hsy0dqtmm",21,"22.csv","","null","resources/maskTrios/BT4B.jpg","null","",NA,NA,NA,NA,""
"image-keyboard-response",34,62413,"0.0-3.7-2.7","yjc6n9hsy0dqtmm",21,"22.csv","","null","resources/images/coin2.png","null","",NA,NA,NA,NA,""
"image-keyboard-response",35,62963,"0.0-3.8-0.8","yjc6n9hsy0dqtmm",21,"22.csv","","549.6000000238419","resources/trios/L1T1A3.jpg","38","restless",0.3,0.8,0.7,0.407232537368174,"true"
"image-keyboard-response",36,63371,"0.0-3.8-1.8","yjc6n9hsy0dqtmm",21,"22.csv","","null","resources/maskTrios/BT1B.jpg","null","",NA,NA,NA,NA,""
"image-keyboard-response",37,64578,"0.0-3.8-2.8","yjc6n9hsy0dqtmm",21,"22.csv","","null","resources/images/coin2.png","null","",NA,NA,NA,NA,""
"image-keyboard-response",38,64982,"0.0-3.9-0.9","yjc6n9hsy0dqtmm",21,"22.csv","","402.0999999642372","resources/trios/L1T1A1.jpg","38","restless",0.3,0.8,0.7,0.460838129999507,"true"
"image-keyboard-response",39,65389,"0.0-3.9-1.9","yjc6n9hsy0dqtmm",21,"22.csv","","null","resources/maskTrios/BT1B.jpg","null","",NA,NA,NA,NA,""
"image-keyboard-response",40,66596,"0.0-3.9-2.9","yjc6n9hsy0dqtmm",21,"22.csv","","null","resources/images/coin2.png","null","",NA,NA,NA,NA,""
"image-keyboard-response",41,67060,"0.0-3.10-0.10","yjc6n9hsy0dqtmm",21,"22.csv","","461.5999999642372","resources/trios/L4T4A1.jpg","38","restless",0.3,0.8,0.7,0.823416366469345,"false"
"image-keyboard-response",42,67465,"0.0-3.10-1.10","yjc6n9hsy0dqtmm",21,"22.csv","","null","resources/maskTrios/BT4B.jpg","null","",NA,NA,NA,NA,""
"image-keyboard-response",43,68672,"0.0-3.10-2.10","yjc6n9hsy0dqtmm",21,"22.csv","","null","resources/images/fishbone.png","null","",NA,NA,NA,NA,""
"image-keyboard-response",44,69340,"0.0-3.11-0.11","yjc6n9hsy0dqtmm",21,"22.csv","","666","resources/trios/L4T1A1.jpg","38","restless",0.3,0.8,0.7,0.570385771140572,"true"
"image-keyboard-response",45,69748,"0.0-3.11-1.11","yjc6n9hsy0dqtmm",21,"22.csv","","null","resources/maskTrios/BT1B.jpg","null","",NA,NA,NA,NA,""
"image-keyboard-response",46,70955,"0.0-3.11-2.11","yjc6n9hsy0dqtmm",21,"22.csv","","null","resources/images/coin2.png","null","",NA,NA,NA,NA,""
"image-keyboard-response",47,72347,"0.0-3.12-0.12","yjc6n9hsy0dqtmm",21,"22.csv","","1388.8999999761581","resources/trios/L4T4A3.jpg","39","restless",0.3,0.8,0.7,0.233279608835586,"true"
"image-keyboard-response",48,72754,"0.0-3.12-1.12","yjc6n9hsy0dqtmm",21,"22.csv","","null","resources/maskTrios/BBA3.jpg","null","",NA,NA,NA,NA,""
"image-keyboard-response",49,73961,"0.0-3.12-2.12","yjc6n9hsy0dqtmm",21,"22.csv","","null","resources/images/coin2.png","null","",NA,NA,NA,NA,""
"image-keyboard-response",50,75623,"0.0-3.13-0.13","yjc6n9hsy0dqtmm",21,"22.csv","","1659.199999988079","resources/trios/L1T4A3.jpg","39","restless",0.3,0.8,0.6,0.76473484936424,"false"
"image-keyboard-response",51,76030,"0.0-3.13-1.13","yjc6n9hsy0dqtmm",21,"22.csv","","null","resources/maskTrios/BBA3.jpg","null","",NA,NA,NA,NA,""
"image-keyboard-response",52,77236,"0.0-3.13-2.13","yjc6n9hsy0dqtmm",21,"22.csv","","null","resources/images/fishbone.png","null","",NA,NA,NA,NA,""
"image-keyboard-response",53,78199,"0.0-3.14-0.14","yjc6n9hsy0dqtmm",21,"22.csv","","961.5","resources/trios/L4T4A3.jpg","37","restless",0.3,0.8,0.6,0.697836984775968,"false"
"image-keyboard-response",54,78607,"0.0-3.14-1.14","yjc6n9hsy0dqtmm",21,"22.csv","","null","resources/maskTrios/L4BB.jpg","null","",NA,NA,NA,NA,""
"image-keyboard-response",55,79813,"0.0-3.14-2.14","yjc6n9hsy0dqtmm",21,"22.csv","","null","resources/images/fishbone.png","null","",NA,NA,NA,NA,""
"image-keyboard-response",56,80122,"0.0-3.15-0.15","yjc6n9hsy0dqtmm",21,"22.csv","","307.19999998807907","resources/trios/L1T1A1.jpg","38","restless",0.3,0.8,0.6,0.628889608641293,"true"
"image-keyboard-response",57,80528,"0.0-3.15-1.15","yjc6n9hsy0dqtmm",21,"22.csv","","null","resources/maskTrios/BT1B.jpg","null","",NA,NA,NA,NA,""
"image-keyboard-response",58,81735,"0.0-3.15-2.15","yjc6n9hsy0dqtmm",21,"22.csv","","null","resources/images/coin2.png","null","",NA,NA,NA,NA,""
"image-keyboard-response",59,82197,"0.0-3.16-0.16","yjc6n9hsy0dqtmm",21,"22.csv","","459.89999997615814","resources/trios/L1T1A3.jpg","38","restless",0.3,0.8,0.6,0.540380414548963,"true"
"image-keyboard-response",60,82599,"0.0-3.16-1.16","yjc6n9hsy0dqtmm",21,"22.csv","","null","resources/maskTrios/BT1B.jpg","null","",NA,NA,NA,NA,""
"image-keyboard-response",61,83807,"0.0-3.16-2.16","yjc6n9hsy0dqtmm",21,"22.csv","","null","resources/images/coin2.png","null","",NA,NA,NA,NA,""
"image-keyboard-response",62,84247,"0.0-3.17-0.17","yjc6n9hsy0dqtmm",21,"22.csv","","438.30000001192093","resources/trios/L1T1A3.jpg","38","restless",0.3,0.8,0.6,0.63091997893188,"true"
"image-keyboard-response",63,84653,"0.0-3.17-1.17","yjc6n9hsy0dqtmm",21,"22.csv","","null","resources/maskTrios/BT1B.jpg","null","",NA,NA,NA,NA,""
"image-keyboard-response",64,85858,"0.0-3.17-2.17","yjc6n9hsy0dqtmm",21,"22.csv","","null","resources/images/coin2.png","null","",NA,NA,NA,NA,""
"image-keyboard-response",65,86681,"0.0-3.18-0.18","yjc6n9hsy0dqtmm",21,"22.csv","","821.1000000238419","resources/trios/L1T4A1.jpg","38","restless",0.3,0.8,0.6,0.809898052220573,"false"
"image-keyboard-response",66,87087,"0.0-3.18-1.18","yjc6n9hsy0dqtmm",21,"22.csv","","null","resources/maskTrios/BT4B.jpg","null","",NA,NA,NA,NA,""
"image-keyboard-response",67,88294,"0.0-3.18-2.18","yjc6n9hsy0dqtmm",21,"22.csv","","null","resources/images/fishbone.png","null","",NA,NA,NA,NA,""
"image-keyboard-response",68,88900,"0.0-3.19-0.19","yjc6n9hsy0dqtmm",21,"22.csv","","603.6000000238419","resources/trios/L1T1A3.jpg","38","restless",0.3,0.8,0.5,0.612212777721403,"true"
"image-keyboard-response",69,89307,"0.0-3.19-1.19","yjc6n9hsy0dqtmm",21,"22.csv","","null","resources/maskTrios/BT1B.jpg","null","",NA,NA,NA,NA,""
"image-keyboard-response",70,90513,"0.0-3.19-2.19","yjc6n9hsy0dqtmm",21,"22.csv","","null","resources/images/coin2.png","null","",NA,NA,NA,NA,""
"image-keyboard-response",71,91515,"0.0-3.20-0.20","yjc6n9hsy0dqtmm",21,"22.csv","","999.6999999880791","resources/trios/L1T4A3.jpg","39","restless",0.3,0.8,0.5,0.620736007216228,"false"
"image-keyboard-response",72,91922,"0.0-3.20-1.20","yjc6n9hsy0dqtmm",21,"22.csv","","null","resources/maskTrios/BBA3.jpg","null","",NA,NA,NA,NA,""
"image-keyboard-response",73,93129,"0.0-3.20-2.20","yjc6n9hsy0dqtmm",21,"22.csv","","null","resources/images/fishbone.png","null","",NA,NA,NA,NA,""
"image-keyboard-response",74,93920,"0.0-3.21-0.21","yjc6n9hsy0dqtmm",21,"22.csv","","788.3999999761581","resources/trios/L1T1A3.jpg","38","restless",0.2,0.8,0.5,0.25898415107552,"true"
"image-keyboard-response",75,94323,"0.0-3.21-1.21","yjc6n9hsy0dqtmm",21,"22.csv","","null","resources/maskTrios/BT1B.jpg","null","",NA,NA,NA,NA,""
"image-keyboard-response",76,95529,"0.0-3.21-2.21","yjc6n9hsy0dqtmm",21,"22.csv","","null","resources/images/coin2.png","null","",NA,NA,NA,NA,""
"image-keyboard-response",77,96225,"0.0-3.22-0.22","yjc6n9hsy0dqtmm",21,"22.csv","","693.5","resources/trios/L1T1A1.jpg","38","restless",0.2,0.8,0.5,0.847364062534499,"false"
"image-keyboard-response",78,96631,"0.0-3.22-1.22","yjc6n9hsy0dqtmm",21,"22.csv","","null","resources/maskTrios/BT1B.jpg","null","",NA,NA,NA,NA,""
"image-keyboard-response",79,97838,"0.0-3.22-2.22","yjc6n9hsy0dqtmm",21,"22.csv","","null","resources/images/fishbone.png","null","",NA,NA,NA,NA,""
"image-keyboard-response",80,99461,"0.0-3.23-0.23","yjc6n9hsy0dqtmm",21,"22.csv","","1620.5999999642372","resources/trios/L4T4A1.jpg","38","restless",0.2,0.8,0.5,0.383969082032909,"true"
"image-keyboard-response",81,99866,"0.0-3.23-1.23","yjc6n9hsy0dqtmm",21,"22.csv","","null","resources/maskTrios/BT4B.jpg","null","",NA,NA,NA,NA,""
"image-keyboard-response",82,101073,"0.0-3.23-2.23","yjc6n9hsy0dqtmm",21,"22.csv","","null","resources/images/coin2.png","null","",NA,NA,NA,NA,""
"image-keyboard-response",83,101982,"0.0-3.24-0.24","yjc6n9hsy0dqtmm",21,"22.csv","","906.8999999761581","resources/trios/L4T4A1.jpg","37","restless",0.2,0.8,0.5,0.115926478709518,"true"
"image-keyboard-response",84,102389,"0.0-3.24-1.24","yjc6n9hsy0dqtmm",21,"22.csv","","null","resources/maskTrios/L4BB.jpg","null","",NA,NA,NA,NA,""
"image-keyboard-response",85,103595,"0.0-3.24-2.24","yjc6n9hsy0dqtmm",21,"22.csv","","null","resources/images/coin2.png","null","",NA,NA,NA,NA,""
"image-keyboard-response",86,104758,"0.0-3.25-0.25","yjc6n9hsy0dqtmm",21,"22.csv","","1161.6000000238419","resources/trios/L1T1A3.jpg","37","restless",0.2,0.8,0.5,0.156713060850872,"true"
"image-keyboard-response",87,105163,"0.0-3.25-1.25","yjc6n9hsy0dqtmm",21,"22.csv","","null","resources/maskTrios/L1BB.jpg","null","",NA,NA,NA,NA,""
"image-keyboard-response",88,106369,"0.0-3.25-2.25","yjc6n9hsy0dqtmm",21,"22.csv","","null","resources/images/coin2.png","null","",NA,NA,NA,NA,""
"image-keyboard-response",89,107254,"0.0-3.26-0.26","yjc6n9hsy0dqtmm",21,"22.csv","","882.1999999880791","resources/trios/L1T1A3.jpg","38","restless",0.2,0.8,0.5,0.531545391095823,"true"
"image-keyboard-response",90,107661,"0.0-3.26-1.26","yjc6n9hsy0dqtmm",21,"22.csv","","null","resources/maskTrios/BT1B.jpg","null","",NA,NA,NA,NA,""
"image-keyboard-response",91,108867,"0.0-3.26-2.26","yjc6n9hsy0dqtmm",21,"22.csv","","null","resources/images/coin2.png","null","",NA,NA,NA,NA,""
"image-keyboard-response",92,110133,"0.0-3.27-0.27","yjc6n9hsy0dqtmm",21,"22.csv","","1263.5","resources/trios/L4T1A3.jpg","38","restless",0.2,0.8,0.5,0.143011973897805,"true"
"image-keyboard-response",93,110540,"0.0-3.27-1.27","yjc6n9hsy0dqtmm",21,"22.csv","","null","resources/maskTrios/BT1B.jpg","null","",NA,NA,NA,NA,""
"image-keyboard-response",94,111744,"0.0-3.27-2.27","yjc6n9hsy0dqtmm",21,"22.csv","","null","resources/images/coin2.png","null","",NA,NA,NA,NA,""
"image-keyboard-response",95,113021,"0.0-3.28-0.28","yjc6n9hsy0dqtmm",21,"22.csv","","1274.4000000357628","resources/trios/L4T4A1.jpg","39","restless",0.2,0.8,0.5,0.350016568421179,"true"
"image-keyboard-response",96,113428,"0.0-3.28-1.28","yjc6n9hsy0dqtmm",21,"22.csv","","null","resources/maskTrios/BBA1.jpg","null","",NA,NA,NA,NA,""
"image-keyboard-response",97,114633,"0.0-3.28-2.28","yjc6n9hsy0dqtmm",21,"22.csv","","null","resources/images/coin2.png","null","",NA,NA,NA,NA,""
"image-keyboard-response",98,115317,"0.0-3.29-0.29","yjc6n9hsy0dqtmm",21,"22.csv","","681.8000000119209","resources/trios/L1T4A1.jpg","39","restless",0.2,0.8,0.5,0.0131546739253052,"true"
"image-keyboard-response",99,115723,"0.0-3.29-1.29","yjc6n9hsy0dqtmm",21,"22.csv","","null","resources/maskTrios/BBA1.jpg","null","",NA,NA,NA,NA,""
"image-keyboard-response",100,116930,"0.0-3.29-2.29","yjc6n9hsy0dqtmm",21,"22.csv","","null","resources/images/coin2.png","null","",NA,NA,NA,NA,""
"image-keyboard-response",101,117948,"0.0-3.30-0.30","yjc6n9hsy0dqtmm",21,"22.csv","","1015.1999999880791","resources/trios/L4T1A3.jpg","38","restless",0.2,0.8,0.5,0.936573406781808,"false"
"image-keyboard-response",102,118354,"0.0-3.30-1.30","yjc6n9hsy0dqtmm",21,"22.csv","","null","resources/maskTrios/BT1B.jpg","null","",NA,NA,NA,NA,""
"image-keyboard-response",103,119561,"0.0-3.30-2.30","yjc6n9hsy0dqtmm",21,"22.csv","","null","resources/images/fishbone.png","null","",NA,NA,NA,NA,""
"image-keyboard-response",104,120520,"0.0-3.31-0.31","yjc6n9hsy0dqtmm",21,"22.csv","","956.3999999761581","resources/trios/L4T4A3.jpg","39","restless",0.2,0.8,0.5,0.132716091728349,"true"
"image-keyboard-response",105,120923,"0.0-3.31-1.31","yjc6n9hsy0dqtmm",21,"22.csv","","null","resources/maskTrios/BBA3.jpg","null","",NA,NA,NA,NA,""
"image-keyboard-response",106,122125,"0.0-3.31-2.31","yjc6n9hsy0dqtmm",21,"22.csv","","null","resources/images/coin2.png","null","",NA,NA,NA,NA,""
"image-keyboard-response",107,123498,"0.0-3.32-0.32","yjc6n9hsy0dqtmm",21,"22.csv","","1369.699999988079","resources/trios/L1T4A1.jpg","37","restless",0.2,0.8,0.5,0.403243471856472,"false"
"image-keyboard-response",108,123905,"0.0-3.32-1.32","yjc6n9hsy0dqtmm",21,"22.csv","","null","resources/maskTrios/L1BB.jpg","null","",NA,NA,NA,NA,""
"image-keyboard-response",109,125110,"0.0-3.32-2.32","yjc6n9hsy0dqtmm",21,"22.csv","","null","resources/images/fishbone.png","null","",NA,NA,NA,NA,""
"image-keyboard-response",110,126553,"0.0-3.33-0.33","yjc6n9hsy0dqtmm",21,"22.csv","","1440.699999988079","resources/trios/L1T4A1.jpg","37","restless",0.2,0.8,0.4,0.67560994102473,"false"
"image-keyboard-response",111,126960,"0.0-3.33-1.33","yjc6n9hsy0dqtmm",21,"22.csv","","null","resources/maskTrios/L1BB.jpg","null","",NA,NA,NA,NA,""
"image-keyboard-response",112,128162,"0.0-3.33-2.33","yjc6n9hsy0dqtmm",21,"22.csv","","null","resources/images/fishbone.png","null","",NA,NA,NA,NA,""
"image-keyboard-response",113,129955,"0.0-3.34-0.34","yjc6n9hsy0dqtmm",21,"22.csv","","1790","resources/trios/L4T4A3.jpg","39","restless",0.2,0.8,0.4,0.136456495962266,"true"
"image-keyboard-response",114,130361,"0.0-3.34-1.34","yjc6n9hsy0dqtmm",21,"22.csv","","null","resources/maskTrios/BBA3.jpg","null","",NA,NA,NA,NA,""
"image-keyboard-response",115,131568,"0.0-3.34-2.34","yjc6n9hsy0dqtmm",21,"22.csv","","null","resources/images/coin2.png","null","",NA,NA,NA,NA,""
"image-keyboard-response",116,133540,"0.0-3.35-0.35","yjc6n9hsy0dqtmm",21,"22.csv","","1969.800000011921","resources/trios/L1T1A1.jpg","38","restless",0.1,0.8,0.4,0.0689405550835052,"true"
"image-keyboard-response",117,133947,"0.0-3.35-1.35","yjc6n9hsy0dqtmm",21,"22.csv","","null","resources/maskTrios/BT1B.jpg","null","",NA,NA,NA,NA,""
"image-keyboard-response",118,135150,"0.0-3.35-2.35","yjc6n9hsy0dqtmm",21,"22.csv","","null","resources/images/coin2.png","null","",NA,NA,NA,NA,""
"image-keyboard-response",119,136553,"0.0-3.36-0.36","yjc6n9hsy0dqtmm",21,"22.csv","","1399.9000000357628","resources/trios/L1T4A1.jpg","38","restless",0.1,0.7,0.4,0.95650539978386,"false"
"image-keyboard-response",120,136956,"0.0-3.36-1.36","yjc6n9hsy0dqtmm",21,"22.csv","","null","resources/maskTrios/BT4B.jpg","null","",NA,NA,NA,NA,""
"image-keyboard-response",121,138162,"0.0-3.36-2.36","yjc6n9hsy0dqtmm",21,"22.csv","","null","resources/images/fishbone.png","null","",NA,NA,NA,NA,""
"image-keyboard-response",122,139485,"0.0-3.37-0.37","yjc6n9hsy0dqtmm",21,"22.csv","","1321.2999999523163","resources/trios/L1T4A1.jpg","37","restless",0.1,0.7,0.4,0.68839030315366,"false"
"image-keyboard-response",123,139889,"0.0-3.37-1.37","yjc6n9hsy0dqtmm",21,"22.csv","","null","resources/maskTrios/L1BB.jpg","null","",NA,NA,NA,NA,""
"image-keyboard-response",124,141093,"0.0-3.37-2.37","yjc6n9hsy0dqtmm",21,"22.csv","","null","resources/images/fishbone.png","null","",NA,NA,NA,NA,""
"image-keyboard-response",125,142230,"0.0-3.38-0.38","yjc6n9hsy0dqtmm",21,"22.csv","","1133.5999999642372","resources/trios/L4T4A3.jpg","39","restless",0.1,0.7,0.4,0.892976380415762,"false"
"image-keyboard-response",126,142637,"0.0-3.38-1.38","yjc6n9hsy0dqtmm",21,"22.csv","","null","resources/maskTrios/BBA3.jpg","null","",NA,NA,NA,NA,""
"image-keyboard-response",127,143839,"0.0-3.38-2.38","yjc6n9hsy0dqtmm",21,"22.csv","","null","resources/images/fishbone.png","null","",NA,NA,NA,NA,""
"image-keyboard-response",128,144256,"0.0-3.39-0.39","yjc6n9hsy0dqtmm",21,"22.csv","","414.39999997615814","resources/trios/L1T1A1.jpg","38","restless",0.1,0.7,0.4,0.568254237043347,"true"
"image-keyboard-response",129,144662,"0.0-3.39-1.39","yjc6n9hsy0dqtmm",21,"22.csv","","null","resources/maskTrios/BT1B.jpg","null","",NA,NA,NA,NA,""
"image-keyboard-response",130,145870,"0.0-3.39-2.39","yjc6n9hsy0dqtmm",21,"22.csv","","null","resources/images/coin2.png","null","",NA,NA,NA,NA,""
"image-keyboard-response",131,146286,"0.0-3.40-0.40","yjc6n9hsy0dqtmm",21,"22.csv","","414.30000001192093","resources/trios/L1T1A3.jpg","38","restless",0.1,0.7,0.4,0.226064677384936,"true"
"image-keyboard-response",132,146694,"0.0-3.40-1.40","yjc6n9hsy0dqtmm",21,"22.csv","","null","resources/maskTrios/BT1B.jpg","null","",NA,NA,NA,NA,""
"image-keyboard-response",133,147901,"0.0-3.40-2.40","yjc6n9hsy0dqtmm",21,"22.csv","","null","resources/images/coin2.png","null","",NA,NA,NA,NA,""
"image-keyboard-response",134,148370,"0.0-3.41-0.41","yjc6n9hsy0dqtmm",21,"22.csv","","467","resources/trios/L1T1A3.jpg","38","restless",0.1,0.7,0.4,0.192718068978091,"true"
"image-keyboard-response",135,148772,"0.0-3.41-1.41","yjc6n9hsy0dqtmm",21,"22.csv","","null","resources/maskTrios/BT1B.jpg","null","",NA,NA,NA,NA,""
"image-keyboard-response",136,149976,"0.0-3.41-2.41","yjc6n9hsy0dqtmm",21,"22.csv","","null","resources/images/coin2.png","null","",NA,NA,NA,NA,""
"image-keyboard-response",137,150354,"0.0-3.42-0.42","yjc6n9hsy0dqtmm",21,"22.csv","","375.4000000357628","resources/trios/L4T1A3.jpg","38","restless",0.2,0.7,0.4,0.63552669740967,"true"
"image-keyboard-response",138,150761,"0.0-3.42-1.42","yjc6n9hsy0dqtmm",21,"22.csv","","null","resources/maskTrios/BT1B.jpg","null","",NA,NA,NA,NA,""
"image-keyboard-response",139,151966,"0.0-3.42-2.42","yjc6n9hsy0dqtmm",21,"22.csv","","null","resources/images/coin2.png","null","",NA,NA,NA,NA,""
"image-keyboard-response",140,152335,"0.0-3.43-0.43","yjc6n9hsy0dqtmm",21,"22.csv","","366.39999997615814","resources/trios/L1T1A3.jpg","38","restless",0.2,0.7,0.4,0.947182302721704,"false"
"image-keyboard-response",141,152740,"0.0-3.43-1.43","yjc6n9hsy0dqtmm",21,"22.csv","","null","resources/maskTrios/BT1B.jpg","null","",NA,NA,NA,NA,""
"image-keyboard-response",142,153947,"0.0-3.43-2.43","yjc6n9hsy0dqtmm",21,"22.csv","","null","resources/images/fishbone.png","null","",NA,NA,NA,NA,""
"image-keyboard-response",143,154346,"0.0-3.44-0.44","yjc6n9hsy0dqtmm",21,"22.csv","","397","resources/trios/L1T1A3.jpg","38","restless",0.2,0.7,0.4,0.688266039168578,"true"
"image-keyboard-response",144,154753,"0.0-3.44-1.44","yjc6n9hsy0dqtmm",21,"22.csv","","null","resources/maskTrios/BT1B.jpg","null","",NA,NA,NA,NA,""
"image-keyboard-response",145,155960,"0.0-3.44-2.44","yjc6n9hsy0dqtmm",21,"22.csv","","null","resources/images/coin2.png","null","",NA,NA,NA,NA,""
"image-keyboard-response",146,156369,"0.0-3.45-0.45","yjc6n9hsy0dqtmm",21,"22.csv","","406.10000002384186","resources/trios/L1T4A1.jpg","38","restless",0.2,0.7,0.4,0.901413254973425,"false"
"image-keyboard-response",147,156773,"0.0-3.45-1.45","yjc6n9hsy0dqtmm",21,"22.csv","","null","resources/maskTrios/BT4B.jpg","null","",NA,NA,NA,NA,""
"image-keyboard-response",148,157979,"0.0-3.45-2.45","yjc6n9hsy0dqtmm",21,"22.csv","","null","resources/images/fishbone.png","null","",NA,NA,NA,NA,""
"image-keyboard-response",149,158415,"0.0-3.46-0.46","yjc6n9hsy0dqtmm",21,"22.csv","","433.4000000357628","resources/trios/L4T1A1.jpg","38","restless",0.2,0.7,0.4,0.97315524662898,"false"
"image-keyboard-response",150,158821,"0.0-3.46-1.46","yjc6n9hsy0dqtmm",21,"22.csv","","null","resources/maskTrios/BT1B.jpg","null","",NA,NA,NA,NA,""
"image-keyboard-response",151,160025,"0.0-3.46-2.46","yjc6n9hsy0dqtmm",21,"22.csv","","null","resources/images/fishbone.png","null","",NA,NA,NA,NA,""
"image-keyboard-response",152,160786,"0.0-3.47-0.47","yjc6n9hsy0dqtmm",21,"22.csv","","757.8999999761581","resources/trios/L4T4A1.jpg","38","restless",0.2,0.7,0.4,0.743641248678163,"false"
"image-keyboard-response",153,161190,"0.0-3.47-1.47","yjc6n9hsy0dqtmm",21,"22.csv","","null","resources/maskTrios/BT4B.jpg","null","",NA,NA,NA,NA,""
"image-keyboard-response",154,162397,"0.0-3.47-2.47","yjc6n9hsy0dqtmm",21,"22.csv","","null","resources/images/fishbone.png","null","",NA,NA,NA,NA,""
"image-keyboard-response",155,162909,"0.0-3.48-0.48","yjc6n9hsy0dqtmm",21,"22.csv","","510.5","resources/trios/L1T4A3.jpg","39","restless",0.2,0.7,0.4,0.841582823867304,"false"
"image-keyboard-response",156,163312,"0.0-3.48-1.48","yjc6n9hsy0dqtmm",21,"22.csv","","null","resources/maskTrios/BBA3.jpg","null","",NA,NA,NA,NA,""
"image-keyboard-response",157,164519,"0.0-3.48-2.48","yjc6n9hsy0dqtmm",21,"22.csv","","null","resources/images/fishbone.png","null","",NA,NA,NA,NA,""
"image-keyboard-response",158,165117,"0.0-3.49-0.49","yjc6n9hsy0dqtmm",21,"22.csv","","596.2000000476837","resources/trios/L4T4A1.jpg","38","restless",0.2,0.7,0.4,0.602789875169271,"true"
"image-keyboard-response",159,165522,"0.0-3.49-1.49","yjc6n9hsy0dqtmm",21,"22.csv","","null","resources/maskTrios/BT4B.jpg","null","",NA,NA,NA,NA,""
"image-keyboard-response",160,166729,"0.0-3.49-2.49","yjc6n9hsy0dqtmm",21,"22.csv","","null","resources/images/coin2.png","null","",NA,NA,NA,NA,""
"image-keyboard-response",161,167195,"0.0-3.50-0.50","yjc6n9hsy0dqtmm",21,"22.csv","","463.19999998807907","resources/trios/L4T1A3.jpg","38","restless",0.3,0.7,0.4,0.535061339978475,"true"
"image-keyboard-response",162,167602,"0.0-3.50-1.50","yjc6n9hsy0dqtmm",21,"22.csv","","null","resources/maskTrios/BT1B.jpg","null","",NA,NA,NA,NA,""
"image-keyboard-response",163,168809,"0.0-3.50-2.50","yjc6n9hsy0dqtmm",21,"22.csv","","null","resources/images/coin2.png","null","",NA,NA,NA,NA,""
"image-keyboard-response",164,169612,"0.0-3.51-0.51","yjc6n9hsy0dqtmm",21,"22.csv","","800.6999999880791","resources/trios/L4T4A3.jpg","38","restless",0.2,0.7,0.4,0.94016431287032,"false"
"image-keyboard-response",165,170019,"0.0-3.51-1.51","yjc6n9hsy0dqtmm",21,"22.csv","","null","resources/maskTrios/BT4B.jpg","null","",NA,NA,NA,NA,""
"image-keyboard-response",166,171225,"0.0-3.51-2.51","yjc6n9hsy0dqtmm",21,"22.csv","","null","resources/images/fishbone.png","null","",NA,NA,NA,NA,""
"image-keyboard-response",167,172642,"0.0-3.52-0.52","yjc6n9hsy0dqtmm",21,"22.csv","","1414.699999988079","resources/trios/L4T4A1.jpg","38","restless",0.3,0.7,0.4,0.665022210251621,"true"
"image-keyboard-response",168,173046,"0.0-3.52-1.52","yjc6n9hsy0dqtmm",21,"22.csv","","null","resources/maskTrios/BT4B.jpg","null","",NA,NA,NA,NA,""
"image-keyboard-response",169,174252,"0.0-3.52-2.52","yjc6n9hsy0dqtmm",21,"22.csv","","null","resources/images/coin2.png","null","",NA,NA,NA,NA,""
"image-keyboard-response",170,174775,"0.0-3.53-0.53","yjc6n9hsy0dqtmm",21,"22.csv","","520.0999999642372","resources/trios/L1T4A3.jpg","38","restless",0.3,0.7,0.4,0.817094371391389,"false"
"image-keyboard-response",171,175182,"0.0-3.53-1.53","yjc6n9hsy0dqtmm",21,"22.csv","","null","resources/maskTrios/BT4B.jpg","null","",NA,NA,NA,NA,""
"image-keyboard-response",172,176389,"0.0-3.53-2.53","yjc6n9hsy0dqtmm",21,"22.csv","","null","resources/images/fishbone.png","null","",NA,NA,NA,NA,""
"image-keyboard-response",173,176837,"0.0-3.54-0.54","yjc6n9hsy0dqtmm",21,"22.csv","","445.69999998807907","resources/trios/L4T1A3.jpg","38","restless",0.3,0.7,0.4,0.881456719516138,"false"
"image-keyboard-response",174,177244,"0.0-3.54-1.54","yjc6n9hsy0dqtmm",21,"22.csv","","null","resources/maskTrios/BT1B.jpg","null","",NA,NA,NA,NA,""
"image-keyboard-response",175,178451,"0.0-3.54-2.54","yjc6n9hsy0dqtmm",21,"22.csv","","null","resources/images/fishbone.png","null","",NA,NA,NA,NA,""
"image-keyboard-response",176,179151,"0.0-3.55-0.55","yjc6n9hsy0dqtmm",21,"22.csv","","697.5","resources/trios/L4T1A1.jpg","38","restless",0.3,0.7,0.4,0.0223618775543579,"true"
"image-keyboard-response",177,179558,"0.0-3.55-1.55","yjc6n9hsy0dqtmm",21,"22.csv","","null","resources/maskTrios/BT1B.jpg","null","",NA,NA,NA,NA,""
"image-keyboard-response",178,180762,"0.0-3.55-2.55","yjc6n9hsy0dqtmm",21,"22.csv","","null","resources/images/coin2.png","null","",NA,NA,NA,NA,""
"image-keyboard-response",179,181253,"0.0-3.56-0.56","yjc6n9hsy0dqtmm",21,"22.csv","","488.5","resources/trios/L1T1A1.jpg","38","restless",0.3,0.7,0.4,0.370562570109654,"true"
"image-keyboard-response",180,181661,"0.0-3.56-1.56","yjc6n9hsy0dqtmm",21,"22.csv","","null","resources/maskTrios/BT1B.jpg","null","",NA,NA,NA,NA,""
"image-keyboard-response",181,182864,"0.0-3.56-2.56","yjc6n9hsy0dqtmm",21,"22.csv","","null","resources/images/coin2.png","null","",NA,NA,NA,NA,""
"image-keyboard-response",182,186903,"0.0-3.57-0.57","yjc6n9hsy0dqtmm",21,"22.csv","","4037.100000023842","resources/trios/L4T1A1.jpg","38","restless",0.3,0.7,0.4,0.305870043881256,"true"
"image-keyboard-response",183,187307,"0.0-3.57-1.57","yjc6n9hsy0dqtmm",21,"22.csv","","null","resources/maskTrios/BT1B.jpg","null","",NA,NA,NA,NA,""
"image-keyboard-response",184,188511,"0.0-3.57-2.57","yjc6n9hsy0dqtmm",21,"22.csv","","null","resources/images/coin2.png","null","",NA,NA,NA,NA,""
"image-keyboard-response",185,188955,"0.0-3.58-0.58","yjc6n9hsy0dqtmm",21,"22.csv","","440.10000002384186","resources/trios/L4T1A1.jpg","38","restless",0.3,0.7,0.4,0.149405539282079,"true"
"image-keyboard-response",186,189362,"0.0-3.58-1.58","yjc6n9hsy0dqtmm",21,"22.csv","","null","resources/maskTrios/BT1B.jpg","null","",NA,NA,NA,NA,""
"image-keyboard-response",187,190569,"0.0-3.58-2.58","yjc6n9hsy0dqtmm",21,"22.csv","","null","resources/images/coin2.png","null","",NA,NA,NA,NA,""
"image-keyboard-response",188,191070,"0.0-3.59-0.59","yjc6n9hsy0dqtmm",21,"22.csv","","499.19999998807907","resources/trios/L4T1A3.jpg","38","restless",0.3,0.8,0.4,0.00444280822983556,"true"
"image-keyboard-response",189,191477,"0.0-3.59-1.59","yjc6n9hsy0dqtmm",21,"22.csv","","null","resources/maskTrios/BT1B.jpg","null","",NA,NA,NA,NA,""
"image-keyboard-response",190,192683,"0.0-3.59-2.59","yjc6n9hsy0dqtmm",21,"22.csv","","null","resources/images/coin2.png","null","",NA,NA,NA,NA,""
"image-keyboard-response",191,193165,"0.0-3.60-0.60","yjc6n9hsy0dqtmm",21,"22.csv","","478.89999997615814","resources/trios/L4T4A3.jpg","38","restless",0.3,0.8,0.4,0.814264695819277,"false"
"image-keyboard-response",192,193572,"0.0-3.60-1.60","yjc6n9hsy0dqtmm",21,"22.csv","","null","resources/maskTrios/BT4B.jpg","null","",NA,NA,NA,NA,""
"image-keyboard-response",193,194778,"0.0-3.60-2.60","yjc6n9hsy0dqtmm",21,"22.csv","","null","resources/images/fishbone.png","null","",NA,NA,NA,NA,""
"image-keyboard-response",194,195281,"0.0-3.61-0.61","yjc6n9hsy0dqtmm",21,"22.csv","","501.19999998807907","resources/trios/L1T1A1.jpg","38","restless",0.3,0.8,0.4,0.142669272921316,"true"
"image-keyboard-response",195,195685,"0.0-3.61-1.61","yjc6n9hsy0dqtmm",21,"22.csv","","null","resources/maskTrios/BT1B.jpg","null","",NA,NA,NA,NA,""
"image-keyboard-response",196,196890,"0.0-3.61-2.61","yjc6n9hsy0dqtmm",21,"22.csv","","null","resources/images/coin2.png","null","",NA,NA,NA,NA,""
"image-keyboard-response",197,197930,"0.0-3.62-0.62","yjc6n9hsy0dqtmm",21,"22.csv","","1037.5","resources/trios/L1T4A3.jpg","39","restless",0.3,0.8,0.4,0.11801161673799,"true"
"image-keyboard-response",198,198332,"0.0-3.62-1.62","yjc6n9hsy0dqtmm",21,"22.csv","","null","resources/maskTrios/BBA3.jpg","null","",NA,NA,NA,NA,""
"image-keyboard-response",199,199537,"0.0-3.62-2.62","yjc6n9hsy0dqtmm",21,"22.csv","","null","resources/images/coin2.png","null","",NA,NA,NA,NA,""
"image-keyboard-response",200,200289,"0.0-3.63-0.63","yjc6n9hsy0dqtmm",21,"22.csv","","749.5","resources/trios/L1T1A1.jpg","38","restless",0.4,0.8,0.4,0.586833348278458,"true"
"image-keyboard-response",201,200696,"0.0-3.63-1.63","yjc6n9hsy0dqtmm",21,"22.csv","","null","resources/maskTrios/BT1B.jpg","null","",NA,NA,NA,NA,""
"image-keyboard-response",202,201903,"0.0-3.63-2.63","yjc6n9hsy0dqtmm",21,"22.csv","","null","resources/images/coin2.png","null","",NA,NA,NA,NA,""
"image-keyboard-response",203,203170,"0.0-3.64-0.64","yjc6n9hsy0dqtmm",21,"22.csv","","1264.6000000238419","resources/trios/L1T4A1.jpg","38","restless",0.4,0.7,0.4,0.743568424142007,"false"
"image-keyboard-response",204,203577,"0.0-3.64-1.64","yjc6n9hsy0dqtmm",21,"22.csv","","null","resources/maskTrios/BT4B.jpg","null","",NA,NA,NA,NA,""
"image-keyboard-response",205,204784,"0.0-3.64-2.64","yjc6n9hsy0dqtmm",21,"22.csv","","null","resources/images/fishbone.png","null","",NA,NA,NA,NA,""
"image-keyboard-response",206,205531,"0.0-3.65-0.65","yjc6n9hsy0dqtmm",21,"22.csv","","745.1999999880791","resources/trios/L1T1A3.jpg","38","restless",0.4,0.7,0.3,0.386402070528447,"true"
"image-keyboard-response",207,205934,"0.0-3.65-1.65","yjc6n9hsy0dqtmm",21,"22.csv","","null","resources/maskTrios/BT1B.jpg","null","",NA,NA,NA,NA,""
"image-keyboard-response",208,207141,"0.0-3.65-2.65","yjc6n9hsy0dqtmm",21,"22.csv","","null","resources/images/coin2.png","null","",NA,NA,NA,NA,""
"image-keyboard-response",209,207774,"0.0-3.66-0.66","yjc6n9hsy0dqtmm",21,"22.csv","","630.7999999523163","resources/trios/L1T1A3.jpg","38","restless",0.4,0.7,0.3,0.545527895929506,"true"
"image-keyboard-response",210,208178,"0.0-3.66-1.66","yjc6n9hsy0dqtmm",21,"22.csv","","null","resources/maskTrios/BT1B.jpg","null","",NA,NA,NA,NA,""
"image-keyboard-response",211,209383,"0.0-3.66-2.66","yjc6n9hsy0dqtmm",21,"22.csv","","null","resources/images/coin2.png","null","",NA,NA,NA,NA,""
"image-keyboard-response",212,209967,"0.0-3.67-0.67","yjc6n9hsy0dqtmm",21,"22.csv","","582.1999999880791","resources/trios/L1T1A1.jpg","38","restless",0.4,0.8,0.3,0.790466447487634,"true"
"image-keyboard-response",213,210371,"0.0-3.67-1.67","yjc6n9hsy0dqtmm",21,"22.csv","","null","resources/maskTrios/BT1B.jpg","null","",NA,NA,NA,NA,""
"image-keyboard-response",214,211578,"0.0-3.67-2.67","yjc6n9hsy0dqtmm",21,"22.csv","","null","resources/images/coin2.png","null","",NA,NA,NA,NA,""
"image-keyboard-response",215,213159,"0.0-3.68-0.68","yjc6n9hsy0dqtmm",21,"22.csv","","1577.9000000357628","resources/trios/L1T4A1.jpg","38","restless",0.4,0.8,0.3,0.272498205401938,"true"
"image-keyboard-response",216,213562,"0.0-3.68-1.68","yjc6n9hsy0dqtmm",21,"22.csv","","null","resources/maskTrios/BT4B.jpg","null","",NA,NA,NA,NA,""
"image-keyboard-response",217,214769,"0.0-3.68-2.68","yjc6n9hsy0dqtmm",21,"22.csv","","null","resources/images/coin2.png","null","",NA,NA,NA,NA,""
"image-keyboard-response",218,216130,"0.0-3.69-0.69","yjc6n9hsy0dqtmm",21,"22.csv","","1358.300000011921","resources/trios/L4T1A1.jpg","38","restless",0.4,0.8,0.3,0.45715770491933,"true"
"image-keyboard-response",219,216537,"0.0-3.69-1.69","yjc6n9hsy0dqtmm",21,"22.csv","","null","resources/maskTrios/BT1B.jpg","null","",NA,NA,NA,NA,""
"image-keyboard-response",220,217744,"0.0-3.69-2.69","yjc6n9hsy0dqtmm",21,"22.csv","","null","resources/images/coin2.png","null","",NA,NA,NA,NA,""
"image-keyboard-response",221,218619,"0.0-3.70-0.70","yjc6n9hsy0dqtmm",21,"22.csv","","873","resources/trios/L1T1A1.jpg","38","restless",0.4,0.8,0.3,0.909177178443586,"false"
"image-keyboard-response",222,219021,"0.0-3.70-1.70","yjc6n9hsy0dqtmm",21,"22.csv","","null","resources/maskTrios/BT1B.jpg","null","",NA,NA,NA,NA,""
"image-keyboard-response",223,220228,"0.0-3.70-2.70","yjc6n9hsy0dqtmm",21,"22.csv","","null","resources/images/fishbone.png","null","",NA,NA,NA,NA,""
"image-keyboard-response",224,221050,"0.0-3.71-0.71","yjc6n9hsy0dqtmm",21,"22.csv","","819.5999999642372","resources/trios/L1T4A3.jpg","37","restless",0.4,0.8,0.3,0.00759242540669502,"true"
"image-keyboard-response",225,221457,"0.0-3.71-1.71","yjc6n9hsy0dqtmm",21,"22.csv","","null","resources/maskTrios/L1BB.jpg","null","",NA,NA,NA,NA,""
"image-keyboard-response",226,222662,"0.0-3.71-2.71","yjc6n9hsy0dqtmm",21,"22.csv","","null","resources/images/coin2.png","null","",NA,NA,NA,NA,""
"image-keyboard-response",227,223713,"0.0-3.72-0.72","yjc6n9hsy0dqtmm",21,"22.csv","","1048.699999988079","resources/trios/L1T4A1.jpg","37","restless",0.4,0.8,0.3,0.610599479689283,"false"
"image-keyboard-response",228,224120,"0.0-3.72-1.72","yjc6n9hsy0dqtmm",21,"22.csv","","null","resources/maskTrios/L1BB.jpg","null","",NA,NA,NA,NA,""
"image-keyboard-response",229,225327,"0.0-3.72-2.72","yjc6n9hsy0dqtmm",21,"22.csv","","null","resources/images/fishbone.png","null","",NA,NA,NA,NA,""
"image-keyboard-response",230,226039,"0.0-3.73-0.73","yjc6n9hsy0dqtmm",21,"22.csv","","710.1000000238419","resources/trios/L4T1A3.jpg","38","restless",0.4,0.8,0.3,0.7359812142033,"true"
"image-keyboard-response",231,226446,"0.0-3.73-1.73","yjc6n9hsy0dqtmm",21,"22.csv","","null","resources/maskTrios/BT1B.jpg","null","",NA,NA,NA,NA,""
"image-keyboard-response",232,227654,"0.0-3.73-2.73","yjc6n9hsy0dqtmm",21,"22.csv","","null","resources/images/coin2.png","null","",NA,NA,NA,NA,""
"image-keyboard-response",233,228481,"0.0-3.74-0.74","yjc6n9hsy0dqtmm",21,"22.csv","","824.6999999880791","resources/trios/L1T4A1.jpg","37","restless",0.4,0.8,0.3,0.496920572041391,"false"
"image-keyboard-response",234,228888,"0.0-3.74-1.74","yjc6n9hsy0dqtmm",21,"22.csv","","null","resources/maskTrios/L1BB.jpg","null","",NA,NA,NA,NA,""
"image-keyboard-response",235,230095,"0.0-3.74-2.74","yjc6n9hsy0dqtmm",21,"22.csv","","null","resources/images/fishbone.png","null","",NA,NA,NA,NA,""
"image-keyboard-response",236,230822,"0.0-3.75-0.75","yjc6n9hsy0dqtmm",21,"22.csv","","725.0999999642372","resources/trios/L4T1A1.jpg","38","restless",0.4,0.8,0.4,0.0764786672831397,"true"
"image-keyboard-response",237,231229,"0.0-3.75-1.75","yjc6n9hsy0dqtmm",21,"22.csv","","null","resources/maskTrios/BT1B.jpg","null","",NA,NA,NA,NA,""
"image-keyboard-response",238,232432,"0.0-3.75-2.75","yjc6n9hsy0dqtmm",21,"22.csv","","null","resources/images/coin2.png","null","",NA,NA,NA,NA,""
"image-keyboard-response",239,232959,"0.0-3.76-0.76","yjc6n9hsy0dqtmm",21,"22.csv","","524.3000000119209","resources/trios/L4T1A3.jpg","38","restless",0.4,0.8,0.4,0.343046380122006,"true"
"image-keyboard-response",240,233362,"0.0-3.76-1.76","yjc6n9hsy0dqtmm",21,"22.csv","","null","resources/maskTrios/BT1B.jpg","null","",NA,NA,NA,NA,""
"image-keyboard-response",241,234569,"0.0-3.76-2.76","yjc6n9hsy0dqtmm",21,"22.csv","","null","resources/images/coin2.png","null","",NA,NA,NA,NA,""
"image-keyboard-response",242,235041,"0.0-3.77-0.77","yjc6n9hsy0dqtmm",21,"22.csv","","469.39999997615814","resources/trios/L4T1A3.jpg","38","restless",0.4,0.8,0.4,0.154442267171266,"true"
"image-keyboard-response",243,235448,"0.0-3.77-1.77","yjc6n9hsy0dqtmm",21,"22.csv","","null","resources/maskTrios/BT1B.jpg","null","",NA,NA,NA,NA,""
"image-keyboard-response",244,236651,"0.0-3.77-2.77","yjc6n9hsy0dqtmm",21,"22.csv","","null","resources/images/coin2.png","null","",NA,NA,NA,NA,""
"image-keyboard-response",245,237675,"0.0-3.78-0.78","yjc6n9hsy0dqtmm",21,"22.csv","","1020.8999999761581","resources/trios/L1T4A1.jpg","37","restless",0.4,0.8,0.5,0.660317625992271,"false"
"image-keyboard-response",246,238082,"0.0-3.78-1.78","yjc6n9hsy0dqtmm",21,"22.csv","","null","resources/maskTrios/L1BB.jpg","null","",NA,NA,NA,NA,""
"image-keyboard-response",247,239288,"0.0-3.78-2.78","yjc6n9hsy0dqtmm",21,"22.csv","","null","resources/images/fishbone.png","null","",NA,NA,NA,NA,""
"image-keyboard-response",248,240156,"0.0-3.79-0.79","yjc6n9hsy0dqtmm",21,"22.csv","","865.3000000119209","resources/trios/L1T4A1.jpg","38","restless",0.4,0.8,0.5,0.467247957141012,"true"
"image-keyboard-response",249,240562,"0.0-3.79-1.79","yjc6n9hsy0dqtmm",21,"22.csv","","null","resources/maskTrios/BT4B.jpg","null","",NA,NA,NA,NA,""
"image-keyboard-response",250,241769,"0.0-3.79-2.79","yjc6n9hsy0dqtmm",21,"22.csv","","null","resources/images/coin2.png","null","",NA,NA,NA,NA,""
"image-keyboard-response",251,242212,"0.0-3.80-0.80","yjc6n9hsy0dqtmm",21,"22.csv","","441.5","resources/trios/L4T4A3.jpg","38","restless",0.4,0.8,0.5,0.474486775334869,"true"
"image-keyboard-response",252,242619,"0.0-3.80-1.80","yjc6n9hsy0dqtmm",21,"22.csv","","null","resources/maskTrios/BT4B.jpg","null","",NA,NA,NA,NA,""
"image-keyboard-response",253,243826,"0.0-3.80-2.80","yjc6n9hsy0dqtmm",21,"22.csv","","null","resources/images/coin2.png","null","",NA,NA,NA,NA,""
"image-keyboard-response",254,244248,"0.0-3.81-0.81","yjc6n9hsy0dqtmm",21,"22.csv","","419.7000000476837","resources/trios/L1T1A1.jpg","38","restless",0.4,0.7,0.5,0.35643271602785,"true"
"image-keyboard-response",255,244655,"0.0-3.81-1.81","yjc6n9hsy0dqtmm",21,"22.csv","","null","resources/maskTrios/BT1B.jpg","null","",NA,NA,NA,NA,""
"image-keyboard-response",256,245862,"0.0-3.81-2.81","yjc6n9hsy0dqtmm",21,"22.csv","","null","resources/images/coin2.png","null","",NA,NA,NA,NA,""
"image-keyboard-response",257,246244,"0.0-3.82-0.82","yjc6n9hsy0dqtmm",21,"22.csv","","380","resources/trios/L4T4A3.jpg","38","restless",0.5,0.7,0.5,0.654127284963511,"true"
"image-keyboard-response",258,246650,"0.0-3.82-1.82","yjc6n9hsy0dqtmm",21,"22.csv","","null","resources/maskTrios/BT4B.jpg","null","",NA,NA,NA,NA,""
"image-keyboard-response",259,247857,"0.0-3.82-2.82","yjc6n9hsy0dqtmm",21,"22.csv","","null","resources/images/coin2.png","null","",NA,NA,NA,NA,""
"image-keyboard-response",260,248333,"0.0-3.83-0.83","yjc6n9hsy0dqtmm",21,"22.csv","","474","resources/trios/L1T1A3.jpg","38","restless",0.5,0.7,0.5,0.603754803982979,"true"
"image-keyboard-response",261,248740,"0.0-3.83-1.83","yjc6n9hsy0dqtmm",21,"22.csv","","null","resources/maskTrios/BT1B.jpg","null","",NA,NA,NA,NA,""
"image-keyboard-response",262,249947,"0.0-3.83-2.83","yjc6n9hsy0dqtmm",21,"22.csv","","null","resources/images/coin2.png","null","",NA,NA,NA,NA,""
"image-keyboard-response",263,250483,"0.0-3.84-0.84","yjc6n9hsy0dqtmm",21,"22.csv","","534.5","resources/trios/L1T4A1.jpg","38","restless",0.5,0.7,0.5,0.324167828287435,"true"
"image-keyboard-response",264,250890,"0.0-3.84-1.84","yjc6n9hsy0dqtmm",21,"22.csv","","null","resources/maskTrios/BT4B.jpg","null","",NA,NA,NA,NA,""
"image-keyboard-response",265,252097,"0.0-3.84-2.84","yjc6n9hsy0dqtmm",21,"22.csv","","null","resources/images/coin2.png","null","",NA,NA,NA,NA,""
"image-keyboard-response",266,252398,"0.0-3.85-0.85","yjc6n9hsy0dqtmm",21,"22.csv","","298.69999998807907","resources/trios/L4T4A3.jpg","38","restless",0.5,0.8,0.5,0.318410946945358,"true"
"image-keyboard-response",267,252805,"0.0-3.85-1.85","yjc6n9hsy0dqtmm",21,"22.csv","","null","resources/maskTrios/BT4B.jpg","null","",NA,NA,NA,NA,""
"image-keyboard-response",268,254012,"0.0-3.85-2.85","yjc6n9hsy0dqtmm",21,"22.csv","","null","resources/images/coin2.png","null","",NA,NA,NA,NA,""
"image-keyboard-response",269,254414,"0.0-3.86-0.86","yjc6n9hsy0dqtmm",21,"22.csv","","400.30000001192093","resources/trios/L1T4A1.jpg","38","restless",0.5,0.8,0.5,0.674287411312661,"true"
"image-keyboard-response",270,254821,"0.0-3.86-1.86","yjc6n9hsy0dqtmm",21,"22.csv","","null","resources/maskTrios/BT4B.jpg","null","",NA,NA,NA,NA,""
"image-keyboard-response",271,256028,"0.0-3.86-2.86","yjc6n9hsy0dqtmm",21,"22.csv","","null","resources/images/coin2.png","null","",NA,NA,NA,NA,""
"image-keyboard-response",272,256346,"0.0-3.87-0.87","yjc6n9hsy0dqtmm",21,"22.csv","","315.39999997615814","resources/trios/L4T1A3.jpg","38","restless",0.5,0.8,0.5,0.255044721283026,"true"
"image-keyboard-response",273,256753,"0.0-3.87-1.87","yjc6n9hsy0dqtmm",21,"22.csv","","null","resources/maskTrios/BT1B.jpg","null","",NA,NA,NA,NA,""
"image-keyboard-response",274,257956,"0.0-3.87-2.87","yjc6n9hsy0dqtmm",21,"22.csv","","null","resources/images/coin2.png","null","",NA,NA,NA,NA,""
"image-keyboard-response",275,258226,"0.0-3.88-0.88","yjc6n9hsy0dqtmm",21,"22.csv","","267.5999999642372","resources/trios/L1T1A1.jpg","38","restless",0.4,0.7,0.5,0.279242204895202,"true"
"image-keyboard-response",276,258633,"0.0-3.88-1.88","yjc6n9hsy0dqtmm",21,"22.csv","","null","resources/maskTrios/BT1B.jpg","null","",NA,NA,NA,NA,""
"image-keyboard-response",277,259837,"0.0-3.88-2.88","yjc6n9hsy0dqtmm",21,"22.csv","","null","resources/images/coin2.png","null","",NA,NA,NA,NA,""
"image-keyboard-response",278,260263,"0.0-3.89-0.89","yjc6n9hsy0dqtmm",21,"22.csv","","423.5","resources/trios/L1T4A1.jpg","38","restless",0.3,0.7,0.5,0.570717210741342,"true"
"image-keyboard-response",279,260670,"0.0-3.89-1.89","yjc6n9hsy0dqtmm",21,"22.csv","","null","resources/maskTrios/BT4B.jpg","null","",NA,NA,NA,NA,""
"image-keyboard-response",280,261877,"0.0-3.89-2.89","yjc6n9hsy0dqtmm",21,"22.csv","","null","resources/images/coin2.png","null","",NA,NA,NA,NA,""
"image-keyboard-response",281,262138,"0.0-3.90-0.90","yjc6n9hsy0dqtmm",21,"22.csv","","258.5999999642372","resources/trios/L1T1A1.jpg","38","restless",0.3,0.7,0.5,0.919841177656154,"false"
"image-keyboard-response",282,262545,"0.0-3.90-1.90","yjc6n9hsy0dqtmm",21,"22.csv","","null","resources/maskTrios/BT1B.jpg","null","",NA,NA,NA,NA,""
"image-keyboard-response",283,263751,"0.0-3.90-2.90","yjc6n9hsy0dqtmm",21,"22.csv","","null","resources/images/fishbone.png","null","",NA,NA,NA,NA,""
"image-keyboard-response",284,264189,"0.0-3.91-0.91","yjc6n9hsy0dqtmm",21,"22.csv","","435.2000000476837","resources/trios/L4T4A1.jpg","38","restless",0.3,0.7,0.5,0.62107561238523,"true"
"image-keyboard-response",285,264596,"0.0-3.91-1.91","yjc6n9hsy0dqtmm",21,"22.csv","","null","resources/maskTrios/BT4B.jpg","null","",NA,NA,NA,NA,""
"image-keyboard-response",286,265800,"0.0-3.91-2.91","yjc6n9hsy0dqtmm",21,"22.csv","","null","resources/images/coin2.png","null","",NA,NA,NA,NA,""
"image-keyboard-response",287,266117,"0.0-3.92-0.92","yjc6n9hsy0dqtmm",21,"22.csv","","313.9000000357628","resources/trios/L1T4A1.jpg","38","restless",0.4,0.7,0.5,0.350067847555406,"true"
"image-keyboard-response",288,266523,"0.0-3.92-1.92","yjc6n9hsy0dqtmm",21,"22.csv","","null","resources/maskTrios/BT4B.jpg","null","",NA,NA,NA,NA,""
"image-keyboard-response",289,267730,"0.0-3.92-2.92","yjc6n9hsy0dqtmm",21,"22.csv","","null","resources/images/coin2.png","null","",NA,NA,NA,NA,""
"image-keyboard-response",290,268032,"0.0-3.93-0.93","yjc6n9hsy0dqtmm",21,"22.csv","","300.60000002384186","resources/trios/L4T1A3.jpg","38","restless",0.4,0.7,0.5,0.973894529605676,"false"
"image-keyboard-response",291,268437,"0.0-3.93-1.93","yjc6n9hsy0dqtmm",21,"22.csv","","null","resources/maskTrios/BT1B.jpg","null","",NA,NA,NA,NA,""
"image-keyboard-response",292,269643,"0.0-3.93-2.93","yjc6n9hsy0dqtmm",21,"22.csv","","null","resources/images/fishbone.png","null","",NA,NA,NA,NA,""
"image-keyboard-response",293,269927,"0.0-3.94-0.94","yjc6n9hsy0dqtmm",21,"22.csv","","281.69999998807907","resources/trios/L4T4A3.jpg","38","restless",0.4,0.7,0.5,0.0196844814808861,"true"
"image-keyboard-response",294,270334,"0.0-3.94-1.94","yjc6n9hsy0dqtmm",21,"22.csv","","null","resources/maskTrios/BT4B.jpg","null","",NA,NA,NA,NA,""
"image-keyboard-response",295,271541,"0.0-3.94-2.94","yjc6n9hsy0dqtmm",21,"22.csv","","null","resources/images/coin2.png","null","",NA,NA,NA,NA,""
"image-keyboard-response",296,271844,"0.0-3.95-0.95","yjc6n9hsy0dqtmm",21,"22.csv","","300.89999997615814","resources/trios/L4T4A3.jpg","38","restless",0.4,0.7,0.5,0.617699623976514,"true"
"image-keyboard-response",297,272251,"0.0-3.95-1.95","yjc6n9hsy0dqtmm",21,"22.csv","","null","resources/maskTrios/BT4B.jpg","null","",NA,NA,NA,NA,""
"image-keyboard-response",298,273455,"0.0-3.95-2.95","yjc6n9hsy0dqtmm",21,"22.csv","","null","resources/images/coin2.png","null","",NA,NA,NA,NA,""
"image-keyboard-response",299,273742,"0.0-3.96-0.96","yjc6n9hsy0dqtmm",21,"22.csv","","284.80000001192093","resources/trios/L1T4A1.jpg","38","restless",0.4,0.7,0.5,0.715209614310269,"false"
"image-keyboard-response",300,274148,"0.0-3.96-1.96","yjc6n9hsy0dqtmm",21,"22.csv","","null","resources/maskTrios/BT4B.jpg","null","",NA,NA,NA,NA,""
"image-keyboard-response",301,275354,"0.0-3.96-2.96","yjc6n9hsy0dqtmm",21,"22.csv","","null","resources/images/fishbone.png","null","",NA,NA,NA,NA,""
"image-keyboard-response",302,275874,"0.0-3.97-0.97","yjc6n9hsy0dqtmm",21,"22.csv","","517.3000000119209","resources/trios/L1T1A3.jpg","39","restless",0.4,0.7,0.5,0.440925782454138,"true"
"image-keyboard-response",303,276281,"0.0-3.97-1.97","yjc6n9hsy0dqtmm",21,"22.csv","","null","resources/maskTrios/BBA3.jpg","null","",NA,NA,NA,NA,""
"image-keyboard-response",304,277487,"0.0-3.97-2.97","yjc6n9hsy0dqtmm",21,"22.csv","","null","resources/images/coin2.png","null","",NA,NA,NA,NA,""
"image-keyboard-response",305,278000,"0.0-3.98-0.98","yjc6n9hsy0dqtmm",21,"22.csv","","510.19999998807907","resources/trios/L4T1A3.jpg","39","restless",0.4,0.7,0.5,0.371122586622076,"true"
"image-keyboard-response",306,278406,"0.0-3.98-1.98","yjc6n9hsy0dqtmm",21,"22.csv","","null","resources/maskTrios/BBA3.jpg","null","",NA,NA,NA,NA,""
"image-keyboard-response",307,279611,"0.0-3.98-2.98","yjc6n9hsy0dqtmm",21,"22.csv","","null","resources/images/coin2.png","null","",NA,NA,NA,NA,""
"image-keyboard-response",308,280053,"0.0-3.99-0.99","yjc6n9hsy0dqtmm",21,"22.csv","","440.10000002384186","resources/trios/L4T4A1.jpg","39","restless",0.4,0.7,0.5,0.768014568214688,"false"
"image-keyboard-response",309,280456,"0.0-3.99-1.99","yjc6n9hsy0dqtmm",21,"22.csv","","null","resources/maskTrios/BBA1.jpg","null","",NA,NA,NA,NA,""
"image-keyboard-response",310,281661,"0.0-3.99-2.99","yjc6n9hsy0dqtmm",21,"22.csv","","null","resources/images/fishbone.png","null","",NA,NA,NA,NA,""
"image-keyboard-response",311,282478,"0.0-3.100-0.100","yjc6n9hsy0dqtmm",21,"22.csv","","814.1999999880791","resources/trios/L4T4A3.jpg","39","restless",0.4,0.7,0.5,0.443402904605383,"true"
"image-keyboard-response",312,282882,"0.0-3.100-1.100","yjc6n9hsy0dqtmm",21,"22.csv","","null","resources/maskTrios/BBA3.jpg","null","",NA,NA,NA,NA,""
"image-keyboard-response",313,284089,"0.0-3.100-2.100","yjc6n9hsy0dqtmm",21,"22.csv","","null","resources/images/coin2.png","null","",NA,NA,NA,NA,""
"image-keyboard-response",314,285995,"0.0-3.101-0.101","yjc6n9hsy0dqtmm",21,"22.csv","","1903.5","resources/trios/L1T4A3.jpg","39","restless",0.4,0.7,0.5,0.770917257826816,"false"
"image-keyboard-response",315,286401,"0.0-3.101-1.101","yjc6n9hsy0dqtmm",21,"22.csv","","null","resources/maskTrios/BBA3.jpg","null","",NA,NA,NA,NA,""
"image-keyboard-response",316,287604,"0.0-3.101-2.101","yjc6n9hsy0dqtmm",21,"22.csv","","null","resources/images/fishbone.png","null","",NA,NA,NA,NA,""
"image-keyboard-response",317,288611,"0.0-3.102-0.102","yjc6n9hsy0dqtmm",21,"22.csv","","1004.4000000357628","resources/trios/L4T1A3.jpg","38","restless",0.4,0.7,0.5,0.133605975184803,"true"
"image-keyboard-response",318,289013,"0.0-3.102-1.102","yjc6n9hsy0dqtmm",21,"22.csv","","null","resources/maskTrios/BT1B.jpg","null","",NA,NA,NA,NA,""
"image-keyboard-response",319,290220,"0.0-3.102-2.102","yjc6n9hsy0dqtmm",21,"22.csv","","null","resources/images/coin2.png","null","",NA,NA,NA,NA,""
"image-keyboard-response",320,290866,"0.0-3.103-0.103","yjc6n9hsy0dqtmm",21,"22.csv","","643.3000000119209","resources/trios/L1T1A1.jpg","37","restless",0.5,0.7,0.5,0.238218233758381,"true"
"image-keyboard-response",321,291271,"0.0-3.103-1.103","yjc6n9hsy0dqtmm",21,"22.csv","","null","resources/maskTrios/L1BB.jpg","null","",NA,NA,NA,NA,""
"image-keyboard-response",322,292477,"0.0-3.103-2.103","yjc6n9hsy0dqtmm",21,"22.csv","","null","resources/images/coin2.png","null","",NA,NA,NA,NA,""
"image-keyboard-response",323,293768,"0.0-3.104-0.104","yjc6n9hsy0dqtmm",21,"22.csv","","1289.6000000238419","resources/trios/L4T1A1.jpg","38","restless",0.5,0.7,0.6,0.9368233954096,"false"
"image-keyboard-response",324,294175,"0.0-3.104-1.104","yjc6n9hsy0dqtmm",21,"22.csv","","null","resources/maskTrios/BT1B.jpg","null","",NA,NA,NA,NA,""
"image-keyboard-response",325,295382,"0.0-3.104-2.104","yjc6n9hsy0dqtmm",21,"22.csv","","null","resources/images/fishbone.png","null","",NA,NA,NA,NA,""
"image-keyboard-response",326,296330,"0.0-3.105-0.105","yjc6n9hsy0dqtmm",21,"22.csv","","946","resources/trios/L1T4A1.jpg","37","restless",0.5,0.7,0.6,0.918087271108895,"false"
"image-keyboard-response",327,296736,"0.0-3.105-1.105","yjc6n9hsy0dqtmm",21,"22.csv","","null","resources/maskTrios/L1BB.jpg","null","",NA,NA,NA,NA,""
"image-keyboard-response",328,297941,"0.0-3.105-2.105","yjc6n9hsy0dqtmm",21,"22.csv","","null","resources/images/fishbone.png","null","",NA,NA,NA,NA,""
"image-keyboard-response",329,298426,"0.0-3.106-0.106","yjc6n9hsy0dqtmm",21,"22.csv","","482.39999997615814","resources/trios/L1T4A1.jpg","38","restless",0.6,0.7,0.6,0.280409516710809,"true"
"image-keyboard-response",330,298830,"0.0-3.106-1.106","yjc6n9hsy0dqtmm",21,"22.csv","","null","resources/maskTrios/BT4B.jpg","null","",NA,NA,NA,NA,""
"image-keyboard-response",331,300035,"0.0-3.106-2.106","yjc6n9hsy0dqtmm",21,"22.csv","","null","resources/images/coin2.png","null","",NA,NA,NA,NA,""
"image-keyboard-response",332,301064,"0.0-3.107-0.107","yjc6n9hsy0dqtmm",21,"22.csv","","1025.800000011921","resources/trios/L1T1A3.jpg","39","restless",0.7,0.7,0.6,0.318723596217884,"true"
"image-keyboard-response",333,301470,"0.0-3.107-1.107","yjc6n9hsy0dqtmm",21,"22.csv","","null","resources/maskTrios/BBA3.jpg","null","",NA,NA,NA,NA,""
"image-keyboard-response",334,302678,"0.0-3.107-2.107","yjc6n9hsy0dqtmm",21,"22.csv","","null","resources/images/coin2.png","null","",NA,NA,NA,NA,""
"image-keyboard-response",335,303360,"0.0-3.108-0.108","yjc6n9hsy0dqtmm",21,"22.csv","","679.9000000357628","resources/trios/L4T1A1.jpg","38","restless",0.7,0.7,0.6,0.345328797497547,"true"
"image-keyboard-response",336,303766,"0.0-3.108-1.108","yjc6n9hsy0dqtmm",21,"22.csv","","null","resources/maskTrios/BT1B.jpg","null","",NA,NA,NA,NA,""
"image-keyboard-response",337,304971,"0.0-3.108-2.108","yjc6n9hsy0dqtmm",21,"22.csv","","null","resources/images/coin2.png","null","",NA,NA,NA,NA,""
"image-keyboard-response",338,305976,"0.0-3.109-0.109","yjc6n9hsy0dqtmm",21,"22.csv","","1003","resources/trios/L1T1A3.jpg","38","restless",0.7,0.7,0.6,0.0806812052505279,"true"
"image-keyboard-response",339,306383,"0.0-3.109-1.109","yjc6n9hsy0dqtmm",21,"22.csv","","null","resources/maskTrios/BT1B.jpg","null","",NA,NA,NA,NA,""
"image-keyboard-response",340,307590,"0.0-3.109-2.109","yjc6n9hsy0dqtmm",21,"22.csv","","null","resources/images/coin2.png","null","",NA,NA,NA,NA,""
"image-keyboard-response",341,308468,"0.0-3.110-0.110","yjc6n9hsy0dqtmm",21,"22.csv","","876.1000000238419","resources/trios/L1T1A1.jpg","38","restless",0.7,0.8,0.5,0.526668188070133,"true"
"image-keyboard-response",342,308871,"0.0-3.110-1.110","yjc6n9hsy0dqtmm",21,"22.csv","","null","resources/maskTrios/BT1B.jpg","null","",NA,NA,NA,NA,""
"image-keyboard-response",343,310076,"0.0-3.110-2.110","yjc6n9hsy0dqtmm",21,"22.csv","","null","resources/images/coin2.png","null","",NA,NA,NA,NA,""
"image-keyboard-response",344,311463,"0.0-3.111-0.111","yjc6n9hsy0dqtmm",21,"22.csv","","1384.300000011921","resources/trios/L1T4A1.jpg","37","restless",0.7,0.8,0.5,0.684809103318432,"true"
"image-keyboard-response",345,311870,"0.0-3.111-1.111","yjc6n9hsy0dqtmm",21,"22.csv","","null","resources/maskTrios/L1BB.jpg","null","",NA,NA,NA,NA,""
"image-keyboard-response",346,313077,"0.0-3.111-2.111","yjc6n9hsy0dqtmm",21,"22.csv","","null","resources/images/coin2.png","null","",NA,NA,NA,NA,""
"image-keyboard-response",347,314643,"0.0-3.112-0.112","yjc6n9hsy0dqtmm",21,"22.csv","","1563.199999988079","resources/trios/L1T1A3.jpg","38","restless",0.7,0.8,0.5,0.0470600096611715,"true"
"image-keyboard-response",348,315050,"0.0-3.112-1.112","yjc6n9hsy0dqtmm",21,"22.csv","","null","resources/maskTrios/BT1B.jpg","null","",NA,NA,NA,NA,""
"image-keyboard-response",349,316257,"0.0-3.112-2.112","yjc6n9hsy0dqtmm",21,"22.csv","","null","resources/images/coin2.png","null","",NA,NA,NA,NA,""
"image-keyboard-response",350,318486,"0.0-3.113-0.113","yjc6n9hsy0dqtmm",21,"22.csv","","2226.599999964237","resources/trios/L4T4A1.jpg","38","restless",0.7,0.7,0.5,0.925484938764363,"false"
"image-keyboard-response",351,318892,"0.0-3.113-1.113","yjc6n9hsy0dqtmm",21,"22.csv","","null","resources/maskTrios/BT4B.jpg","null","",NA,NA,NA,NA,""
"image-keyboard-response",352,320099,"0.0-3.113-2.113","yjc6n9hsy0dqtmm",21,"22.csv","","null","resources/images/fishbone.png","null","",NA,NA,NA,NA,""
"image-keyboard-response",353,321278,"0.0-3.114-0.114","yjc6n9hsy0dqtmm",21,"22.csv","","1176.2000000476837","resources/trios/L4T1A1.jpg","38","restless",0.7,0.7,0.5,0.929520479436617,"false"
"image-keyboard-response",354,321685,"0.0-3.114-1.114","yjc6n9hsy0dqtmm",21,"22.csv","","null","resources/maskTrios/BT1B.jpg","null","",NA,NA,NA,NA,""
"image-keyboard-response",355,322892,"0.0-3.114-2.114","yjc6n9hsy0dqtmm",21,"22.csv","","null","resources/images/fishbone.png","null","",NA,NA,NA,NA,""
"image-keyboard-response",356,323846,"0.0-3.115-0.115","yjc6n9hsy0dqtmm",21,"22.csv","","952.6999999880791","resources/trios/L1T4A3.jpg","39","restless",0.8,0.6,0.5,0.654574554529479,"false"
"image-keyboard-response",357,324253,"0.0-3.115-1.115","yjc6n9hsy0dqtmm",21,"22.csv","","null","resources/maskTrios/BBA3.jpg","null","",NA,NA,NA,NA,""
"image-keyboard-response",358,325458,"0.0-3.115-2.115","yjc6n9hsy0dqtmm",21,"22.csv","","null","resources/images/fishbone.png","null","",NA,NA,NA,NA,""
"image-keyboard-response",359,326468,"0.0-3.116-0.116","yjc6n9hsy0dqtmm",21,"22.csv","","1007.6999999880791","resources/trios/L1T4A3.jpg","37","restless",0.9,0.6,0.5,0.610334273606027,"true"
"image-keyboard-response",360,326871,"0.0-3.116-1.116","yjc6n9hsy0dqtmm",21,"22.csv","","null","resources/maskTrios/L1BB.jpg","null","",NA,NA,NA,NA,""
"image-keyboard-response",361,328078,"0.0-3.116-2.116","yjc6n9hsy0dqtmm",21,"22.csv","","null","resources/images/coin2.png","null","",NA,NA,NA,NA,""
"image-keyboard-response",362,329223,"0.0-3.117-0.117","yjc6n9hsy0dqtmm",21,"22.csv","","1142.3999999761581","resources/trios/L4T4A3.jpg","39","restless",0.9,0.5,0.4,0.641873797242876,"false"
"image-keyboard-response",363,329630,"0.0-3.117-1.117","yjc6n9hsy0dqtmm",21,"22.csv","","null","resources/maskTrios/BBA3.jpg","null","",NA,NA,NA,NA,""
"image-keyboard-response",364,330836,"0.0-3.117-2.117","yjc6n9hsy0dqtmm",21,"22.csv","","null","resources/images/fishbone.png","null","",NA,NA,NA,NA,""
"image-keyboard-response",365,332693,"0.0-3.118-0.118","yjc6n9hsy0dqtmm",21,"22.csv","","1854.199999988079","resources/trios/L4T4A1.jpg","39","restless",0.9,0.5,0.3,0.175440565574168,"true"
"image-keyboard-response",366,333100,"0.0-3.118-1.118","yjc6n9hsy0dqtmm",21,"22.csv","","null","resources/maskTrios/BBA1.jpg","null","",NA,NA,NA,NA,""
"image-keyboard-response",367,334307,"0.0-3.118-2.118","yjc6n9hsy0dqtmm",21,"22.csv","","null","resources/images/coin2.png","null","",NA,NA,NA,NA,""
"image-keyboard-response",368,335369,"0.0-3.119-0.119","yjc6n9hsy0dqtmm",21,"22.csv","","1059","resources/trios/L4T1A1.jpg","38","restless",0.9,0.5,0.3,0.633421227703914,"false"
"image-keyboard-response",369,335775,"0.0-3.119-1.119","yjc6n9hsy0dqtmm",21,"22.csv","","null","resources/maskTrios/BT1B.jpg","null","",NA,NA,NA,NA,""
"image-keyboard-response",370,336982,"0.0-3.119-2.119","yjc6n9hsy0dqtmm",21,"22.csv","","null","resources/images/fishbone.png","null","",NA,NA,NA,NA,""
"image-keyboard-response",371,337714,"0.0-3.120-0.120","yjc6n9hsy0dqtmm",21,"22.csv","","729.4000000357628","resources/trios/L4T1A3.jpg","39","restless",0.9,0.5,0.3,0.613624802436377,"false"
"image-keyboard-response",372,338121,"0.0-3.120-1.120","yjc6n9hsy0dqtmm",21,"22.csv","","null","resources/maskTrios/BBA3.jpg","null","",NA,NA,NA,NA,""
"image-keyboard-response",373,339328,"0.0-3.120-2.120","yjc6n9hsy0dqtmm",21,"22.csv","","null","resources/images/fishbone.png","null","",NA,NA,NA,NA,""
"image-keyboard-response",374,340746,"0.0-3.121-0.121","yjc6n9hsy0dqtmm",21,"22.csv","","1415.800000011921","resources/trios/L4T1A3.jpg","38","restless",0.8,0.5,0.3,0.816895077928049,"false"
"image-keyboard-response",375,341154,"0.0-3.121-1.121","yjc6n9hsy0dqtmm",21,"22.csv","","null","resources/maskTrios/BT1B.jpg","null","",NA,NA,NA,NA,""
"image-keyboard-response",376,342361,"0.0-3.121-2.121","yjc6n9hsy0dqtmm",21,"22.csv","","null","resources/images/fishbone.png","null","",NA,NA,NA,NA,""
"image-keyboard-response",377,343206,"0.0-3.122-0.122","yjc6n9hsy0dqtmm",21,"22.csv","","843.3000000119209","resources/trios/L4T1A3.jpg","38","restless",0.8,0.5,0.3,0.193726802725113,"true"
"image-keyboard-response",378,343611,"0.0-3.122-1.122","yjc6n9hsy0dqtmm",21,"22.csv","","null","resources/maskTrios/BT1B.jpg","null","",NA,NA,NA,NA,""
"image-keyboard-response",379,344817,"0.0-3.122-2.122","yjc6n9hsy0dqtmm",21,"22.csv","","null","resources/images/coin2.png","null","",NA,NA,NA,NA,""
"image-keyboard-response",380,345540,"0.0-3.123-0.123","yjc6n9hsy0dqtmm",21,"22.csv","","720.1000000238419","resources/trios/L4T1A1.jpg","38","restless",0.7,0.5,0.3,0.221303334862396,"true"
"image-keyboard-response",381,345947,"0.0-3.123-1.123","yjc6n9hsy0dqtmm",21,"22.csv","","null","resources/maskTrios/BT1B.jpg","null","",NA,NA,NA,NA,""
"image-keyboard-response",382,347154,"0.0-3.123-2.123","yjc6n9hsy0dqtmm",21,"22.csv","","null","resources/images/coin2.png","null","",NA,NA,NA,NA,""
"image-keyboard-response",383,347633,"0.0-3.124-0.124","yjc6n9hsy0dqtmm",21,"22.csv","","477.10000002384186","resources/trios/L4T1A3.jpg","38","restless",0.8,0.5,0.3,0.691100163283542,"false"
"image-keyboard-response",384,348040,"0.0-3.124-1.124","yjc6n9hsy0dqtmm",21,"22.csv","","null","resources/maskTrios/BT1B.jpg","null","",NA,NA,NA,NA,""
"image-keyboard-response",385,349247,"0.0-3.124-2.124","yjc6n9hsy0dqtmm",21,"22.csv","","null","resources/images/fishbone.png","null","",NA,NA,NA,NA,""
"image-keyboard-response",386,351880,"0.0-3.125-0.125","yjc6n9hsy0dqtmm",21,"22.csv","","2630.5","resources/trios/L1T4A3.jpg","39","restless",0.8,0.5,0.3,0.359223596798758,"false"
"image-keyboard-response",387,352288,"0.0-3.125-1.125","yjc6n9hsy0dqtmm",21,"22.csv","","null","resources/maskTrios/BBA3.jpg","null","",NA,NA,NA,NA,""
"image-keyboard-response",388,353495,"0.0-3.125-2.125","yjc6n9hsy0dqtmm",21,"22.csv","","null","resources/images/fishbone.png","null","",NA,NA,NA,NA,""
"image-keyboard-response",389,354216,"0.0-3.126-0.126","yjc6n9hsy0dqtmm",21,"22.csv","","718","resources/trios/L4T1A1.jpg","38","restless",0.8,0.5,0.2,0.728315121587632,"false"
"image-keyboard-response",390,354621,"0.0-3.126-1.126","yjc6n9hsy0dqtmm",21,"22.csv","","null","resources/maskTrios/BT1B.jpg","null","",NA,NA,NA,NA,""
"image-keyboard-response",391,355827,"0.0-3.126-2.126","yjc6n9hsy0dqtmm",21,"22.csv","","null","resources/images/fishbone.png","null","",NA,NA,NA,NA,""
"image-keyboard-response",392,356762,"0.0-3.127-0.127","yjc6n9hsy0dqtmm",21,"22.csv","","932.3000000119209","resources/trios/L4T1A3.jpg","39","restless",0.8,0.5,0.2,0.41342891073857,"false"
"image-keyboard-response",393,357166,"0.0-3.127-1.127","yjc6n9hsy0dqtmm",21,"22.csv","","null","resources/maskTrios/BBA3.jpg","null","",NA,NA,NA,NA,""
"image-keyboard-response",394,358370,"0.0-3.127-2.127","yjc6n9hsy0dqtmm",21,"22.csv","","null","resources/images/fishbone.png","null","",NA,NA,NA,NA,""
"image-keyboard-response",395,358883,"0.0-3.128-0.128","yjc6n9hsy0dqtmm",21,"22.csv","","510.2999999523163","resources/trios/L4T1A1.jpg","38","restless",0.8,0.5,0.2,0.396685110584326,"true"
"image-keyboard-response",396,359290,"0.0-3.128-1.128","yjc6n9hsy0dqtmm",21,"22.csv","","null","resources/maskTrios/BT1B.jpg","null","",NA,NA,NA,NA,""
"image-keyboard-response",397,360497,"0.0-3.128-2.128","yjc6n9hsy0dqtmm",21,"22.csv","","null","resources/images/coin2.png","null","",NA,NA,NA,NA,""
"image-keyboard-response",398,361319,"0.0-3.129-0.129","yjc6n9hsy0dqtmm",21,"22.csv","","818.6999999880791","resources/trios/L1T1A3.jpg","38","restless",0.8,0.4,0.2,0.0603442416790154,"true"
"image-keyboard-response",399,361722,"0.0-3.129-1.129","yjc6n9hsy0dqtmm",21,"22.csv","","null","resources/maskTrios/BT1B.jpg","null","",NA,NA,NA,NA,""
"image-keyboard-response",400,362926,"0.0-3.129-2.129","yjc6n9hsy0dqtmm",21,"22.csv","","null","resources/images/coin2.png","null","",NA,NA,NA,NA,""
"image-keyboard-response",401,363384,"0.0-3.130-0.130","yjc6n9hsy0dqtmm",21,"22.csv","","455.9000000357628","resources/trios/L4T1A1.jpg","38","restless",0.8,0.4,0.2,0.68979803452217,"false"
"image-keyboard-response",402,363791,"0.0-3.130-1.130","yjc6n9hsy0dqtmm",21,"22.csv","","null","resources/maskTrios/BT1B.jpg","null","",NA,NA,NA,NA,""
"image-keyboard-response",403,364995,"0.0-3.130-2.130","yjc6n9hsy0dqtmm",21,"22.csv","","null","resources/images/fishbone.png","null","",NA,NA,NA,NA,""
"image-keyboard-response",404,365750,"0.0-3.131-0.131","yjc6n9hsy0dqtmm",21,"22.csv","","752.5","resources/trios/L4T1A3.jpg","39","restless",0.8,0.4,0.2,0.646748168778818,"false"
"image-keyboard-response",405,366155,"0.0-3.131-1.131","yjc6n9hsy0dqtmm",21,"22.csv","","null","resources/maskTrios/BBA3.jpg","null","",NA,NA,NA,NA,""
"image-keyboard-response",406,367361,"0.0-3.131-2.131","yjc6n9hsy0dqtmm",21,"22.csv","","null","resources/images/fishbone.png","null","",NA,NA,NA,NA,""
"image-keyboard-response",407,368397,"0.0-3.132-0.132","yjc6n9hsy0dqtmm",21,"22.csv","","1033.9000000357628","resources/trios/L4T4A1.jpg","38","restless",0.8,0.4,0.2,0.953864446738742,"false"
"image-keyboard-response",408,368803,"0.0-3.132-1.132","yjc6n9hsy0dqtmm",21,"22.csv","","null","resources/maskTrios/BT4B.jpg","null","",NA,NA,NA,NA,""
"image-keyboard-response",409,370005,"0.0-3.132-2.132","yjc6n9hsy0dqtmm",21,"22.csv","","null","resources/images/fishbone.png","null","",NA,NA,NA,NA,""
"image-keyboard-response",410,370736,"0.0-3.133-0.133","yjc6n9hsy0dqtmm",21,"22.csv","","729.0999999642372","resources/trios/L4T4A3.jpg","39","restless",0.8,0.4,0.2,0.211332364984691,"false"
"image-keyboard-response",411,371143,"0.0-3.133-1.133","yjc6n9hsy0dqtmm",21,"22.csv","","null","resources/maskTrios/BBA3.jpg","null","",NA,NA,NA,NA,""
"image-keyboard-response",412,372349,"0.0-3.133-2.133","yjc6n9hsy0dqtmm",21,"22.csv","","null","resources/images/fishbone.png","null","",NA,NA,NA,NA,""
"image-keyboard-response",413,372928,"0.0-3.134-0.134","yjc6n9hsy0dqtmm",21,"22.csv","","576.0999999642372","resources/trios/L4T4A3.jpg","38","restless",0.8,0.4,0.2,0.304965611310376,"true"
"image-keyboard-response",414,373331,"0.0-3.134-1.134","yjc6n9hsy0dqtmm",21,"22.csv","","null","resources/maskTrios/BT4B.jpg","null","",NA,NA,NA,NA,""
"image-keyboard-response",415,374538,"0.0-3.134-2.134","yjc6n9hsy0dqtmm",21,"22.csv","","null","resources/images/coin2.png","null","",NA,NA,NA,NA,""
"image-keyboard-response",416,375111,"0.0-3.135-0.135","yjc6n9hsy0dqtmm",21,"22.csv","","569.8000000119209","resources/trios/L4T4A3.jpg","38","restless",0.8,0.4,0.2,0.654418159307442,"false"
"image-keyboard-response",417,375518,"0.0-3.135-1.135","yjc6n9hsy0dqtmm",21,"22.csv","","null","resources/maskTrios/BT4B.jpg","null","",NA,NA,NA,NA,""
"image-keyboard-response",418,376720,"0.0-3.135-2.135","yjc6n9hsy0dqtmm",21,"22.csv","","null","resources/images/fishbone.png","null","",NA,NA,NA,NA,""
"image-keyboard-response",419,379867,"0.0-3.136-0.136","yjc6n9hsy0dqtmm",21,"22.csv","","3144","resources/trios/L1T1A1.jpg","38","restless",0.9,0.4,0.2,0.27419406572598,"true"
"image-keyboard-response",420,380270,"0.0-3.136-1.136","yjc6n9hsy0dqtmm",21,"22.csv","","null","resources/maskTrios/BT1B.jpg","null","",NA,NA,NA,NA,""
"image-keyboard-response",421,381477,"0.0-3.136-2.136","yjc6n9hsy0dqtmm",21,"22.csv","","null","resources/images/coin2.png","null","",NA,NA,NA,NA,""
"image-keyboard-response",422,382055,"0.0-3.137-0.137","yjc6n9hsy0dqtmm",21,"22.csv","","575.1999999880791","resources/trios/L1T1A3.jpg","38","restless",0.9,0.4,0.2,0.804034444383976,"false"
"image-keyboard-response",423,382460,"0.0-3.137-1.137","yjc6n9hsy0dqtmm",21,"22.csv","","null","resources/maskTrios/BT1B.jpg","null","",NA,NA,NA,NA,""
"image-keyboard-response",424,383666,"0.0-3.137-2.137","yjc6n9hsy0dqtmm",21,"22.csv","","null","resources/images/fishbone.png","null","",NA,NA,NA,NA,""
"image-keyboard-response",425,384448,"0.0-3.138-0.138","yjc6n9hsy0dqtmm",21,"22.csv","","779.1999999880791","resources/trios/L1T4A3.jpg","37","restless",0.9,0.4,0.2,0.13769530714331,"true"
"image-keyboard-response",426,384855,"0.0-3.138-1.138","yjc6n9hsy0dqtmm",21,"22.csv","","null","resources/maskTrios/L1BB.jpg","null","",NA,NA,NA,NA,""
"image-keyboard-response",427,386060,"0.0-3.138-2.138","yjc6n9hsy0dqtmm",21,"22.csv","","null","resources/images/coin2.png","null","",NA,NA,NA,NA,""
"image-keyboard-response",428,387454,"0.0-3.139-0.139","yjc6n9hsy0dqtmm",21,"22.csv","","1390.9000000357628","resources/trios/L4T4A3.jpg","39","restless",0.9,0.4,0.2,0.727154973564355,"false"
"image-keyboard-response",429,387860,"0.0-3.139-1.139","yjc6n9hsy0dqtmm",21,"22.csv","","null","resources/maskTrios/BBA3.jpg","null","",NA,NA,NA,NA,""
"image-keyboard-response",430,389066,"0.0-3.139-2.139","yjc6n9hsy0dqtmm",21,"22.csv","","null","resources/images/fishbone.png","null","",NA,NA,NA,NA,""
"image-keyboard-response",431,389628,"0.0-3.140-0.140","yjc6n9hsy0dqtmm",21,"22.csv","","559.2999999523163","resources/trios/L4T1A3.jpg","38","restless",0.9,0.4,0.2,0.685587382158215,"false"
"image-keyboard-response",432,390031,"0.0-3.140-1.140","yjc6n9hsy0dqtmm",21,"22.csv","","null","resources/maskTrios/BT1B.jpg","null","",NA,NA,NA,NA,""
"image-keyboard-response",433,391238,"0.0-3.140-2.140","yjc6n9hsy0dqtmm",21,"22.csv","","null","resources/images/fishbone.png","null","",NA,NA,NA,NA,""
"image-keyboard-response",434,391685,"0.0-3.141-0.141","yjc6n9hsy0dqtmm",21,"22.csv","","444","resources/trios/L1T4A3.jpg","37","restless",0.8,0.4,0.2,0.511916299724915,"true"
"image-keyboard-response",435,392088,"0.0-3.141-1.141","yjc6n9hsy0dqtmm",21,"22.csv","","null","resources/maskTrios/L1BB.jpg","null","",NA,NA,NA,NA,""
"image-keyboard-response",436,393295,"0.0-3.141-2.141","yjc6n9hsy0dqtmm",21,"22.csv","","null","resources/images/coin2.png","null","",NA,NA,NA,NA,""
"image-keyboard-response",437,394056,"0.0-3.142-0.142","yjc6n9hsy0dqtmm",21,"22.csv","","758.8000000119209","resources/trios/L4T1A3.jpg","38","restless",0.8,0.4,0.2,0.0201330489447447,"true"
"image-keyboard-response",438,394460,"0.0-3.142-1.142","yjc6n9hsy0dqtmm",21,"22.csv","","null","resources/maskTrios/BT1B.jpg","null","",NA,NA,NA,NA,""
"image-keyboard-response",439,395667,"0.0-3.142-2.142","yjc6n9hsy0dqtmm",21,"22.csv","","null","resources/images/coin2.png","null","",NA,NA,NA,NA,""
"image-keyboard-response",440,396213,"0.0-3.143-0.143","yjc6n9hsy0dqtmm",21,"22.csv","","543.5999999642372","resources/trios/L1T1A3.jpg","38","restless",0.8,0.4,0.2,0.27577174983072,"true"
"image-keyboard-response",441,396620,"0.0-3.143-1.143","yjc6n9hsy0dqtmm",21,"22.csv","","null","resources/maskTrios/BT1B.jpg","null","",NA,NA,NA,NA,""
"image-keyboard-response",442,397827,"0.0-3.143-2.143","yjc6n9hsy0dqtmm",21,"22.csv","","null","resources/images/coin2.png","null","",NA,NA,NA,NA,""
"image-keyboard-response",443,398258,"0.0-3.144-0.144","yjc6n9hsy0dqtmm",21,"22.csv","","428.30000001192093","resources/trios/L1T1A3.jpg","38","restless",0.8,0.4,0.2,0.964485041460091,"false"
"image-keyboard-response",444,398663,"0.0-3.144-1.144","yjc6n9hsy0dqtmm",21,"22.csv","","null","resources/maskTrios/BT1B.jpg","null","",NA,NA,NA,NA,""
"image-keyboard-response",445,399869,"0.0-3.144-2.144","yjc6n9hsy0dqtmm",21,"22.csv","","null","resources/images/fishbone.png","null","",NA,NA,NA,NA,""
"image-keyboard-response",446,400435,"0.0-3.145-0.145","yjc6n9hsy0dqtmm",21,"22.csv","","563.1999999880791","resources/trios/L4T1A1.jpg","38","restless",0.8,0.4,0.2,0.422756611673938,"false"
"image-keyboard-response",447,400842,"0.0-3.145-1.145","yjc6n9hsy0dqtmm",21,"22.csv","","null","resources/maskTrios/BT1B.jpg","null","",NA,NA,NA,NA,""
"image-keyboard-response",448,402049,"0.0-3.145-2.145","yjc6n9hsy0dqtmm",21,"22.csv","","null","resources/images/fishbone.png","null","",NA,NA,NA,NA,""
"image-keyboard-response",449,402910,"0.0-3.146-0.146","yjc6n9hsy0dqtmm",21,"22.csv","","858.5","resources/trios/L1T1A1.jpg","37","restless",0.7,0.4,0.2,0.703478177640177,"false"
"image-keyboard-response",450,403317,"0.0-3.146-1.146","yjc6n9hsy0dqtmm",21,"22.csv","","null","resources/maskTrios/L1BB.jpg","null","",NA,NA,NA,NA,""
"image-keyboard-response",451,404519,"0.0-3.146-2.146","yjc6n9hsy0dqtmm",21,"22.csv","","null","resources/images/fishbone.png","null","",NA,NA,NA,NA,""
"image-keyboard-response",452,404883,"0.0-3.147-0.147","yjc6n9hsy0dqtmm",21,"22.csv","","360.5","resources/trios/L1T1A3.jpg","38","restless",0.7,0.3,0.2,0.664785417542029,"false"
"image-keyboard-response",453,405290,"0.0-3.147-1.147","yjc6n9hsy0dqtmm",21,"22.csv","","null","resources/maskTrios/BT1B.jpg","null","",NA,NA,NA,NA,""
"image-keyboard-response",454,406497,"0.0-3.147-2.147","yjc6n9hsy0dqtmm",21,"22.csv","","null","resources/images/fishbone.png","null","",NA,NA,NA,NA,""
"image-keyboard-response",455,406925,"0.0-3.148-0.148","yjc6n9hsy0dqtmm",21,"22.csv","","425.4000000357628","resources/trios/L1T1A1.jpg","38","restless",0.6,0.3,0.2,0.590175599178858,"false"
"image-keyboard-response",456,407333,"0.0-3.148-1.148","yjc6n9hsy0dqtmm",21,"22.csv","","null","resources/maskTrios/BT1B.jpg","null","",NA,NA,NA,NA,""
"image-keyboard-response",457,408534,"0.0-3.148-2.148","yjc6n9hsy0dqtmm",21,"22.csv","","null","resources/images/fishbone.png","null","",NA,NA,NA,NA,""
"image-keyboard-response",458,408973,"0.0-3.149-0.149","yjc6n9hsy0dqtmm",21,"22.csv","","435.5999999642372","resources/trios/L4T1A3.jpg","38","restless",0.6,0.3,0.2,0.254477149530002,"true"
"image-keyboard-response",459,409376,"0.0-3.149-1.149","yjc6n9hsy0dqtmm",21,"22.csv","","null","resources/maskTrios/BT1B.jpg","null","",NA,NA,NA,NA,""
"image-keyboard-response",460,410580,"0.0-3.149-2.149","yjc6n9hsy0dqtmm",21,"22.csv","","null","resources/images/coin2.png","null","",NA,NA,NA,NA,""
"image-keyboard-response",461,411792,"0.0-3.150-0.150","yjc6n9hsy0dqtmm",21,"22.csv","","1209.5","resources/trios/L4T4A1.jpg","38","restless",0.6,0.3,0.2,0.7546160474413,"false"
"image-keyboard-response",462,412194,"0.0-3.150-1.150","yjc6n9hsy0dqtmm",21,"22.csv","","null","resources/maskTrios/BT4B.jpg","null","",NA,NA,NA,NA,""
"image-keyboard-response",463,413399,"0.0-3.150-2.150","yjc6n9hsy0dqtmm",21,"22.csv","","null","resources/images/fishbone.png","null","",NA,NA,NA,NA,""
"image-keyboard-response",464,413999,"0.0-3.151-0.151","yjc6n9hsy0dqtmm",21,"22.csv","","596.6999999880791","resources/trios/L1T4A3.jpg","39","restless",0.6,0.3,0.2,0.974786904849445,"false"
"image-keyboard-response",465,414404,"0.0-3.151-1.151","yjc6n9hsy0dqtmm",21,"22.csv","","null","resources/maskTrios/BBA3.jpg","null","",NA,NA,NA,NA,""
"image-keyboard-response",466,415607,"0.0-3.151-2.151","yjc6n9hsy0dqtmm",21,"22.csv","","null","resources/images/fishbone.png","null","",NA,NA,NA,NA,""
"image-keyboard-response",467,416462,"0.0-3.152-0.152","yjc6n9hsy0dqtmm",21,"22.csv","","853.1000000238419","resources/trios/L4T4A3.jpg","39","restless",0.5,0.3,0.2,0.549476265798539,"false"
"image-keyboard-response",468,416867,"0.0-3.152-1.152","yjc6n9hsy0dqtmm",21,"22.csv","","null","resources/maskTrios/BBA3.jpg","null","",NA,NA,NA,NA,""
"image-keyboard-response",469,418070,"0.0-3.152-2.152","yjc6n9hsy0dqtmm",21,"22.csv","","null","resources/images/fishbone.png","null","",NA,NA,NA,NA,""
"image-keyboard-response",470,418716,"0.0-3.153-0.153","yjc6n9hsy0dqtmm",21,"22.csv","","644.2999999523163","resources/trios/L1T4A3.jpg","37","restless",0.5,0.3,0.2,0.224273044651953,"true"
"image-keyboard-response",471,419120,"0.0-3.153-1.153","yjc6n9hsy0dqtmm",21,"22.csv","","null","resources/maskTrios/L1BB.jpg","null","",NA,NA,NA,NA,""
"image-keyboard-response",472,420327,"0.0-3.153-2.153","yjc6n9hsy0dqtmm",21,"22.csv","","null","resources/images/coin2.png","null","",NA,NA,NA,NA,""
"image-keyboard-response",473,421127,"0.0-3.154-0.154","yjc6n9hsy0dqtmm",21,"22.csv","","797.6000000238419","resources/trios/L1T1A3.jpg","37","restless",0.5,0.3,0.2,0.806715211093629,"false"
"image-keyboard-response",474,421534,"0.0-3.154-1.154","yjc6n9hsy0dqtmm",21,"22.csv","","null","resources/maskTrios/L1BB.jpg","null","",NA,NA,NA,NA,""
"image-keyboard-response",475,422741,"0.0-3.154-2.154","yjc6n9hsy0dqtmm",21,"22.csv","","null","resources/images/fishbone.png","null","",NA,NA,NA,NA,""
"image-keyboard-response",476,423773,"0.0-3.155-0.155","yjc6n9hsy0dqtmm",21,"22.csv","","1029.800000011921","resources/trios/L4T4A3.jpg","39","restless",0.5,0.3,0.2,0.203206471297722,"false"
"image-keyboard-response",477,424181,"0.0-3.155-1.155","yjc6n9hsy0dqtmm",21,"22.csv","","null","resources/maskTrios/BBA3.jpg","null","",NA,NA,NA,NA,""
"image-keyboard-response",478,425388,"0.0-3.155-2.155","yjc6n9hsy0dqtmm",21,"22.csv","","null","resources/images/fishbone.png","null","",NA,NA,NA,NA,""
"image-keyboard-response",479,426321,"0.0-3.156-0.156","yjc6n9hsy0dqtmm",21,"22.csv","","930.2999999523163","resources/trios/L1T4A1.jpg","37","restless",0.6,0.3,0.2,0.0205096154395981,"true"
"image-keyboard-response",480,426724,"0.0-3.156-1.156","yjc6n9hsy0dqtmm",21,"22.csv","","null","resources/maskTrios/L1BB.jpg","null","",NA,NA,NA,NA,""
"image-keyboard-response",481,427931,"0.0-3.156-2.156","yjc6n9hsy0dqtmm",21,"22.csv","","null","resources/images/coin2.png","null","",NA,NA,NA,NA,""
"image-keyboard-response",482,434911,"0.0-3.157-0.157","yjc6n9hsy0dqtmm",21,"22.csv","","6977.100000023842","resources/trios/L4T4A1.jpg","39","restless",0.6,0.3,0.2,0.794060526779945,"false"
"image-keyboard-response",483,435316,"0.0-3.157-1.157","yjc6n9hsy0dqtmm",21,"22.csv","","null","resources/maskTrios/BBA1.jpg","null","",NA,NA,NA,NA,""
"image-keyboard-response",484,436520,"0.0-3.157-2.157","yjc6n9hsy0dqtmm",21,"22.csv","","null","resources/images/fishbone.png","null","",NA,NA,NA,NA,""
"image-keyboard-response",485,436994,"0.0-3.158-0.158","yjc6n9hsy0dqtmm",21,"22.csv","","472","resources/trios/L1T1A1.jpg","38","restless",0.6,0.3,0.2,0.884348553443968,"false"
"image-keyboard-response",486,437401,"0.0-3.158-1.158","yjc6n9hsy0dqtmm",21,"22.csv","","null","resources/maskTrios/BT1B.jpg","null","",NA,NA,NA,NA,""
"image-keyboard-response",487,438604,"0.0-3.158-2.158","yjc6n9hsy0dqtmm",21,"22.csv","","null","resources/images/fishbone.png","null","",NA,NA,NA,NA,""
"image-keyboard-response",488,439976,"0.0-3.159-0.159","yjc6n9hsy0dqtmm",21,"22.csv","","1369.3999999761581","resources/trios/L4T4A1.jpg","38","restless",0.6,0.3,0.2,0.127003490227716,"true"
"image-keyboard-response",489,440383,"0.0-3.159-1.159","yjc6n9hsy0dqtmm",21,"22.csv","","null","resources/maskTrios/BT4B.jpg","null","",NA,NA,NA,NA,""
"image-keyboard-response",490,441590,"0.0-3.159-2.159","yjc6n9hsy0dqtmm",21,"22.csv","","null","resources/images/coin2.png","null","",NA,NA,NA,NA,""
"image-keyboard-response",491,442250,"0.0-3.160-0.160","yjc6n9hsy0dqtmm",21,"22.csv","","657","resources/trios/L1T4A1.jpg","38","restless",0.6,0.3,0.3,0.181456827201035,"true"
"image-keyboard-response",492,442653,"0.0-3.160-1.160","yjc6n9hsy0dqtmm",21,"22.csv","","null","resources/maskTrios/BT4B.jpg","null","",NA,NA,NA,NA,""
"image-keyboard-response",493,443860,"0.0-3.160-2.160","yjc6n9hsy0dqtmm",21,"22.csv","","null","resources/images/coin2.png","null","",NA,NA,NA,NA,""
"image-keyboard-response",494,444359,"0.0-3.161-0.161","yjc6n9hsy0dqtmm",21,"22.csv","","496.39999997615814","resources/trios/L1T4A1.jpg","38","restless",0.5,0.3,0.3,0.482385811040926,"false"
"image-keyboard-response",495,444761,"0.0-3.161-1.161","yjc6n9hsy0dqtmm",21,"22.csv","","null","resources/maskTrios/BT4B.jpg","null","",NA,NA,NA,NA,""
"image-keyboard-response",496,445966,"0.0-3.161-2.161","yjc6n9hsy0dqtmm",21,"22.csv","","null","resources/images/fishbone.png","null","",NA,NA,NA,NA,""
"image-keyboard-response",497,446426,"0.0-3.162-0.162","yjc6n9hsy0dqtmm",21,"22.csv","","458.10000002384186","resources/trios/L4T1A3.jpg","38","restless",0.5,0.3,0.3,0.317211021014109,"false"
"image-keyboard-response",498,446834,"0.0-3.162-1.162","yjc6n9hsy0dqtmm",21,"22.csv","","null","resources/maskTrios/BT1B.jpg","null","",NA,NA,NA,NA,""
"image-keyboard-response",499,448040,"0.0-3.162-2.162","yjc6n9hsy0dqtmm",21,"22.csv","","null","resources/images/fishbone.png","null","",NA,NA,NA,NA,""
"image-keyboard-response",500,448467,"0.0-3.163-0.163","yjc6n9hsy0dqtmm",21,"22.csv","","425","resources/trios/L4T1A3.jpg","38","restless",0.5,0.3,0.3,0.658081552878726,"false"
"image-keyboard-response",501,448871,"0.0-3.163-1.163","yjc6n9hsy0dqtmm",21,"22.csv","","null","resources/maskTrios/BT1B.jpg","null","",NA,NA,NA,NA,""
"image-keyboard-response",502,450076,"0.0-3.163-2.163","yjc6n9hsy0dqtmm",21,"22.csv","","null","resources/images/fishbone.png","null","",NA,NA,NA,NA,""
"image-keyboard-response",503,451081,"0.0-3.164-0.164","yjc6n9hsy0dqtmm",21,"22.csv","","1002.8999999761581","resources/trios/L4T4A3.jpg","39","restless",0.5,0.3,0.4,0.196404697248406,"true"
"image-keyboard-response",504,451487,"0.0-3.164-1.164","yjc6n9hsy0dqtmm",21,"22.csv","","null","resources/maskTrios/BBA3.jpg","null","",NA,NA,NA,NA,""
"image-keyboard-response",505,452694,"0.0-3.164-2.164","yjc6n9hsy0dqtmm",21,"22.csv","","null","resources/images/coin2.png","null","",NA,NA,NA,NA,""
"image-keyboard-response",506,453267,"0.0-3.165-0.165","yjc6n9hsy0dqtmm",21,"22.csv","","571.3000000119209","resources/trios/L4T1A1.jpg","38","restless",0.4,0.2,0.4,0.414674127622965,"false"
"image-keyboard-response",507,453671,"0.0-3.165-1.165","yjc6n9hsy0dqtmm",21,"22.csv","","null","resources/maskTrios/BT1B.jpg","null","",NA,NA,NA,NA,""
"image-keyboard-response",508,454877,"0.0-3.165-2.165","yjc6n9hsy0dqtmm",21,"22.csv","","null","resources/images/fishbone.png","null","",NA,NA,NA,NA,""
"image-keyboard-response",509,455563,"0.0-3.166-0.166","yjc6n9hsy0dqtmm",21,"22.csv","","683.1000000238419","resources/trios/L1T1A3.jpg","37","restless",0.4,0.2,0.4,0.564932189140698,"false"
"image-keyboard-response",510,455970,"0.0-3.166-1.166","yjc6n9hsy0dqtmm",21,"22.csv","","null","resources/maskTrios/L1BB.jpg","null","",NA,NA,NA,NA,""
"image-keyboard-response",511,457176,"0.0-3.166-2.166","yjc6n9hsy0dqtmm",21,"22.csv","","null","resources/images/fishbone.png","null","",NA,NA,NA,NA,""
"image-keyboard-response",512,457801,"0.0-3.167-0.167","yjc6n9hsy0dqtmm",21,"22.csv","","623.1999999880791","resources/trios/L4T4A3.jpg","39","restless",0.4,0.2,0.4,0.821115952253543,"false"
"image-keyboard-response",513,458208,"0.0-3.167-1.167","yjc6n9hsy0dqtmm",21,"22.csv","","null","resources/maskTrios/BBA3.jpg","null","",NA,NA,NA,NA,""
"image-keyboard-response",514,459411,"0.0-3.167-2.167","yjc6n9hsy0dqtmm",21,"22.csv","","null","resources/images/fishbone.png","null","",NA,NA,NA,NA,""
"image-keyboard-response",515,459890,"0.0-3.168-0.168","yjc6n9hsy0dqtmm",21,"22.csv","","476.7000000476837","resources/trios/L4T1A1.jpg","38","restless",0.4,0.2,0.4,0.82236182360893,"false"
"image-keyboard-response",516,460297,"0.0-3.168-1.168","yjc6n9hsy0dqtmm",21,"22.csv","","null","resources/maskTrios/BT1B.jpg","null","",NA,NA,NA,NA,""
"image-keyboard-response",517,461499,"0.0-3.168-2.168","yjc6n9hsy0dqtmm",21,"22.csv","","null","resources/images/fishbone.png","null","",NA,NA,NA,NA,""
"image-keyboard-response",518,461929,"0.0-3.169-0.169","yjc6n9hsy0dqtmm",21,"22.csv","","428","resources/trios/L4T1A3.jpg","38","restless",0.5,0.2,0.5,0.750295132828596,"false"
"image-keyboard-response",519,462336,"0.0-3.169-1.169","yjc6n9hsy0dqtmm",21,"22.csv","","null","resources/maskTrios/BT1B.jpg","null","",NA,NA,NA,NA,""
"image-keyboard-response",520,463538,"0.0-3.169-2.169","yjc6n9hsy0dqtmm",21,"22.csv","","null","resources/images/fishbone.png","null","",NA,NA,NA,NA,""
"image-keyboard-response",521,464461,"0.0-3.170-0.170","yjc6n9hsy0dqtmm",21,"22.csv","","920.6999999880791","resources/trios/L4T4A3.jpg","39","restless",0.5,0.2,0.5,0.946927269012646,"false"
"image-keyboard-response",522,464865,"0.0-3.170-1.170","yjc6n9hsy0dqtmm",21,"22.csv","","null","resources/maskTrios/BBA3.jpg","null","",NA,NA,NA,NA,""
"image-keyboard-response",523,466071,"0.0-3.170-2.170","yjc6n9hsy0dqtmm",21,"22.csv","","null","resources/images/fishbone.png","null","",NA,NA,NA,NA,""
"image-keyboard-response",524,466456,"0.0-3.171-0.171","yjc6n9hsy0dqtmm",21,"22.csv","","382.89999997615814","resources/trios/L1T1A3.jpg","38","restless",0.5,0.2,0.5,0.537478465812211,"false"
"image-keyboard-response",525,466861,"0.0-3.171-1.171","yjc6n9hsy0dqtmm",21,"22.csv","","null","resources/maskTrios/BT1B.jpg","null","",NA,NA,NA,NA,""
"image-keyboard-response",526,468066,"0.0-3.171-2.171","yjc6n9hsy0dqtmm",21,"22.csv","","null","resources/images/fishbone.png","null","",NA,NA,NA,NA,""
"image-keyboard-response",527,468840,"0.0-3.172-0.172","yjc6n9hsy0dqtmm",21,"22.csv","","771.8000000119209","resources/trios/L1T4A3.jpg","38","restless",0.5,0.2,0.5,0.520517711835183,"false"
"image-keyboard-response",528,469245,"0.0-3.172-1.172","yjc6n9hsy0dqtmm",21,"22.csv","","null","resources/maskTrios/BT4B.jpg","null","",NA,NA,NA,NA,""
"image-keyboard-response",529,470450,"0.0-3.172-2.172","yjc6n9hsy0dqtmm",21,"22.csv","","null","resources/images/fishbone.png","null","",NA,NA,NA,NA,""
"image-keyboard-response",530,470879,"0.0-3.173-0.173","yjc6n9hsy0dqtmm",21,"22.csv","","426.7999999523163","resources/trios/L1T4A1.jpg","37","restless",0.5,0.2,0.5,0.200291458789491,"true"
"image-keyboard-response",531,471286,"0.0-3.173-1.173","yjc6n9hsy0dqtmm",21,"22.csv","","null","resources/maskTrios/L1BB.jpg","null","",NA,NA,NA,NA,""
"image-keyboard-response",532,472493,"0.0-3.173-2.173","yjc6n9hsy0dqtmm",21,"22.csv","","null","resources/images/coin2.png","null","",NA,NA,NA,NA,""
"image-keyboard-response",533,472994,"0.0-3.174-0.174","yjc6n9hsy0dqtmm",21,"22.csv","","499","resources/trios/L1T1A1.jpg","37","restless",0.5,0.2,0.5,0.0702255076385896,"true"
"image-keyboard-response",534,473400,"0.0-3.174-1.174","yjc6n9hsy0dqtmm",21,"22.csv","","null","resources/maskTrios/L1BB.jpg","null","",NA,NA,NA,NA,""
"image-keyboard-response",535,474607,"0.0-3.174-2.174","yjc6n9hsy0dqtmm",21,"22.csv","","null","resources/images/coin2.png","null","",NA,NA,NA,NA,""
"image-keyboard-response",536,474907,"0.0-3.175-0.175","yjc6n9hsy0dqtmm",21,"22.csv","","297.89999997615814","resources/trios/L4T4A1.jpg","37","restless",0.5,0.1,0.5,0.574380540152092,"false"
"image-keyboard-response",537,475311,"0.0-3.175-1.175","yjc6n9hsy0dqtmm",21,"22.csv","","null","resources/maskTrios/L4BB.jpg","null","",NA,NA,NA,NA,""
"image-keyboard-response",538,476518,"0.0-3.175-2.175","yjc6n9hsy0dqtmm",21,"22.csv","","null","resources/images/fishbone.png","null","",NA,NA,NA,NA,""
"image-keyboard-response",539,477208,"0.0-3.176-0.176","yjc6n9hsy0dqtmm",21,"22.csv","","687.5","resources/trios/L1T1A3.jpg","37","restless",0.5,0.2,0.5,0.65173070579182,"false"
"image-keyboard-response",540,477611,"0.0-3.176-1.176","yjc6n9hsy0dqtmm",21,"22.csv","","null","resources/maskTrios/L1BB.jpg","null","",NA,NA,NA,NA,""
"image-keyboard-response",541,478818,"0.0-3.176-2.176","yjc6n9hsy0dqtmm",21,"22.csv","","null","resources/images/fishbone.png","null","",NA,NA,NA,NA,""
"image-keyboard-response",542,479504,"0.0-3.177-0.177","yjc6n9hsy0dqtmm",21,"22.csv","","683.1999999880791","resources/trios/L4T4A3.jpg","39","restless",0.6,0.3,0.5,0.483639628811633,"true"
"image-keyboard-response",543,479909,"0.0-3.177-1.177","yjc6n9hsy0dqtmm",21,"22.csv","","null","resources/maskTrios/BBA3.jpg","null","",NA,NA,NA,NA,""
"image-keyboard-response",544,481116,"0.0-3.177-2.177","yjc6n9hsy0dqtmm",21,"22.csv","","null","resources/images/coin2.png","null","",NA,NA,NA,NA,""
"image-keyboard-response",545,481701,"0.0-3.178-0.178","yjc6n9hsy0dqtmm",21,"22.csv","","581.6000000238419","resources/trios/L4T1A1.jpg","39","restless",0.6,0.3,0.6,0.0586626015136789,"true"
"image-keyboard-response",546,482108,"0.0-3.178-1.178","yjc6n9hsy0dqtmm",21,"22.csv","","null","resources/maskTrios/BBA1.jpg","null","",NA,NA,NA,NA,""
"image-keyboard-response",547,483311,"0.0-3.178-2.178","yjc6n9hsy0dqtmm",21,"22.csv","","null","resources/images/coin2.png","null","",NA,NA,NA,NA,""
"image-keyboard-response",548,483744,"0.0-3.179-0.179","yjc6n9hsy0dqtmm",21,"22.csv","","430.5","resources/trios/L4T1A3.jpg","39","restless",0.6,0.3,0.6,0.389038649717851,"true"
"image-keyboard-response",549,484151,"0.0-3.179-1.179","yjc6n9hsy0dqtmm",21,"22.csv","","null","resources/maskTrios/BBA3.jpg","null","",NA,NA,NA,NA,""
"image-keyboard-response",550,485358,"0.0-3.179-2.179","yjc6n9hsy0dqtmm",21,"22.csv","","null","resources/images/coin2.png","null","",NA,NA,NA,NA,""
"image-keyboard-response",551,485829,"0.0-3.180-0.180","yjc6n9hsy0dqtmm",21,"22.csv","","469","resources/trios/L1T1A3.jpg","39","restless",0.6,0.3,0.6,0.948532113511513,"false"
"image-keyboard-response",552,486234,"0.0-3.180-1.180","yjc6n9hsy0dqtmm",21,"22.csv","","null","resources/maskTrios/BBA3.jpg","null","",NA,NA,NA,NA,""
"image-keyboard-response",553,487436,"0.0-3.180-2.180","yjc6n9hsy0dqtmm",21,"22.csv","","null","resources/images/fishbone.png","null","",NA,NA,NA,NA,""
"image-keyboard-response",554,487767,"0.0-3.181-0.181","yjc6n9hsy0dqtmm",21,"22.csv","","328.2000000476837","resources/trios/L4T1A3.jpg","38","restless",0.6,0.2,0.7,0.29612057300288,"false"
"image-keyboard-response",555,488170,"0.0-3.181-1.181","yjc6n9hsy0dqtmm",21,"22.csv","","null","resources/maskTrios/BT1B.jpg","null","",NA,NA,NA,NA,""
"image-keyboard-response",556,489377,"0.0-3.181-2.181","yjc6n9hsy0dqtmm",21,"22.csv","","null","resources/images/fishbone.png","null","",NA,NA,NA,NA,""
"image-keyboard-response",557,489640,"0.0-3.182-0.182","yjc6n9hsy0dqtmm",21,"22.csv","","260.89999997615814","resources/trios/L4T4A1.jpg","37","restless",0.6,0.2,0.7,0.287255611218889,"true"
"image-keyboard-response",558,490048,"0.0-3.182-1.182","yjc6n9hsy0dqtmm",21,"22.csv","","null","resources/maskTrios/L4BB.jpg","null","",NA,NA,NA,NA,""
"image-keyboard-response",559,491255,"0.0-3.182-2.182","yjc6n9hsy0dqtmm",21,"22.csv","","null","resources/images/coin2.png","null","",NA,NA,NA,NA,""
"image-keyboard-response",560,491817,"0.0-3.183-0.183","yjc6n9hsy0dqtmm",21,"22.csv","","559.3999999761581","resources/trios/L1T1A1.jpg","37","restless",0.7,0.2,0.7,0.884202582586093,"false"
"image-keyboard-response",561,492219,"0.0-3.183-1.183","yjc6n9hsy0dqtmm",21,"22.csv","","null","resources/maskTrios/L1BB.jpg","null","",NA,NA,NA,NA,""
"image-keyboard-response",562,493423,"0.0-3.183-2.183","yjc6n9hsy0dqtmm",21,"22.csv","","null","resources/images/fishbone.png","null","",NA,NA,NA,NA,""
"image-keyboard-response",563,493725,"0.0-3.184-0.184","yjc6n9hsy0dqtmm",21,"22.csv","","299.7999999523163","resources/trios/L4T1A3.jpg","38","restless",0.7,0.2,0.7,0.743085334163802,"false"
"image-keyboard-response",564,494129,"0.0-3.184-1.184","yjc6n9hsy0dqtmm",21,"22.csv","","null","resources/maskTrios/BT1B.jpg","null","",NA,NA,NA,NA,""
"image-keyboard-response",565,495332,"0.0-3.184-2.184","yjc6n9hsy0dqtmm",21,"22.csv","","null","resources/images/fishbone.png","null","",NA,NA,NA,NA,""
"image-keyboard-response",566,496860,"0.0-3.185-0.185","yjc6n9hsy0dqtmm",21,"22.csv","","1525","resources/trios/L1T1A1.jpg","38","restless",0.7,0.2,0.7,0.527869379447313,"false"
"image-keyboard-response",567,497267,"0.0-3.185-1.185","yjc6n9hsy0dqtmm",21,"22.csv","","null","resources/maskTrios/BT1B.jpg","null","",NA,NA,NA,NA,""
"image-keyboard-response",568,498471,"0.0-3.185-2.185","yjc6n9hsy0dqtmm",21,"22.csv","","null","resources/images/fishbone.png","null","",NA,NA,NA,NA,""
"image-keyboard-response",569,499216,"0.0-3.186-0.186","yjc6n9hsy0dqtmm",21,"22.csv","","742.4000000357628","resources/trios/L1T1A3.jpg","38","restless",0.7,0.3,0.7,0.22248839245414,"true"
"image-keyboard-response",570,499621,"0.0-3.186-1.186","yjc6n9hsy0dqtmm",21,"22.csv","","null","resources/maskTrios/BT1B.jpg","null","",NA,NA,NA,NA,""
"image-keyboard-response",571,500827,"0.0-3.186-2.186","yjc6n9hsy0dqtmm",21,"22.csv","","null","resources/images/coin2.png","null","",NA,NA,NA,NA,""
"image-keyboard-response",572,501226,"0.0-3.187-0.187","yjc6n9hsy0dqtmm",21,"22.csv","","397.4000000357628","resources/trios/L1T1A1.jpg","38","restless",0.7,0.3,0.7,0.281207572647829,"true"
"image-keyboard-response",573,501632,"0.0-3.187-1.187","yjc6n9hsy0dqtmm",21,"22.csv","","null","resources/maskTrios/BT1B.jpg","null","",NA,NA,NA,NA,""
"image-keyboard-response",574,502838,"0.0-3.187-2.187","yjc6n9hsy0dqtmm",21,"22.csv","","null","resources/images/coin2.png","null","",NA,NA,NA,NA,""
"image-keyboard-response",575,503274,"0.0-3.188-0.188","yjc6n9hsy0dqtmm",21,"22.csv","","433.2999999523163","resources/trios/L1T4A1.jpg","38","restless",0.7,0.3,0.7,0.707425212029908,"false"
"image-keyboard-response",576,503681,"0.0-3.188-1.188","yjc6n9hsy0dqtmm",21,"22.csv","","null","resources/maskTrios/BT4B.jpg","null","",NA,NA,NA,NA,""
"image-keyboard-response",577,504888,"0.0-3.188-2.188","yjc6n9hsy0dqtmm",21,"22.csv","","null","resources/images/fishbone.png","null","",NA,NA,NA,NA,""
"image-keyboard-response",578,505838,"0.0-3.189-0.189","yjc6n9hsy0dqtmm",21,"22.csv","","946.8000000119209","resources/trios/L4T4A1.jpg","38","restless",0.7,0.3,0.8,0.0948116829113594,"true"
"image-keyboard-response",579,506245,"0.0-3.189-1.189","yjc6n9hsy0dqtmm",21,"22.csv","","null","resources/maskTrios/BT4B.jpg","null","",NA,NA,NA,NA,""
"image-keyboard-response",580,507448,"0.0-3.189-2.189","yjc6n9hsy0dqtmm",21,"22.csv","","null","resources/images/coin2.png","null","",NA,NA,NA,NA,""
"image-keyboard-response",581,521863,"0.0-3.190-0.190","yjc6n9hsy0dqtmm",21,"22.csv","","14412.700000047684","resources/trios/L4T4A3.jpg","38","restless",0.6,0.2,0.8,0.266809324019049,"false"
"image-keyboard-response",582,522270,"0.0-3.190-1.190","yjc6n9hsy0dqtmm",21,"22.csv","","null","resources/maskTrios/BT4B.jpg","null","",NA,NA,NA,NA,""
"image-keyboard-response",583,523475,"0.0-3.190-2.190","yjc6n9hsy0dqtmm",21,"22.csv","","null","resources/images/fishbone.png","null","",NA,NA,NA,NA,""
"image-keyboard-response",584,524054,"0.0-3.191-0.191","yjc6n9hsy0dqtmm",21,"22.csv","","576.6999999880791","resources/trios/L1T4A3.jpg","38","restless",0.6,0.2,0.8,0.722805736406276,"false"
"image-keyboard-response",585,524460,"0.0-3.191-1.191","yjc6n9hsy0dqtmm",21,"22.csv","","null","resources/maskTrios/BT4B.jpg","null","",NA,NA,NA,NA,""
"image-keyboard-response",586,525665,"0.0-3.191-2.191","yjc6n9hsy0dqtmm",21,"22.csv","","null","resources/images/fishbone.png","null","",NA,NA,NA,NA,""
"image-keyboard-response",587,525824,"0.0-3.192-0.192","yjc6n9hsy0dqtmm",21,"22.csv","","156.30000001192093","resources/trios/L1T4A1.jpg","39","restless",0.6,0.2,0.8,0.233389344579101,"true"
"image-keyboard-response",588,526231,"0.0-3.192-1.192","yjc6n9hsy0dqtmm",21,"22.csv","","null","resources/maskTrios/BBA1.jpg","null","",NA,NA,NA,NA,""
"image-keyboard-response",589,527438,"0.0-3.192-2.192","yjc6n9hsy0dqtmm",21,"22.csv","","null","resources/images/coin2.png","null","",NA,NA,NA,NA,""
"image-keyboard-response",590,527766,"0.0-3.193-0.193","yjc6n9hsy0dqtmm",21,"22.csv","","324.89999997615814","resources/trios/L4T1A1.jpg","39","restless",0.6,0.2,0.8,0.982272650552446,"false"
"image-keyboard-response",591,528170,"0.0-3.193-1.193","yjc6n9hsy0dqtmm",21,"22.csv","","null","resources/maskTrios/BBA1.jpg","null","",NA,NA,NA,NA,""
"image-keyboard-response",592,529377,"0.0-3.193-2.193","yjc6n9hsy0dqtmm",21,"22.csv","","null","resources/images/fishbone.png","null","",NA,NA,NA,NA,""
"image-keyboard-response",593,529666,"0.0-3.194-0.194","yjc6n9hsy0dqtmm",21,"22.csv","","286.5","resources/trios/L4T1A3.jpg","37","restless",0.6,0.2,0.8,0.296834157057616,"true"
"image-keyboard-response",594,530071,"0.0-3.194-1.194","yjc6n9hsy0dqtmm",21,"22.csv","","null","resources/maskTrios/L4BB.jpg","null","",NA,NA,NA,NA,""
"image-keyboard-response",595,531277,"0.0-3.194-2.194","yjc6n9hsy0dqtmm",21,"22.csv","","null","resources/images/coin2.png","null","",NA,NA,NA,NA,""
"image-keyboard-response",596,532123,"0.0-3.195-0.195","yjc6n9hsy0dqtmm",21,"22.csv","","843.0999999642372","resources/trios/L4T4A3.jpg","37","restless",0.6,0.2,0.8,0.496491753953686,"true"
"image-keyboard-response",597,532528,"0.0-3.195-1.195","yjc6n9hsy0dqtmm",21,"22.csv","","null","resources/maskTrios/L4BB.jpg","null","",NA,NA,NA,NA,""
"image-keyboard-response",598,533732,"0.0-3.195-2.195","yjc6n9hsy0dqtmm",21,"22.csv","","null","resources/images/coin2.png","null","",NA,NA,NA,NA,""
"image-keyboard-response",599,534366,"0.0-3.196-0.196","yjc6n9hsy0dqtmm",21,"22.csv","","631.0999999642372","resources/trios/L4T1A1.jpg","37","restless",0.6,0.2,0.8,0.276787979517794,"true"
"image-keyboard-response",600,534770,"0.0-3.196-1.196","yjc6n9hsy0dqtmm",21,"22.csv","","null","resources/maskTrios/L4BB.jpg","null","",NA,NA,NA,NA,""
"image-keyboard-response",601,535977,"0.0-3.196-2.196","yjc6n9hsy0dqtmm",21,"22.csv","","null","resources/images/coin2.png","null","",NA,NA,NA,NA,""
"image-keyboard-response",602,536255,"0.0-3.197-0.197","yjc6n9hsy0dqtmm",21,"22.csv","","276.10000002384186","resources/trios/L4T4A1.jpg","37","restless",0.6,0.3,0.7,0.861481926991416,"false"
"image-keyboard-response",603,536660,"0.0-3.197-1.197","yjc6n9hsy0dqtmm",21,"22.csv","","null","resources/maskTrios/L4BB.jpg","null","",NA,NA,NA,NA,""
"image-keyboard-response",604,537867,"0.0-3.197-2.197","yjc6n9hsy0dqtmm",21,"22.csv","","null","resources/images/fishbone.png","null","",NA,NA,NA,NA,""
"image-keyboard-response",605,538398,"0.0-3.198-0.198","yjc6n9hsy0dqtmm",21,"22.csv","","527.3999999761581","resources/trios/L1T1A3.jpg","38","restless",0.6,0.3,0.7,0.953090605365817,"false"
"image-keyboard-response",606,538805,"0.0-3.198-1.198","yjc6n9hsy0dqtmm",21,"22.csv","","null","resources/maskTrios/BT1B.jpg","null","",NA,NA,NA,NA,""
"image-keyboard-response",607,540009,"0.0-3.198-2.198","yjc6n9hsy0dqtmm",21,"22.csv","","null","resources/images/fishbone.png","null","",NA,NA,NA,NA,""
"image-keyboard-response",608,540735,"0.0-3.199-0.199","yjc6n9hsy0dqtmm",21,"22.csv","","723.8000000119209","resources/trios/L1T4A3.jpg","38","restless",0.6,0.3,0.7,0.322150429515361,"false"
"image-keyboard-response",609,541143,"0.0-3.199-1.199","yjc6n9hsy0dqtmm",21,"22.csv","","null","resources/maskTrios/BT4B.jpg","null","",NA,NA,NA,NA,""
"image-keyboard-response",610,542350,"0.0-3.199-2.199","yjc6n9hsy0dqtmm",21,"22.csv","","null","resources/images/fishbone.png","null","",NA,NA,NA,NA,""
"image-keyboard-response",611,542574,"0.0-3.200-0.200","yjc6n9hsy0dqtmm",21,"22.csv","","221.30000001192093","resources/trios/L4T1A1.jpg","39","restless",0.6,0.3,0.6,0.255830526033356,"true"
"image-keyboard-response",612,542981,"0.0-3.200-1.200","yjc6n9hsy0dqtmm",21,"22.csv","","null","resources/maskTrios/BBA1.jpg","null","",NA,NA,NA,NA,""
"image-keyboard-response",613,544189,"0.0-3.200-2.200","yjc6n9hsy0dqtmm",21,"22.csv","","null","resources/images/coin2.png","null","",NA,NA,NA,NA,""
