"trial_type","trial_index","time_elapsed","internal_node_id","subject","participantCode","walkNumber","success","rt","stimulus","key_press","test_part","leftProb","midProb","rightProb","generatedNum","correct"
"pavlovia",0,1183,"0.0-0.0","wxdzqhzuohl7gnk",143,"139.csv","","","","","",NA,NA,NA,NA,""
"fullscreen",1,3115,"0.0-1.0","wxdzqhzuohl7gnk",143,"139.csv","true","","","","",NA,NA,NA,NA,""
"html-keyboard-response",2,14006,"0.0-2.0-0.0","wxdzqhzuohl7gnk",143,"139.csv","","10890","<p><font size='6'>Arrrgh!</p></font><p>Can you be the best pirate? Try to find lots of gold! But beware, some islands have more gold than others, and over time, the island with the most gold may change. Can YOU figure it out? </p><font size='6'>GOOD LUCK, CAPTAIN!!!</font><p>Press any key to begin</p>","39","",NA,NA,NA,NA,""
"image-keyboard-response",3,17011,"0.0-2.0-1.0","wxdzqhzuohl7gnk",143,"139.csv","","null","resources/image_sets/111.png","null","",NA,NA,NA,NA,""
"image-keyboard-response",4,160307,"0.0-2.0-2.0","wxdzqhzuohl7gnk",143,"139.csv","","143295.39999961853","resources/image_sets/left_highlight.png","37","",NA,NA,NA,NA,""
"image-keyboard-response",5,160939,"0.0-2.0-3.0","wxdzqhzuohl7gnk",143,"139.csv","","631.2999992370605","resources/image_sets/mid_highlight.png","38","",NA,NA,NA,NA,""
"image-keyboard-response",6,161523,"0.0-2.0-4.0","wxdzqhzuohl7gnk",143,"139.csv","","583.5","resources/image_sets/right_highlight.png","39","",NA,NA,NA,NA,""
"image-keyboard-response",7,164515,"0.0-2.0-5.0","wxdzqhzuohl7gnk",143,"139.csv","","2991.8999996185303","resources/image_sets/111.png","13","",NA,NA,NA,NA,""
"image-keyboard-response",8,166324,"0.0-2.0-6.0","wxdzqhzuohl7gnk",143,"139.csv","","1807.8000011444092","resources/images/coin2.png","13","",NA,NA,NA,NA,""
"image-keyboard-response",9,167524,"0.0-2.0-7.0","wxdzqhzuohl7gnk",143,"139.csv","","1199.3999996185303","resources/images/fishbone.png","13","",NA,NA,NA,NA,""
"html-keyboard-response",10,169468,"0.0-2.0-8.0","wxdzqhzuohl7gnk",143,"139.csv","","1943.599998474121","<p>Your first journey will be a long one, but you will get a well deserved break at the end</p><p>After the break you will have four more journeys, but each will be much shorter than the first, and you will have breaks in between each</p><p>Press Enter to begin</p>","13","",NA,NA,NA,NA,""
"image-keyboard-response",11,170612,"0.0-3.0-0.0","wxdzqhzuohl7gnk",143,"139.csv","","1143.099998474121","resources/trios/L1T2A2.jpg","37","restless",0.7,0.3,0.9,0.390151712275911,"true"
"image-keyboard-response",12,171030,"0.0-3.0-1.0","wxdzqhzuohl7gnk",143,"139.csv","","null","resources/maskTrios/L1BB.jpg","null","",NA,NA,NA,NA,""
"image-keyboard-response",13,172243,"0.0-3.0-2.0","wxdzqhzuohl7gnk",143,"139.csv","","null","resources/images/coin2.png","null","",NA,NA,NA,NA,""
"image-keyboard-response",14,174324,"0.0-3.1-0.1","wxdzqhzuohl7gnk",143,"139.csv","","2080.5","resources/trios/L2T2A2.jpg","37","restless",0.7,0.3,0.9,0.495588840379934,"true"
"image-keyboard-response",15,174733,"0.0-3.1-1.1","wxdzqhzuohl7gnk",143,"139.csv","","null","resources/maskTrios/L2BB.jpg","null","",NA,NA,NA,NA,""
"image-keyboard-response",16,175939,"0.0-3.1-2.1","wxdzqhzuohl7gnk",143,"139.csv","","null","resources/images/coin2.png","null","",NA,NA,NA,NA,""
"image-keyboard-response",17,176836,"0.0-3.2-0.2","wxdzqhzuohl7gnk",143,"139.csv","","896.3999996185303","resources/trios/L1T1A1.jpg","37","restless",0.7,0.3,0.9,0.607095194573327,"true"
"image-keyboard-response",18,177247,"0.0-3.2-1.2","wxdzqhzuohl7gnk",143,"139.csv","","null","resources/maskTrios/L1BB.jpg","null","",NA,NA,NA,NA,""
"image-keyboard-response",19,178450,"0.0-3.2-2.2","wxdzqhzuohl7gnk",143,"139.csv","","null","resources/images/coin2.png","null","",NA,NA,NA,NA,""
"image-keyboard-response",20,179069,"0.0-3.3-0.3","wxdzqhzuohl7gnk",143,"139.csv","","617.8999996185303","resources/trios/L2T1A2.jpg","37","restless",0.7,0.3,0.9,0.248076486939651,"true"
"image-keyboard-response",21,179475,"0.0-3.3-1.3","wxdzqhzuohl7gnk",143,"139.csv","","null","resources/maskTrios/L2BB.jpg","null","",NA,NA,NA,NA,""
"image-keyboard-response",22,180687,"0.0-3.3-2.3","wxdzqhzuohl7gnk",143,"139.csv","","null","resources/images/coin2.png","null","",NA,NA,NA,NA,""
"image-keyboard-response",23,181197,"0.0-3.4-0.4","wxdzqhzuohl7gnk",143,"139.csv","","509.1000003814697","resources/trios/L1T1A1.jpg","37","restless",0.7,0.3,0.9,0.721091261689089,"false"
"image-keyboard-response",24,181605,"0.0-3.4-1.4","wxdzqhzuohl7gnk",143,"139.csv","","null","resources/maskTrios/L1BB.jpg","null","",NA,NA,NA,NA,""
"image-keyboard-response",25,182813,"0.0-3.4-2.4","wxdzqhzuohl7gnk",143,"139.csv","","null","resources/images/fishbone.png","null","",NA,NA,NA,NA,""
"image-keyboard-response",26,183685,"0.0-3.5-0.5","wxdzqhzuohl7gnk",143,"139.csv","","872.1999988555908","resources/trios/L1T1A2.jpg","38","restless",0.7,0.3,0.9,0.522721941944962,"false"
"image-keyboard-response",27,184091,"0.0-3.5-1.5","wxdzqhzuohl7gnk",143,"139.csv","","null","resources/maskTrios/BT1B.jpg","null","",NA,NA,NA,NA,""
"image-keyboard-response",28,185312,"0.0-3.5-2.5","wxdzqhzuohl7gnk",143,"139.csv","","null","resources/images/fishbone.png","null","",NA,NA,NA,NA,""
"image-keyboard-response",29,185765,"0.0-3.6-0.6","wxdzqhzuohl7gnk",143,"139.csv","","452.79999923706055","resources/trios/L2T2A1.jpg","37","restless",0.7,0.3,0.9,0.491002717044854,"true"
"image-keyboard-response",30,186184,"0.0-3.6-1.6","wxdzqhzuohl7gnk",143,"139.csv","","null","resources/maskTrios/L2BB.jpg","null","",NA,NA,NA,NA,""
"image-keyboard-response",31,187397,"0.0-3.6-2.6","wxdzqhzuohl7gnk",143,"139.csv","","null","resources/images/coin2.png","null","",NA,NA,NA,NA,""
"image-keyboard-response",32,187910,"0.0-3.7-0.7","wxdzqhzuohl7gnk",143,"139.csv","","511.70000076293945","resources/trios/L2T1A2.jpg","37","restless",0.7,0.3,0.9,0.631775266643213,"true"
"image-keyboard-response",33,188327,"0.0-3.7-1.7","wxdzqhzuohl7gnk",143,"139.csv","","null","resources/maskTrios/L2BB.jpg","null","",NA,NA,NA,NA,""
"image-keyboard-response",34,189541,"0.0-3.7-2.7","wxdzqhzuohl7gnk",143,"139.csv","","null","resources/images/coin2.png","null","",NA,NA,NA,NA,""
"image-keyboard-response",35,190334,"0.0-3.8-0.8","wxdzqhzuohl7gnk",143,"139.csv","","792","resources/trios/L1T1A1.jpg","37","restless",0.7,0.3,0.8,0.427453597926374,"true"
"image-keyboard-response",36,190746,"0.0-3.8-1.8","wxdzqhzuohl7gnk",143,"139.csv","","null","resources/maskTrios/L1BB.jpg","null","",NA,NA,NA,NA,""
"image-keyboard-response",37,191963,"0.0-3.8-2.8","wxdzqhzuohl7gnk",143,"139.csv","","null","resources/images/coin2.png","null","",NA,NA,NA,NA,""
"image-keyboard-response",38,192414,"0.0-3.9-0.9","wxdzqhzuohl7gnk",143,"139.csv","","450.6999988555908","resources/trios/L1T2A2.jpg","37","restless",0.7,0.3,0.8,0.84028920252411,"false"
"image-keyboard-response",39,192833,"0.0-3.9-1.9","wxdzqhzuohl7gnk",143,"139.csv","","null","resources/maskTrios/L1BB.jpg","null","",NA,NA,NA,NA,""
"image-keyboard-response",40,194047,"0.0-3.9-2.9","wxdzqhzuohl7gnk",143,"139.csv","","null","resources/images/fishbone.png","null","",NA,NA,NA,NA,""
"image-keyboard-response",41,194582,"0.0-3.10-0.10","wxdzqhzuohl7gnk",143,"139.csv","","534.5","resources/trios/L2T2A2.jpg","38","restless",0.7,0.3,0.8,0.893005811458508,"false"
"image-keyboard-response",42,194994,"0.0-3.10-1.10","wxdzqhzuohl7gnk",143,"139.csv","","null","resources/maskTrios/BT2B.jpg","null","",NA,NA,NA,NA,""
"image-keyboard-response",43,196211,"0.0-3.10-2.10","wxdzqhzuohl7gnk",143,"139.csv","","null","resources/images/fishbone.png","null","",NA,NA,NA,NA,""
"image-keyboard-response",44,196582,"0.0-3.11-0.11","wxdzqhzuohl7gnk",143,"139.csv","","370.5","resources/trios/L1T1A1.jpg","37","restless",0.7,0.3,0.8,0.882545051910814,"false"
"image-keyboard-response",45,196990,"0.0-3.11-1.11","wxdzqhzuohl7gnk",143,"139.csv","","null","resources/maskTrios/L1BB.jpg","null","",NA,NA,NA,NA,""
"image-keyboard-response",46,198202,"0.0-3.11-2.11","wxdzqhzuohl7gnk",143,"139.csv","","null","resources/images/fishbone.png","null","",NA,NA,NA,NA,""
"image-keyboard-response",47,199263,"0.0-3.12-0.12","wxdzqhzuohl7gnk",143,"139.csv","","1060.2000007629395","resources/trios/L1T2A1.jpg","37","restless",0.7,0.3,0.8,0.829164628115704,"false"
"image-keyboard-response",48,199668,"0.0-3.12-1.12","wxdzqhzuohl7gnk",143,"139.csv","","null","resources/maskTrios/L1BB.jpg","null","",NA,NA,NA,NA,""
"image-keyboard-response",49,200884,"0.0-3.12-2.12","wxdzqhzuohl7gnk",143,"139.csv","","null","resources/images/fishbone.png","null","",NA,NA,NA,NA,""
"image-keyboard-response",50,201127,"0.0-3.13-0.13","wxdzqhzuohl7gnk",143,"139.csv","","241.89999961853027","resources/trios/L1T2A1.jpg","39","restless",0.7,0.3,0.8,0.949458374860024,"false"
"image-keyboard-response",51,201539,"0.0-3.13-1.13","wxdzqhzuohl7gnk",143,"139.csv","","null","resources/maskTrios/BBA1.jpg","null","",NA,NA,NA,NA,""
"image-keyboard-response",52,202757,"0.0-3.13-2.13","wxdzqhzuohl7gnk",143,"139.csv","","null","resources/images/fishbone.png","null","",NA,NA,NA,NA,""
"image-keyboard-response",53,203527,"0.0-3.14-0.14","wxdzqhzuohl7gnk",143,"139.csv","","769.5","resources/trios/L1T1A2.jpg","37","restless",0.7,0.3,0.8,0.158449951379606,"true"
"image-keyboard-response",54,203937,"0.0-3.14-1.14","wxdzqhzuohl7gnk",143,"139.csv","","null","resources/maskTrios/L1BB.jpg","null","",NA,NA,NA,NA,""
"image-keyboard-response",55,205144,"0.0-3.14-2.14","wxdzqhzuohl7gnk",143,"139.csv","","null","resources/images/coin2.png","null","",NA,NA,NA,NA,""
"image-keyboard-response",56,205503,"0.0-3.15-0.15","wxdzqhzuohl7gnk",143,"139.csv","","358.3999996185303","resources/trios/L2T2A2.jpg","37","restless",0.6,0.3,0.8,0.654184233252342,"false"
"image-keyboard-response",57,205921,"0.0-3.15-1.15","wxdzqhzuohl7gnk",143,"139.csv","","null","resources/maskTrios/L2BB.jpg","null","",NA,NA,NA,NA,""
"image-keyboard-response",58,207135,"0.0-3.15-2.15","wxdzqhzuohl7gnk",143,"139.csv","","null","resources/images/fishbone.png","null","",NA,NA,NA,NA,""
"image-keyboard-response",59,207751,"0.0-3.16-0.16","wxdzqhzuohl7gnk",143,"139.csv","","615.7000007629395","resources/trios/L2T2A2.jpg","38","restless",0.6,0.3,0.8,0.655917717751444,"false"
"image-keyboard-response",60,208164,"0.0-3.16-1.16","wxdzqhzuohl7gnk",143,"139.csv","","null","resources/maskTrios/BT2B.jpg","null","",NA,NA,NA,NA,""
"image-keyboard-response",61,209381,"0.0-3.16-2.16","wxdzqhzuohl7gnk",143,"139.csv","","null","resources/images/fishbone.png","null","",NA,NA,NA,NA,""
"image-keyboard-response",62,209560,"0.0-3.17-0.17","wxdzqhzuohl7gnk",143,"139.csv","","178.30000114440918","resources/trios/L2T2A1.jpg","37","restless",0.6,0.3,0.8,0.850811345748207,"false"
"image-keyboard-response",63,209975,"0.0-3.17-1.17","wxdzqhzuohl7gnk",143,"139.csv","","null","resources/maskTrios/L2BB.jpg","null","",NA,NA,NA,NA,""
"image-keyboard-response",64,211190,"0.0-3.17-2.17","wxdzqhzuohl7gnk",143,"139.csv","","null","resources/images/fishbone.png","null","",NA,NA,NA,NA,""
"image-keyboard-response",65,211328,"0.0-3.18-0.18","wxdzqhzuohl7gnk",143,"139.csv","","137.30000114440918","resources/trios/L1T2A2.jpg","38","restless",0.6,0.4,0.8,0.262266231119203,"true"
"image-keyboard-response",66,211732,"0.0-3.18-1.18","wxdzqhzuohl7gnk",143,"139.csv","","null","resources/maskTrios/BT2B.jpg","null","",NA,NA,NA,NA,""
"image-keyboard-response",67,212941,"0.0-3.18-2.18","wxdzqhzuohl7gnk",143,"139.csv","","null","resources/images/coin2.png","null","",NA,NA,NA,NA,""
"image-keyboard-response",68,213616,"0.0-3.19-0.19","wxdzqhzuohl7gnk",143,"139.csv","","674.1000003814697","resources/trios/L1T1A2.jpg","38","restless",0.6,0.4,0.8,0.992223013207222,"false"
"image-keyboard-response",69,214031,"0.0-3.19-1.19","wxdzqhzuohl7gnk",143,"139.csv","","null","resources/maskTrios/BT1B.jpg","null","",NA,NA,NA,NA,""
"image-keyboard-response",70,215243,"0.0-3.19-2.19","wxdzqhzuohl7gnk",143,"139.csv","","null","resources/images/fishbone.png","null","",NA,NA,NA,NA,""
"image-keyboard-response",71,215856,"0.0-3.20-0.20","wxdzqhzuohl7gnk",143,"139.csv","","612.3999996185303","resources/trios/L2T1A1.jpg","37","restless",0.6,0.4,0.8,0.333748013930913,"true"
"image-keyboard-response",72,216259,"0.0-3.20-1.20","wxdzqhzuohl7gnk",143,"139.csv","","null","resources/maskTrios/L2BB.jpg","null","",NA,NA,NA,NA,""
"image-keyboard-response",73,217476,"0.0-3.20-2.20","wxdzqhzuohl7gnk",143,"139.csv","","null","resources/images/coin2.png","null","",NA,NA,NA,NA,""
"image-keyboard-response",74,217785,"0.0-3.21-0.21","wxdzqhzuohl7gnk",143,"139.csv","","307.6000003814697","resources/trios/L2T2A2.jpg","37","restless",0.6,0.5,0.8,0.789929755435535,"false"
"image-keyboard-response",75,218191,"0.0-3.21-1.21","wxdzqhzuohl7gnk",143,"139.csv","","null","resources/maskTrios/L2BB.jpg","null","",NA,NA,NA,NA,""
"image-keyboard-response",76,219407,"0.0-3.21-2.21","wxdzqhzuohl7gnk",143,"139.csv","","null","resources/images/fishbone.png","null","",NA,NA,NA,NA,""
"image-keyboard-response",77,220193,"0.0-3.22-0.22","wxdzqhzuohl7gnk",143,"139.csv","","785","resources/trios/L2T1A2.jpg","37","restless",0.6,0.6,0.8,0.261980215428667,"true"
"image-keyboard-response",78,220597,"0.0-3.22-1.22","wxdzqhzuohl7gnk",143,"139.csv","","null","resources/maskTrios/L2BB.jpg","null","",NA,NA,NA,NA,""
"image-keyboard-response",79,221802,"0.0-3.22-2.22","wxdzqhzuohl7gnk",143,"139.csv","","null","resources/images/coin2.png","null","",NA,NA,NA,NA,""
"image-keyboard-response",80,222849,"0.0-3.23-0.23","wxdzqhzuohl7gnk",143,"139.csv","","1046.3999996185303","resources/trios/L1T2A1.jpg","37","restless",0.6,0.6,0.7,0.734147527865745,"false"
"image-keyboard-response",81,223262,"0.0-3.23-1.23","wxdzqhzuohl7gnk",143,"139.csv","","null","resources/maskTrios/L1BB.jpg","null","",NA,NA,NA,NA,""
"image-keyboard-response",82,224479,"0.0-3.23-2.23","wxdzqhzuohl7gnk",143,"139.csv","","null","resources/images/fishbone.png","null","",NA,NA,NA,NA,""
"image-keyboard-response",83,225641,"0.0-3.24-0.24","wxdzqhzuohl7gnk",143,"139.csv","","1161.8999996185303","resources/trios/L2T1A1.jpg","38","restless",0.5,0.6,0.7,0.333109499269899,"true"
"image-keyboard-response",84,226052,"0.0-3.24-1.24","wxdzqhzuohl7gnk",143,"139.csv","","null","resources/maskTrios/BT1B.jpg","null","",NA,NA,NA,NA,""
"image-keyboard-response",85,227259,"0.0-3.24-2.24","wxdzqhzuohl7gnk",143,"139.csv","","null","resources/images/coin2.png","null","",NA,NA,NA,NA,""
"image-keyboard-response",86,228378,"0.0-3.25-0.25","wxdzqhzuohl7gnk",143,"139.csv","","1118.2000007629395","resources/trios/L2T2A1.jpg","38","restless",0.5,0.5,0.7,0.72580984967284,"false"
"image-keyboard-response",87,228793,"0.0-3.25-1.25","wxdzqhzuohl7gnk",143,"139.csv","","null","resources/maskTrios/BT2B.jpg","null","",NA,NA,NA,NA,""
"image-keyboard-response",88,230003,"0.0-3.25-2.25","wxdzqhzuohl7gnk",143,"139.csv","","null","resources/images/fishbone.png","null","",NA,NA,NA,NA,""
"image-keyboard-response",89,230690,"0.0-3.26-0.26","wxdzqhzuohl7gnk",143,"139.csv","","686.0999984741211","resources/trios/L2T2A1.jpg","39","restless",0.5,0.5,0.6,0.310014399199152,"true"
"image-keyboard-response",90,231107,"0.0-3.26-1.26","wxdzqhzuohl7gnk",143,"139.csv","","null","resources/maskTrios/BBA1.jpg","null","",NA,NA,NA,NA,""
"image-keyboard-response",91,232319,"0.0-3.26-2.26","wxdzqhzuohl7gnk",143,"139.csv","","null","resources/images/coin2.png","null","",NA,NA,NA,NA,""
"image-keyboard-response",92,232618,"0.0-3.27-0.27","wxdzqhzuohl7gnk",143,"139.csv","","298.3999996185303","resources/trios/L2T2A1.jpg","37","restless",0.5,0.5,0.5,0.0809821970960747,"true"
"image-keyboard-response",93,233032,"0.0-3.27-1.27","wxdzqhzuohl7gnk",143,"139.csv","","null","resources/maskTrios/L2BB.jpg","null","",NA,NA,NA,NA,""
"image-keyboard-response",94,234249,"0.0-3.27-2.27","wxdzqhzuohl7gnk",143,"139.csv","","null","resources/images/coin2.png","null","",NA,NA,NA,NA,""
"image-keyboard-response",95,234403,"0.0-3.28-0.28","wxdzqhzuohl7gnk",143,"139.csv","","153.20000076293945","resources/trios/L1T1A1.jpg","37","restless",0.5,0.5,0.5,0.00491135451730984,"true"
"image-keyboard-response",96,234825,"0.0-3.28-1.28","wxdzqhzuohl7gnk",143,"139.csv","","null","resources/maskTrios/L1BB.jpg","null","",NA,NA,NA,NA,""
"image-keyboard-response",97,236030,"0.0-3.28-2.28","wxdzqhzuohl7gnk",143,"139.csv","","null","resources/images/coin2.png","null","",NA,NA,NA,NA,""
"image-keyboard-response",98,236362,"0.0-3.29-0.29","wxdzqhzuohl7gnk",143,"139.csv","","331.6000003814697","resources/trios/L2T2A2.jpg","37","restless",0.5,0.5,0.5,0.547459246418461,"false"
"image-keyboard-response",99,236778,"0.0-3.29-1.29","wxdzqhzuohl7gnk",143,"139.csv","","null","resources/maskTrios/L2BB.jpg","null","",NA,NA,NA,NA,""
"image-keyboard-response",100,237995,"0.0-3.29-2.29","wxdzqhzuohl7gnk",143,"139.csv","","null","resources/images/fishbone.png","null","",NA,NA,NA,NA,""
"image-keyboard-response",101,238291,"0.0-3.30-0.30","wxdzqhzuohl7gnk",143,"139.csv","","294.8999996185303","resources/trios/L2T1A1.jpg","39","restless",0.5,0.5,0.5,0.675299141061256,"false"
"image-keyboard-response",102,238711,"0.0-3.30-1.30","wxdzqhzuohl7gnk",143,"139.csv","","null","resources/maskTrios/BBA1.jpg","null","",NA,NA,NA,NA,""
"image-keyboard-response",103,239925,"0.0-3.30-2.30","wxdzqhzuohl7gnk",143,"139.csv","","null","resources/images/fishbone.png","null","",NA,NA,NA,NA,""
"image-keyboard-response",104,240075,"0.0-3.31-0.31","wxdzqhzuohl7gnk",143,"139.csv","","149","resources/trios/L2T1A2.jpg","38","restless",0.5,0.5,0.5,0.808821517644218,"false"
"image-keyboard-response",105,240487,"0.0-3.31-1.31","wxdzqhzuohl7gnk",143,"139.csv","","null","resources/maskTrios/BT1B.jpg","null","",NA,NA,NA,NA,""
"image-keyboard-response",106,241704,"0.0-3.31-2.31","wxdzqhzuohl7gnk",143,"139.csv","","null","resources/images/fishbone.png","null","",NA,NA,NA,NA,""
"image-keyboard-response",107,242139,"0.0-3.32-0.32","wxdzqhzuohl7gnk",143,"139.csv","","434.29999923706055","resources/trios/L1T1A1.jpg","39","restless",0.5,0.5,0.5,0.552417065727516,"false"
"image-keyboard-response",108,242561,"0.0-3.32-1.32","wxdzqhzuohl7gnk",143,"139.csv","","null","resources/maskTrios/BBA1.jpg","null","",NA,NA,NA,NA,""
"image-keyboard-response",109,243777,"0.0-3.32-2.32","wxdzqhzuohl7gnk",143,"139.csv","","null","resources/images/fishbone.png","null","",NA,NA,NA,NA,""
"image-keyboard-response",110,243963,"0.0-3.33-0.33","wxdzqhzuohl7gnk",143,"139.csv","","185.70000076293945","resources/trios/L2T2A1.jpg","37","restless",0.5,0.5,0.5,0.746195386703148,"false"
"image-keyboard-response",111,244382,"0.0-3.33-1.33","wxdzqhzuohl7gnk",143,"139.csv","","null","resources/maskTrios/L2BB.jpg","null","",NA,NA,NA,NA,""
"image-keyboard-response",112,245598,"0.0-3.33-2.33","wxdzqhzuohl7gnk",143,"139.csv","","null","resources/images/fishbone.png","null","",NA,NA,NA,NA,""
"image-keyboard-response",113,247292,"0.0-3.34-0.34","wxdzqhzuohl7gnk",143,"139.csv","","1692.8000011444092","resources/trios/L1T1A1.jpg","38","restless",0.5,0.5,0.5,0.672983456037177,"false"
"image-keyboard-response",114,247702,"0.0-3.34-1.34","wxdzqhzuohl7gnk",143,"139.csv","","null","resources/maskTrios/BT1B.jpg","null","",NA,NA,NA,NA,""
"image-keyboard-response",115,248915,"0.0-3.34-2.34","wxdzqhzuohl7gnk",143,"139.csv","","null","resources/images/fishbone.png","null","",NA,NA,NA,NA,""
"image-keyboard-response",116,250172,"0.0-3.35-0.35","wxdzqhzuohl7gnk",143,"139.csv","","1256","resources/trios/L2T1A2.jpg","37","restless",0.5,0.5,0.5,0.0881766636157892,"true"
"image-keyboard-response",117,250591,"0.0-3.35-1.35","wxdzqhzuohl7gnk",143,"139.csv","","null","resources/maskTrios/L2BB.jpg","null","",NA,NA,NA,NA,""
"image-keyboard-response",118,251808,"0.0-3.35-2.35","wxdzqhzuohl7gnk",143,"139.csv","","null","resources/images/coin2.png","null","",NA,NA,NA,NA,""
"image-keyboard-response",119,253380,"0.0-3.36-0.36","wxdzqhzuohl7gnk",143,"139.csv","","1571.1000003814697","resources/trios/L1T1A1.jpg","38","restless",0.5,0.5,0.4,0.576755642351336,"false"
"image-keyboard-response",120,253793,"0.0-3.36-1.36","wxdzqhzuohl7gnk",143,"139.csv","","null","resources/maskTrios/BT1B.jpg","null","",NA,NA,NA,NA,""
"image-keyboard-response",121,255007,"0.0-3.36-2.36","wxdzqhzuohl7gnk",143,"139.csv","","null","resources/images/fishbone.png","null","",NA,NA,NA,NA,""
"image-keyboard-response",122,255380,"0.0-3.37-0.37","wxdzqhzuohl7gnk",143,"139.csv","","373.1999988555908","resources/trios/L2T2A2.jpg","37","restless",0.5,0.5,0.4,0.333210749863152,"true"
"image-keyboard-response",123,255800,"0.0-3.37-1.37","wxdzqhzuohl7gnk",143,"139.csv","","null","resources/maskTrios/L2BB.jpg","null","",NA,NA,NA,NA,""
"image-keyboard-response",124,257014,"0.0-3.37-2.37","wxdzqhzuohl7gnk",143,"139.csv","","null","resources/images/coin2.png","null","",NA,NA,NA,NA,""
"image-keyboard-response",125,257301,"0.0-3.38-0.38","wxdzqhzuohl7gnk",143,"139.csv","","285.70000076293945","resources/trios/L2T2A1.jpg","37","restless",0.4,0.5,0.4,0.979903344929765,"false"
"image-keyboard-response",126,257717,"0.0-3.38-1.38","wxdzqhzuohl7gnk",143,"139.csv","","null","resources/maskTrios/L2BB.jpg","null","",NA,NA,NA,NA,""
"image-keyboard-response",127,258932,"0.0-3.38-2.38","wxdzqhzuohl7gnk",143,"139.csv","","null","resources/images/fishbone.png","null","",NA,NA,NA,NA,""
"image-keyboard-response",128,259277,"0.0-3.39-0.39","wxdzqhzuohl7gnk",143,"139.csv","","344.1999988555908","resources/trios/L2T1A2.jpg","37","restless",0.4,0.6,0.4,0.954422217231658,"false"
"image-keyboard-response",129,259694,"0.0-3.39-1.39","wxdzqhzuohl7gnk",143,"139.csv","","null","resources/maskTrios/L2BB.jpg","null","",NA,NA,NA,NA,""
"image-keyboard-response",130,260910,"0.0-3.39-2.39","wxdzqhzuohl7gnk",143,"139.csv","","null","resources/images/fishbone.png","null","",NA,NA,NA,NA,""
"image-keyboard-response",131,261229,"0.0-3.40-0.40","wxdzqhzuohl7gnk",143,"139.csv","","318.1999988555908","resources/trios/L1T1A2.jpg","38","restless",0.4,0.6,0.5,0.828910278013995,"false"
"image-keyboard-response",132,261645,"0.0-3.40-1.40","wxdzqhzuohl7gnk",143,"139.csv","","null","resources/maskTrios/BT1B.jpg","null","",NA,NA,NA,NA,""
"image-keyboard-response",133,262855,"0.0-3.40-2.40","wxdzqhzuohl7gnk",143,"139.csv","","null","resources/images/fishbone.png","null","",NA,NA,NA,NA,""
"image-keyboard-response",134,263805,"0.0-3.41-0.41","wxdzqhzuohl7gnk",143,"139.csv","","949.2000007629395","resources/trios/L2T1A1.jpg","37","restless",0.4,0.6,0.5,0.900798531970894,"false"
"image-keyboard-response",135,264224,"0.0-3.41-1.41","wxdzqhzuohl7gnk",143,"139.csv","","null","resources/maskTrios/L2BB.jpg","null","",NA,NA,NA,NA,""
"image-keyboard-response",136,265436,"0.0-3.41-2.41","wxdzqhzuohl7gnk",143,"139.csv","","null","resources/images/fishbone.png","null","",NA,NA,NA,NA,""
"image-keyboard-response",137,265957,"0.0-3.42-0.42","wxdzqhzuohl7gnk",143,"139.csv","","520.7999992370605","resources/trios/L1T1A1.jpg","38","restless",0.4,0.6,0.6,0.923134977108543,"false"
"image-keyboard-response",138,266373,"0.0-3.42-1.42","wxdzqhzuohl7gnk",143,"139.csv","","null","resources/maskTrios/BT1B.jpg","null","",NA,NA,NA,NA,""
"image-keyboard-response",139,267587,"0.0-3.42-2.42","wxdzqhzuohl7gnk",143,"139.csv","","null","resources/images/fishbone.png","null","",NA,NA,NA,NA,""
"image-keyboard-response",140,267638,"0.0-3.43-0.43","wxdzqhzuohl7gnk",143,"139.csv","","50.20000076293945","resources/trios/L2T2A1.jpg","39","restless",0.4,0.6,0.6,0.0923660114204545,"true"
"image-keyboard-response",141,268041,"0.0-3.43-1.43","wxdzqhzuohl7gnk",143,"139.csv","","null","resources/maskTrios/BBA1.jpg","null","",NA,NA,NA,NA,""
"image-keyboard-response",142,269248,"0.0-3.43-2.43","wxdzqhzuohl7gnk",143,"139.csv","","null","resources/images/coin2.png","null","",NA,NA,NA,NA,""
"image-keyboard-response",143,269662,"0.0-3.44-0.44","wxdzqhzuohl7gnk",143,"139.csv","","413.8999996185303","resources/trios/L1T2A1.jpg","39","restless",0.4,0.6,0.6,0.814238070957636,"false"
"image-keyboard-response",144,270070,"0.0-3.44-1.44","wxdzqhzuohl7gnk",143,"139.csv","","null","resources/maskTrios/BBA1.jpg","null","",NA,NA,NA,NA,""
"image-keyboard-response",145,271283,"0.0-3.44-2.44","wxdzqhzuohl7gnk",143,"139.csv","","null","resources/images/fishbone.png","null","",NA,NA,NA,NA,""
"image-keyboard-response",146,272030,"0.0-3.45-0.45","wxdzqhzuohl7gnk",143,"139.csv","","746.2000007629395","resources/trios/L2T2A1.jpg","39","restless",0.4,0.6,0.6,0.363833930259449,"true"
"image-keyboard-response",147,272436,"0.0-3.45-1.45","wxdzqhzuohl7gnk",143,"139.csv","","null","resources/maskTrios/BBA1.jpg","null","",NA,NA,NA,NA,""
"image-keyboard-response",148,273649,"0.0-3.45-2.45","wxdzqhzuohl7gnk",143,"139.csv","","null","resources/images/coin2.png","null","",NA,NA,NA,NA,""
"image-keyboard-response",149,274102,"0.0-3.46-0.46","wxdzqhzuohl7gnk",143,"139.csv","","452.70000076293945","resources/trios/L1T1A2.jpg","39","restless",0.4,0.5,0.6,0.951308355692292,"false"
"image-keyboard-response",150,274521,"0.0-3.46-1.46","wxdzqhzuohl7gnk",143,"139.csv","","null","resources/maskTrios/BBA2.jpg","null","",NA,NA,NA,NA,""
"image-keyboard-response",151,275735,"0.0-3.46-2.46","wxdzqhzuohl7gnk",143,"139.csv","","null","resources/images/fishbone.png","null","",NA,NA,NA,NA,""
"image-keyboard-response",152,276158,"0.0-3.47-0.47","wxdzqhzuohl7gnk",143,"139.csv","","422.8999996185303","resources/trios/L1T1A1.jpg","39","restless",0.4,0.5,0.6,0.686974182803026,"false"
"image-keyboard-response",153,276574,"0.0-3.47-1.47","wxdzqhzuohl7gnk",143,"139.csv","","null","resources/maskTrios/BBA1.jpg","null","",NA,NA,NA,NA,""
"image-keyboard-response",154,277792,"0.0-3.47-2.47","wxdzqhzuohl7gnk",143,"139.csv","","null","resources/images/fishbone.png","null","",NA,NA,NA,NA,""
"image-keyboard-response",155,278775,"0.0-3.48-0.48","wxdzqhzuohl7gnk",143,"139.csv","","982.7000007629395","resources/trios/L1T1A2.jpg","38","restless",0.4,0.4,0.6,0.417874635846379,"false"
"image-keyboard-response",156,279192,"0.0-3.48-1.48","wxdzqhzuohl7gnk",143,"139.csv","","null","resources/maskTrios/BT1B.jpg","null","",NA,NA,NA,NA,""
"image-keyboard-response",157,280393,"0.0-3.48-2.48","wxdzqhzuohl7gnk",143,"139.csv","","null","resources/images/fishbone.png","null","",NA,NA,NA,NA,""
"image-keyboard-response",158,280687,"0.0-3.49-0.49","wxdzqhzuohl7gnk",143,"139.csv","","293.3000011444092","resources/trios/L2T1A1.jpg","37","restless",0.4,0.4,0.6,0.095418520197543,"true"
"image-keyboard-response",159,281093,"0.0-3.49-1.49","wxdzqhzuohl7gnk",143,"139.csv","","null","resources/maskTrios/L2BB.jpg","null","",NA,NA,NA,NA,""
"image-keyboard-response",160,282310,"0.0-3.49-2.49","wxdzqhzuohl7gnk",143,"139.csv","","null","resources/images/coin2.png","null","",NA,NA,NA,NA,""
"image-keyboard-response",161,282607,"0.0-3.50-0.50","wxdzqhzuohl7gnk",143,"139.csv","","296.20000076293945","resources/trios/L1T2A2.jpg","37","restless",0.4,0.4,0.6,0.708473162116878,"false"
"image-keyboard-response",162,283015,"0.0-3.50-1.50","wxdzqhzuohl7gnk",143,"139.csv","","null","resources/maskTrios/L1BB.jpg","null","",NA,NA,NA,NA,""
"image-keyboard-response",163,284231,"0.0-3.50-2.50","wxdzqhzuohl7gnk",143,"139.csv","","null","resources/images/fishbone.png","null","",NA,NA,NA,NA,""
"image-keyboard-response",164,284959,"0.0-3.51-0.51","wxdzqhzuohl7gnk",143,"139.csv","","728.0999984741211","resources/trios/L1T2A2.jpg","37","restless",0.4,0.4,0.6,0.618590372364067,"false"
"image-keyboard-response",165,285368,"0.0-3.51-1.51","wxdzqhzuohl7gnk",143,"139.csv","","null","resources/maskTrios/L1BB.jpg","null","",NA,NA,NA,NA,""
"image-keyboard-response",166,286578,"0.0-3.51-2.51","wxdzqhzuohl7gnk",143,"139.csv","","null","resources/images/fishbone.png","null","",NA,NA,NA,NA,""
"image-keyboard-response",167,287328,"0.0-3.52-0.52","wxdzqhzuohl7gnk",143,"139.csv","","749","resources/trios/L2T1A1.jpg","39","restless",0.4,0.4,0.6,0.407367545799429,"true"
"image-keyboard-response",168,287733,"0.0-3.52-1.52","wxdzqhzuohl7gnk",143,"139.csv","","null","resources/maskTrios/BBA1.jpg","null","",NA,NA,NA,NA,""
"image-keyboard-response",169,288946,"0.0-3.52-2.52","wxdzqhzuohl7gnk",143,"139.csv","","null","resources/images/coin2.png","null","",NA,NA,NA,NA,""
"image-keyboard-response",170,289720,"0.0-3.53-0.53","wxdzqhzuohl7gnk",143,"139.csv","","773.1000003814697","resources/trios/L1T2A1.jpg","39","restless",0.4,0.4,0.6,0.705864895666714,"false"
"image-keyboard-response",171,290128,"0.0-3.53-1.53","wxdzqhzuohl7gnk",143,"139.csv","","null","resources/maskTrios/BBA1.jpg","null","",NA,NA,NA,NA,""
"image-keyboard-response",172,291338,"0.0-3.53-2.53","wxdzqhzuohl7gnk",143,"139.csv","","null","resources/images/fishbone.png","null","",NA,NA,NA,NA,""
"image-keyboard-response",173,291600,"0.0-3.54-0.54","wxdzqhzuohl7gnk",143,"139.csv","","261.6000003814697","resources/trios/L2T1A2.jpg","37","restless",0.4,0.4,0.6,0.940277999623989,"false"
"image-keyboard-response",174,292007,"0.0-3.54-1.54","wxdzqhzuohl7gnk",143,"139.csv","","null","resources/maskTrios/L2BB.jpg","null","",NA,NA,NA,NA,""
"image-keyboard-response",175,293223,"0.0-3.54-2.54","wxdzqhzuohl7gnk",143,"139.csv","","null","resources/images/fishbone.png","null","",NA,NA,NA,NA,""
"image-keyboard-response",176,293328,"0.0-3.55-0.55","wxdzqhzuohl7gnk",143,"139.csv","","104.5","resources/trios/L2T1A2.jpg","37","restless",0.4,0.4,0.6,0.088289635520479,"true"
"image-keyboard-response",177,293736,"0.0-3.55-1.55","wxdzqhzuohl7gnk",143,"139.csv","","null","resources/maskTrios/L2BB.jpg","null","",NA,NA,NA,NA,""
"image-keyboard-response",178,294952,"0.0-3.55-2.55","wxdzqhzuohl7gnk",143,"139.csv","","null","resources/images/coin2.png","null","",NA,NA,NA,NA,""
"image-keyboard-response",179,295144,"0.0-3.56-0.56","wxdzqhzuohl7gnk",143,"139.csv","","191.69999885559082","resources/trios/L2T1A2.jpg","37","restless",0.5,0.4,0.6,0.560072226119793,"false"
"image-keyboard-response",180,295560,"0.0-3.56-1.56","wxdzqhzuohl7gnk",143,"139.csv","","null","resources/maskTrios/L2BB.jpg","null","",NA,NA,NA,NA,""
"image-keyboard-response",181,296774,"0.0-3.56-2.56","wxdzqhzuohl7gnk",143,"139.csv","","null","resources/images/fishbone.png","null","",NA,NA,NA,NA,""
"image-keyboard-response",182,296857,"0.0-3.57-0.57","wxdzqhzuohl7gnk",143,"139.csv","","81.70000076293945","resources/trios/L2T2A2.jpg","37","restless",0.5,0.4,0.6,0.877534983272405,"false"
"image-keyboard-response",183,297273,"0.0-3.57-1.57","wxdzqhzuohl7gnk",143,"139.csv","","null","resources/maskTrios/L2BB.jpg","null","",NA,NA,NA,NA,""
"image-keyboard-response",184,298475,"0.0-3.57-2.57","wxdzqhzuohl7gnk",143,"139.csv","","null","resources/images/fishbone.png","null","",NA,NA,NA,NA,""
"image-keyboard-response",185,298585,"0.0-3.58-0.58","wxdzqhzuohl7gnk",143,"139.csv","","109","resources/trios/L2T2A1.jpg","37","restless",0.5,0.4,0.6,0.595968936593298,"false"
"image-keyboard-response",186,298990,"0.0-3.58-1.58","wxdzqhzuohl7gnk",143,"139.csv","","null","resources/maskTrios/L2BB.jpg","null","",NA,NA,NA,NA,""
"image-keyboard-response",187,300206,"0.0-3.58-2.58","wxdzqhzuohl7gnk",143,"139.csv","","null","resources/images/fishbone.png","null","",NA,NA,NA,NA,""
"image-keyboard-response",188,300321,"0.0-3.59-0.59","wxdzqhzuohl7gnk",143,"139.csv","","114.29999923706055","resources/trios/L2T1A1.jpg","37","restless",0.5,0.4,0.6,0.238762062133532,"true"
"image-keyboard-response",189,300723,"0.0-3.59-1.59","wxdzqhzuohl7gnk",143,"139.csv","","null","resources/maskTrios/L2BB.jpg","null","",NA,NA,NA,NA,""
"image-keyboard-response",190,301936,"0.0-3.59-2.59","wxdzqhzuohl7gnk",143,"139.csv","","null","resources/images/coin2.png","null","",NA,NA,NA,NA,""
"image-keyboard-response",191,302049,"0.0-3.60-0.60","wxdzqhzuohl7gnk",143,"139.csv","","112.39999961853027","resources/trios/L1T2A2.jpg","38","restless",0.5,0.4,0.7,0.218277706067685,"true"
"image-keyboard-response",192,302450,"0.0-3.60-1.60","wxdzqhzuohl7gnk",143,"139.csv","","null","resources/maskTrios/BT2B.jpg","null","",NA,NA,NA,NA,""
"image-keyboard-response",193,303657,"0.0-3.60-2.60","wxdzqhzuohl7gnk",143,"139.csv","","null","resources/images/coin2.png","null","",NA,NA,NA,NA,""
"image-keyboard-response",194,303681,"0.0-3.61-0.61","wxdzqhzuohl7gnk",143,"139.csv","","23.5","resources/trios/L2T2A1.jpg","37","restless",0.5,0.4,0.7,0.0351074438959424,"true"
"image-keyboard-response",195,304088,"0.0-3.61-1.61","wxdzqhzuohl7gnk",143,"139.csv","","null","resources/maskTrios/L2BB.jpg","null","",NA,NA,NA,NA,""
"image-keyboard-response",196,305304,"0.0-3.61-2.61","wxdzqhzuohl7gnk",143,"139.csv","","null","resources/images/coin2.png","null","",NA,NA,NA,NA,""
"image-keyboard-response",197,305329,"0.0-3.62-0.62","wxdzqhzuohl7gnk",143,"139.csv","","24.899999618530273","resources/trios/L1T1A1.jpg","37","restless",0.5,0.4,0.7,0.500692476081084,"false"
"image-keyboard-response",198,305740,"0.0-3.62-1.62","wxdzqhzuohl7gnk",143,"139.csv","","null","resources/maskTrios/L1BB.jpg","null","",NA,NA,NA,NA,""
"image-keyboard-response",199,306959,"0.0-3.62-2.62","wxdzqhzuohl7gnk",143,"139.csv","","null","resources/images/fishbone.png","null","",NA,NA,NA,NA,""
"image-keyboard-response",200,306970,"0.0-3.63-0.63","wxdzqhzuohl7gnk",143,"139.csv","","9.600000381469727","resources/trios/L2T2A2.jpg","38","restless",0.5,0.4,0.7,0.754311543552664,"false"
"image-keyboard-response",201,307381,"0.0-3.63-1.63","wxdzqhzuohl7gnk",143,"139.csv","","null","resources/maskTrios/BT2B.jpg","null","",NA,NA,NA,NA,""
"image-keyboard-response",202,308586,"0.0-3.63-2.63","wxdzqhzuohl7gnk",143,"139.csv","","null","resources/images/fishbone.png","null","",NA,NA,NA,NA,""
"image-keyboard-response",203,308674,"0.0-3.64-0.64","wxdzqhzuohl7gnk",143,"139.csv","","87.5","resources/trios/L2T2A1.jpg","37","restless",0.5,0.4,0.7,0.815742925237139,"false"
"image-keyboard-response",204,309079,"0.0-3.64-1.64","wxdzqhzuohl7gnk",143,"139.csv","","null","resources/maskTrios/L2BB.jpg","null","",NA,NA,NA,NA,""
"image-keyboard-response",205,310280,"0.0-3.64-2.64","wxdzqhzuohl7gnk",143,"139.csv","","null","resources/images/fishbone.png","null","",NA,NA,NA,NA,""
"image-keyboard-response",206,310338,"0.0-3.65-0.65","wxdzqhzuohl7gnk",143,"139.csv","","57.29999923706055","resources/trios/L1T2A2.jpg","39","restless",0.5,0.4,0.7,0.984678761960412,"false"
"image-keyboard-response",207,310751,"0.0-3.65-1.65","wxdzqhzuohl7gnk",143,"139.csv","","null","resources/maskTrios/BBA2.jpg","null","",NA,NA,NA,NA,""
"image-keyboard-response",208,311964,"0.0-3.65-2.65","wxdzqhzuohl7gnk",143,"139.csv","","null","resources/images/fishbone.png","null","",NA,NA,NA,NA,""
"image-keyboard-response",209,312010,"0.0-3.66-0.66","wxdzqhzuohl7gnk",143,"139.csv","","45.39999961853027","resources/trios/L1T2A1.jpg","37","restless",0.5,0.4,0.7,0.227662789643361,"true"
"image-keyboard-response",210,312431,"0.0-3.66-1.66","wxdzqhzuohl7gnk",143,"139.csv","","null","resources/maskTrios/L1BB.jpg","null","",NA,NA,NA,NA,""
"image-keyboard-response",211,313635,"0.0-3.66-2.66","wxdzqhzuohl7gnk",143,"139.csv","","null","resources/images/coin2.png","null","",NA,NA,NA,NA,""
"image-keyboard-response",212,313690,"0.0-3.67-0.67","wxdzqhzuohl7gnk",143,"139.csv","","54.5","resources/trios/L2T2A1.jpg","37","restless",0.5,0.4,0.7,0.623271472274753,"false"
"image-keyboard-response",213,314101,"0.0-3.67-1.67","wxdzqhzuohl7gnk",143,"139.csv","","null","resources/maskTrios/L2BB.jpg","null","",NA,NA,NA,NA,""
"image-keyboard-response",214,315314,"0.0-3.67-2.67","wxdzqhzuohl7gnk",143,"139.csv","","null","resources/images/fishbone.png","null","",NA,NA,NA,NA,""
"image-keyboard-response",215,315322,"0.0-3.68-0.68","wxdzqhzuohl7gnk",143,"139.csv","","7.69999885559082","resources/trios/L1T2A1.jpg","38","restless",0.5,0.4,0.7,0.739058266325715,"false"
"image-keyboard-response",216,315732,"0.0-3.68-1.68","wxdzqhzuohl7gnk",143,"139.csv","","null","resources/maskTrios/BT2B.jpg","null","",NA,NA,NA,NA,""
"image-keyboard-response",217,316947,"0.0-3.68-2.68","wxdzqhzuohl7gnk",143,"139.csv","","null","resources/images/fishbone.png","null","",NA,NA,NA,NA,""
"image-keyboard-response",218,317259,"0.0-3.69-0.69","wxdzqhzuohl7gnk",143,"139.csv","","311.3999996185303","resources/trios/L1T1A2.jpg","37","restless",0.5,0.4,0.7,0.319381087812884,"true"
"image-keyboard-response",219,317671,"0.0-3.69-1.69","wxdzqhzuohl7gnk",143,"139.csv","","null","resources/maskTrios/L1BB.jpg","null","",NA,NA,NA,NA,""
"image-keyboard-response",220,318883,"0.0-3.69-2.69","wxdzqhzuohl7gnk",143,"139.csv","","null","resources/images/coin2.png","null","",NA,NA,NA,NA,""
"image-keyboard-response",221,318891,"0.0-3.70-0.70","wxdzqhzuohl7gnk",143,"139.csv","","7.30000114440918","resources/trios/L2T1A2.jpg","39","restless",0.5,0.4,0.7,0.383904813052142,"true"
"image-keyboard-response",222,319303,"0.0-3.70-1.70","wxdzqhzuohl7gnk",143,"139.csv","","null","resources/maskTrios/BBA2.jpg","null","",NA,NA,NA,NA,""
"image-keyboard-response",223,320507,"0.0-3.70-2.70","wxdzqhzuohl7gnk",143,"139.csv","","null","resources/images/coin2.png","null","",NA,NA,NA,NA,""
"image-keyboard-response",224,320531,"0.0-3.71-0.71","wxdzqhzuohl7gnk",143,"139.csv","","23.299999237060547","resources/trios/L1T1A1.jpg","39","restless",0.5,0.4,0.7,0.660084813625975,"true"
"image-keyboard-response",225,320945,"0.0-3.71-1.71","wxdzqhzuohl7gnk",143,"139.csv","","null","resources/maskTrios/BBA1.jpg","null","",NA,NA,NA,NA,""
"image-keyboard-response",226,322147,"0.0-3.71-2.71","wxdzqhzuohl7gnk",143,"139.csv","","null","resources/images/coin2.png","null","",NA,NA,NA,NA,""
"image-keyboard-response",227,322187,"0.0-3.72-0.72","wxdzqhzuohl7gnk",143,"139.csv","","39.39999961853027","resources/trios/L1T2A2.jpg","39","restless",0.5,0.4,0.7,0.677765856193976,"true"
"image-keyboard-response",228,322596,"0.0-3.72-1.72","wxdzqhzuohl7gnk",143,"139.csv","","null","resources/maskTrios/BBA2.jpg","null","",NA,NA,NA,NA,""
"image-keyboard-response",229,323814,"0.0-3.72-2.72","wxdzqhzuohl7gnk",143,"139.csv","","null","resources/images/coin2.png","null","",NA,NA,NA,NA,""
"image-keyboard-response",230,323883,"0.0-3.73-0.73","wxdzqhzuohl7gnk",143,"139.csv","","69.20000076293945","resources/trios/L2T1A1.jpg","39","restless",0.5,0.4,0.7,0.413989441109219,"true"
"image-keyboard-response",231,324296,"0.0-3.73-1.73","wxdzqhzuohl7gnk",143,"139.csv","","null","resources/maskTrios/BBA1.jpg","null","",NA,NA,NA,NA,""
"image-keyboard-response",232,325510,"0.0-3.73-2.73","wxdzqhzuohl7gnk",143,"139.csv","","null","resources/images/coin2.png","null","",NA,NA,NA,NA,""
"image-keyboard-response",233,325555,"0.0-3.74-0.74","wxdzqhzuohl7gnk",143,"139.csv","","44.69999885559082","resources/trios/L2T2A1.jpg","39","restless",0.5,0.4,0.7,0.286591716762836,"true"
"image-keyboard-response",234,325963,"0.0-3.74-1.74","wxdzqhzuohl7gnk",143,"139.csv","","null","resources/maskTrios/BBA1.jpg","null","",NA,NA,NA,NA,""
"image-keyboard-response",235,327174,"0.0-3.74-2.74","wxdzqhzuohl7gnk",143,"139.csv","","null","resources/images/coin2.png","null","",NA,NA,NA,NA,""
"image-keyboard-response",236,327204,"0.0-3.75-0.75","wxdzqhzuohl7gnk",143,"139.csv","","29","resources/trios/L1T2A1.jpg","39","restless",0.5,0.4,0.7,0.563433284339433,"true"
"image-keyboard-response",237,327623,"0.0-3.75-1.75","wxdzqhzuohl7gnk",143,"139.csv","","null","resources/maskTrios/BBA1.jpg","null","",NA,NA,NA,NA,""
"image-keyboard-response",238,328836,"0.0-3.75-2.75","wxdzqhzuohl7gnk",143,"139.csv","","null","resources/images/coin2.png","null","",NA,NA,NA,NA,""
"image-keyboard-response",239,328948,"0.0-3.76-0.76","wxdzqhzuohl7gnk",143,"139.csv","","111.19999885559082","resources/trios/L1T2A2.jpg","39","restless",0.5,0.4,0.6,0.716964982322017,"false"
"image-keyboard-response",240,329364,"0.0-3.76-1.76","wxdzqhzuohl7gnk",143,"139.csv","","null","resources/maskTrios/BBA2.jpg","null","",NA,NA,NA,NA,""
"image-keyboard-response",241,330581,"0.0-3.76-2.76","wxdzqhzuohl7gnk",143,"139.csv","","null","resources/images/fishbone.png","null","",NA,NA,NA,NA,""
"image-keyboard-response",242,330716,"0.0-3.77-0.77","wxdzqhzuohl7gnk",143,"139.csv","","134.29999923706055","resources/trios/L1T1A1.jpg","39","restless",0.5,0.4,0.6,0.730968403750194,"false"
"image-keyboard-response",243,331124,"0.0-3.77-1.77","wxdzqhzuohl7gnk",143,"139.csv","","null","resources/maskTrios/BBA1.jpg","null","",NA,NA,NA,NA,""
"image-keyboard-response",244,332341,"0.0-3.77-2.77","wxdzqhzuohl7gnk",143,"139.csv","","null","resources/images/fishbone.png","null","",NA,NA,NA,NA,""
"image-keyboard-response",245,332396,"0.0-3.78-0.78","wxdzqhzuohl7gnk",143,"139.csv","","54.39999961853027","resources/trios/L1T2A2.jpg","38","restless",0.5,0.4,0.6,0.247554971815185,"true"
"image-keyboard-response",246,332812,"0.0-3.78-1.78","wxdzqhzuohl7gnk",143,"139.csv","","null","resources/maskTrios/BT2B.jpg","null","",NA,NA,NA,NA,""
"image-keyboard-response",247,334026,"0.0-3.78-2.78","wxdzqhzuohl7gnk",143,"139.csv","","null","resources/images/coin2.png","null","",NA,NA,NA,NA,""
"image-keyboard-response",248,334612,"0.0-3.79-0.79","wxdzqhzuohl7gnk",143,"139.csv","","585.7999992370605","resources/trios/L2T2A1.jpg","38","restless",0.5,0.4,0.6,0.481528989343965,"false"
"image-keyboard-response",249,335020,"0.0-3.79-1.79","wxdzqhzuohl7gnk",143,"139.csv","","null","resources/maskTrios/BT2B.jpg","null","",NA,NA,NA,NA,""
"image-keyboard-response",250,336237,"0.0-3.79-2.79","wxdzqhzuohl7gnk",143,"139.csv","","null","resources/images/fishbone.png","null","",NA,NA,NA,NA,""
"image-keyboard-response",251,336549,"0.0-3.80-0.80","wxdzqhzuohl7gnk",143,"139.csv","","311.1000003814697","resources/trios/L1T1A1.jpg","37","restless",0.5,0.4,0.6,0.669247473922519,"false"
"image-keyboard-response",252,336956,"0.0-3.80-1.80","wxdzqhzuohl7gnk",143,"139.csv","","null","resources/maskTrios/L1BB.jpg","null","",NA,NA,NA,NA,""
"image-keyboard-response",253,338171,"0.0-3.80-2.80","wxdzqhzuohl7gnk",143,"139.csv","","null","resources/images/fishbone.png","null","",NA,NA,NA,NA,""
"image-keyboard-response",254,338205,"0.0-3.81-0.81","wxdzqhzuohl7gnk",143,"139.csv","","34","resources/trios/L1T1A2.jpg","39","restless",0.4,0.4,0.7,0.610457348807696,"true"
"image-keyboard-response",255,338624,"0.0-3.81-1.81","wxdzqhzuohl7gnk",143,"139.csv","","null","resources/maskTrios/BBA2.jpg","null","",NA,NA,NA,NA,""
"image-keyboard-response",256,339831,"0.0-3.81-2.81","wxdzqhzuohl7gnk",143,"139.csv","","null","resources/images/coin2.png","null","",NA,NA,NA,NA,""
"image-keyboard-response",257,339901,"0.0-3.82-0.82","wxdzqhzuohl7gnk",143,"139.csv","","69.5","resources/trios/L1T2A2.jpg","39","restless",0.4,0.4,0.7,0.737125770954383,"false"
"image-keyboard-response",258,340320,"0.0-3.82-1.82","wxdzqhzuohl7gnk",143,"139.csv","","null","resources/maskTrios/BBA2.jpg","null","",NA,NA,NA,NA,""
"image-keyboard-response",259,341536,"0.0-3.82-2.82","wxdzqhzuohl7gnk",143,"139.csv","","null","resources/images/fishbone.png","null","",NA,NA,NA,NA,""
"image-keyboard-response",260,341590,"0.0-3.83-0.83","wxdzqhzuohl7gnk",143,"139.csv","","53.5","resources/trios/L1T1A2.jpg","37","restless",0.4,0.4,0.7,0.913699999235083,"false"
"image-keyboard-response",261,342003,"0.0-3.83-1.83","wxdzqhzuohl7gnk",143,"139.csv","","null","resources/maskTrios/L1BB.jpg","null","",NA,NA,NA,NA,""
"image-keyboard-response",262,343213,"0.0-3.83-2.83","wxdzqhzuohl7gnk",143,"139.csv","","null","resources/images/fishbone.png","null","",NA,NA,NA,NA,""
"image-keyboard-response",263,343270,"0.0-3.84-0.84","wxdzqhzuohl7gnk",143,"139.csv","","56.30000114440918","resources/trios/L2T2A1.jpg","38","restless",0.4,0.4,0.7,0.0747920861622748,"true"
"image-keyboard-response",264,343681,"0.0-3.84-1.84","wxdzqhzuohl7gnk",143,"139.csv","","null","resources/maskTrios/BT2B.jpg","null","",NA,NA,NA,NA,""
"image-keyboard-response",265,344884,"0.0-3.84-2.84","wxdzqhzuohl7gnk",143,"139.csv","","null","resources/images/coin2.png","null","",NA,NA,NA,NA,""
"image-keyboard-response",266,344958,"0.0-3.85-0.85","wxdzqhzuohl7gnk",143,"139.csv","","73.29999923706055","resources/trios/L1T1A1.jpg","38","restless",0.4,0.4,0.7,0.537799704168016,"false"
"image-keyboard-response",267,345370,"0.0-3.85-1.85","wxdzqhzuohl7gnk",143,"139.csv","","null","resources/maskTrios/BT1B.jpg","null","",NA,NA,NA,NA,""
"image-keyboard-response",268,346585,"0.0-3.85-2.85","wxdzqhzuohl7gnk",143,"139.csv","","null","resources/images/fishbone.png","null","",NA,NA,NA,NA,""
"image-keyboard-response",269,346614,"0.0-3.86-0.86","wxdzqhzuohl7gnk",143,"139.csv","","28.899999618530273","resources/trios/L2T1A2.jpg","37","restless",0.4,0.4,0.7,0.0169637588382476,"true"
"image-keyboard-response",270,347022,"0.0-3.86-1.86","wxdzqhzuohl7gnk",143,"139.csv","","null","resources/maskTrios/L2BB.jpg","null","",NA,NA,NA,NA,""
"image-keyboard-response",271,348230,"0.0-3.86-2.86","wxdzqhzuohl7gnk",143,"139.csv","","null","resources/images/coin2.png","null","",NA,NA,NA,NA,""
"image-keyboard-response",272,348350,"0.0-3.87-0.87","wxdzqhzuohl7gnk",143,"139.csv","","119.5","resources/trios/L1T1A1.jpg","37","restless",0.4,0.3,0.7,0.562604654420511,"false"
"image-keyboard-response",273,348766,"0.0-3.87-1.87","wxdzqhzuohl7gnk",143,"139.csv","","null","resources/maskTrios/L1BB.jpg","null","",NA,NA,NA,NA,""
"image-keyboard-response",274,349986,"0.0-3.87-2.87","wxdzqhzuohl7gnk",143,"139.csv","","null","resources/images/fishbone.png","null","",NA,NA,NA,NA,""
"image-keyboard-response",275,350142,"0.0-3.88-0.88","wxdzqhzuohl7gnk",143,"139.csv","","156.29999923706055","resources/trios/L2T2A1.jpg","37","restless",0.4,0.3,0.6,0.952617271125812,"false"
"image-keyboard-response",276,350550,"0.0-3.88-1.88","wxdzqhzuohl7gnk",143,"139.csv","","null","resources/maskTrios/L2BB.jpg","null","",NA,NA,NA,NA,""
"image-keyboard-response",277,351759,"0.0-3.88-2.88","wxdzqhzuohl7gnk",143,"139.csv","","null","resources/images/fishbone.png","null","",NA,NA,NA,NA,""
"image-keyboard-response",278,351927,"0.0-3.89-0.89","wxdzqhzuohl7gnk",143,"139.csv","","167.39999961853027","resources/trios/L1T1A1.jpg","38","restless",0.4,0.3,0.7,0.204221334106644,"true"
"image-keyboard-response",279,352335,"0.0-3.89-1.89","wxdzqhzuohl7gnk",143,"139.csv","","null","resources/maskTrios/BT1B.jpg","null","",NA,NA,NA,NA,""
"image-keyboard-response",280,353549,"0.0-3.89-2.89","wxdzqhzuohl7gnk",143,"139.csv","","null","resources/images/coin2.png","null","",NA,NA,NA,NA,""
"image-keyboard-response",281,353551,"0.0-3.90-0.90","wxdzqhzuohl7gnk",143,"139.csv","","1","resources/trios/L2T1A1.jpg","38","restless",0.4,0.3,0.7,0.599774401311762,"false"
"image-keyboard-response",282,353955,"0.0-3.90-1.90","wxdzqhzuohl7gnk",143,"139.csv","","null","resources/maskTrios/BT1B.jpg","null","",NA,NA,NA,NA,""
"image-keyboard-response",283,355157,"0.0-3.90-2.90","wxdzqhzuohl7gnk",143,"139.csv","","null","resources/images/fishbone.png","null","",NA,NA,NA,NA,""
"image-keyboard-response",284,355191,"0.0-3.91-0.91","wxdzqhzuohl7gnk",143,"139.csv","","33.69999885559082","resources/trios/L2T2A1.jpg","39","restless",0.4,0.3,0.7,0.858323329383725,"false"
"image-keyboard-response",285,355610,"0.0-3.91-1.91","wxdzqhzuohl7gnk",143,"139.csv","","null","resources/maskTrios/BBA1.jpg","null","",NA,NA,NA,NA,""
"image-keyboard-response",286,356824,"0.0-3.91-2.91","wxdzqhzuohl7gnk",143,"139.csv","","null","resources/images/fishbone.png","null","",NA,NA,NA,NA,""
"image-keyboard-response",287,356839,"0.0-3.92-0.92","wxdzqhzuohl7gnk",143,"139.csv","","14.399999618530273","resources/trios/L2T2A2.jpg","37","restless",0.4,0.3,0.7,0.149164847855148,"true"
"image-keyboard-response",288,357250,"0.0-3.92-1.92","wxdzqhzuohl7gnk",143,"139.csv","","null","resources/maskTrios/L2BB.jpg","null","",NA,NA,NA,NA,""
"image-keyboard-response",289,358462,"0.0-3.92-2.92","wxdzqhzuohl7gnk",143,"139.csv","","null","resources/images/coin2.png","null","",NA,NA,NA,NA,""
"image-keyboard-response",290,358471,"0.0-3.93-0.93","wxdzqhzuohl7gnk",143,"139.csv","","9.200000762939453","resources/trios/L2T2A1.jpg","37","restless",0.4,0.3,0.7,0.481139647425735,"false"
"image-keyboard-response",291,358883,"0.0-3.93-1.93","wxdzqhzuohl7gnk",143,"139.csv","","null","resources/maskTrios/L2BB.jpg","null","",NA,NA,NA,NA,""
"image-keyboard-response",292,360101,"0.0-3.93-2.93","wxdzqhzuohl7gnk",143,"139.csv","","null","resources/images/fishbone.png","null","",NA,NA,NA,NA,""
"image-keyboard-response",293,360223,"0.0-3.94-0.94","wxdzqhzuohl7gnk",143,"139.csv","","121.79999923706055","resources/trios/L1T1A1.jpg","37","restless",0.5,0.3,0.7,0.391600182844775,"true"
"image-keyboard-response",294,360632,"0.0-3.94-1.94","wxdzqhzuohl7gnk",143,"139.csv","","null","resources/maskTrios/L1BB.jpg","null","",NA,NA,NA,NA,""
"image-keyboard-response",295,361840,"0.0-3.94-2.94","wxdzqhzuohl7gnk",143,"139.csv","","null","resources/images/coin2.png","null","",NA,NA,NA,NA,""
"image-keyboard-response",296,361952,"0.0-3.95-0.95","wxdzqhzuohl7gnk",143,"139.csv","","111.70000076293945","resources/trios/L2T1A2.jpg","37","restless",0.5,0.3,0.7,0.771892486426488,"false"
"image-keyboard-response",297,362355,"0.0-3.95-1.95","wxdzqhzuohl7gnk",143,"139.csv","","null","resources/maskTrios/L2BB.jpg","null","",NA,NA,NA,NA,""
"image-keyboard-response",298,363573,"0.0-3.95-2.95","wxdzqhzuohl7gnk",143,"139.csv","","null","resources/images/fishbone.png","null","",NA,NA,NA,NA,""
"image-keyboard-response",299,363672,"0.0-3.96-0.96","wxdzqhzuohl7gnk",143,"139.csv","","98.30000114440918","resources/trios/L2T2A2.jpg","38","restless",0.5,0.3,0.7,0.311413888555709,"false"
"image-keyboard-response",300,364087,"0.0-3.96-1.96","wxdzqhzuohl7gnk",143,"139.csv","","null","resources/maskTrios/BT2B.jpg","null","",NA,NA,NA,NA,""
"image-keyboard-response",301,365295,"0.0-3.96-2.96","wxdzqhzuohl7gnk",143,"139.csv","","null","resources/images/fishbone.png","null","",NA,NA,NA,NA,""
"image-keyboard-response",302,365464,"0.0-3.97-0.97","wxdzqhzuohl7gnk",143,"139.csv","","167.79999923706055","resources/trios/L2T2A2.jpg","39","restless",0.5,0.2,0.7,0.466724124313479,"true"
"image-keyboard-response",303,365876,"0.0-3.97-1.97","wxdzqhzuohl7gnk",143,"139.csv","","null","resources/maskTrios/BBA2.jpg","null","",NA,NA,NA,NA,""
"image-keyboard-response",304,367091,"0.0-3.97-2.97","wxdzqhzuohl7gnk",143,"139.csv","","null","resources/images/coin2.png","null","",NA,NA,NA,NA,""
"image-keyboard-response",305,367104,"0.0-3.98-0.98","wxdzqhzuohl7gnk",143,"139.csv","","12.5","resources/trios/L2T1A2.jpg","39","restless",0.4,0.2,0.7,0.389718868805946,"true"
"image-keyboard-response",306,367514,"0.0-3.98-1.98","wxdzqhzuohl7gnk",143,"139.csv","","null","resources/maskTrios/BBA2.jpg","null","",NA,NA,NA,NA,""
"image-keyboard-response",307,368722,"0.0-3.98-2.98","wxdzqhzuohl7gnk",143,"139.csv","","null","resources/images/coin2.png","null","",NA,NA,NA,NA,""
"image-keyboard-response",308,368784,"0.0-3.99-0.99","wxdzqhzuohl7gnk",143,"139.csv","","61.80000114440918","resources/trios/L2T2A2.jpg","39","restless",0.4,0.2,0.8,0.902912862273069,"false"
"image-keyboard-response",309,369189,"0.0-3.99-1.99","wxdzqhzuohl7gnk",143,"139.csv","","null","resources/maskTrios/BBA2.jpg","null","",NA,NA,NA,NA,""
"image-keyboard-response",310,370408,"0.0-3.99-2.99","wxdzqhzuohl7gnk",143,"139.csv","","null","resources/images/fishbone.png","null","",NA,NA,NA,NA,""
"image-keyboard-response",311,370528,"0.0-3.100-0.100","wxdzqhzuohl7gnk",143,"139.csv","","119.5","resources/trios/L1T2A2.jpg","37","restless",0.4,0.2,0.8,0.484624095434298,"false"
"image-keyboard-response",312,370936,"0.0-3.100-1.100","wxdzqhzuohl7gnk",143,"139.csv","","null","resources/maskTrios/L1BB.jpg","null","",NA,NA,NA,NA,""
"image-keyboard-response",313,372137,"0.0-3.100-2.100","wxdzqhzuohl7gnk",143,"139.csv","","null","resources/images/fishbone.png","null","",NA,NA,NA,NA,""
"image-keyboard-response",314,372329,"0.0-3.101-0.101","wxdzqhzuohl7gnk",143,"139.csv","","191.5","resources/trios/L1T1A2.jpg","38","restless",0.3,0.2,0.8,0.387752921740252,"false"
"image-keyboard-response",315,372737,"0.0-3.101-1.101","wxdzqhzuohl7gnk",143,"139.csv","","null","resources/maskTrios/BT1B.jpg","null","",NA,NA,NA,NA,""
"image-keyboard-response",316,373952,"0.0-3.101-2.101","wxdzqhzuohl7gnk",143,"139.csv","","null","resources/images/fishbone.png","null","",NA,NA,NA,NA,""
"image-keyboard-response",317,374081,"0.0-3.102-0.102","wxdzqhzuohl7gnk",143,"139.csv","","128.70000076293945","resources/trios/L1T1A1.jpg","37","restless",0.3,0.2,0.8,0.984147306785732,"false"
"image-keyboard-response",318,374489,"0.0-3.102-1.102","wxdzqhzuohl7gnk",143,"139.csv","","null","resources/maskTrios/L1BB.jpg","null","",NA,NA,NA,NA,""
"image-keyboard-response",319,375703,"0.0-3.102-2.102","wxdzqhzuohl7gnk",143,"139.csv","","null","resources/images/fishbone.png","null","",NA,NA,NA,NA,""
"image-keyboard-response",320,375737,"0.0-3.103-0.103","wxdzqhzuohl7gnk",143,"139.csv","","33","resources/trios/L2T2A2.jpg","39","restless",0.3,0.2,0.8,0.322877911565551,"true"
"image-keyboard-response",321,376140,"0.0-3.103-1.103","wxdzqhzuohl7gnk",143,"139.csv","","null","resources/maskTrios/BBA2.jpg","null","",NA,NA,NA,NA,""
"image-keyboard-response",322,377347,"0.0-3.103-2.103","wxdzqhzuohl7gnk",143,"139.csv","","null","resources/images/coin2.png","null","",NA,NA,NA,NA,""
"image-keyboard-response",323,377369,"0.0-3.104-0.104","wxdzqhzuohl7gnk",143,"139.csv","","21.899999618530273","resources/trios/L1T2A1.jpg","39","restless",0.3,0.2,0.7,0.273922823782106,"true"
"image-keyboard-response",324,377779,"0.0-3.104-1.104","wxdzqhzuohl7gnk",143,"139.csv","","null","resources/maskTrios/BBA1.jpg","null","",NA,NA,NA,NA,""
"image-keyboard-response",325,378985,"0.0-3.104-2.104","wxdzqhzuohl7gnk",143,"139.csv","","null","resources/images/coin2.png","null","",NA,NA,NA,NA,""
"image-keyboard-response",326,379353,"0.0-3.105-0.105","wxdzqhzuohl7gnk",143,"139.csv","","367.4000015258789","resources/trios/L2T1A1.jpg","39","restless",0.4,0.2,0.7,0.384435990857468,"true"
"image-keyboard-response",327,379760,"0.0-3.105-1.105","wxdzqhzuohl7gnk",143,"139.csv","","null","resources/maskTrios/BBA1.jpg","null","",NA,NA,NA,NA,""
"image-keyboard-response",328,380967,"0.0-3.105-2.105","wxdzqhzuohl7gnk",143,"139.csv","","null","resources/images/coin2.png","null","",NA,NA,NA,NA,""
"image-keyboard-response",329,380970,"0.0-3.106-0.106","wxdzqhzuohl7gnk",143,"139.csv","","2.6999988555908203","resources/trios/L1T1A2.jpg","39","restless",0.5,0.3,0.6,0.282868084788132,"true"
"image-keyboard-response",330,381375,"0.0-3.106-1.106","wxdzqhzuohl7gnk",143,"139.csv","","null","resources/maskTrios/BBA2.jpg","null","",NA,NA,NA,NA,""
"image-keyboard-response",331,382577,"0.0-3.106-2.106","wxdzqhzuohl7gnk",143,"139.csv","","null","resources/images/coin2.png","null","",NA,NA,NA,NA,""
"image-keyboard-response",332,382602,"0.0-3.107-0.107","wxdzqhzuohl7gnk",143,"139.csv","","24","resources/trios/L2T1A1.jpg","39","restless",0.5,0.3,0.6,0.522833494284315,"true"
"image-keyboard-response",333,383018,"0.0-3.107-1.107","wxdzqhzuohl7gnk",143,"139.csv","","null","resources/maskTrios/BBA1.jpg","null","",NA,NA,NA,NA,""
"image-keyboard-response",334,384234,"0.0-3.107-2.107","wxdzqhzuohl7gnk",143,"139.csv","","null","resources/images/coin2.png","null","",NA,NA,NA,NA,""
"image-keyboard-response",335,384362,"0.0-3.108-0.108","wxdzqhzuohl7gnk",143,"139.csv","","127.20000076293945","resources/trios/L2T1A2.jpg","39","restless",0.5,0.3,0.6,0.737865200460466,"false"
"image-keyboard-response",336,384770,"0.0-3.108-1.108","wxdzqhzuohl7gnk",143,"139.csv","","null","resources/maskTrios/BBA2.jpg","null","",NA,NA,NA,NA,""
"image-keyboard-response",337,385974,"0.0-3.108-2.108","wxdzqhzuohl7gnk",143,"139.csv","","null","resources/images/fishbone.png","null","",NA,NA,NA,NA,""
"image-keyboard-response",338,386298,"0.0-3.109-0.109","wxdzqhzuohl7gnk",143,"139.csv","","323.3999996185303","resources/trios/L1T1A2.jpg","38","restless",0.5,0.3,0.6,0.225155685389457,"true"
"image-keyboard-response",339,386707,"0.0-3.109-1.109","wxdzqhzuohl7gnk",143,"139.csv","","null","resources/maskTrios/BT1B.jpg","null","",NA,NA,NA,NA,""
"image-keyboard-response",340,387922,"0.0-3.109-2.109","wxdzqhzuohl7gnk",143,"139.csv","","null","resources/images/coin2.png","null","",NA,NA,NA,NA,""
"image-keyboard-response",341,387954,"0.0-3.110-0.110","wxdzqhzuohl7gnk",143,"139.csv","","31.200000762939453","resources/trios/L2T2A1.jpg","38","restless",0.5,0.3,0.6,0.318096853948753,"false"
"image-keyboard-response",342,388375,"0.0-3.110-1.110","wxdzqhzuohl7gnk",143,"139.csv","","null","resources/maskTrios/BT2B.jpg","null","",NA,NA,NA,NA,""
"image-keyboard-response",343,389592,"0.0-3.110-2.110","wxdzqhzuohl7gnk",143,"139.csv","","null","resources/images/fishbone.png","null","",NA,NA,NA,NA,""
"image-keyboard-response",344,389746,"0.0-3.111-0.111","wxdzqhzuohl7gnk",143,"139.csv","","153.39999961853027","resources/trios/L1T1A2.jpg","37","restless",0.5,0.3,0.6,0.850128025614747,"false"
"image-keyboard-response",345,390170,"0.0-3.111-1.111","wxdzqhzuohl7gnk",143,"139.csv","","null","resources/maskTrios/L1BB.jpg","null","",NA,NA,NA,NA,""
"image-keyboard-response",346,391384,"0.0-3.111-2.111","wxdzqhzuohl7gnk",143,"139.csv","","null","resources/images/fishbone.png","null","",NA,NA,NA,NA,""
"image-keyboard-response",347,391395,"0.0-3.112-0.112","wxdzqhzuohl7gnk",143,"139.csv","","9.600000381469727","resources/trios/L1T1A1.jpg","39","restless",0.5,0.3,0.6,0.0775706461960217,"true"
"image-keyboard-response",348,391807,"0.0-3.112-1.112","wxdzqhzuohl7gnk",143,"139.csv","","null","resources/maskTrios/BBA1.jpg","null","",NA,NA,NA,NA,""
"image-keyboard-response",349,393017,"0.0-3.112-2.112","wxdzqhzuohl7gnk",143,"139.csv","","null","resources/images/coin2.png","null","",NA,NA,NA,NA,""
"image-keyboard-response",350,393163,"0.0-3.113-0.113","wxdzqhzuohl7gnk",143,"139.csv","","145","resources/trios/L1T1A2.jpg","39","restless",0.6,0.3,0.6,0.12273172875844,"true"
"image-keyboard-response",351,393576,"0.0-3.113-1.113","wxdzqhzuohl7gnk",143,"139.csv","","null","resources/maskTrios/BBA2.jpg","null","",NA,NA,NA,NA,""
"image-keyboard-response",352,394793,"0.0-3.113-2.113","wxdzqhzuohl7gnk",143,"139.csv","","null","resources/images/coin2.png","null","",NA,NA,NA,NA,""
"image-keyboard-response",353,394939,"0.0-3.114-0.114","wxdzqhzuohl7gnk",143,"139.csv","","145.39999961853027","resources/trios/L2T1A2.jpg","39","restless",0.6,0.3,0.6,0.363114301964004,"true"
"image-keyboard-response",354,395347,"0.0-3.114-1.114","wxdzqhzuohl7gnk",143,"139.csv","","null","resources/maskTrios/BBA2.jpg","null","",NA,NA,NA,NA,""
"image-keyboard-response",355,396556,"0.0-3.114-2.114","wxdzqhzuohl7gnk",143,"139.csv","","null","resources/images/coin2.png","null","",NA,NA,NA,NA,""
"image-keyboard-response",356,396683,"0.0-3.115-0.115","wxdzqhzuohl7gnk",143,"139.csv","","126.10000038146973","resources/trios/L2T2A1.jpg","39","restless",0.6,0.3,0.5,0.229547006957704,"true"
"image-keyboard-response",357,397099,"0.0-3.115-1.115","wxdzqhzuohl7gnk",143,"139.csv","","null","resources/maskTrios/BBA1.jpg","null","",NA,NA,NA,NA,""
"image-keyboard-response",358,398318,"0.0-3.115-2.115","wxdzqhzuohl7gnk",143,"139.csv","","null","resources/images/coin2.png","null","",NA,NA,NA,NA,""
"image-keyboard-response",359,398459,"0.0-3.116-0.116","wxdzqhzuohl7gnk",143,"139.csv","","140.30000114440918","resources/trios/L2T2A2.jpg","39","restless",0.6,0.3,0.5,0.0856486336000557,"true"
"image-keyboard-response",360,398881,"0.0-3.116-1.116","wxdzqhzuohl7gnk",143,"139.csv","","null","resources/maskTrios/BBA2.jpg","null","",NA,NA,NA,NA,""
"image-keyboard-response",361,400097,"0.0-3.116-2.116","wxdzqhzuohl7gnk",143,"139.csv","","null","resources/images/coin2.png","null","",NA,NA,NA,NA,""
"image-keyboard-response",362,400283,"0.0-3.117-0.117","wxdzqhzuohl7gnk",143,"139.csv","","185.5999984741211","resources/trios/L2T2A2.jpg","39","restless",0.6,0.3,0.6,0.339256618580102,"true"
"image-keyboard-response",363,400691,"0.0-3.117-1.117","wxdzqhzuohl7gnk",143,"139.csv","","null","resources/maskTrios/BBA2.jpg","null","",NA,NA,NA,NA,""
"image-keyboard-response",364,401900,"0.0-3.117-2.117","wxdzqhzuohl7gnk",143,"139.csv","","null","resources/images/coin2.png","null","",NA,NA,NA,NA,""
"image-keyboard-response",365,402068,"0.0-3.118-0.118","wxdzqhzuohl7gnk",143,"139.csv","","167.5","resources/trios/L2T2A1.jpg","39","restless",0.6,0.3,0.6,0.0846751884625199,"true"
"image-keyboard-response",366,402476,"0.0-3.118-1.118","wxdzqhzuohl7gnk",143,"139.csv","","null","resources/maskTrios/BBA1.jpg","null","",NA,NA,NA,NA,""
"image-keyboard-response",367,403679,"0.0-3.118-2.118","wxdzqhzuohl7gnk",143,"139.csv","","null","resources/images/coin2.png","null","",NA,NA,NA,NA,""
"image-keyboard-response",368,403684,"0.0-3.119-0.119","wxdzqhzuohl7gnk",143,"139.csv","","4","resources/trios/L1T1A1.jpg","39","restless",0.7,0.3,0.6,0.57670293761119,"true"
"image-keyboard-response",369,404101,"0.0-3.119-1.119","wxdzqhzuohl7gnk",143,"139.csv","","null","resources/maskTrios/BBA1.jpg","null","",NA,NA,NA,NA,""
"image-keyboard-response",370,405316,"0.0-3.119-2.119","wxdzqhzuohl7gnk",143,"139.csv","","null","resources/images/coin2.png","null","",NA,NA,NA,NA,""
"image-keyboard-response",371,405492,"0.0-3.120-0.120","wxdzqhzuohl7gnk",143,"139.csv","","175.39999961853027","resources/trios/L2T2A1.jpg","39","restless",0.7,0.3,0.6,0.716748305650959,"false"
"image-keyboard-response",372,405901,"0.0-3.120-1.120","wxdzqhzuohl7gnk",143,"139.csv","","null","resources/maskTrios/BBA1.jpg","null","",NA,NA,NA,NA,""
"image-keyboard-response",373,407116,"0.0-3.120-2.120","wxdzqhzuohl7gnk",143,"139.csv","","null","resources/images/fishbone.png","null","",NA,NA,NA,NA,""
"image-keyboard-response",374,407180,"0.0-3.121-0.121","wxdzqhzuohl7gnk",143,"139.csv","","63.79999923706055","resources/trios/L2T1A2.jpg","37","restless",0.7,0.3,0.5,0.867453770778758,"false"
"image-keyboard-response",375,407597,"0.0-3.121-1.121","wxdzqhzuohl7gnk",143,"139.csv","","null","resources/maskTrios/L2BB.jpg","null","",NA,NA,NA,NA,""
"image-keyboard-response",376,408816,"0.0-3.121-2.121","wxdzqhzuohl7gnk",143,"139.csv","","null","resources/images/fishbone.png","null","",NA,NA,NA,NA,""
"image-keyboard-response",377,408860,"0.0-3.122-0.122","wxdzqhzuohl7gnk",143,"139.csv","","43.29999923706055","resources/trios/L2T1A2.jpg","39","restless",0.7,0.4,0.5,0.505756209698236,"false"
"image-keyboard-response",378,409269,"0.0-3.122-1.122","wxdzqhzuohl7gnk",143,"139.csv","","null","resources/maskTrios/BBA2.jpg","null","",NA,NA,NA,NA,""
"image-keyboard-response",379,410477,"0.0-3.122-2.122","wxdzqhzuohl7gnk",143,"139.csv","","null","resources/images/fishbone.png","null","",NA,NA,NA,NA,""
"image-keyboard-response",380,410516,"0.0-3.123-0.123","wxdzqhzuohl7gnk",143,"139.csv","","39.29999923706055","resources/trios/L2T2A1.jpg","38","restless",0.8,0.4,0.5,0.528681963659464,"false"
"image-keyboard-response",381,410929,"0.0-3.123-1.123","wxdzqhzuohl7gnk",143,"139.csv","","null","resources/maskTrios/BT2B.jpg","null","",NA,NA,NA,NA,""
"image-keyboard-response",382,412146,"0.0-3.123-2.123","wxdzqhzuohl7gnk",143,"139.csv","","null","resources/images/fishbone.png","null","",NA,NA,NA,NA,""
"image-keyboard-response",383,412165,"0.0-3.124-0.124","wxdzqhzuohl7gnk",143,"139.csv","","18.600000381469727","resources/trios/L2T2A1.jpg","37","restless",0.9,0.4,0.5,0.759850130301857,"true"
"image-keyboard-response",384,412573,"0.0-3.124-1.124","wxdzqhzuohl7gnk",143,"139.csv","","null","resources/maskTrios/L2BB.jpg","null","",NA,NA,NA,NA,""
"image-keyboard-response",385,413787,"0.0-3.124-2.124","wxdzqhzuohl7gnk",143,"139.csv","","null","resources/images/coin2.png","null","",NA,NA,NA,NA,""
"image-keyboard-response",386,413941,"0.0-3.125-0.125","wxdzqhzuohl7gnk",143,"139.csv","","152.70000076293945","resources/trios/L2T1A1.jpg","37","restless",0.9,0.4,0.5,0.478060636755198,"true"
"image-keyboard-response",387,414357,"0.0-3.125-1.125","wxdzqhzuohl7gnk",143,"139.csv","","null","resources/maskTrios/L2BB.jpg","null","",NA,NA,NA,NA,""
"image-keyboard-response",388,415565,"0.0-3.125-2.125","wxdzqhzuohl7gnk",143,"139.csv","","null","resources/images/coin2.png","null","",NA,NA,NA,NA,""
"image-keyboard-response",389,415749,"0.0-3.126-0.126","wxdzqhzuohl7gnk",143,"139.csv","","183.39999961853027","resources/trios/L1T2A2.jpg","37","restless",0.9,0.4,0.5,0.618885039612054,"true"
"image-keyboard-response",390,416165,"0.0-3.126-1.126","wxdzqhzuohl7gnk",143,"139.csv","","null","resources/maskTrios/L1BB.jpg","null","",NA,NA,NA,NA,""
"image-keyboard-response",391,417384,"0.0-3.126-2.126","wxdzqhzuohl7gnk",143,"139.csv","","null","resources/images/coin2.png","null","",NA,NA,NA,NA,""
"image-keyboard-response",392,417541,"0.0-3.127-0.127","wxdzqhzuohl7gnk",143,"139.csv","","156.39999961853027","resources/trios/L1T1A2.jpg","37","restless",0.8,0.4,0.5,0.986054319297774,"false"
"image-keyboard-response",393,417960,"0.0-3.127-1.127","wxdzqhzuohl7gnk",143,"139.csv","","null","resources/maskTrios/L1BB.jpg","null","",NA,NA,NA,NA,""
"image-keyboard-response",394,419177,"0.0-3.127-2.127","wxdzqhzuohl7gnk",143,"139.csv","","null","resources/images/fishbone.png","null","",NA,NA,NA,NA,""
"image-keyboard-response",395,419237,"0.0-3.128-0.128","wxdzqhzuohl7gnk",143,"139.csv","","59.39999961853027","resources/trios/L2T2A1.jpg","38","restless",0.8,0.4,0.5,0.420834687423444,"false"
"image-keyboard-response",396,419646,"0.0-3.128-1.128","wxdzqhzuohl7gnk",143,"139.csv","","null","resources/maskTrios/BT2B.jpg","null","",NA,NA,NA,NA,""
"image-keyboard-response",397,420865,"0.0-3.128-2.128","wxdzqhzuohl7gnk",143,"139.csv","","null","resources/images/fishbone.png","null","",NA,NA,NA,NA,""
"image-keyboard-response",398,420958,"0.0-3.129-0.129","wxdzqhzuohl7gnk",143,"139.csv","","91.5","resources/trios/L2T2A2.jpg","39","restless",0.8,0.4,0.5,0.272240598157845,"true"
"image-keyboard-response",399,421366,"0.0-3.129-1.129","wxdzqhzuohl7gnk",143,"139.csv","","null","resources/maskTrios/BBA2.jpg","null","",NA,NA,NA,NA,""
"image-keyboard-response",400,422586,"0.0-3.129-2.129","wxdzqhzuohl7gnk",143,"139.csv","","null","resources/images/coin2.png","null","",NA,NA,NA,NA,""
"image-keyboard-response",401,422758,"0.0-3.130-0.130","wxdzqhzuohl7gnk",143,"139.csv","","170.89999961853027","resources/trios/L1T2A1.jpg","39","restless",0.8,0.4,0.5,0.202951345899149,"true"
"image-keyboard-response",402,423163,"0.0-3.130-1.130","wxdzqhzuohl7gnk",143,"139.csv","","null","resources/maskTrios/BBA1.jpg","null","",NA,NA,NA,NA,""
"image-keyboard-response",403,424380,"0.0-3.130-2.130","wxdzqhzuohl7gnk",143,"139.csv","","null","resources/images/coin2.png","null","",NA,NA,NA,NA,""
"image-keyboard-response",404,424406,"0.0-3.131-0.131","wxdzqhzuohl7gnk",143,"139.csv","","25.69999885559082","resources/trios/L1T1A2.jpg","39","restless",0.8,0.4,0.5,0.786135633717269,"false"
"image-keyboard-response",405,424813,"0.0-3.131-1.131","wxdzqhzuohl7gnk",143,"139.csv","","null","resources/maskTrios/BBA2.jpg","null","",NA,NA,NA,NA,""
"image-keyboard-response",406,426032,"0.0-3.131-2.131","wxdzqhzuohl7gnk",143,"139.csv","","null","resources/images/fishbone.png","null","",NA,NA,NA,NA,""
"image-keyboard-response",407,426254,"0.0-3.132-0.132","wxdzqhzuohl7gnk",143,"139.csv","","221.89999961853027","resources/trios/L2T2A2.jpg","37","restless",0.8,0.4,0.5,0.46380295397361,"true"
"image-keyboard-response",408,426672,"0.0-3.132-1.132","wxdzqhzuohl7gnk",143,"139.csv","","null","resources/maskTrios/L2BB.jpg","null","",NA,NA,NA,NA,""
"image-keyboard-response",409,427878,"0.0-3.132-2.132","wxdzqhzuohl7gnk",143,"139.csv","","null","resources/images/coin2.png","null","",NA,NA,NA,NA,""
"image-keyboard-response",410,427950,"0.0-3.133-0.133","wxdzqhzuohl7gnk",143,"139.csv","","72","resources/trios/L1T1A1.jpg","37","restless",0.8,0.4,0.5,0.362988276764282,"true"
"image-keyboard-response",411,428365,"0.0-3.133-1.133","wxdzqhzuohl7gnk",143,"139.csv","","null","resources/maskTrios/L1BB.jpg","null","",NA,NA,NA,NA,""
"image-keyboard-response",412,429582,"0.0-3.133-2.133","wxdzqhzuohl7gnk",143,"139.csv","","null","resources/images/coin2.png","null","",NA,NA,NA,NA,""
"image-keyboard-response",413,429646,"0.0-3.134-0.134","wxdzqhzuohl7gnk",143,"139.csv","","64","resources/trios/L1T1A1.jpg","37","restless",0.8,0.4,0.5,0.818205700122388,"false"
"image-keyboard-response",414,430065,"0.0-3.134-1.134","wxdzqhzuohl7gnk",143,"139.csv","","null","resources/maskTrios/L1BB.jpg","null","",NA,NA,NA,NA,""
"image-keyboard-response",415,431279,"0.0-3.134-2.134","wxdzqhzuohl7gnk",143,"139.csv","","null","resources/images/fishbone.png","null","",NA,NA,NA,NA,""
"image-keyboard-response",416,431287,"0.0-3.135-0.135","wxdzqhzuohl7gnk",143,"139.csv","","6.899999618530273","resources/trios/L2T2A2.jpg","38","restless",0.9,0.4,0.5,0.013322393899607,"true"
"image-keyboard-response",417,431699,"0.0-3.135-1.135","wxdzqhzuohl7gnk",143,"139.csv","","null","resources/maskTrios/BT2B.jpg","null","",NA,NA,NA,NA,""
"image-keyboard-response",418,432913,"0.0-3.135-2.135","wxdzqhzuohl7gnk",143,"139.csv","","null","resources/images/coin2.png","null","",NA,NA,NA,NA,""
"image-keyboard-response",419,433063,"0.0-3.136-0.136","wxdzqhzuohl7gnk",143,"139.csv","","148.80000114440918","resources/trios/L2T1A1.jpg","38","restless",0.9,0.4,0.5,0.366187776821779,"true"
"image-keyboard-response",420,433471,"0.0-3.136-1.136","wxdzqhzuohl7gnk",143,"139.csv","","null","resources/maskTrios/BT1B.jpg","null","",NA,NA,NA,NA,""
"image-keyboard-response",421,434679,"0.0-3.136-2.136","wxdzqhzuohl7gnk",143,"139.csv","","null","resources/images/coin2.png","null","",NA,NA,NA,NA,""
"image-keyboard-response",422,434847,"0.0-3.137-0.137","wxdzqhzuohl7gnk",143,"139.csv","","167.29999923706055","resources/trios/L1T2A2.jpg","38","restless",0.9,0.4,0.6,0.684371818066383,"false"
"image-keyboard-response",423,435262,"0.0-3.137-1.137","wxdzqhzuohl7gnk",143,"139.csv","","null","resources/maskTrios/BT2B.jpg","null","",NA,NA,NA,NA,""
"image-keyboard-response",424,436479,"0.0-3.137-2.137","wxdzqhzuohl7gnk",143,"139.csv","","null","resources/images/fishbone.png","null","",NA,NA,NA,NA,""
"image-keyboard-response",425,436503,"0.0-3.138-0.138","wxdzqhzuohl7gnk",143,"139.csv","","23.200000762939453","resources/trios/L1T2A2.jpg","37","restless",0.9,0.4,0.7,0.711064579859407,"true"
"image-keyboard-response",426,436918,"0.0-3.138-1.138","wxdzqhzuohl7gnk",143,"139.csv","","null","resources/maskTrios/L1BB.jpg","null","",NA,NA,NA,NA,""
"image-keyboard-response",427,438132,"0.0-3.138-2.138","wxdzqhzuohl7gnk",143,"139.csv","","null","resources/images/coin2.png","null","",NA,NA,NA,NA,""
"image-keyboard-response",428,438151,"0.0-3.139-0.139","wxdzqhzuohl7gnk",143,"139.csv","","18.600000381469727","resources/trios/L2T1A2.jpg","37","restless",0.9,0.4,0.7,0.832786400072173,"true"
"image-keyboard-response",429,438568,"0.0-3.139-1.139","wxdzqhzuohl7gnk",143,"139.csv","","null","resources/maskTrios/L2BB.jpg","null","",NA,NA,NA,NA,""
"image-keyboard-response",430,439781,"0.0-3.139-2.139","wxdzqhzuohl7gnk",143,"139.csv","","null","resources/images/coin2.png","null","",NA,NA,NA,NA,""
"image-keyboard-response",431,439863,"0.0-3.140-0.140","wxdzqhzuohl7gnk",143,"139.csv","","81.60000038146973","resources/trios/L2T1A2.jpg","37","restless",0.9,0.4,0.7,0.889680254866814,"true"
"image-keyboard-response",432,440268,"0.0-3.140-1.140","wxdzqhzuohl7gnk",143,"139.csv","","null","resources/maskTrios/L2BB.jpg","null","",NA,NA,NA,NA,""
"image-keyboard-response",433,441480,"0.0-3.140-2.140","wxdzqhzuohl7gnk",143,"139.csv","","null","resources/images/coin2.png","null","",NA,NA,NA,NA,""
"image-keyboard-response",434,441656,"0.0-3.141-0.141","wxdzqhzuohl7gnk",143,"139.csv","","175.5","resources/trios/L2T2A1.jpg","37","restless",0.8,0.4,0.7,0.450270430619671,"true"
"image-keyboard-response",435,442061,"0.0-3.141-1.141","wxdzqhzuohl7gnk",143,"139.csv","","null","resources/maskTrios/L2BB.jpg","null","",NA,NA,NA,NA,""
"image-keyboard-response",436,443274,"0.0-3.141-2.141","wxdzqhzuohl7gnk",143,"139.csv","","null","resources/images/coin2.png","null","",NA,NA,NA,NA,""
"image-keyboard-response",437,443424,"0.0-3.142-0.142","wxdzqhzuohl7gnk",143,"139.csv","","148.9000015258789","resources/trios/L1T2A2.jpg","37","restless",0.7,0.4,0.7,0.932911230637643,"false"
"image-keyboard-response",438,443835,"0.0-3.142-1.142","wxdzqhzuohl7gnk",143,"139.csv","","null","resources/maskTrios/L1BB.jpg","null","",NA,NA,NA,NA,""
"image-keyboard-response",439,445050,"0.0-3.142-2.142","wxdzqhzuohl7gnk",143,"139.csv","","null","resources/images/fishbone.png","null","",NA,NA,NA,NA,""
"image-keyboard-response",440,445120,"0.0-3.143-0.143","wxdzqhzuohl7gnk",143,"139.csv","","69.19999885559082","resources/trios/L2T2A2.jpg","38","restless",0.7,0.4,0.7,0.307129407302588,"true"
"image-keyboard-response",441,445533,"0.0-3.143-1.143","wxdzqhzuohl7gnk",143,"139.csv","","null","resources/maskTrios/BT2B.jpg","null","",NA,NA,NA,NA,""
"image-keyboard-response",442,446736,"0.0-3.143-2.143","wxdzqhzuohl7gnk",143,"139.csv","","null","resources/images/coin2.png","null","",NA,NA,NA,NA,""
"image-keyboard-response",443,446912,"0.0-3.144-0.144","wxdzqhzuohl7gnk",143,"139.csv","","175.39999961853027","resources/trios/L2T2A1.jpg","38","restless",0.7,0.4,0.7,0.476432753458261,"false"
"image-keyboard-response",444,447327,"0.0-3.144-1.144","wxdzqhzuohl7gnk",143,"139.csv","","null","resources/maskTrios/BT2B.jpg","null","",NA,NA,NA,NA,""
"image-keyboard-response",445,448541,"0.0-3.144-2.144","wxdzqhzuohl7gnk",143,"139.csv","","null","resources/images/fishbone.png","null","",NA,NA,NA,NA,""
"image-keyboard-response",446,448544,"0.0-3.145-0.145","wxdzqhzuohl7gnk",143,"139.csv","","2.3999996185302734","resources/trios/L1T2A1.jpg","37","restless",0.6,0.5,0.7,0.502428864471955,"true"
"image-keyboard-response",447,448948,"0.0-3.145-1.145","wxdzqhzuohl7gnk",143,"139.csv","","null","resources/maskTrios/L1BB.jpg","null","",NA,NA,NA,NA,""
"image-keyboard-response",448,450167,"0.0-3.145-2.145","wxdzqhzuohl7gnk",143,"139.csv","","null","resources/images/coin2.png","null","",NA,NA,NA,NA,""
"image-keyboard-response",449,450184,"0.0-3.146-0.146","wxdzqhzuohl7gnk",143,"139.csv","","16.399999618530273","resources/trios/L1T1A2.jpg","37","restless",0.6,0.5,0.7,0.494201377422642,"true"
"image-keyboard-response",450,450589,"0.0-3.146-1.146","wxdzqhzuohl7gnk",143,"139.csv","","null","resources/maskTrios/L1BB.jpg","null","",NA,NA,NA,NA,""
"image-keyboard-response",451,451793,"0.0-3.146-2.146","wxdzqhzuohl7gnk",143,"139.csv","","null","resources/images/coin2.png","null","",NA,NA,NA,NA,""
"image-keyboard-response",452,451937,"0.0-3.147-0.147","wxdzqhzuohl7gnk",143,"139.csv","","143.39999961853027","resources/trios/L2T1A2.jpg","37","restless",0.6,0.5,0.7,0.869543963157243,"false"
"image-keyboard-response",453,452344,"0.0-3.147-1.147","wxdzqhzuohl7gnk",143,"139.csv","","null","resources/maskTrios/L2BB.jpg","null","",NA,NA,NA,NA,""
"image-keyboard-response",454,453556,"0.0-3.147-2.147","wxdzqhzuohl7gnk",143,"139.csv","","null","resources/images/fishbone.png","null","",NA,NA,NA,NA,""
"image-keyboard-response",455,558571,"0.0-3.148-0.148","wxdzqhzuohl7gnk",143,"139.csv","","105014.60000038147","resources/trios/L2T2A2.jpg","37","restless",0.6,0.5,0.6,0.824385348363443,"false"
"image-keyboard-response",456,558987,"0.0-3.148-1.148","wxdzqhzuohl7gnk",143,"139.csv","","null","resources/maskTrios/L2BB.jpg","null","",NA,NA,NA,NA,""
"image-keyboard-response",457,560196,"0.0-3.148-2.148","wxdzqhzuohl7gnk",143,"139.csv","","null","resources/images/fishbone.png","null","",NA,NA,NA,NA,""
"image-keyboard-response",458,560315,"0.0-3.149-0.149","wxdzqhzuohl7gnk",143,"139.csv","","117.89999961853027","resources/trios/L2T1A1.jpg","38","restless",0.6,0.5,0.6,0.273981031897744,"true"
"image-keyboard-response",459,560727,"0.0-3.149-1.149","wxdzqhzuohl7gnk",143,"139.csv","","null","resources/maskTrios/BT1B.jpg","null","",NA,NA,NA,NA,""
"image-keyboard-response",460,561931,"0.0-3.149-2.149","wxdzqhzuohl7gnk",143,"139.csv","","null","resources/images/coin2.png","null","",NA,NA,NA,NA,""
"image-keyboard-response",461,562059,"0.0-3.150-0.150","wxdzqhzuohl7gnk",143,"139.csv","","127.39999961853027","resources/trios/L1T1A1.jpg","38","restless",0.6,0.5,0.6,0.479979546416793,"true"
"image-keyboard-response",462,562478,"0.0-3.150-1.150","wxdzqhzuohl7gnk",143,"139.csv","","null","resources/maskTrios/BT1B.jpg","null","",NA,NA,NA,NA,""
"image-keyboard-response",463,563683,"0.0-3.150-2.150","wxdzqhzuohl7gnk",143,"139.csv","","null","resources/images/coin2.png","null","",NA,NA,NA,NA,""
"image-keyboard-response",464,563779,"0.0-3.151-0.151","wxdzqhzuohl7gnk",143,"139.csv","","95.4000015258789","resources/trios/L1T1A2.jpg","38","restless",0.6,0.5,0.6,0.347075151962912,"true"
"image-keyboard-response",465,564192,"0.0-3.151-1.151","wxdzqhzuohl7gnk",143,"139.csv","","null","resources/maskTrios/BT1B.jpg","null","",NA,NA,NA,NA,""
"image-keyboard-response",466,565403,"0.0-3.151-2.151","wxdzqhzuohl7gnk",143,"139.csv","","null","resources/images/coin2.png","null","",NA,NA,NA,NA,""
"image-keyboard-response",467,565507,"0.0-3.152-0.152","wxdzqhzuohl7gnk",143,"139.csv","","103.60000038146973","resources/trios/L1T1A1.jpg","38","restless",0.6,0.5,0.5,0.746392911791717,"false"
"image-keyboard-response",468,565924,"0.0-3.152-1.152","wxdzqhzuohl7gnk",143,"139.csv","","null","resources/maskTrios/BT1B.jpg","null","",NA,NA,NA,NA,""
"image-keyboard-response",469,567144,"0.0-3.152-2.152","wxdzqhzuohl7gnk",143,"139.csv","","null","resources/images/fishbone.png","null","",NA,NA,NA,NA,""
"image-keyboard-response",470,567283,"0.0-3.153-0.153","wxdzqhzuohl7gnk",143,"139.csv","","138.70000076293945","resources/trios/L2T1A2.jpg","37","restless",0.6,0.5,0.4,0.0236600032303325,"true"
"image-keyboard-response",471,567704,"0.0-3.153-1.153","wxdzqhzuohl7gnk",143,"139.csv","","null","resources/maskTrios/L2BB.jpg","null","",NA,NA,NA,NA,""
"image-keyboard-response",472,568919,"0.0-3.153-2.153","wxdzqhzuohl7gnk",143,"139.csv","","null","resources/images/coin2.png","null","",NA,NA,NA,NA,""
"image-keyboard-response",473,569108,"0.0-3.154-0.154","wxdzqhzuohl7gnk",143,"139.csv","","188.5","resources/trios/L1T2A1.jpg","37","restless",0.6,0.5,0.4,0.192809832416789,"true"
"image-keyboard-response",474,569525,"0.0-3.154-1.154","wxdzqhzuohl7gnk",143,"139.csv","","null","resources/maskTrios/L1BB.jpg","null","",NA,NA,NA,NA,""
"image-keyboard-response",475,570739,"0.0-3.154-2.154","wxdzqhzuohl7gnk",143,"139.csv","","null","resources/images/coin2.png","null","",NA,NA,NA,NA,""
"image-keyboard-response",476,570876,"0.0-3.155-0.155","wxdzqhzuohl7gnk",143,"139.csv","","136.20000076293945","resources/trios/L2T1A2.jpg","37","restless",0.6,0.5,0.4,0.558849498880466,"true"
"image-keyboard-response",477,571296,"0.0-3.155-1.155","wxdzqhzuohl7gnk",143,"139.csv","","null","resources/maskTrios/L2BB.jpg","null","",NA,NA,NA,NA,""
"image-keyboard-response",478,572509,"0.0-3.155-2.155","wxdzqhzuohl7gnk",143,"139.csv","","null","resources/images/coin2.png","null","",NA,NA,NA,NA,""
"image-keyboard-response",479,572612,"0.0-3.156-0.156","wxdzqhzuohl7gnk",143,"139.csv","","102.20000076293945","resources/trios/L1T2A2.jpg","37","restless",0.7,0.5,0.4,0.515216238778325,"true"
"image-keyboard-response",480,573024,"0.0-3.156-1.156","wxdzqhzuohl7gnk",143,"139.csv","","null","resources/maskTrios/L1BB.jpg","null","",NA,NA,NA,NA,""
"image-keyboard-response",481,574240,"0.0-3.156-2.156","wxdzqhzuohl7gnk",143,"139.csv","","null","resources/images/coin2.png","null","",NA,NA,NA,NA,""
"image-keyboard-response",482,574268,"0.0-3.157-0.157","wxdzqhzuohl7gnk",143,"139.csv","","27.19999885559082","resources/trios/L1T2A1.jpg","37","restless",0.7,0.5,0.4,0.0918085174060439,"true"
"image-keyboard-response",483,574678,"0.0-3.157-1.157","wxdzqhzuohl7gnk",143,"139.csv","","null","resources/maskTrios/L1BB.jpg","null","",NA,NA,NA,NA,""
"image-keyboard-response",484,575882,"0.0-3.157-2.157","wxdzqhzuohl7gnk",143,"139.csv","","null","resources/images/coin2.png","null","",NA,NA,NA,NA,""
"image-keyboard-response",485,575997,"0.0-3.158-0.158","wxdzqhzuohl7gnk",143,"139.csv","","114","resources/trios/L1T2A2.jpg","37","restless",0.7,0.5,0.3,0.337048564656131,"true"
"image-keyboard-response",486,576398,"0.0-3.158-1.158","wxdzqhzuohl7gnk",143,"139.csv","","null","resources/maskTrios/L1BB.jpg","null","",NA,NA,NA,NA,""
"image-keyboard-response",487,577617,"0.0-3.158-2.158","wxdzqhzuohl7gnk",143,"139.csv","","null","resources/images/coin2.png","null","",NA,NA,NA,NA,""
"image-keyboard-response",488,577748,"0.0-3.159-0.159","wxdzqhzuohl7gnk",143,"139.csv","","130.9000015258789","resources/trios/L2T2A2.jpg","37","restless",0.7,0.5,0.3,0.715537604520781,"false"
"image-keyboard-response",489,578159,"0.0-3.159-1.159","wxdzqhzuohl7gnk",143,"139.csv","","null","resources/maskTrios/L2BB.jpg","null","",NA,NA,NA,NA,""
"image-keyboard-response",490,579373,"0.0-3.159-2.159","wxdzqhzuohl7gnk",143,"139.csv","","null","resources/images/fishbone.png","null","",NA,NA,NA,NA,""
"image-keyboard-response",491,579413,"0.0-3.160-0.160","wxdzqhzuohl7gnk",143,"139.csv","","39.39999961853027","resources/trios/L2T2A1.jpg","38","restless",0.7,0.5,0.3,0.379841969668923,"true"
"image-keyboard-response",492,579823,"0.0-3.160-1.160","wxdzqhzuohl7gnk",143,"139.csv","","null","resources/maskTrios/BT2B.jpg","null","",NA,NA,NA,NA,""
"image-keyboard-response",493,581027,"0.0-3.160-2.160","wxdzqhzuohl7gnk",143,"139.csv","","null","resources/images/coin2.png","null","",NA,NA,NA,NA,""
"image-keyboard-response",494,581045,"0.0-3.161-0.161","wxdzqhzuohl7gnk",143,"139.csv","","17.799999237060547","resources/trios/L1T1A1.jpg","38","restless",0.7,0.5,0.3,0.013866789779089,"true"
"image-keyboard-response",495,581465,"0.0-3.161-1.161","wxdzqhzuohl7gnk",143,"139.csv","","null","resources/maskTrios/BT1B.jpg","null","",NA,NA,NA,NA,""
"image-keyboard-response",496,582676,"0.0-3.161-2.161","wxdzqhzuohl7gnk",143,"139.csv","","null","resources/images/coin2.png","null","",NA,NA,NA,NA,""
"image-keyboard-response",497,582709,"0.0-3.162-0.162","wxdzqhzuohl7gnk",143,"139.csv","","33.30000114440918","resources/trios/L1T2A1.jpg","38","restless",0.7,0.5,0.3,0.981079198165738,"false"
"image-keyboard-response",498,583117,"0.0-3.162-1.162","wxdzqhzuohl7gnk",143,"139.csv","","null","resources/maskTrios/BT2B.jpg","null","",NA,NA,NA,NA,""
"image-keyboard-response",499,584333,"0.0-3.162-2.162","wxdzqhzuohl7gnk",143,"139.csv","","null","resources/images/fishbone.png","null","",NA,NA,NA,NA,""
"image-keyboard-response",500,584454,"0.0-3.163-0.163","wxdzqhzuohl7gnk",143,"139.csv","","120.39999961853027","resources/trios/L1T1A1.jpg","39","restless",0.7,0.5,0.3,0.15643855181631,"true"
"image-keyboard-response",501,584860,"0.0-3.163-1.163","wxdzqhzuohl7gnk",143,"139.csv","","null","resources/maskTrios/BBA1.jpg","null","",NA,NA,NA,NA,""
"image-keyboard-response",502,586077,"0.0-3.163-2.163","wxdzqhzuohl7gnk",143,"139.csv","","null","resources/images/coin2.png","null","",NA,NA,NA,NA,""
"image-keyboard-response",503,586094,"0.0-3.164-0.164","wxdzqhzuohl7gnk",143,"139.csv","","16.5","resources/trios/L2T1A2.jpg","39","restless",0.7,0.5,0.3,0.874493256523163,"false"
"image-keyboard-response",504,586502,"0.0-3.164-1.164","wxdzqhzuohl7gnk",143,"139.csv","","null","resources/maskTrios/BBA2.jpg","null","",NA,NA,NA,NA,""
"image-keyboard-response",505,587715,"0.0-3.164-2.164","wxdzqhzuohl7gnk",143,"139.csv","","null","resources/images/fishbone.png","null","",NA,NA,NA,NA,""
"image-keyboard-response",506,587766,"0.0-3.165-0.165","wxdzqhzuohl7gnk",143,"139.csv","","50.70000076293945","resources/trios/L1T2A2.jpg","39","restless",0.7,0.5,0.3,0.223943109634136,"true"
"image-keyboard-response",507,588183,"0.0-3.165-1.165","wxdzqhzuohl7gnk",143,"139.csv","","null","resources/maskTrios/BBA2.jpg","null","",NA,NA,NA,NA,""
"image-keyboard-response",508,589400,"0.0-3.165-2.165","wxdzqhzuohl7gnk",143,"139.csv","","null","resources/images/coin2.png","null","",NA,NA,NA,NA,""
"image-keyboard-response",509,589414,"0.0-3.166-0.166","wxdzqhzuohl7gnk",143,"139.csv","","13.899999618530273","resources/trios/L2T2A2.jpg","39","restless",0.7,0.5,0.3,0.396204929446327,"false"
"image-keyboard-response",510,589831,"0.0-3.166-1.166","wxdzqhzuohl7gnk",143,"139.csv","","null","resources/maskTrios/BBA2.jpg","null","",NA,NA,NA,NA,""
"image-keyboard-response",511,591045,"0.0-3.166-2.166","wxdzqhzuohl7gnk",143,"139.csv","","null","resources/images/fishbone.png","null","",NA,NA,NA,NA,""
"image-keyboard-response",512,591110,"0.0-3.167-0.167","wxdzqhzuohl7gnk",143,"139.csv","","64.29999923706055","resources/trios/L1T2A1.jpg","37","restless",0.7,0.5,0.3,0.244815156248734,"true"
"image-keyboard-response",513,591528,"0.0-3.167-1.167","wxdzqhzuohl7gnk",143,"139.csv","","null","resources/maskTrios/L1BB.jpg","null","",NA,NA,NA,NA,""
"image-keyboard-response",514,592741,"0.0-3.167-2.167","wxdzqhzuohl7gnk",143,"139.csv","","null","resources/images/coin2.png","null","",NA,NA,NA,NA,""
"image-keyboard-response",515,593270,"0.0-3.168-0.168","wxdzqhzuohl7gnk",143,"139.csv","","529.2000007629395","resources/trios/L1T2A1.jpg","37","restless",0.7,0.6,0.3,0.389037069099953,"true"
"image-keyboard-response",516,593681,"0.0-3.168-1.168","wxdzqhzuohl7gnk",143,"139.csv","","null","resources/maskTrios/L1BB.jpg","null","",NA,NA,NA,NA,""
"image-keyboard-response",517,594895,"0.0-3.168-2.168","wxdzqhzuohl7gnk",143,"139.csv","","null","resources/images/coin2.png","null","",NA,NA,NA,NA,""
"image-keyboard-response",518,595047,"0.0-3.169-0.169","wxdzqhzuohl7gnk",143,"139.csv","","151.0999984741211","resources/trios/L1T2A1.jpg","37","restless",0.7,0.6,0.3,0.138851696638179,"true"
"image-keyboard-response",519,595457,"0.0-3.169-1.169","wxdzqhzuohl7gnk",143,"139.csv","","null","resources/maskTrios/L1BB.jpg","null","",NA,NA,NA,NA,""
"image-keyboard-response",520,596660,"0.0-3.169-2.169","wxdzqhzuohl7gnk",143,"139.csv","","null","resources/images/coin2.png","null","",NA,NA,NA,NA,""
"image-keyboard-response",521,596759,"0.0-3.170-0.170","wxdzqhzuohl7gnk",143,"139.csv","","98","resources/trios/L2T1A2.jpg","37","restless",0.7,0.6,0.3,0.408686473424305,"true"
"image-keyboard-response",522,597175,"0.0-3.170-1.170","wxdzqhzuohl7gnk",143,"139.csv","","null","resources/maskTrios/L2BB.jpg","null","",NA,NA,NA,NA,""
"image-keyboard-response",523,598390,"0.0-3.170-2.170","wxdzqhzuohl7gnk",143,"139.csv","","null","resources/images/coin2.png","null","",NA,NA,NA,NA,""
"image-keyboard-response",524,598439,"0.0-3.171-0.171","wxdzqhzuohl7gnk",143,"139.csv","","47.900001525878906","resources/trios/L1T1A2.jpg","37","restless",0.7,0.6,0.2,0.119796175387621,"true"
"image-keyboard-response",525,598844,"0.0-3.171-1.171","wxdzqhzuohl7gnk",143,"139.csv","","null","resources/maskTrios/L1BB.jpg","null","",NA,NA,NA,NA,""
"image-keyboard-response",526,600060,"0.0-3.171-2.171","wxdzqhzuohl7gnk",143,"139.csv","","null","resources/images/coin2.png","null","",NA,NA,NA,NA,""
"image-keyboard-response",527,600079,"0.0-3.172-0.172","wxdzqhzuohl7gnk",143,"139.csv","","18.100000381469727","resources/trios/L2T1A2.jpg","37","restless",0.7,0.6,0.2,0.286633322048082,"true"
"image-keyboard-response",528,600498,"0.0-3.172-1.172","wxdzqhzuohl7gnk",143,"139.csv","","null","resources/maskTrios/L2BB.jpg","null","",NA,NA,NA,NA,""
"image-keyboard-response",529,601716,"0.0-3.172-2.172","wxdzqhzuohl7gnk",143,"139.csv","","null","resources/images/coin2.png","null","",NA,NA,NA,NA,""
"image-keyboard-response",530,601719,"0.0-3.173-0.173","wxdzqhzuohl7gnk",143,"139.csv","","3","resources/trios/L2T1A2.jpg","37","restless",0.7,0.6,0.2,0.41006266450557,"true"
"image-keyboard-response",531,602123,"0.0-3.173-1.173","wxdzqhzuohl7gnk",143,"139.csv","","null","resources/maskTrios/L2BB.jpg","null","",NA,NA,NA,NA,""
"image-keyboard-response",532,603343,"0.0-3.173-2.173","wxdzqhzuohl7gnk",143,"139.csv","","null","resources/images/coin2.png","null","",NA,NA,NA,NA,""
"image-keyboard-response",533,603343,"0.0-3.174-0.174","wxdzqhzuohl7gnk",143,"139.csv","","0.1999988555908203","resources/trios/L1T2A2.jpg","37","restless",0.7,0.6,0.2,0.78725977275712,"false"
"image-keyboard-response",534,603748,"0.0-3.174-1.174","wxdzqhzuohl7gnk",143,"139.csv","","null","resources/maskTrios/L1BB.jpg","null","",NA,NA,NA,NA,""
"image-keyboard-response",535,604954,"0.0-3.174-2.174","wxdzqhzuohl7gnk",143,"139.csv","","null","resources/images/fishbone.png","null","",NA,NA,NA,NA,""
"image-keyboard-response",536,605064,"0.0-3.175-0.175","wxdzqhzuohl7gnk",143,"139.csv","","108.39999961853027","resources/trios/L2T1A2.jpg","38","restless",0.7,0.6,0.2,0.941318506283075,"false"
"image-keyboard-response",537,605471,"0.0-3.175-1.175","wxdzqhzuohl7gnk",143,"139.csv","","null","resources/maskTrios/BT1B.jpg","null","",NA,NA,NA,NA,""
"image-keyboard-response",538,606689,"0.0-3.175-2.175","wxdzqhzuohl7gnk",143,"139.csv","","null","resources/images/fishbone.png","null","",NA,NA,NA,NA,""
"image-keyboard-response",539,606776,"0.0-3.176-0.176","wxdzqhzuohl7gnk",143,"139.csv","","85.70000076293945","resources/trios/L2T2A1.jpg","37","restless",0.7,0.7,0.2,0.864221991512316,"false"
"image-keyboard-response",540,607188,"0.0-3.176-1.176","wxdzqhzuohl7gnk",143,"139.csv","","null","resources/maskTrios/L2BB.jpg","null","",NA,NA,NA,NA,""
"image-keyboard-response",541,608403,"0.0-3.176-2.176","wxdzqhzuohl7gnk",143,"139.csv","","null","resources/images/fishbone.png","null","",NA,NA,NA,NA,""
"image-keyboard-response",542,608424,"0.0-3.177-0.177","wxdzqhzuohl7gnk",143,"139.csv","","20.599998474121094","resources/trios/L2T1A1.jpg","39","restless",0.7,0.7,0.3,0.0791534463146328,"true"
"image-keyboard-response",543,608825,"0.0-3.177-1.177","wxdzqhzuohl7gnk",143,"139.csv","","null","resources/maskTrios/BBA1.jpg","null","",NA,NA,NA,NA,""
"image-keyboard-response",544,610035,"0.0-3.177-2.177","wxdzqhzuohl7gnk",143,"139.csv","","null","resources/images/coin2.png","null","",NA,NA,NA,NA,""
"image-keyboard-response",545,610040,"0.0-3.178-0.178","wxdzqhzuohl7gnk",143,"139.csv","","3.8999996185302734","resources/trios/L2T2A1.jpg","39","restless",0.6,0.7,0.3,0.926332279910661,"false"
"image-keyboard-response",546,610443,"0.0-3.178-1.178","wxdzqhzuohl7gnk",143,"139.csv","","null","resources/maskTrios/BBA1.jpg","null","",NA,NA,NA,NA,""
"image-keyboard-response",547,611651,"0.0-3.178-2.178","wxdzqhzuohl7gnk",143,"139.csv","","null","resources/images/fishbone.png","null","",NA,NA,NA,NA,""
"image-keyboard-response",548,611744,"0.0-3.179-0.179","wxdzqhzuohl7gnk",143,"139.csv","","92.60000038146973","resources/trios/L2T2A2.jpg","37","restless",0.6,0.7,0.3,0.341610696397985,"true"
"image-keyboard-response",549,612152,"0.0-3.179-1.179","wxdzqhzuohl7gnk",143,"139.csv","","null","resources/maskTrios/L2BB.jpg","null","",NA,NA,NA,NA,""
"image-keyboard-response",550,613357,"0.0-3.179-2.179","wxdzqhzuohl7gnk",143,"139.csv","","null","resources/images/coin2.png","null","",NA,NA,NA,NA,""
"image-keyboard-response",551,613424,"0.0-3.180-0.180","wxdzqhzuohl7gnk",143,"139.csv","","67.29999923706055","resources/trios/L1T1A1.jpg","37","restless",0.6,0.7,0.3,0.537762332669018,"true"
"image-keyboard-response",552,613839,"0.0-3.180-1.180","wxdzqhzuohl7gnk",143,"139.csv","","null","resources/maskTrios/L1BB.jpg","null","",NA,NA,NA,NA,""
"image-keyboard-response",553,615049,"0.0-3.180-2.180","wxdzqhzuohl7gnk",143,"139.csv","","null","resources/images/coin2.png","null","",NA,NA,NA,NA,""
"image-keyboard-response",554,615201,"0.0-3.181-0.181","wxdzqhzuohl7gnk",143,"139.csv","","151.39999961853027","resources/trios/L2T1A1.jpg","37","restless",0.6,0.8,0.3,0.782423461277402,"false"
"image-keyboard-response",555,615613,"0.0-3.181-1.181","wxdzqhzuohl7gnk",143,"139.csv","","null","resources/maskTrios/L2BB.jpg","null","",NA,NA,NA,NA,""
"image-keyboard-response",556,616819,"0.0-3.181-2.181","wxdzqhzuohl7gnk",143,"139.csv","","null","resources/images/fishbone.png","null","",NA,NA,NA,NA,""
"image-keyboard-response",557,616993,"0.0-3.182-0.182","wxdzqhzuohl7gnk",143,"139.csv","","173","resources/trios/L2T1A2.jpg","38","restless",0.5,0.8,0.3,0.289812715324876,"true"
"image-keyboard-response",558,617397,"0.0-3.182-1.182","wxdzqhzuohl7gnk",143,"139.csv","","null","resources/maskTrios/BT1B.jpg","null","",NA,NA,NA,NA,""
"image-keyboard-response",559,618609,"0.0-3.182-2.182","wxdzqhzuohl7gnk",143,"139.csv","","null","resources/images/coin2.png","null","",NA,NA,NA,NA,""
"image-keyboard-response",560,618777,"0.0-3.183-0.183","wxdzqhzuohl7gnk",143,"139.csv","","167.10000038146973","resources/trios/L1T2A2.jpg","38","restless",0.5,0.8,0.3,0.108029166416691,"true"
"image-keyboard-response",561,619179,"0.0-3.183-1.183","wxdzqhzuohl7gnk",143,"139.csv","","null","resources/maskTrios/BT2B.jpg","null","",NA,NA,NA,NA,""
"image-keyboard-response",562,620387,"0.0-3.183-2.183","wxdzqhzuohl7gnk",143,"139.csv","","null","resources/images/coin2.png","null","",NA,NA,NA,NA,""
"image-keyboard-response",563,620457,"0.0-3.184-0.184","wxdzqhzuohl7gnk",143,"139.csv","","69.5","resources/trios/L1T1A2.jpg","38","restless",0.5,0.8,0.3,0.453827410248913,"true"
"image-keyboard-response",564,620874,"0.0-3.184-1.184","wxdzqhzuohl7gnk",143,"139.csv","","null","resources/maskTrios/BT1B.jpg","null","",NA,NA,NA,NA,""
"image-keyboard-response",565,622087,"0.0-3.184-2.184","wxdzqhzuohl7gnk",143,"139.csv","","null","resources/images/coin2.png","null","",NA,NA,NA,NA,""
"image-keyboard-response",566,622105,"0.0-3.185-0.185","wxdzqhzuohl7gnk",143,"139.csv","","17.399999618530273","resources/trios/L2T1A2.jpg","38","restless",0.5,0.8,0.3,0.0212567645586963,"true"
"image-keyboard-response",567,622521,"0.0-3.185-1.185","wxdzqhzuohl7gnk",143,"139.csv","","null","resources/maskTrios/BT1B.jpg","null","",NA,NA,NA,NA,""
"image-keyboard-response",568,623733,"0.0-3.185-2.185","wxdzqhzuohl7gnk",143,"139.csv","","null","resources/images/coin2.png","null","",NA,NA,NA,NA,""
"image-keyboard-response",569,623889,"0.0-3.186-0.186","wxdzqhzuohl7gnk",143,"139.csv","","156.19999885559082","resources/trios/L1T2A1.jpg","38","restless",0.5,0.8,0.3,0.626741236025938,"true"
"image-keyboard-response",570,624295,"0.0-3.186-1.186","wxdzqhzuohl7gnk",143,"139.csv","","null","resources/maskTrios/BT2B.jpg","null","",NA,NA,NA,NA,""
"image-keyboard-response",571,625513,"0.0-3.186-2.186","wxdzqhzuohl7gnk",143,"139.csv","","null","resources/images/coin2.png","null","",NA,NA,NA,NA,""
"image-keyboard-response",572,625634,"0.0-3.187-0.187","wxdzqhzuohl7gnk",143,"139.csv","","119.70000076293945","resources/trios/L1T2A2.jpg","38","restless",0.5,0.8,0.3,0.512990264796041,"true"
"image-keyboard-response",573,626043,"0.0-3.187-1.187","wxdzqhzuohl7gnk",143,"139.csv","","null","resources/maskTrios/BT2B.jpg","null","",NA,NA,NA,NA,""
"image-keyboard-response",574,627245,"0.0-3.187-2.187","wxdzqhzuohl7gnk",143,"139.csv","","null","resources/images/coin2.png","null","",NA,NA,NA,NA,""
"image-keyboard-response",575,627306,"0.0-3.188-0.188","wxdzqhzuohl7gnk",143,"139.csv","","59.80000114440918","resources/trios/L1T2A1.jpg","38","restless",0.5,0.8,0.3,0.481655332277598,"true"
"image-keyboard-response",576,627713,"0.0-3.188-1.188","wxdzqhzuohl7gnk",143,"139.csv","","null","resources/maskTrios/BT2B.jpg","null","",NA,NA,NA,NA,""
"image-keyboard-response",577,628924,"0.0-3.188-2.188","wxdzqhzuohl7gnk",143,"139.csv","","null","resources/images/coin2.png","null","",NA,NA,NA,NA,""
"image-keyboard-response",578,629074,"0.0-3.189-0.189","wxdzqhzuohl7gnk",143,"139.csv","","149","resources/trios/L1T2A1.jpg","38","restless",0.5,0.9,0.3,0.172149355272346,"true"
"image-keyboard-response",579,629489,"0.0-3.189-1.189","wxdzqhzuohl7gnk",143,"139.csv","","null","resources/maskTrios/BT2B.jpg","null","",NA,NA,NA,NA,""
"image-keyboard-response",580,630704,"0.0-3.189-2.189","wxdzqhzuohl7gnk",143,"139.csv","","null","resources/images/coin2.png","null","",NA,NA,NA,NA,""
"image-keyboard-response",581,630818,"0.0-3.190-0.190","wxdzqhzuohl7gnk",143,"139.csv","","113.10000038146973","resources/trios/L2T2A1.jpg","38","restless",0.5,0.9,0.3,0.622778896168596,"true"
"image-keyboard-response",582,631236,"0.0-3.190-1.190","wxdzqhzuohl7gnk",143,"139.csv","","null","resources/maskTrios/BT2B.jpg","null","",NA,NA,NA,NA,""
"image-keyboard-response",583,632442,"0.0-3.190-2.190","wxdzqhzuohl7gnk",143,"139.csv","","null","resources/images/coin2.png","null","",NA,NA,NA,NA,""
"image-keyboard-response",584,632570,"0.0-3.191-0.191","wxdzqhzuohl7gnk",143,"139.csv","","127.5","resources/trios/L1T1A1.jpg","38","restless",0.5,0.9,0.3,0.394365024759031,"true"
"image-keyboard-response",585,632993,"0.0-3.191-1.191","wxdzqhzuohl7gnk",143,"139.csv","","null","resources/maskTrios/BT1B.jpg","null","",NA,NA,NA,NA,""
"image-keyboard-response",586,634207,"0.0-3.191-2.191","wxdzqhzuohl7gnk",143,"139.csv","","null","resources/images/coin2.png","null","",NA,NA,NA,NA,""
"image-keyboard-response",587,634282,"0.0-3.192-0.192","wxdzqhzuohl7gnk",143,"139.csv","","74.5","resources/trios/L2T2A1.jpg","38","restless",0.5,0.9,0.3,0.202554337781822,"true"
"image-keyboard-response",588,634690,"0.0-3.192-1.192","wxdzqhzuohl7gnk",143,"139.csv","","null","resources/maskTrios/BT2B.jpg","null","",NA,NA,NA,NA,""
"image-keyboard-response",589,635898,"0.0-3.192-2.192","wxdzqhzuohl7gnk",143,"139.csv","","null","resources/images/coin2.png","null","",NA,NA,NA,NA,""
"image-keyboard-response",590,636035,"0.0-3.193-0.193","wxdzqhzuohl7gnk",143,"139.csv","","135.60000038146973","resources/trios/L1T1A2.jpg","38","restless",0.5,0.9,0.3,0.424006470862873,"true"
"image-keyboard-response",591,636458,"0.0-3.193-1.193","wxdzqhzuohl7gnk",143,"139.csv","","null","resources/maskTrios/BT1B.jpg","null","",NA,NA,NA,NA,""
"image-keyboard-response",592,637675,"0.0-3.193-2.193","wxdzqhzuohl7gnk",143,"139.csv","","null","resources/images/coin2.png","null","",NA,NA,NA,NA,""
"image-keyboard-response",593,637683,"0.0-3.194-0.194","wxdzqhzuohl7gnk",143,"139.csv","","7","resources/trios/L2T2A1.jpg","38","restless",0.5,0.9,0.3,0.0606927694594055,"true"
"image-keyboard-response",594,638099,"0.0-3.194-1.194","wxdzqhzuohl7gnk",143,"139.csv","","null","resources/maskTrios/BT2B.jpg","null","",NA,NA,NA,NA,""
"image-keyboard-response",595,639311,"0.0-3.194-2.194","wxdzqhzuohl7gnk",143,"139.csv","","null","resources/images/coin2.png","null","",NA,NA,NA,NA,""
"image-keyboard-response",596,639411,"0.0-3.195-0.195","wxdzqhzuohl7gnk",143,"139.csv","","99.60000038146973","resources/trios/L2T2A1.jpg","38","restless",0.5,0.9,0.3,0.243999670330586,"true"
"image-keyboard-response",597,639820,"0.0-3.195-1.195","wxdzqhzuohl7gnk",143,"139.csv","","null","resources/maskTrios/BT2B.jpg","null","",NA,NA,NA,NA,""
"image-keyboard-response",598,641029,"0.0-3.195-2.195","wxdzqhzuohl7gnk",143,"139.csv","","null","resources/images/coin2.png","null","",NA,NA,NA,NA,""
"image-keyboard-response",599,641147,"0.0-3.196-0.196","wxdzqhzuohl7gnk",143,"139.csv","","117.80000114440918","resources/trios/L1T2A1.jpg","38","restless",0.5,0.9,0.3,0.96843886204127,"false"
"image-keyboard-response",600,641558,"0.0-3.196-1.196","wxdzqhzuohl7gnk",143,"139.csv","","null","resources/maskTrios/BT2B.jpg","null","",NA,NA,NA,NA,""
"image-keyboard-response",601,642772,"0.0-3.196-2.196","wxdzqhzuohl7gnk",143,"139.csv","","null","resources/images/fishbone.png","null","",NA,NA,NA,NA,""
"image-keyboard-response",602,642923,"0.0-3.197-0.197","wxdzqhzuohl7gnk",143,"139.csv","","150.80000114440918","resources/trios/L1T2A1.jpg","37","restless",0.4,0.9,0.3,0.874613526074633,"false"
"image-keyboard-response",603,643331,"0.0-3.197-1.197","wxdzqhzuohl7gnk",143,"139.csv","","null","resources/maskTrios/L1BB.jpg","null","",NA,NA,NA,NA,""
"image-keyboard-response",604,644534,"0.0-3.197-2.197","wxdzqhzuohl7gnk",143,"139.csv","","null","resources/images/fishbone.png","null","",NA,NA,NA,NA,""
"image-keyboard-response",605,644563,"0.0-3.198-0.198","wxdzqhzuohl7gnk",143,"139.csv","","28.299999237060547","resources/trios/L1T2A1.jpg","39","restless",0.4,0.9,0.2,0.257372692986742,"false"
"image-keyboard-response",606,644973,"0.0-3.198-1.198","wxdzqhzuohl7gnk",143,"139.csv","","null","resources/maskTrios/BBA1.jpg","null","",NA,NA,NA,NA,""
