"trial_type","trial_index","time_elapsed","internal_node_id","subject","participantCode","walkNumber","success","rt","stimulus","key_press","test_part","leftProb","midProb","rightProb","generatedNum","correct"
"pavlovia",0,1093,"0.0-0.0","t6pxvx6w4s4uy9z",192,"51.csv","","","","","",NA,NA,NA,NA,""
"fullscreen",1,5576,"0.0-1.0","t6pxvx6w4s4uy9z",192,"51.csv","true","","","","",NA,NA,NA,NA,""
"html-keyboard-response",2,75615,"0.0-2.0-0.0","t6pxvx6w4s4uy9z",192,"51.csv","","70037.39999997616","<p><font size='6'>Arrrgh!</p></font><p>Can you be the best pirate? Try to find lots of gold! But beware, some islands have more gold than others, and over time, the island with the most gold may change. Can YOU figure it out? </p><font size='6'>GOOD LUCK, CAPTAIN!!!</font><p>Press any key to begin</p>","32","",NA,NA,NA,NA,""
"image-keyboard-response",3,78619,"0.0-2.0-1.0","t6pxvx6w4s4uy9z",192,"51.csv","","null","resources/image_sets/111.png","null","",NA,NA,NA,NA,""
"image-keyboard-response",4,92863,"0.0-2.0-2.0","t6pxvx6w4s4uy9z",192,"51.csv","","14241.299999952316","resources/image_sets/left_highlight.png","37","",NA,NA,NA,NA,""
"image-keyboard-response",5,102058,"0.0-2.0-3.0","t6pxvx6w4s4uy9z",192,"51.csv","","9192.400000035763","resources/image_sets/mid_highlight.png","38","",NA,NA,NA,NA,""
"image-keyboard-response",6,103207,"0.0-2.0-4.0","t6pxvx6w4s4uy9z",192,"51.csv","","1147.5","resources/image_sets/right_highlight.png","39","",NA,NA,NA,NA,""
"image-keyboard-response",7,106606,"0.0-2.0-5.0","t6pxvx6w4s4uy9z",192,"51.csv","","3398.099999964237","resources/image_sets/111.png","13","",NA,NA,NA,NA,""
"image-keyboard-response",8,111078,"0.0-2.0-6.0","t6pxvx6w4s4uy9z",192,"51.csv","","4470.600000023842","resources/images/coin2.png","13","",NA,NA,NA,NA,""
"image-keyboard-response",9,113962,"0.0-2.0-7.0","t6pxvx6w4s4uy9z",192,"51.csv","","2881.600000023842","resources/images/fishbone.png","13","",NA,NA,NA,NA,""
"html-keyboard-response",10,127239,"0.0-2.0-8.0","t6pxvx6w4s4uy9z",192,"51.csv","","13276.400000035763","<p>Your first journey will be a long one, but you will get a well deserved break at the end</p><p>After the break you will have four more journeys, but each will be much shorter than the first, and you will have breaks in between each</p><p>Press Enter to begin</p>","13","",NA,NA,NA,NA,""
"image-keyboard-response",11,135103,"0.0-3.0-0.0","t6pxvx6w4s4uy9z",192,"51.csv","","7860.799999952316","resources/trios/L1T1A1.jpg","38","restless",0.3,0.7,0.9,0.799720163288856,"false"
"image-keyboard-response",12,135507,"0.0-3.0-1.0","t6pxvx6w4s4uy9z",192,"51.csv","","null","resources/maskTrios/BT1B.jpg","null","",NA,NA,NA,NA,""
"image-keyboard-response",13,136713,"0.0-3.0-2.0","t6pxvx6w4s4uy9z",192,"51.csv","","null","resources/images/fishbone.png","null","",NA,NA,NA,NA,""
"image-keyboard-response",14,141929,"0.0-3.1-0.1","t6pxvx6w4s4uy9z",192,"51.csv","","5213.399999976158","resources/trios/L1T1A1.jpg","39","restless",0.3,0.7,0.9,0.561937236083076,"true"
"image-keyboard-response",15,142335,"0.0-3.1-1.1","t6pxvx6w4s4uy9z",192,"51.csv","","null","resources/maskTrios/BBA1.jpg","null","",NA,NA,NA,NA,""
"image-keyboard-response",16,143541,"0.0-3.1-2.1","t6pxvx6w4s4uy9z",192,"51.csv","","null","resources/images/coin2.png","null","",NA,NA,NA,NA,""
"image-keyboard-response",17,149897,"0.0-3.2-0.2","t6pxvx6w4s4uy9z",192,"51.csv","","6354.899999976158","resources/trios/L1T4A3.jpg","39","restless",0.3,0.7,0.9,0.44187283237457,"true"
"image-keyboard-response",18,150301,"0.0-3.2-1.2","t6pxvx6w4s4uy9z",192,"51.csv","","null","resources/maskTrios/BBA3.jpg","null","",NA,NA,NA,NA,""
"image-keyboard-response",19,151506,"0.0-3.2-2.2","t6pxvx6w4s4uy9z",192,"51.csv","","null","resources/images/coin2.png","null","",NA,NA,NA,NA,""
"image-keyboard-response",20,157624,"0.0-3.3-0.3","t6pxvx6w4s4uy9z",192,"51.csv","","6115.800000011921","resources/trios/L1T4A3.jpg","39","restless",0.3,0.7,0.9,0.22793403998703,"true"
"image-keyboard-response",21,158026,"0.0-3.3-1.3","t6pxvx6w4s4uy9z",192,"51.csv","","null","resources/maskTrios/BBA3.jpg","null","",NA,NA,NA,NA,""
"image-keyboard-response",22,159234,"0.0-3.3-2.3","t6pxvx6w4s4uy9z",192,"51.csv","","null","resources/images/coin2.png","null","",NA,NA,NA,NA,""
"image-keyboard-response",23,160500,"0.0-3.4-0.4","t6pxvx6w4s4uy9z",192,"51.csv","","1264.199999988079","resources/trios/L4T4A1.jpg","39","restless",0.3,0.7,0.9,0.384457816495501,"true"
"image-keyboard-response",24,160906,"0.0-3.4-1.4","t6pxvx6w4s4uy9z",192,"51.csv","","null","resources/maskTrios/BBA1.jpg","null","",NA,NA,NA,NA,""
"image-keyboard-response",25,162113,"0.0-3.4-2.4","t6pxvx6w4s4uy9z",192,"51.csv","","null","resources/images/coin2.png","null","",NA,NA,NA,NA,""
"image-keyboard-response",26,163656,"0.0-3.5-0.5","t6pxvx6w4s4uy9z",192,"51.csv","","1540.2000000476837","resources/trios/L4T1A3.jpg","39","restless",0.3,0.7,0.9,0.522708202069574,"true"
"image-keyboard-response",27,164062,"0.0-3.5-1.5","t6pxvx6w4s4uy9z",192,"51.csv","","null","resources/maskTrios/BBA3.jpg","null","",NA,NA,NA,NA,""
"image-keyboard-response",28,165268,"0.0-3.5-2.5","t6pxvx6w4s4uy9z",192,"51.csv","","null","resources/images/coin2.png","null","",NA,NA,NA,NA,""
"image-keyboard-response",29,167129,"0.0-3.6-0.6","t6pxvx6w4s4uy9z",192,"51.csv","","1858.699999988079","resources/trios/L4T1A1.jpg","39","restless",0.3,0.7,0.9,0.524980413367113,"true"
"image-keyboard-response",30,167536,"0.0-3.6-1.6","t6pxvx6w4s4uy9z",192,"51.csv","","null","resources/maskTrios/BBA1.jpg","null","",NA,NA,NA,NA,""
"image-keyboard-response",31,168740,"0.0-3.6-2.6","t6pxvx6w4s4uy9z",192,"51.csv","","null","resources/images/coin2.png","null","",NA,NA,NA,NA,""
"image-keyboard-response",32,169961,"0.0-3.7-0.7","t6pxvx6w4s4uy9z",192,"51.csv","","1218.699999988079","resources/trios/L4T4A1.jpg","39","restless",0.3,0.7,0.9,0.226730705203889,"true"
"image-keyboard-response",33,170366,"0.0-3.7-1.7","t6pxvx6w4s4uy9z",192,"51.csv","","null","resources/maskTrios/BBA1.jpg","null","",NA,NA,NA,NA,""
"image-keyboard-response",34,171573,"0.0-3.7-2.7","t6pxvx6w4s4uy9z",192,"51.csv","","null","resources/images/coin2.png","null","",NA,NA,NA,NA,""
"image-keyboard-response",35,172894,"0.0-3.8-0.8","t6pxvx6w4s4uy9z",192,"51.csv","","1318.6000000238419","resources/trios/L4T1A3.jpg","39","restless",0.3,0.7,0.9,0.342740617405138,"true"
"image-keyboard-response",36,173298,"0.0-3.8-1.8","t6pxvx6w4s4uy9z",192,"51.csv","","null","resources/maskTrios/BBA3.jpg","null","",NA,NA,NA,NA,""
"image-keyboard-response",37,174500,"0.0-3.8-2.8","t6pxvx6w4s4uy9z",192,"51.csv","","null","resources/images/coin2.png","null","",NA,NA,NA,NA,""
"image-keyboard-response",38,174983,"0.0-3.9-0.9","t6pxvx6w4s4uy9z",192,"51.csv","","480.89999997615814","resources/trios/L4T4A1.jpg","39","restless",0.3,0.7,0.9,0.102749101243464,"true"
"image-keyboard-response",39,175389,"0.0-3.9-1.9","t6pxvx6w4s4uy9z",192,"51.csv","","null","resources/maskTrios/BBA1.jpg","null","",NA,NA,NA,NA,""
"image-keyboard-response",40,176593,"0.0-3.9-2.9","t6pxvx6w4s4uy9z",192,"51.csv","","null","resources/images/coin2.png","null","",NA,NA,NA,NA,""
"image-keyboard-response",41,177727,"0.0-3.10-0.10","t6pxvx6w4s4uy9z",192,"51.csv","","1132.5","resources/trios/L4T4A1.jpg","39","restless",0.3,0.7,0.9,0.194139425552755,"true"
"image-keyboard-response",42,178132,"0.0-3.10-1.10","t6pxvx6w4s4uy9z",192,"51.csv","","null","resources/maskTrios/BBA1.jpg","null","",NA,NA,NA,NA,""
"image-keyboard-response",43,179339,"0.0-3.10-2.10","t6pxvx6w4s4uy9z",192,"51.csv","","null","resources/images/coin2.png","null","",NA,NA,NA,NA,""
"image-keyboard-response",44,179988,"0.0-3.11-0.11","t6pxvx6w4s4uy9z",192,"51.csv","","646.6000000238419","resources/trios/L4T1A1.jpg","39","restless",0.3,0.7,0.9,0.292203380284825,"true"
"image-keyboard-response",45,180390,"0.0-3.11-1.11","t6pxvx6w4s4uy9z",192,"51.csv","","null","resources/maskTrios/BBA1.jpg","null","",NA,NA,NA,NA,""
"image-keyboard-response",46,181592,"0.0-3.11-2.11","t6pxvx6w4s4uy9z",192,"51.csv","","null","resources/images/coin2.png","null","",NA,NA,NA,NA,""
"image-keyboard-response",47,182300,"0.0-3.12-0.12","t6pxvx6w4s4uy9z",192,"51.csv","","706.1000000238419","resources/trios/L1T4A3.jpg","39","restless",0.3,0.7,0.9,0.118834766565747,"true"
"image-keyboard-response",48,182707,"0.0-3.12-1.12","t6pxvx6w4s4uy9z",192,"51.csv","","null","resources/maskTrios/BBA3.jpg","null","",NA,NA,NA,NA,""
"image-keyboard-response",49,183913,"0.0-3.12-2.12","t6pxvx6w4s4uy9z",192,"51.csv","","null","resources/images/coin2.png","null","",NA,NA,NA,NA,""
"image-keyboard-response",50,184513,"0.0-3.13-0.13","t6pxvx6w4s4uy9z",192,"51.csv","","598.5","resources/trios/L4T4A3.jpg","39","restless",0.2,0.7,0.9,0.7097858455331,"true"
"image-keyboard-response",51,184916,"0.0-3.13-1.13","t6pxvx6w4s4uy9z",192,"51.csv","","null","resources/maskTrios/BBA3.jpg","null","",NA,NA,NA,NA,""
"image-keyboard-response",52,186122,"0.0-3.13-2.13","t6pxvx6w4s4uy9z",192,"51.csv","","null","resources/images/coin2.png","null","",NA,NA,NA,NA,""
"image-keyboard-response",53,186575,"0.0-3.14-0.14","t6pxvx6w4s4uy9z",192,"51.csv","","451.60000002384186","resources/trios/L4T4A1.jpg","39","restless",0.2,0.7,0.9,0.498949696044071,"true"
"image-keyboard-response",54,186982,"0.0-3.14-1.14","t6pxvx6w4s4uy9z",192,"51.csv","","null","resources/maskTrios/BBA1.jpg","null","",NA,NA,NA,NA,""
"image-keyboard-response",55,188189,"0.0-3.14-2.14","t6pxvx6w4s4uy9z",192,"51.csv","","null","resources/images/coin2.png","null","",NA,NA,NA,NA,""
"image-keyboard-response",56,188777,"0.0-3.15-0.15","t6pxvx6w4s4uy9z",192,"51.csv","","586","resources/trios/L1T4A3.jpg","39","restless",0.2,0.7,0.9,0.323742049924728,"true"
"image-keyboard-response",57,189183,"0.0-3.15-1.15","t6pxvx6w4s4uy9z",192,"51.csv","","null","resources/maskTrios/BBA3.jpg","null","",NA,NA,NA,NA,""
"image-keyboard-response",58,190385,"0.0-3.15-2.15","t6pxvx6w4s4uy9z",192,"51.csv","","null","resources/images/coin2.png","null","",NA,NA,NA,NA,""
"image-keyboard-response",59,190950,"0.0-3.16-0.16","t6pxvx6w4s4uy9z",192,"51.csv","","563.3999999761581","resources/trios/L1T4A1.jpg","39","restless",0.2,0.7,0.9,0.30726089391427,"true"
"image-keyboard-response",60,191356,"0.0-3.16-1.16","t6pxvx6w4s4uy9z",192,"51.csv","","null","resources/maskTrios/BBA1.jpg","null","",NA,NA,NA,NA,""
"image-keyboard-response",61,192562,"0.0-3.16-2.16","t6pxvx6w4s4uy9z",192,"51.csv","","null","resources/images/coin2.png","null","",NA,NA,NA,NA,""
"image-keyboard-response",62,193022,"0.0-3.17-0.17","t6pxvx6w4s4uy9z",192,"51.csv","","457.89999997615814","resources/trios/L1T1A3.jpg","39","restless",0.2,0.7,0.9,0.121208677074588,"true"
"image-keyboard-response",63,193430,"0.0-3.17-1.17","t6pxvx6w4s4uy9z",192,"51.csv","","null","resources/maskTrios/BBA3.jpg","null","",NA,NA,NA,NA,""
"image-keyboard-response",64,194632,"0.0-3.17-2.17","t6pxvx6w4s4uy9z",192,"51.csv","","null","resources/images/coin2.png","null","",NA,NA,NA,NA,""
"image-keyboard-response",65,195310,"0.0-3.18-0.18","t6pxvx6w4s4uy9z",192,"51.csv","","676.3000000119209","resources/trios/L4T1A3.jpg","39","restless",0.2,0.8,0.9,0.994598530195744,"false"
"image-keyboard-response",66,195715,"0.0-3.18-1.18","t6pxvx6w4s4uy9z",192,"51.csv","","null","resources/maskTrios/BBA3.jpg","null","",NA,NA,NA,NA,""
"image-keyboard-response",67,196922,"0.0-3.18-2.18","t6pxvx6w4s4uy9z",192,"51.csv","","null","resources/images/fishbone.png","null","",NA,NA,NA,NA,""
"image-keyboard-response",68,202743,"0.0-3.19-0.19","t6pxvx6w4s4uy9z",192,"51.csv","","5818.099999964237","resources/trios/L4T4A3.jpg","39","restless",0.2,0.8,0.9,0.00854807203613839,"true"
"image-keyboard-response",69,203147,"0.0-3.19-1.19","t6pxvx6w4s4uy9z",192,"51.csv","","null","resources/maskTrios/BBA3.jpg","null","",NA,NA,NA,NA,""
"image-keyboard-response",70,204349,"0.0-3.19-2.19","t6pxvx6w4s4uy9z",192,"51.csv","","null","resources/images/coin2.png","null","",NA,NA,NA,NA,""
"image-keyboard-response",71,205070,"0.0-3.20-0.20","t6pxvx6w4s4uy9z",192,"51.csv","","718.8999999761581","resources/trios/L4T1A1.jpg","39","restless",0.2,0.8,0.9,0.0409108954679371,"true"
"image-keyboard-response",72,205476,"0.0-3.20-1.20","t6pxvx6w4s4uy9z",192,"51.csv","","null","resources/maskTrios/BBA1.jpg","null","",NA,NA,NA,NA,""
"image-keyboard-response",73,206681,"0.0-3.20-2.20","t6pxvx6w4s4uy9z",192,"51.csv","","null","resources/images/coin2.png","null","",NA,NA,NA,NA,""
"image-keyboard-response",74,207025,"0.0-3.21-0.21","t6pxvx6w4s4uy9z",192,"51.csv","","342.30000001192093","resources/trios/L1T4A3.jpg","39","restless",0.2,0.8,0.9,0.979628313553318,"false"
"image-keyboard-response",75,207429,"0.0-3.21-1.21","t6pxvx6w4s4uy9z",192,"51.csv","","null","resources/maskTrios/BBA3.jpg","null","",NA,NA,NA,NA,""
"image-keyboard-response",76,208636,"0.0-3.21-2.21","t6pxvx6w4s4uy9z",192,"51.csv","","null","resources/images/fishbone.png","null","",NA,NA,NA,NA,""
"image-keyboard-response",77,209487,"0.0-3.22-0.22","t6pxvx6w4s4uy9z",192,"51.csv","","849.7999999523163","resources/trios/L4T1A3.jpg","39","restless",0.2,0.8,0.9,0.406748097285749,"true"
"image-keyboard-response",78,209893,"0.0-3.22-1.22","t6pxvx6w4s4uy9z",192,"51.csv","","null","resources/maskTrios/BBA3.jpg","null","",NA,NA,NA,NA,""
"image-keyboard-response",79,211098,"0.0-3.22-2.22","t6pxvx6w4s4uy9z",192,"51.csv","","null","resources/images/coin2.png","null","",NA,NA,NA,NA,""
"image-keyboard-response",80,213491,"0.0-3.23-0.23","t6pxvx6w4s4uy9z",192,"51.csv","","2391.399999976158","resources/trios/L4T4A3.jpg","39","restless",0.2,0.8,0.9,0.243448953880684,"true"
"image-keyboard-response",81,213897,"0.0-3.23-1.23","t6pxvx6w4s4uy9z",192,"51.csv","","null","resources/maskTrios/BBA3.jpg","null","",NA,NA,NA,NA,""
"image-keyboard-response",82,215100,"0.0-3.23-2.23","t6pxvx6w4s4uy9z",192,"51.csv","","null","resources/images/coin2.png","null","",NA,NA,NA,NA,""
"image-keyboard-response",83,215963,"0.0-3.24-0.24","t6pxvx6w4s4uy9z",192,"51.csv","","860.8000000119209","resources/trios/L4T4A1.jpg","39","restless",0.3,0.8,0.8,0.503454460301167,"true"
"image-keyboard-response",84,216365,"0.0-3.24-1.24","t6pxvx6w4s4uy9z",192,"51.csv","","null","resources/maskTrios/BBA1.jpg","null","",NA,NA,NA,NA,""
"image-keyboard-response",85,217572,"0.0-3.24-2.24","t6pxvx6w4s4uy9z",192,"51.csv","","null","resources/images/coin2.png","null","",NA,NA,NA,NA,""
"image-keyboard-response",86,221584,"0.0-3.25-0.25","t6pxvx6w4s4uy9z",192,"51.csv","","4010.399999976158","resources/trios/L1T1A3.jpg","39","restless",0.3,0.8,0.7,0.665356930242929,"true"
"image-keyboard-response",87,221990,"0.0-3.25-1.25","t6pxvx6w4s4uy9z",192,"51.csv","","null","resources/maskTrios/BBA3.jpg","null","",NA,NA,NA,NA,""
"image-keyboard-response",88,223196,"0.0-3.25-2.25","t6pxvx6w4s4uy9z",192,"51.csv","","null","resources/images/coin2.png","null","",NA,NA,NA,NA,""
"image-keyboard-response",89,223798,"0.0-3.26-0.26","t6pxvx6w4s4uy9z",192,"51.csv","","599.8000000119209","resources/trios/L4T1A3.jpg","39","restless",0.3,0.9,0.7,0.171373171112539,"true"
"image-keyboard-response",90,224203,"0.0-3.26-1.26","t6pxvx6w4s4uy9z",192,"51.csv","","null","resources/maskTrios/BBA3.jpg","null","",NA,NA,NA,NA,""
"image-keyboard-response",91,225411,"0.0-3.26-2.26","t6pxvx6w4s4uy9z",192,"51.csv","","null","resources/images/coin2.png","null","",NA,NA,NA,NA,""
"image-keyboard-response",92,226050,"0.0-3.27-0.27","t6pxvx6w4s4uy9z",192,"51.csv","","637.1000000238419","resources/trios/L4T1A3.jpg","39","restless",0.3,0.9,0.7,0.191482644088497,"true"
"image-keyboard-response",93,226455,"0.0-3.27-1.27","t6pxvx6w4s4uy9z",192,"51.csv","","null","resources/maskTrios/BBA3.jpg","null","",NA,NA,NA,NA,""
"image-keyboard-response",94,227663,"0.0-3.27-2.27","t6pxvx6w4s4uy9z",192,"51.csv","","null","resources/images/coin2.png","null","",NA,NA,NA,NA,""
"image-keyboard-response",95,228146,"0.0-3.28-0.28","t6pxvx6w4s4uy9z",192,"51.csv","","481.5","resources/trios/L1T1A1.jpg","39","restless",0.3,0.9,0.7,0.156777669306087,"true"
"image-keyboard-response",96,228553,"0.0-3.28-1.28","t6pxvx6w4s4uy9z",192,"51.csv","","null","resources/maskTrios/BBA1.jpg","null","",NA,NA,NA,NA,""
"image-keyboard-response",97,229756,"0.0-3.28-2.28","t6pxvx6w4s4uy9z",192,"51.csv","","null","resources/images/coin2.png","null","",NA,NA,NA,NA,""
"image-keyboard-response",98,230235,"0.0-3.29-0.29","t6pxvx6w4s4uy9z",192,"51.csv","","476.89999997615814","resources/trios/L4T1A1.jpg","39","restless",0.3,0.9,0.7,0.04490945768885,"true"
"image-keyboard-response",99,230639,"0.0-3.29-1.29","t6pxvx6w4s4uy9z",192,"51.csv","","null","resources/maskTrios/BBA1.jpg","null","",NA,NA,NA,NA,""
"image-keyboard-response",100,231845,"0.0-3.29-2.29","t6pxvx6w4s4uy9z",192,"51.csv","","null","resources/images/coin2.png","null","",NA,NA,NA,NA,""
"image-keyboard-response",101,232385,"0.0-3.30-0.30","t6pxvx6w4s4uy9z",192,"51.csv","","538.2000000476837","resources/trios/L1T4A1.jpg","39","restless",0.3,0.9,0.7,0.62409754496135,"true"
"image-keyboard-response",102,232789,"0.0-3.30-1.30","t6pxvx6w4s4uy9z",192,"51.csv","","null","resources/maskTrios/BBA1.jpg","null","",NA,NA,NA,NA,""
"image-keyboard-response",103,233995,"0.0-3.30-2.30","t6pxvx6w4s4uy9z",192,"51.csv","","null","resources/images/coin2.png","null","",NA,NA,NA,NA,""
"image-keyboard-response",104,234465,"0.0-3.31-0.31","t6pxvx6w4s4uy9z",192,"51.csv","","467.69999998807907","resources/trios/L4T4A3.jpg","39","restless",0.4,0.9,0.6,0.543726509315763,"true"
"image-keyboard-response",105,234867,"0.0-3.31-1.31","t6pxvx6w4s4uy9z",192,"51.csv","","null","resources/maskTrios/BBA3.jpg","null","",NA,NA,NA,NA,""
"image-keyboard-response",106,236074,"0.0-3.31-2.31","t6pxvx6w4s4uy9z",192,"51.csv","","null","resources/images/coin2.png","null","",NA,NA,NA,NA,""
"image-keyboard-response",107,236413,"0.0-3.32-0.32","t6pxvx6w4s4uy9z",192,"51.csv","","336.89999997615814","resources/trios/L4T4A1.jpg","39","restless",0.4,0.9,0.6,0.382043988131617,"true"
"image-keyboard-response",108,236820,"0.0-3.32-1.32","t6pxvx6w4s4uy9z",192,"51.csv","","null","resources/maskTrios/BBA1.jpg","null","",NA,NA,NA,NA,""
"image-keyboard-response",109,238024,"0.0-3.32-2.32","t6pxvx6w4s4uy9z",192,"51.csv","","null","resources/images/coin2.png","null","",NA,NA,NA,NA,""
"image-keyboard-response",110,238531,"0.0-3.33-0.33","t6pxvx6w4s4uy9z",192,"51.csv","","505.10000002384186","resources/trios/L1T4A1.jpg","39","restless",0.4,0.9,0.6,0.408015514745104,"true"
"image-keyboard-response",111,238938,"0.0-3.33-1.33","t6pxvx6w4s4uy9z",192,"51.csv","","null","resources/maskTrios/BBA1.jpg","null","",NA,NA,NA,NA,""
"image-keyboard-response",112,240141,"0.0-3.33-2.33","t6pxvx6w4s4uy9z",192,"51.csv","","null","resources/images/coin2.png","null","",NA,NA,NA,NA,""
"image-keyboard-response",113,240623,"0.0-3.34-0.34","t6pxvx6w4s4uy9z",192,"51.csv","","480.69999998807907","resources/trios/L1T1A1.jpg","39","restless",0.5,0.9,0.6,0.495898414737609,"true"
"image-keyboard-response",114,241029,"0.0-3.34-1.34","t6pxvx6w4s4uy9z",192,"51.csv","","null","resources/maskTrios/BBA1.jpg","null","",NA,NA,NA,NA,""
"image-keyboard-response",115,242236,"0.0-3.34-2.34","t6pxvx6w4s4uy9z",192,"51.csv","","null","resources/images/coin2.png","null","",NA,NA,NA,NA,""
"image-keyboard-response",116,242674,"0.0-3.35-0.35","t6pxvx6w4s4uy9z",192,"51.csv","","435.5999999642372","resources/trios/L1T1A3.jpg","39","restless",0.5,0.9,0.6,0.653260061627158,"false"
"image-keyboard-response",117,243079,"0.0-3.35-1.35","t6pxvx6w4s4uy9z",192,"51.csv","","null","resources/maskTrios/BBA3.jpg","null","",NA,NA,NA,NA,""
"image-keyboard-response",118,244286,"0.0-3.35-2.35","t6pxvx6w4s4uy9z",192,"51.csv","","null","resources/images/fishbone.png","null","",NA,NA,NA,NA,""
"image-keyboard-response",119,244640,"0.0-3.36-0.36","t6pxvx6w4s4uy9z",192,"51.csv","","352.89999997615814","resources/trios/L4T4A3.jpg","38","restless",0.5,0.9,0.6,0.719964813746988,"true"
"image-keyboard-response",120,245044,"0.0-3.36-1.36","t6pxvx6w4s4uy9z",192,"51.csv","","null","resources/maskTrios/BT4B.jpg","null","",NA,NA,NA,NA,""
"image-keyboard-response",121,246252,"0.0-3.36-2.36","t6pxvx6w4s4uy9z",192,"51.csv","","null","resources/images/coin2.png","null","",NA,NA,NA,NA,""
"image-keyboard-response",122,246663,"0.0-3.37-0.37","t6pxvx6w4s4uy9z",192,"51.csv","","409.69999998807907","resources/trios/L1T1A3.jpg","38","restless",0.5,0.9,0.6,0.0259293169381278,"true"
"image-keyboard-response",123,247069,"0.0-3.37-1.37","t6pxvx6w4s4uy9z",192,"51.csv","","null","resources/maskTrios/BT1B.jpg","null","",NA,NA,NA,NA,""
"image-keyboard-response",124,248272,"0.0-3.37-2.37","t6pxvx6w4s4uy9z",192,"51.csv","","null","resources/images/coin2.png","null","",NA,NA,NA,NA,""
"image-keyboard-response",125,248643,"0.0-3.38-0.38","t6pxvx6w4s4uy9z",192,"51.csv","","368.0999999642372","resources/trios/L1T1A3.jpg","38","restless",0.5,0.9,0.6,0.867665951951324,"true"
"image-keyboard-response",126,249045,"0.0-3.38-1.38","t6pxvx6w4s4uy9z",192,"51.csv","","null","resources/maskTrios/BT1B.jpg","null","",NA,NA,NA,NA,""
"image-keyboard-response",127,250252,"0.0-3.38-2.38","t6pxvx6w4s4uy9z",192,"51.csv","","null","resources/images/coin2.png","null","",NA,NA,NA,NA,""
"image-keyboard-response",128,250668,"0.0-3.39-0.39","t6pxvx6w4s4uy9z",192,"51.csv","","415","resources/trios/L1T1A3.jpg","38","restless",0.5,0.9,0.6,0.424536337104455,"true"
"image-keyboard-response",129,251075,"0.0-3.39-1.39","t6pxvx6w4s4uy9z",192,"51.csv","","null","resources/maskTrios/BT1B.jpg","null","",NA,NA,NA,NA,""
"image-keyboard-response",130,252278,"0.0-3.39-2.39","t6pxvx6w4s4uy9z",192,"51.csv","","null","resources/images/coin2.png","null","",NA,NA,NA,NA,""
"image-keyboard-response",131,252613,"0.0-3.40-0.40","t6pxvx6w4s4uy9z",192,"51.csv","","332.4000000357628","resources/trios/L1T1A1.jpg","38","restless",0.4,0.9,0.6,0.527447764810041,"true"
"image-keyboard-response",132,253018,"0.0-3.40-1.40","t6pxvx6w4s4uy9z",192,"51.csv","","null","resources/maskTrios/BT1B.jpg","null","",NA,NA,NA,NA,""
"image-keyboard-response",133,254220,"0.0-3.40-2.40","t6pxvx6w4s4uy9z",192,"51.csv","","null","resources/images/coin2.png","null","",NA,NA,NA,NA,""
"image-keyboard-response",134,254674,"0.0-3.41-0.41","t6pxvx6w4s4uy9z",192,"51.csv","","452.30000001192093","resources/trios/L1T4A3.jpg","38","restless",0.4,0.9,0.5,0.375963680755116,"true"
"image-keyboard-response",135,255078,"0.0-3.41-1.41","t6pxvx6w4s4uy9z",192,"51.csv","","null","resources/maskTrios/BT4B.jpg","null","",NA,NA,NA,NA,""
"image-keyboard-response",136,256283,"0.0-3.41-2.41","t6pxvx6w4s4uy9z",192,"51.csv","","null","resources/images/coin2.png","null","",NA,NA,NA,NA,""
"image-keyboard-response",137,256736,"0.0-3.42-0.42","t6pxvx6w4s4uy9z",192,"51.csv","","450.19999998807907","resources/trios/L1T1A3.jpg","38","restless",0.4,0.9,0.5,0.868212338930541,"true"
"image-keyboard-response",138,257139,"0.0-3.42-1.42","t6pxvx6w4s4uy9z",192,"51.csv","","null","resources/maskTrios/BT1B.jpg","null","",NA,NA,NA,NA,""
"image-keyboard-response",139,258345,"0.0-3.42-2.42","t6pxvx6w4s4uy9z",192,"51.csv","","null","resources/images/coin2.png","null","",NA,NA,NA,NA,""
"image-keyboard-response",140,258554,"0.0-3.43-0.43","t6pxvx6w4s4uy9z",192,"51.csv","","207.29999995231628","resources/trios/L1T1A3.jpg","38","restless",0.4,0.9,0.5,0.507628086574762,"true"
"image-keyboard-response",141,258961,"0.0-3.43-1.43","t6pxvx6w4s4uy9z",192,"51.csv","","null","resources/maskTrios/BT1B.jpg","null","",NA,NA,NA,NA,""
"image-keyboard-response",142,260167,"0.0-3.43-2.43","t6pxvx6w4s4uy9z",192,"51.csv","","null","resources/images/coin2.png","null","",NA,NA,NA,NA,""
"image-keyboard-response",143,260404,"0.0-3.44-0.44","t6pxvx6w4s4uy9z",192,"51.csv","","235.19999998807907","resources/trios/L1T1A3.jpg","38","restless",0.4,0.9,0.5,0.217020863942589,"true"
"image-keyboard-response",144,260811,"0.0-3.44-1.44","t6pxvx6w4s4uy9z",192,"51.csv","","null","resources/maskTrios/BT1B.jpg","null","",NA,NA,NA,NA,""
"image-keyboard-response",145,262017,"0.0-3.44-2.44","t6pxvx6w4s4uy9z",192,"51.csv","","null","resources/images/coin2.png","null","",NA,NA,NA,NA,""
"image-keyboard-response",146,262310,"0.0-3.45-0.45","t6pxvx6w4s4uy9z",192,"51.csv","","291.4000000357628","resources/trios/L1T4A3.jpg","38","restless",0.4,0.9,0.5,0.588816373707118,"true"
"image-keyboard-response",147,262717,"0.0-3.45-1.45","t6pxvx6w4s4uy9z",192,"51.csv","","null","resources/maskTrios/BT4B.jpg","null","",NA,NA,NA,NA,""
"image-keyboard-response",148,263924,"0.0-3.45-2.45","t6pxvx6w4s4uy9z",192,"51.csv","","null","resources/images/coin2.png","null","",NA,NA,NA,NA,""
"image-keyboard-response",149,264255,"0.0-3.46-0.46","t6pxvx6w4s4uy9z",192,"51.csv","","329.4000000357628","resources/trios/L4T1A3.jpg","38","restless",0.4,0.9,0.5,0.837678625106187,"true"
"image-keyboard-response",150,264661,"0.0-3.46-1.46","t6pxvx6w4s4uy9z",192,"51.csv","","null","resources/maskTrios/BT1B.jpg","null","",NA,NA,NA,NA,""
"image-keyboard-response",151,265868,"0.0-3.46-2.46","t6pxvx6w4s4uy9z",192,"51.csv","","null","resources/images/coin2.png","null","",NA,NA,NA,NA,""
"image-keyboard-response",152,266181,"0.0-3.47-0.47","t6pxvx6w4s4uy9z",192,"51.csv","","310.5","resources/trios/L4T1A1.jpg","38","restless",0.4,0.9,0.5,0.877525063724531,"true"
"image-keyboard-response",153,266585,"0.0-3.47-1.47","t6pxvx6w4s4uy9z",192,"51.csv","","null","resources/maskTrios/BT1B.jpg","null","",NA,NA,NA,NA,""
"image-keyboard-response",154,267789,"0.0-3.47-2.47","t6pxvx6w4s4uy9z",192,"51.csv","","null","resources/images/coin2.png","null","",NA,NA,NA,NA,""
"image-keyboard-response",155,268122,"0.0-3.48-0.48","t6pxvx6w4s4uy9z",192,"51.csv","","331.2999999523163","resources/trios/L4T1A3.jpg","38","restless",0.4,0.9,0.5,0.087357418266812,"true"
"image-keyboard-response",156,268528,"0.0-3.48-1.48","t6pxvx6w4s4uy9z",192,"51.csv","","null","resources/maskTrios/BT1B.jpg","null","",NA,NA,NA,NA,""
"image-keyboard-response",157,269735,"0.0-3.48-2.48","t6pxvx6w4s4uy9z",192,"51.csv","","null","resources/images/coin2.png","null","",NA,NA,NA,NA,""
"image-keyboard-response",158,270071,"0.0-3.49-0.49","t6pxvx6w4s4uy9z",192,"51.csv","","334.5","resources/trios/L4T1A3.jpg","38","restless",0.4,0.9,0.5,0.46976622559557,"true"
"image-keyboard-response",159,270477,"0.0-3.49-1.49","t6pxvx6w4s4uy9z",192,"51.csv","","null","resources/maskTrios/BT1B.jpg","null","",NA,NA,NA,NA,""
"image-keyboard-response",160,271682,"0.0-3.49-2.49","t6pxvx6w4s4uy9z",192,"51.csv","","null","resources/images/coin2.png","null","",NA,NA,NA,NA,""
"image-keyboard-response",161,272191,"0.0-3.50-0.50","t6pxvx6w4s4uy9z",192,"51.csv","","508.5","resources/trios/L1T1A1.jpg","38","restless",0.5,0.9,0.5,0.586017439426205,"true"
"image-keyboard-response",162,272594,"0.0-3.50-1.50","t6pxvx6w4s4uy9z",192,"51.csv","","null","resources/maskTrios/BT1B.jpg","null","",NA,NA,NA,NA,""
"image-keyboard-response",163,273801,"0.0-3.50-2.50","t6pxvx6w4s4uy9z",192,"51.csv","","null","resources/images/coin2.png","null","",NA,NA,NA,NA,""
"image-keyboard-response",164,274048,"0.0-3.51-0.51","t6pxvx6w4s4uy9z",192,"51.csv","","244.4000000357628","resources/trios/L4T4A1.jpg","38","restless",0.5,0.8,0.5,0.371270835151147,"true"
"image-keyboard-response",165,274455,"0.0-3.51-1.51","t6pxvx6w4s4uy9z",192,"51.csv","","null","resources/maskTrios/BT4B.jpg","null","",NA,NA,NA,NA,""
"image-keyboard-response",166,275659,"0.0-3.51-2.51","t6pxvx6w4s4uy9z",192,"51.csv","","null","resources/images/coin2.png","null","",NA,NA,NA,NA,""
"image-keyboard-response",167,275740,"0.0-3.52-0.52","t6pxvx6w4s4uy9z",192,"51.csv","","78.60000002384186","resources/trios/L1T1A1.jpg","38","restless",0.5,0.8,0.5,0.387219199113473,"true"
"image-keyboard-response",168,276144,"0.0-3.52-1.52","t6pxvx6w4s4uy9z",192,"51.csv","","null","resources/maskTrios/BT1B.jpg","null","",NA,NA,NA,NA,""
"image-keyboard-response",169,277349,"0.0-3.52-2.52","t6pxvx6w4s4uy9z",192,"51.csv","","null","resources/images/coin2.png","null","",NA,NA,NA,NA,""
"image-keyboard-response",170,277745,"0.0-3.53-0.53","t6pxvx6w4s4uy9z",192,"51.csv","","393.9000000357628","resources/trios/L1T4A1.jpg","38","restless",0.5,0.7,0.5,0.361325395159444,"true"
"image-keyboard-response",171,278149,"0.0-3.53-1.53","t6pxvx6w4s4uy9z",192,"51.csv","","null","resources/maskTrios/BT4B.jpg","null","",NA,NA,NA,NA,""
"image-keyboard-response",172,279354,"0.0-3.53-2.53","t6pxvx6w4s4uy9z",192,"51.csv","","null","resources/images/coin2.png","null","",NA,NA,NA,NA,""
"image-keyboard-response",173,279683,"0.0-3.54-0.54","t6pxvx6w4s4uy9z",192,"51.csv","","327","resources/trios/L4T4A1.jpg","38","restless",0.5,0.7,0.5,0.271807041177,"true"
"image-keyboard-response",174,280088,"0.0-3.54-1.54","t6pxvx6w4s4uy9z",192,"51.csv","","null","resources/maskTrios/BT4B.jpg","null","",NA,NA,NA,NA,""
"image-keyboard-response",175,281293,"0.0-3.54-2.54","t6pxvx6w4s4uy9z",192,"51.csv","","null","resources/images/coin2.png","null","",NA,NA,NA,NA,""
"image-keyboard-response",176,281526,"0.0-3.55-0.55","t6pxvx6w4s4uy9z",192,"51.csv","","230.69999998807907","resources/trios/L4T1A1.jpg","38","restless",0.5,0.7,0.5,0.571483034705736,"true"
"image-keyboard-response",177,281933,"0.0-3.55-1.55","t6pxvx6w4s4uy9z",192,"51.csv","","null","resources/maskTrios/BT1B.jpg","null","",NA,NA,NA,NA,""
"image-keyboard-response",178,283138,"0.0-3.55-2.55","t6pxvx6w4s4uy9z",192,"51.csv","","null","resources/images/coin2.png","null","",NA,NA,NA,NA,""
"image-keyboard-response",179,283484,"0.0-3.56-0.56","t6pxvx6w4s4uy9z",192,"51.csv","","343.80000001192093","resources/trios/L1T4A1.jpg","38","restless",0.5,0.7,0.5,0.125943364982615,"true"
"image-keyboard-response",180,283888,"0.0-3.56-1.56","t6pxvx6w4s4uy9z",192,"51.csv","","null","resources/maskTrios/BT4B.jpg","null","",NA,NA,NA,NA,""
"image-keyboard-response",181,285093,"0.0-3.56-2.56","t6pxvx6w4s4uy9z",192,"51.csv","","null","resources/images/coin2.png","null","",NA,NA,NA,NA,""
"image-keyboard-response",182,285454,"0.0-3.57-0.57","t6pxvx6w4s4uy9z",192,"51.csv","","359.30000001192093","resources/trios/L1T1A3.jpg","38","restless",0.5,0.7,0.5,0.148912938124368,"true"
"image-keyboard-response",183,285861,"0.0-3.57-1.57","t6pxvx6w4s4uy9z",192,"51.csv","","null","resources/maskTrios/BT1B.jpg","null","",NA,NA,NA,NA,""
"image-keyboard-response",184,287066,"0.0-3.57-2.57","t6pxvx6w4s4uy9z",192,"51.csv","","null","resources/images/coin2.png","null","",NA,NA,NA,NA,""
"image-keyboard-response",185,287431,"0.0-3.58-0.58","t6pxvx6w4s4uy9z",192,"51.csv","","362.10000002384186","resources/trios/L4T4A3.jpg","38","restless",0.5,0.7,0.5,0.863050869057529,"false"
"image-keyboard-response",186,287838,"0.0-3.58-1.58","t6pxvx6w4s4uy9z",192,"51.csv","","null","resources/maskTrios/BT4B.jpg","null","",NA,NA,NA,NA,""
"image-keyboard-response",187,289042,"0.0-3.58-2.58","t6pxvx6w4s4uy9z",192,"51.csv","","null","resources/images/fishbone.png","null","",NA,NA,NA,NA,""
"image-keyboard-response",188,289308,"0.0-3.59-0.59","t6pxvx6w4s4uy9z",192,"51.csv","","264","resources/trios/L4T4A3.jpg","37","restless",0.5,0.7,0.5,0.63485860434858,"false"
"image-keyboard-response",189,289712,"0.0-3.59-1.59","t6pxvx6w4s4uy9z",192,"51.csv","","null","resources/maskTrios/L4BB.jpg","null","",NA,NA,NA,NA,""
"image-keyboard-response",190,290919,"0.0-3.59-2.59","t6pxvx6w4s4uy9z",192,"51.csv","","null","resources/images/fishbone.png","null","",NA,NA,NA,NA,""
"image-keyboard-response",191,291181,"0.0-3.60-0.60","t6pxvx6w4s4uy9z",192,"51.csv","","260.10000002384186","resources/trios/L1T1A1.jpg","37","restless",0.5,0.7,0.5,0.883906150223538,"false"
"image-keyboard-response",192,291588,"0.0-3.60-1.60","t6pxvx6w4s4uy9z",192,"51.csv","","null","resources/maskTrios/L1BB.jpg","null","",NA,NA,NA,NA,""
"image-keyboard-response",193,292793,"0.0-3.60-2.60","t6pxvx6w4s4uy9z",192,"51.csv","","null","resources/images/fishbone.png","null","",NA,NA,NA,NA,""
"image-keyboard-response",194,293049,"0.0-3.61-0.61","t6pxvx6w4s4uy9z",192,"51.csv","","254.20000004768372","resources/trios/L1T4A1.jpg","38","restless",0.5,0.7,0.5,0.835141781385633,"false"
"image-keyboard-response",195,293454,"0.0-3.61-1.61","t6pxvx6w4s4uy9z",192,"51.csv","","null","resources/maskTrios/BT4B.jpg","null","",NA,NA,NA,NA,""
"image-keyboard-response",196,294659,"0.0-3.61-2.61","t6pxvx6w4s4uy9z",192,"51.csv","","null","resources/images/fishbone.png","null","",NA,NA,NA,NA,""
"image-keyboard-response",197,294879,"0.0-3.62-0.62","t6pxvx6w4s4uy9z",192,"51.csv","","217.69999998807907","resources/trios/L4T1A1.jpg","39","restless",0.5,0.7,0.5,0.880273911145236,"false"
"image-keyboard-response",198,295285,"0.0-3.62-1.62","t6pxvx6w4s4uy9z",192,"51.csv","","null","resources/maskTrios/BBA1.jpg","null","",NA,NA,NA,NA,""
"image-keyboard-response",199,296488,"0.0-3.62-2.62","t6pxvx6w4s4uy9z",192,"51.csv","","null","resources/images/fishbone.png","null","",NA,NA,NA,NA,""
"image-keyboard-response",200,296814,"0.0-3.63-0.63","t6pxvx6w4s4uy9z",192,"51.csv","","323.39999997615814","resources/trios/L1T4A1.jpg","39","restless",0.5,0.7,0.5,0.795665991293922,"false"
"image-keyboard-response",201,297221,"0.0-3.63-1.63","t6pxvx6w4s4uy9z",192,"51.csv","","null","resources/maskTrios/BBA1.jpg","null","",NA,NA,NA,NA,""
"image-keyboard-response",202,298426,"0.0-3.63-2.63","t6pxvx6w4s4uy9z",192,"51.csv","","null","resources/images/fishbone.png","null","",NA,NA,NA,NA,""
"image-keyboard-response",203,299237,"0.0-3.64-0.64","t6pxvx6w4s4uy9z",192,"51.csv","","809.3999999761581","resources/trios/L1T1A1.jpg","39","restless",0.5,0.7,0.5,0.960828943098638,"false"
"image-keyboard-response",204,299642,"0.0-3.64-1.64","t6pxvx6w4s4uy9z",192,"51.csv","","null","resources/maskTrios/BBA1.jpg","null","",NA,NA,NA,NA,""
"image-keyboard-response",205,300849,"0.0-3.64-2.64","t6pxvx6w4s4uy9z",192,"51.csv","","null","resources/images/fishbone.png","null","",NA,NA,NA,NA,""
"image-keyboard-response",206,301165,"0.0-3.65-0.65","t6pxvx6w4s4uy9z",192,"51.csv","","313.5999999642372","resources/trios/L4T1A1.jpg","38","restless",0.5,0.7,0.5,0.703203637387939,"false"
"image-keyboard-response",207,301570,"0.0-3.65-1.65","t6pxvx6w4s4uy9z",192,"51.csv","","null","resources/maskTrios/BT1B.jpg","null","",NA,NA,NA,NA,""
"image-keyboard-response",208,302775,"0.0-3.65-2.65","t6pxvx6w4s4uy9z",192,"51.csv","","null","resources/images/fishbone.png","null","",NA,NA,NA,NA,""
"image-keyboard-response",209,303062,"0.0-3.66-0.66","t6pxvx6w4s4uy9z",192,"51.csv","","285.60000002384186","resources/trios/L4T1A1.jpg","37","restless",0.5,0.7,0.5,0.216635512696,"true"
"image-keyboard-response",210,303469,"0.0-3.66-1.66","t6pxvx6w4s4uy9z",192,"51.csv","","null","resources/maskTrios/L4BB.jpg","null","",NA,NA,NA,NA,""
"image-keyboard-response",211,304675,"0.0-3.66-2.66","t6pxvx6w4s4uy9z",192,"51.csv","","null","resources/images/coin2.png","null","",NA,NA,NA,NA,""
"image-keyboard-response",212,305061,"0.0-3.67-0.67","t6pxvx6w4s4uy9z",192,"51.csv","","384.19999998807907","resources/trios/L1T1A3.jpg","37","restless",0.5,0.7,0.5,0.310653830653284,"true"
"image-keyboard-response",213,305464,"0.0-3.67-1.67","t6pxvx6w4s4uy9z",192,"51.csv","","null","resources/maskTrios/L1BB.jpg","null","",NA,NA,NA,NA,""
"image-keyboard-response",214,306671,"0.0-3.67-2.67","t6pxvx6w4s4uy9z",192,"51.csv","","null","resources/images/coin2.png","null","",NA,NA,NA,NA,""
"image-keyboard-response",215,307001,"0.0-3.68-0.68","t6pxvx6w4s4uy9z",192,"51.csv","","328","resources/trios/L1T1A1.jpg","37","restless",0.5,0.7,0.5,0.968986492939431,"false"
"image-keyboard-response",216,307407,"0.0-3.68-1.68","t6pxvx6w4s4uy9z",192,"51.csv","","null","resources/maskTrios/L1BB.jpg","null","",NA,NA,NA,NA,""
"image-keyboard-response",217,308612,"0.0-3.68-2.68","t6pxvx6w4s4uy9z",192,"51.csv","","null","resources/images/fishbone.png","null","",NA,NA,NA,NA,""
"image-keyboard-response",218,309131,"0.0-3.69-0.69","t6pxvx6w4s4uy9z",192,"51.csv","","517.0999999642372","resources/trios/L4T4A1.jpg","37","restless",0.5,0.7,0.5,0.258520848639487,"true"
"image-keyboard-response",219,309538,"0.0-3.69-1.69","t6pxvx6w4s4uy9z",192,"51.csv","","null","resources/maskTrios/L4BB.jpg","null","",NA,NA,NA,NA,""
"image-keyboard-response",220,310744,"0.0-3.69-2.69","t6pxvx6w4s4uy9z",192,"51.csv","","null","resources/images/coin2.png","null","",NA,NA,NA,NA,""
"image-keyboard-response",221,311112,"0.0-3.70-0.70","t6pxvx6w4s4uy9z",192,"51.csv","","365","resources/trios/L1T1A1.jpg","37","restless",0.5,0.7,0.5,0.797195073557821,"false"
"image-keyboard-response",222,311517,"0.0-3.70-1.70","t6pxvx6w4s4uy9z",192,"51.csv","","null","resources/maskTrios/L1BB.jpg","null","",NA,NA,NA,NA,""
"image-keyboard-response",223,312724,"0.0-3.70-2.70","t6pxvx6w4s4uy9z",192,"51.csv","","null","resources/images/fishbone.png","null","",NA,NA,NA,NA,""
"image-keyboard-response",224,313272,"0.0-3.71-0.71","t6pxvx6w4s4uy9z",192,"51.csv","","546.6000000238419","resources/trios/L4T4A1.jpg","37","restless",0.6,0.7,0.5,0.371068506223667,"true"
"image-keyboard-response",225,313680,"0.0-3.71-1.71","t6pxvx6w4s4uy9z",192,"51.csv","","null","resources/maskTrios/L4BB.jpg","null","",NA,NA,NA,NA,""
"image-keyboard-response",226,314886,"0.0-3.71-2.71","t6pxvx6w4s4uy9z",192,"51.csv","","null","resources/images/coin2.png","null","",NA,NA,NA,NA,""
"image-keyboard-response",227,315246,"0.0-3.72-0.72","t6pxvx6w4s4uy9z",192,"51.csv","","357.39999997615814","resources/trios/L1T4A1.jpg","38","restless",0.6,0.7,0.5,0.760447706289744,"false"
"image-keyboard-response",228,315649,"0.0-3.72-1.72","t6pxvx6w4s4uy9z",192,"51.csv","","null","resources/maskTrios/BT4B.jpg","null","",NA,NA,NA,NA,""
"image-keyboard-response",229,316854,"0.0-3.72-2.72","t6pxvx6w4s4uy9z",192,"51.csv","","null","resources/images/fishbone.png","null","",NA,NA,NA,NA,""
"image-keyboard-response",230,317062,"0.0-3.73-0.73","t6pxvx6w4s4uy9z",192,"51.csv","","206.4000000357628","resources/trios/L1T1A3.jpg","38","restless",0.6,0.7,0.5,0.701266070245743,"false"
"image-keyboard-response",231,317470,"0.0-3.73-1.73","t6pxvx6w4s4uy9z",192,"51.csv","","null","resources/maskTrios/BT1B.jpg","null","",NA,NA,NA,NA,""
"image-keyboard-response",232,318674,"0.0-3.73-2.73","t6pxvx6w4s4uy9z",192,"51.csv","","null","resources/images/fishbone.png","null","",NA,NA,NA,NA,""
"image-keyboard-response",233,319162,"0.0-3.74-0.74","t6pxvx6w4s4uy9z",192,"51.csv","","486","resources/trios/L4T1A1.jpg","39","restless",0.6,0.7,0.5,0.867672267657121,"false"
"image-keyboard-response",234,319569,"0.0-3.74-1.74","t6pxvx6w4s4uy9z",192,"51.csv","","null","resources/maskTrios/BBA1.jpg","null","",NA,NA,NA,NA,""
"image-keyboard-response",235,320775,"0.0-3.74-2.74","t6pxvx6w4s4uy9z",192,"51.csv","","null","resources/images/fishbone.png","null","",NA,NA,NA,NA,""
"image-keyboard-response",236,321030,"0.0-3.75-0.75","t6pxvx6w4s4uy9z",192,"51.csv","","253","resources/trios/L4T4A3.jpg","39","restless",0.6,0.7,0.5,0.360042337493357,"true"
"image-keyboard-response",237,321437,"0.0-3.75-1.75","t6pxvx6w4s4uy9z",192,"51.csv","","null","resources/maskTrios/BBA3.jpg","null","",NA,NA,NA,NA,""
"image-keyboard-response",238,322641,"0.0-3.75-2.75","t6pxvx6w4s4uy9z",192,"51.csv","","null","resources/images/coin2.png","null","",NA,NA,NA,NA,""
"image-keyboard-response",239,322854,"0.0-3.76-0.76","t6pxvx6w4s4uy9z",192,"51.csv","","212.10000002384186","resources/trios/L1T4A3.jpg","39","restless",0.6,0.6,0.5,0.967914188294167,"false"
"image-keyboard-response",240,323258,"0.0-3.76-1.76","t6pxvx6w4s4uy9z",192,"51.csv","","null","resources/maskTrios/BBA3.jpg","null","",NA,NA,NA,NA,""
"image-keyboard-response",241,324465,"0.0-3.76-2.76","t6pxvx6w4s4uy9z",192,"51.csv","","null","resources/images/fishbone.png","null","",NA,NA,NA,NA,""
"image-keyboard-response",242,324726,"0.0-3.77-0.77","t6pxvx6w4s4uy9z",192,"51.csv","","258.30000001192093","resources/trios/L1T1A1.jpg","37","restless",0.6,0.6,0.5,0.991110132164319,"false"
"image-keyboard-response",243,325130,"0.0-3.77-1.77","t6pxvx6w4s4uy9z",192,"51.csv","","null","resources/maskTrios/L1BB.jpg","null","",NA,NA,NA,NA,""
"image-keyboard-response",244,326336,"0.0-3.77-2.77","t6pxvx6w4s4uy9z",192,"51.csv","","null","resources/images/fishbone.png","null","",NA,NA,NA,NA,""
"image-keyboard-response",245,326665,"0.0-3.78-0.78","t6pxvx6w4s4uy9z",192,"51.csv","","326.39999997615814","resources/trios/L4T1A1.jpg","39","restless",0.6,0.6,0.5,0.232345245253743,"true"
"image-keyboard-response",246,327072,"0.0-3.78-1.78","t6pxvx6w4s4uy9z",192,"51.csv","","null","resources/maskTrios/BBA1.jpg","null","",NA,NA,NA,NA,""
"image-keyboard-response",247,328274,"0.0-3.78-2.78","t6pxvx6w4s4uy9z",192,"51.csv","","null","resources/images/coin2.png","null","",NA,NA,NA,NA,""
"image-keyboard-response",248,328751,"0.0-3.79-0.79","t6pxvx6w4s4uy9z",192,"51.csv","","475.2000000476837","resources/trios/L1T4A1.jpg","39","restless",0.6,0.6,0.5,0.687180119746416,"false"
"image-keyboard-response",249,329154,"0.0-3.79-1.79","t6pxvx6w4s4uy9z",192,"51.csv","","null","resources/maskTrios/BBA1.jpg","null","",NA,NA,NA,NA,""
"image-keyboard-response",250,330357,"0.0-3.79-2.79","t6pxvx6w4s4uy9z",192,"51.csv","","null","resources/images/fishbone.png","null","",NA,NA,NA,NA,""
"image-keyboard-response",251,331245,"0.0-3.80-0.80","t6pxvx6w4s4uy9z",192,"51.csv","","886.7000000476837","resources/trios/L1T1A1.jpg","39","restless",0.6,0.6,0.5,0.735698511410816,"false"
"image-keyboard-response",252,331651,"0.0-3.80-1.80","t6pxvx6w4s4uy9z",192,"51.csv","","null","resources/maskTrios/BBA1.jpg","null","",NA,NA,NA,NA,""
"image-keyboard-response",253,332853,"0.0-3.80-2.80","t6pxvx6w4s4uy9z",192,"51.csv","","null","resources/images/fishbone.png","null","",NA,NA,NA,NA,""
"image-keyboard-response",254,333610,"0.0-3.81-0.81","t6pxvx6w4s4uy9z",192,"51.csv","","754.1999999880791","resources/trios/L4T4A3.jpg","39","restless",0.6,0.6,0.5,0.119645266774765,"true"
"image-keyboard-response",255,334016,"0.0-3.81-1.81","t6pxvx6w4s4uy9z",192,"51.csv","","null","resources/maskTrios/BBA3.jpg","null","",NA,NA,NA,NA,""
"image-keyboard-response",256,335223,"0.0-3.81-2.81","t6pxvx6w4s4uy9z",192,"51.csv","","null","resources/images/coin2.png","null","",NA,NA,NA,NA,""
"image-keyboard-response",257,335573,"0.0-3.82-0.82","t6pxvx6w4s4uy9z",192,"51.csv","","348.5999999642372","resources/trios/L4T1A3.jpg","39","restless",0.6,0.5,0.6,0.632440255402029,"false"
"image-keyboard-response",258,335979,"0.0-3.82-1.82","t6pxvx6w4s4uy9z",192,"51.csv","","null","resources/maskTrios/BBA3.jpg","null","",NA,NA,NA,NA,""
"image-keyboard-response",259,337186,"0.0-3.82-2.82","t6pxvx6w4s4uy9z",192,"51.csv","","null","resources/images/fishbone.png","null","",NA,NA,NA,NA,""
"image-keyboard-response",260,337579,"0.0-3.83-0.83","t6pxvx6w4s4uy9z",192,"51.csv","","390.80000001192093","resources/trios/L4T1A3.jpg","38","restless",0.6,0.5,0.6,0.518356429500287,"false"
"image-keyboard-response",261,337984,"0.0-3.83-1.83","t6pxvx6w4s4uy9z",192,"51.csv","","null","resources/maskTrios/BT1B.jpg","null","",NA,NA,NA,NA,""
"image-keyboard-response",262,339190,"0.0-3.83-2.83","t6pxvx6w4s4uy9z",192,"51.csv","","null","resources/images/fishbone.png","null","",NA,NA,NA,NA,""
"image-keyboard-response",263,340927,"0.0-3.84-0.84","t6pxvx6w4s4uy9z",192,"51.csv","","1734.199999988079","resources/trios/L4T4A3.jpg","37","restless",0.6,0.5,0.6,0.795032446110083,"false"
"image-keyboard-response",264,341334,"0.0-3.84-1.84","t6pxvx6w4s4uy9z",192,"51.csv","","null","resources/maskTrios/L4BB.jpg","null","",NA,NA,NA,NA,""
"image-keyboard-response",265,342540,"0.0-3.84-2.84","t6pxvx6w4s4uy9z",192,"51.csv","","null","resources/images/fishbone.png","null","",NA,NA,NA,NA,""
"image-keyboard-response",266,344582,"0.0-3.85-0.85","t6pxvx6w4s4uy9z",192,"51.csv","","2040","resources/trios/L4T4A1.jpg","37","restless",0.6,0.5,0.6,0.562397240149483,"true"
"image-keyboard-response",267,344987,"0.0-3.85-1.85","t6pxvx6w4s4uy9z",192,"51.csv","","null","resources/maskTrios/L4BB.jpg","null","",NA,NA,NA,NA,""
"image-keyboard-response",268,346190,"0.0-3.85-2.85","t6pxvx6w4s4uy9z",192,"51.csv","","null","resources/images/coin2.png","null","",NA,NA,NA,NA,""
"image-keyboard-response",269,346721,"0.0-3.86-0.86","t6pxvx6w4s4uy9z",192,"51.csv","","528.6999999880791","resources/trios/L4T4A1.jpg","37","restless",0.6,0.5,0.6,0.117275492125652,"true"
"image-keyboard-response",270,347123,"0.0-3.86-1.86","t6pxvx6w4s4uy9z",192,"51.csv","","null","resources/maskTrios/L4BB.jpg","null","",NA,NA,NA,NA,""
"image-keyboard-response",271,348330,"0.0-3.86-2.86","t6pxvx6w4s4uy9z",192,"51.csv","","null","resources/images/coin2.png","null","",NA,NA,NA,NA,""
"image-keyboard-response",272,349236,"0.0-3.87-0.87","t6pxvx6w4s4uy9z",192,"51.csv","","903.6000000238419","resources/trios/L4T4A3.jpg","37","restless",0.6,0.5,0.6,0.902794536322229,"false"
"image-keyboard-response",273,349643,"0.0-3.87-1.87","t6pxvx6w4s4uy9z",192,"51.csv","","null","resources/maskTrios/L4BB.jpg","null","",NA,NA,NA,NA,""
"image-keyboard-response",274,350848,"0.0-3.87-2.87","t6pxvx6w4s4uy9z",192,"51.csv","","null","resources/images/fishbone.png","null","",NA,NA,NA,NA,""
"image-keyboard-response",275,354664,"0.0-3.88-0.88","t6pxvx6w4s4uy9z",192,"51.csv","","3815.699999988079","resources/trios/L1T4A3.jpg","38","restless",0.6,0.5,0.6,0.434557863628737,"true"
"image-keyboard-response",276,355068,"0.0-3.88-1.88","t6pxvx6w4s4uy9z",192,"51.csv","","null","resources/maskTrios/BT4B.jpg","null","",NA,NA,NA,NA,""
"image-keyboard-response",277,356271,"0.0-3.88-2.88","t6pxvx6w4s4uy9z",192,"51.csv","","null","resources/images/coin2.png","null","",NA,NA,NA,NA,""
"image-keyboard-response",278,361974,"0.0-3.89-0.89","t6pxvx6w4s4uy9z",192,"51.csv","","5702.800000011921","resources/trios/L1T1A1.jpg","38","restless",0.6,0.5,0.6,0.574709604092783,"false"
"image-keyboard-response",279,362379,"0.0-3.89-1.89","t6pxvx6w4s4uy9z",192,"51.csv","","null","resources/maskTrios/BT1B.jpg","null","",NA,NA,NA,NA,""
"image-keyboard-response",280,363586,"0.0-3.89-2.89","t6pxvx6w4s4uy9z",192,"51.csv","","null","resources/images/fishbone.png","null","",NA,NA,NA,NA,""
"image-keyboard-response",281,363873,"0.0-3.90-0.90","t6pxvx6w4s4uy9z",192,"51.csv","","284.30000001192093","resources/trios/L1T1A1.jpg","37","restless",0.6,0.5,0.6,0.5054038094318,"true"
"image-keyboard-response",282,364277,"0.0-3.90-1.90","t6pxvx6w4s4uy9z",192,"51.csv","","null","resources/maskTrios/L1BB.jpg","null","",NA,NA,NA,NA,""
"image-keyboard-response",283,365481,"0.0-3.90-2.90","t6pxvx6w4s4uy9z",192,"51.csv","","null","resources/images/coin2.png","null","",NA,NA,NA,NA,""
"image-keyboard-response",284,366477,"0.0-3.91-0.91","t6pxvx6w4s4uy9z",192,"51.csv","","993.6999999880791","resources/trios/L1T1A1.jpg","37","restless",0.6,0.4,0.7,0.283455686479621,"true"
"image-keyboard-response",285,366880,"0.0-3.91-1.91","t6pxvx6w4s4uy9z",192,"51.csv","","null","resources/maskTrios/L1BB.jpg","null","",NA,NA,NA,NA,""
"image-keyboard-response",286,368087,"0.0-3.91-2.91","t6pxvx6w4s4uy9z",192,"51.csv","","null","resources/images/coin2.png","null","",NA,NA,NA,NA,""
"image-keyboard-response",287,370397,"0.0-3.92-0.92","t6pxvx6w4s4uy9z",192,"51.csv","","2307.899999976158","resources/trios/L4T1A3.jpg","39","restless",0.6,0.4,0.7,0.426420082464992,"true"
"image-keyboard-response",288,370803,"0.0-3.92-1.92","t6pxvx6w4s4uy9z",192,"51.csv","","null","resources/maskTrios/BBA3.jpg","null","",NA,NA,NA,NA,""
"image-keyboard-response",289,372009,"0.0-3.92-2.92","t6pxvx6w4s4uy9z",192,"51.csv","","null","resources/images/coin2.png","null","",NA,NA,NA,NA,""
"image-keyboard-response",290,373214,"0.0-3.93-0.93","t6pxvx6w4s4uy9z",192,"51.csv","","1203.3999999761581","resources/trios/L1T4A1.jpg","37","restless",0.6,0.4,0.7,0.782650660960184,"false"
"image-keyboard-response",291,373620,"0.0-3.93-1.93","t6pxvx6w4s4uy9z",192,"51.csv","","null","resources/maskTrios/L1BB.jpg","null","",NA,NA,NA,NA,""
"image-keyboard-response",292,374827,"0.0-3.93-2.93","t6pxvx6w4s4uy9z",192,"51.csv","","null","resources/images/fishbone.png","null","",NA,NA,NA,NA,""
"image-keyboard-response",293,375124,"0.0-3.94-0.94","t6pxvx6w4s4uy9z",192,"51.csv","","295.2999999523163","resources/trios/L4T1A3.jpg","38","restless",0.5,0.4,0.7,0.721494041012021,"false"
"image-keyboard-response",294,375528,"0.0-3.94-1.94","t6pxvx6w4s4uy9z",192,"51.csv","","null","resources/maskTrios/BT1B.jpg","null","",NA,NA,NA,NA,""
"image-keyboard-response",295,376735,"0.0-3.94-2.94","t6pxvx6w4s4uy9z",192,"51.csv","","null","resources/images/fishbone.png","null","",NA,NA,NA,NA,""
"image-keyboard-response",296,376942,"0.0-3.95-0.95","t6pxvx6w4s4uy9z",192,"51.csv","","204.89999997615814","resources/trios/L4T1A3.jpg","39","restless",0.6,0.4,0.7,0.951818420550865,"false"
"image-keyboard-response",297,377350,"0.0-3.95-1.95","t6pxvx6w4s4uy9z",192,"51.csv","","null","resources/maskTrios/BBA3.jpg","null","",NA,NA,NA,NA,""
"image-keyboard-response",298,378553,"0.0-3.95-2.95","t6pxvx6w4s4uy9z",192,"51.csv","","null","resources/images/fishbone.png","null","",NA,NA,NA,NA,""
"image-keyboard-response",299,378649,"0.0-3.96-0.96","t6pxvx6w4s4uy9z",192,"51.csv","","95.30000001192093","resources/trios/L1T4A3.jpg","39","restless",0.6,0.4,0.7,0.385654399856219,"true"
"image-keyboard-response",300,379053,"0.0-3.96-1.96","t6pxvx6w4s4uy9z",192,"51.csv","","null","resources/maskTrios/BBA3.jpg","null","",NA,NA,NA,NA,""
"image-keyboard-response",301,380260,"0.0-3.96-2.96","t6pxvx6w4s4uy9z",192,"51.csv","","null","resources/images/coin2.png","null","",NA,NA,NA,NA,""
"image-keyboard-response",302,381427,"0.0-3.97-0.97","t6pxvx6w4s4uy9z",192,"51.csv","","1164.3999999761581","resources/trios/L1T4A1.jpg","39","restless",0.6,0.4,0.7,0.798192327450217,"false"
"image-keyboard-response",303,381834,"0.0-3.97-1.97","t6pxvx6w4s4uy9z",192,"51.csv","","null","resources/maskTrios/BBA1.jpg","null","",NA,NA,NA,NA,""
"image-keyboard-response",304,383037,"0.0-3.97-2.97","t6pxvx6w4s4uy9z",192,"51.csv","","null","resources/images/fishbone.png","null","",NA,NA,NA,NA,""
"image-keyboard-response",305,383737,"0.0-3.98-0.98","t6pxvx6w4s4uy9z",192,"51.csv","","698.9000000357628","resources/trios/L4T4A3.jpg","37","restless",0.6,0.4,0.7,0.239176328391313,"true"
"image-keyboard-response",306,384141,"0.0-3.98-1.98","t6pxvx6w4s4uy9z",192,"51.csv","","null","resources/maskTrios/L4BB.jpg","null","",NA,NA,NA,NA,""
"image-keyboard-response",307,385346,"0.0-3.98-2.98","t6pxvx6w4s4uy9z",192,"51.csv","","null","resources/images/coin2.png","null","",NA,NA,NA,NA,""
"image-keyboard-response",308,386308,"0.0-3.99-0.99","t6pxvx6w4s4uy9z",192,"51.csv","","959.3000000119209","resources/trios/L4T1A3.jpg","37","restless",0.6,0.4,0.7,0.0384683536533366,"true"
"image-keyboard-response",309,386715,"0.0-3.99-1.99","t6pxvx6w4s4uy9z",192,"51.csv","","null","resources/maskTrios/L4BB.jpg","null","",NA,NA,NA,NA,""
"image-keyboard-response",310,387920,"0.0-3.99-2.99","t6pxvx6w4s4uy9z",192,"51.csv","","null","resources/images/coin2.png","null","",NA,NA,NA,NA,""
"image-keyboard-response",311,388540,"0.0-3.100-0.100","t6pxvx6w4s4uy9z",192,"51.csv","","617.3999999761581","resources/trios/L1T4A1.jpg","37","restless",0.5,0.4,0.7,0.788166747151121,"false"
"image-keyboard-response",312,388947,"0.0-3.100-1.100","t6pxvx6w4s4uy9z",192,"51.csv","","null","resources/maskTrios/L1BB.jpg","null","",NA,NA,NA,NA,""
"image-keyboard-response",313,390152,"0.0-3.100-2.100","t6pxvx6w4s4uy9z",192,"51.csv","","null","resources/images/fishbone.png","null","",NA,NA,NA,NA,""
"image-keyboard-response",314,390614,"0.0-3.101-0.101","t6pxvx6w4s4uy9z",192,"51.csv","","459.60000002384186","resources/trios/L1T1A1.jpg","38","restless",0.6,0.4,0.7,0.977986966011798,"false"
"image-keyboard-response",315,391020,"0.0-3.101-1.101","t6pxvx6w4s4uy9z",192,"51.csv","","null","resources/maskTrios/BT1B.jpg","null","",NA,NA,NA,NA,""
"image-keyboard-response",316,392224,"0.0-3.101-2.101","t6pxvx6w4s4uy9z",192,"51.csv","","null","resources/images/fishbone.png","null","",NA,NA,NA,NA,""
"image-keyboard-response",317,393866,"0.0-3.102-0.102","t6pxvx6w4s4uy9z",192,"51.csv","","1639.9000000357628","resources/trios/L4T4A1.jpg","39","restless",0.6,0.4,0.7,0.842208690208843,"false"
"image-keyboard-response",318,394269,"0.0-3.102-1.102","t6pxvx6w4s4uy9z",192,"51.csv","","null","resources/maskTrios/BBA1.jpg","null","",NA,NA,NA,NA,""
"image-keyboard-response",319,395476,"0.0-3.102-2.102","t6pxvx6w4s4uy9z",192,"51.csv","","null","resources/images/fishbone.png","null","",NA,NA,NA,NA,""
"image-keyboard-response",320,395945,"0.0-3.103-0.103","t6pxvx6w4s4uy9z",192,"51.csv","","466.5","resources/trios/L4T4A1.jpg","39","restless",0.6,0.4,0.7,0.602440590134295,"true"
"image-keyboard-response",321,396352,"0.0-3.103-1.103","t6pxvx6w4s4uy9z",192,"51.csv","","null","resources/maskTrios/BBA1.jpg","null","",NA,NA,NA,NA,""
"image-keyboard-response",322,397559,"0.0-3.103-2.103","t6pxvx6w4s4uy9z",192,"51.csv","","null","resources/images/coin2.png","null","",NA,NA,NA,NA,""
"image-keyboard-response",323,398943,"0.0-3.104-0.104","t6pxvx6w4s4uy9z",192,"51.csv","","1381.1000000238419","resources/trios/L1T1A3.jpg","38","restless",0.6,0.4,0.7,0.129997959942308,"true"
"image-keyboard-response",324,399350,"0.0-3.104-1.104","t6pxvx6w4s4uy9z",192,"51.csv","","null","resources/maskTrios/BT1B.jpg","null","",NA,NA,NA,NA,""
"image-keyboard-response",325,400552,"0.0-3.104-2.104","t6pxvx6w4s4uy9z",192,"51.csv","","null","resources/images/coin2.png","null","",NA,NA,NA,NA,""
"image-keyboard-response",326,401158,"0.0-3.105-0.105","t6pxvx6w4s4uy9z",192,"51.csv","","603.6000000238419","resources/trios/L1T4A3.jpg","37","restless",0.6,0.4,0.7,0.730715825922191,"false"
"image-keyboard-response",327,401565,"0.0-3.105-1.105","t6pxvx6w4s4uy9z",192,"51.csv","","null","resources/maskTrios/L1BB.jpg","null","",NA,NA,NA,NA,""
"image-keyboard-response",328,402770,"0.0-3.105-2.105","t6pxvx6w4s4uy9z",192,"51.csv","","null","resources/images/fishbone.png","null","",NA,NA,NA,NA,""
"image-keyboard-response",329,403123,"0.0-3.106-0.106","t6pxvx6w4s4uy9z",192,"51.csv","","351.10000002384186","resources/trios/L1T4A3.jpg","38","restless",0.6,0.4,0.7,0.310551868151842,"true"
"image-keyboard-response",330,403529,"0.0-3.106-1.106","t6pxvx6w4s4uy9z",192,"51.csv","","null","resources/maskTrios/BT4B.jpg","null","",NA,NA,NA,NA,""
"image-keyboard-response",331,404736,"0.0-3.106-2.106","t6pxvx6w4s4uy9z",192,"51.csv","","null","resources/images/coin2.png","null","",NA,NA,NA,NA,""
"image-keyboard-response",332,405262,"0.0-3.107-0.107","t6pxvx6w4s4uy9z",192,"51.csv","","523.8999999761581","resources/trios/L4T4A1.jpg","38","restless",0.7,0.4,0.7,0.607958128257186,"false"
"image-keyboard-response",333,405664,"0.0-3.107-1.107","t6pxvx6w4s4uy9z",192,"51.csv","","null","resources/maskTrios/BT4B.jpg","null","",NA,NA,NA,NA,""
"image-keyboard-response",334,406869,"0.0-3.107-2.107","t6pxvx6w4s4uy9z",192,"51.csv","","null","resources/images/fishbone.png","null","",NA,NA,NA,NA,""
"image-keyboard-response",335,407198,"0.0-3.108-0.108","t6pxvx6w4s4uy9z",192,"51.csv","","326.89999997615814","resources/trios/L1T1A1.jpg","39","restless",0.7,0.4,0.7,0.0375814419006457,"true"
"image-keyboard-response",336,407605,"0.0-3.108-1.108","t6pxvx6w4s4uy9z",192,"51.csv","","null","resources/maskTrios/BBA1.jpg","null","",NA,NA,NA,NA,""
"image-keyboard-response",337,408811,"0.0-3.108-2.108","t6pxvx6w4s4uy9z",192,"51.csv","","null","resources/images/coin2.png","null","",NA,NA,NA,NA,""
"image-keyboard-response",338,409163,"0.0-3.109-0.109","t6pxvx6w4s4uy9z",192,"51.csv","","350","resources/trios/L1T1A1.jpg","39","restless",0.7,0.4,0.7,0.50687479002327,"true"
"image-keyboard-response",339,409569,"0.0-3.109-1.109","t6pxvx6w4s4uy9z",192,"51.csv","","null","resources/maskTrios/BBA1.jpg","null","",NA,NA,NA,NA,""
"image-keyboard-response",340,410776,"0.0-3.109-2.109","t6pxvx6w4s4uy9z",192,"51.csv","","null","resources/images/coin2.png","null","",NA,NA,NA,NA,""
"image-keyboard-response",341,411089,"0.0-3.110-0.110","t6pxvx6w4s4uy9z",192,"51.csv","","310.60000002384186","resources/trios/L1T1A1.jpg","39","restless",0.7,0.4,0.6,0.437498516683841,"true"
"image-keyboard-response",342,411497,"0.0-3.110-1.110","t6pxvx6w4s4uy9z",192,"51.csv","","null","resources/maskTrios/BBA1.jpg","null","",NA,NA,NA,NA,""
"image-keyboard-response",343,412701,"0.0-3.110-2.110","t6pxvx6w4s4uy9z",192,"51.csv","","null","resources/images/coin2.png","null","",NA,NA,NA,NA,""
"image-keyboard-response",344,413054,"0.0-3.111-0.111","t6pxvx6w4s4uy9z",192,"51.csv","","351.39999997615814","resources/trios/L1T4A3.jpg","39","restless",0.7,0.4,0.6,0.635106305651439,"false"
"image-keyboard-response",345,413461,"0.0-3.111-1.111","t6pxvx6w4s4uy9z",192,"51.csv","","null","resources/maskTrios/BBA3.jpg","null","",NA,NA,NA,NA,""
"image-keyboard-response",346,414667,"0.0-3.111-2.111","t6pxvx6w4s4uy9z",192,"51.csv","","null","resources/images/fishbone.png","null","",NA,NA,NA,NA,""
"image-keyboard-response",347,414933,"0.0-3.112-0.112","t6pxvx6w4s4uy9z",192,"51.csv","","264","resources/trios/L4T1A1.jpg","39","restless",0.6,0.4,0.6,0.538632842238856,"true"
"image-keyboard-response",348,415339,"0.0-3.112-1.112","t6pxvx6w4s4uy9z",192,"51.csv","","null","resources/maskTrios/BBA1.jpg","null","",NA,NA,NA,NA,""
"image-keyboard-response",349,416546,"0.0-3.112-2.112","t6pxvx6w4s4uy9z",192,"51.csv","","null","resources/images/coin2.png","null","",NA,NA,NA,NA,""
"image-keyboard-response",350,416761,"0.0-3.113-0.113","t6pxvx6w4s4uy9z",192,"51.csv","","214","resources/trios/L4T1A3.jpg","39","restless",0.6,0.4,0.6,0.652305124797783,"false"
"image-keyboard-response",351,417165,"0.0-3.113-1.113","t6pxvx6w4s4uy9z",192,"51.csv","","null","resources/maskTrios/BBA3.jpg","null","",NA,NA,NA,NA,""
"image-keyboard-response",352,418368,"0.0-3.113-2.113","t6pxvx6w4s4uy9z",192,"51.csv","","null","resources/images/fishbone.png","null","",NA,NA,NA,NA,""
"image-keyboard-response",353,418643,"0.0-3.114-0.114","t6pxvx6w4s4uy9z",192,"51.csv","","273.2000000476837","resources/trios/L4T1A3.jpg","39","restless",0.6,0.4,0.6,0.819158033528524,"false"
"image-keyboard-response",354,419048,"0.0-3.114-1.114","t6pxvx6w4s4uy9z",192,"51.csv","","null","resources/maskTrios/BBA3.jpg","null","",NA,NA,NA,NA,""
"image-keyboard-response",355,420252,"0.0-3.114-2.114","t6pxvx6w4s4uy9z",192,"51.csv","","null","resources/images/fishbone.png","null","",NA,NA,NA,NA,""
"image-keyboard-response",356,420557,"0.0-3.115-0.115","t6pxvx6w4s4uy9z",192,"51.csv","","303.10000002384186","resources/trios/L1T4A1.jpg","39","restless",0.6,0.4,0.6,0.0351645821210196,"true"
"image-keyboard-response",357,420962,"0.0-3.115-1.115","t6pxvx6w4s4uy9z",192,"51.csv","","null","resources/maskTrios/BBA1.jpg","null","",NA,NA,NA,NA,""
"image-keyboard-response",358,422168,"0.0-3.115-2.115","t6pxvx6w4s4uy9z",192,"51.csv","","null","resources/images/coin2.png","null","",NA,NA,NA,NA,""
"image-keyboard-response",359,422877,"0.0-3.116-0.116","t6pxvx6w4s4uy9z",192,"51.csv","","707.3000000119209","resources/trios/L1T1A3.jpg","38","restless",0.6,0.4,0.6,0.220579480979381,"true"
"image-keyboard-response",360,423283,"0.0-3.116-1.116","t6pxvx6w4s4uy9z",192,"51.csv","","null","resources/maskTrios/BT1B.jpg","null","",NA,NA,NA,NA,""
"image-keyboard-response",361,424490,"0.0-3.116-2.116","t6pxvx6w4s4uy9z",192,"51.csv","","null","resources/images/coin2.png","null","",NA,NA,NA,NA,""
"image-keyboard-response",362,424708,"0.0-3.117-0.117","t6pxvx6w4s4uy9z",192,"51.csv","","215.30000001192093","resources/trios/L4T4A1.jpg","38","restless",0.6,0.4,0.7,0.0933443909395937,"true"
"image-keyboard-response",363,425115,"0.0-3.117-1.117","t6pxvx6w4s4uy9z",192,"51.csv","","null","resources/maskTrios/BT4B.jpg","null","",NA,NA,NA,NA,""
"image-keyboard-response",364,426318,"0.0-3.117-2.117","t6pxvx6w4s4uy9z",192,"51.csv","","null","resources/images/coin2.png","null","",NA,NA,NA,NA,""
"image-keyboard-response",365,426723,"0.0-3.118-0.118","t6pxvx6w4s4uy9z",192,"51.csv","","402.4000000357628","resources/trios/L1T4A3.jpg","38","restless",0.6,0.4,0.7,0.733709298048021,"false"
"image-keyboard-response",366,427130,"0.0-3.118-1.118","t6pxvx6w4s4uy9z",192,"51.csv","","null","resources/maskTrios/BT4B.jpg","null","",NA,NA,NA,NA,""
"image-keyboard-response",367,428333,"0.0-3.118-2.118","t6pxvx6w4s4uy9z",192,"51.csv","","null","resources/images/fishbone.png","null","",NA,NA,NA,NA,""
"image-keyboard-response",368,428595,"0.0-3.119-0.119","t6pxvx6w4s4uy9z",192,"51.csv","","260.39999997615814","resources/trios/L4T4A1.jpg","37","restless",0.6,0.4,0.6,0.638390380755683,"false"
"image-keyboard-response",369,429002,"0.0-3.119-1.119","t6pxvx6w4s4uy9z",192,"51.csv","","null","resources/maskTrios/L4BB.jpg","null","",NA,NA,NA,NA,""
"image-keyboard-response",370,430208,"0.0-3.119-2.119","t6pxvx6w4s4uy9z",192,"51.csv","","null","resources/images/fishbone.png","null","",NA,NA,NA,NA,""
"image-keyboard-response",371,430493,"0.0-3.120-0.120","t6pxvx6w4s4uy9z",192,"51.csv","","282.80000001192093","resources/trios/L1T1A3.jpg","37","restless",0.6,0.4,0.6,0.113257397859858,"true"
"image-keyboard-response",372,430899,"0.0-3.120-1.120","t6pxvx6w4s4uy9z",192,"51.csv","","null","resources/maskTrios/L1BB.jpg","null","",NA,NA,NA,NA,""
"image-keyboard-response",373,432107,"0.0-3.120-2.120","t6pxvx6w4s4uy9z",192,"51.csv","","null","resources/images/coin2.png","null","",NA,NA,NA,NA,""
"image-keyboard-response",374,432461,"0.0-3.121-0.121","t6pxvx6w4s4uy9z",192,"51.csv","","352","resources/trios/L1T1A1.jpg","37","restless",0.6,0.4,0.6,0.268732571000765,"true"
"image-keyboard-response",375,432868,"0.0-3.121-1.121","t6pxvx6w4s4uy9z",192,"51.csv","","null","resources/maskTrios/L1BB.jpg","null","",NA,NA,NA,NA,""
"image-keyboard-response",376,434075,"0.0-3.121-2.121","t6pxvx6w4s4uy9z",192,"51.csv","","null","resources/images/coin2.png","null","",NA,NA,NA,NA,""
"image-keyboard-response",377,434464,"0.0-3.122-0.122","t6pxvx6w4s4uy9z",192,"51.csv","","387","resources/trios/L4T4A3.jpg","37","restless",0.6,0.4,0.6,0.636419942492731,"false"
"image-keyboard-response",378,434868,"0.0-3.122-1.122","t6pxvx6w4s4uy9z",192,"51.csv","","null","resources/maskTrios/L4BB.jpg","null","",NA,NA,NA,NA,""
"image-keyboard-response",379,436072,"0.0-3.122-2.122","t6pxvx6w4s4uy9z",192,"51.csv","","null","resources/images/fishbone.png","null","",NA,NA,NA,NA,""
"image-keyboard-response",380,436374,"0.0-3.123-0.123","t6pxvx6w4s4uy9z",192,"51.csv","","300","resources/trios/L4T4A3.jpg","39","restless",0.6,0.4,0.6,0.268690046855781,"true"
"image-keyboard-response",381,436778,"0.0-3.123-1.123","t6pxvx6w4s4uy9z",192,"51.csv","","null","resources/maskTrios/BBA3.jpg","null","",NA,NA,NA,NA,""
"image-keyboard-response",382,437984,"0.0-3.123-2.123","t6pxvx6w4s4uy9z",192,"51.csv","","null","resources/images/coin2.png","null","",NA,NA,NA,NA,""
"image-keyboard-response",383,438314,"0.0-3.124-0.124","t6pxvx6w4s4uy9z",192,"51.csv","","328.30000001192093","resources/trios/L4T1A3.jpg","39","restless",0.6,0.4,0.6,0.336051443066589,"true"
"image-keyboard-response",384,438717,"0.0-3.124-1.124","t6pxvx6w4s4uy9z",192,"51.csv","","null","resources/maskTrios/BBA3.jpg","null","",NA,NA,NA,NA,""
"image-keyboard-response",385,439924,"0.0-3.124-2.124","t6pxvx6w4s4uy9z",192,"51.csv","","null","resources/images/coin2.png","null","",NA,NA,NA,NA,""
"image-keyboard-response",386,440383,"0.0-3.125-0.125","t6pxvx6w4s4uy9z",192,"51.csv","","457.0999999642372","resources/trios/L4T4A3.jpg","39","restless",0.6,0.4,0.5,0.353468488956135,"true"
"image-keyboard-response",387,440790,"0.0-3.125-1.125","t6pxvx6w4s4uy9z",192,"51.csv","","null","resources/maskTrios/BBA3.jpg","null","",NA,NA,NA,NA,""
"image-keyboard-response",388,441997,"0.0-3.125-2.125","t6pxvx6w4s4uy9z",192,"51.csv","","null","resources/images/coin2.png","null","",NA,NA,NA,NA,""
"image-keyboard-response",389,442381,"0.0-3.126-0.126","t6pxvx6w4s4uy9z",192,"51.csv","","382","resources/trios/L1T4A1.jpg","39","restless",0.5,0.3,0.4,0.287953405991326,"true"
"image-keyboard-response",390,442785,"0.0-3.126-1.126","t6pxvx6w4s4uy9z",192,"51.csv","","null","resources/maskTrios/BBA1.jpg","null","",NA,NA,NA,NA,""
"image-keyboard-response",391,443991,"0.0-3.126-2.126","t6pxvx6w4s4uy9z",192,"51.csv","","null","resources/images/coin2.png","null","",NA,NA,NA,NA,""
"image-keyboard-response",392,444385,"0.0-3.127-0.127","t6pxvx6w4s4uy9z",192,"51.csv","","391.19999998807907","resources/trios/L1T4A3.jpg","39","restless",0.5,0.3,0.3,0.869648527418099,"false"
"image-keyboard-response",393,444787,"0.0-3.127-1.127","t6pxvx6w4s4uy9z",192,"51.csv","","null","resources/maskTrios/BBA3.jpg","null","",NA,NA,NA,NA,""
"image-keyboard-response",394,445993,"0.0-3.127-2.127","t6pxvx6w4s4uy9z",192,"51.csv","","null","resources/images/fishbone.png","null","",NA,NA,NA,NA,""
"image-keyboard-response",395,446291,"0.0-3.128-0.128","t6pxvx6w4s4uy9z",192,"51.csv","","295.19999998807907","resources/trios/L1T1A1.jpg","39","restless",0.5,0.3,0.3,0.766397888304147,"false"
"image-keyboard-response",396,446696,"0.0-3.128-1.128","t6pxvx6w4s4uy9z",192,"51.csv","","null","resources/maskTrios/BBA1.jpg","null","",NA,NA,NA,NA,""
"image-keyboard-response",397,447900,"0.0-3.128-2.128","t6pxvx6w4s4uy9z",192,"51.csv","","null","resources/images/fishbone.png","null","",NA,NA,NA,NA,""
"image-keyboard-response",398,448234,"0.0-3.129-0.129","t6pxvx6w4s4uy9z",192,"51.csv","","331.7999999523163","resources/trios/L4T1A3.jpg","39","restless",0.5,0.3,0.3,0.563782880319005,"false"
"image-keyboard-response",399,448641,"0.0-3.129-1.129","t6pxvx6w4s4uy9z",192,"51.csv","","null","resources/maskTrios/BBA3.jpg","null","",NA,NA,NA,NA,""
"image-keyboard-response",400,449845,"0.0-3.129-2.129","t6pxvx6w4s4uy9z",192,"51.csv","","null","resources/images/fishbone.png","null","",NA,NA,NA,NA,""
"image-keyboard-response",401,450179,"0.0-3.130-0.130","t6pxvx6w4s4uy9z",192,"51.csv","","332.19999998807907","resources/trios/L1T4A3.jpg","38","restless",0.5,0.3,0.3,0.180897675387912,"true"
"image-keyboard-response",402,450585,"0.0-3.130-1.130","t6pxvx6w4s4uy9z",192,"51.csv","","null","resources/maskTrios/BT4B.jpg","null","",NA,NA,NA,NA,""
"image-keyboard-response",403,451792,"0.0-3.130-2.130","t6pxvx6w4s4uy9z",192,"51.csv","","null","resources/images/coin2.png","null","",NA,NA,NA,NA,""
"image-keyboard-response",404,452110,"0.0-3.131-0.131","t6pxvx6w4s4uy9z",192,"51.csv","","315.5","resources/trios/L1T1A1.jpg","38","restless",0.5,0.3,0.3,0.66144406080098,"false"
"image-keyboard-response",405,452517,"0.0-3.131-1.131","t6pxvx6w4s4uy9z",192,"51.csv","","null","resources/maskTrios/BT1B.jpg","null","",NA,NA,NA,NA,""
"image-keyboard-response",406,453724,"0.0-3.131-2.131","t6pxvx6w4s4uy9z",192,"51.csv","","null","resources/images/fishbone.png","null","",NA,NA,NA,NA,""
"image-keyboard-response",407,454016,"0.0-3.132-0.132","t6pxvx6w4s4uy9z",192,"51.csv","","290","resources/trios/L1T4A3.jpg","37","restless",0.5,0.3,0.3,0.268943183239301,"true"
"image-keyboard-response",408,454422,"0.0-3.132-1.132","t6pxvx6w4s4uy9z",192,"51.csv","","null","resources/maskTrios/L1BB.jpg","null","",NA,NA,NA,NA,""
"image-keyboard-response",409,455627,"0.0-3.132-2.132","t6pxvx6w4s4uy9z",192,"51.csv","","null","resources/images/coin2.png","null","",NA,NA,NA,NA,""
"image-keyboard-response",410,456168,"0.0-3.133-0.133","t6pxvx6w4s4uy9z",192,"51.csv","","539.1999999880791","resources/trios/L1T4A3.jpg","37","restless",0.5,0.3,0.3,0.497640399180223,"true"
"image-keyboard-response",411,456570,"0.0-3.133-1.133","t6pxvx6w4s4uy9z",192,"51.csv","","null","resources/maskTrios/L1BB.jpg","null","",NA,NA,NA,NA,""
"image-keyboard-response",412,457776,"0.0-3.133-2.133","t6pxvx6w4s4uy9z",192,"51.csv","","null","resources/images/coin2.png","null","",NA,NA,NA,NA,""
"image-keyboard-response",413,458041,"0.0-3.134-0.134","t6pxvx6w4s4uy9z",192,"51.csv","","262.5999999642372","resources/trios/L1T1A1.jpg","37","restless",0.5,0.3,0.3,0.000911367297031118,"true"
"image-keyboard-response",414,458445,"0.0-3.134-1.134","t6pxvx6w4s4uy9z",192,"51.csv","","null","resources/maskTrios/L1BB.jpg","null","",NA,NA,NA,NA,""
"image-keyboard-response",415,459650,"0.0-3.134-2.134","t6pxvx6w4s4uy9z",192,"51.csv","","null","resources/images/coin2.png","null","",NA,NA,NA,NA,""
"image-keyboard-response",416,459981,"0.0-3.135-0.135","t6pxvx6w4s4uy9z",192,"51.csv","","329.30000001192093","resources/trios/L1T4A1.jpg","37","restless",0.5,0.3,0.3,0.0264088163168523,"true"
"image-keyboard-response",417,460385,"0.0-3.135-1.135","t6pxvx6w4s4uy9z",192,"51.csv","","null","resources/maskTrios/L1BB.jpg","null","",NA,NA,NA,NA,""
"image-keyboard-response",418,461592,"0.0-3.135-2.135","t6pxvx6w4s4uy9z",192,"51.csv","","null","resources/images/coin2.png","null","",NA,NA,NA,NA,""
"image-keyboard-response",419,461970,"0.0-3.136-0.136","t6pxvx6w4s4uy9z",192,"51.csv","","376.2999999523163","resources/trios/L1T4A3.jpg","37","restless",0.6,0.3,0.3,0.752384641838989,"false"
"image-keyboard-response",420,462377,"0.0-3.136-1.136","t6pxvx6w4s4uy9z",192,"51.csv","","null","resources/maskTrios/L1BB.jpg","null","",NA,NA,NA,NA,""
"image-keyboard-response",421,463582,"0.0-3.136-2.136","t6pxvx6w4s4uy9z",192,"51.csv","","null","resources/images/fishbone.png","null","",NA,NA,NA,NA,""
"image-keyboard-response",422,463838,"0.0-3.137-0.137","t6pxvx6w4s4uy9z",192,"51.csv","","253.80000001192093","resources/trios/L1T1A3.jpg","37","restless",0.6,0.3,0.3,0.0154990670407562,"true"
"image-keyboard-response",423,464243,"0.0-3.137-1.137","t6pxvx6w4s4uy9z",192,"51.csv","","null","resources/maskTrios/L1BB.jpg","null","",NA,NA,NA,NA,""
"image-keyboard-response",424,465450,"0.0-3.137-2.137","t6pxvx6w4s4uy9z",192,"51.csv","","null","resources/images/coin2.png","null","",NA,NA,NA,NA,""
"image-keyboard-response",425,465793,"0.0-3.138-0.138","t6pxvx6w4s4uy9z",192,"51.csv","","340.69999998807907","resources/trios/L4T4A1.jpg","37","restless",0.6,0.3,0.3,0.40172348613172,"true"
"image-keyboard-response",426,466199,"0.0-3.138-1.138","t6pxvx6w4s4uy9z",192,"51.csv","","null","resources/maskTrios/L4BB.jpg","null","",NA,NA,NA,NA,""
"image-keyboard-response",427,467406,"0.0-3.138-2.138","t6pxvx6w4s4uy9z",192,"51.csv","","null","resources/images/coin2.png","null","",NA,NA,NA,NA,""
"image-keyboard-response",428,467999,"0.0-3.139-0.139","t6pxvx6w4s4uy9z",192,"51.csv","","590.8000000119209","resources/trios/L4T4A1.jpg","37","restless",0.6,0.3,0.3,0.202125064977357,"true"
"image-keyboard-response",429,468406,"0.0-3.139-1.139","t6pxvx6w4s4uy9z",192,"51.csv","","null","resources/maskTrios/L4BB.jpg","null","",NA,NA,NA,NA,""
"image-keyboard-response",430,469609,"0.0-3.139-2.139","t6pxvx6w4s4uy9z",192,"51.csv","","null","resources/images/coin2.png","null","",NA,NA,NA,NA,""
"image-keyboard-response",431,470434,"0.0-3.140-0.140","t6pxvx6w4s4uy9z",192,"51.csv","","823.1000000238419","resources/trios/L4T4A1.jpg","37","restless",0.6,0.3,0.3,0.800945790594877,"false"
"image-keyboard-response",432,470838,"0.0-3.140-1.140","t6pxvx6w4s4uy9z",192,"51.csv","","null","resources/maskTrios/L4BB.jpg","null","",NA,NA,NA,NA,""
"image-keyboard-response",433,472045,"0.0-3.140-2.140","t6pxvx6w4s4uy9z",192,"51.csv","","null","resources/images/fishbone.png","null","",NA,NA,NA,NA,""
"image-keyboard-response",434,472355,"0.0-3.141-0.141","t6pxvx6w4s4uy9z",192,"51.csv","","308.5","resources/trios/L4T1A1.jpg","38","restless",0.7,0.3,0.3,0.367443854710265,"false"
"image-keyboard-response",435,472761,"0.0-3.141-1.141","t6pxvx6w4s4uy9z",192,"51.csv","","null","resources/maskTrios/BT1B.jpg","null","",NA,NA,NA,NA,""
"image-keyboard-response",436,473963,"0.0-3.141-2.141","t6pxvx6w4s4uy9z",192,"51.csv","","null","resources/images/fishbone.png","null","",NA,NA,NA,NA,""
"image-keyboard-response",437,474403,"0.0-3.142-0.142","t6pxvx6w4s4uy9z",192,"51.csv","","437.89999997615814","resources/trios/L1T1A3.jpg","38","restless",0.7,0.3,0.4,0.270303651523569,"true"
"image-keyboard-response",438,474810,"0.0-3.142-1.142","t6pxvx6w4s4uy9z",192,"51.csv","","null","resources/maskTrios/BT1B.jpg","null","",NA,NA,NA,NA,""
"image-keyboard-response",439,476016,"0.0-3.142-2.142","t6pxvx6w4s4uy9z",192,"51.csv","","null","resources/images/coin2.png","null","",NA,NA,NA,NA,""
"image-keyboard-response",440,476343,"0.0-3.143-0.143","t6pxvx6w4s4uy9z",192,"51.csv","","325.19999998807907","resources/trios/L4T1A1.jpg","38","restless",0.7,0.3,0.4,0.20724017677237,"true"
"image-keyboard-response",441,476749,"0.0-3.143-1.143","t6pxvx6w4s4uy9z",192,"51.csv","","null","resources/maskTrios/BT1B.jpg","null","",NA,NA,NA,NA,""
"image-keyboard-response",442,477955,"0.0-3.143-2.143","t6pxvx6w4s4uy9z",192,"51.csv","","null","resources/images/coin2.png","null","",NA,NA,NA,NA,""
"image-keyboard-response",443,478359,"0.0-3.144-0.144","t6pxvx6w4s4uy9z",192,"51.csv","","401.5999999642372","resources/trios/L1T1A1.jpg","38","restless",0.7,0.3,0.4,0.683636536911352,"false"
"image-keyboard-response",444,478765,"0.0-3.144-1.144","t6pxvx6w4s4uy9z",192,"51.csv","","null","resources/maskTrios/BT1B.jpg","null","",NA,NA,NA,NA,""
"image-keyboard-response",445,479972,"0.0-3.144-2.144","t6pxvx6w4s4uy9z",192,"51.csv","","null","resources/images/fishbone.png","null","",NA,NA,NA,NA,""
"image-keyboard-response",446,480509,"0.0-3.145-0.145","t6pxvx6w4s4uy9z",192,"51.csv","","534.7999999523163","resources/trios/L4T1A1.jpg","38","restless",0.8,0.3,0.4,0.930999000211183,"false"
"image-keyboard-response",447,480915,"0.0-3.145-1.145","t6pxvx6w4s4uy9z",192,"51.csv","","null","resources/maskTrios/BT1B.jpg","null","",NA,NA,NA,NA,""
"image-keyboard-response",448,482122,"0.0-3.145-2.145","t6pxvx6w4s4uy9z",192,"51.csv","","null","resources/images/fishbone.png","null","",NA,NA,NA,NA,""
"image-keyboard-response",449,482546,"0.0-3.146-0.146","t6pxvx6w4s4uy9z",192,"51.csv","","421.19999998807907","resources/trios/L4T1A3.jpg","38","restless",0.8,0.4,0.4,0.373242908686282,"true"
"image-keyboard-response",450,482948,"0.0-3.146-1.146","t6pxvx6w4s4uy9z",192,"51.csv","","null","resources/maskTrios/BT1B.jpg","null","",NA,NA,NA,NA,""
"image-keyboard-response",451,484150,"0.0-3.146-2.146","t6pxvx6w4s4uy9z",192,"51.csv","","null","resources/images/coin2.png","null","",NA,NA,NA,NA,""
"image-keyboard-response",452,484544,"0.0-3.147-0.147","t6pxvx6w4s4uy9z",192,"51.csv","","391","resources/trios/L1T1A1.jpg","38","restless",0.8,0.4,0.4,0.828102818862803,"false"
"image-keyboard-response",453,484948,"0.0-3.147-1.147","t6pxvx6w4s4uy9z",192,"51.csv","","null","resources/maskTrios/BT1B.jpg","null","",NA,NA,NA,NA,""
"image-keyboard-response",454,486150,"0.0-3.147-2.147","t6pxvx6w4s4uy9z",192,"51.csv","","null","resources/images/fishbone.png","null","",NA,NA,NA,NA,""
"image-keyboard-response",455,486456,"0.0-3.148-0.148","t6pxvx6w4s4uy9z",192,"51.csv","","303.60000002384186","resources/trios/L4T1A3.jpg","39","restless",0.8,0.4,0.4,0.180567563114076,"true"
"image-keyboard-response",456,486862,"0.0-3.148-1.148","t6pxvx6w4s4uy9z",192,"51.csv","","null","resources/maskTrios/BBA3.jpg","null","",NA,NA,NA,NA,""
"image-keyboard-response",457,488066,"0.0-3.148-2.148","t6pxvx6w4s4uy9z",192,"51.csv","","null","resources/images/coin2.png","null","",NA,NA,NA,NA,""
"image-keyboard-response",458,488315,"0.0-3.149-0.149","t6pxvx6w4s4uy9z",192,"51.csv","","246.60000002384186","resources/trios/L1T1A1.jpg","39","restless",0.8,0.4,0.4,0.0691720611994477,"true"
"image-keyboard-response",459,488722,"0.0-3.149-1.149","t6pxvx6w4s4uy9z",192,"51.csv","","null","resources/maskTrios/BBA1.jpg","null","",NA,NA,NA,NA,""
"image-keyboard-response",460,489929,"0.0-3.149-2.149","t6pxvx6w4s4uy9z",192,"51.csv","","null","resources/images/coin2.png","null","",NA,NA,NA,NA,""
"image-keyboard-response",461,490375,"0.0-3.150-0.150","t6pxvx6w4s4uy9z",192,"51.csv","","444.10000002384186","resources/trios/L1T4A3.jpg","39","restless",0.8,0.4,0.4,0.295523801567473,"true"
"image-keyboard-response",462,490782,"0.0-3.150-1.150","t6pxvx6w4s4uy9z",192,"51.csv","","null","resources/maskTrios/BBA3.jpg","null","",NA,NA,NA,NA,""
"image-keyboard-response",463,491985,"0.0-3.150-2.150","t6pxvx6w4s4uy9z",192,"51.csv","","null","resources/images/coin2.png","null","",NA,NA,NA,NA,""
"image-keyboard-response",464,497336,"0.0-3.151-0.151","t6pxvx6w4s4uy9z",192,"51.csv","","5348.899999976158","resources/trios/L4T1A1.jpg","39","restless",0.8,0.4,0.4,0.124357539598394,"true"
"image-keyboard-response",465,497738,"0.0-3.151-1.151","t6pxvx6w4s4uy9z",192,"51.csv","","null","resources/maskTrios/BBA1.jpg","null","",NA,NA,NA,NA,""
"image-keyboard-response",466,498944,"0.0-3.151-2.151","t6pxvx6w4s4uy9z",192,"51.csv","","null","resources/images/coin2.png","null","",NA,NA,NA,NA,""
"image-keyboard-response",467,499079,"0.0-3.152-0.152","t6pxvx6w4s4uy9z",192,"51.csv","","132.5","resources/trios/L1T1A3.jpg","39","restless",0.8,0.4,0.4,0.695280418460311,"false"
"image-keyboard-response",468,499484,"0.0-3.152-1.152","t6pxvx6w4s4uy9z",192,"51.csv","","null","resources/maskTrios/BBA3.jpg","null","",NA,NA,NA,NA,""
"image-keyboard-response",469,500687,"0.0-3.152-2.152","t6pxvx6w4s4uy9z",192,"51.csv","","null","resources/images/fishbone.png","null","",NA,NA,NA,NA,""
"image-keyboard-response",470,500759,"0.0-3.153-0.153","t6pxvx6w4s4uy9z",192,"51.csv","","69.39999997615814","resources/trios/L4T1A3.jpg","37","restless",0.8,0.4,0.4,0.16606895059962,"true"
"image-keyboard-response",471,501164,"0.0-3.153-1.153","t6pxvx6w4s4uy9z",192,"51.csv","","null","resources/maskTrios/L4BB.jpg","null","",NA,NA,NA,NA,""
"image-keyboard-response",472,502369,"0.0-3.153-2.153","t6pxvx6w4s4uy9z",192,"51.csv","","null","resources/images/coin2.png","null","",NA,NA,NA,NA,""
"image-keyboard-response",473,502438,"0.0-3.154-0.154","t6pxvx6w4s4uy9z",192,"51.csv","","66.80000001192093","resources/trios/L4T4A1.jpg","39","restless",0.8,0.4,0.4,0.126171911556846,"true"
"image-keyboard-response",474,502845,"0.0-3.154-1.154","t6pxvx6w4s4uy9z",192,"51.csv","","null","resources/maskTrios/BBA1.jpg","null","",NA,NA,NA,NA,""
"image-keyboard-response",475,504049,"0.0-3.154-2.154","t6pxvx6w4s4uy9z",192,"51.csv","","null","resources/images/coin2.png","null","",NA,NA,NA,NA,""
"image-keyboard-response",476,504321,"0.0-3.155-0.155","t6pxvx6w4s4uy9z",192,"51.csv","","270","resources/trios/L1T1A1.jpg","38","restless",0.8,0.4,0.4,0.881751267058553,"false"
"image-keyboard-response",477,504727,"0.0-3.155-1.155","t6pxvx6w4s4uy9z",192,"51.csv","","null","resources/maskTrios/BT1B.jpg","null","",NA,NA,NA,NA,""
"image-keyboard-response",478,505930,"0.0-3.155-2.155","t6pxvx6w4s4uy9z",192,"51.csv","","null","resources/images/fishbone.png","null","",NA,NA,NA,NA,""
"image-keyboard-response",479,505966,"0.0-3.156-0.156","t6pxvx6w4s4uy9z",192,"51.csv","","34.39999997615814","resources/trios/L1T4A3.jpg","38","restless",0.8,0.4,0.4,0.330698337911158,"true"
"image-keyboard-response",480,506371,"0.0-3.156-1.156","t6pxvx6w4s4uy9z",192,"51.csv","","null","resources/maskTrios/BT4B.jpg","null","",NA,NA,NA,NA,""
"image-keyboard-response",481,507578,"0.0-3.156-2.156","t6pxvx6w4s4uy9z",192,"51.csv","","null","resources/images/coin2.png","null","",NA,NA,NA,NA,""
"image-keyboard-response",482,507728,"0.0-3.157-0.157","t6pxvx6w4s4uy9z",192,"51.csv","","147.5999999642372","resources/trios/L1T4A1.jpg","38","restless",0.8,0.4,0.4,0.318410898359259,"true"
"image-keyboard-response",483,508130,"0.0-3.157-1.157","t6pxvx6w4s4uy9z",192,"51.csv","","null","resources/maskTrios/BT4B.jpg","null","",NA,NA,NA,NA,""
"image-keyboard-response",484,509334,"0.0-3.157-2.157","t6pxvx6w4s4uy9z",192,"51.csv","","null","resources/images/coin2.png","null","",NA,NA,NA,NA,""
"image-keyboard-response",485,509417,"0.0-3.158-0.158","t6pxvx6w4s4uy9z",192,"51.csv","","80.09999996423721","resources/trios/L4T4A1.jpg","38","restless",0.8,0.4,0.4,0.0589874847010978,"true"
"image-keyboard-response",486,509820,"0.0-3.158-1.158","t6pxvx6w4s4uy9z",192,"51.csv","","null","resources/maskTrios/BT4B.jpg","null","",NA,NA,NA,NA,""
"image-keyboard-response",487,511023,"0.0-3.158-2.158","t6pxvx6w4s4uy9z",192,"51.csv","","null","resources/images/coin2.png","null","",NA,NA,NA,NA,""
"image-keyboard-response",488,511167,"0.0-3.159-0.159","t6pxvx6w4s4uy9z",192,"51.csv","","143.10000002384186","resources/trios/L4T1A3.jpg","39","restless",0.7,0.4,0.5,0.533364458655863,"false"
"image-keyboard-response",489,511569,"0.0-3.159-1.159","t6pxvx6w4s4uy9z",192,"51.csv","","null","resources/maskTrios/BBA3.jpg","null","",NA,NA,NA,NA,""
"image-keyboard-response",490,512776,"0.0-3.159-2.159","t6pxvx6w4s4uy9z",192,"51.csv","","null","resources/images/fishbone.png","null","",NA,NA,NA,NA,""
"image-keyboard-response",491,513049,"0.0-3.160-0.160","t6pxvx6w4s4uy9z",192,"51.csv","","271.80000001192093","resources/trios/L1T4A1.jpg","39","restless",0.7,0.4,0.5,0.0253765138144078,"true"
"image-keyboard-response",492,513454,"0.0-3.160-1.160","t6pxvx6w4s4uy9z",192,"51.csv","","null","resources/maskTrios/BBA1.jpg","null","",NA,NA,NA,NA,""
"image-keyboard-response",493,514661,"0.0-3.160-2.160","t6pxvx6w4s4uy9z",192,"51.csv","","null","resources/images/coin2.png","null","",NA,NA,NA,NA,""
"image-keyboard-response",494,514899,"0.0-3.161-0.161","t6pxvx6w4s4uy9z",192,"51.csv","","236.30000001192093","resources/trios/L4T1A3.jpg","39","restless",0.7,0.4,0.5,0.974917906353717,"false"
"image-keyboard-response",495,515303,"0.0-3.161-1.161","t6pxvx6w4s4uy9z",192,"51.csv","","null","resources/maskTrios/BBA3.jpg","null","",NA,NA,NA,NA,""
"image-keyboard-response",496,516509,"0.0-3.161-2.161","t6pxvx6w4s4uy9z",192,"51.csv","","null","resources/images/fishbone.png","null","",NA,NA,NA,NA,""
"image-keyboard-response",497,517581,"0.0-3.162-0.162","t6pxvx6w4s4uy9z",192,"51.csv","","1069.300000011921","resources/trios/L4T4A3.jpg","39","restless",0.7,0.4,0.5,0.206059253415896,"true"
"image-keyboard-response",498,517984,"0.0-3.162-1.162","t6pxvx6w4s4uy9z",192,"51.csv","","null","resources/maskTrios/BBA3.jpg","null","",NA,NA,NA,NA,""
"image-keyboard-response",499,519191,"0.0-3.162-2.162","t6pxvx6w4s4uy9z",192,"51.csv","","null","resources/images/coin2.png","null","",NA,NA,NA,NA,""
"image-keyboard-response",500,519288,"0.0-3.163-0.163","t6pxvx6w4s4uy9z",192,"51.csv","","94.5","resources/trios/L1T1A1.jpg","39","restless",0.7,0.4,0.5,0.359409929437874,"true"
"image-keyboard-response",501,519692,"0.0-3.163-1.163","t6pxvx6w4s4uy9z",192,"51.csv","","null","resources/maskTrios/BBA1.jpg","null","",NA,NA,NA,NA,""
"image-keyboard-response",502,520896,"0.0-3.163-2.163","t6pxvx6w4s4uy9z",192,"51.csv","","null","resources/images/coin2.png","null","",NA,NA,NA,NA,""
"image-keyboard-response",503,521376,"0.0-3.164-0.164","t6pxvx6w4s4uy9z",192,"51.csv","","476.9000000357628","resources/trios/L1T1A3.jpg","37","restless",0.7,0.4,0.6,0.54920727361909,"true"
"image-keyboard-response",504,521779,"0.0-3.164-1.164","t6pxvx6w4s4uy9z",192,"51.csv","","null","resources/maskTrios/L1BB.jpg","null","",NA,NA,NA,NA,""
"image-keyboard-response",505,522983,"0.0-3.164-2.164","t6pxvx6w4s4uy9z",192,"51.csv","","null","resources/images/coin2.png","null","",NA,NA,NA,NA,""
"image-keyboard-response",506,523018,"0.0-3.165-0.165","t6pxvx6w4s4uy9z",192,"51.csv","","33.09999996423721","resources/trios/L4T1A1.jpg","37","restless",0.7,0.4,0.6,0.335878030121161,"true"
"image-keyboard-response",507,523422,"0.0-3.165-1.165","t6pxvx6w4s4uy9z",192,"51.csv","","null","resources/maskTrios/L4BB.jpg","null","",NA,NA,NA,NA,""
"image-keyboard-response",508,524624,"0.0-3.165-2.165","t6pxvx6w4s4uy9z",192,"51.csv","","null","resources/images/coin2.png","null","",NA,NA,NA,NA,""
"image-keyboard-response",509,524740,"0.0-3.166-0.166","t6pxvx6w4s4uy9z",192,"51.csv","","113.60000002384186","resources/trios/L4T1A1.jpg","38","restless",0.7,0.4,0.6,0.00607236971576763,"true"
"image-keyboard-response",510,525142,"0.0-3.166-1.166","t6pxvx6w4s4uy9z",192,"51.csv","","null","resources/maskTrios/BT1B.jpg","null","",NA,NA,NA,NA,""
"image-keyboard-response",511,526346,"0.0-3.166-2.166","t6pxvx6w4s4uy9z",192,"51.csv","","null","resources/images/coin2.png","null","",NA,NA,NA,NA,""
"image-keyboard-response",512,526448,"0.0-3.167-0.167","t6pxvx6w4s4uy9z",192,"51.csv","","99.79999995231628","resources/trios/L4T4A1.jpg","37","restless",0.7,0.4,0.6,0.148880788476537,"true"
"image-keyboard-response",513,526852,"0.0-3.167-1.167","t6pxvx6w4s4uy9z",192,"51.csv","","null","resources/maskTrios/L4BB.jpg","null","",NA,NA,NA,NA,""
"image-keyboard-response",514,528057,"0.0-3.167-2.167","t6pxvx6w4s4uy9z",192,"51.csv","","null","resources/images/coin2.png","null","",NA,NA,NA,NA,""
"image-keyboard-response",515,528066,"0.0-3.168-0.168","t6pxvx6w4s4uy9z",192,"51.csv","","7.800000011920929","resources/trios/L4T4A1.jpg","37","restless",0.7,0.4,0.5,0.560702814805166,"true"
"image-keyboard-response",516,528468,"0.0-3.168-1.168","t6pxvx6w4s4uy9z",192,"51.csv","","null","resources/maskTrios/L4BB.jpg","null","",NA,NA,NA,NA,""
"image-keyboard-response",517,529674,"0.0-3.168-2.168","t6pxvx6w4s4uy9z",192,"51.csv","","null","resources/images/coin2.png","null","",NA,NA,NA,NA,""
"image-keyboard-response",518,529788,"0.0-3.169-0.169","t6pxvx6w4s4uy9z",192,"51.csv","","111.30000001192093","resources/trios/L4T4A3.jpg","37","restless",0.7,0.4,0.5,0.113608012698855,"true"
"image-keyboard-response",519,530193,"0.0-3.169-1.169","t6pxvx6w4s4uy9z",192,"51.csv","","null","resources/maskTrios/L4BB.jpg","null","",NA,NA,NA,NA,""
"image-keyboard-response",520,531395,"0.0-3.169-2.169","t6pxvx6w4s4uy9z",192,"51.csv","","null","resources/images/coin2.png","null","",NA,NA,NA,NA,""
"image-keyboard-response",521,531585,"0.0-3.170-0.170","t6pxvx6w4s4uy9z",192,"51.csv","","187.5","resources/trios/L1T4A1.jpg","38","restless",0.7,0.4,0.5,0.493599456922338,"false"
"image-keyboard-response",522,531990,"0.0-3.170-1.170","t6pxvx6w4s4uy9z",192,"51.csv","","null","resources/maskTrios/BT4B.jpg","null","",NA,NA,NA,NA,""
"image-keyboard-response",523,533192,"0.0-3.170-2.170","t6pxvx6w4s4uy9z",192,"51.csv","","null","resources/images/fishbone.png","null","",NA,NA,NA,NA,""
"image-keyboard-response",524,533216,"0.0-3.171-0.171","t6pxvx6w4s4uy9z",192,"51.csv","","21.5","resources/trios/L1T4A3.jpg","37","restless",0.6,0.4,0.5,0.174409791319759,"true"
"image-keyboard-response",525,533622,"0.0-3.171-1.171","t6pxvx6w4s4uy9z",192,"51.csv","","null","resources/maskTrios/L1BB.jpg","null","",NA,NA,NA,NA,""
"image-keyboard-response",526,534829,"0.0-3.171-2.171","t6pxvx6w4s4uy9z",192,"51.csv","","null","resources/images/coin2.png","null","",NA,NA,NA,NA,""
"image-keyboard-response",527,534840,"0.0-3.172-0.172","t6pxvx6w4s4uy9z",192,"51.csv","","9","resources/trios/L1T4A3.jpg","38","restless",0.6,0.4,0.5,0.804732317589019,"false"
"image-keyboard-response",528,535246,"0.0-3.172-1.172","t6pxvx6w4s4uy9z",192,"51.csv","","null","resources/maskTrios/BT4B.jpg","null","",NA,NA,NA,NA,""
"image-keyboard-response",529,536450,"0.0-3.172-2.172","t6pxvx6w4s4uy9z",192,"51.csv","","null","resources/images/fishbone.png","null","",NA,NA,NA,NA,""
"image-keyboard-response",530,536452,"0.0-3.173-0.173","t6pxvx6w4s4uy9z",192,"51.csv","","0.30000001192092896","resources/trios/L4T1A1.jpg","37","restless",0.6,0.4,0.5,0.979241105498627,"false"
"image-keyboard-response",531,536857,"0.0-3.173-1.173","t6pxvx6w4s4uy9z",192,"51.csv","","null","resources/maskTrios/L4BB.jpg","null","",NA,NA,NA,NA,""
"image-keyboard-response",532,538060,"0.0-3.173-2.173","t6pxvx6w4s4uy9z",192,"51.csv","","null","resources/images/fishbone.png","null","",NA,NA,NA,NA,""
"image-keyboard-response",533,538121,"0.0-3.174-0.174","t6pxvx6w4s4uy9z",192,"51.csv","","58.80000001192093","resources/trios/L1T1A3.jpg","37","restless",0.6,0.4,0.5,0.711967243542635,"false"
"image-keyboard-response",534,538528,"0.0-3.174-1.174","t6pxvx6w4s4uy9z",192,"51.csv","","null","resources/maskTrios/L1BB.jpg","null","",NA,NA,NA,NA,""
"image-keyboard-response",535,539733,"0.0-3.174-2.174","t6pxvx6w4s4uy9z",192,"51.csv","","null","resources/images/fishbone.png","null","",NA,NA,NA,NA,""
"image-keyboard-response",536,539883,"0.0-3.175-0.175","t6pxvx6w4s4uy9z",192,"51.csv","","147.39999997615814","resources/trios/L4T4A1.jpg","38","restless",0.6,0.4,0.5,0.4507062950612,"false"
"image-keyboard-response",537,540290,"0.0-3.175-1.175","t6pxvx6w4s4uy9z",192,"51.csv","","null","resources/maskTrios/BT4B.jpg","null","",NA,NA,NA,NA,""
"image-keyboard-response",538,541494,"0.0-3.175-2.175","t6pxvx6w4s4uy9z",192,"51.csv","","null","resources/images/fishbone.png","null","",NA,NA,NA,NA,""
"image-keyboard-response",539,541596,"0.0-3.176-0.176","t6pxvx6w4s4uy9z",192,"51.csv","","99.5","resources/trios/L4T4A1.jpg","39","restless",0.6,0.4,0.5,0.985793139054318,"false"
"image-keyboard-response",540,541999,"0.0-3.176-1.176","t6pxvx6w4s4uy9z",192,"51.csv","","null","resources/maskTrios/BBA1.jpg","null","",NA,NA,NA,NA,""
"image-keyboard-response",541,543205,"0.0-3.176-2.176","t6pxvx6w4s4uy9z",192,"51.csv","","null","resources/images/fishbone.png","null","",NA,NA,NA,NA,""
"image-keyboard-response",542,543540,"0.0-3.177-0.177","t6pxvx6w4s4uy9z",192,"51.csv","","334","resources/trios/L1T1A1.jpg","37","restless",0.6,0.4,0.5,0.932866742419124,"false"
"image-keyboard-response",543,543944,"0.0-3.177-1.177","t6pxvx6w4s4uy9z",192,"51.csv","","null","resources/maskTrios/L1BB.jpg","null","",NA,NA,NA,NA,""
"image-keyboard-response",544,545149,"0.0-3.177-2.177","t6pxvx6w4s4uy9z",192,"51.csv","","null","resources/images/fishbone.png","null","",NA,NA,NA,NA,""
"image-keyboard-response",545,545279,"0.0-3.178-0.178","t6pxvx6w4s4uy9z",192,"51.csv","","127.5","resources/trios/L1T1A1.jpg","38","restless",0.6,0.4,0.5,0.383947955981421,"true"
"image-keyboard-response",546,545684,"0.0-3.178-1.178","t6pxvx6w4s4uy9z",192,"51.csv","","null","resources/maskTrios/BT1B.jpg","null","",NA,NA,NA,NA,""
"image-keyboard-response",547,546890,"0.0-3.178-2.178","t6pxvx6w4s4uy9z",192,"51.csv","","null","resources/images/coin2.png","null","",NA,NA,NA,NA,""
"image-keyboard-response",548,547842,"0.0-3.179-0.179","t6pxvx6w4s4uy9z",192,"51.csv","","950","resources/trios/L1T4A1.jpg","38","restless",0.6,0.4,0.5,0.669797524823764,"false"
"image-keyboard-response",549,548247,"0.0-3.179-1.179","t6pxvx6w4s4uy9z",192,"51.csv","","null","resources/maskTrios/BT4B.jpg","null","",NA,NA,NA,NA,""
"image-keyboard-response",550,549454,"0.0-3.179-2.179","t6pxvx6w4s4uy9z",192,"51.csv","","null","resources/images/fishbone.png","null","",NA,NA,NA,NA,""
"image-keyboard-response",551,550594,"0.0-3.180-0.180","t6pxvx6w4s4uy9z",192,"51.csv","","1138.800000011921","resources/trios/L4T4A3.jpg","38","restless",0.6,0.4,0.5,0.861401605506101,"false"
"image-keyboard-response",552,551001,"0.0-3.180-1.180","t6pxvx6w4s4uy9z",192,"51.csv","","null","resources/maskTrios/BT4B.jpg","null","",NA,NA,NA,NA,""
"image-keyboard-response",553,552208,"0.0-3.180-2.180","t6pxvx6w4s4uy9z",192,"51.csv","","null","resources/images/fishbone.png","null","",NA,NA,NA,NA,""
"image-keyboard-response",554,552296,"0.0-3.181-0.181","t6pxvx6w4s4uy9z",192,"51.csv","","85.19999998807907","resources/trios/L1T1A1.jpg","38","restless",0.5,0.4,0.5,0.504187252646588,"false"
"image-keyboard-response",555,552698,"0.0-3.181-1.181","t6pxvx6w4s4uy9z",192,"51.csv","","null","resources/maskTrios/BT1B.jpg","null","",NA,NA,NA,NA,""
"image-keyboard-response",556,553904,"0.0-3.181-2.181","t6pxvx6w4s4uy9z",192,"51.csv","","null","resources/images/fishbone.png","null","",NA,NA,NA,NA,""
"image-keyboard-response",557,554016,"0.0-3.182-0.182","t6pxvx6w4s4uy9z",192,"51.csv","","111","resources/trios/L4T1A3.jpg","38","restless",0.5,0.4,0.6,0.26628137431894,"true"
"image-keyboard-response",558,554423,"0.0-3.182-1.182","t6pxvx6w4s4uy9z",192,"51.csv","","null","resources/maskTrios/BT1B.jpg","null","",NA,NA,NA,NA,""
"image-keyboard-response",559,555626,"0.0-3.182-2.182","t6pxvx6w4s4uy9z",192,"51.csv","","null","resources/images/coin2.png","null","",NA,NA,NA,NA,""
"image-keyboard-response",560,555846,"0.0-3.183-0.183","t6pxvx6w4s4uy9z",192,"51.csv","","217.5","resources/trios/L1T4A3.jpg","38","restless",0.5,0.4,0.6,0.112694188417483,"true"
"image-keyboard-response",561,556249,"0.0-3.183-1.183","t6pxvx6w4s4uy9z",192,"51.csv","","null","resources/maskTrios/BT4B.jpg","null","",NA,NA,NA,NA,""
"image-keyboard-response",562,557456,"0.0-3.183-2.183","t6pxvx6w4s4uy9z",192,"51.csv","","null","resources/images/coin2.png","null","",NA,NA,NA,NA,""
"image-keyboard-response",563,557737,"0.0-3.184-0.184","t6pxvx6w4s4uy9z",192,"51.csv","","279","resources/trios/L1T4A3.jpg","39","restless",0.4,0.4,0.6,0.358629264795362,"true"
"image-keyboard-response",564,558144,"0.0-3.184-1.184","t6pxvx6w4s4uy9z",192,"51.csv","","null","resources/maskTrios/BBA3.jpg","null","",NA,NA,NA,NA,""
"image-keyboard-response",565,559348,"0.0-3.184-2.184","t6pxvx6w4s4uy9z",192,"51.csv","","null","resources/images/coin2.png","null","",NA,NA,NA,NA,""
"image-keyboard-response",566,559552,"0.0-3.185-0.185","t6pxvx6w4s4uy9z",192,"51.csv","","201.89999997615814","resources/trios/L4T1A1.jpg","39","restless",0.4,0.4,0.6,0.841005134236428,"false"
"image-keyboard-response",567,559956,"0.0-3.185-1.185","t6pxvx6w4s4uy9z",192,"51.csv","","null","resources/maskTrios/BBA1.jpg","null","",NA,NA,NA,NA,""
"image-keyboard-response",568,561161,"0.0-3.185-2.185","t6pxvx6w4s4uy9z",192,"51.csv","","null","resources/images/fishbone.png","null","",NA,NA,NA,NA,""
"image-keyboard-response",569,561392,"0.0-3.186-0.186","t6pxvx6w4s4uy9z",192,"51.csv","","228.29999995231628","resources/trios/L4T4A3.jpg","39","restless",0.5,0.4,0.6,0.946567981156444,"false"
"image-keyboard-response",570,561798,"0.0-3.186-1.186","t6pxvx6w4s4uy9z",192,"51.csv","","null","resources/maskTrios/BBA3.jpg","null","",NA,NA,NA,NA,""
"image-keyboard-response",571,563005,"0.0-3.186-2.186","t6pxvx6w4s4uy9z",192,"51.csv","","null","resources/images/fishbone.png","null","",NA,NA,NA,NA,""
"image-keyboard-response",572,563182,"0.0-3.187-0.187","t6pxvx6w4s4uy9z",192,"51.csv","","174.5","resources/trios/L1T1A3.jpg","37","restless",0.5,0.4,0.6,0.424355959140067,"true"
"image-keyboard-response",573,563588,"0.0-3.187-1.187","t6pxvx6w4s4uy9z",192,"51.csv","","null","resources/maskTrios/L1BB.jpg","null","",NA,NA,NA,NA,""
"image-keyboard-response",574,564793,"0.0-3.187-2.187","t6pxvx6w4s4uy9z",192,"51.csv","","null","resources/images/coin2.png","null","",NA,NA,NA,NA,""
"image-keyboard-response",575,564917,"0.0-3.188-0.188","t6pxvx6w4s4uy9z",192,"51.csv","","122.10000002384186","resources/trios/L1T1A1.jpg","38","restless",0.5,0.4,0.6,0.402949748018422,"false"
"image-keyboard-response",576,565325,"0.0-3.188-1.188","t6pxvx6w4s4uy9z",192,"51.csv","","null","resources/maskTrios/BT1B.jpg","null","",NA,NA,NA,NA,""
"image-keyboard-response",577,566528,"0.0-3.188-2.188","t6pxvx6w4s4uy9z",192,"51.csv","","null","resources/images/fishbone.png","null","",NA,NA,NA,NA,""
"image-keyboard-response",578,566547,"0.0-3.189-0.189","t6pxvx6w4s4uy9z",192,"51.csv","","18.5","resources/trios/L1T1A3.jpg","37","restless",0.5,0.4,0.6,0.539405898168986,"false"
"image-keyboard-response",579,566948,"0.0-3.189-1.189","t6pxvx6w4s4uy9z",192,"51.csv","","null","resources/maskTrios/L1BB.jpg","null","",NA,NA,NA,NA,""
"image-keyboard-response",580,568155,"0.0-3.189-2.189","t6pxvx6w4s4uy9z",192,"51.csv","","null","resources/images/fishbone.png","null","",NA,NA,NA,NA,""
"image-keyboard-response",581,568215,"0.0-3.190-0.190","t6pxvx6w4s4uy9z",192,"51.csv","","57.80000001192093","resources/trios/L4T1A3.jpg","38","restless",0.5,0.4,0.5,0.849044988700585,"false"
"image-keyboard-response",582,568617,"0.0-3.190-1.190","t6pxvx6w4s4uy9z",192,"51.csv","","null","resources/maskTrios/BT1B.jpg","null","",NA,NA,NA,NA,""
"image-keyboard-response",583,569820,"0.0-3.190-2.190","t6pxvx6w4s4uy9z",192,"51.csv","","null","resources/images/fishbone.png","null","",NA,NA,NA,NA,""
"image-keyboard-response",584,569875,"0.0-3.191-0.191","t6pxvx6w4s4uy9z",192,"51.csv","","52.69999998807907","resources/trios/L4T4A1.jpg","38","restless",0.5,0.4,0.5,0.391785987467391,"true"
"image-keyboard-response",585,570280,"0.0-3.191-1.191","t6pxvx6w4s4uy9z",192,"51.csv","","null","resources/maskTrios/BT4B.jpg","null","",NA,NA,NA,NA,""
"image-keyboard-response",586,571483,"0.0-3.191-2.191","t6pxvx6w4s4uy9z",192,"51.csv","","null","resources/images/coin2.png","null","",NA,NA,NA,NA,""
"image-keyboard-response",587,571490,"0.0-3.192-0.192","t6pxvx6w4s4uy9z",192,"51.csv","","4.199999988079071","resources/trios/L1T4A1.jpg","37","restless",0.5,0.4,0.5,0.730005973027093,"false"
"image-keyboard-response",588,571892,"0.0-3.192-1.192","t6pxvx6w4s4uy9z",192,"51.csv","","null","resources/maskTrios/L1BB.jpg","null","",NA,NA,NA,NA,""
"image-keyboard-response",589,573098,"0.0-3.192-2.192","t6pxvx6w4s4uy9z",192,"51.csv","","null","resources/images/fishbone.png","null","",NA,NA,NA,NA,""
"image-keyboard-response",590,573176,"0.0-3.193-0.193","t6pxvx6w4s4uy9z",192,"51.csv","","75.60000002384186","resources/trios/L1T4A1.jpg","39","restless",0.5,0.4,0.5,0.718797830258336,"false"
"image-keyboard-response",591,573577,"0.0-3.193-1.193","t6pxvx6w4s4uy9z",192,"51.csv","","null","resources/maskTrios/BBA1.jpg","null","",NA,NA,NA,NA,""
"image-keyboard-response",592,574783,"0.0-3.193-2.193","t6pxvx6w4s4uy9z",192,"51.csv","","null","resources/images/fishbone.png","null","",NA,NA,NA,NA,""
"image-keyboard-response",593,574937,"0.0-3.194-0.194","t6pxvx6w4s4uy9z",192,"51.csv","","151.70000004768372","resources/trios/L1T4A3.jpg","38","restless",0.4,0.5,0.5,0.0830715542532419,"true"
"image-keyboard-response",594,575344,"0.0-3.194-1.194","t6pxvx6w4s4uy9z",192,"51.csv","","null","resources/maskTrios/BT4B.jpg","null","",NA,NA,NA,NA,""
"image-keyboard-response",595,576549,"0.0-3.194-2.194","t6pxvx6w4s4uy9z",192,"51.csv","","null","resources/images/coin2.png","null","",NA,NA,NA,NA,""
"image-keyboard-response",596,576618,"0.0-3.195-0.195","t6pxvx6w4s4uy9z",192,"51.csv","","67.19999998807907","resources/trios/L4T4A3.jpg","38","restless",0.4,0.5,0.5,0.685473581177936,"false"
"image-keyboard-response",597,577026,"0.0-3.195-1.195","t6pxvx6w4s4uy9z",192,"51.csv","","null","resources/maskTrios/BT4B.jpg","null","",NA,NA,NA,NA,""
"image-keyboard-response",598,578232,"0.0-3.195-2.195","t6pxvx6w4s4uy9z",192,"51.csv","","null","resources/images/fishbone.png","null","",NA,NA,NA,NA,""
"image-keyboard-response",599,578243,"0.0-3.196-0.196","t6pxvx6w4s4uy9z",192,"51.csv","","8.099999964237213","resources/trios/L1T1A3.jpg","39","restless",0.4,0.5,0.5,0.144164546402325,"true"
"image-keyboard-response",600,578649,"0.0-3.196-1.196","t6pxvx6w4s4uy9z",192,"51.csv","","null","resources/maskTrios/BBA3.jpg","null","",NA,NA,NA,NA,""
"image-keyboard-response",601,579853,"0.0-3.196-2.196","t6pxvx6w4s4uy9z",192,"51.csv","","null","resources/images/coin2.png","null","",NA,NA,NA,NA,""
"image-keyboard-response",602,580313,"0.0-3.197-0.197","t6pxvx6w4s4uy9z",192,"51.csv","","457.80000001192093","resources/trios/L1T4A1.jpg","37","restless",0.4,0.6,0.5,0.400578785060274,"false"
"image-keyboard-response",603,580718,"0.0-3.197-1.197","t6pxvx6w4s4uy9z",192,"51.csv","","null","resources/maskTrios/L1BB.jpg","null","",NA,NA,NA,NA,""
"image-keyboard-response",604,581922,"0.0-3.197-2.197","t6pxvx6w4s4uy9z",192,"51.csv","","null","resources/images/fishbone.png","null","",NA,NA,NA,NA,""
"image-keyboard-response",605,582035,"0.0-3.198-0.198","t6pxvx6w4s4uy9z",192,"51.csv","","111.5","resources/trios/L1T4A3.jpg","38","restless",0.4,0.6,0.5,0.810172638064419,"false"
"image-keyboard-response",606,582442,"0.0-3.198-1.198","t6pxvx6w4s4uy9z",192,"51.csv","","null","resources/maskTrios/BT4B.jpg","null","",NA,NA,NA,NA,""
"image-keyboard-response",607,583648,"0.0-3.198-2.198","t6pxvx6w4s4uy9z",192,"51.csv","","null","resources/images/fishbone.png","null","",NA,NA,NA,NA,""
"image-keyboard-response",608,583990,"0.0-3.199-0.199","t6pxvx6w4s4uy9z",192,"51.csv","","341.5","resources/trios/L1T4A1.jpg","38","restless",0.4,0.6,0.5,0.906948213795159,"false"
"image-keyboard-response",609,584398,"0.0-3.199-1.199","t6pxvx6w4s4uy9z",192,"51.csv","","null","resources/maskTrios/BT4B.jpg","null","",NA,NA,NA,NA,""
"image-keyboard-response",610,585602,"0.0-3.199-2.199","t6pxvx6w4s4uy9z",192,"51.csv","","null","resources/images/fishbone.png","null","",NA,NA,NA,NA,""
