"trial_type","trial_index","time_elapsed","internal_node_id","subject","participantCode","walkNumber","success","rt","stimulus","key_press","test_part","leftProb","midProb","rightProb","generatedNum","correct"
"pavlovia",0,992,"0.0-0.0","msr0phb6eze5pq8",951,"4.csv","","","","","",NA,NA,NA,NA,""
"fullscreen",1,3889,"0.0-1.0","msr0phb6eze5pq8",951,"4.csv","true","","","","",NA,NA,NA,NA,""
"html-keyboard-response",2,12493,"0.0-2.0-0.0","msr0phb6eze5pq8",951,"4.csv","","8602.100000023842","<p><font size='6'>Arrrgh!</p></font><p>Can you be the best pirate? Try to find lots of gold! But beware, some islands have more gold than others, and over time, the island with the most gold may change. Can YOU figure it out? </p><font size='6'>GOOD LUCK, CAPTAIN!!!</font><p>Press any key to begin</p>","32","",NA,NA,NA,NA,""
"image-keyboard-response",3,15494,"0.0-2.0-1.0","msr0phb6eze5pq8",951,"4.csv","","null","resources/image_sets/111.png","null","",NA,NA,NA,NA,""
"image-keyboard-response",4,20142,"0.0-2.0-2.0","msr0phb6eze5pq8",951,"4.csv","","4646.0999999940395","resources/image_sets/left_highlight.png","37","",NA,NA,NA,NA,""
"image-keyboard-response",5,22634,"0.0-2.0-3.0","msr0phb6eze5pq8",951,"4.csv","","2489.5999999940395","resources/image_sets/mid_highlight.png","38","",NA,NA,NA,NA,""
"image-keyboard-response",6,23398,"0.0-2.0-4.0","msr0phb6eze5pq8",951,"4.csv","","763.0999999940395","resources/image_sets/right_highlight.png","39","",NA,NA,NA,NA,""
"image-keyboard-response",7,24662,"0.0-2.0-5.0","msr0phb6eze5pq8",951,"4.csv","","1262.699999988079","resources/image_sets/111.png","13","",NA,NA,NA,NA,""
"image-keyboard-response",8,26462,"0.0-2.0-6.0","msr0phb6eze5pq8",951,"4.csv","","1799.199999988079","resources/images/coin2.png","13","",NA,NA,NA,NA,""
"image-keyboard-response",9,27741,"0.0-2.0-7.0","msr0phb6eze5pq8",951,"4.csv","","1278.2999999821186","resources/images/fishbone.png","13","",NA,NA,NA,NA,""
"html-keyboard-response",10,31348,"0.0-2.0-8.0","msr0phb6eze5pq8",951,"4.csv","","3606.5","<p>Your first journey will be a long one, but you will get a well deserved break at the end</p><p>After the break you will have four more journeys, but each will be much shorter than the first, and you will have breaks in between each</p><p>Press Enter to begin</p>","13","",NA,NA,NA,NA,""
"image-keyboard-response",11,37258,"0.0-3.0-0.0","msr0phb6eze5pq8",951,"4.csv","","5908.200000017881","resources/trios/L2T1A1.jpg","37","restless",0.9,0.7,0.3,0.470520804770627,"true"
"image-keyboard-response",12,37668,"0.0-3.0-1.0","msr0phb6eze5pq8",951,"4.csv","","null","resources/maskTrios/L2BB.jpg","null","",NA,NA,NA,NA,""
"image-keyboard-response",13,38886,"0.0-3.0-2.0","msr0phb6eze5pq8",951,"4.csv","","null","resources/images/coin2.png","null","",NA,NA,NA,NA,""
"image-keyboard-response",14,44688,"0.0-3.1-0.1","msr0phb6eze5pq8",951,"4.csv","","5799.5999999940395","resources/trios/L1T4A3.jpg","39","restless",0.9,0.7,0.3,0.886078550013381,"false"
"image-keyboard-response",15,45098,"0.0-3.1-1.1","msr0phb6eze5pq8",951,"4.csv","","null","resources/maskTrios/BBA3.jpg","null","",NA,NA,NA,NA,""
"image-keyboard-response",16,46315,"0.0-3.1-2.1","msr0phb6eze5pq8",951,"4.csv","","null","resources/images/fishbone.png","null","",NA,NA,NA,NA,""
"image-keyboard-response",17,49097,"0.0-3.2-0.2","msr0phb6eze5pq8",951,"4.csv","","2780.699999988079","resources/trios/L1T1A1.jpg","39","restless",0.9,0.7,0.2,0.97279577713468,"false"
"image-keyboard-response",18,49501,"0.0-3.2-1.2","msr0phb6eze5pq8",951,"4.csv","","null","resources/maskTrios/BBA1.jpg","null","",NA,NA,NA,NA,""
"image-keyboard-response",19,50717,"0.0-3.2-2.2","msr0phb6eze5pq8",951,"4.csv","","null","resources/images/fishbone.png","null","",NA,NA,NA,NA,""
"image-keyboard-response",20,51029,"0.0-3.3-0.3","msr0phb6eze5pq8",951,"4.csv","","310.19999998807907","resources/trios/L2T4A1.jpg","38","restless",0.9,0.7,0.2,0.934159830264977,"false"
"image-keyboard-response",21,51442,"0.0-3.3-1.3","msr0phb6eze5pq8",951,"4.csv","","null","resources/maskTrios/BT4B.jpg","null","",NA,NA,NA,NA,""
"image-keyboard-response",22,52655,"0.0-3.3-2.3","msr0phb6eze5pq8",951,"4.csv","","null","resources/images/fishbone.png","null","",NA,NA,NA,NA,""
"image-keyboard-response",23,53016,"0.0-3.4-0.4","msr0phb6eze5pq8",951,"4.csv","","359.30000001192093","resources/trios/L1T1A3.jpg","38","restless",0.9,0.7,0.2,0.515453961413189,"true"
"image-keyboard-response",24,53421,"0.0-3.4-1.4","msr0phb6eze5pq8",951,"4.csv","","null","resources/maskTrios/BT1B.jpg","null","",NA,NA,NA,NA,""
"image-keyboard-response",25,54637,"0.0-3.4-2.4","msr0phb6eze5pq8",951,"4.csv","","null","resources/images/coin2.png","null","",NA,NA,NA,NA,""
"image-keyboard-response",26,54955,"0.0-3.5-0.5","msr0phb6eze5pq8",951,"4.csv","","316.30000001192093","resources/trios/L2T1A1.jpg","37","restless",0.9,0.7,0.2,0.488652947177189,"true"
"image-keyboard-response",27,55362,"0.0-3.5-1.5","msr0phb6eze5pq8",951,"4.csv","","null","resources/maskTrios/L2BB.jpg","null","",NA,NA,NA,NA,""
"image-keyboard-response",28,56573,"0.0-3.5-2.5","msr0phb6eze5pq8",951,"4.csv","","null","resources/images/coin2.png","null","",NA,NA,NA,NA,""
"image-keyboard-response",29,57098,"0.0-3.6-0.6","msr0phb6eze5pq8",951,"4.csv","","523.0999999940395","resources/trios/L1T4A3.jpg","38","restless",0.9,0.7,0.2,0.856227353661052,"false"
"image-keyboard-response",30,57505,"0.0-3.6-1.6","msr0phb6eze5pq8",951,"4.csv","","null","resources/maskTrios/BT4B.jpg","null","",NA,NA,NA,NA,""
"image-keyboard-response",31,58708,"0.0-3.6-2.6","msr0phb6eze5pq8",951,"4.csv","","null","resources/images/fishbone.png","null","",NA,NA,NA,NA,""
"image-keyboard-response",32,58907,"0.0-3.7-0.7","msr0phb6eze5pq8",951,"4.csv","","197.90000000596046","resources/trios/L1T4A3.jpg","38","restless",0.9,0.7,0.2,0.983628656894392,"false"
"image-keyboard-response",33,59321,"0.0-3.7-1.7","msr0phb6eze5pq8",951,"4.csv","","null","resources/maskTrios/BT4B.jpg","null","",NA,NA,NA,NA,""
"image-keyboard-response",34,60522,"0.0-3.7-2.7","msr0phb6eze5pq8",951,"4.csv","","null","resources/images/fishbone.png","null","",NA,NA,NA,NA,""
"image-keyboard-response",35,61164,"0.0-3.8-0.8","msr0phb6eze5pq8",951,"4.csv","","639.5","resources/trios/L1T4A1.jpg","37","restless",0.9,0.7,0.2,0.679788172183009,"true"
"image-keyboard-response",36,61580,"0.0-3.8-1.8","msr0phb6eze5pq8",951,"4.csv","","null","resources/maskTrios/L1BB.jpg","null","",NA,NA,NA,NA,""
"image-keyboard-response",37,62797,"0.0-3.8-2.8","msr0phb6eze5pq8",951,"4.csv","","null","resources/images/coin2.png","null","",NA,NA,NA,NA,""
"image-keyboard-response",38,62876,"0.0-3.9-0.9","msr0phb6eze5pq8",951,"4.csv","","77.30000001192093","resources/trios/L1T1A3.jpg","39","restless",0.9,0.7,0.2,0.120536791818334,"true"
"image-keyboard-response",39,63285,"0.0-3.9-1.9","msr0phb6eze5pq8",951,"4.csv","","null","resources/maskTrios/BBA3.jpg","null","",NA,NA,NA,NA,""
"image-keyboard-response",40,64488,"0.0-3.9-2.9","msr0phb6eze5pq8",951,"4.csv","","null","resources/images/coin2.png","null","",NA,NA,NA,NA,""
"image-keyboard-response",41,64700,"0.0-3.10-0.10","msr0phb6eze5pq8",951,"4.csv","","210","resources/trios/L2T4A1.jpg","38","restless",0.9,0.6,0.2,0.0632093843101194,"true"
"image-keyboard-response",42,65116,"0.0-3.10-1.10","msr0phb6eze5pq8",951,"4.csv","","null","resources/maskTrios/BT4B.jpg","null","",NA,NA,NA,NA,""
"image-keyboard-response",43,66320,"0.0-3.10-2.10","msr0phb6eze5pq8",951,"4.csv","","null","resources/images/coin2.png","null","",NA,NA,NA,NA,""
"image-keyboard-response",44,66527,"0.0-3.11-0.11","msr0phb6eze5pq8",951,"4.csv","","204.30000001192093","resources/trios/L1T4A1.jpg","39","restless",0.9,0.6,0.2,0.381976277394066,"false"
"image-keyboard-response",45,66932,"0.0-3.11-1.11","msr0phb6eze5pq8",951,"4.csv","","null","resources/maskTrios/BBA1.jpg","null","",NA,NA,NA,NA,""
"image-keyboard-response",46,68137,"0.0-3.11-2.11","msr0phb6eze5pq8",951,"4.csv","","null","resources/images/fishbone.png","null","",NA,NA,NA,NA,""
"image-keyboard-response",47,68514,"0.0-3.12-0.12","msr0phb6eze5pq8",951,"4.csv","","375.59999999403954","resources/trios/L2T1A1.jpg","37","restless",0.9,0.6,0.2,0.883559283578043,"true"
"image-keyboard-response",48,68925,"0.0-3.12-1.12","msr0phb6eze5pq8",951,"4.csv","","null","resources/maskTrios/L2BB.jpg","null","",NA,NA,NA,NA,""
"image-keyboard-response",49,70142,"0.0-3.12-2.12","msr0phb6eze5pq8",951,"4.csv","","null","resources/images/coin2.png","null","",NA,NA,NA,NA,""
"image-keyboard-response",50,70321,"0.0-3.13-0.13","msr0phb6eze5pq8",951,"4.csv","","177.2999999821186","resources/trios/L2T1A1.jpg","38","restless",0.8,0.6,0.2,0.771210294259945,"false"
"image-keyboard-response",51,70736,"0.0-3.13-1.13","msr0phb6eze5pq8",951,"4.csv","","null","resources/maskTrios/BT1B.jpg","null","",NA,NA,NA,NA,""
"image-keyboard-response",52,71947,"0.0-3.13-2.13","msr0phb6eze5pq8",951,"4.csv","","null","resources/images/fishbone.png","null","",NA,NA,NA,NA,""
"image-keyboard-response",53,72499,"0.0-3.14-0.14","msr0phb6eze5pq8",951,"4.csv","","550.2000000178814","resources/trios/L2T4A1.jpg","37","restless",0.8,0.6,0.2,0.296866197087546,"true"
"image-keyboard-response",54,72914,"0.0-3.14-1.14","msr0phb6eze5pq8",951,"4.csv","","null","resources/maskTrios/L2BB.jpg","null","",NA,NA,NA,NA,""
"image-keyboard-response",55,74119,"0.0-3.14-2.14","msr0phb6eze5pq8",951,"4.csv","","null","resources/images/coin2.png","null","",NA,NA,NA,NA,""
"image-keyboard-response",56,74336,"0.0-3.15-0.15","msr0phb6eze5pq8",951,"4.csv","","214.59999999403954","resources/trios/L2T1A3.jpg","37","restless",0.8,0.6,0.2,0.714853783149996,"true"
"image-keyboard-response",57,74748,"0.0-3.15-1.15","msr0phb6eze5pq8",951,"4.csv","","null","resources/maskTrios/L2BB.jpg","null","",NA,NA,NA,NA,""
"image-keyboard-response",58,75965,"0.0-3.15-2.15","msr0phb6eze5pq8",951,"4.csv","","null","resources/images/coin2.png","null","",NA,NA,NA,NA,""
"image-keyboard-response",59,75973,"0.0-3.16-0.16","msr0phb6eze5pq8",951,"4.csv","","6.4000000059604645","resources/trios/L1T1A1.jpg","39","restless",0.8,0.6,0.2,0.122503377038597,"true"
"image-keyboard-response",60,76390,"0.0-3.16-1.16","msr0phb6eze5pq8",951,"4.csv","","null","resources/maskTrios/BBA1.jpg","null","",NA,NA,NA,NA,""
"image-keyboard-response",61,77607,"0.0-3.16-2.16","msr0phb6eze5pq8",951,"4.csv","","null","resources/images/coin2.png","null","",NA,NA,NA,NA,""
"image-keyboard-response",62,77648,"0.0-3.17-0.17","msr0phb6eze5pq8",951,"4.csv","","38.80000001192093","resources/trios/L2T4A3.jpg","38","restless",0.8,0.6,0.2,0.198205908771316,"true"
"image-keyboard-response",63,78059,"0.0-3.17-1.17","msr0phb6eze5pq8",951,"4.csv","","null","resources/maskTrios/BT4B.jpg","null","",NA,NA,NA,NA,""
"image-keyboard-response",64,79261,"0.0-3.17-2.17","msr0phb6eze5pq8",951,"4.csv","","null","resources/images/coin2.png","null","",NA,NA,NA,NA,""
"image-keyboard-response",65,79350,"0.0-3.18-0.18","msr0phb6eze5pq8",951,"4.csv","","87.80000001192093","resources/trios/L2T4A1.jpg","39","restless",0.8,0.6,0.2,0.399918312932267,"false"
"image-keyboard-response",66,79763,"0.0-3.18-1.18","msr0phb6eze5pq8",951,"4.csv","","null","resources/maskTrios/BBA1.jpg","null","",NA,NA,NA,NA,""
"image-keyboard-response",67,80975,"0.0-3.18-2.18","msr0phb6eze5pq8",951,"4.csv","","null","resources/images/fishbone.png","null","",NA,NA,NA,NA,""
"image-keyboard-response",68,81040,"0.0-3.19-0.19","msr0phb6eze5pq8",951,"4.csv","","63.19999998807907","resources/trios/L2T4A3.jpg","39","restless",0.8,0.5,0.3,0.987879642603789,"false"
"image-keyboard-response",69,81448,"0.0-3.19-1.19","msr0phb6eze5pq8",951,"4.csv","","null","resources/maskTrios/BBA3.jpg","null","",NA,NA,NA,NA,""
"image-keyboard-response",70,82661,"0.0-3.19-2.19","msr0phb6eze5pq8",951,"4.csv","","null","resources/images/fishbone.png","null","",NA,NA,NA,NA,""
"image-keyboard-response",71,82716,"0.0-3.20-0.20","msr0phb6eze5pq8",951,"4.csv","","54","resources/trios/L1T1A1.jpg","39","restless",0.8,0.5,0.3,0.959940249069545,"false"
"image-keyboard-response",72,83133,"0.0-3.20-1.20","msr0phb6eze5pq8",951,"4.csv","","null","resources/maskTrios/BBA1.jpg","null","",NA,NA,NA,NA,""
"image-keyboard-response",73,84336,"0.0-3.20-2.20","msr0phb6eze5pq8",951,"4.csv","","null","resources/images/fishbone.png","null","",NA,NA,NA,NA,""
"image-keyboard-response",74,84645,"0.0-3.21-0.21","msr0phb6eze5pq8",951,"4.csv","","306.90000000596046","resources/trios/L1T1A3.jpg","39","restless",0.7,0.5,0.3,0.934998911604072,"false"
"image-keyboard-response",75,85060,"0.0-3.21-1.21","msr0phb6eze5pq8",951,"4.csv","","null","resources/maskTrios/BBA3.jpg","null","",NA,NA,NA,NA,""
"image-keyboard-response",76,86264,"0.0-3.21-2.21","msr0phb6eze5pq8",951,"4.csv","","null","resources/images/fishbone.png","null","",NA,NA,NA,NA,""
"image-keyboard-response",77,86461,"0.0-3.22-0.22","msr0phb6eze5pq8",951,"4.csv","","195.69999998807907","resources/trios/L1T1A1.jpg","39","restless",0.7,0.4,0.3,0.630751388021494,"false"
"image-keyboard-response",78,86878,"0.0-3.22-1.22","msr0phb6eze5pq8",951,"4.csv","","null","resources/maskTrios/BBA1.jpg","null","",NA,NA,NA,NA,""
"image-keyboard-response",79,88094,"0.0-3.22-2.22","msr0phb6eze5pq8",951,"4.csv","","null","resources/images/fishbone.png","null","",NA,NA,NA,NA,""
"image-keyboard-response",80,89054,"0.0-3.23-0.23","msr0phb6eze5pq8",951,"4.csv","","958.3000000119209","resources/trios/L1T1A1.jpg","39","restless",0.7,0.4,0.3,0.258990599951816,"true"
"image-keyboard-response",81,89464,"0.0-3.23-1.23","msr0phb6eze5pq8",951,"4.csv","","null","resources/maskTrios/BBA1.jpg","null","",NA,NA,NA,NA,""
"image-keyboard-response",82,90680,"0.0-3.23-2.23","msr0phb6eze5pq8",951,"4.csv","","null","resources/images/coin2.png","null","",NA,NA,NA,NA,""
"image-keyboard-response",83,91001,"0.0-3.24-0.24","msr0phb6eze5pq8",951,"4.csv","","319.5","resources/trios/L2T4A3.jpg","39","restless",0.7,0.4,0.4,0.911548391970922,"false"
"image-keyboard-response",84,91406,"0.0-3.24-1.24","msr0phb6eze5pq8",951,"4.csv","","null","resources/maskTrios/BBA3.jpg","null","",NA,NA,NA,NA,""
"image-keyboard-response",85,92612,"0.0-3.24-2.24","msr0phb6eze5pq8",951,"4.csv","","null","resources/images/fishbone.png","null","",NA,NA,NA,NA,""
"image-keyboard-response",86,92726,"0.0-3.25-0.25","msr0phb6eze5pq8",951,"4.csv","","112.10000002384186","resources/trios/L2T1A3.jpg","39","restless",0.7,0.4,0.4,0.804231522517269,"false"
"image-keyboard-response",87,93132,"0.0-3.25-1.25","msr0phb6eze5pq8",951,"4.csv","","null","resources/maskTrios/BBA3.jpg","null","",NA,NA,NA,NA,""
"image-keyboard-response",88,94347,"0.0-3.25-2.25","msr0phb6eze5pq8",951,"4.csv","","null","resources/images/fishbone.png","null","",NA,NA,NA,NA,""
"image-keyboard-response",89,94604,"0.0-3.26-0.26","msr0phb6eze5pq8",951,"4.csv","","255.19999998807907","resources/trios/L2T1A1.jpg","39","restless",0.7,0.4,0.4,0.931714635769912,"false"
"image-keyboard-response",90,95008,"0.0-3.26-1.26","msr0phb6eze5pq8",951,"4.csv","","null","resources/maskTrios/BBA1.jpg","null","",NA,NA,NA,NA,""
"image-keyboard-response",91,96217,"0.0-3.26-2.26","msr0phb6eze5pq8",951,"4.csv","","null","resources/images/fishbone.png","null","",NA,NA,NA,NA,""
"image-keyboard-response",92,96566,"0.0-3.27-0.27","msr0phb6eze5pq8",951,"4.csv","","346.5","resources/trios/L1T4A1.jpg","39","restless",0.7,0.4,0.4,0.365573713582764,"true"
"image-keyboard-response",93,96971,"0.0-3.27-1.27","msr0phb6eze5pq8",951,"4.csv","","null","resources/maskTrios/BBA1.jpg","null","",NA,NA,NA,NA,""
"image-keyboard-response",94,98186,"0.0-3.27-2.27","msr0phb6eze5pq8",951,"4.csv","","null","resources/images/coin2.png","null","",NA,NA,NA,NA,""
"image-keyboard-response",95,98775,"0.0-3.28-0.28","msr0phb6eze5pq8",951,"4.csv","","587.4000000059605","resources/trios/L1T4A1.jpg","39","restless",0.7,0.4,0.4,0.523240797855324,"false"
"image-keyboard-response",96,99180,"0.0-3.28-1.28","msr0phb6eze5pq8",951,"4.csv","","null","resources/maskTrios/BBA1.jpg","null","",NA,NA,NA,NA,""
"image-keyboard-response",97,100397,"0.0-3.28-2.28","msr0phb6eze5pq8",951,"4.csv","","null","resources/images/fishbone.png","null","",NA,NA,NA,NA,""
"image-keyboard-response",98,100958,"0.0-3.29-0.29","msr0phb6eze5pq8",951,"4.csv","","559.8000000119209","resources/trios/L2T1A1.jpg","37","restless",0.7,0.4,0.4,0.073237831467255,"true"
"image-keyboard-response",99,101373,"0.0-3.29-1.29","msr0phb6eze5pq8",951,"4.csv","","null","resources/maskTrios/L2BB.jpg","null","",NA,NA,NA,NA,""
"image-keyboard-response",100,102576,"0.0-3.29-2.29","msr0phb6eze5pq8",951,"4.csv","","null","resources/images/coin2.png","null","",NA,NA,NA,NA,""
"image-keyboard-response",101,102823,"0.0-3.30-0.30","msr0phb6eze5pq8",951,"4.csv","","245.90000000596046","resources/trios/L2T1A1.jpg","38","restless",0.7,0.4,0.4,0.0129897473572933,"true"
"image-keyboard-response",102,103236,"0.0-3.30-1.30","msr0phb6eze5pq8",951,"4.csv","","null","resources/maskTrios/BT1B.jpg","null","",NA,NA,NA,NA,""
"image-keyboard-response",103,104448,"0.0-3.30-2.30","msr0phb6eze5pq8",951,"4.csv","","null","resources/images/coin2.png","null","",NA,NA,NA,NA,""
"image-keyboard-response",104,104669,"0.0-3.31-0.31","msr0phb6eze5pq8",951,"4.csv","","219.5","resources/trios/L1T1A3.jpg","39","restless",0.7,0.4,0.4,0.396806621570986,"true"
"image-keyboard-response",105,105076,"0.0-3.31-1.31","msr0phb6eze5pq8",951,"4.csv","","null","resources/maskTrios/BBA3.jpg","null","",NA,NA,NA,NA,""
"image-keyboard-response",106,106279,"0.0-3.31-2.31","msr0phb6eze5pq8",951,"4.csv","","null","resources/images/coin2.png","null","",NA,NA,NA,NA,""
"image-keyboard-response",107,106520,"0.0-3.32-0.32","msr0phb6eze5pq8",951,"4.csv","","240.2999999821186","resources/trios/L2T4A1.jpg","37","restless",0.6,0.4,0.4,0.89885868904874,"false"
"image-keyboard-response",108,106924,"0.0-3.32-1.32","msr0phb6eze5pq8",951,"4.csv","","null","resources/maskTrios/L2BB.jpg","null","",NA,NA,NA,NA,""
"image-keyboard-response",109,108127,"0.0-3.32-2.32","msr0phb6eze5pq8",951,"4.csv","","null","resources/images/fishbone.png","null","",NA,NA,NA,NA,""
"image-keyboard-response",110,108493,"0.0-3.33-0.33","msr0phb6eze5pq8",951,"4.csv","","364.5","resources/trios/L1T4A1.jpg","39","restless",0.6,0.4,0.5,0.873914606438666,"false"
"image-keyboard-response",111,108899,"0.0-3.33-1.33","msr0phb6eze5pq8",951,"4.csv","","null","resources/maskTrios/BBA1.jpg","null","",NA,NA,NA,NA,""
"image-keyboard-response",112,110102,"0.0-3.33-2.33","msr0phb6eze5pq8",951,"4.csv","","null","resources/images/fishbone.png","null","",NA,NA,NA,NA,""
"image-keyboard-response",113,110588,"0.0-3.34-0.34","msr0phb6eze5pq8",951,"4.csv","","484.7000000178814","resources/trios/L2T4A3.jpg","38","restless",0.6,0.4,0.5,0.117091340452574,"true"
"image-keyboard-response",114,110996,"0.0-3.34-1.34","msr0phb6eze5pq8",951,"4.csv","","null","resources/maskTrios/BT4B.jpg","null","",NA,NA,NA,NA,""
"image-keyboard-response",115,112200,"0.0-3.34-2.34","msr0phb6eze5pq8",951,"4.csv","","null","resources/images/coin2.png","null","",NA,NA,NA,NA,""
"image-keyboard-response",116,112415,"0.0-3.35-0.35","msr0phb6eze5pq8",951,"4.csv","","214.5","resources/trios/L2T1A3.jpg","39","restless",0.6,0.3,0.5,0.46881159267626,"true"
"image-keyboard-response",117,112828,"0.0-3.35-1.35","msr0phb6eze5pq8",951,"4.csv","","null","resources/maskTrios/BBA3.jpg","null","",NA,NA,NA,NA,""
"image-keyboard-response",118,114037,"0.0-3.35-2.35","msr0phb6eze5pq8",951,"4.csv","","null","resources/images/coin2.png","null","",NA,NA,NA,NA,""
"image-keyboard-response",119,114376,"0.0-3.36-0.36","msr0phb6eze5pq8",951,"4.csv","","337.59999999403954","resources/trios/L1T1A1.jpg","38","restless",0.6,0.3,0.5,0.73660250639447,"false"
"image-keyboard-response",120,114793,"0.0-3.36-1.36","msr0phb6eze5pq8",951,"4.csv","","null","resources/maskTrios/BT1B.jpg","null","",NA,NA,NA,NA,""
"image-keyboard-response",121,116010,"0.0-3.36-2.36","msr0phb6eze5pq8",951,"4.csv","","null","resources/images/fishbone.png","null","",NA,NA,NA,NA,""
"image-keyboard-response",122,116275,"0.0-3.37-0.37","msr0phb6eze5pq8",951,"4.csv","","263.80000001192093","resources/trios/L2T4A1.jpg","39","restless",0.6,0.3,0.5,0.511528678609236,"false"
"image-keyboard-response",123,116685,"0.0-3.37-1.37","msr0phb6eze5pq8",951,"4.csv","","null","resources/maskTrios/BBA1.jpg","null","",NA,NA,NA,NA,""
"image-keyboard-response",124,117897,"0.0-3.37-2.37","msr0phb6eze5pq8",951,"4.csv","","null","resources/images/fishbone.png","null","",NA,NA,NA,NA,""
"image-keyboard-response",125,118121,"0.0-3.38-0.38","msr0phb6eze5pq8",951,"4.csv","","222.40000000596046","resources/trios/L2T4A3.jpg","39","restless",0.6,0.2,0.5,0.661846124277894,"false"
"image-keyboard-response",126,118527,"0.0-3.38-1.38","msr0phb6eze5pq8",951,"4.csv","","null","resources/maskTrios/BBA3.jpg","null","",NA,NA,NA,NA,""
"image-keyboard-response",127,119735,"0.0-3.38-2.38","msr0phb6eze5pq8",951,"4.csv","","null","resources/images/fishbone.png","null","",NA,NA,NA,NA,""
"image-keyboard-response",128,119939,"0.0-3.39-0.39","msr0phb6eze5pq8",951,"4.csv","","203.09999999403954","resources/trios/L1T1A1.jpg","37","restless",0.6,0.2,0.5,0.452199417209046,"true"
"image-keyboard-response",129,120348,"0.0-3.39-1.39","msr0phb6eze5pq8",951,"4.csv","","null","resources/maskTrios/L1BB.jpg","null","",NA,NA,NA,NA,""
"image-keyboard-response",130,121562,"0.0-3.39-2.39","msr0phb6eze5pq8",951,"4.csv","","null","resources/images/coin2.png","null","",NA,NA,NA,NA,""
"image-keyboard-response",131,121791,"0.0-3.40-0.40","msr0phb6eze5pq8",951,"4.csv","","228.2999999821186","resources/trios/L2T4A3.jpg","39","restless",0.5,0.2,0.5,0.292784770942244,"true"
"image-keyboard-response",132,122206,"0.0-3.40-1.40","msr0phb6eze5pq8",951,"4.csv","","null","resources/maskTrios/BBA3.jpg","null","",NA,NA,NA,NA,""
"image-keyboard-response",133,123414,"0.0-3.40-2.40","msr0phb6eze5pq8",951,"4.csv","","null","resources/images/coin2.png","null","",NA,NA,NA,NA,""
"image-keyboard-response",134,123911,"0.0-3.41-0.41","msr0phb6eze5pq8",951,"4.csv","","495.40000000596046","resources/trios/L2T1A3.jpg","38","restless",0.5,0.2,0.5,0.0572608225554276,"true"
"image-keyboard-response",135,124320,"0.0-3.41-1.41","msr0phb6eze5pq8",951,"4.csv","","null","resources/maskTrios/BT1B.jpg","null","",NA,NA,NA,NA,""
"image-keyboard-response",136,125525,"0.0-3.41-2.41","msr0phb6eze5pq8",951,"4.csv","","null","resources/images/coin2.png","null","",NA,NA,NA,NA,""
"image-keyboard-response",137,125881,"0.0-3.42-0.42","msr0phb6eze5pq8",951,"4.csv","","354.80000001192093","resources/trios/L2T1A1.jpg","39","restless",0.5,0.2,0.5,0.304000465903997,"true"
"image-keyboard-response",138,126297,"0.0-3.42-1.42","msr0phb6eze5pq8",951,"4.csv","","null","resources/maskTrios/BBA1.jpg","null","",NA,NA,NA,NA,""
"image-keyboard-response",139,127502,"0.0-3.42-2.42","msr0phb6eze5pq8",951,"4.csv","","null","resources/images/coin2.png","null","",NA,NA,NA,NA,""
"image-keyboard-response",140,127777,"0.0-3.43-0.43","msr0phb6eze5pq8",951,"4.csv","","273.90000000596046","resources/trios/L2T1A3.jpg","37","restless",0.5,0.2,0.5,0.557966713178633,"false"
"image-keyboard-response",141,128181,"0.0-3.43-1.43","msr0phb6eze5pq8",951,"4.csv","","null","resources/maskTrios/L2BB.jpg","null","",NA,NA,NA,NA,""
"image-keyboard-response",142,129384,"0.0-3.43-2.43","msr0phb6eze5pq8",951,"4.csv","","null","resources/images/fishbone.png","null","",NA,NA,NA,NA,""
"image-keyboard-response",143,129714,"0.0-3.44-0.44","msr0phb6eze5pq8",951,"4.csv","","328.5","resources/trios/L1T4A3.jpg","38","restless",0.5,0.3,0.5,0.515644324426176,"false"
"image-keyboard-response",144,130124,"0.0-3.44-1.44","msr0phb6eze5pq8",951,"4.csv","","null","resources/maskTrios/BT4B.jpg","null","",NA,NA,NA,NA,""
"image-keyboard-response",145,131340,"0.0-3.44-2.44","msr0phb6eze5pq8",951,"4.csv","","null","resources/images/fishbone.png","null","",NA,NA,NA,NA,""
"image-keyboard-response",146,131581,"0.0-3.45-0.45","msr0phb6eze5pq8",951,"4.csv","","239.69999998807907","resources/trios/L2T4A3.jpg","38","restless",0.5,0.3,0.5,0.166444675799574,"true"
"image-keyboard-response",147,131985,"0.0-3.45-1.45","msr0phb6eze5pq8",951,"4.csv","","null","resources/maskTrios/BT4B.jpg","null","",NA,NA,NA,NA,""
"image-keyboard-response",148,133188,"0.0-3.45-2.45","msr0phb6eze5pq8",951,"4.csv","","null","resources/images/coin2.png","null","",NA,NA,NA,NA,""
"image-keyboard-response",149,133486,"0.0-3.46-0.46","msr0phb6eze5pq8",951,"4.csv","","296.7000000178814","resources/trios/L1T1A1.jpg","39","restless",0.5,0.3,0.5,0.263575449369396,"true"
"image-keyboard-response",150,133897,"0.0-3.46-1.46","msr0phb6eze5pq8",951,"4.csv","","null","resources/maskTrios/BBA1.jpg","null","",NA,NA,NA,NA,""
"image-keyboard-response",151,135098,"0.0-3.46-2.46","msr0phb6eze5pq8",951,"4.csv","","null","resources/images/coin2.png","null","",NA,NA,NA,NA,""
"image-keyboard-response",152,135552,"0.0-3.47-0.47","msr0phb6eze5pq8",951,"4.csv","","452.2999999821186","resources/trios/L1T1A3.jpg","37","restless",0.5,0.2,0.6,0.259174739439545,"true"
"image-keyboard-response",153,135962,"0.0-3.47-1.47","msr0phb6eze5pq8",951,"4.csv","","null","resources/maskTrios/L1BB.jpg","null","",NA,NA,NA,NA,""
"image-keyboard-response",154,137170,"0.0-3.47-2.47","msr0phb6eze5pq8",951,"4.csv","","null","resources/images/coin2.png","null","",NA,NA,NA,NA,""
"image-keyboard-response",155,137463,"0.0-3.48-0.48","msr0phb6eze5pq8",951,"4.csv","","291.7999999821186","resources/trios/L2T1A1.jpg","39","restless",0.4,0.2,0.6,0.638571509833394,"false"
"image-keyboard-response",156,137877,"0.0-3.48-1.48","msr0phb6eze5pq8",951,"4.csv","","null","resources/maskTrios/BBA1.jpg","null","",NA,NA,NA,NA,""
"image-keyboard-response",157,139093,"0.0-3.48-2.48","msr0phb6eze5pq8",951,"4.csv","","null","resources/images/fishbone.png","null","",NA,NA,NA,NA,""
"image-keyboard-response",158,139525,"0.0-3.49-0.49","msr0phb6eze5pq8",951,"4.csv","","430.40000000596046","resources/trios/L2T4A1.jpg","39","restless",0.3,0.2,0.6,0.32537034849781,"true"
"image-keyboard-response",159,139928,"0.0-3.49-1.49","msr0phb6eze5pq8",951,"4.csv","","null","resources/maskTrios/BBA1.jpg","null","",NA,NA,NA,NA,""
"image-keyboard-response",160,141133,"0.0-3.49-2.49","msr0phb6eze5pq8",951,"4.csv","","null","resources/images/coin2.png","null","",NA,NA,NA,NA,""
"image-keyboard-response",161,141208,"0.0-3.50-0.50","msr0phb6eze5pq8",951,"4.csv","","72.90000000596046","resources/trios/L1T1A1.jpg","38","restless",0.3,0.2,0.6,0.538263290595789,"false"
"image-keyboard-response",162,141616,"0.0-3.50-1.50","msr0phb6eze5pq8",951,"4.csv","","null","resources/maskTrios/BT1B.jpg","null","",NA,NA,NA,NA,""
"image-keyboard-response",163,142821,"0.0-3.50-2.50","msr0phb6eze5pq8",951,"4.csv","","null","resources/images/fishbone.png","null","",NA,NA,NA,NA,""
"image-keyboard-response",164,142851,"0.0-3.51-0.51","msr0phb6eze5pq8",951,"4.csv","","28.799999982118607","resources/trios/L1T1A1.jpg","37","restless",0.3,0.2,0.7,0.626989158647948,"false"
"image-keyboard-response",165,143263,"0.0-3.51-1.51","msr0phb6eze5pq8",951,"4.csv","","null","resources/maskTrios/L1BB.jpg","null","",NA,NA,NA,NA,""
"image-keyboard-response",166,144480,"0.0-3.51-2.51","msr0phb6eze5pq8",951,"4.csv","","null","resources/images/fishbone.png","null","",NA,NA,NA,NA,""
"image-keyboard-response",167,144902,"0.0-3.52-0.52","msr0phb6eze5pq8",951,"4.csv","","420.90000000596046","resources/trios/L2T1A1.jpg","37","restless",0.3,0.2,0.7,0.462062306614488,"false"
"image-keyboard-response",168,145313,"0.0-3.52-1.52","msr0phb6eze5pq8",951,"4.csv","","null","resources/maskTrios/L2BB.jpg","null","",NA,NA,NA,NA,""
"image-keyboard-response",169,146527,"0.0-3.52-2.52","msr0phb6eze5pq8",951,"4.csv","","null","resources/images/fishbone.png","null","",NA,NA,NA,NA,""
"image-keyboard-response",170,146918,"0.0-3.53-0.53","msr0phb6eze5pq8",951,"4.csv","","389.90000000596046","resources/trios/L1T4A1.jpg","37","restless",0.3,0.1,0.7,0.0866277548664436,"true"
"image-keyboard-response",171,147331,"0.0-3.53-1.53","msr0phb6eze5pq8",951,"4.csv","","null","resources/maskTrios/L1BB.jpg","null","",NA,NA,NA,NA,""
"image-keyboard-response",172,148536,"0.0-3.53-2.53","msr0phb6eze5pq8",951,"4.csv","","null","resources/images/coin2.png","null","",NA,NA,NA,NA,""
"image-keyboard-response",173,148807,"0.0-3.54-0.54","msr0phb6eze5pq8",951,"4.csv","","269.5","resources/trios/L2T1A1.jpg","39","restless",0.3,0.1,0.8,0.232336619640982,"true"
"image-keyboard-response",174,149214,"0.0-3.54-1.54","msr0phb6eze5pq8",951,"4.csv","","null","resources/maskTrios/BBA1.jpg","null","",NA,NA,NA,NA,""
"image-keyboard-response",175,150418,"0.0-3.54-2.54","msr0phb6eze5pq8",951,"4.csv","","null","resources/images/coin2.png","null","",NA,NA,NA,NA,""
"image-keyboard-response",176,150615,"0.0-3.55-0.55","msr0phb6eze5pq8",951,"4.csv","","195.69999998807907","resources/trios/L1T4A3.jpg","38","restless",0.3,0.1,0.8,0.17427981740371,"false"
"image-keyboard-response",177,151030,"0.0-3.55-1.55","msr0phb6eze5pq8",951,"4.csv","","null","resources/maskTrios/BT4B.jpg","null","",NA,NA,NA,NA,""
"image-keyboard-response",178,152246,"0.0-3.55-2.55","msr0phb6eze5pq8",951,"4.csv","","null","resources/images/fishbone.png","null","",NA,NA,NA,NA,""
"image-keyboard-response",179,152605,"0.0-3.56-0.56","msr0phb6eze5pq8",951,"4.csv","","357.7999999821186","resources/trios/L2T4A3.jpg","37","restless",0.3,0.1,0.8,0.826942851388849,"false"
"image-keyboard-response",180,153016,"0.0-3.56-1.56","msr0phb6eze5pq8",951,"4.csv","","null","resources/maskTrios/L2BB.jpg","null","",NA,NA,NA,NA,""
"image-keyboard-response",181,154220,"0.0-3.56-2.56","msr0phb6eze5pq8",951,"4.csv","","null","resources/images/fishbone.png","null","",NA,NA,NA,NA,""
"image-keyboard-response",182,156152,"0.0-3.57-0.57","msr0phb6eze5pq8",951,"4.csv","","1931","resources/trios/L1T4A3.jpg","37","restless",0.3,0.1,0.8,0.80486393289506,"false"
"image-keyboard-response",183,156569,"0.0-3.57-1.57","msr0phb6eze5pq8",951,"4.csv","","null","resources/maskTrios/L1BB.jpg","null","",NA,NA,NA,NA,""
"image-keyboard-response",184,157770,"0.0-3.57-2.57","msr0phb6eze5pq8",951,"4.csv","","null","resources/images/fishbone.png","null","",NA,NA,NA,NA,""
"image-keyboard-response",185,157887,"0.0-3.58-0.58","msr0phb6eze5pq8",951,"4.csv","","114.40000000596046","resources/trios/L1T1A1.jpg","37","restless",0.2,0.1,0.8,0.47784516469269,"false"
"image-keyboard-response",186,158303,"0.0-3.58-1.58","msr0phb6eze5pq8",951,"4.csv","","null","resources/maskTrios/L1BB.jpg","null","",NA,NA,NA,NA,""
"image-keyboard-response",187,159517,"0.0-3.58-2.58","msr0phb6eze5pq8",951,"4.csv","","null","resources/images/fishbone.png","null","",NA,NA,NA,NA,""
"image-keyboard-response",188,159751,"0.0-3.59-0.59","msr0phb6eze5pq8",951,"4.csv","","232.69999998807907","resources/trios/L1T4A1.jpg","37","restless",0.2,0.1,0.8,0.814192603807637,"false"
"image-keyboard-response",189,160163,"0.0-3.59-1.59","msr0phb6eze5pq8",951,"4.csv","","null","resources/maskTrios/L1BB.jpg","null","",NA,NA,NA,NA,""
"image-keyboard-response",190,161367,"0.0-3.59-2.59","msr0phb6eze5pq8",951,"4.csv","","null","resources/images/fishbone.png","null","",NA,NA,NA,NA,""
"image-keyboard-response",191,161505,"0.0-3.60-0.60","msr0phb6eze5pq8",951,"4.csv","","136.5","resources/trios/L2T4A3.jpg","37","restless",0.3,0.1,0.8,0.105129278596077,"true"
"image-keyboard-response",192,161915,"0.0-3.60-1.60","msr0phb6eze5pq8",951,"4.csv","","null","resources/maskTrios/L2BB.jpg","null","",NA,NA,NA,NA,""
"image-keyboard-response",193,163119,"0.0-3.60-2.60","msr0phb6eze5pq8",951,"4.csv","","null","resources/images/coin2.png","null","",NA,NA,NA,NA,""
"image-keyboard-response",194,163400,"0.0-3.61-0.61","msr0phb6eze5pq8",951,"4.csv","","279.5","resources/trios/L2T4A3.jpg","39","restless",0.3,0.1,0.8,0.0310710089010193,"true"
"image-keyboard-response",195,163807,"0.0-3.61-1.61","msr0phb6eze5pq8",951,"4.csv","","null","resources/maskTrios/BBA3.jpg","null","",NA,NA,NA,NA,""
"image-keyboard-response",196,165012,"0.0-3.61-2.61","msr0phb6eze5pq8",951,"4.csv","","null","resources/images/coin2.png","null","",NA,NA,NA,NA,""
"image-keyboard-response",197,165654,"0.0-3.62-0.62","msr0phb6eze5pq8",951,"4.csv","","639.6000000238419","resources/trios/L2T4A1.jpg","38","restless",0.3,0.1,0.8,0.974700961113335,"false"
"image-keyboard-response",198,166068,"0.0-3.62-1.62","msr0phb6eze5pq8",951,"4.csv","","null","resources/maskTrios/BT4B.jpg","null","",NA,NA,NA,NA,""
"image-keyboard-response",199,167276,"0.0-3.62-2.62","msr0phb6eze5pq8",951,"4.csv","","null","resources/images/fishbone.png","null","",NA,NA,NA,NA,""
"image-keyboard-response",200,168749,"0.0-3.63-0.63","msr0phb6eze5pq8",951,"4.csv","","1471.300000011921","resources/trios/L1T4A3.jpg","38","restless",0.3,0.1,0.8,0.239497400628628,"false"
"image-keyboard-response",201,169162,"0.0-3.63-1.63","msr0phb6eze5pq8",951,"4.csv","","null","resources/maskTrios/BT4B.jpg","null","",NA,NA,NA,NA,""
"image-keyboard-response",202,170365,"0.0-3.63-2.63","msr0phb6eze5pq8",951,"4.csv","","null","resources/images/fishbone.png","null","",NA,NA,NA,NA,""
"image-keyboard-response",203,170817,"0.0-3.64-0.64","msr0phb6eze5pq8",951,"4.csv","","449.7999999821186","resources/trios/L2T4A3.jpg","38","restless",0.3,0.1,0.8,0.468754395316738,"false"
"image-keyboard-response",204,171230,"0.0-3.64-1.64","msr0phb6eze5pq8",951,"4.csv","","null","resources/maskTrios/BT4B.jpg","null","",NA,NA,NA,NA,""
"image-keyboard-response",205,172448,"0.0-3.64-2.64","msr0phb6eze5pq8",951,"4.csv","","null","resources/images/fishbone.png","null","",NA,NA,NA,NA,""
"image-keyboard-response",206,172820,"0.0-3.65-0.65","msr0phb6eze5pq8",951,"4.csv","","369.60000002384186","resources/trios/L1T1A3.jpg","38","restless",0.3,0.1,0.8,0.268684080890931,"false"
"image-keyboard-response",207,173225,"0.0-3.65-1.65","msr0phb6eze5pq8",951,"4.csv","","null","resources/maskTrios/BT1B.jpg","null","",NA,NA,NA,NA,""
"image-keyboard-response",208,174441,"0.0-3.65-2.65","msr0phb6eze5pq8",951,"4.csv","","null","resources/images/fishbone.png","null","",NA,NA,NA,NA,""
"image-keyboard-response",209,175261,"0.0-3.66-0.66","msr0phb6eze5pq8",951,"4.csv","","818.5","resources/trios/L2T4A3.jpg","38","restless",0.3,0.1,0.8,0.160986413736517,"false"
"image-keyboard-response",210,175671,"0.0-3.66-1.66","msr0phb6eze5pq8",951,"4.csv","","null","resources/maskTrios/BT4B.jpg","null","",NA,NA,NA,NA,""
"image-keyboard-response",211,176873,"0.0-3.66-2.66","msr0phb6eze5pq8",951,"4.csv","","null","resources/images/fishbone.png","null","",NA,NA,NA,NA,""
"image-keyboard-response",212,177401,"0.0-3.67-0.67","msr0phb6eze5pq8",951,"4.csv","","526.3999999761581","resources/trios/L2T1A1.jpg","38","restless",0.4,0.1,0.8,0.181592098588074,"false"
"image-keyboard-response",213,177813,"0.0-3.67-1.67","msr0phb6eze5pq8",951,"4.csv","","null","resources/maskTrios/BT1B.jpg","null","",NA,NA,NA,NA,""
"image-keyboard-response",214,179015,"0.0-3.67-2.67","msr0phb6eze5pq8",951,"4.csv","","null","resources/images/fishbone.png","null","",NA,NA,NA,NA,""
"image-keyboard-response",215,179124,"0.0-3.68-0.68","msr0phb6eze5pq8",951,"4.csv","","107.40000000596046","resources/trios/L1T4A1.jpg","38","restless",0.4,0.2,0.8,0.447237785163757,"false"
"image-keyboard-response",216,179531,"0.0-3.68-1.68","msr0phb6eze5pq8",951,"4.csv","","null","resources/maskTrios/BT4B.jpg","null","",NA,NA,NA,NA,""
"image-keyboard-response",217,180747,"0.0-3.68-2.68","msr0phb6eze5pq8",951,"4.csv","","null","resources/images/fishbone.png","null","",NA,NA,NA,NA,""
"image-keyboard-response",218,180994,"0.0-3.69-0.69","msr0phb6eze5pq8",951,"4.csv","","244.5","resources/trios/L2T1A1.jpg","38","restless",0.4,0.2,0.8,0.909840878090327,"false"
"image-keyboard-response",219,181407,"0.0-3.69-1.69","msr0phb6eze5pq8",951,"4.csv","","null","resources/maskTrios/BT1B.jpg","null","",NA,NA,NA,NA,""
"image-keyboard-response",220,182619,"0.0-3.69-2.69","msr0phb6eze5pq8",951,"4.csv","","null","resources/images/fishbone.png","null","",NA,NA,NA,NA,""
"image-keyboard-response",221,182940,"0.0-3.70-0.70","msr0phb6eze5pq8",951,"4.csv","","319.69999998807907","resources/trios/L1T4A3.jpg","38","restless",0.4,0.2,0.8,0.49309606642877,"false"
"image-keyboard-response",222,183344,"0.0-3.70-1.70","msr0phb6eze5pq8",951,"4.csv","","null","resources/maskTrios/BT4B.jpg","null","",NA,NA,NA,NA,""
"image-keyboard-response",223,184561,"0.0-3.70-2.70","msr0phb6eze5pq8",951,"4.csv","","null","resources/images/fishbone.png","null","",NA,NA,NA,NA,""
"image-keyboard-response",224,184815,"0.0-3.71-0.71","msr0phb6eze5pq8",951,"4.csv","","251.90000000596046","resources/trios/L2T1A1.jpg","38","restless",0.4,0.2,0.8,0.70634951271869,"false"
"image-keyboard-response",225,185220,"0.0-3.71-1.71","msr0phb6eze5pq8",951,"4.csv","","null","resources/maskTrios/BT1B.jpg","null","",NA,NA,NA,NA,""
"image-keyboard-response",226,186422,"0.0-3.71-2.71","msr0phb6eze5pq8",951,"4.csv","","null","resources/images/fishbone.png","null","",NA,NA,NA,NA,""
"image-keyboard-response",227,186626,"0.0-3.72-0.72","msr0phb6eze5pq8",951,"4.csv","","202.2999999821186","resources/trios/L2T4A3.jpg","38","restless",0.4,0.2,0.8,0.26145260118587,"false"
"image-keyboard-response",228,187038,"0.0-3.72-1.72","msr0phb6eze5pq8",951,"4.csv","","null","resources/maskTrios/BT4B.jpg","null","",NA,NA,NA,NA,""
"image-keyboard-response",229,188241,"0.0-3.72-2.72","msr0phb6eze5pq8",951,"4.csv","","null","resources/images/fishbone.png","null","",NA,NA,NA,NA,""
"image-keyboard-response",230,188620,"0.0-3.73-0.73","msr0phb6eze5pq8",951,"4.csv","","377.80000001192093","resources/trios/L1T4A1.jpg","38","restless",0.3,0.2,0.8,0.462853203110631,"false"
"image-keyboard-response",231,189026,"0.0-3.73-1.73","msr0phb6eze5pq8",951,"4.csv","","null","resources/maskTrios/BT4B.jpg","null","",NA,NA,NA,NA,""
"image-keyboard-response",232,190228,"0.0-3.73-2.73","msr0phb6eze5pq8",951,"4.csv","","null","resources/images/fishbone.png","null","",NA,NA,NA,NA,""
"image-keyboard-response",233,190553,"0.0-3.74-0.74","msr0phb6eze5pq8",951,"4.csv","","322.59999999403954","resources/trios/L1T1A3.jpg","38","restless",0.3,0.2,0.8,0.936017011163505,"false"
"image-keyboard-response",234,190966,"0.0-3.74-1.74","msr0phb6eze5pq8",951,"4.csv","","null","resources/maskTrios/BT1B.jpg","null","",NA,NA,NA,NA,""
"image-keyboard-response",235,192172,"0.0-3.74-2.74","msr0phb6eze5pq8",951,"4.csv","","null","resources/images/fishbone.png","null","",NA,NA,NA,NA,""
"image-keyboard-response",236,192543,"0.0-3.75-0.75","msr0phb6eze5pq8",951,"4.csv","","369.5","resources/trios/L2T4A3.jpg","37","restless",0.3,0.2,0.8,0.0235317306562839,"true"
"image-keyboard-response",237,192959,"0.0-3.75-1.75","msr0phb6eze5pq8",951,"4.csv","","null","resources/maskTrios/L2BB.jpg","null","",NA,NA,NA,NA,""
"image-keyboard-response",238,194160,"0.0-3.75-2.75","msr0phb6eze5pq8",951,"4.csv","","null","resources/images/coin2.png","null","",NA,NA,NA,NA,""
"image-keyboard-response",239,194498,"0.0-3.76-0.76","msr0phb6eze5pq8",951,"4.csv","","335.90000000596046","resources/trios/L1T4A3.jpg","39","restless",0.3,0.2,0.7,0.725525696042682,"false"
"image-keyboard-response",240,194904,"0.0-3.76-1.76","msr0phb6eze5pq8",951,"4.csv","","null","resources/maskTrios/BBA3.jpg","null","",NA,NA,NA,NA,""
"image-keyboard-response",241,196109,"0.0-3.76-2.76","msr0phb6eze5pq8",951,"4.csv","","null","resources/images/fishbone.png","null","",NA,NA,NA,NA,""
"image-keyboard-response",242,196324,"0.0-3.77-0.77","msr0phb6eze5pq8",951,"4.csv","","213.40000000596046","resources/trios/L1T4A1.jpg","37","restless",0.3,0.2,0.7,0.578265077746672,"false"
"image-keyboard-response",243,196737,"0.0-3.77-1.77","msr0phb6eze5pq8",951,"4.csv","","null","resources/maskTrios/L1BB.jpg","null","",NA,NA,NA,NA,""
"image-keyboard-response",244,197940,"0.0-3.77-2.77","msr0phb6eze5pq8",951,"4.csv","","null","resources/images/fishbone.png","null","",NA,NA,NA,NA,""
"image-keyboard-response",245,197972,"0.0-3.78-0.78","msr0phb6eze5pq8",951,"4.csv","","30.900000005960464","resources/trios/L2T4A3.jpg","38","restless",0.3,0.2,0.7,0.173606779160648,"true"
"image-keyboard-response",246,198376,"0.0-3.78-1.78","msr0phb6eze5pq8",951,"4.csv","","null","resources/maskTrios/BT4B.jpg","null","",NA,NA,NA,NA,""
"image-keyboard-response",247,199591,"0.0-3.78-2.78","msr0phb6eze5pq8",951,"4.csv","","null","resources/images/coin2.png","null","",NA,NA,NA,NA,""
"image-keyboard-response",248,201182,"0.0-3.79-0.79","msr0phb6eze5pq8",951,"4.csv","","1590.5","resources/trios/L2T1A3.jpg","37","restless",0.3,0.3,0.6,0.0477060061094736,"true"
"image-keyboard-response",249,201586,"0.0-3.79-1.79","msr0phb6eze5pq8",951,"4.csv","","null","resources/maskTrios/L2BB.jpg","null","",NA,NA,NA,NA,""
"image-keyboard-response",250,202788,"0.0-3.79-2.79","msr0phb6eze5pq8",951,"4.csv","","null","resources/images/coin2.png","null","",NA,NA,NA,NA,""
"image-keyboard-response",251,202926,"0.0-3.80-0.80","msr0phb6eze5pq8",951,"4.csv","","135.7000000178814","resources/trios/L1T4A1.jpg","38","restless",0.3,0.3,0.6,0.805404887978396,"false"
"image-keyboard-response",252,203339,"0.0-3.80-1.80","msr0phb6eze5pq8",951,"4.csv","","null","resources/maskTrios/BT4B.jpg","null","",NA,NA,NA,NA,""
"image-keyboard-response",253,204556,"0.0-3.80-2.80","msr0phb6eze5pq8",951,"4.csv","","null","resources/images/fishbone.png","null","",NA,NA,NA,NA,""
"image-keyboard-response",254,204601,"0.0-3.81-0.81","msr0phb6eze5pq8",951,"4.csv","","43.5","resources/trios/L1T1A1.jpg","37","restless",0.3,0.3,0.6,0.638002873784416,"false"
"image-keyboard-response",255,205013,"0.0-3.81-1.81","msr0phb6eze5pq8",951,"4.csv","","null","resources/maskTrios/L1BB.jpg","null","",NA,NA,NA,NA,""
"image-keyboard-response",256,206216,"0.0-3.81-2.81","msr0phb6eze5pq8",951,"4.csv","","null","resources/images/fishbone.png","null","",NA,NA,NA,NA,""
"image-keyboard-response",257,206530,"0.0-3.82-0.82","msr0phb6eze5pq8",951,"4.csv","","312.10000002384186","resources/trios/L2T4A3.jpg","39","restless",0.3,0.3,0.6,0.341989444552755,"true"
"image-keyboard-response",258,206941,"0.0-3.82-1.82","msr0phb6eze5pq8",951,"4.csv","","null","resources/maskTrios/BBA3.jpg","null","",NA,NA,NA,NA,""
"image-keyboard-response",259,208152,"0.0-3.82-2.82","msr0phb6eze5pq8",951,"4.csv","","null","resources/images/coin2.png","null","",NA,NA,NA,NA,""
"image-keyboard-response",260,208802,"0.0-3.83-0.83","msr0phb6eze5pq8",951,"4.csv","","648.5999999940395","resources/trios/L1T1A1.jpg","37","restless",0.4,0.3,0.6,0.889535637672082,"false"
"image-keyboard-response",261,209211,"0.0-3.83-1.83","msr0phb6eze5pq8",951,"4.csv","","null","resources/maskTrios/L1BB.jpg","null","",NA,NA,NA,NA,""
"image-keyboard-response",262,210417,"0.0-3.83-2.83","msr0phb6eze5pq8",951,"4.csv","","null","resources/images/fishbone.png","null","",NA,NA,NA,NA,""
"image-keyboard-response",263,210697,"0.0-3.84-0.84","msr0phb6eze5pq8",951,"4.csv","","277.80000001192093","resources/trios/L1T4A1.jpg","38","restless",0.5,0.4,0.6,0.461410629369132,"false"
"image-keyboard-response",264,211109,"0.0-3.84-1.84","msr0phb6eze5pq8",951,"4.csv","","null","resources/maskTrios/BT4B.jpg","null","",NA,NA,NA,NA,""
"image-keyboard-response",265,212323,"0.0-3.84-2.84","msr0phb6eze5pq8",951,"4.csv","","null","resources/images/fishbone.png","null","",NA,NA,NA,NA,""
"image-keyboard-response",266,212552,"0.0-3.85-0.85","msr0phb6eze5pq8",951,"4.csv","","228","resources/trios/L2T4A3.jpg","38","restless",0.4,0.4,0.6,0.304604137589519,"true"
"image-keyboard-response",267,212966,"0.0-3.85-1.85","msr0phb6eze5pq8",951,"4.csv","","null","resources/maskTrios/BT4B.jpg","null","",NA,NA,NA,NA,""
"image-keyboard-response",268,214179,"0.0-3.85-2.85","msr0phb6eze5pq8",951,"4.csv","","null","resources/images/coin2.png","null","",NA,NA,NA,NA,""
"image-keyboard-response",269,214617,"0.0-3.86-0.86","msr0phb6eze5pq8",951,"4.csv","","436.80000001192093","resources/trios/L1T1A3.jpg","37","restless",0.4,0.4,0.6,0.29592231382091,"true"
"image-keyboard-response",270,215030,"0.0-3.86-1.86","msr0phb6eze5pq8",951,"4.csv","","null","resources/maskTrios/L1BB.jpg","null","",NA,NA,NA,NA,""
"image-keyboard-response",271,216246,"0.0-3.86-2.86","msr0phb6eze5pq8",951,"4.csv","","null","resources/images/coin2.png","null","",NA,NA,NA,NA,""
"image-keyboard-response",272,216335,"0.0-3.87-0.87","msr0phb6eze5pq8",951,"4.csv","","87.90000000596046","resources/trios/L2T4A3.jpg","39","restless",0.4,0.4,0.6,0.458502373586957,"true"
"image-keyboard-response",273,216751,"0.0-3.87-1.87","msr0phb6eze5pq8",951,"4.csv","","null","resources/maskTrios/BBA3.jpg","null","",NA,NA,NA,NA,""
"image-keyboard-response",274,217967,"0.0-3.87-2.87","msr0phb6eze5pq8",951,"4.csv","","null","resources/images/coin2.png","null","",NA,NA,NA,NA,""
"image-keyboard-response",275,218205,"0.0-3.88-0.88","msr0phb6eze5pq8",951,"4.csv","","237.09999999403954","resources/trios/L1T1A3.jpg","37","restless",0.4,0.4,0.6,0.296150862912105,"true"
"image-keyboard-response",276,218610,"0.0-3.88-1.88","msr0phb6eze5pq8",951,"4.csv","","null","resources/maskTrios/L1BB.jpg","null","",NA,NA,NA,NA,""
"image-keyboard-response",277,219826,"0.0-3.88-2.88","msr0phb6eze5pq8",951,"4.csv","","null","resources/images/coin2.png","null","",NA,NA,NA,NA,""
"image-keyboard-response",278,220542,"0.0-3.89-0.89","msr0phb6eze5pq8",951,"4.csv","","713.9000000059605","resources/trios/L2T1A3.jpg","37","restless",0.3,0.4,0.6,0.39570187788158,"false"
"image-keyboard-response",279,220957,"0.0-3.89-1.89","msr0phb6eze5pq8",951,"4.csv","","null","resources/maskTrios/L2BB.jpg","null","",NA,NA,NA,NA,""
"image-keyboard-response",280,222161,"0.0-3.89-2.89","msr0phb6eze5pq8",951,"4.csv","","null","resources/images/fishbone.png","null","",NA,NA,NA,NA,""
"image-keyboard-response",281,222442,"0.0-3.90-0.90","msr0phb6eze5pq8",951,"4.csv","","279.30000001192093","resources/trios/L1T4A1.jpg","38","restless",0.3,0.4,0.6,0.576528281537848,"false"
"image-keyboard-response",282,222853,"0.0-3.90-1.90","msr0phb6eze5pq8",951,"4.csv","","null","resources/maskTrios/BT4B.jpg","null","",NA,NA,NA,NA,""
"image-keyboard-response",283,224056,"0.0-3.90-2.90","msr0phb6eze5pq8",951,"4.csv","","null","resources/images/fishbone.png","null","",NA,NA,NA,NA,""
"image-keyboard-response",284,224594,"0.0-3.91-0.91","msr0phb6eze5pq8",951,"4.csv","","536","resources/trios/L1T1A1.jpg","38","restless",0.3,0.4,0.6,0.722989709376444,"false"
"image-keyboard-response",285,225004,"0.0-3.91-1.91","msr0phb6eze5pq8",951,"4.csv","","null","resources/maskTrios/BT1B.jpg","null","",NA,NA,NA,NA,""
"image-keyboard-response",286,226216,"0.0-3.91-2.91","msr0phb6eze5pq8",951,"4.csv","","null","resources/images/fishbone.png","null","",NA,NA,NA,NA,""
"image-keyboard-response",287,226393,"0.0-3.92-0.92","msr0phb6eze5pq8",951,"4.csv","","174.90000000596046","resources/trios/L1T1A1.jpg","39","restless",0.3,0.4,0.6,0.210122220090647,"true"
"image-keyboard-response",288,226798,"0.0-3.92-1.92","msr0phb6eze5pq8",951,"4.csv","","null","resources/maskTrios/BBA1.jpg","null","",NA,NA,NA,NA,""
"image-keyboard-response",289,228014,"0.0-3.92-2.92","msr0phb6eze5pq8",951,"4.csv","","null","resources/images/coin2.png","null","",NA,NA,NA,NA,""
"image-keyboard-response",290,228243,"0.0-3.93-0.93","msr0phb6eze5pq8",951,"4.csv","","227.19999998807907","resources/trios/L1T1A3.jpg","38","restless",0.3,0.4,0.6,0.651862003926213,"false"
"image-keyboard-response",291,228659,"0.0-3.93-1.93","msr0phb6eze5pq8",951,"4.csv","","null","resources/maskTrios/BT1B.jpg","null","",NA,NA,NA,NA,""
"image-keyboard-response",292,229868,"0.0-3.93-2.93","msr0phb6eze5pq8",951,"4.csv","","null","resources/images/fishbone.png","null","",NA,NA,NA,NA,""
"image-keyboard-response",293,230109,"0.0-3.94-0.94","msr0phb6eze5pq8",951,"4.csv","","238.40000000596046","resources/trios/L2T1A1.jpg","37","restless",0.3,0.4,0.6,0.776347343386755,"false"
"image-keyboard-response",294,230514,"0.0-3.94-1.94","msr0phb6eze5pq8",951,"4.csv","","null","resources/maskTrios/L2BB.jpg","null","",NA,NA,NA,NA,""
"image-keyboard-response",295,231732,"0.0-3.94-2.94","msr0phb6eze5pq8",951,"4.csv","","null","resources/images/fishbone.png","null","",NA,NA,NA,NA,""
"image-keyboard-response",296,232449,"0.0-3.95-0.95","msr0phb6eze5pq8",951,"4.csv","","715.5","resources/trios/L1T1A3.jpg","38","restless",0.3,0.4,0.6,0.960929081046416,"false"
"image-keyboard-response",297,232863,"0.0-3.95-1.95","msr0phb6eze5pq8",951,"4.csv","","null","resources/maskTrios/BT1B.jpg","null","",NA,NA,NA,NA,""
"image-keyboard-response",298,234075,"0.0-3.95-2.95","msr0phb6eze5pq8",951,"4.csv","","null","resources/images/fishbone.png","null","",NA,NA,NA,NA,""
"image-keyboard-response",299,234405,"0.0-3.96-0.96","msr0phb6eze5pq8",951,"4.csv","","328.2000000178814","resources/trios/L1T1A3.jpg","38","restless",0.3,0.5,0.6,0.192804157896607,"true"
"image-keyboard-response",300,234813,"0.0-3.96-1.96","msr0phb6eze5pq8",951,"4.csv","","null","resources/maskTrios/BT1B.jpg","null","",NA,NA,NA,NA,""
"image-keyboard-response",301,236017,"0.0-3.96-2.96","msr0phb6eze5pq8",951,"4.csv","","null","resources/images/coin2.png","null","",NA,NA,NA,NA,""
"image-keyboard-response",302,236383,"0.0-3.97-0.97","msr0phb6eze5pq8",951,"4.csv","","363.80000001192093","resources/trios/L2T1A3.jpg","37","restless",0.3,0.5,0.6,0.0664398557738433,"true"
"image-keyboard-response",303,236790,"0.0-3.97-1.97","msr0phb6eze5pq8",951,"4.csv","","null","resources/maskTrios/L2BB.jpg","null","",NA,NA,NA,NA,""
"image-keyboard-response",304,238006,"0.0-3.97-2.97","msr0phb6eze5pq8",951,"4.csv","","null","resources/images/coin2.png","null","",NA,NA,NA,NA,""
"image-keyboard-response",305,238477,"0.0-3.98-0.98","msr0phb6eze5pq8",951,"4.csv","","468.59999999403954","resources/trios/L1T4A3.jpg","39","restless",0.3,0.5,0.6,0.467467118149851,"true"
"image-keyboard-response",306,238883,"0.0-3.98-1.98","msr0phb6eze5pq8",951,"4.csv","","null","resources/maskTrios/BBA3.jpg","null","",NA,NA,NA,NA,""
"image-keyboard-response",307,240086,"0.0-3.98-2.98","msr0phb6eze5pq8",951,"4.csv","","null","resources/images/coin2.png","null","",NA,NA,NA,NA,""
"image-keyboard-response",308,240562,"0.0-3.99-0.99","msr0phb6eze5pq8",951,"4.csv","","474.60000002384186","resources/trios/L1T4A3.jpg","37","restless",0.3,0.5,0.6,0.798433981858049,"false"
"image-keyboard-response",309,240967,"0.0-3.99-1.99","msr0phb6eze5pq8",951,"4.csv","","null","resources/maskTrios/L1BB.jpg","null","",NA,NA,NA,NA,""
"image-keyboard-response",310,242184,"0.0-3.99-2.99","msr0phb6eze5pq8",951,"4.csv","","null","resources/images/fishbone.png","null","",NA,NA,NA,NA,""
"image-keyboard-response",311,242523,"0.0-3.100-0.100","msr0phb6eze5pq8",951,"4.csv","","337.40000000596046","resources/trios/L2T1A3.jpg","38","restless",0.3,0.5,0.6,0.588314837247845,"false"
"image-keyboard-response",312,242936,"0.0-3.100-1.100","msr0phb6eze5pq8",951,"4.csv","","null","resources/maskTrios/BT1B.jpg","null","",NA,NA,NA,NA,""
"image-keyboard-response",313,244151,"0.0-3.100-2.100","msr0phb6eze5pq8",951,"4.csv","","null","resources/images/fishbone.png","null","",NA,NA,NA,NA,""
"image-keyboard-response",314,244479,"0.0-3.101-0.101","msr0phb6eze5pq8",951,"4.csv","","326.59999999403954","resources/trios/L2T1A1.jpg","37","restless",0.3,0.5,0.6,0.188980136392974,"true"
"image-keyboard-response",315,244886,"0.0-3.101-1.101","msr0phb6eze5pq8",951,"4.csv","","null","resources/maskTrios/L2BB.jpg","null","",NA,NA,NA,NA,""
"image-keyboard-response",316,246090,"0.0-3.101-2.101","msr0phb6eze5pq8",951,"4.csv","","null","resources/images/coin2.png","null","",NA,NA,NA,NA,""
"image-keyboard-response",317,246160,"0.0-3.102-0.102","msr0phb6eze5pq8",951,"4.csv","","68.39999997615814","resources/trios/L1T1A1.jpg","39","restless",0.3,0.5,0.6,0.123691947332003,"true"
"image-keyboard-response",318,246574,"0.0-3.102-1.102","msr0phb6eze5pq8",951,"4.csv","","null","resources/maskTrios/BBA1.jpg","null","",NA,NA,NA,NA,""
"image-keyboard-response",319,247791,"0.0-3.102-2.102","msr0phb6eze5pq8",951,"4.csv","","null","resources/images/coin2.png","null","",NA,NA,NA,NA,""
"image-keyboard-response",320,247979,"0.0-3.103-0.103","msr0phb6eze5pq8",951,"4.csv","","187.09999999403954","resources/trios/L1T1A1.jpg","38","restless",0.3,0.5,0.7,0.666468601768445,"false"
"image-keyboard-response",321,248382,"0.0-3.103-1.103","msr0phb6eze5pq8",951,"4.csv","","null","resources/maskTrios/BT1B.jpg","null","",NA,NA,NA,NA,""
"image-keyboard-response",322,249585,"0.0-3.103-2.103","msr0phb6eze5pq8",951,"4.csv","","null","resources/images/fishbone.png","null","",NA,NA,NA,NA,""
"image-keyboard-response",323,249810,"0.0-3.104-0.104","msr0phb6eze5pq8",951,"4.csv","","223.30000001192093","resources/trios/L1T4A1.jpg","37","restless",0.3,0.5,0.7,0.773394741781009,"false"
"image-keyboard-response",324,250214,"0.0-3.104-1.104","msr0phb6eze5pq8",951,"4.csv","","null","resources/maskTrios/L1BB.jpg","null","",NA,NA,NA,NA,""
"image-keyboard-response",325,251422,"0.0-3.104-2.104","msr0phb6eze5pq8",951,"4.csv","","null","resources/images/fishbone.png","null","",NA,NA,NA,NA,""
"image-keyboard-response",326,251642,"0.0-3.105-0.105","msr0phb6eze5pq8",951,"4.csv","","218.09999999403954","resources/trios/L1T4A3.jpg","39","restless",0.3,0.5,0.6,0.625897336142848,"false"
"image-keyboard-response",327,252049,"0.0-3.105-1.105","msr0phb6eze5pq8",951,"4.csv","","null","resources/maskTrios/BBA3.jpg","null","",NA,NA,NA,NA,""
"image-keyboard-response",328,253263,"0.0-3.105-2.105","msr0phb6eze5pq8",951,"4.csv","","null","resources/images/fishbone.png","null","",NA,NA,NA,NA,""
"image-keyboard-response",329,253874,"0.0-3.106-0.106","msr0phb6eze5pq8",951,"4.csv","","609.2000000178814","resources/trios/L2T4A3.jpg","38","restless",0.3,0.5,0.6,0.152924185699114,"true"
"image-keyboard-response",330,254286,"0.0-3.106-1.106","msr0phb6eze5pq8",951,"4.csv","","null","resources/maskTrios/BT4B.jpg","null","",NA,NA,NA,NA,""
"image-keyboard-response",331,255501,"0.0-3.106-2.106","msr0phb6eze5pq8",951,"4.csv","","null","resources/images/coin2.png","null","",NA,NA,NA,NA,""
"image-keyboard-response",332,256576,"0.0-3.107-0.107","msr0phb6eze5pq8",951,"4.csv","","1073.0999999940395","resources/trios/L2T4A3.jpg","37","restless",0.3,0.5,0.6,0.575798300817855,"false"
"image-keyboard-response",333,256980,"0.0-3.107-1.107","msr0phb6eze5pq8",951,"4.csv","","null","resources/maskTrios/L2BB.jpg","null","",NA,NA,NA,NA,""
"image-keyboard-response",334,258196,"0.0-3.107-2.107","msr0phb6eze5pq8",951,"4.csv","","null","resources/images/fishbone.png","null","",NA,NA,NA,NA,""
"image-keyboard-response",335,258980,"0.0-3.108-0.108","msr0phb6eze5pq8",951,"4.csv","","782.2999999821186","resources/trios/L1T1A1.jpg","38","restless",0.3,0.5,0.6,0.729911368184636,"false"
"image-keyboard-response",336,259397,"0.0-3.108-1.108","msr0phb6eze5pq8",951,"4.csv","","null","resources/maskTrios/BT1B.jpg","null","",NA,NA,NA,NA,""
"image-keyboard-response",337,260609,"0.0-3.108-2.108","msr0phb6eze5pq8",951,"4.csv","","null","resources/images/fishbone.png","null","",NA,NA,NA,NA,""
"image-keyboard-response",338,260947,"0.0-3.109-0.109","msr0phb6eze5pq8",951,"4.csv","","336.5","resources/trios/L1T4A3.jpg","37","restless",0.3,0.5,0.6,0.457361431104669,"false"
"image-keyboard-response",339,261359,"0.0-3.109-1.109","msr0phb6eze5pq8",951,"4.csv","","null","resources/maskTrios/L1BB.jpg","null","",NA,NA,NA,NA,""
"image-keyboard-response",340,262570,"0.0-3.109-2.109","msr0phb6eze5pq8",951,"4.csv","","null","resources/images/fishbone.png","null","",NA,NA,NA,NA,""
"image-keyboard-response",341,262816,"0.0-3.110-0.110","msr0phb6eze5pq8",951,"4.csv","","244.30000001192093","resources/trios/L2T4A1.jpg","39","restless",0.3,0.5,0.6,0.191472284940553,"true"
"image-keyboard-response",342,263229,"0.0-3.110-1.110","msr0phb6eze5pq8",951,"4.csv","","null","resources/maskTrios/BBA1.jpg","null","",NA,NA,NA,NA,""
"image-keyboard-response",343,264432,"0.0-3.110-2.110","msr0phb6eze5pq8",951,"4.csv","","null","resources/images/coin2.png","null","",NA,NA,NA,NA,""
"image-keyboard-response",344,264488,"0.0-3.111-0.111","msr0phb6eze5pq8",951,"4.csv","","54.70000001788139","resources/trios/L1T4A1.jpg","39","restless",0.4,0.5,0.6,0.918871989985435,"false"
"image-keyboard-response",345,264903,"0.0-3.111-1.111","msr0phb6eze5pq8",951,"4.csv","","null","resources/maskTrios/BBA1.jpg","null","",NA,NA,NA,NA,""
"image-keyboard-response",346,266119,"0.0-3.111-2.111","msr0phb6eze5pq8",951,"4.csv","","null","resources/images/fishbone.png","null","",NA,NA,NA,NA,""
"image-keyboard-response",347,266333,"0.0-3.112-0.112","msr0phb6eze5pq8",951,"4.csv","","212.80000001192093","resources/trios/L1T4A1.jpg","38","restless",0.4,0.5,0.6,0.584205666438504,"false"
"image-keyboard-response",348,266747,"0.0-3.112-1.112","msr0phb6eze5pq8",951,"4.csv","","null","resources/maskTrios/BT4B.jpg","null","",NA,NA,NA,NA,""
"image-keyboard-response",349,267962,"0.0-3.112-2.112","msr0phb6eze5pq8",951,"4.csv","","null","resources/images/fishbone.png","null","",NA,NA,NA,NA,""
"image-keyboard-response",350,268324,"0.0-3.113-0.113","msr0phb6eze5pq8",951,"4.csv","","360.30000001192093","resources/trios/L1T4A3.jpg","37","restless",0.3,0.5,0.6,0.206235010410301,"true"
"image-keyboard-response",351,268732,"0.0-3.113-1.113","msr0phb6eze5pq8",951,"4.csv","","null","resources/maskTrios/L1BB.jpg","null","",NA,NA,NA,NA,""
"image-keyboard-response",352,269936,"0.0-3.113-2.113","msr0phb6eze5pq8",951,"4.csv","","null","resources/images/coin2.png","null","",NA,NA,NA,NA,""
"image-keyboard-response",353,270145,"0.0-3.114-0.114","msr0phb6eze5pq8",951,"4.csv","","207","resources/trios/L1T4A1.jpg","39","restless",0.3,0.5,0.6,0.217811010783867,"true"
"image-keyboard-response",354,270548,"0.0-3.114-1.114","msr0phb6eze5pq8",951,"4.csv","","null","resources/maskTrios/BBA1.jpg","null","",NA,NA,NA,NA,""
"image-keyboard-response",355,271751,"0.0-3.114-2.114","msr0phb6eze5pq8",951,"4.csv","","null","resources/images/coin2.png","null","",NA,NA,NA,NA,""
"image-keyboard-response",356,271884,"0.0-3.115-0.115","msr0phb6eze5pq8",951,"4.csv","","131.5","resources/trios/L2T1A1.jpg","37","restless",0.3,0.5,0.6,0.0213588318654387,"true"
"image-keyboard-response",357,272297,"0.0-3.115-1.115","msr0phb6eze5pq8",951,"4.csv","","null","resources/maskTrios/L2BB.jpg","null","",NA,NA,NA,NA,""
"image-keyboard-response",358,273508,"0.0-3.115-2.115","msr0phb6eze5pq8",951,"4.csv","","null","resources/images/coin2.png","null","",NA,NA,NA,NA,""
"image-keyboard-response",359,273883,"0.0-3.116-0.116","msr0phb6eze5pq8",951,"4.csv","","373.09999999403954","resources/trios/L2T1A1.jpg","38","restless",0.3,0.5,0.6,0.662789130613051,"false"
"image-keyboard-response",360,274293,"0.0-3.116-1.116","msr0phb6eze5pq8",951,"4.csv","","null","resources/maskTrios/BT1B.jpg","null","",NA,NA,NA,NA,""
"image-keyboard-response",361,275508,"0.0-3.116-2.116","msr0phb6eze5pq8",951,"4.csv","","null","resources/images/fishbone.png","null","",NA,NA,NA,NA,""
"image-keyboard-response",362,275787,"0.0-3.117-0.117","msr0phb6eze5pq8",951,"4.csv","","277.90000000596046","resources/trios/L1T4A1.jpg","39","restless",0.3,0.5,0.6,0.0129065027718405,"true"
"image-keyboard-response",363,276201,"0.0-3.117-1.117","msr0phb6eze5pq8",951,"4.csv","","null","resources/maskTrios/BBA1.jpg","null","",NA,NA,NA,NA,""
"image-keyboard-response",364,277418,"0.0-3.117-2.117","msr0phb6eze5pq8",951,"4.csv","","null","resources/images/coin2.png","null","",NA,NA,NA,NA,""
"image-keyboard-response",365,277865,"0.0-3.118-0.118","msr0phb6eze5pq8",951,"4.csv","","445.30000001192093","resources/trios/L1T1A3.jpg","37","restless",0.3,0.5,0.6,0.607250191642277,"false"
"image-keyboard-response",366,278270,"0.0-3.118-1.118","msr0phb6eze5pq8",951,"4.csv","","null","resources/maskTrios/L1BB.jpg","null","",NA,NA,NA,NA,""
"image-keyboard-response",367,279486,"0.0-3.118-2.118","msr0phb6eze5pq8",951,"4.csv","","null","resources/images/fishbone.png","null","",NA,NA,NA,NA,""
"image-keyboard-response",368,279983,"0.0-3.119-0.119","msr0phb6eze5pq8",951,"4.csv","","495","resources/trios/L2T4A3.jpg","38","restless",0.3,0.5,0.6,0.55672115399824,"false"
"image-keyboard-response",369,280394,"0.0-3.119-1.119","msr0phb6eze5pq8",951,"4.csv","","null","resources/maskTrios/BT4B.jpg","null","",NA,NA,NA,NA,""
"image-keyboard-response",370,281606,"0.0-3.119-2.119","msr0phb6eze5pq8",951,"4.csv","","null","resources/images/fishbone.png","null","",NA,NA,NA,NA,""
"image-keyboard-response",371,281699,"0.0-3.120-0.120","msr0phb6eze5pq8",951,"4.csv","","91.30000001192093","resources/trios/L1T4A1.jpg","38","restless",0.3,0.6,0.6,0.0783190287443942,"true"
"image-keyboard-response",372,282110,"0.0-3.120-1.120","msr0phb6eze5pq8",951,"4.csv","","null","resources/maskTrios/BT4B.jpg","null","",NA,NA,NA,NA,""
"image-keyboard-response",373,283316,"0.0-3.120-2.120","msr0phb6eze5pq8",951,"4.csv","","null","resources/images/coin2.png","null","",NA,NA,NA,NA,""
"image-keyboard-response",374,283437,"0.0-3.121-0.121","msr0phb6eze5pq8",951,"4.csv","","119.7000000178814","resources/trios/L1T4A1.jpg","39","restless",0.3,0.6,0.6,0.4939191747013,"true"
"image-keyboard-response",375,283849,"0.0-3.121-1.121","msr0phb6eze5pq8",951,"4.csv","","null","resources/maskTrios/BBA1.jpg","null","",NA,NA,NA,NA,""
"image-keyboard-response",376,285062,"0.0-3.121-2.121","msr0phb6eze5pq8",951,"4.csv","","null","resources/images/coin2.png","null","",NA,NA,NA,NA,""
"image-keyboard-response",377,285114,"0.0-3.122-0.122","msr0phb6eze5pq8",951,"4.csv","","50","resources/trios/L1T4A1.jpg","37","restless",0.3,0.6,0.6,0.769254756311583,"false"
"image-keyboard-response",378,285517,"0.0-3.122-1.122","msr0phb6eze5pq8",951,"4.csv","","null","resources/maskTrios/L1BB.jpg","null","",NA,NA,NA,NA,""
"image-keyboard-response",379,286721,"0.0-3.122-2.122","msr0phb6eze5pq8",951,"4.csv","","null","resources/images/fishbone.png","null","",NA,NA,NA,NA,""
"image-keyboard-response",380,287027,"0.0-3.123-0.123","msr0phb6eze5pq8",951,"4.csv","","305","resources/trios/L2T4A3.jpg","38","restless",0.2,0.6,0.6,0.571367354572361,"true"
"image-keyboard-response",381,287430,"0.0-3.123-1.123","msr0phb6eze5pq8",951,"4.csv","","null","resources/maskTrios/BT4B.jpg","null","",NA,NA,NA,NA,""
"image-keyboard-response",382,288639,"0.0-3.123-2.123","msr0phb6eze5pq8",951,"4.csv","","null","resources/images/coin2.png","null","",NA,NA,NA,NA,""
"image-keyboard-response",383,288924,"0.0-3.124-0.124","msr0phb6eze5pq8",951,"4.csv","","282.7999999821186","resources/trios/L1T1A3.jpg","39","restless",0.2,0.6,0.6,0.265888162902664,"true"
"image-keyboard-response",384,289331,"0.0-3.124-1.124","msr0phb6eze5pq8",951,"4.csv","","null","resources/maskTrios/BBA3.jpg","null","",NA,NA,NA,NA,""
"image-keyboard-response",385,290543,"0.0-3.124-2.124","msr0phb6eze5pq8",951,"4.csv","","null","resources/images/coin2.png","null","",NA,NA,NA,NA,""
"image-keyboard-response",386,291112,"0.0-3.125-0.125","msr0phb6eze5pq8",951,"4.csv","","567.5","resources/trios/L2T1A3.jpg","37","restless",0.2,0.6,0.6,0.600119948486681,"false"
"image-keyboard-response",387,291517,"0.0-3.125-1.125","msr0phb6eze5pq8",951,"4.csv","","null","resources/maskTrios/L2BB.jpg","null","",NA,NA,NA,NA,""
"image-keyboard-response",388,292727,"0.0-3.125-2.125","msr0phb6eze5pq8",951,"4.csv","","null","resources/images/fishbone.png","null","",NA,NA,NA,NA,""
"image-keyboard-response",389,292782,"0.0-3.126-0.126","msr0phb6eze5pq8",951,"4.csv","","53.5","resources/trios/L1T4A3.jpg","38","restless",0.2,0.6,0.6,0.283386808402851,"true"
"image-keyboard-response",390,293193,"0.0-3.126-1.126","msr0phb6eze5pq8",951,"4.csv","","null","resources/maskTrios/BT4B.jpg","null","",NA,NA,NA,NA,""
"image-keyboard-response",391,294403,"0.0-3.126-2.126","msr0phb6eze5pq8",951,"4.csv","","null","resources/images/coin2.png","null","",NA,NA,NA,NA,""
"image-keyboard-response",392,294646,"0.0-3.127-0.127","msr0phb6eze5pq8",951,"4.csv","","242","resources/trios/L2T4A1.jpg","39","restless",0.3,0.6,0.6,0.0818985637935057,"true"
"image-keyboard-response",393,295063,"0.0-3.127-1.127","msr0phb6eze5pq8",951,"4.csv","","null","resources/maskTrios/BBA1.jpg","null","",NA,NA,NA,NA,""
"image-keyboard-response",394,296265,"0.0-3.127-2.127","msr0phb6eze5pq8",951,"4.csv","","null","resources/images/coin2.png","null","",NA,NA,NA,NA,""
"image-keyboard-response",395,296534,"0.0-3.128-0.128","msr0phb6eze5pq8",951,"4.csv","","267.40000000596046","resources/trios/L1T4A3.jpg","39","restless",0.3,0.6,0.6,0.709750616994804,"false"
"image-keyboard-response",396,296941,"0.0-3.128-1.128","msr0phb6eze5pq8",951,"4.csv","","null","resources/maskTrios/BBA3.jpg","null","",NA,NA,NA,NA,""
"image-keyboard-response",397,298145,"0.0-3.128-2.128","msr0phb6eze5pq8",951,"4.csv","","null","resources/images/fishbone.png","null","",NA,NA,NA,NA,""
"image-keyboard-response",398,298426,"0.0-3.129-0.129","msr0phb6eze5pq8",951,"4.csv","","280.10000002384186","resources/trios/L1T4A1.jpg","38","restless",0.3,0.6,0.6,0.920079046984693,"false"
"image-keyboard-response",399,298836,"0.0-3.129-1.129","msr0phb6eze5pq8",951,"4.csv","","null","resources/maskTrios/BT4B.jpg","null","",NA,NA,NA,NA,""
"image-keyboard-response",400,300040,"0.0-3.129-2.129","msr0phb6eze5pq8",951,"4.csv","","null","resources/images/fishbone.png","null","",NA,NA,NA,NA,""
"image-keyboard-response",401,300297,"0.0-3.130-0.130","msr0phb6eze5pq8",951,"4.csv","","255.80000001192093","resources/trios/L1T4A3.jpg","37","restless",0.3,0.6,0.6,0.378450702554386,"false"
"image-keyboard-response",402,300701,"0.0-3.130-1.130","msr0phb6eze5pq8",951,"4.csv","","null","resources/maskTrios/L1BB.jpg","null","",NA,NA,NA,NA,""
"image-keyboard-response",403,301915,"0.0-3.130-2.130","msr0phb6eze5pq8",951,"4.csv","","null","resources/images/fishbone.png","null","",NA,NA,NA,NA,""
"image-keyboard-response",404,302015,"0.0-3.131-0.131","msr0phb6eze5pq8",951,"4.csv","","97.59999999403954","resources/trios/L1T4A1.jpg","38","restless",0.3,0.5,0.5,0.60189816477909,"false"
"image-keyboard-response",405,302416,"0.0-3.131-1.131","msr0phb6eze5pq8",951,"4.csv","","null","resources/maskTrios/BT4B.jpg","null","",NA,NA,NA,NA,""
"image-keyboard-response",406,303630,"0.0-3.131-2.131","msr0phb6eze5pq8",951,"4.csv","","null","resources/images/fishbone.png","null","",NA,NA,NA,NA,""
"image-keyboard-response",407,303821,"0.0-3.132-0.132","msr0phb6eze5pq8",951,"4.csv","","189.80000001192093","resources/trios/L2T1A3.jpg","38","restless",0.3,0.5,0.5,0.78543609385911,"false"
"image-keyboard-response",408,304225,"0.0-3.132-1.132","msr0phb6eze5pq8",951,"4.csv","","null","resources/maskTrios/BT1B.jpg","null","",NA,NA,NA,NA,""
"image-keyboard-response",409,305441,"0.0-3.132-2.132","msr0phb6eze5pq8",951,"4.csv","","null","resources/images/fishbone.png","null","",NA,NA,NA,NA,""
"image-keyboard-response",410,305804,"0.0-3.133-0.133","msr0phb6eze5pq8",951,"4.csv","","360.5","resources/trios/L2T4A3.jpg","39","restless",0.3,0.5,0.5,0.804871390225107,"false"
"image-keyboard-response",411,306213,"0.0-3.133-1.133","msr0phb6eze5pq8",951,"4.csv","","null","resources/maskTrios/BBA3.jpg","null","",NA,NA,NA,NA,""
"image-keyboard-response",412,307417,"0.0-3.133-2.133","msr0phb6eze5pq8",951,"4.csv","","null","resources/images/fishbone.png","null","",NA,NA,NA,NA,""
"image-keyboard-response",413,307708,"0.0-3.134-0.134","msr0phb6eze5pq8",951,"4.csv","","289.69999998807907","resources/trios/L1T4A1.jpg","38","restless",0.3,0.5,0.5,0.402201248945837,"true"
"image-keyboard-response",414,308121,"0.0-3.134-1.134","msr0phb6eze5pq8",951,"4.csv","","null","resources/maskTrios/BT4B.jpg","null","",NA,NA,NA,NA,""
"image-keyboard-response",415,309336,"0.0-3.134-2.134","msr0phb6eze5pq8",951,"4.csv","","null","resources/images/coin2.png","null","",NA,NA,NA,NA,""
"image-keyboard-response",416,309616,"0.0-3.135-0.135","msr0phb6eze5pq8",951,"4.csv","","279","resources/trios/L2T1A3.jpg","39","restless",0.3,0.5,0.5,0.395495510079807,"true"
"image-keyboard-response",417,310025,"0.0-3.135-1.135","msr0phb6eze5pq8",951,"4.csv","","null","resources/maskTrios/BBA3.jpg","null","",NA,NA,NA,NA,""
"image-keyboard-response",418,311237,"0.0-3.135-2.135","msr0phb6eze5pq8",951,"4.csv","","null","resources/images/coin2.png","null","",NA,NA,NA,NA,""
"image-keyboard-response",419,311761,"0.0-3.136-0.136","msr0phb6eze5pq8",951,"4.csv","","522.4000000059605","resources/trios/L1T4A3.jpg","39","restless",0.3,0.5,0.5,0.997943226791966,"false"
"image-keyboard-response",420,312179,"0.0-3.136-1.136","msr0phb6eze5pq8",951,"4.csv","","null","resources/maskTrios/BBA3.jpg","null","",NA,NA,NA,NA,""
"image-keyboard-response",421,313393,"0.0-3.136-2.136","msr0phb6eze5pq8",951,"4.csv","","null","resources/images/fishbone.png","null","",NA,NA,NA,NA,""
"image-keyboard-response",422,314126,"0.0-3.137-0.137","msr0phb6eze5pq8",951,"4.csv","","730.5999999940395","resources/trios/L1T4A1.jpg","38","restless",0.4,0.5,0.5,0.534212381667411,"false"
"image-keyboard-response",423,314529,"0.0-3.137-1.137","msr0phb6eze5pq8",951,"4.csv","","null","resources/maskTrios/BT4B.jpg","null","",NA,NA,NA,NA,""
"image-keyboard-response",424,315732,"0.0-3.137-2.137","msr0phb6eze5pq8",951,"4.csv","","null","resources/images/fishbone.png","null","",NA,NA,NA,NA,""
"image-keyboard-response",425,315919,"0.0-3.138-0.138","msr0phb6eze5pq8",951,"4.csv","","185.5","resources/trios/L1T1A3.jpg","37","restless",0.4,0.5,0.5,0.6223528781561,"false"
"image-keyboard-response",426,316332,"0.0-3.138-1.138","msr0phb6eze5pq8",951,"4.csv","","null","resources/maskTrios/L1BB.jpg","null","",NA,NA,NA,NA,""
"image-keyboard-response",427,317537,"0.0-3.138-2.138","msr0phb6eze5pq8",951,"4.csv","","null","resources/images/fishbone.png","null","",NA,NA,NA,NA,""
"image-keyboard-response",428,317744,"0.0-3.139-0.139","msr0phb6eze5pq8",951,"4.csv","","205.2999999821186","resources/trios/L1T1A1.jpg","39","restless",0.4,0.6,0.5,0.562803320270949,"false"
"image-keyboard-response",429,318148,"0.0-3.139-1.139","msr0phb6eze5pq8",951,"4.csv","","null","resources/maskTrios/BBA1.jpg","null","",NA,NA,NA,NA,""
"image-keyboard-response",430,319364,"0.0-3.139-2.139","msr0phb6eze5pq8",951,"4.csv","","null","resources/images/fishbone.png","null","",NA,NA,NA,NA,""
"image-keyboard-response",431,319525,"0.0-3.140-0.140","msr0phb6eze5pq8",951,"4.csv","","159.40000000596046","resources/trios/L1T4A1.jpg","37","restless",0.3,0.6,0.5,0.818326293082659,"false"
"image-keyboard-response",432,319934,"0.0-3.140-1.140","msr0phb6eze5pq8",951,"4.csv","","null","resources/maskTrios/L1BB.jpg","null","",NA,NA,NA,NA,""
"image-keyboard-response",433,321142,"0.0-3.140-2.140","msr0phb6eze5pq8",951,"4.csv","","null","resources/images/fishbone.png","null","",NA,NA,NA,NA,""
"image-keyboard-response",434,321212,"0.0-3.141-0.141","msr0phb6eze5pq8",951,"4.csv","","68.2000000178814","resources/trios/L2T4A3.jpg","37","restless",0.3,0.6,0.5,0.723469374022244,"false"
"image-keyboard-response",435,321625,"0.0-3.141-1.141","msr0phb6eze5pq8",951,"4.csv","","null","resources/maskTrios/L2BB.jpg","null","",NA,NA,NA,NA,""
"image-keyboard-response",436,322835,"0.0-3.141-2.141","msr0phb6eze5pq8",951,"4.csv","","null","resources/images/fishbone.png","null","",NA,NA,NA,NA,""
"image-keyboard-response",437,322953,"0.0-3.142-0.142","msr0phb6eze5pq8",951,"4.csv","","116.2999999821186","resources/trios/L2T4A1.jpg","37","restless",0.3,0.6,0.4,0.554536529543168,"false"
"image-keyboard-response",438,323370,"0.0-3.142-1.142","msr0phb6eze5pq8",951,"4.csv","","null","resources/maskTrios/L2BB.jpg","null","",NA,NA,NA,NA,""
"image-keyboard-response",439,324575,"0.0-3.142-2.142","msr0phb6eze5pq8",951,"4.csv","","null","resources/images/fishbone.png","null","",NA,NA,NA,NA,""
"image-keyboard-response",440,324737,"0.0-3.143-0.143","msr0phb6eze5pq8",951,"4.csv","","160.09999999403954","resources/trios/L2T1A3.jpg","37","restless",0.4,0.6,0.4,0.284232510451393,"true"
"image-keyboard-response",441,325141,"0.0-3.143-1.143","msr0phb6eze5pq8",951,"4.csv","","null","resources/maskTrios/L2BB.jpg","null","",NA,NA,NA,NA,""
"image-keyboard-response",442,326351,"0.0-3.143-2.143","msr0phb6eze5pq8",951,"4.csv","","null","resources/images/coin2.png","null","",NA,NA,NA,NA,""
"image-keyboard-response",443,326450,"0.0-3.144-0.144","msr0phb6eze5pq8",951,"4.csv","","96.80000001192093","resources/trios/L1T1A1.jpg","38","restless",0.4,0.6,0.4,0.0213191699254853,"true"
"image-keyboard-response",444,326854,"0.0-3.144-1.144","msr0phb6eze5pq8",951,"4.csv","","null","resources/maskTrios/BT1B.jpg","null","",NA,NA,NA,NA,""
"image-keyboard-response",445,328072,"0.0-3.144-2.144","msr0phb6eze5pq8",951,"4.csv","","null","resources/images/coin2.png","null","",NA,NA,NA,NA,""
"image-keyboard-response",446,328251,"0.0-3.145-0.145","msr0phb6eze5pq8",951,"4.csv","","178","resources/trios/L1T1A1.jpg","39","restless",0.4,0.6,0.4,0.49702502687493,"false"
"image-keyboard-response",447,328657,"0.0-3.145-1.145","msr0phb6eze5pq8",951,"4.csv","","null","resources/maskTrios/BBA1.jpg","null","",NA,NA,NA,NA,""
"image-keyboard-response",448,329862,"0.0-3.145-2.145","msr0phb6eze5pq8",951,"4.csv","","null","resources/images/fishbone.png","null","",NA,NA,NA,NA,""
"image-keyboard-response",449,329890,"0.0-3.146-0.146","msr0phb6eze5pq8",951,"4.csv","","26","resources/trios/L1T4A3.jpg","39","restless",0.3,0.6,0.4,0.420959600493493,"false"
"image-keyboard-response",450,330301,"0.0-3.146-1.146","msr0phb6eze5pq8",951,"4.csv","","null","resources/maskTrios/BBA3.jpg","null","",NA,NA,NA,NA,""
"image-keyboard-response",451,331513,"0.0-3.146-2.146","msr0phb6eze5pq8",951,"4.csv","","null","resources/images/fishbone.png","null","",NA,NA,NA,NA,""
"image-keyboard-response",452,331726,"0.0-3.147-0.147","msr0phb6eze5pq8",951,"4.csv","","211.90000000596046","resources/trios/L2T4A1.jpg","37","restless",0.3,0.6,0.4,0.647416517514486,"false"
"image-keyboard-response",453,332136,"0.0-3.147-1.147","msr0phb6eze5pq8",951,"4.csv","","null","resources/maskTrios/L2BB.jpg","null","",NA,NA,NA,NA,""
"image-keyboard-response",454,333342,"0.0-3.147-2.147","msr0phb6eze5pq8",951,"4.csv","","null","resources/images/fishbone.png","null","",NA,NA,NA,NA,""
"image-keyboard-response",455,333784,"0.0-3.148-0.148","msr0phb6eze5pq8",951,"4.csv","","440","resources/trios/L2T4A3.jpg","38","restless",0.3,0.6,0.4,0.964853946198759,"false"
"image-keyboard-response",456,334190,"0.0-3.148-1.148","msr0phb6eze5pq8",951,"4.csv","","null","resources/maskTrios/BT4B.jpg","null","",NA,NA,NA,NA,""
"image-keyboard-response",457,335402,"0.0-3.148-2.148","msr0phb6eze5pq8",951,"4.csv","","null","resources/images/fishbone.png","null","",NA,NA,NA,NA,""
"image-keyboard-response",458,335563,"0.0-3.149-0.149","msr0phb6eze5pq8",951,"4.csv","","160.09999999403954","resources/trios/L1T1A3.jpg","37","restless",0.3,0.6,0.4,0.164429970907531,"true"
"image-keyboard-response",459,335970,"0.0-3.149-1.149","msr0phb6eze5pq8",951,"4.csv","","null","resources/maskTrios/L1BB.jpg","null","",NA,NA,NA,NA,""
"image-keyboard-response",460,337184,"0.0-3.149-2.149","msr0phb6eze5pq8",951,"4.csv","","null","resources/images/coin2.png","null","",NA,NA,NA,NA,""
"image-keyboard-response",461,337512,"0.0-3.150-0.150","msr0phb6eze5pq8",951,"4.csv","","326","resources/trios/L1T1A3.jpg","39","restless",0.3,0.6,0.4,0.0183573284747114,"true"
"image-keyboard-response",462,337926,"0.0-3.150-1.150","msr0phb6eze5pq8",951,"4.csv","","null","resources/maskTrios/BBA3.jpg","null","",NA,NA,NA,NA,""
"image-keyboard-response",463,339130,"0.0-3.150-2.150","msr0phb6eze5pq8",951,"4.csv","","null","resources/images/coin2.png","null","",NA,NA,NA,NA,""
"image-keyboard-response",464,339412,"0.0-3.151-0.151","msr0phb6eze5pq8",951,"4.csv","","280.80000001192093","resources/trios/L1T1A1.jpg","38","restless",0.3,0.6,0.4,0.232277675816013,"true"
"image-keyboard-response",465,339823,"0.0-3.151-1.151","msr0phb6eze5pq8",951,"4.csv","","null","resources/maskTrios/BT1B.jpg","null","",NA,NA,NA,NA,""
"image-keyboard-response",466,341025,"0.0-3.151-2.151","msr0phb6eze5pq8",951,"4.csv","","null","resources/images/coin2.png","null","",NA,NA,NA,NA,""
"image-keyboard-response",467,341326,"0.0-3.152-0.152","msr0phb6eze5pq8",951,"4.csv","","299.5","resources/trios/L2T4A1.jpg","37","restless",0.3,0.6,0.4,0.558542611159653,"false"
"image-keyboard-response",468,341731,"0.0-3.152-1.152","msr0phb6eze5pq8",951,"4.csv","","null","resources/maskTrios/L2BB.jpg","null","",NA,NA,NA,NA,""
"image-keyboard-response",469,342944,"0.0-3.152-2.152","msr0phb6eze5pq8",951,"4.csv","","null","resources/images/fishbone.png","null","",NA,NA,NA,NA,""
"image-keyboard-response",470,343362,"0.0-3.153-0.153","msr0phb6eze5pq8",951,"4.csv","","416.90000000596046","resources/trios/L1T1A3.jpg","39","restless",0.3,0.6,0.4,0.612470304061697,"false"
"image-keyboard-response",471,343779,"0.0-3.153-1.153","msr0phb6eze5pq8",951,"4.csv","","null","resources/maskTrios/BBA3.jpg","null","",NA,NA,NA,NA,""
"image-keyboard-response",472,344981,"0.0-3.153-2.153","msr0phb6eze5pq8",951,"4.csv","","null","resources/images/fishbone.png","null","",NA,NA,NA,NA,""
"image-keyboard-response",473,346068,"0.0-3.154-0.154","msr0phb6eze5pq8",951,"4.csv","","1085.5999999940395","resources/trios/L1T1A1.jpg","38","restless",0.3,0.6,0.4,0.926106817929938,"false"
"image-keyboard-response",474,346480,"0.0-3.154-1.154","msr0phb6eze5pq8",951,"4.csv","","null","resources/maskTrios/BT1B.jpg","null","",NA,NA,NA,NA,""
"image-keyboard-response",475,347689,"0.0-3.154-2.154","msr0phb6eze5pq8",951,"4.csv","","null","resources/images/fishbone.png","null","",NA,NA,NA,NA,""
"image-keyboard-response",476,347981,"0.0-3.155-0.155","msr0phb6eze5pq8",951,"4.csv","","290.19999998807907","resources/trios/L1T4A3.jpg","37","restless",0.3,0.7,0.4,0.0341342582717776,"true"
"image-keyboard-response",477,348390,"0.0-3.155-1.155","msr0phb6eze5pq8",951,"4.csv","","null","resources/maskTrios/L1BB.jpg","null","",NA,NA,NA,NA,""
"image-keyboard-response",478,349601,"0.0-3.155-2.155","msr0phb6eze5pq8",951,"4.csv","","null","resources/images/coin2.png","null","",NA,NA,NA,NA,""
"image-keyboard-response",479,350507,"0.0-3.156-0.156","msr0phb6eze5pq8",951,"4.csv","","903.9000000059605","resources/trios/L2T1A1.jpg","38","restless",0.3,0.6,0.4,0.316140735918419,"true"
"image-keyboard-response",480,350911,"0.0-3.156-1.156","msr0phb6eze5pq8",951,"4.csv","","null","resources/maskTrios/BT1B.jpg","null","",NA,NA,NA,NA,""
"image-keyboard-response",481,352115,"0.0-3.156-2.156","msr0phb6eze5pq8",951,"4.csv","","null","resources/images/coin2.png","null","",NA,NA,NA,NA,""
"image-keyboard-response",482,353039,"0.0-3.157-0.157","msr0phb6eze5pq8",951,"4.csv","","922","resources/trios/L2T4A3.jpg","39","restless",0.3,0.6,0.4,0.84319794464845,"false"
"image-keyboard-response",483,353453,"0.0-3.157-1.157","msr0phb6eze5pq8",951,"4.csv","","null","resources/maskTrios/BBA3.jpg","null","",NA,NA,NA,NA,""
"image-keyboard-response",484,354664,"0.0-3.157-2.157","msr0phb6eze5pq8",951,"4.csv","","null","resources/images/fishbone.png","null","",NA,NA,NA,NA,""
"image-keyboard-response",485,355192,"0.0-3.158-0.158","msr0phb6eze5pq8",951,"4.csv","","526.4000000059605","resources/trios/L1T1A1.jpg","39","restless",0.3,0.6,0.4,0.433937522908288,"false"
"image-keyboard-response",486,355604,"0.0-3.158-1.158","msr0phb6eze5pq8",951,"4.csv","","null","resources/maskTrios/BBA1.jpg","null","",NA,NA,NA,NA,""
"image-keyboard-response",487,356813,"0.0-3.158-2.158","msr0phb6eze5pq8",951,"4.csv","","null","resources/images/fishbone.png","null","",NA,NA,NA,NA,""
"image-keyboard-response",488,357212,"0.0-3.159-0.159","msr0phb6eze5pq8",951,"4.csv","","397.2000000178814","resources/trios/L2T4A3.jpg","38","restless",0.4,0.6,0.4,0.60431736639838,"false"
"image-keyboard-response",489,357619,"0.0-3.159-1.159","msr0phb6eze5pq8",951,"4.csv","","null","resources/maskTrios/BT4B.jpg","null","",NA,NA,NA,NA,""
"image-keyboard-response",490,358821,"0.0-3.159-2.159","msr0phb6eze5pq8",951,"4.csv","","null","resources/images/fishbone.png","null","",NA,NA,NA,NA,""
"image-keyboard-response",491,359165,"0.0-3.160-0.160","msr0phb6eze5pq8",951,"4.csv","","342.40000000596046","resources/trios/L1T4A3.jpg","37","restless",0.4,0.6,0.4,0.665081876341593,"false"
"image-keyboard-response",492,359574,"0.0-3.160-1.160","msr0phb6eze5pq8",951,"4.csv","","null","resources/maskTrios/L1BB.jpg","null","",NA,NA,NA,NA,""
"image-keyboard-response",493,360777,"0.0-3.160-2.160","msr0phb6eze5pq8",951,"4.csv","","null","resources/images/fishbone.png","null","",NA,NA,NA,NA,""
"image-keyboard-response",494,361059,"0.0-3.161-0.161","msr0phb6eze5pq8",951,"4.csv","","280.30000001192093","resources/trios/L2T4A1.jpg","39","restless",0.4,0.6,0.4,0.405125313455047,"false"
"image-keyboard-response",495,361463,"0.0-3.161-1.161","msr0phb6eze5pq8",951,"4.csv","","null","resources/maskTrios/BBA1.jpg","null","",NA,NA,NA,NA,""
"image-keyboard-response",496,362675,"0.0-3.161-2.161","msr0phb6eze5pq8",951,"4.csv","","null","resources/images/fishbone.png","null","",NA,NA,NA,NA,""
"image-keyboard-response",497,362963,"0.0-3.162-0.162","msr0phb6eze5pq8",951,"4.csv","","287.2000000178814","resources/trios/L2T1A1.jpg","39","restless",0.4,0.6,0.4,0.613875150733136,"false"
"image-keyboard-response",498,363368,"0.0-3.162-1.162","msr0phb6eze5pq8",951,"4.csv","","null","resources/maskTrios/BBA1.jpg","null","",NA,NA,NA,NA,""
"image-keyboard-response",499,364572,"0.0-3.162-2.162","msr0phb6eze5pq8",951,"4.csv","","null","resources/images/fishbone.png","null","",NA,NA,NA,NA,""
"image-keyboard-response",500,364869,"0.0-3.163-0.163","msr0phb6eze5pq8",951,"4.csv","","295.5","resources/trios/L2T1A3.jpg","39","restless",0.4,0.6,0.4,0.471756476503705,"false"
"image-keyboard-response",501,365277,"0.0-3.163-1.163","msr0phb6eze5pq8",951,"4.csv","","null","resources/maskTrios/BBA3.jpg","null","",NA,NA,NA,NA,""
"image-keyboard-response",502,366492,"0.0-3.163-2.163","msr0phb6eze5pq8",951,"4.csv","","null","resources/images/fishbone.png","null","",NA,NA,NA,NA,""
"image-keyboard-response",503,366717,"0.0-3.164-0.164","msr0phb6eze5pq8",951,"4.csv","","223.09999999403954","resources/trios/L1T4A3.jpg","39","restless",0.4,0.6,0.4,0.166241923167867,"true"
"image-keyboard-response",504,367131,"0.0-3.164-1.164","msr0phb6eze5pq8",951,"4.csv","","null","resources/maskTrios/BBA3.jpg","null","",NA,NA,NA,NA,""
"image-keyboard-response",505,368333,"0.0-3.164-2.164","msr0phb6eze5pq8",951,"4.csv","","null","resources/images/coin2.png","null","",NA,NA,NA,NA,""
"image-keyboard-response",506,368386,"0.0-3.165-0.165","msr0phb6eze5pq8",951,"4.csv","","51.400000005960464","resources/trios/L2T4A1.jpg","39","restless",0.4,0.6,0.4,0.0315498738944178,"true"
"image-keyboard-response",507,368803,"0.0-3.165-1.165","msr0phb6eze5pq8",951,"4.csv","","null","resources/maskTrios/BBA1.jpg","null","",NA,NA,NA,NA,""
"image-keyboard-response",508,370005,"0.0-3.165-2.165","msr0phb6eze5pq8",951,"4.csv","","null","resources/images/coin2.png","null","",NA,NA,NA,NA,""
"image-keyboard-response",509,370274,"0.0-3.166-0.166","msr0phb6eze5pq8",951,"4.csv","","268.19999998807907","resources/trios/L2T1A3.jpg","37","restless",0.3,0.6,0.4,0.351777497869932,"false"
"image-keyboard-response",510,370681,"0.0-3.166-1.166","msr0phb6eze5pq8",951,"4.csv","","null","resources/maskTrios/L2BB.jpg","null","",NA,NA,NA,NA,""
"image-keyboard-response",511,371887,"0.0-3.166-2.166","msr0phb6eze5pq8",951,"4.csv","","null","resources/images/fishbone.png","null","",NA,NA,NA,NA,""
"image-keyboard-response",512,372176,"0.0-3.167-0.167","msr0phb6eze5pq8",951,"4.csv","","287","resources/trios/L1T1A1.jpg","38","restless",0.3,0.6,0.4,0.734766435197483,"false"
"image-keyboard-response",513,372582,"0.0-3.167-1.167","msr0phb6eze5pq8",951,"4.csv","","null","resources/maskTrios/BT1B.jpg","null","",NA,NA,NA,NA,""
"image-keyboard-response",514,373788,"0.0-3.167-2.167","msr0phb6eze5pq8",951,"4.csv","","null","resources/images/fishbone.png","null","",NA,NA,NA,NA,""
"image-keyboard-response",515,373863,"0.0-3.168-0.168","msr0phb6eze5pq8",951,"4.csv","","73","resources/trios/L2T1A3.jpg","38","restless",0.3,0.6,0.4,0.953768684201866,"false"
"image-keyboard-response",516,374277,"0.0-3.168-1.168","msr0phb6eze5pq8",951,"4.csv","","null","resources/maskTrios/BT1B.jpg","null","",NA,NA,NA,NA,""
"image-keyboard-response",517,375493,"0.0-3.168-2.168","msr0phb6eze5pq8",951,"4.csv","","null","resources/images/fishbone.png","null","",NA,NA,NA,NA,""
"image-keyboard-response",518,375686,"0.0-3.169-0.169","msr0phb6eze5pq8",951,"4.csv","","191.59999999403954","resources/trios/L2T1A3.jpg","39","restless",0.3,0.6,0.4,0.206619749505663,"true"
"image-keyboard-response",519,376091,"0.0-3.169-1.169","msr0phb6eze5pq8",951,"4.csv","","null","resources/maskTrios/BBA3.jpg","null","",NA,NA,NA,NA,""
"image-keyboard-response",520,377294,"0.0-3.169-2.169","msr0phb6eze5pq8",951,"4.csv","","null","resources/images/coin2.png","null","",NA,NA,NA,NA,""
"image-keyboard-response",521,377704,"0.0-3.170-0.170","msr0phb6eze5pq8",951,"4.csv","","408.2999999821186","resources/trios/L1T4A1.jpg","39","restless",0.3,0.6,0.4,0.772776349327076,"false"
"image-keyboard-response",522,378112,"0.0-3.170-1.170","msr0phb6eze5pq8",951,"4.csv","","null","resources/maskTrios/BBA1.jpg","null","",NA,NA,NA,NA,""
"image-keyboard-response",523,379315,"0.0-3.170-2.170","msr0phb6eze5pq8",951,"4.csv","","null","resources/images/fishbone.png","null","",NA,NA,NA,NA,""
"image-keyboard-response",524,379558,"0.0-3.171-0.171","msr0phb6eze5pq8",951,"4.csv","","240.90000000596046","resources/trios/L2T1A3.jpg","37","restless",0.3,0.6,0.4,0.741901357975302,"false"
"image-keyboard-response",525,379975,"0.0-3.171-1.171","msr0phb6eze5pq8",951,"4.csv","","null","resources/maskTrios/L2BB.jpg","null","",NA,NA,NA,NA,""
"image-keyboard-response",526,381184,"0.0-3.171-2.171","msr0phb6eze5pq8",951,"4.csv","","null","resources/images/fishbone.png","null","",NA,NA,NA,NA,""
"image-keyboard-response",527,381416,"0.0-3.172-0.172","msr0phb6eze5pq8",951,"4.csv","","230.09999999403954","resources/trios/L1T4A1.jpg","38","restless",0.3,0.6,0.4,0.814581554010619,"false"
"image-keyboard-response",528,381829,"0.0-3.172-1.172","msr0phb6eze5pq8",951,"4.csv","","null","resources/maskTrios/BT4B.jpg","null","",NA,NA,NA,NA,""
"image-keyboard-response",529,383039,"0.0-3.172-2.172","msr0phb6eze5pq8",951,"4.csv","","null","resources/images/fishbone.png","null","",NA,NA,NA,NA,""
"image-keyboard-response",530,383366,"0.0-3.173-0.173","msr0phb6eze5pq8",951,"4.csv","","325.40000000596046","resources/trios/L1T1A3.jpg","39","restless",0.3,0.6,0.4,0.552205693448698,"false"
"image-keyboard-response",531,383778,"0.0-3.173-1.173","msr0phb6eze5pq8",951,"4.csv","","null","resources/maskTrios/BBA3.jpg","null","",NA,NA,NA,NA,""
"image-keyboard-response",532,384993,"0.0-3.173-2.173","msr0phb6eze5pq8",951,"4.csv","","null","resources/images/fishbone.png","null","",NA,NA,NA,NA,""
"image-keyboard-response",533,385249,"0.0-3.174-0.174","msr0phb6eze5pq8",951,"4.csv","","254.2999999821186","resources/trios/L1T1A3.jpg","38","restless",0.3,0.6,0.4,0.0588683829560341,"true"
"image-keyboard-response",534,385653,"0.0-3.174-1.174","msr0phb6eze5pq8",951,"4.csv","","null","resources/maskTrios/BT1B.jpg","null","",NA,NA,NA,NA,""
"image-keyboard-response",535,386870,"0.0-3.174-2.174","msr0phb6eze5pq8",951,"4.csv","","null","resources/images/coin2.png","null","",NA,NA,NA,NA,""
"image-keyboard-response",536,387115,"0.0-3.175-0.175","msr0phb6eze5pq8",951,"4.csv","","243.60000002384186","resources/trios/L2T4A1.jpg","38","restless",0.3,0.6,0.4,0.431724282005197,"true"
"image-keyboard-response",537,387530,"0.0-3.175-1.175","msr0phb6eze5pq8",951,"4.csv","","null","resources/maskTrios/BT4B.jpg","null","",NA,NA,NA,NA,""
"image-keyboard-response",538,388745,"0.0-3.175-2.175","msr0phb6eze5pq8",951,"4.csv","","null","resources/images/coin2.png","null","",NA,NA,NA,NA,""
"image-keyboard-response",539,388841,"0.0-3.176-0.176","msr0phb6eze5pq8",951,"4.csv","","93.7999999821186","resources/trios/L2T4A1.jpg","37","restless",0.4,0.6,0.5,0.673174193886746,"false"
"image-keyboard-response",540,389247,"0.0-3.176-1.176","msr0phb6eze5pq8",951,"4.csv","","null","resources/maskTrios/L2BB.jpg","null","",NA,NA,NA,NA,""
"image-keyboard-response",541,390459,"0.0-3.176-2.176","msr0phb6eze5pq8",951,"4.csv","","null","resources/images/fishbone.png","null","",NA,NA,NA,NA,""
"image-keyboard-response",542,390843,"0.0-3.177-0.177","msr0phb6eze5pq8",951,"4.csv","","382.2999999821186","resources/trios/L2T1A1.jpg","37","restless",0.4,0.6,0.5,0.399007107376499,"true"
"image-keyboard-response",543,391246,"0.0-3.177-1.177","msr0phb6eze5pq8",951,"4.csv","","null","resources/maskTrios/L2BB.jpg","null","",NA,NA,NA,NA,""
"image-keyboard-response",544,392461,"0.0-3.177-2.177","msr0phb6eze5pq8",951,"4.csv","","null","resources/images/coin2.png","null","",NA,NA,NA,NA,""
"image-keyboard-response",545,392622,"0.0-3.178-0.178","msr0phb6eze5pq8",951,"4.csv","","159.5","resources/trios/L1T1A3.jpg","39","restless",0.4,0.6,0.5,0.629071778947584,"false"
"image-keyboard-response",546,393029,"0.0-3.178-1.178","msr0phb6eze5pq8",951,"4.csv","","null","resources/maskTrios/BBA3.jpg","null","",NA,NA,NA,NA,""
"image-keyboard-response",547,394245,"0.0-3.178-2.178","msr0phb6eze5pq8",951,"4.csv","","null","resources/images/fishbone.png","null","",NA,NA,NA,NA,""
"image-keyboard-response",548,394557,"0.0-3.179-0.179","msr0phb6eze5pq8",951,"4.csv","","311.10000002384186","resources/trios/L1T1A3.jpg","37","restless",0.4,0.5,0.5,0.384660665236667,"true"
"image-keyboard-response",549,394967,"0.0-3.179-1.179","msr0phb6eze5pq8",951,"4.csv","","null","resources/maskTrios/L1BB.jpg","null","",NA,NA,NA,NA,""
"image-keyboard-response",550,396179,"0.0-3.179-2.179","msr0phb6eze5pq8",951,"4.csv","","null","resources/images/coin2.png","null","",NA,NA,NA,NA,""
"image-keyboard-response",551,396514,"0.0-3.180-0.180","msr0phb6eze5pq8",951,"4.csv","","333.69999998807907","resources/trios/L1T4A1.jpg","39","restless",0.4,0.5,0.5,0.853229660746208,"false"
"image-keyboard-response",552,396919,"0.0-3.180-1.180","msr0phb6eze5pq8",951,"4.csv","","null","resources/maskTrios/BBA1.jpg","null","",NA,NA,NA,NA,""
"image-keyboard-response",553,398131,"0.0-3.180-2.180","msr0phb6eze5pq8",951,"4.csv","","null","resources/images/fishbone.png","null","",NA,NA,NA,NA,""
"image-keyboard-response",554,398368,"0.0-3.181-0.181","msr0phb6eze5pq8",951,"4.csv","","235.19999998807907","resources/trios/L2T1A1.jpg","37","restless",0.4,0.5,0.5,0.00734796256819181,"true"
"image-keyboard-response",555,398773,"0.0-3.181-1.181","msr0phb6eze5pq8",951,"4.csv","","null","resources/maskTrios/L2BB.jpg","null","",NA,NA,NA,NA,""
"image-keyboard-response",556,399978,"0.0-3.181-2.181","msr0phb6eze5pq8",951,"4.csv","","null","resources/images/coin2.png","null","",NA,NA,NA,NA,""
"image-keyboard-response",557,400345,"0.0-3.182-0.182","msr0phb6eze5pq8",951,"4.csv","","365.69999998807907","resources/trios/L1T4A3.jpg","38","restless",0.4,0.6,0.5,0.319529100970003,"true"
"image-keyboard-response",558,400754,"0.0-3.182-1.182","msr0phb6eze5pq8",951,"4.csv","","null","resources/maskTrios/BT4B.jpg","null","",NA,NA,NA,NA,""
"image-keyboard-response",559,401967,"0.0-3.182-2.182","msr0phb6eze5pq8",951,"4.csv","","null","resources/images/coin2.png","null","",NA,NA,NA,NA,""
"image-keyboard-response",560,402194,"0.0-3.183-0.183","msr0phb6eze5pq8",951,"4.csv","","225","resources/trios/L2T1A1.jpg","37","restless",0.4,0.6,0.5,0.169995021693379,"true"
"image-keyboard-response",561,402610,"0.0-3.183-1.183","msr0phb6eze5pq8",951,"4.csv","","null","resources/maskTrios/L2BB.jpg","null","",NA,NA,NA,NA,""
"image-keyboard-response",562,403813,"0.0-3.183-2.183","msr0phb6eze5pq8",951,"4.csv","","null","resources/images/coin2.png","null","",NA,NA,NA,NA,""
"image-keyboard-response",563,404058,"0.0-3.184-0.184","msr0phb6eze5pq8",951,"4.csv","","243.40000000596046","resources/trios/L2T4A3.jpg","39","restless",0.4,0.6,0.5,0.451937421796603,"true"
"image-keyboard-response",564,404470,"0.0-3.184-1.184","msr0phb6eze5pq8",951,"4.csv","","null","resources/maskTrios/BBA3.jpg","null","",NA,NA,NA,NA,""
"image-keyboard-response",565,405686,"0.0-3.184-2.184","msr0phb6eze5pq8",951,"4.csv","","null","resources/images/coin2.png","null","",NA,NA,NA,NA,""
"image-keyboard-response",566,405943,"0.0-3.185-0.185","msr0phb6eze5pq8",951,"4.csv","","256.10000002384186","resources/trios/L2T1A3.jpg","37","restless",0.4,0.6,0.5,0.694832334689462,"false"
"image-keyboard-response",567,406358,"0.0-3.185-1.185","msr0phb6eze5pq8",951,"4.csv","","null","resources/maskTrios/L2BB.jpg","null","",NA,NA,NA,NA,""
"image-keyboard-response",568,407561,"0.0-3.185-2.185","msr0phb6eze5pq8",951,"4.csv","","null","resources/images/fishbone.png","null","",NA,NA,NA,NA,""
"image-keyboard-response",569,407845,"0.0-3.186-0.186","msr0phb6eze5pq8",951,"4.csv","","282.7000000178814","resources/trios/L2T4A1.jpg","38","restless",0.4,0.7,0.4,0.636817662970483,"true"
"image-keyboard-response",570,408255,"0.0-3.186-1.186","msr0phb6eze5pq8",951,"4.csv","","null","resources/maskTrios/BT4B.jpg","null","",NA,NA,NA,NA,""
"image-keyboard-response",571,409457,"0.0-3.186-2.186","msr0phb6eze5pq8",951,"4.csv","","null","resources/images/coin2.png","null","",NA,NA,NA,NA,""
"image-keyboard-response",572,409805,"0.0-3.187-0.187","msr0phb6eze5pq8",951,"4.csv","","346.2999999821186","resources/trios/L2T4A3.jpg","37","restless",0.5,0.7,0.4,0.753683923251995,"false"
"image-keyboard-response",573,410213,"0.0-3.187-1.187","msr0phb6eze5pq8",951,"4.csv","","null","resources/maskTrios/L2BB.jpg","null","",NA,NA,NA,NA,""
"image-keyboard-response",574,411416,"0.0-3.187-2.187","msr0phb6eze5pq8",951,"4.csv","","null","resources/images/fishbone.png","null","",NA,NA,NA,NA,""
"image-keyboard-response",575,411675,"0.0-3.188-0.188","msr0phb6eze5pq8",951,"4.csv","","256.30000001192093","resources/trios/L2T4A1.jpg","38","restless",0.5,0.7,0.4,0.909654328894298,"false"
"image-keyboard-response",576,412092,"0.0-3.188-1.188","msr0phb6eze5pq8",951,"4.csv","","null","resources/maskTrios/BT4B.jpg","null","",NA,NA,NA,NA,""
"image-keyboard-response",577,413308,"0.0-3.188-2.188","msr0phb6eze5pq8",951,"4.csv","","null","resources/images/fishbone.png","null","",NA,NA,NA,NA,""
"image-keyboard-response",578,413406,"0.0-3.189-0.189","msr0phb6eze5pq8",951,"4.csv","","96.5","resources/trios/L2T1A1.jpg","38","restless",0.5,0.7,0.4,0.940257898190761,"false"
"image-keyboard-response",579,413823,"0.0-3.189-1.189","msr0phb6eze5pq8",951,"4.csv","","null","resources/maskTrios/BT1B.jpg","null","",NA,NA,NA,NA,""
"image-keyboard-response",580,415035,"0.0-3.189-2.189","msr0phb6eze5pq8",951,"4.csv","","null","resources/images/fishbone.png","null","",NA,NA,NA,NA,""
"image-keyboard-response",581,415232,"0.0-3.190-0.190","msr0phb6eze5pq8",951,"4.csv","","195","resources/trios/L2T4A1.jpg","38","restless",0.5,0.8,0.4,0.284474497938352,"true"
"image-keyboard-response",582,415649,"0.0-3.190-1.190","msr0phb6eze5pq8",951,"4.csv","","null","resources/maskTrios/BT4B.jpg","null","",NA,NA,NA,NA,""
"image-keyboard-response",583,416851,"0.0-3.190-2.190","msr0phb6eze5pq8",951,"4.csv","","null","resources/images/coin2.png","null","",NA,NA,NA,NA,""
"image-keyboard-response",584,417123,"0.0-3.191-0.191","msr0phb6eze5pq8",951,"4.csv","","269.89999997615814","resources/trios/L1T1A3.jpg","39","restless",0.5,0.8,0.4,0.280053174306488,"true"
"image-keyboard-response",585,417539,"0.0-3.191-1.191","msr0phb6eze5pq8",951,"4.csv","","null","resources/maskTrios/BBA3.jpg","null","",NA,NA,NA,NA,""
"image-keyboard-response",586,418752,"0.0-3.191-2.191","msr0phb6eze5pq8",951,"4.csv","","null","resources/images/coin2.png","null","",NA,NA,NA,NA,""
"image-keyboard-response",587,418862,"0.0-3.192-0.192","msr0phb6eze5pq8",951,"4.csv","","108.09999999403954","resources/trios/L1T1A3.jpg","37","restless",0.5,0.8,0.4,0.32938806586806,"true"
"image-keyboard-response",588,419271,"0.0-3.192-1.192","msr0phb6eze5pq8",951,"4.csv","","null","resources/maskTrios/L1BB.jpg","null","",NA,NA,NA,NA,""
"image-keyboard-response",589,420474,"0.0-3.192-2.192","msr0phb6eze5pq8",951,"4.csv","","null","resources/images/coin2.png","null","",NA,NA,NA,NA,""
"image-keyboard-response",590,420699,"0.0-3.193-0.193","msr0phb6eze5pq8",951,"4.csv","","223.2000000178814","resources/trios/L2T1A1.jpg","38","restless",0.5,0.8,0.4,0.69680811016273,"true"
"image-keyboard-response",591,421104,"0.0-3.193-1.193","msr0phb6eze5pq8",951,"4.csv","","null","resources/maskTrios/BT1B.jpg","null","",NA,NA,NA,NA,""
"image-keyboard-response",592,422322,"0.0-3.193-2.193","msr0phb6eze5pq8",951,"4.csv","","null","resources/images/coin2.png","null","",NA,NA,NA,NA,""
"image-keyboard-response",593,422598,"0.0-3.194-0.194","msr0phb6eze5pq8",951,"4.csv","","274.90000000596046","resources/trios/L2T1A1.jpg","39","restless",0.5,0.8,0.4,0.567055924727744,"false"
"image-keyboard-response",594,423011,"0.0-3.194-1.194","msr0phb6eze5pq8",951,"4.csv","","null","resources/maskTrios/BBA1.jpg","null","",NA,NA,NA,NA,""
"image-keyboard-response",595,424222,"0.0-3.194-2.194","msr0phb6eze5pq8",951,"4.csv","","null","resources/images/fishbone.png","null","",NA,NA,NA,NA,""
"image-keyboard-response",596,424620,"0.0-3.195-0.195","msr0phb6eze5pq8",951,"4.csv","","396.40000000596046","resources/trios/L1T4A3.jpg","39","restless",0.5,0.8,0.4,0.125364264420057,"true"
"image-keyboard-response",597,425025,"0.0-3.195-1.195","msr0phb6eze5pq8",951,"4.csv","","null","resources/maskTrios/BBA3.jpg","null","",NA,NA,NA,NA,""
"image-keyboard-response",598,426239,"0.0-3.195-2.195","msr0phb6eze5pq8",951,"4.csv","","null","resources/images/coin2.png","null","",NA,NA,NA,NA,""
"image-keyboard-response",599,426421,"0.0-3.196-0.196","msr0phb6eze5pq8",951,"4.csv","","180.7000000178814","resources/trios/L2T4A3.jpg","37","restless",0.6,0.8,0.4,0.78742486134832,"false"
"image-keyboard-response",600,426834,"0.0-3.196-1.196","msr0phb6eze5pq8",951,"4.csv","","null","resources/maskTrios/L2BB.jpg","null","",NA,NA,NA,NA,""
"image-keyboard-response",601,428050,"0.0-3.196-2.196","msr0phb6eze5pq8",951,"4.csv","","null","resources/images/fishbone.png","null","",NA,NA,NA,NA,""
"image-keyboard-response",602,428081,"0.0-3.197-0.197","msr0phb6eze5pq8",951,"4.csv","","29.400000005960464","resources/trios/L1T4A3.jpg","37","restless",0.6,0.7,0.4,0.710151485855888,"false"
"image-keyboard-response",603,428492,"0.0-3.197-1.197","msr0phb6eze5pq8",951,"4.csv","","null","resources/maskTrios/L1BB.jpg","null","",NA,NA,NA,NA,""
"image-keyboard-response",604,429696,"0.0-3.197-2.197","msr0phb6eze5pq8",951,"4.csv","","null","resources/images/fishbone.png","null","",NA,NA,NA,NA,""
"image-keyboard-response",605,429884,"0.0-3.198-0.198","msr0phb6eze5pq8",951,"4.csv","","187.39999997615814","resources/trios/L2T1A3.jpg","38","restless",0.7,0.7,0.4,0.701235264594561,"false"
"image-keyboard-response",606,430296,"0.0-3.198-1.198","msr0phb6eze5pq8",951,"4.csv","","null","resources/maskTrios/BT1B.jpg","null","",NA,NA,NA,NA,""
"image-keyboard-response",607,431501,"0.0-3.198-2.198","msr0phb6eze5pq8",951,"4.csv","","null","resources/images/fishbone.png","null","",NA,NA,NA,NA,""
"image-keyboard-response",608,431630,"0.0-3.199-0.199","msr0phb6eze5pq8",951,"4.csv","","126.69999998807907","resources/trios/L2T4A3.jpg","39","restless",0.7,0.7,0.5,0.418245834633823,"true"
"image-keyboard-response",609,432035,"0.0-3.199-1.199","msr0phb6eze5pq8",951,"4.csv","","null","resources/maskTrios/BBA3.jpg","null","",NA,NA,NA,NA,""
"image-keyboard-response",610,433252,"0.0-3.199-2.199","msr0phb6eze5pq8",951,"4.csv","","null","resources/images/coin2.png","null","",NA,NA,NA,NA,""
"image-keyboard-response",611,433549,"0.0-3.200-0.200","msr0phb6eze5pq8",951,"4.csv","","294.90000000596046","resources/trios/L1T1A1.jpg","39","restless",0.7,0.7,0.5,0.27033260944835,"true"
"image-keyboard-response",612,433962,"0.0-3.200-1.200","msr0phb6eze5pq8",951,"4.csv","","null","resources/maskTrios/BBA1.jpg","null","",NA,NA,NA,NA,""
"image-keyboard-response",613,435164,"0.0-3.200-2.200","msr0phb6eze5pq8",951,"4.csv","","null","resources/images/coin2.png","null","",NA,NA,NA,NA,""
