"trial_type","trial_index","time_elapsed","internal_node_id","subject","participantCode","walkNumber","success","rt","stimulus","key_press","test_part","leftProb","midProb","rightProb","generatedNum","correct"
"pavlovia",0,1224,"0.0-0.0","p0xejw149v297zp",702,"21.csv","","","","","",NA,NA,NA,NA,""
"fullscreen",1,26760,"0.0-1.0","p0xejw149v297zp",702,"21.csv","true","","","","",NA,NA,NA,NA,""
"html-keyboard-response",2,43921,"0.0-2.0-0.0","p0xejw149v297zp",702,"21.csv","","17159.39999961853","<p><font size='6'>Arrrgh!</p></font><p>Can you be the best pirate? Try to find lots of gold! But beware, some islands have more gold than others, and over time, the island with the most gold may change. Can YOU figure it out? </p><font size='6'>GOOD LUCK, CAPTAIN!!!</font><p>Press any key to begin</p>","32","",NA,NA,NA,NA,""
"image-keyboard-response",3,46924,"0.0-2.0-1.0","p0xejw149v297zp",702,"21.csv","","null","resources/image_sets/111.png","null","",NA,NA,NA,NA,""
"image-keyboard-response",4,58528,"0.0-2.0-2.0","p0xejw149v297zp",702,"21.csv","","11602.400000095367","resources/image_sets/left_highlight.png","37","",NA,NA,NA,NA,""
"image-keyboard-response",5,61999,"0.0-2.0-3.0","p0xejw149v297zp",702,"21.csv","","3468.9000000953674","resources/image_sets/mid_highlight.png","38","",NA,NA,NA,NA,""
"image-keyboard-response",6,65776,"0.0-2.0-4.0","p0xejw149v297zp",702,"21.csv","","3775","resources/image_sets/right_highlight.png","39","",NA,NA,NA,NA,""
"image-keyboard-response",7,69020,"0.0-2.0-5.0","p0xejw149v297zp",702,"21.csv","","3242.3999996185303","resources/image_sets/111.png","13","",NA,NA,NA,NA,""
"image-keyboard-response",8,72777,"0.0-2.0-6.0","p0xejw149v297zp",702,"21.csv","","3755.800000190735","resources/images/coin2.png","13","",NA,NA,NA,NA,""
"image-keyboard-response",9,74897,"0.0-2.0-7.0","p0xejw149v297zp",702,"21.csv","","2118.5","resources/images/fishbone.png","13","",NA,NA,NA,NA,""
"html-keyboard-response",10,80235,"0.0-2.0-8.0","p0xejw149v297zp",702,"21.csv","","5336.60000038147","<p>Your first journey will be a long one, but you will get a well deserved break at the end</p><p>After the break you will have four more journeys, but each will be much shorter than the first, and you will have breaks in between each</p><p>Press Enter to begin</p>","13","",NA,NA,NA,NA,""
"image-keyboard-response",11,83518,"0.0-3.0-0.0","p0xejw149v297zp",702,"21.csv","","3280.5","resources/trios/L4T1A3.jpg","39","restless",0.7,0.3,0.9,0.845088009221389,"true"
"image-keyboard-response",12,83922,"0.0-3.0-1.0","p0xejw149v297zp",702,"21.csv","","null","resources/maskTrios/BBA3.jpg","null","",NA,NA,NA,NA,""
"image-keyboard-response",13,85126,"0.0-3.0-2.0","p0xejw149v297zp",702,"21.csv","","null","resources/images/coin2.png","null","",NA,NA,NA,NA,""
"image-keyboard-response",14,87131,"0.0-3.1-0.1","p0xejw149v297zp",702,"21.csv","","2001.9000000953674","resources/trios/L4T2A2.jpg","38","restless",0.7,0.3,0.9,0.45306718834625,"false"
"image-keyboard-response",15,87536,"0.0-3.1-1.1","p0xejw149v297zp",702,"21.csv","","null","resources/maskTrios/BT2B.jpg","null","",NA,NA,NA,NA,""
"image-keyboard-response",16,88738,"0.0-3.1-2.1","p0xejw149v297zp",702,"21.csv","","null","resources/images/fishbone.png","null","",NA,NA,NA,NA,""
"image-keyboard-response",17,91548,"0.0-3.2-0.2","p0xejw149v297zp",702,"21.csv","","2807.800000190735","resources/trios/L1T2A2.jpg","37","restless",0.7,0.3,0.9,0.824193187653329,"false"
"image-keyboard-response",18,91953,"0.0-3.2-1.2","p0xejw149v297zp",702,"21.csv","","null","resources/maskTrios/L1BB.jpg","null","",NA,NA,NA,NA,""
"image-keyboard-response",19,93155,"0.0-3.2-2.2","p0xejw149v297zp",702,"21.csv","","null","resources/images/fishbone.png","null","",NA,NA,NA,NA,""
"image-keyboard-response",20,95041,"0.0-3.3-0.3","p0xejw149v297zp",702,"21.csv","","1884","resources/trios/L4T2A2.jpg","39","restless",0.7,0.3,0.9,0.878837289550152,"true"
"image-keyboard-response",21,95445,"0.0-3.3-1.3","p0xejw149v297zp",702,"21.csv","","null","resources/maskTrios/BBA2.jpg","null","",NA,NA,NA,NA,""
"image-keyboard-response",22,96649,"0.0-3.3-2.3","p0xejw149v297zp",702,"21.csv","","null","resources/images/coin2.png","null","",NA,NA,NA,NA,""
"image-keyboard-response",23,97260,"0.0-3.4-0.4","p0xejw149v297zp",702,"21.csv","","608.6000003814697","resources/trios/L1T1A3.jpg","39","restless",0.7,0.3,0.9,0.296814316893866,"true"
"image-keyboard-response",24,97664,"0.0-3.4-1.4","p0xejw149v297zp",702,"21.csv","","null","resources/maskTrios/BBA3.jpg","null","",NA,NA,NA,NA,""
"image-keyboard-response",25,98869,"0.0-3.4-2.4","p0xejw149v297zp",702,"21.csv","","null","resources/images/coin2.png","null","",NA,NA,NA,NA,""
"image-keyboard-response",26,99512,"0.0-3.5-0.5","p0xejw149v297zp",702,"21.csv","","641","resources/trios/L4T2A2.jpg","39","restless",0.7,0.3,0.8,0.0753952141801206,"true"
"image-keyboard-response",27,99917,"0.0-3.5-1.5","p0xejw149v297zp",702,"21.csv","","null","resources/maskTrios/BBA2.jpg","null","",NA,NA,NA,NA,""
"image-keyboard-response",28,101119,"0.0-3.5-2.5","p0xejw149v297zp",702,"21.csv","","null","resources/images/coin2.png","null","",NA,NA,NA,NA,""
"image-keyboard-response",29,102637,"0.0-3.6-0.6","p0xejw149v297zp",702,"21.csv","","1516.0999999046326","resources/trios/L4T2A2.jpg","38","restless",0.7,0.3,0.8,0.402551866965071,"false"
"image-keyboard-response",30,103038,"0.0-3.6-1.6","p0xejw149v297zp",702,"21.csv","","null","resources/maskTrios/BT2B.jpg","null","",NA,NA,NA,NA,""
"image-keyboard-response",31,104240,"0.0-3.6-2.6","p0xejw149v297zp",702,"21.csv","","null","resources/images/fishbone.png","null","",NA,NA,NA,NA,""
"image-keyboard-response",32,104628,"0.0-3.7-0.7","p0xejw149v297zp",702,"21.csv","","385.80000019073486","resources/trios/L4T1A3.jpg","39","restless",0.7,0.3,0.8,0.963303001191519,"false"
"image-keyboard-response",33,105033,"0.0-3.7-1.7","p0xejw149v297zp",702,"21.csv","","null","resources/maskTrios/BBA3.jpg","null","",NA,NA,NA,NA,""
"image-keyboard-response",34,106236,"0.0-3.7-2.7","p0xejw149v297zp",702,"21.csv","","null","resources/images/fishbone.png","null","",NA,NA,NA,NA,""
"image-keyboard-response",35,107092,"0.0-3.8-0.8","p0xejw149v297zp",702,"21.csv","","853.5999999046326","resources/trios/L1T2A2.jpg","37","restless",0.7,0.3,0.8,0.778402690291297,"false"
"image-keyboard-response",36,107496,"0.0-3.8-1.8","p0xejw149v297zp",702,"21.csv","","null","resources/maskTrios/L1BB.jpg","null","",NA,NA,NA,NA,""
"image-keyboard-response",37,108700,"0.0-3.8-2.8","p0xejw149v297zp",702,"21.csv","","null","resources/images/fishbone.png","null","",NA,NA,NA,NA,""
"image-keyboard-response",38,109624,"0.0-3.9-0.9","p0xejw149v297zp",702,"21.csv","","922.0999999046326","resources/trios/L1T1A3.jpg","38","restless",0.7,0.3,0.8,0.518668069593161,"false"
"image-keyboard-response",39,110028,"0.0-3.9-1.9","p0xejw149v297zp",702,"21.csv","","null","resources/maskTrios/BT1B.jpg","null","",NA,NA,NA,NA,""
"image-keyboard-response",40,111231,"0.0-3.9-2.9","p0xejw149v297zp",702,"21.csv","","null","resources/images/fishbone.png","null","",NA,NA,NA,NA,""
"image-keyboard-response",41,111634,"0.0-3.10-0.10","p0xejw149v297zp",702,"21.csv","","400.40000009536743","resources/trios/L4T1A2.jpg","39","restless",0.7,0.3,0.8,0.948484129028376,"false"
"image-keyboard-response",42,112037,"0.0-3.10-1.10","p0xejw149v297zp",702,"21.csv","","null","resources/maskTrios/BBA2.jpg","null","",NA,NA,NA,NA,""
"image-keyboard-response",43,113239,"0.0-3.10-2.10","p0xejw149v297zp",702,"21.csv","","null","resources/images/fishbone.png","null","",NA,NA,NA,NA,""
"image-keyboard-response",44,113637,"0.0-3.11-0.11","p0xejw149v297zp",702,"21.csv","","396","resources/trios/L1T1A3.jpg","39","restless",0.7,0.3,0.7,0.61756887756391,"true"
"image-keyboard-response",45,114040,"0.0-3.11-1.11","p0xejw149v297zp",702,"21.csv","","null","resources/maskTrios/BBA3.jpg","null","",NA,NA,NA,NA,""
"image-keyboard-response",46,115243,"0.0-3.11-2.11","p0xejw149v297zp",702,"21.csv","","null","resources/images/coin2.png","null","",NA,NA,NA,NA,""
"image-keyboard-response",47,116112,"0.0-3.12-0.12","p0xejw149v297zp",702,"21.csv","","866.7999997138977","resources/trios/L1T2A3.jpg","39","restless",0.7,0.3,0.6,0.576728823900506,"true"
"image-keyboard-response",48,116517,"0.0-3.12-1.12","p0xejw149v297zp",702,"21.csv","","null","resources/maskTrios/BBA3.jpg","null","",NA,NA,NA,NA,""
"image-keyboard-response",49,117720,"0.0-3.12-2.12","p0xejw149v297zp",702,"21.csv","","null","resources/images/coin2.png","null","",NA,NA,NA,NA,""
"image-keyboard-response",50,118139,"0.0-3.13-0.13","p0xejw149v297zp",702,"21.csv","","416.1000003814697","resources/trios/L4T2A3.jpg","39","restless",0.7,0.3,0.6,0.40489439842573,"true"
"image-keyboard-response",51,118546,"0.0-3.13-1.13","p0xejw149v297zp",702,"21.csv","","null","resources/maskTrios/BBA3.jpg","null","",NA,NA,NA,NA,""
"image-keyboard-response",52,119750,"0.0-3.13-2.13","p0xejw149v297zp",702,"21.csv","","null","resources/images/coin2.png","null","",NA,NA,NA,NA,""
"image-keyboard-response",53,120317,"0.0-3.14-0.14","p0xejw149v297zp",702,"21.csv","","564.5999999046326","resources/trios/L1T1A3.jpg","39","restless",0.7,0.3,0.6,0.0866821018983399,"true"
"image-keyboard-response",54,120720,"0.0-3.14-1.14","p0xejw149v297zp",702,"21.csv","","null","resources/maskTrios/BBA3.jpg","null","",NA,NA,NA,NA,""
"image-keyboard-response",55,121922,"0.0-3.14-2.14","p0xejw149v297zp",702,"21.csv","","null","resources/images/coin2.png","null","",NA,NA,NA,NA,""
"image-keyboard-response",56,122804,"0.0-3.15-0.15","p0xejw149v297zp",702,"21.csv","","879.5","resources/trios/L4T2A3.jpg","39","restless",0.7,0.3,0.6,0.437176940141348,"true"
"image-keyboard-response",57,123206,"0.0-3.15-1.15","p0xejw149v297zp",702,"21.csv","","null","resources/maskTrios/BBA3.jpg","null","",NA,NA,NA,NA,""
"image-keyboard-response",58,124410,"0.0-3.15-2.15","p0xejw149v297zp",702,"21.csv","","null","resources/images/coin2.png","null","",NA,NA,NA,NA,""
"image-keyboard-response",59,124803,"0.0-3.16-0.16","p0xejw149v297zp",702,"21.csv","","390.30000019073486","resources/trios/L1T2A3.jpg","39","restless",0.7,0.3,0.5,0.532982465753429,"false"
"image-keyboard-response",60,125205,"0.0-3.16-1.16","p0xejw149v297zp",702,"21.csv","","null","resources/maskTrios/BBA3.jpg","null","",NA,NA,NA,NA,""
"image-keyboard-response",61,126407,"0.0-3.16-2.16","p0xejw149v297zp",702,"21.csv","","null","resources/images/fishbone.png","null","",NA,NA,NA,NA,""
"image-keyboard-response",62,127229,"0.0-3.17-0.17","p0xejw149v297zp",702,"21.csv","","819.9000000953674","resources/trios/L4T1A3.jpg","37","restless",0.7,0.3,0.5,0.681470024956099,"true"
"image-keyboard-response",63,127634,"0.0-3.17-1.17","p0xejw149v297zp",702,"21.csv","","null","resources/maskTrios/L4BB.jpg","null","",NA,NA,NA,NA,""
"image-keyboard-response",64,128837,"0.0-3.17-2.17","p0xejw149v297zp",702,"21.csv","","null","resources/images/coin2.png","null","",NA,NA,NA,NA,""
"image-keyboard-response",65,129418,"0.0-3.18-0.18","p0xejw149v297zp",702,"21.csv","","579.9000000953674","resources/trios/L4T2A3.jpg","37","restless",0.7,0.3,0.5,0.469705264095307,"true"
"image-keyboard-response",66,129820,"0.0-3.18-1.18","p0xejw149v297zp",702,"21.csv","","null","resources/maskTrios/L4BB.jpg","null","",NA,NA,NA,NA,""
"image-keyboard-response",67,131023,"0.0-3.18-2.18","p0xejw149v297zp",702,"21.csv","","null","resources/images/coin2.png","null","",NA,NA,NA,NA,""
"image-keyboard-response",68,131815,"0.0-3.19-0.19","p0xejw149v297zp",702,"21.csv","","790.3000001907349","resources/trios/L1T2A3.jpg","37","restless",0.8,0.3,0.5,0.399252306243482,"true"
"image-keyboard-response",69,132219,"0.0-3.19-1.19","p0xejw149v297zp",702,"21.csv","","null","resources/maskTrios/L1BB.jpg","null","",NA,NA,NA,NA,""
"image-keyboard-response",70,133421,"0.0-3.19-2.19","p0xejw149v297zp",702,"21.csv","","null","resources/images/coin2.png","null","",NA,NA,NA,NA,""
"image-keyboard-response",71,134223,"0.0-3.20-0.20","p0xejw149v297zp",702,"21.csv","","800.5999999046326","resources/trios/L4T1A2.jpg","37","restless",0.8,0.3,0.5,0.867860931618873,"false"
"image-keyboard-response",72,134627,"0.0-3.20-1.20","p0xejw149v297zp",702,"21.csv","","null","resources/maskTrios/L4BB.jpg","null","",NA,NA,NA,NA,""
"image-keyboard-response",73,135830,"0.0-3.20-2.20","p0xejw149v297zp",702,"21.csv","","null","resources/images/fishbone.png","null","",NA,NA,NA,NA,""
"image-keyboard-response",74,136346,"0.0-3.21-0.21","p0xejw149v297zp",702,"21.csv","","513.0999999046326","resources/trios/L1T2A2.jpg","39","restless",0.8,0.3,0.5,0.354297005382851,"true"
"image-keyboard-response",75,136751,"0.0-3.21-1.21","p0xejw149v297zp",702,"21.csv","","null","resources/maskTrios/BBA2.jpg","null","",NA,NA,NA,NA,""
"image-keyboard-response",76,137954,"0.0-3.21-2.21","p0xejw149v297zp",702,"21.csv","","null","resources/images/coin2.png","null","",NA,NA,NA,NA,""
"image-keyboard-response",77,138358,"0.0-3.22-0.22","p0xejw149v297zp",702,"21.csv","","402.30000019073486","resources/trios/L4T2A2.jpg","39","restless",0.8,0.3,0.5,0.862605356967205,"false"
"image-keyboard-response",78,138762,"0.0-3.22-1.22","p0xejw149v297zp",702,"21.csv","","null","resources/maskTrios/BBA2.jpg","null","",NA,NA,NA,NA,""
"image-keyboard-response",79,139965,"0.0-3.22-2.22","p0xejw149v297zp",702,"21.csv","","null","resources/images/fishbone.png","null","",NA,NA,NA,NA,""
"image-keyboard-response",80,140342,"0.0-3.23-0.23","p0xejw149v297zp",702,"21.csv","","375.19999980926514","resources/trios/L1T2A3.jpg","38","restless",0.8,0.4,0.5,0.0489739015320299,"true"
"image-keyboard-response",81,140746,"0.0-3.23-1.23","p0xejw149v297zp",702,"21.csv","","null","resources/maskTrios/BT2B.jpg","null","",NA,NA,NA,NA,""
"image-keyboard-response",82,141950,"0.0-3.23-2.23","p0xejw149v297zp",702,"21.csv","","null","resources/images/coin2.png","null","",NA,NA,NA,NA,""
"image-keyboard-response",83,142356,"0.0-3.24-0.24","p0xejw149v297zp",702,"21.csv","","403.69999980926514","resources/trios/L4T2A2.jpg","38","restless",0.7,0.5,0.5,0.408141107596806,"true"
"image-keyboard-response",84,142759,"0.0-3.24-1.24","p0xejw149v297zp",702,"21.csv","","null","resources/maskTrios/BT2B.jpg","null","",NA,NA,NA,NA,""
"image-keyboard-response",85,143963,"0.0-3.24-2.24","p0xejw149v297zp",702,"21.csv","","null","resources/images/coin2.png","null","",NA,NA,NA,NA,""
"image-keyboard-response",86,144341,"0.0-3.25-0.25","p0xejw149v297zp",702,"21.csv","","375.7000002861023","resources/trios/L1T1A2.jpg","38","restless",0.7,0.5,0.5,0.737063363638054,"false"
"image-keyboard-response",87,144744,"0.0-3.25-1.25","p0xejw149v297zp",702,"21.csv","","null","resources/maskTrios/BT1B.jpg","null","",NA,NA,NA,NA,""
"image-keyboard-response",88,145948,"0.0-3.25-2.25","p0xejw149v297zp",702,"21.csv","","null","resources/images/fishbone.png","null","",NA,NA,NA,NA,""
"image-keyboard-response",89,146343,"0.0-3.26-0.26","p0xejw149v297zp",702,"21.csv","","392.5","resources/trios/L1T1A3.jpg","39","restless",0.7,0.5,0.5,0.817080643555258,"false"
"image-keyboard-response",90,146747,"0.0-3.26-1.26","p0xejw149v297zp",702,"21.csv","","null","resources/maskTrios/BBA3.jpg","null","",NA,NA,NA,NA,""
"image-keyboard-response",91,147952,"0.0-3.26-2.26","p0xejw149v297zp",702,"21.csv","","null","resources/images/fishbone.png","null","",NA,NA,NA,NA,""
"image-keyboard-response",92,148324,"0.0-3.27-0.27","p0xejw149v297zp",702,"21.csv","","370.5","resources/trios/L1T2A3.jpg","37","restless",0.7,0.5,0.5,0.0675066516843477,"true"
"image-keyboard-response",93,148728,"0.0-3.27-1.27","p0xejw149v297zp",702,"21.csv","","null","resources/maskTrios/L1BB.jpg","null","",NA,NA,NA,NA,""
"image-keyboard-response",94,149932,"0.0-3.27-2.27","p0xejw149v297zp",702,"21.csv","","null","resources/images/coin2.png","null","",NA,NA,NA,NA,""
"image-keyboard-response",95,150398,"0.0-3.28-0.28","p0xejw149v297zp",702,"21.csv","","464.5","resources/trios/L1T1A2.jpg","37","restless",0.7,0.5,0.5,0.506358257585399,"true"
"image-keyboard-response",96,150802,"0.0-3.28-1.28","p0xejw149v297zp",702,"21.csv","","null","resources/maskTrios/L1BB.jpg","null","",NA,NA,NA,NA,""
"image-keyboard-response",97,152003,"0.0-3.28-2.28","p0xejw149v297zp",702,"21.csv","","null","resources/images/coin2.png","null","",NA,NA,NA,NA,""
"image-keyboard-response",98,152401,"0.0-3.29-0.29","p0xejw149v297zp",702,"21.csv","","395.80000019073486","resources/trios/L4T2A3.jpg","37","restless",0.7,0.5,0.4,0.872367128547387,"false"
"image-keyboard-response",99,152804,"0.0-3.29-1.29","p0xejw149v297zp",702,"21.csv","","null","resources/maskTrios/L4BB.jpg","null","",NA,NA,NA,NA,""
"image-keyboard-response",100,154006,"0.0-3.29-2.29","p0xejw149v297zp",702,"21.csv","","null","resources/images/fishbone.png","null","",NA,NA,NA,NA,""
"image-keyboard-response",101,154895,"0.0-3.30-0.30","p0xejw149v297zp",702,"21.csv","","887.5","resources/trios/L1T2A2.jpg","39","restless",0.7,0.5,0.4,0.79934050259928,"false"
"image-keyboard-response",102,155300,"0.0-3.30-1.30","p0xejw149v297zp",702,"21.csv","","null","resources/maskTrios/BBA2.jpg","null","",NA,NA,NA,NA,""
"image-keyboard-response",103,156504,"0.0-3.30-2.30","p0xejw149v297zp",702,"21.csv","","null","resources/images/fishbone.png","null","",NA,NA,NA,NA,""
"image-keyboard-response",104,156979,"0.0-3.31-0.31","p0xejw149v297zp",702,"21.csv","","473.09999990463257","resources/trios/L4T2A2.jpg","38","restless",0.7,0.4,0.4,0.283592251951768,"true"
"image-keyboard-response",105,157384,"0.0-3.31-1.31","p0xejw149v297zp",702,"21.csv","","null","resources/maskTrios/BT2B.jpg","null","",NA,NA,NA,NA,""
"image-keyboard-response",106,158587,"0.0-3.31-2.31","p0xejw149v297zp",702,"21.csv","","null","resources/images/coin2.png","null","",NA,NA,NA,NA,""
"image-keyboard-response",107,159044,"0.0-3.32-0.32","p0xejw149v297zp",702,"21.csv","","455.19999980926514","resources/trios/L4T1A3.jpg","38","restless",0.7,0.4,0.4,0.959366261733819,"false"
"image-keyboard-response",108,159449,"0.0-3.32-1.32","p0xejw149v297zp",702,"21.csv","","null","resources/maskTrios/BT1B.jpg","null","",NA,NA,NA,NA,""
"image-keyboard-response",109,160651,"0.0-3.32-2.32","p0xejw149v297zp",702,"21.csv","","null","resources/images/fishbone.png","null","",NA,NA,NA,NA,""
"image-keyboard-response",110,161438,"0.0-3.33-0.33","p0xejw149v297zp",702,"21.csv","","784.9000000953674","resources/trios/L1T1A3.jpg","39","restless",0.7,0.4,0.4,0.863952575181796,"false"
"image-keyboard-response",111,161842,"0.0-3.33-1.33","p0xejw149v297zp",702,"21.csv","","null","resources/maskTrios/BBA3.jpg","null","",NA,NA,NA,NA,""
"image-keyboard-response",112,163044,"0.0-3.33-2.33","p0xejw149v297zp",702,"21.csv","","null","resources/images/fishbone.png","null","",NA,NA,NA,NA,""
"image-keyboard-response",113,163753,"0.0-3.34-0.34","p0xejw149v297zp",702,"21.csv","","706.4000000953674","resources/trios/L4T1A3.jpg","37","restless",0.7,0.4,0.4,0.385875271357793,"true"
"image-keyboard-response",114,164155,"0.0-3.34-1.34","p0xejw149v297zp",702,"21.csv","","null","resources/maskTrios/L4BB.jpg","null","",NA,NA,NA,NA,""
"image-keyboard-response",115,165358,"0.0-3.34-2.34","p0xejw149v297zp",702,"21.csv","","null","resources/images/coin2.png","null","",NA,NA,NA,NA,""
"image-keyboard-response",116,165737,"0.0-3.35-0.35","p0xejw149v297zp",702,"21.csv","","376.5","resources/trios/L1T2A2.jpg","37","restless",0.7,0.4,0.4,0.677905546084058,"true"
"image-keyboard-response",117,166140,"0.0-3.35-1.35","p0xejw149v297zp",702,"21.csv","","null","resources/maskTrios/L1BB.jpg","null","",NA,NA,NA,NA,""
"image-keyboard-response",118,167343,"0.0-3.35-2.35","p0xejw149v297zp",702,"21.csv","","null","resources/images/coin2.png","null","",NA,NA,NA,NA,""
"image-keyboard-response",119,167722,"0.0-3.36-0.36","p0xejw149v297zp",702,"21.csv","","376.80000019073486","resources/trios/L1T1A2.jpg","37","restless",0.7,0.5,0.4,0.305484716358454,"true"
"image-keyboard-response",120,168127,"0.0-3.36-1.36","p0xejw149v297zp",702,"21.csv","","null","resources/maskTrios/L1BB.jpg","null","",NA,NA,NA,NA,""
"image-keyboard-response",121,169331,"0.0-3.36-2.36","p0xejw149v297zp",702,"21.csv","","null","resources/images/coin2.png","null","",NA,NA,NA,NA,""
"image-keyboard-response",122,169674,"0.0-3.37-0.37","p0xejw149v297zp",702,"21.csv","","340.59999990463257","resources/trios/L1T2A3.jpg","37","restless",0.6,0.5,0.4,0.707517741647196,"false"
"image-keyboard-response",123,170078,"0.0-3.37-1.37","p0xejw149v297zp",702,"21.csv","","null","resources/maskTrios/L1BB.jpg","null","",NA,NA,NA,NA,""
"image-keyboard-response",124,171282,"0.0-3.37-2.37","p0xejw149v297zp",702,"21.csv","","null","resources/images/fishbone.png","null","",NA,NA,NA,NA,""
"image-keyboard-response",125,171425,"0.0-3.38-0.38","p0xejw149v297zp",702,"21.csv","","142.2999997138977","resources/trios/L1T2A2.jpg","39","restless",0.6,0.5,0.4,0.874123489323825,"false"
"image-keyboard-response",126,171828,"0.0-3.38-1.38","p0xejw149v297zp",702,"21.csv","","null","resources/maskTrios/BBA2.jpg","null","",NA,NA,NA,NA,""
"image-keyboard-response",127,173032,"0.0-3.38-2.38","p0xejw149v297zp",702,"21.csv","","null","resources/images/fishbone.png","null","",NA,NA,NA,NA,""
"image-keyboard-response",128,173143,"0.0-3.39-0.39","p0xejw149v297zp",702,"21.csv","","108.5","resources/trios/L4T1A3.jpg","38","restless",0.6,0.5,0.4,0.0510928642780983,"true"
"image-keyboard-response",129,173547,"0.0-3.39-1.39","p0xejw149v297zp",702,"21.csv","","null","resources/maskTrios/BT1B.jpg","null","",NA,NA,NA,NA,""
"image-keyboard-response",130,174751,"0.0-3.39-2.39","p0xejw149v297zp",702,"21.csv","","null","resources/images/coin2.png","null","",NA,NA,NA,NA,""
"image-keyboard-response",131,175068,"0.0-3.40-0.40","p0xejw149v297zp",702,"21.csv","","316.09999990463257","resources/trios/L4T2A2.jpg","38","restless",0.6,0.5,0.4,0.549189950473462,"false"
"image-keyboard-response",132,175470,"0.0-3.40-1.40","p0xejw149v297zp",702,"21.csv","","null","resources/maskTrios/BT2B.jpg","null","",NA,NA,NA,NA,""
"image-keyboard-response",133,176673,"0.0-3.40-2.40","p0xejw149v297zp",702,"21.csv","","null","resources/images/fishbone.png","null","",NA,NA,NA,NA,""
"image-keyboard-response",134,176972,"0.0-3.41-0.41","p0xejw149v297zp",702,"21.csv","","297.2000002861023","resources/trios/L4T2A2.jpg","39","restless",0.6,0.5,0.4,0.350641305685715,"true"
"image-keyboard-response",135,177375,"0.0-3.41-1.41","p0xejw149v297zp",702,"21.csv","","null","resources/maskTrios/BBA2.jpg","null","",NA,NA,NA,NA,""
"image-keyboard-response",136,178579,"0.0-3.41-2.41","p0xejw149v297zp",702,"21.csv","","null","resources/images/coin2.png","null","",NA,NA,NA,NA,""
"image-keyboard-response",137,178698,"0.0-3.42-0.42","p0xejw149v297zp",702,"21.csv","","116.7000002861023","resources/trios/L4T1A3.jpg","39","restless",0.6,0.5,0.4,0.120367242416781,"true"
"image-keyboard-response",138,179101,"0.0-3.42-1.42","p0xejw149v297zp",702,"21.csv","","null","resources/maskTrios/BBA3.jpg","null","",NA,NA,NA,NA,""
"image-keyboard-response",139,180303,"0.0-3.42-2.42","p0xejw149v297zp",702,"21.csv","","null","resources/images/coin2.png","null","",NA,NA,NA,NA,""
"image-keyboard-response",140,180634,"0.0-3.43-0.43","p0xejw149v297zp",702,"21.csv","","329","resources/trios/L1T2A3.jpg","39","restless",0.6,0.5,0.4,0.595207997024871,"false"
"image-keyboard-response",141,181036,"0.0-3.43-1.43","p0xejw149v297zp",702,"21.csv","","null","resources/maskTrios/BBA3.jpg","null","",NA,NA,NA,NA,""
"image-keyboard-response",142,182239,"0.0-3.43-2.43","p0xejw149v297zp",702,"21.csv","","null","resources/images/fishbone.png","null","",NA,NA,NA,NA,""
"image-keyboard-response",143,184097,"0.0-3.44-0.44","p0xejw149v297zp",702,"21.csv","","1856","resources/trios/L1T2A2.jpg","37","restless",0.6,0.5,0.4,0.966106923013363,"false"
"image-keyboard-response",144,184501,"0.0-3.44-1.44","p0xejw149v297zp",702,"21.csv","","null","resources/maskTrios/L1BB.jpg","null","",NA,NA,NA,NA,""
"image-keyboard-response",145,185703,"0.0-3.44-2.44","p0xejw149v297zp",702,"21.csv","","null","resources/images/fishbone.png","null","",NA,NA,NA,NA,""
"image-keyboard-response",146,186011,"0.0-3.45-0.45","p0xejw149v297zp",702,"21.csv","","306.30000019073486","resources/trios/L1T2A2.jpg","38","restless",0.6,0.5,0.4,0.506976051732719,"false"
"image-keyboard-response",147,186415,"0.0-3.45-1.45","p0xejw149v297zp",702,"21.csv","","null","resources/maskTrios/BT2B.jpg","null","",NA,NA,NA,NA,""
"image-keyboard-response",148,187617,"0.0-3.45-2.45","p0xejw149v297zp",702,"21.csv","","null","resources/images/fishbone.png","null","",NA,NA,NA,NA,""
"image-keyboard-response",149,188561,"0.0-3.46-0.46","p0xejw149v297zp",702,"21.csv","","941.1999998092651","resources/trios/L1T1A3.jpg","39","restless",0.6,0.4,0.4,0.903935343010726,"false"
"image-keyboard-response",150,188965,"0.0-3.46-1.46","p0xejw149v297zp",702,"21.csv","","null","resources/maskTrios/BBA3.jpg","null","",NA,NA,NA,NA,""
"image-keyboard-response",151,190168,"0.0-3.46-2.46","p0xejw149v297zp",702,"21.csv","","null","resources/images/fishbone.png","null","",NA,NA,NA,NA,""
"image-keyboard-response",152,190513,"0.0-3.47-0.47","p0xejw149v297zp",702,"21.csv","","343.30000019073486","resources/trios/L4T2A3.jpg","37","restless",0.6,0.4,0.4,0.215977345081294,"true"
"image-keyboard-response",153,190918,"0.0-3.47-1.47","p0xejw149v297zp",702,"21.csv","","null","resources/maskTrios/L4BB.jpg","null","",NA,NA,NA,NA,""
"image-keyboard-response",154,192119,"0.0-3.47-2.47","p0xejw149v297zp",702,"21.csv","","null","resources/images/coin2.png","null","",NA,NA,NA,NA,""
"image-keyboard-response",155,192608,"0.0-3.48-0.48","p0xejw149v297zp",702,"21.csv","","486.40000009536743","resources/trios/L4T2A3.jpg","37","restless",0.6,0.4,0.4,0.743407847253978,"false"
"image-keyboard-response",156,193012,"0.0-3.48-1.48","p0xejw149v297zp",702,"21.csv","","null","resources/maskTrios/L4BB.jpg","null","",NA,NA,NA,NA,""
"image-keyboard-response",157,194216,"0.0-3.48-2.48","p0xejw149v297zp",702,"21.csv","","null","resources/images/fishbone.png","null","",NA,NA,NA,NA,""
"image-keyboard-response",158,194698,"0.0-3.49-0.49","p0xejw149v297zp",702,"21.csv","","480","resources/trios/L4T2A3.jpg","38","restless",0.6,0.4,0.4,0.65533143342517,"false"
"image-keyboard-response",159,195101,"0.0-3.49-1.49","p0xejw149v297zp",702,"21.csv","","null","resources/maskTrios/BT2B.jpg","null","",NA,NA,NA,NA,""
"image-keyboard-response",160,196302,"0.0-3.49-2.49","p0xejw149v297zp",702,"21.csv","","null","resources/images/fishbone.png","null","",NA,NA,NA,NA,""
"image-keyboard-response",161,196587,"0.0-3.50-0.50","p0xejw149v297zp",702,"21.csv","","282.40000009536743","resources/trios/L1T1A2.jpg","39","restless",0.6,0.4,0.4,0.274138513098198,"true"
"image-keyboard-response",162,196990,"0.0-3.50-1.50","p0xejw149v297zp",702,"21.csv","","null","resources/maskTrios/BBA2.jpg","null","",NA,NA,NA,NA,""
"image-keyboard-response",163,198194,"0.0-3.50-2.50","p0xejw149v297zp",702,"21.csv","","null","resources/images/coin2.png","null","",NA,NA,NA,NA,""
"image-keyboard-response",164,198522,"0.0-3.51-0.51","p0xejw149v297zp",702,"21.csv","","326.09999990463257","resources/trios/L1T1A2.jpg","39","restless",0.6,0.4,0.4,0.0383954297982139,"true"
"image-keyboard-response",165,198925,"0.0-3.51-1.51","p0xejw149v297zp",702,"21.csv","","null","resources/maskTrios/BBA2.jpg","null","",NA,NA,NA,NA,""
"image-keyboard-response",166,200129,"0.0-3.51-2.51","p0xejw149v297zp",702,"21.csv","","null","resources/images/coin2.png","null","",NA,NA,NA,NA,""
"image-keyboard-response",167,200449,"0.0-3.52-0.52","p0xejw149v297zp",702,"21.csv","","316.5","resources/trios/L4T2A3.jpg","39","restless",0.6,0.4,0.4,0.668904779346834,"false"
"image-keyboard-response",168,200852,"0.0-3.52-1.52","p0xejw149v297zp",702,"21.csv","","null","resources/maskTrios/BBA3.jpg","null","",NA,NA,NA,NA,""
"image-keyboard-response",169,202054,"0.0-3.52-2.52","p0xejw149v297zp",702,"21.csv","","null","resources/images/fishbone.png","null","",NA,NA,NA,NA,""
"image-keyboard-response",170,202361,"0.0-3.53-0.53","p0xejw149v297zp",702,"21.csv","","304.30000019073486","resources/trios/L4T2A3.jpg","38","restless",0.5,0.4,0.3,0.0936268768289816,"true"
"image-keyboard-response",171,202765,"0.0-3.53-1.53","p0xejw149v297zp",702,"21.csv","","null","resources/maskTrios/BT2B.jpg","null","",NA,NA,NA,NA,""
"image-keyboard-response",172,203967,"0.0-3.53-2.53","p0xejw149v297zp",702,"21.csv","","null","resources/images/coin2.png","null","",NA,NA,NA,NA,""
"image-keyboard-response",173,204252,"0.0-3.54-0.54","p0xejw149v297zp",702,"21.csv","","282.59999990463257","resources/trios/L4T2A2.jpg","38","restless",0.5,0.4,0.3,0.25153910803993,"true"
"image-keyboard-response",174,204654,"0.0-3.54-1.54","p0xejw149v297zp",702,"21.csv","","null","resources/maskTrios/BT2B.jpg","null","",NA,NA,NA,NA,""
"image-keyboard-response",175,205857,"0.0-3.54-2.54","p0xejw149v297zp",702,"21.csv","","null","resources/images/coin2.png","null","",NA,NA,NA,NA,""
"image-keyboard-response",176,206305,"0.0-3.55-0.55","p0xejw149v297zp",702,"21.csv","","445.5","resources/trios/L1T1A3.jpg","38","restless",0.5,0.4,0.3,0.668479531686244,"false"
"image-keyboard-response",177,206708,"0.0-3.55-1.55","p0xejw149v297zp",702,"21.csv","","null","resources/maskTrios/BT1B.jpg","null","",NA,NA,NA,NA,""
"image-keyboard-response",178,207911,"0.0-3.55-2.55","p0xejw149v297zp",702,"21.csv","","null","resources/images/fishbone.png","null","",NA,NA,NA,NA,""
"image-keyboard-response",179,208082,"0.0-3.56-0.56","p0xejw149v297zp",702,"21.csv","","168.19999980926514","resources/trios/L4T1A2.jpg","37","restless",0.5,0.4,0.3,0.0661838469240421,"true"
"image-keyboard-response",180,208484,"0.0-3.56-1.56","p0xejw149v297zp",702,"21.csv","","null","resources/maskTrios/L4BB.jpg","null","",NA,NA,NA,NA,""
"image-keyboard-response",181,209686,"0.0-3.56-2.56","p0xejw149v297zp",702,"21.csv","","null","resources/images/coin2.png","null","",NA,NA,NA,NA,""
"image-keyboard-response",182,210070,"0.0-3.57-0.57","p0xejw149v297zp",702,"21.csv","","382.2999997138977","resources/trios/L1T1A2.jpg","37","restless",0.5,0.4,0.3,0.376643307173781,"true"
"image-keyboard-response",183,210473,"0.0-3.57-1.57","p0xejw149v297zp",702,"21.csv","","null","resources/maskTrios/L1BB.jpg","null","",NA,NA,NA,NA,""
"image-keyboard-response",184,211677,"0.0-3.57-2.57","p0xejw149v297zp",702,"21.csv","","null","resources/images/coin2.png","null","",NA,NA,NA,NA,""
"image-keyboard-response",185,212012,"0.0-3.58-0.58","p0xejw149v297zp",702,"21.csv","","332.90000009536743","resources/trios/L1T2A2.jpg","37","restless",0.5,0.4,0.3,0.923630681364483,"false"
"image-keyboard-response",186,212414,"0.0-3.58-1.58","p0xejw149v297zp",702,"21.csv","","null","resources/maskTrios/L1BB.jpg","null","",NA,NA,NA,NA,""
"image-keyboard-response",187,213617,"0.0-3.58-2.58","p0xejw149v297zp",702,"21.csv","","null","resources/images/fishbone.png","null","",NA,NA,NA,NA,""
"image-keyboard-response",188,213964,"0.0-3.59-0.59","p0xejw149v297zp",702,"21.csv","","344.7999997138977","resources/trios/L1T2A3.jpg","39","restless",0.5,0.4,0.3,0.537971429724727,"false"
"image-keyboard-response",189,214367,"0.0-3.59-1.59","p0xejw149v297zp",702,"21.csv","","null","resources/maskTrios/BBA3.jpg","null","",NA,NA,NA,NA,""
"image-keyboard-response",190,215569,"0.0-3.59-2.59","p0xejw149v297zp",702,"21.csv","","null","resources/images/fishbone.png","null","",NA,NA,NA,NA,""
"image-keyboard-response",191,215836,"0.0-3.60-0.60","p0xejw149v297zp",702,"21.csv","","264.90000009536743","resources/trios/L1T2A2.jpg","38","restless",0.5,0.4,0.3,0.563906335017019,"false"
"image-keyboard-response",192,216238,"0.0-3.60-1.60","p0xejw149v297zp",702,"21.csv","","null","resources/maskTrios/BT2B.jpg","null","",NA,NA,NA,NA,""
"image-keyboard-response",193,217441,"0.0-3.60-2.60","p0xejw149v297zp",702,"21.csv","","null","resources/images/fishbone.png","null","",NA,NA,NA,NA,""
"image-keyboard-response",194,217765,"0.0-3.61-0.61","p0xejw149v297zp",702,"21.csv","","322.19999980926514","resources/trios/L1T1A3.jpg","37","restless",0.5,0.4,0.3,0.217044232653803,"true"
"image-keyboard-response",195,218169,"0.0-3.61-1.61","p0xejw149v297zp",702,"21.csv","","null","resources/maskTrios/L1BB.jpg","null","",NA,NA,NA,NA,""
"image-keyboard-response",196,219372,"0.0-3.61-2.61","p0xejw149v297zp",702,"21.csv","","null","resources/images/coin2.png","null","",NA,NA,NA,NA,""
"image-keyboard-response",197,219757,"0.0-3.62-0.62","p0xejw149v297zp",702,"21.csv","","383.69999980926514","resources/trios/L1T1A3.jpg","37","restless",0.4,0.4,0.3,0.721255039531455,"false"
"image-keyboard-response",198,220160,"0.0-3.62-1.62","p0xejw149v297zp",702,"21.csv","","null","resources/maskTrios/L1BB.jpg","null","",NA,NA,NA,NA,""
"image-keyboard-response",199,221364,"0.0-3.62-2.62","p0xejw149v297zp",702,"21.csv","","null","resources/images/fishbone.png","null","",NA,NA,NA,NA,""
"image-keyboard-response",200,221687,"0.0-3.63-0.63","p0xejw149v297zp",702,"21.csv","","321.59999990463257","resources/trios/L4T2A2.jpg","39","restless",0.4,0.4,0.3,0.753355955427959,"false"
"image-keyboard-response",201,222091,"0.0-3.63-1.63","p0xejw149v297zp",702,"21.csv","","null","resources/maskTrios/BBA2.jpg","null","",NA,NA,NA,NA,""
"image-keyboard-response",202,223294,"0.0-3.63-2.63","p0xejw149v297zp",702,"21.csv","","null","resources/images/fishbone.png","null","",NA,NA,NA,NA,""
"image-keyboard-response",203,223617,"0.0-3.64-0.64","p0xejw149v297zp",702,"21.csv","","321.19999980926514","resources/trios/L4T1A3.jpg","38","restless",0.4,0.4,0.3,0.909046278261497,"false"
"image-keyboard-response",204,224020,"0.0-3.64-1.64","p0xejw149v297zp",702,"21.csv","","null","resources/maskTrios/BT1B.jpg","null","",NA,NA,NA,NA,""
"image-keyboard-response",205,225226,"0.0-3.64-2.64","p0xejw149v297zp",702,"21.csv","","null","resources/images/fishbone.png","null","",NA,NA,NA,NA,""
"image-keyboard-response",206,225571,"0.0-3.65-0.65","p0xejw149v297zp",702,"21.csv","","343.19999980926514","resources/trios/L1T1A3.jpg","38","restless",0.4,0.4,0.3,0.943339146334812,"false"
"image-keyboard-response",207,225975,"0.0-3.65-1.65","p0xejw149v297zp",702,"21.csv","","null","resources/maskTrios/BT1B.jpg","null","",NA,NA,NA,NA,""
"image-keyboard-response",208,227178,"0.0-3.65-2.65","p0xejw149v297zp",702,"21.csv","","null","resources/images/fishbone.png","null","",NA,NA,NA,NA,""
"image-keyboard-response",209,227520,"0.0-3.66-0.66","p0xejw149v297zp",702,"21.csv","","339.69999980926514","resources/trios/L1T2A3.jpg","37","restless",0.4,0.4,0.3,0.264176694994711,"true"
"image-keyboard-response",210,227923,"0.0-3.66-1.66","p0xejw149v297zp",702,"21.csv","","null","resources/maskTrios/L1BB.jpg","null","",NA,NA,NA,NA,""
"image-keyboard-response",211,229126,"0.0-3.66-2.66","p0xejw149v297zp",702,"21.csv","","null","resources/images/coin2.png","null","",NA,NA,NA,NA,""
"image-keyboard-response",212,229479,"0.0-3.67-0.67","p0xejw149v297zp",702,"21.csv","","349.19999980926514","resources/trios/L4T1A3.jpg","37","restless",0.4,0.4,0.3,0.149095381125921,"true"
"image-keyboard-response",213,229883,"0.0-3.67-1.67","p0xejw149v297zp",702,"21.csv","","null","resources/maskTrios/L4BB.jpg","null","",NA,NA,NA,NA,""
"image-keyboard-response",214,231085,"0.0-3.67-2.67","p0xejw149v297zp",702,"21.csv","","null","resources/images/coin2.png","null","",NA,NA,NA,NA,""
"image-keyboard-response",215,231441,"0.0-3.68-0.68","p0xejw149v297zp",702,"21.csv","","353.5","resources/trios/L1T1A2.jpg","37","restless",0.4,0.4,0.3,0.105529100301892,"true"
"image-keyboard-response",216,231845,"0.0-3.68-1.68","p0xejw149v297zp",702,"21.csv","","null","resources/maskTrios/L1BB.jpg","null","",NA,NA,NA,NA,""
"image-keyboard-response",217,233050,"0.0-3.68-2.68","p0xejw149v297zp",702,"21.csv","","null","resources/images/coin2.png","null","",NA,NA,NA,NA,""
"image-keyboard-response",218,233361,"0.0-3.69-0.69","p0xejw149v297zp",702,"21.csv","","309.09999990463257","resources/trios/L4T1A3.jpg","37","restless",0.4,0.3,0.3,0.96691073526194,"false"
"image-keyboard-response",219,233766,"0.0-3.69-1.69","p0xejw149v297zp",702,"21.csv","","null","resources/maskTrios/L4BB.jpg","null","",NA,NA,NA,NA,""
"image-keyboard-response",220,234968,"0.0-3.69-2.69","p0xejw149v297zp",702,"21.csv","","null","resources/images/fishbone.png","null","",NA,NA,NA,NA,""
"image-keyboard-response",221,235279,"0.0-3.70-0.70","p0xejw149v297zp",702,"21.csv","","308.6000003814697","resources/trios/L1T2A2.jpg","39","restless",0.4,0.3,0.3,0.698195750573186,"false"
"image-keyboard-response",222,235683,"0.0-3.70-1.70","p0xejw149v297zp",702,"21.csv","","null","resources/maskTrios/BBA2.jpg","null","",NA,NA,NA,NA,""
"image-keyboard-response",223,236885,"0.0-3.70-2.70","p0xejw149v297zp",702,"21.csv","","null","resources/images/fishbone.png","null","",NA,NA,NA,NA,""
"image-keyboard-response",224,237217,"0.0-3.71-0.71","p0xejw149v297zp",702,"21.csv","","329.7000002861023","resources/trios/L4T1A3.jpg","37","restless",0.4,0.3,0.3,0.782212808944927,"false"
"image-keyboard-response",225,237619,"0.0-3.71-1.71","p0xejw149v297zp",702,"21.csv","","null","resources/maskTrios/L4BB.jpg","null","",NA,NA,NA,NA,""
"image-keyboard-response",226,238821,"0.0-3.71-2.71","p0xejw149v297zp",702,"21.csv","","null","resources/images/fishbone.png","null","",NA,NA,NA,NA,""
"image-keyboard-response",227,239297,"0.0-3.72-0.72","p0xejw149v297zp",702,"21.csv","","473.7000002861023","resources/trios/L1T2A2.jpg","37","restless",0.4,0.3,0.3,0.159913524554848,"true"
"image-keyboard-response",228,239700,"0.0-3.72-1.72","p0xejw149v297zp",702,"21.csv","","null","resources/maskTrios/L1BB.jpg","null","",NA,NA,NA,NA,""
"image-keyboard-response",229,240902,"0.0-3.72-2.72","p0xejw149v297zp",702,"21.csv","","null","resources/images/coin2.png","null","",NA,NA,NA,NA,""
"image-keyboard-response",230,241565,"0.0-3.73-0.73","p0xejw149v297zp",702,"21.csv","","660.6999998092651","resources/trios/L4T2A3.jpg","37","restless",0.5,0.3,0.3,0.264675727830268,"true"
"image-keyboard-response",231,241968,"0.0-3.73-1.73","p0xejw149v297zp",702,"21.csv","","null","resources/maskTrios/L4BB.jpg","null","",NA,NA,NA,NA,""
"image-keyboard-response",232,243170,"0.0-3.73-2.73","p0xejw149v297zp",702,"21.csv","","null","resources/images/coin2.png","null","",NA,NA,NA,NA,""
"image-keyboard-response",233,243601,"0.0-3.74-0.74","p0xejw149v297zp",702,"21.csv","","428.59999990463257","resources/trios/L1T1A2.jpg","37","restless",0.5,0.3,0.3,0.741658508991004,"false"
"image-keyboard-response",234,244003,"0.0-3.74-1.74","p0xejw149v297zp",702,"21.csv","","null","resources/maskTrios/L1BB.jpg","null","",NA,NA,NA,NA,""
"image-keyboard-response",235,245205,"0.0-3.74-2.74","p0xejw149v297zp",702,"21.csv","","null","resources/images/fishbone.png","null","",NA,NA,NA,NA,""
"image-keyboard-response",236,245574,"0.0-3.75-0.75","p0xejw149v297zp",702,"21.csv","","367","resources/trios/L1T2A3.jpg","39","restless",0.5,0.3,0.3,0.425218683369677,"false"
"image-keyboard-response",237,245978,"0.0-3.75-1.75","p0xejw149v297zp",702,"21.csv","","null","resources/maskTrios/BBA3.jpg","null","",NA,NA,NA,NA,""
"image-keyboard-response",238,247183,"0.0-3.75-2.75","p0xejw149v297zp",702,"21.csv","","null","resources/images/fishbone.png","null","",NA,NA,NA,NA,""
"image-keyboard-response",239,247263,"0.0-3.76-0.76","p0xejw149v297zp",702,"21.csv","","78","resources/trios/L1T1A2.jpg","38","restless",0.5,0.3,0.3,0.467353045217363,"false"
"image-keyboard-response",240,247667,"0.0-3.76-1.76","p0xejw149v297zp",702,"21.csv","","null","resources/maskTrios/BT1B.jpg","null","",NA,NA,NA,NA,""
"image-keyboard-response",241,248868,"0.0-3.76-2.76","p0xejw149v297zp",702,"21.csv","","null","resources/images/fishbone.png","null","",NA,NA,NA,NA,""
"image-keyboard-response",242,248965,"0.0-3.77-0.77","p0xejw149v297zp",702,"21.csv","","94.80000019073486","resources/trios/L4T1A3.jpg","39","restless",0.5,0.4,0.3,0.525244257826538,"false"
"image-keyboard-response",243,249368,"0.0-3.77-1.77","p0xejw149v297zp",702,"21.csv","","null","resources/maskTrios/BBA3.jpg","null","",NA,NA,NA,NA,""
"image-keyboard-response",244,250570,"0.0-3.77-2.77","p0xejw149v297zp",702,"21.csv","","null","resources/images/fishbone.png","null","",NA,NA,NA,NA,""
"image-keyboard-response",245,250664,"0.0-3.78-0.78","p0xejw149v297zp",702,"21.csv","","92.09999990463257","resources/trios/L1T1A3.jpg","37","restless",0.5,0.4,0.3,0.090490908251373,"true"
"image-keyboard-response",246,251068,"0.0-3.78-1.78","p0xejw149v297zp",702,"21.csv","","null","resources/maskTrios/L1BB.jpg","null","",NA,NA,NA,NA,""
"image-keyboard-response",247,252270,"0.0-3.78-2.78","p0xejw149v297zp",702,"21.csv","","null","resources/images/coin2.png","null","",NA,NA,NA,NA,""
"image-keyboard-response",248,252319,"0.0-3.79-0.79","p0xejw149v297zp",702,"21.csv","","46.200000286102295","resources/trios/L4T1A2.jpg","37","restless",0.5,0.3,0.3,0.260284631518216,"true"
"image-keyboard-response",249,252721,"0.0-3.79-1.79","p0xejw149v297zp",702,"21.csv","","null","resources/maskTrios/L4BB.jpg","null","",NA,NA,NA,NA,""
"image-keyboard-response",250,253924,"0.0-3.79-2.79","p0xejw149v297zp",702,"21.csv","","null","resources/images/coin2.png","null","",NA,NA,NA,NA,""
"image-keyboard-response",251,254059,"0.0-3.80-0.80","p0xejw149v297zp",702,"21.csv","","133.2000002861023","resources/trios/L4T2A2.jpg","37","restless",0.5,0.3,0.3,0.660040778563462,"false"
"image-keyboard-response",252,254464,"0.0-3.80-1.80","p0xejw149v297zp",702,"21.csv","","null","resources/maskTrios/L4BB.jpg","null","",NA,NA,NA,NA,""
"image-keyboard-response",253,255666,"0.0-3.80-2.80","p0xejw149v297zp",702,"21.csv","","null","resources/images/fishbone.png","null","",NA,NA,NA,NA,""
"image-keyboard-response",254,255798,"0.0-3.81-0.81","p0xejw149v297zp",702,"21.csv","","129.59999990463257","resources/trios/L4T2A3.jpg","39","restless",0.5,0.3,0.3,0.168344740013126,"true"
"image-keyboard-response",255,256200,"0.0-3.81-1.81","p0xejw149v297zp",702,"21.csv","","null","resources/maskTrios/BBA3.jpg","null","",NA,NA,NA,NA,""
"image-keyboard-response",256,257402,"0.0-3.81-2.81","p0xejw149v297zp",702,"21.csv","","null","resources/images/coin2.png","null","",NA,NA,NA,NA,""
"image-keyboard-response",257,257486,"0.0-3.82-0.82","p0xejw149v297zp",702,"21.csv","","82.2000002861023","resources/trios/L4T1A3.jpg","39","restless",0.5,0.3,0.3,0.0551856678038805,"true"
"image-keyboard-response",258,257889,"0.0-3.82-1.82","p0xejw149v297zp",702,"21.csv","","null","resources/maskTrios/BBA3.jpg","null","",NA,NA,NA,NA,""
"image-keyboard-response",259,259093,"0.0-3.82-2.82","p0xejw149v297zp",702,"21.csv","","null","resources/images/coin2.png","null","",NA,NA,NA,NA,""
"image-keyboard-response",260,259128,"0.0-3.83-0.83","p0xejw149v297zp",702,"21.csv","","32.90000009536743","resources/trios/L4T1A2.jpg","39","restless",0.5,0.4,0.3,0.025090683602522,"true"
"image-keyboard-response",261,259530,"0.0-3.83-1.83","p0xejw149v297zp",702,"21.csv","","null","resources/maskTrios/BBA2.jpg","null","",NA,NA,NA,NA,""
"image-keyboard-response",262,260733,"0.0-3.83-2.83","p0xejw149v297zp",702,"21.csv","","null","resources/images/coin2.png","null","",NA,NA,NA,NA,""
"image-keyboard-response",263,260782,"0.0-3.84-0.84","p0xejw149v297zp",702,"21.csv","","47.200000286102295","resources/trios/L4T1A3.jpg","39","restless",0.6,0.4,0.3,0.333764652693903,"false"
"image-keyboard-response",264,261184,"0.0-3.84-1.84","p0xejw149v297zp",702,"21.csv","","null","resources/maskTrios/BBA3.jpg","null","",NA,NA,NA,NA,""
"image-keyboard-response",265,262386,"0.0-3.84-2.84","p0xejw149v297zp",702,"21.csv","","null","resources/images/fishbone.png","null","",NA,NA,NA,NA,""
"image-keyboard-response",266,262547,"0.0-3.85-0.85","p0xejw149v297zp",702,"21.csv","","159.30000019073486","resources/trios/L4T1A2.jpg","38","restless",0.6,0.5,0.3,0.267069576097053,"true"
"image-keyboard-response",267,262950,"0.0-3.85-1.85","p0xejw149v297zp",702,"21.csv","","null","resources/maskTrios/BT1B.jpg","null","",NA,NA,NA,NA,""
"image-keyboard-response",268,264152,"0.0-3.85-2.85","p0xejw149v297zp",702,"21.csv","","null","resources/images/coin2.png","null","",NA,NA,NA,NA,""
"image-keyboard-response",269,264318,"0.0-3.86-0.86","p0xejw149v297zp",702,"21.csv","","163.90000009536743","resources/trios/L4T2A3.jpg","38","restless",0.6,0.5,0.3,0.498353439558301,"true"
"image-keyboard-response",270,264720,"0.0-3.86-1.86","p0xejw149v297zp",702,"21.csv","","null","resources/maskTrios/BT2B.jpg","null","",NA,NA,NA,NA,""
"image-keyboard-response",271,265923,"0.0-3.86-2.86","p0xejw149v297zp",702,"21.csv","","null","resources/images/coin2.png","null","",NA,NA,NA,NA,""
"image-keyboard-response",272,266066,"0.0-3.87-0.87","p0xejw149v297zp",702,"21.csv","","141.7999997138977","resources/trios/L4T1A3.jpg","38","restless",0.6,0.5,0.3,0.753398347846979,"false"
"image-keyboard-response",273,266469,"0.0-3.87-1.87","p0xejw149v297zp",702,"21.csv","","null","resources/maskTrios/BT1B.jpg","null","",NA,NA,NA,NA,""
"image-keyboard-response",274,267670,"0.0-3.87-2.87","p0xejw149v297zp",702,"21.csv","","null","resources/images/fishbone.png","null","",NA,NA,NA,NA,""
"image-keyboard-response",275,267843,"0.0-3.88-0.88","p0xejw149v297zp",702,"21.csv","","170.40000009536743","resources/trios/L4T1A3.jpg","37","restless",0.6,0.5,0.3,0.478380374015855,"true"
"image-keyboard-response",276,268248,"0.0-3.88-1.88","p0xejw149v297zp",702,"21.csv","","null","resources/maskTrios/L4BB.jpg","null","",NA,NA,NA,NA,""
"image-keyboard-response",277,269451,"0.0-3.88-2.88","p0xejw149v297zp",702,"21.csv","","null","resources/images/coin2.png","null","",NA,NA,NA,NA,""
"image-keyboard-response",278,269628,"0.0-3.89-0.89","p0xejw149v297zp",702,"21.csv","","174.40000009536743","resources/trios/L4T1A3.jpg","37","restless",0.6,0.6,0.3,0.160205306908863,"true"
"image-keyboard-response",279,270033,"0.0-3.89-1.89","p0xejw149v297zp",702,"21.csv","","null","resources/maskTrios/L4BB.jpg","null","",NA,NA,NA,NA,""
"image-keyboard-response",280,271235,"0.0-3.89-2.89","p0xejw149v297zp",702,"21.csv","","null","resources/images/coin2.png","null","",NA,NA,NA,NA,""
"image-keyboard-response",281,271403,"0.0-3.90-0.90","p0xejw149v297zp",702,"21.csv","","166.10000038146973","resources/trios/L4T2A3.jpg","37","restless",0.6,0.6,0.3,0.817897726725771,"false"
"image-keyboard-response",282,271806,"0.0-3.90-1.90","p0xejw149v297zp",702,"21.csv","","null","resources/maskTrios/L4BB.jpg","null","",NA,NA,NA,NA,""
"image-keyboard-response",283,273009,"0.0-3.90-2.90","p0xejw149v297zp",702,"21.csv","","null","resources/images/fishbone.png","null","",NA,NA,NA,NA,""
"image-keyboard-response",284,273456,"0.0-3.91-0.91","p0xejw149v297zp",702,"21.csv","","444.69999980926514","resources/trios/L1T2A3.jpg","39","restless",0.6,0.6,0.3,0.460267391669982,"false"
"image-keyboard-response",285,273859,"0.0-3.91-1.91","p0xejw149v297zp",702,"21.csv","","null","resources/maskTrios/BBA3.jpg","null","",NA,NA,NA,NA,""
"image-keyboard-response",286,275063,"0.0-3.91-2.91","p0xejw149v297zp",702,"21.csv","","null","resources/images/fishbone.png","null","",NA,NA,NA,NA,""
"image-keyboard-response",287,275368,"0.0-3.92-0.92","p0xejw149v297zp",702,"21.csv","","303.5","resources/trios/L4T2A2.jpg","39","restless",0.6,0.6,0.3,0.634726691907822,"false"
"image-keyboard-response",288,275771,"0.0-3.92-1.92","p0xejw149v297zp",702,"21.csv","","null","resources/maskTrios/BBA2.jpg","null","",NA,NA,NA,NA,""
"image-keyboard-response",289,276974,"0.0-3.92-2.92","p0xejw149v297zp",702,"21.csv","","null","resources/images/fishbone.png","null","",NA,NA,NA,NA,""
"image-keyboard-response",290,277388,"0.0-3.93-0.93","p0xejw149v297zp",702,"21.csv","","411.5","resources/trios/L4T1A3.jpg","37","restless",0.6,0.6,0.3,0.442543158278952,"true"
"image-keyboard-response",291,277791,"0.0-3.93-1.93","p0xejw149v297zp",702,"21.csv","","null","resources/maskTrios/L4BB.jpg","null","",NA,NA,NA,NA,""
"image-keyboard-response",292,278995,"0.0-3.93-2.93","p0xejw149v297zp",702,"21.csv","","null","resources/images/coin2.png","null","",NA,NA,NA,NA,""
"image-keyboard-response",293,279866,"0.0-3.94-0.94","p0xejw149v297zp",702,"21.csv","","868","resources/trios/L4T1A3.jpg","37","restless",0.6,0.6,0.3,0.691717745646866,"false"
"image-keyboard-response",294,280268,"0.0-3.94-1.94","p0xejw149v297zp",702,"21.csv","","null","resources/maskTrios/L4BB.jpg","null","",NA,NA,NA,NA,""
"image-keyboard-response",295,281470,"0.0-3.94-2.94","p0xejw149v297zp",702,"21.csv","","null","resources/images/fishbone.png","null","",NA,NA,NA,NA,""
"image-keyboard-response",296,281621,"0.0-3.95-0.95","p0xejw149v297zp",702,"21.csv","","148.90000009536743","resources/trios/L4T2A2.jpg","37","restless",0.7,0.6,0.3,0.525234288733619,"true"
"image-keyboard-response",297,282028,"0.0-3.95-1.95","p0xejw149v297zp",702,"21.csv","","null","resources/maskTrios/L4BB.jpg","null","",NA,NA,NA,NA,""
"image-keyboard-response",298,283232,"0.0-3.95-2.95","p0xejw149v297zp",702,"21.csv","","null","resources/images/coin2.png","null","",NA,NA,NA,NA,""
"image-keyboard-response",299,283704,"0.0-3.96-0.96","p0xejw149v297zp",702,"21.csv","","469","resources/trios/L1T2A2.jpg","38","restless",0.7,0.6,0.2,0.0393705014531593,"true"
"image-keyboard-response",300,284106,"0.0-3.96-1.96","p0xejw149v297zp",702,"21.csv","","null","resources/maskTrios/BT2B.jpg","null","",NA,NA,NA,NA,""
"image-keyboard-response",301,285310,"0.0-3.96-2.96","p0xejw149v297zp",702,"21.csv","","null","resources/images/coin2.png","null","",NA,NA,NA,NA,""
"image-keyboard-response",302,285530,"0.0-3.97-0.97","p0xejw149v297zp",702,"21.csv","","217.7999997138977","resources/trios/L1T1A3.jpg","38","restless",0.7,0.6,0.2,0.57765625007403,"true"
"image-keyboard-response",303,285932,"0.0-3.97-1.97","p0xejw149v297zp",702,"21.csv","","null","resources/maskTrios/BT1B.jpg","null","",NA,NA,NA,NA,""
"image-keyboard-response",304,287134,"0.0-3.97-2.97","p0xejw149v297zp",702,"21.csv","","null","resources/images/coin2.png","null","",NA,NA,NA,NA,""
"image-keyboard-response",305,287167,"0.0-3.98-0.98","p0xejw149v297zp",702,"21.csv","","30.899999618530273","resources/trios/L1T2A2.jpg","38","restless",0.6,0.6,0.2,0.437985161022173,"true"
"image-keyboard-response",306,287569,"0.0-3.98-1.98","p0xejw149v297zp",702,"21.csv","","null","resources/maskTrios/BT2B.jpg","null","",NA,NA,NA,NA,""
"image-keyboard-response",307,288772,"0.0-3.98-2.98","p0xejw149v297zp",702,"21.csv","","null","resources/images/coin2.png","null","",NA,NA,NA,NA,""
"image-keyboard-response",308,288774,"0.0-3.99-0.99","p0xejw149v297zp",702,"21.csv","","0.3000001907348633","resources/trios/L1T2A2.jpg","38","restless",0.6,0.6,0.2,0.416536235000727,"true"
"image-keyboard-response",309,289178,"0.0-3.99-1.99","p0xejw149v297zp",702,"21.csv","","null","resources/maskTrios/BT2B.jpg","null","",NA,NA,NA,NA,""
"image-keyboard-response",310,290382,"0.0-3.99-2.99","p0xejw149v297zp",702,"21.csv","","null","resources/images/coin2.png","null","",NA,NA,NA,NA,""
"image-keyboard-response",311,290733,"0.0-3.100-0.100","p0xejw149v297zp",702,"21.csv","","348.59999990463257","resources/trios/L4T1A2.jpg","38","restless",0.5,0.6,0.2,0.909854936435541,"false"
"image-keyboard-response",312,291136,"0.0-3.100-1.100","p0xejw149v297zp",702,"21.csv","","null","resources/maskTrios/BT1B.jpg","null","",NA,NA,NA,NA,""
"image-keyboard-response",313,292338,"0.0-3.100-2.100","p0xejw149v297zp",702,"21.csv","","null","resources/images/fishbone.png","null","",NA,NA,NA,NA,""
"image-keyboard-response",314,292591,"0.0-3.101-0.101","p0xejw149v297zp",702,"21.csv","","250.5","resources/trios/L1T1A2.jpg","39","restless",0.5,0.5,0.2,0.251149391249191,"false"
"image-keyboard-response",315,292995,"0.0-3.101-1.101","p0xejw149v297zp",702,"21.csv","","null","resources/maskTrios/BBA2.jpg","null","",NA,NA,NA,NA,""
"image-keyboard-response",316,294199,"0.0-3.101-2.101","p0xejw149v297zp",702,"21.csv","","null","resources/images/fishbone.png","null","",NA,NA,NA,NA,""
"image-keyboard-response",317,294302,"0.0-3.102-0.102","p0xejw149v297zp",702,"21.csv","","100.60000038146973","resources/trios/L4T2A3.jpg","37","restless",0.5,0.5,0.2,0.989371559163151,"false"
"image-keyboard-response",318,294704,"0.0-3.102-1.102","p0xejw149v297zp",702,"21.csv","","null","resources/maskTrios/L4BB.jpg","null","",NA,NA,NA,NA,""
"image-keyboard-response",319,295907,"0.0-3.102-2.102","p0xejw149v297zp",702,"21.csv","","null","resources/images/fishbone.png","null","",NA,NA,NA,NA,""
"image-keyboard-response",320,296045,"0.0-3.103-0.103","p0xejw149v297zp",702,"21.csv","","135.09999990463257","resources/trios/L1T2A2.jpg","39","restless",0.5,0.5,0.3,0.692275934476499,"false"
"image-keyboard-response",321,296449,"0.0-3.103-1.103","p0xejw149v297zp",702,"21.csv","","null","resources/maskTrios/BBA2.jpg","null","",NA,NA,NA,NA,""
"image-keyboard-response",322,297651,"0.0-3.103-2.103","p0xejw149v297zp",702,"21.csv","","null","resources/images/fishbone.png","null","",NA,NA,NA,NA,""
"image-keyboard-response",323,297851,"0.0-3.104-0.104","p0xejw149v297zp",702,"21.csv","","198.7999997138977","resources/trios/L1T1A2.jpg","38","restless",0.6,0.5,0.4,0.239707938243573,"true"
"image-keyboard-response",324,298255,"0.0-3.104-1.104","p0xejw149v297zp",702,"21.csv","","null","resources/maskTrios/BT1B.jpg","null","",NA,NA,NA,NA,""
"image-keyboard-response",325,299458,"0.0-3.104-2.104","p0xejw149v297zp",702,"21.csv","","null","resources/images/coin2.png","null","",NA,NA,NA,NA,""
"image-keyboard-response",326,299740,"0.0-3.105-0.105","p0xejw149v297zp",702,"21.csv","","279.69999980926514","resources/trios/L4T2A2.jpg","38","restless",0.6,0.5,0.4,0.00715822958524104,"true"
"image-keyboard-response",327,300144,"0.0-3.105-1.105","p0xejw149v297zp",702,"21.csv","","null","resources/maskTrios/BT2B.jpg","null","",NA,NA,NA,NA,""
"image-keyboard-response",328,301349,"0.0-3.105-2.105","p0xejw149v297zp",702,"21.csv","","null","resources/images/coin2.png","null","",NA,NA,NA,NA,""
"image-keyboard-response",329,301744,"0.0-3.106-0.106","p0xejw149v297zp",702,"21.csv","","392.7000002861023","resources/trios/L1T2A2.jpg","38","restless",0.6,0.5,0.4,0.76487397418798,"false"
"image-keyboard-response",330,302148,"0.0-3.106-1.106","p0xejw149v297zp",702,"21.csv","","null","resources/maskTrios/BT2B.jpg","null","",NA,NA,NA,NA,""
"image-keyboard-response",331,303350,"0.0-3.106-2.106","p0xejw149v297zp",702,"21.csv","","null","resources/images/fishbone.png","null","",NA,NA,NA,NA,""
"image-keyboard-response",332,303381,"0.0-3.107-0.107","p0xejw149v297zp",702,"21.csv","","28.90000009536743","resources/trios/L1T2A2.jpg","38","restless",0.6,0.5,0.4,0.698285379173706,"false"
"image-keyboard-response",333,303782,"0.0-3.107-1.107","p0xejw149v297zp",702,"21.csv","","null","resources/maskTrios/BT2B.jpg","null","",NA,NA,NA,NA,""
"image-keyboard-response",334,304984,"0.0-3.107-2.107","p0xejw149v297zp",702,"21.csv","","null","resources/images/fishbone.png","null","",NA,NA,NA,NA,""
"image-keyboard-response",335,305406,"0.0-3.108-0.108","p0xejw149v297zp",702,"21.csv","","420.30000019073486","resources/trios/L1T1A2.jpg","39","restless",0.5,0.5,0.4,0.671789931048293,"false"
"image-keyboard-response",336,305811,"0.0-3.108-1.108","p0xejw149v297zp",702,"21.csv","","null","resources/maskTrios/BBA2.jpg","null","",NA,NA,NA,NA,""
"image-keyboard-response",337,307015,"0.0-3.108-2.108","p0xejw149v297zp",702,"21.csv","","null","resources/images/fishbone.png","null","",NA,NA,NA,NA,""
"image-keyboard-response",338,307341,"0.0-3.109-0.109","p0xejw149v297zp",702,"21.csv","","324.09999990463257","resources/trios/L1T1A3.jpg","39","restless",0.5,0.5,0.4,0.204122643099108,"true"
"image-keyboard-response",339,307746,"0.0-3.109-1.109","p0xejw149v297zp",702,"21.csv","","null","resources/maskTrios/BBA3.jpg","null","",NA,NA,NA,NA,""
"image-keyboard-response",340,308949,"0.0-3.109-2.109","p0xejw149v297zp",702,"21.csv","","null","resources/images/coin2.png","null","",NA,NA,NA,NA,""
"image-keyboard-response",341,309216,"0.0-3.110-0.110","p0xejw149v297zp",702,"21.csv","","264.90000009536743","resources/trios/L4T1A3.jpg","39","restless",0.5,0.5,0.4,0.520527766377142,"false"
"image-keyboard-response",342,309618,"0.0-3.110-1.110","p0xejw149v297zp",702,"21.csv","","null","resources/maskTrios/BBA3.jpg","null","",NA,NA,NA,NA,""
"image-keyboard-response",343,310820,"0.0-3.110-2.110","p0xejw149v297zp",702,"21.csv","","null","resources/images/fishbone.png","null","",NA,NA,NA,NA,""
"image-keyboard-response",344,311207,"0.0-3.111-0.111","p0xejw149v297zp",702,"21.csv","","384.7000002861023","resources/trios/L1T1A3.jpg","39","restless",0.5,0.5,0.5,0.821897276606173,"false"
"image-keyboard-response",345,311610,"0.0-3.111-1.111","p0xejw149v297zp",702,"21.csv","","null","resources/maskTrios/BBA3.jpg","null","",NA,NA,NA,NA,""
"image-keyboard-response",346,312813,"0.0-3.111-2.111","p0xejw149v297zp",702,"21.csv","","null","resources/images/fishbone.png","null","",NA,NA,NA,NA,""
"image-keyboard-response",347,313233,"0.0-3.112-0.112","p0xejw149v297zp",702,"21.csv","","418.80000019073486","resources/trios/L4T1A2.jpg","39","restless",0.5,0.5,0.5,0.0913133797246097,"true"
"image-keyboard-response",348,313636,"0.0-3.112-1.112","p0xejw149v297zp",702,"21.csv","","null","resources/maskTrios/BBA2.jpg","null","",NA,NA,NA,NA,""
"image-keyboard-response",349,314839,"0.0-3.112-2.112","p0xejw149v297zp",702,"21.csv","","null","resources/images/coin2.png","null","",NA,NA,NA,NA,""
"image-keyboard-response",350,315203,"0.0-3.113-0.113","p0xejw149v297zp",702,"21.csv","","362.1000003814697","resources/trios/L4T2A3.jpg","39","restless",0.5,0.5,0.5,0.689456001422684,"false"
"image-keyboard-response",351,315607,"0.0-3.113-1.113","p0xejw149v297zp",702,"21.csv","","null","resources/maskTrios/BBA3.jpg","null","",NA,NA,NA,NA,""
"image-keyboard-response",352,316810,"0.0-3.113-2.113","p0xejw149v297zp",702,"21.csv","","null","resources/images/fishbone.png","null","",NA,NA,NA,NA,""
"image-keyboard-response",353,317497,"0.0-3.114-0.114","p0xejw149v297zp",702,"21.csv","","683.9000000953674","resources/trios/L4T2A3.jpg","37","restless",0.5,0.5,0.5,0.426568424078245,"true"
"image-keyboard-response",354,317900,"0.0-3.114-1.114","p0xejw149v297zp",702,"21.csv","","null","resources/maskTrios/L4BB.jpg","null","",NA,NA,NA,NA,""
"image-keyboard-response",355,319103,"0.0-3.114-2.114","p0xejw149v297zp",702,"21.csv","","null","resources/images/coin2.png","null","",NA,NA,NA,NA,""
"image-keyboard-response",356,319433,"0.0-3.115-0.115","p0xejw149v297zp",702,"21.csv","","326.80000019073486","resources/trios/L1T1A3.jpg","37","restless",0.5,0.5,0.5,0.832609652803326,"false"
"image-keyboard-response",357,319835,"0.0-3.115-1.115","p0xejw149v297zp",702,"21.csv","","null","resources/maskTrios/L1BB.jpg","null","",NA,NA,NA,NA,""
"image-keyboard-response",358,321038,"0.0-3.115-2.115","p0xejw149v297zp",702,"21.csv","","null","resources/images/fishbone.png","null","",NA,NA,NA,NA,""
"image-keyboard-response",359,321717,"0.0-3.116-0.116","p0xejw149v297zp",702,"21.csv","","676.7000002861023","resources/trios/L1T1A3.jpg","37","restless",0.5,0.5,0.5,0.229868063282436,"true"
"image-keyboard-response",360,322119,"0.0-3.116-1.116","p0xejw149v297zp",702,"21.csv","","null","resources/maskTrios/L1BB.jpg","null","",NA,NA,NA,NA,""
"image-keyboard-response",361,323322,"0.0-3.116-2.116","p0xejw149v297zp",702,"21.csv","","null","resources/images/coin2.png","null","",NA,NA,NA,NA,""
"image-keyboard-response",362,323691,"0.0-3.117-0.117","p0xejw149v297zp",702,"21.csv","","367.69999980926514","resources/trios/L4T2A2.jpg","37","restless",0.5,0.5,0.5,0.179459058344722,"true"
"image-keyboard-response",363,324096,"0.0-3.117-1.117","p0xejw149v297zp",702,"21.csv","","null","resources/maskTrios/L4BB.jpg","null","",NA,NA,NA,NA,""
"image-keyboard-response",364,325299,"0.0-3.117-2.117","p0xejw149v297zp",702,"21.csv","","null","resources/images/coin2.png","null","",NA,NA,NA,NA,""
"image-keyboard-response",365,325437,"0.0-3.118-0.118","p0xejw149v297zp",702,"21.csv","","136.59999990463257","resources/trios/L1T1A3.jpg","37","restless",0.5,0.6,0.5,0.21082047975826,"true"
"image-keyboard-response",366,325841,"0.0-3.118-1.118","p0xejw149v297zp",702,"21.csv","","null","resources/maskTrios/L1BB.jpg","null","",NA,NA,NA,NA,""
"image-keyboard-response",367,327045,"0.0-3.118-2.118","p0xejw149v297zp",702,"21.csv","","null","resources/images/coin2.png","null","",NA,NA,NA,NA,""
"image-keyboard-response",368,327716,"0.0-3.119-0.119","p0xejw149v297zp",702,"21.csv","","668.7000002861023","resources/trios/L4T2A3.jpg","37","restless",0.5,0.6,0.5,0.908860248611479,"false"
"image-keyboard-response",369,328118,"0.0-3.119-1.119","p0xejw149v297zp",702,"21.csv","","null","resources/maskTrios/L4BB.jpg","null","",NA,NA,NA,NA,""
"image-keyboard-response",370,329321,"0.0-3.119-2.119","p0xejw149v297zp",702,"21.csv","","null","resources/images/fishbone.png","null","",NA,NA,NA,NA,""
"image-keyboard-response",371,329641,"0.0-3.120-0.120","p0xejw149v297zp",702,"21.csv","","317.69999980926514","resources/trios/L4T1A3.jpg","39","restless",0.5,0.6,0.5,0.54746683366281,"false"
"image-keyboard-response",372,330045,"0.0-3.120-1.120","p0xejw149v297zp",702,"21.csv","","null","resources/maskTrios/BBA3.jpg","null","",NA,NA,NA,NA,""
"image-keyboard-response",373,331248,"0.0-3.120-2.120","p0xejw149v297zp",702,"21.csv","","null","resources/images/fishbone.png","null","",NA,NA,NA,NA,""
"image-keyboard-response",374,331534,"0.0-3.121-0.121","p0xejw149v297zp",702,"21.csv","","283.09999990463257","resources/trios/L4T2A3.jpg","39","restless",0.5,0.7,0.5,0.412041475997857,"true"
"image-keyboard-response",375,331936,"0.0-3.121-1.121","p0xejw149v297zp",702,"21.csv","","null","resources/maskTrios/BBA3.jpg","null","",NA,NA,NA,NA,""
"image-keyboard-response",376,333139,"0.0-3.121-2.121","p0xejw149v297zp",702,"21.csv","","null","resources/images/coin2.png","null","",NA,NA,NA,NA,""
"image-keyboard-response",377,333495,"0.0-3.122-0.122","p0xejw149v297zp",702,"21.csv","","354.09999990463257","resources/trios/L1T1A2.jpg","39","restless",0.5,0.7,0.5,0.145237108549472,"true"
"image-keyboard-response",378,333899,"0.0-3.122-1.122","p0xejw149v297zp",702,"21.csv","","null","resources/maskTrios/BBA2.jpg","null","",NA,NA,NA,NA,""
"image-keyboard-response",379,335101,"0.0-3.122-2.122","p0xejw149v297zp",702,"21.csv","","null","resources/images/coin2.png","null","",NA,NA,NA,NA,""
"image-keyboard-response",380,335342,"0.0-3.123-0.123","p0xejw149v297zp",702,"21.csv","","239.40000009536743","resources/trios/L4T2A2.jpg","39","restless",0.5,0.8,0.4,0.62843277227815,"false"
"image-keyboard-response",381,335747,"0.0-3.123-1.123","p0xejw149v297zp",702,"21.csv","","null","resources/maskTrios/BBA2.jpg","null","",NA,NA,NA,NA,""
"image-keyboard-response",382,336950,"0.0-3.123-2.123","p0xejw149v297zp",702,"21.csv","","null","resources/images/fishbone.png","null","",NA,NA,NA,NA,""
"image-keyboard-response",383,337079,"0.0-3.124-0.124","p0xejw149v297zp",702,"21.csv","","127.09999990463257","resources/trios/L1T1A3.jpg","39","restless",0.5,0.9,0.4,0.158215858128977,"true"
"image-keyboard-response",384,337482,"0.0-3.124-1.124","p0xejw149v297zp",702,"21.csv","","null","resources/maskTrios/BBA3.jpg","null","",NA,NA,NA,NA,""
"image-keyboard-response",385,338684,"0.0-3.124-2.124","p0xejw149v297zp",702,"21.csv","","null","resources/images/coin2.png","null","",NA,NA,NA,NA,""
"image-keyboard-response",386,339001,"0.0-3.125-0.125","p0xejw149v297zp",702,"21.csv","","314.7000002861023","resources/trios/L1T2A2.jpg","39","restless",0.5,0.9,0.4,0.838379950124642,"false"
"image-keyboard-response",387,339403,"0.0-3.125-1.125","p0xejw149v297zp",702,"21.csv","","null","resources/maskTrios/BBA2.jpg","null","",NA,NA,NA,NA,""
"image-keyboard-response",388,340606,"0.0-3.125-2.125","p0xejw149v297zp",702,"21.csv","","null","resources/images/fishbone.png","null","",NA,NA,NA,NA,""
"image-keyboard-response",389,341040,"0.0-3.126-0.126","p0xejw149v297zp",702,"21.csv","","430.09999990463257","resources/trios/L1T2A3.jpg","37","restless",0.5,0.9,0.4,0.715907384394921,"false"
"image-keyboard-response",390,341444,"0.0-3.126-1.126","p0xejw149v297zp",702,"21.csv","","null","resources/maskTrios/L1BB.jpg","null","",NA,NA,NA,NA,""
"image-keyboard-response",391,342648,"0.0-3.126-2.126","p0xejw149v297zp",702,"21.csv","","null","resources/images/fishbone.png","null","",NA,NA,NA,NA,""
"image-keyboard-response",392,343055,"0.0-3.127-0.127","p0xejw149v297zp",702,"21.csv","","404.80000019073486","resources/trios/L1T1A2.jpg","38","restless",0.5,0.9,0.4,0.514644307389427,"true"
"image-keyboard-response",393,343459,"0.0-3.127-1.127","p0xejw149v297zp",702,"21.csv","","null","resources/maskTrios/BT1B.jpg","null","",NA,NA,NA,NA,""
"image-keyboard-response",394,344664,"0.0-3.127-2.127","p0xejw149v297zp",702,"21.csv","","null","resources/images/coin2.png","null","",NA,NA,NA,NA,""
"image-keyboard-response",395,345015,"0.0-3.128-0.128","p0xejw149v297zp",702,"21.csv","","349.5","resources/trios/L1T1A3.jpg","38","restless",0.5,0.9,0.4,0.911897083394028,"false"
"image-keyboard-response",396,345417,"0.0-3.128-1.128","p0xejw149v297zp",702,"21.csv","","null","resources/maskTrios/BT1B.jpg","null","",NA,NA,NA,NA,""
"image-keyboard-response",397,346620,"0.0-3.128-2.128","p0xejw149v297zp",702,"21.csv","","null","resources/images/fishbone.png","null","",NA,NA,NA,NA,""
"image-keyboard-response",398,346949,"0.0-3.129-0.129","p0xejw149v297zp",702,"21.csv","","327.30000019073486","resources/trios/L4T1A2.jpg","37","restless",0.5,0.9,0.4,0.719038323047919,"false"
"image-keyboard-response",399,347352,"0.0-3.129-1.129","p0xejw149v297zp",702,"21.csv","","null","resources/maskTrios/L4BB.jpg","null","",NA,NA,NA,NA,""
"image-keyboard-response",400,348554,"0.0-3.129-2.129","p0xejw149v297zp",702,"21.csv","","null","resources/images/fishbone.png","null","",NA,NA,NA,NA,""
"image-keyboard-response",401,348692,"0.0-3.130-0.130","p0xejw149v297zp",702,"21.csv","","135.7999997138977","resources/trios/L1T1A2.jpg","39","restless",0.5,0.9,0.4,0.023032054285421,"true"
"image-keyboard-response",402,349097,"0.0-3.130-1.130","p0xejw149v297zp",702,"21.csv","","null","resources/maskTrios/BBA2.jpg","null","",NA,NA,NA,NA,""
"image-keyboard-response",403,350299,"0.0-3.130-2.130","p0xejw149v297zp",702,"21.csv","","null","resources/images/coin2.png","null","",NA,NA,NA,NA,""
"image-keyboard-response",404,350548,"0.0-3.131-0.131","p0xejw149v297zp",702,"21.csv","","246.59999990463257","resources/trios/L4T2A3.jpg","39","restless",0.5,0.9,0.4,0.917000702503664,"false"
"image-keyboard-response",405,350950,"0.0-3.131-1.131","p0xejw149v297zp",702,"21.csv","","null","resources/maskTrios/BBA3.jpg","null","",NA,NA,NA,NA,""
"image-keyboard-response",406,352153,"0.0-3.131-2.131","p0xejw149v297zp",702,"21.csv","","null","resources/images/fishbone.png","null","",NA,NA,NA,NA,""
"image-keyboard-response",407,352465,"0.0-3.132-0.132","p0xejw149v297zp",702,"21.csv","","310","resources/trios/L1T2A3.jpg","38","restless",0.5,0.9,0.4,0.0950720301993246,"true"
"image-keyboard-response",408,352867,"0.0-3.132-1.132","p0xejw149v297zp",702,"21.csv","","null","resources/maskTrios/BT2B.jpg","null","",NA,NA,NA,NA,""
"image-keyboard-response",409,354069,"0.0-3.132-2.132","p0xejw149v297zp",702,"21.csv","","null","resources/images/coin2.png","null","",NA,NA,NA,NA,""
"image-keyboard-response",410,354972,"0.0-3.133-0.133","p0xejw149v297zp",702,"21.csv","","900.7000002861023","resources/trios/L4T2A2.jpg","38","restless",0.5,0.9,0.4,0.803624085264314,"true"
"image-keyboard-response",411,355375,"0.0-3.133-1.133","p0xejw149v297zp",702,"21.csv","","null","resources/maskTrios/BT2B.jpg","null","",NA,NA,NA,NA,""
"image-keyboard-response",412,356579,"0.0-3.133-2.133","p0xejw149v297zp",702,"21.csv","","null","resources/images/coin2.png","null","",NA,NA,NA,NA,""
"image-keyboard-response",413,361749,"0.0-3.134-0.134","p0xejw149v297zp",702,"21.csv","","5167.89999961853","resources/trios/L4T2A2.jpg","38","restless",0.5,0.9,0.4,0.4021306114184,"true"
"image-keyboard-response",414,362152,"0.0-3.134-1.134","p0xejw149v297zp",702,"21.csv","","null","resources/maskTrios/BT2B.jpg","null","",NA,NA,NA,NA,""
"image-keyboard-response",415,363354,"0.0-3.134-2.134","p0xejw149v297zp",702,"21.csv","","null","resources/images/coin2.png","null","",NA,NA,NA,NA,""
"image-keyboard-response",416,363941,"0.0-3.135-0.135","p0xejw149v297zp",702,"21.csv","","584.6000003814697","resources/trios/L4T2A2.jpg","38","restless",0.4,0.9,0.4,0.446196394449224,"true"
"image-keyboard-response",417,364346,"0.0-3.135-1.135","p0xejw149v297zp",702,"21.csv","","null","resources/maskTrios/BT2B.jpg","null","",NA,NA,NA,NA,""
"image-keyboard-response",418,365550,"0.0-3.135-2.135","p0xejw149v297zp",702,"21.csv","","null","resources/images/coin2.png","null","",NA,NA,NA,NA,""
"image-keyboard-response",419,366088,"0.0-3.136-0.136","p0xejw149v297zp",702,"21.csv","","536.2000002861023","resources/trios/L1T2A3.jpg","38","restless",0.4,0.9,0.5,0.120680627706294,"true"
"image-keyboard-response",420,366493,"0.0-3.136-1.136","p0xejw149v297zp",702,"21.csv","","null","resources/maskTrios/BT2B.jpg","null","",NA,NA,NA,NA,""
"image-keyboard-response",421,367698,"0.0-3.136-2.136","p0xejw149v297zp",702,"21.csv","","null","resources/images/coin2.png","null","",NA,NA,NA,NA,""
"image-keyboard-response",422,368784,"0.0-3.137-0.137","p0xejw149v297zp",702,"21.csv","","1084.4000000953674","resources/trios/L1T2A3.jpg","38","restless",0.3,0.9,0.5,0.874099110110836,"true"
"image-keyboard-response",423,369188,"0.0-3.137-1.137","p0xejw149v297zp",702,"21.csv","","null","resources/maskTrios/BT2B.jpg","null","",NA,NA,NA,NA,""
"image-keyboard-response",424,370391,"0.0-3.137-2.137","p0xejw149v297zp",702,"21.csv","","null","resources/images/coin2.png","null","",NA,NA,NA,NA,""
"image-keyboard-response",425,370691,"0.0-3.138-0.138","p0xejw149v297zp",702,"21.csv","","297.09999990463257","resources/trios/L4T1A2.jpg","38","restless",0.3,0.8,0.5,0.867372978550315,"false"
"image-keyboard-response",426,371095,"0.0-3.138-1.138","p0xejw149v297zp",702,"21.csv","","null","resources/maskTrios/BT1B.jpg","null","",NA,NA,NA,NA,""
"image-keyboard-response",427,372298,"0.0-3.138-2.138","p0xejw149v297zp",702,"21.csv","","null","resources/images/fishbone.png","null","",NA,NA,NA,NA,""
"image-keyboard-response",428,499529,"0.0-3.139-0.139","p0xejw149v297zp",702,"21.csv","","127234.30000019073","resources/trios/L4T2A2.jpg","38","restless",0.3,0.8,0.5,0.422663816452128,"true"
"image-keyboard-response",429,499933,"0.0-3.139-1.139","p0xejw149v297zp",702,"21.csv","","null","resources/maskTrios/BT2B.jpg","null","",NA,NA,NA,NA,""
"image-keyboard-response",430,501136,"0.0-3.139-2.139","p0xejw149v297zp",702,"21.csv","","null","resources/images/coin2.png","null","",NA,NA,NA,NA,""
"image-keyboard-response",431,501738,"0.0-3.140-0.140","p0xejw149v297zp",702,"21.csv","","599.9000000953674","resources/trios/L1T2A3.jpg","38","restless",0.3,0.8,0.5,0.642077178316317,"true"
"image-keyboard-response",432,502142,"0.0-3.140-1.140","p0xejw149v297zp",702,"21.csv","","null","resources/maskTrios/BT2B.jpg","null","",NA,NA,NA,NA,""
"image-keyboard-response",433,503346,"0.0-3.140-2.140","p0xejw149v297zp",702,"21.csv","","null","resources/images/coin2.png","null","",NA,NA,NA,NA,""
"image-keyboard-response",434,503672,"0.0-3.141-0.141","p0xejw149v297zp",702,"21.csv","","324.09999990463257","resources/trios/L1T1A3.jpg","38","restless",0.3,0.7,0.5,0.771076695098214,"false"
"image-keyboard-response",435,504076,"0.0-3.141-1.141","p0xejw149v297zp",702,"21.csv","","null","resources/maskTrios/BT1B.jpg","null","",NA,NA,NA,NA,""
"image-keyboard-response",436,505279,"0.0-3.141-2.141","p0xejw149v297zp",702,"21.csv","","null","resources/images/fishbone.png","null","",NA,NA,NA,NA,""
"image-keyboard-response",437,505347,"0.0-3.142-0.142","p0xejw149v297zp",702,"21.csv","","66.5","resources/trios/L4T1A3.jpg","39","restless",0.3,0.7,0.5,0.552329482181143,"false"
"image-keyboard-response",438,505750,"0.0-3.142-1.142","p0xejw149v297zp",702,"21.csv","","null","resources/maskTrios/BBA3.jpg","null","",NA,NA,NA,NA,""
"image-keyboard-response",439,506953,"0.0-3.142-2.142","p0xejw149v297zp",702,"21.csv","","null","resources/images/fishbone.png","null","",NA,NA,NA,NA,""
"image-keyboard-response",440,507417,"0.0-3.143-0.143","p0xejw149v297zp",702,"21.csv","","462.90000009536743","resources/trios/L1T2A3.jpg","37","restless",0.3,0.7,0.6,0.00799448544513082,"true"
"image-keyboard-response",441,507821,"0.0-3.143-1.143","p0xejw149v297zp",702,"21.csv","","null","resources/maskTrios/L1BB.jpg","null","",NA,NA,NA,NA,""
"image-keyboard-response",442,509023,"0.0-3.143-2.143","p0xejw149v297zp",702,"21.csv","","null","resources/images/coin2.png","null","",NA,NA,NA,NA,""
"image-keyboard-response",443,509038,"0.0-3.144-0.144","p0xejw149v297zp",702,"21.csv","","12.899999618530273","resources/trios/L4T1A3.jpg","37","restless",0.3,0.7,0.6,0.92896880844018,"false"
"image-keyboard-response",444,509442,"0.0-3.144-1.144","p0xejw149v297zp",702,"21.csv","","null","resources/maskTrios/L4BB.jpg","null","",NA,NA,NA,NA,""
"image-keyboard-response",445,510645,"0.0-3.144-2.144","p0xejw149v297zp",702,"21.csv","","null","resources/images/fishbone.png","null","",NA,NA,NA,NA,""
"image-keyboard-response",446,511060,"0.0-3.145-0.145","p0xejw149v297zp",702,"21.csv","","413.19999980926514","resources/trios/L1T2A3.jpg","37","restless",0.3,0.7,0.6,0.651713056638441,"false"
"image-keyboard-response",447,511464,"0.0-3.145-1.145","p0xejw149v297zp",702,"21.csv","","null","resources/maskTrios/L1BB.jpg","null","",NA,NA,NA,NA,""
"image-keyboard-response",448,512666,"0.0-3.145-2.145","p0xejw149v297zp",702,"21.csv","","null","resources/images/fishbone.png","null","",NA,NA,NA,NA,""
"image-keyboard-response",449,513058,"0.0-3.146-0.146","p0xejw149v297zp",702,"21.csv","","389.30000019073486","resources/trios/L4T1A3.jpg","39","restless",0.3,0.7,0.6,0.0254383670752052,"true"
"image-keyboard-response",450,513462,"0.0-3.146-1.146","p0xejw149v297zp",702,"21.csv","","null","resources/maskTrios/BBA3.jpg","null","",NA,NA,NA,NA,""
"image-keyboard-response",451,514664,"0.0-3.146-2.146","p0xejw149v297zp",702,"21.csv","","null","resources/images/coin2.png","null","",NA,NA,NA,NA,""
"image-keyboard-response",452,515049,"0.0-3.147-0.147","p0xejw149v297zp",702,"21.csv","","383.19999980926514","resources/trios/L4T1A2.jpg","39","restless",0.3,0.7,0.6,0.29248937155546,"true"
"image-keyboard-response",453,515452,"0.0-3.147-1.147","p0xejw149v297zp",702,"21.csv","","null","resources/maskTrios/BBA2.jpg","null","",NA,NA,NA,NA,""
"image-keyboard-response",454,516656,"0.0-3.147-2.147","p0xejw149v297zp",702,"21.csv","","null","resources/images/coin2.png","null","",NA,NA,NA,NA,""
"image-keyboard-response",455,516994,"0.0-3.148-0.148","p0xejw149v297zp",702,"21.csv","","336.7000002861023","resources/trios/L4T2A3.jpg","39","restless",0.3,0.7,0.6,0.779946694257771,"false"
"image-keyboard-response",456,517396,"0.0-3.148-1.148","p0xejw149v297zp",702,"21.csv","","null","resources/maskTrios/BBA3.jpg","null","",NA,NA,NA,NA,""
"image-keyboard-response",457,518598,"0.0-3.148-2.148","p0xejw149v297zp",702,"21.csv","","null","resources/images/fishbone.png","null","",NA,NA,NA,NA,""
"image-keyboard-response",458,518964,"0.0-3.149-0.149","p0xejw149v297zp",702,"21.csv","","363.80000019073486","resources/trios/L4T2A2.jpg","38","restless",0.3,0.7,0.6,0.701909989919553,"false"
"image-keyboard-response",459,519366,"0.0-3.149-1.149","p0xejw149v297zp",702,"21.csv","","null","resources/maskTrios/BT2B.jpg","null","",NA,NA,NA,NA,""
"image-keyboard-response",460,520569,"0.0-3.149-2.149","p0xejw149v297zp",702,"21.csv","","null","resources/images/fishbone.png","null","",NA,NA,NA,NA,""
"image-keyboard-response",461,521910,"0.0-3.150-0.150","p0xejw149v297zp",702,"21.csv","","1339.4000000953674","resources/trios/L1T2A3.jpg","37","restless",0.3,0.7,0.6,0.86263363647944,"false"
"image-keyboard-response",462,522313,"0.0-3.150-1.150","p0xejw149v297zp",702,"21.csv","","null","resources/maskTrios/L1BB.jpg","null","",NA,NA,NA,NA,""
"image-keyboard-response",463,523515,"0.0-3.150-2.150","p0xejw149v297zp",702,"21.csv","","null","resources/images/fishbone.png","null","",NA,NA,NA,NA,""
"image-keyboard-response",464,523565,"0.0-3.151-0.151","p0xejw149v297zp",702,"21.csv","","48.19999980926514","resources/trios/L4T1A2.jpg","39","restless",0.3,0.7,0.6,0.0136807122200207,"true"
"image-keyboard-response",465,523972,"0.0-3.151-1.151","p0xejw149v297zp",702,"21.csv","","null","resources/maskTrios/BBA2.jpg","null","",NA,NA,NA,NA,""
"image-keyboard-response",466,525176,"0.0-3.151-2.151","p0xejw149v297zp",702,"21.csv","","null","resources/images/coin2.png","null","",NA,NA,NA,NA,""
"image-keyboard-response",467,59720487,"0.0-3.152-0.152","p0xejw149v297zp",702,"21.csv","","43188984.700000286","resources/trios/L1T1A3.jpg","39","restless",0.3,0.7,0.6,0.873633216227637,"false"
"image-keyboard-response",468,59720892,"0.0-3.152-1.152","p0xejw149v297zp",702,"21.csv","","null","resources/maskTrios/BBA3.jpg","null","",NA,NA,NA,NA,""
"image-keyboard-response",469,59722098,"0.0-3.152-2.152","p0xejw149v297zp",702,"21.csv","","null","resources/images/fishbone.png","null","",NA,NA,NA,NA,""
"image-keyboard-response",470,59726282,"0.0-3.153-0.153","p0xejw149v297zp",702,"21.csv","","4180.200000286102","resources/trios/L1T2A3.jpg","37","restless",0.3,0.7,0.6,0.714062864882602,"false"
"image-keyboard-response",471,59726685,"0.0-3.153-1.153","p0xejw149v297zp",702,"21.csv","","null","resources/maskTrios/L1BB.jpg","null","",NA,NA,NA,NA,""
"image-keyboard-response",472,59727887,"0.0-3.153-2.153","p0xejw149v297zp",702,"21.csv","","null","resources/images/fishbone.png","null","",NA,NA,NA,NA,""
"image-keyboard-response",473,59729824,"0.0-3.154-0.154","p0xejw149v297zp",702,"21.csv","","1933","resources/trios/L4T1A3.jpg","38","restless",0.3,0.7,0.6,0.709566689680208,"false"
"image-keyboard-response",474,59730227,"0.0-3.154-1.154","p0xejw149v297zp",702,"21.csv","","null","resources/maskTrios/BT1B.jpg","null","",NA,NA,NA,NA,""
"image-keyboard-response",475,59731431,"0.0-3.154-2.154","p0xejw149v297zp",702,"21.csv","","null","resources/images/fishbone.png","null","",NA,NA,NA,NA,""
"image-keyboard-response",476,59732684,"0.0-3.155-0.155","p0xejw149v297zp",702,"21.csv","","1249.6999998092651","resources/trios/L1T1A2.jpg","39","restless",0.3,0.8,0.6,0.531407745644977,"true"
"image-keyboard-response",477,59733087,"0.0-3.155-1.155","p0xejw149v297zp",702,"21.csv","","null","resources/maskTrios/BBA2.jpg","null","",NA,NA,NA,NA,""
"image-keyboard-response",478,59734290,"0.0-3.155-2.155","p0xejw149v297zp",702,"21.csv","","null","resources/images/coin2.png","null","",NA,NA,NA,NA,""
"image-keyboard-response",479,59737244,"0.0-3.156-0.156","p0xejw149v297zp",702,"21.csv","","2951.4000000953674","resources/trios/L4T1A3.jpg","39","restless",0.3,0.8,0.6,0.499645495890699,"true"
"image-keyboard-response",480,59737649,"0.0-3.156-1.156","p0xejw149v297zp",702,"21.csv","","null","resources/maskTrios/BBA3.jpg","null","",NA,NA,NA,NA,""
"image-keyboard-response",481,59738854,"0.0-3.156-2.156","p0xejw149v297zp",702,"21.csv","","null","resources/images/coin2.png","null","",NA,NA,NA,NA,""
"image-keyboard-response",482,59759440,"0.0-3.157-0.157","p0xejw149v297zp",702,"21.csv","","20582.599999904633","resources/trios/L1T2A3.jpg","39","restless",0.3,0.8,0.6,0.21414343594635,"true"
"image-keyboard-response",483,59759843,"0.0-3.157-1.157","p0xejw149v297zp",702,"21.csv","","null","resources/maskTrios/BBA3.jpg","null","",NA,NA,NA,NA,""
"image-keyboard-response",484,59761045,"0.0-3.157-2.157","p0xejw149v297zp",702,"21.csv","","null","resources/images/coin2.png","null","",NA,NA,NA,NA,""
"image-keyboard-response",485,59764830,"0.0-3.158-0.158","p0xejw149v297zp",702,"21.csv","","3782.2000002861023","resources/trios/L1T1A2.jpg","39","restless",0.3,0.8,0.6,0.409706731009667,"true"
"image-keyboard-response",486,59765233,"0.0-3.158-1.158","p0xejw149v297zp",702,"21.csv","","null","resources/maskTrios/BBA2.jpg","null","",NA,NA,NA,NA,""
"image-keyboard-response",487,59766438,"0.0-3.158-2.158","p0xejw149v297zp",702,"21.csv","","null","resources/images/coin2.png","null","",NA,NA,NA,NA,""
"image-keyboard-response",488,59768179,"0.0-3.159-0.159","p0xejw149v297zp",702,"21.csv","","1739.2000002861023","resources/trios/L1T2A2.jpg","39","restless",0.3,0.8,0.6,0.586249203159896,"true"
"image-keyboard-response",489,59768583,"0.0-3.159-1.159","p0xejw149v297zp",702,"21.csv","","null","resources/maskTrios/BBA2.jpg","null","",NA,NA,NA,NA,""
"image-keyboard-response",490,59769787,"0.0-3.159-2.159","p0xejw149v297zp",702,"21.csv","","null","resources/images/coin2.png","null","",NA,NA,NA,NA,""
"image-keyboard-response",491,59779371,"0.0-3.160-0.160","p0xejw149v297zp",702,"21.csv","","9582.400000095367","resources/trios/L4T2A3.jpg","39","restless",0.3,0.8,0.6,0.55216760534894,"true"
"image-keyboard-response",492,59779775,"0.0-3.160-1.160","p0xejw149v297zp",702,"21.csv","","null","resources/maskTrios/BBA3.jpg","null","",NA,NA,NA,NA,""
"image-keyboard-response",493,59780978,"0.0-3.160-2.160","p0xejw149v297zp",702,"21.csv","","null","resources/images/coin2.png","null","",NA,NA,NA,NA,""
"image-keyboard-response",494,59782236,"0.0-3.161-0.161","p0xejw149v297zp",702,"21.csv","","1255.2999997138977","resources/trios/L4T2A3.jpg","39","restless",0.2,0.8,0.6,0.231134912678707,"true"
"image-keyboard-response",495,59782640,"0.0-3.161-1.161","p0xejw149v297zp",702,"21.csv","","null","resources/maskTrios/BBA3.jpg","null","",NA,NA,NA,NA,""
"image-keyboard-response",496,59783842,"0.0-3.161-2.161","p0xejw149v297zp",702,"21.csv","","null","resources/images/coin2.png","null","",NA,NA,NA,NA,""
"image-keyboard-response",497,59786756,"0.0-3.162-0.162","p0xejw149v297zp",702,"21.csv","","2911.800000190735","resources/trios/L4T2A2.jpg","39","restless",0.2,0.8,0.6,0.166145402412349,"true"
"image-keyboard-response",498,59787159,"0.0-3.162-1.162","p0xejw149v297zp",702,"21.csv","","null","resources/maskTrios/BBA2.jpg","null","",NA,NA,NA,NA,""
"image-keyboard-response",499,59788361,"0.0-3.162-2.162","p0xejw149v297zp",702,"21.csv","","null","resources/images/coin2.png","null","",NA,NA,NA,NA,""
"image-keyboard-response",500,59802847,"0.0-3.163-0.163","p0xejw149v297zp",702,"21.csv","","14483.699999809265","resources/trios/L1T2A3.jpg","39","restless",0.2,0.8,0.6,0.473981292202774,"true"
"image-keyboard-response",501,59803252,"0.0-3.163-1.163","p0xejw149v297zp",702,"21.csv","","null","resources/maskTrios/BBA3.jpg","null","",NA,NA,NA,NA,""
"image-keyboard-response",502,59804457,"0.0-3.163-2.163","p0xejw149v297zp",702,"21.csv","","null","resources/images/coin2.png","null","",NA,NA,NA,NA,""
"image-keyboard-response",503,59825347,"0.0-3.164-0.164","p0xejw149v297zp",702,"21.csv","","20889.599999904633","resources/trios/L4T2A2.jpg","39","restless",0.2,0.8,0.6,0.412877639205632,"true"
"image-keyboard-response",504,59825752,"0.0-3.164-1.164","p0xejw149v297zp",702,"21.csv","","null","resources/maskTrios/BBA2.jpg","null","",NA,NA,NA,NA,""
"image-keyboard-response",505,59826956,"0.0-3.164-2.164","p0xejw149v297zp",702,"21.csv","","null","resources/images/coin2.png","null","",NA,NA,NA,NA,""
"image-keyboard-response",506,59827105,"0.0-3.165-0.165","p0xejw149v297zp",702,"21.csv","","146.5","resources/trios/L1T2A2.jpg","39","restless",0.2,0.8,0.6,0.69613527351656,"false"
"image-keyboard-response",507,59827508,"0.0-3.165-1.165","p0xejw149v297zp",702,"21.csv","","null","resources/maskTrios/BBA2.jpg","null","",NA,NA,NA,NA,""
"image-keyboard-response",508,59828710,"0.0-3.165-2.165","p0xejw149v297zp",702,"21.csv","","null","resources/images/fishbone.png","null","",NA,NA,NA,NA,""
"image-keyboard-response",509,59829092,"0.0-3.166-0.166","p0xejw149v297zp",702,"21.csv","","380.19999980926514","resources/trios/L1T1A2.jpg","37","restless",0.2,0.8,0.6,0.791848195219118,"false"
"image-keyboard-response",510,59829495,"0.0-3.166-1.166","p0xejw149v297zp",702,"21.csv","","null","resources/maskTrios/L1BB.jpg","null","",NA,NA,NA,NA,""
"image-keyboard-response",511,59830698,"0.0-3.166-2.166","p0xejw149v297zp",702,"21.csv","","null","resources/images/fishbone.png","null","",NA,NA,NA,NA,""
"image-keyboard-response",512,59888686,"0.0-3.167-0.167","p0xejw149v297zp",702,"21.csv","","57988.40000009537","resources/trios/L1T1A3.jpg","39","restless",0.2,0.7,0.6,0.378539435301675,"true"
"image-keyboard-response",513,59889090,"0.0-3.167-1.167","p0xejw149v297zp",702,"21.csv","","null","resources/maskTrios/BBA3.jpg","null","",NA,NA,NA,NA,""
"image-keyboard-response",514,59890293,"0.0-3.167-2.167","p0xejw149v297zp",702,"21.csv","","null","resources/images/coin2.png","null","",NA,NA,NA,NA,""
"image-keyboard-response",515,59893098,"0.0-3.168-0.168","p0xejw149v297zp",702,"21.csv","","2802.800000190735","resources/trios/L4T1A2.jpg","39","restless",0.2,0.7,0.6,0.665178552775057,"false"
"image-keyboard-response",516,59893503,"0.0-3.168-1.168","p0xejw149v297zp",702,"21.csv","","null","resources/maskTrios/BBA2.jpg","null","",NA,NA,NA,NA,""
"image-keyboard-response",517,59894706,"0.0-3.168-2.168","p0xejw149v297zp",702,"21.csv","","null","resources/images/fishbone.png","null","",NA,NA,NA,NA,""
"image-keyboard-response",518,59902884,"0.0-3.169-0.169","p0xejw149v297zp",702,"21.csv","","8176.199999809265","resources/trios/L1T1A3.jpg","39","restless",0.2,0.7,0.6,0.594857022234425,"true"
"image-keyboard-response",519,59903289,"0.0-3.169-1.169","p0xejw149v297zp",702,"21.csv","","null","resources/maskTrios/BBA3.jpg","null","",NA,NA,NA,NA,""
"image-keyboard-response",520,59904491,"0.0-3.169-2.169","p0xejw149v297zp",702,"21.csv","","null","resources/images/coin2.png","null","",NA,NA,NA,NA,""
"image-keyboard-response",521,59905757,"0.0-3.170-0.170","p0xejw149v297zp",702,"21.csv","","1263.9000000953674","resources/trios/L4T1A3.jpg","39","restless",0.1,0.7,0.6,0.328973783886952,"true"
"image-keyboard-response",522,59906160,"0.0-3.170-1.170","p0xejw149v297zp",702,"21.csv","","null","resources/maskTrios/BBA3.jpg","null","",NA,NA,NA,NA,""
"image-keyboard-response",523,59907363,"0.0-3.170-2.170","p0xejw149v297zp",702,"21.csv","","null","resources/images/coin2.png","null","",NA,NA,NA,NA,""
"image-keyboard-response",524,59921736,"0.0-3.171-0.171","p0xejw149v297zp",702,"21.csv","","14371.099999904633","resources/trios/L4T1A2.jpg","37","restless",0.1,0.6,0.6,0.583594699737556,"false"
"image-keyboard-response",525,59922140,"0.0-3.171-1.171","p0xejw149v297zp",702,"21.csv","","null","resources/maskTrios/L4BB.jpg","null","",NA,NA,NA,NA,""
"image-keyboard-response",526,59923342,"0.0-3.171-2.171","p0xejw149v297zp",702,"21.csv","","null","resources/images/fishbone.png","null","",NA,NA,NA,NA,""
"image-keyboard-response",527,59924001,"0.0-3.172-0.172","p0xejw149v297zp",702,"21.csv","","657.0999999046326","resources/trios/L1T1A3.jpg","39","restless",0.1,0.6,0.6,0.98413815979688,"false"
"image-keyboard-response",528,59924406,"0.0-3.172-1.172","p0xejw149v297zp",702,"21.csv","","null","resources/maskTrios/BBA3.jpg","null","",NA,NA,NA,NA,""
"image-keyboard-response",529,59925608,"0.0-3.172-2.172","p0xejw149v297zp",702,"21.csv","","null","resources/images/fishbone.png","null","",NA,NA,NA,NA,""
"image-keyboard-response",530,59930392,"0.0-3.173-0.173","p0xejw149v297zp",702,"21.csv","","4782.199999809265","resources/trios/L1T1A2.jpg","39","restless",0.1,0.6,0.6,0.275968294823053,"true"
"image-keyboard-response",531,59930795,"0.0-3.173-1.173","p0xejw149v297zp",702,"21.csv","","null","resources/maskTrios/BBA2.jpg","null","",NA,NA,NA,NA,""
"image-keyboard-response",532,59932000,"0.0-3.173-2.173","p0xejw149v297zp",702,"21.csv","","null","resources/images/coin2.png","null","",NA,NA,NA,NA,""
"image-keyboard-response",533,59933652,"0.0-3.174-0.174","p0xejw149v297zp",702,"21.csv","","1649.5999999046326","resources/trios/L4T2A2.jpg","39","restless",0.1,0.6,0.6,0.0793445100497341,"true"
"image-keyboard-response",534,59934055,"0.0-3.174-1.174","p0xejw149v297zp",702,"21.csv","","null","resources/maskTrios/BBA2.jpg","null","",NA,NA,NA,NA,""
"image-keyboard-response",535,59935257,"0.0-3.174-2.174","p0xejw149v297zp",702,"21.csv","","null","resources/images/coin2.png","null","",NA,NA,NA,NA,""
"image-keyboard-response",536,59935696,"0.0-3.175-0.175","p0xejw149v297zp",702,"21.csv","","436.90000009536743","resources/trios/L4T2A3.jpg","39","restless",0.1,0.5,0.6,0.678774014207456,"false"
"image-keyboard-response",537,59936101,"0.0-3.175-1.175","p0xejw149v297zp",702,"21.csv","","null","resources/maskTrios/BBA3.jpg","null","",NA,NA,NA,NA,""
"image-keyboard-response",538,59937305,"0.0-3.175-2.175","p0xejw149v297zp",702,"21.csv","","null","resources/images/fishbone.png","null","",NA,NA,NA,NA,""
"image-keyboard-response",539,59944277,"0.0-3.176-0.176","p0xejw149v297zp",702,"21.csv","","6969.599999904633","resources/trios/L1T2A3.jpg","38","restless",0.1,0.5,0.6,0.197059703387761,"true"
"image-keyboard-response",540,59944681,"0.0-3.176-1.176","p0xejw149v297zp",702,"21.csv","","null","resources/maskTrios/BT2B.jpg","null","",NA,NA,NA,NA,""
"image-keyboard-response",541,59945885,"0.0-3.176-2.176","p0xejw149v297zp",702,"21.csv","","null","resources/images/coin2.png","null","",NA,NA,NA,NA,""
"image-keyboard-response",542,59946330,"0.0-3.177-0.177","p0xejw149v297zp",702,"21.csv","","442.69999980926514","resources/trios/L4T2A2.jpg","38","restless",0.1,0.5,0.6,0.00412303474264264,"true"
"image-keyboard-response",543,59946735,"0.0-3.177-1.177","p0xejw149v297zp",702,"21.csv","","null","resources/maskTrios/BT2B.jpg","null","",NA,NA,NA,NA,""
"image-keyboard-response",544,59947937,"0.0-3.177-2.177","p0xejw149v297zp",702,"21.csv","","null","resources/images/coin2.png","null","",NA,NA,NA,NA,""
"image-keyboard-response",545,59948336,"0.0-3.178-0.178","p0xejw149v297zp",702,"21.csv","","396.5","resources/trios/L1T1A2.jpg","38","restless",0.1,0.5,0.6,0.967220855145366,"false"
"image-keyboard-response",546,59948739,"0.0-3.178-1.178","p0xejw149v297zp",702,"21.csv","","null","resources/maskTrios/BT1B.jpg","null","",NA,NA,NA,NA,""
"image-keyboard-response",547,59949942,"0.0-3.178-2.178","p0xejw149v297zp",702,"21.csv","","null","resources/images/fishbone.png","null","",NA,NA,NA,NA,""
"image-keyboard-response",548,59950263,"0.0-3.179-0.179","p0xejw149v297zp",702,"21.csv","","319.19999980926514","resources/trios/L4T1A3.jpg","39","restless",0.2,0.5,0.6,0.434104486955314,"true"
"image-keyboard-response",549,59950668,"0.0-3.179-1.179","p0xejw149v297zp",702,"21.csv","","null","resources/maskTrios/BBA3.jpg","null","",NA,NA,NA,NA,""
"image-keyboard-response",550,59951870,"0.0-3.179-2.179","p0xejw149v297zp",702,"21.csv","","null","resources/images/coin2.png","null","",NA,NA,NA,NA,""
"image-keyboard-response",551,59952238,"0.0-3.180-0.180","p0xejw149v297zp",702,"21.csv","","365.30000019073486","resources/trios/L4T1A2.jpg","39","restless",0.2,0.5,0.7,0.138954734228946,"true"
"image-keyboard-response",552,59952641,"0.0-3.180-1.180","p0xejw149v297zp",702,"21.csv","","null","resources/maskTrios/BBA2.jpg","null","",NA,NA,NA,NA,""
"image-keyboard-response",553,59953844,"0.0-3.180-2.180","p0xejw149v297zp",702,"21.csv","","null","resources/images/coin2.png","null","",NA,NA,NA,NA,""
"image-keyboard-response",554,59955270,"0.0-3.181-0.181","p0xejw149v297zp",702,"21.csv","","1424.3000001907349","resources/trios/L4T1A3.jpg","39","restless",0.2,0.5,0.7,0.607931186476006,"true"
"image-keyboard-response",555,59955672,"0.0-3.181-1.181","p0xejw149v297zp",702,"21.csv","","null","resources/maskTrios/BBA3.jpg","null","",NA,NA,NA,NA,""
"image-keyboard-response",556,59956875,"0.0-3.181-2.181","p0xejw149v297zp",702,"21.csv","","null","resources/images/coin2.png","null","",NA,NA,NA,NA,""
"image-keyboard-response",557,59956929,"0.0-3.182-0.182","p0xejw149v297zp",702,"21.csv","","51.5","resources/trios/L4T2A3.jpg","38","restless",0.2,0.5,0.7,0.730569921153219,"false"
"image-keyboard-response",558,59957333,"0.0-3.182-1.182","p0xejw149v297zp",702,"21.csv","","null","resources/maskTrios/BT2B.jpg","null","",NA,NA,NA,NA,""
"image-keyboard-response",559,59958537,"0.0-3.182-2.182","p0xejw149v297zp",702,"21.csv","","null","resources/images/fishbone.png","null","",NA,NA,NA,NA,""
"image-keyboard-response",560,59958727,"0.0-3.183-0.183","p0xejw149v297zp",702,"21.csv","","187.90000009536743","resources/trios/L1T1A2.jpg","39","restless",0.2,0.5,0.7,0.331428716192383,"true"
"image-keyboard-response",561,59959131,"0.0-3.183-1.183","p0xejw149v297zp",702,"21.csv","","null","resources/maskTrios/BBA2.jpg","null","",NA,NA,NA,NA,""
"image-keyboard-response",562,59960336,"0.0-3.183-2.183","p0xejw149v297zp",702,"21.csv","","null","resources/images/coin2.png","null","",NA,NA,NA,NA,""
"image-keyboard-response",563,59963701,"0.0-3.184-0.184","p0xejw149v297zp",702,"21.csv","","3363.199999809265","resources/trios/L1T1A3.jpg","39","restless",0.2,0.5,0.7,0.487707185953455,"true"
"image-keyboard-response",564,59964103,"0.0-3.184-1.184","p0xejw149v297zp",702,"21.csv","","null","resources/maskTrios/BBA3.jpg","null","",NA,NA,NA,NA,""
"image-keyboard-response",565,59965305,"0.0-3.184-2.184","p0xejw149v297zp",702,"21.csv","","null","resources/images/coin2.png","null","",NA,NA,NA,NA,""
"image-keyboard-response",566,60001221,"0.0-3.185-0.185","p0xejw149v297zp",702,"21.csv","","35915","resources/trios/L4T1A2.jpg","39","restless",0.2,0.5,0.6,0.635359660253954,"false"
"image-keyboard-response",567,60001624,"0.0-3.185-1.185","p0xejw149v297zp",702,"21.csv","","null","resources/maskTrios/BBA2.jpg","null","",NA,NA,NA,NA,""
"image-keyboard-response",568,60002827,"0.0-3.185-2.185","p0xejw149v297zp",702,"21.csv","","null","resources/images/fishbone.png","null","",NA,NA,NA,NA,""
"image-keyboard-response",569,60004051,"0.0-3.186-0.186","p0xejw149v297zp",702,"21.csv","","1222.5999999046326","resources/trios/L1T1A3.jpg","39","restless",0.2,0.5,0.6,0.656997952114051,"false"
"image-keyboard-response",570,60004454,"0.0-3.186-1.186","p0xejw149v297zp",702,"21.csv","","null","resources/maskTrios/BBA3.jpg","null","",NA,NA,NA,NA,""
"image-keyboard-response",571,60005656,"0.0-3.186-2.186","p0xejw149v297zp",702,"21.csv","","null","resources/images/fishbone.png","null","",NA,NA,NA,NA,""
"image-keyboard-response",572,60015494,"0.0-3.187-0.187","p0xejw149v297zp",702,"21.csv","","9836.699999809265","resources/trios/L4T2A2.jpg","39","restless",0.3,0.5,0.6,0.78770181792528,"false"
"image-keyboard-response",573,60015898,"0.0-3.187-1.187","p0xejw149v297zp",702,"21.csv","","null","resources/maskTrios/BBA2.jpg","null","",NA,NA,NA,NA,""
"image-keyboard-response",574,60017102,"0.0-3.187-2.187","p0xejw149v297zp",702,"21.csv","","null","resources/images/fishbone.png","null","",NA,NA,NA,NA,""
"image-keyboard-response",575,60018615,"0.0-3.188-0.188","p0xejw149v297zp",702,"21.csv","","1510.8000001907349","resources/trios/L4T2A2.jpg","38","restless",0.3,0.5,0.6,0.645462605305938,"false"
"image-keyboard-response",576,60019019,"0.0-3.188-1.188","p0xejw149v297zp",702,"21.csv","","null","resources/maskTrios/BT2B.jpg","null","",NA,NA,NA,NA,""
"image-keyboard-response",577,60020220,"0.0-3.188-2.188","p0xejw149v297zp",702,"21.csv","","null","resources/images/fishbone.png","null","",NA,NA,NA,NA,""
"image-keyboard-response",578,60033991,"0.0-3.189-0.189","p0xejw149v297zp",702,"21.csv","","13768.599999904633","resources/trios/L4T1A2.jpg","38","restless",0.3,0.5,0.6,0.599108673989144,"false"
"image-keyboard-response",579,60034395,"0.0-3.189-1.189","p0xejw149v297zp",702,"21.csv","","null","resources/maskTrios/BT1B.jpg","null","",NA,NA,NA,NA,""
"image-keyboard-response",580,60035597,"0.0-3.189-2.189","p0xejw149v297zp",702,"21.csv","","null","resources/images/fishbone.png","null","",NA,NA,NA,NA,""
"image-keyboard-response",581,60036055,"0.0-3.190-0.190","p0xejw149v297zp",702,"21.csv","","456","resources/trios/L4T1A2.jpg","39","restless",0.3,0.5,0.6,0.737650012175783,"false"
"image-keyboard-response",582,60036458,"0.0-3.190-1.190","p0xejw149v297zp",702,"21.csv","","null","resources/maskTrios/BBA2.jpg","null","",NA,NA,NA,NA,""
"image-keyboard-response",583,60037661,"0.0-3.190-2.190","p0xejw149v297zp",702,"21.csv","","null","resources/images/fishbone.png","null","",NA,NA,NA,NA,""
"image-keyboard-response",584,60040428,"0.0-3.191-0.191","p0xejw149v297zp",702,"21.csv","","2764.4000000953674","resources/trios/L4T2A2.jpg","37","restless",0.3,0.5,0.6,0.735050527834058,"false"
"image-keyboard-response",585,60040833,"0.0-3.191-1.191","p0xejw149v297zp",702,"21.csv","","null","resources/maskTrios/L4BB.jpg","null","",NA,NA,NA,NA,""
"image-keyboard-response",586,60042035,"0.0-3.191-2.191","p0xejw149v297zp",702,"21.csv","","null","resources/images/fishbone.png","null","",NA,NA,NA,NA,""
"image-keyboard-response",587,60042740,"0.0-3.192-0.192","p0xejw149v297zp",702,"21.csv","","702.4000000953674","resources/trios/L1T2A3.jpg","39","restless",0.3,0.5,0.6,0.479698879603904,"true"
"image-keyboard-response",588,60043144,"0.0-3.192-1.192","p0xejw149v297zp",702,"21.csv","","null","resources/maskTrios/BBA3.jpg","null","",NA,NA,NA,NA,""
"image-keyboard-response",589,60044348,"0.0-3.192-2.192","p0xejw149v297zp",702,"21.csv","","null","resources/images/coin2.png","null","",NA,NA,NA,NA,""
"image-keyboard-response",590,60044581,"0.0-3.193-0.193","p0xejw149v297zp",702,"21.csv","","230.40000009536743","resources/trios/L4T2A2.jpg","39","restless",0.3,0.5,0.6,0.288505382529994,"true"
"image-keyboard-response",591,60044985,"0.0-3.193-1.193","p0xejw149v297zp",702,"21.csv","","null","resources/maskTrios/BBA2.jpg","null","",NA,NA,NA,NA,""
"image-keyboard-response",592,60046187,"0.0-3.193-2.193","p0xejw149v297zp",702,"21.csv","","null","resources/images/coin2.png","null","",NA,NA,NA,NA,""
"image-keyboard-response",593,60046609,"0.0-3.194-0.194","p0xejw149v297zp",702,"21.csv","","419.69999980926514","resources/trios/L1T2A3.jpg","39","restless",0.4,0.5,0.6,0.734365930541055,"false"
"image-keyboard-response",594,60047014,"0.0-3.194-1.194","p0xejw149v297zp",702,"21.csv","","null","resources/maskTrios/BBA3.jpg","null","",NA,NA,NA,NA,""
"image-keyboard-response",595,60048218,"0.0-3.194-2.194","p0xejw149v297zp",702,"21.csv","","null","resources/images/fishbone.png","null","",NA,NA,NA,NA,""
"image-keyboard-response",596,60173484,"0.0-3.195-0.195","p0xejw149v297zp",702,"21.csv","","125268.89999961853","resources/trios/L1T1A3.jpg","39","restless",0.4,0.5,0.6,0.523097086317858,"true"
"image-keyboard-response",597,60173888,"0.0-3.195-1.195","p0xejw149v297zp",702,"21.csv","","null","resources/maskTrios/BBA3.jpg","null","",NA,NA,NA,NA,""
"image-keyboard-response",598,60175091,"0.0-3.195-2.195","p0xejw149v297zp",702,"21.csv","","null","resources/images/coin2.png","null","",NA,NA,NA,NA,""
"image-keyboard-response",599,60185219,"0.0-3.196-0.196","p0xejw149v297zp",702,"21.csv","","10125.5","resources/trios/L4T1A2.jpg","39","restless",0.4,0.5,0.6,0.120186266315839,"true"
"image-keyboard-response",600,60185622,"0.0-3.196-1.196","p0xejw149v297zp",702,"21.csv","","null","resources/maskTrios/BBA2.jpg","null","",NA,NA,NA,NA,""
"image-keyboard-response",601,60186825,"0.0-3.196-2.196","p0xejw149v297zp",702,"21.csv","","null","resources/images/coin2.png","null","",NA,NA,NA,NA,""
"image-keyboard-response",602,60196694,"0.0-3.197-0.197","p0xejw149v297zp",702,"21.csv","","9867.200000286102","resources/trios/L1T2A2.jpg","39","restless",0.4,0.5,0.6,0.545943340572403,"true"
"image-keyboard-response",603,60197099,"0.0-3.197-1.197","p0xejw149v297zp",702,"21.csv","","null","resources/maskTrios/BBA2.jpg","null","",NA,NA,NA,NA,""
"image-keyboard-response",604,60198301,"0.0-3.197-2.197","p0xejw149v297zp",702,"21.csv","","null","resources/images/coin2.png","null","",NA,NA,NA,NA,""
"image-keyboard-response",605,60200798,"0.0-3.198-0.198","p0xejw149v297zp",702,"21.csv","","2494.5999999046326","resources/trios/L4T2A3.jpg","39","restless",0.4,0.5,0.6,0.932073227865816,"false"
"image-keyboard-response",606,60201200,"0.0-3.198-1.198","p0xejw149v297zp",702,"21.csv","","null","resources/maskTrios/BBA3.jpg","null","",NA,NA,NA,NA,""
"image-keyboard-response",607,60202402,"0.0-3.198-2.198","p0xejw149v297zp",702,"21.csv","","null","resources/images/fishbone.png","null","",NA,NA,NA,NA,""
