"trial_type","trial_index","time_elapsed","internal_node_id","subject","walkNumber","success","rt","stimulus","key_press","test_part","leftProb","midProb","rightProb","generatedNum","correct"
"pavlovia",0,1165,"0.0-0.0","20g8gaznvzcrza5","133.csv","","","","","",NA,NA,NA,NA,""
"fullscreen",1,4723,"0.0-1.0","20g8gaznvzcrza5","133.csv","true","","","","",NA,NA,NA,NA,""
"html-keyboard-response",2,12109,"0.0-2.0-0.0","20g8gaznvzcrza5","133.csv","","7384","<p><font size='6'>Arrrgh!</p></font><p>Can you be the best pirate? Try to find lots of gold! But beware, some islands have more gold than others, and over time, the island with the most gold may change. Can YOU figure it out? </p><font size='6'>GOOD LUCK, CAPTAIN!!!</font><p>Press any key to begin</p>","32","",NA,NA,NA,NA,""
"image-keyboard-response",3,15113,"0.0-2.0-1.0","20g8gaznvzcrza5","133.csv","","null","resources/image_sets/111.png","null","",NA,NA,NA,NA,""
"image-keyboard-response",4,20165,"0.0-2.0-2.0","20g8gaznvzcrza5","133.csv","","5050.599999904633","resources/image_sets/left_highlight.png","37","",NA,NA,NA,NA,""
"image-keyboard-response",5,22234,"0.0-2.0-3.0","20g8gaznvzcrza5","133.csv","","2067","resources/image_sets/mid_highlight.png","38","",NA,NA,NA,NA,""
"image-keyboard-response",6,23126,"0.0-2.0-4.0","20g8gaznvzcrza5","133.csv","","891.8000001907349","resources/image_sets/right_highlight.png","39","",NA,NA,NA,NA,""
"image-keyboard-response",7,29885,"0.0-2.0-5.0","20g8gaznvzcrza5","133.csv","","6757.900000095367","resources/image_sets/111.png","13","",NA,NA,NA,NA,""
"image-keyboard-response",8,32556,"0.0-2.0-6.0","20g8gaznvzcrza5","133.csv","","2669.7999997138977","resources/images/coin2.png","13","",NA,NA,NA,NA,""
"image-keyboard-response",9,34727,"0.0-2.0-7.0","20g8gaznvzcrza5","133.csv","","2169.800000190735","resources/images/fishbone.png","13","",NA,NA,NA,NA,""
"html-keyboard-response",10,41252,"0.0-2.0-8.0","20g8gaznvzcrza5","133.csv","","6524.200000286102","<p>Your first journey will be a long one, but you will get a well deserved break at the end</p><p>After the break you will have four more journeys, but each will be much shorter than the first, and you will have breaks in between each</p><p>Press Enter to begin</p>","13","",NA,NA,NA,NA,""
"image-keyboard-response",11,43440,"0.0-3.0-0.0","20g8gaznvzcrza5","133.csv","","2184.800000190735","resources/trios/L4T2A3.jpg","39","restless",0.3,0.9,0.7,0.235513637085047,"true"
"image-keyboard-response",12,43846,"0.0-3.0-1.0","20g8gaznvzcrza5","133.csv","","null","resources/maskTrios/BBA3.jpg","null","",NA,NA,NA,NA,""
"image-keyboard-response",13,45049,"0.0-3.0-2.0","20g8gaznvzcrza5","133.csv","","null","resources/images/coin2.png","null","",NA,NA,NA,NA,""
"image-keyboard-response",14,46800,"0.0-3.1-0.1","20g8gaznvzcrza5","133.csv","","1749.7999997138977","resources/trios/L2T4A2.jpg","39","restless",0.3,0.9,0.7,0.307104532386703,"true"
"image-keyboard-response",15,47202,"0.0-3.1-1.1","20g8gaznvzcrza5","133.csv","","null","resources/maskTrios/BBA2.jpg","null","",NA,NA,NA,NA,""
"image-keyboard-response",16,48406,"0.0-3.1-2.1","20g8gaznvzcrza5","133.csv","","null","resources/images/coin2.png","null","",NA,NA,NA,NA,""
"image-keyboard-response",17,49305,"0.0-3.2-0.2","20g8gaznvzcrza5","133.csv","","897.2999997138977","resources/trios/L4T2A2.jpg","39","restless",0.4,0.9,0.7,0.0894401643617935,"true"
"image-keyboard-response",18,49709,"0.0-3.2-1.2","20g8gaznvzcrza5","133.csv","","null","resources/maskTrios/BBA2.jpg","null","",NA,NA,NA,NA,""
"image-keyboard-response",19,50912,"0.0-3.2-2.2","20g8gaznvzcrza5","133.csv","","null","resources/images/coin2.png","null","",NA,NA,NA,NA,""
"image-keyboard-response",20,51964,"0.0-3.3-0.3","20g8gaznvzcrza5","133.csv","","1050.5","resources/trios/L2T4A2.jpg","39","restless",0.4,0.9,0.7,0.543481277568008,"true"
"image-keyboard-response",21,52368,"0.0-3.3-1.3","20g8gaznvzcrza5","133.csv","","null","resources/maskTrios/BBA2.jpg","null","",NA,NA,NA,NA,""
"image-keyboard-response",22,53573,"0.0-3.3-2.3","20g8gaznvzcrza5","133.csv","","null","resources/images/coin2.png","null","",NA,NA,NA,NA,""
"image-keyboard-response",23,54917,"0.0-3.4-0.4","20g8gaznvzcrza5","133.csv","","1342.2000002861023","resources/trios/L4T4A2.jpg","39","restless",0.4,0.9,0.7,0.302178345599436,"true"
"image-keyboard-response",24,55323,"0.0-3.4-1.4","20g8gaznvzcrza5","133.csv","","null","resources/maskTrios/BBA2.jpg","null","",NA,NA,NA,NA,""
"image-keyboard-response",25,56528,"0.0-3.4-2.4","20g8gaznvzcrza5","133.csv","","null","resources/images/coin2.png","null","",NA,NA,NA,NA,""
"image-keyboard-response",26,57401,"0.0-3.5-0.5","20g8gaznvzcrza5","133.csv","","872.0999999046326","resources/trios/L4T2A2.jpg","39","restless",0.4,0.9,0.7,0.360554480713381,"true"
"image-keyboard-response",27,57804,"0.0-3.5-1.5","20g8gaznvzcrza5","133.csv","","null","resources/maskTrios/BBA2.jpg","null","",NA,NA,NA,NA,""
"image-keyboard-response",28,59009,"0.0-3.5-2.5","20g8gaznvzcrza5","133.csv","","null","resources/images/coin2.png","null","",NA,NA,NA,NA,""
"image-keyboard-response",29,59942,"0.0-3.6-0.6","20g8gaznvzcrza5","133.csv","","931.5","resources/trios/L4T4A3.jpg","39","restless",0.4,0.9,0.7,0.890229224283665,"false"
"image-keyboard-response",30,60345,"0.0-3.6-1.6","20g8gaznvzcrza5","133.csv","","null","resources/maskTrios/BBA3.jpg","null","",NA,NA,NA,NA,""
"image-keyboard-response",31,61549,"0.0-3.6-2.6","20g8gaznvzcrza5","133.csv","","null","resources/images/fishbone.png","null","",NA,NA,NA,NA,""
"image-keyboard-response",32,63568,"0.0-3.7-0.7","20g8gaznvzcrza5","133.csv","","2017.9000000953674","resources/trios/L4T4A3.jpg","38","restless",0.4,0.9,0.7,0.858024642836085,"true"
"image-keyboard-response",33,63973,"0.0-3.7-1.7","20g8gaznvzcrza5","133.csv","","null","resources/maskTrios/BT4B.jpg","null","",NA,NA,NA,NA,""
"image-keyboard-response",34,65175,"0.0-3.7-2.7","20g8gaznvzcrza5","133.csv","","null","resources/images/coin2.png","null","",NA,NA,NA,NA,""
"image-keyboard-response",35,66458,"0.0-3.8-0.8","20g8gaznvzcrza5","133.csv","","1282.0999999046326","resources/trios/L2T4A3.jpg","38","restless",0.4,0.9,0.7,0.874961955400507,"true"
"image-keyboard-response",36,66864,"0.0-3.8-1.8","20g8gaznvzcrza5","133.csv","","null","resources/maskTrios/BT4B.jpg","null","",NA,NA,NA,NA,""
"image-keyboard-response",37,68071,"0.0-3.8-2.8","20g8gaznvzcrza5","133.csv","","null","resources/images/coin2.png","null","",NA,NA,NA,NA,""
"image-keyboard-response",38,69256,"0.0-3.9-0.9","20g8gaznvzcrza5","133.csv","","1183.6999998092651","resources/trios/L2T2A2.jpg","38","restless",0.4,0.9,0.7,0.716846917951384,"true"
"image-keyboard-response",39,69661,"0.0-3.9-1.9","20g8gaznvzcrza5","133.csv","","null","resources/maskTrios/BT2B.jpg","null","",NA,NA,NA,NA,""
"image-keyboard-response",40,70863,"0.0-3.9-2.9","20g8gaznvzcrza5","133.csv","","null","resources/images/coin2.png","null","",NA,NA,NA,NA,""
"image-keyboard-response",41,71629,"0.0-3.10-0.10","20g8gaznvzcrza5","133.csv","","765.7000002861023","resources/trios/L4T4A3.jpg","38","restless",0.4,0.9,0.7,0.0902086464443097,"true"
"image-keyboard-response",42,72036,"0.0-3.10-1.10","20g8gaznvzcrza5","133.csv","","null","resources/maskTrios/BT4B.jpg","null","",NA,NA,NA,NA,""
"image-keyboard-response",43,73242,"0.0-3.10-2.10","20g8gaznvzcrza5","133.csv","","null","resources/images/coin2.png","null","",NA,NA,NA,NA,""
"image-keyboard-response",44,74055,"0.0-3.11-0.11","20g8gaznvzcrza5","133.csv","","812.2999997138977","resources/trios/L2T4A2.jpg","38","restless",0.4,0.9,0.6,0.745355410221697,"true"
"image-keyboard-response",45,74460,"0.0-3.11-1.11","20g8gaznvzcrza5","133.csv","","null","resources/maskTrios/BT4B.jpg","null","",NA,NA,NA,NA,""
"image-keyboard-response",46,75661,"0.0-3.11-2.11","20g8gaznvzcrza5","133.csv","","null","resources/images/coin2.png","null","",NA,NA,NA,NA,""
"image-keyboard-response",47,76865,"0.0-3.12-0.12","20g8gaznvzcrza5","133.csv","","1202.0999999046326","resources/trios/L2T2A3.jpg","38","restless",0.4,0.9,0.6,0.733742900657117,"true"
"image-keyboard-response",48,77271,"0.0-3.12-1.12","20g8gaznvzcrza5","133.csv","","null","resources/maskTrios/BT2B.jpg","null","",NA,NA,NA,NA,""
"image-keyboard-response",49,78478,"0.0-3.12-2.12","20g8gaznvzcrza5","133.csv","","null","resources/images/coin2.png","null","",NA,NA,NA,NA,""
"image-keyboard-response",50,79094,"0.0-3.13-0.13","20g8gaznvzcrza5","133.csv","","614.7000002861023","resources/trios/L2T2A2.jpg","38","restless",0.4,0.9,0.6,0.667986233026104,"true"
"image-keyboard-response",51,79496,"0.0-3.13-1.13","20g8gaznvzcrza5","133.csv","","null","resources/maskTrios/BT2B.jpg","null","",NA,NA,NA,NA,""
"image-keyboard-response",52,80702,"0.0-3.13-2.13","20g8gaznvzcrza5","133.csv","","null","resources/images/coin2.png","null","",NA,NA,NA,NA,""
"image-keyboard-response",53,81255,"0.0-3.14-0.14","20g8gaznvzcrza5","133.csv","","551.5","resources/trios/L4T2A3.jpg","38","restless",0.4,0.9,0.5,0.500805999049489,"true"
"image-keyboard-response",54,81658,"0.0-3.14-1.14","20g8gaznvzcrza5","133.csv","","null","resources/maskTrios/BT2B.jpg","null","",NA,NA,NA,NA,""
"image-keyboard-response",55,82861,"0.0-3.14-2.14","20g8gaznvzcrza5","133.csv","","null","resources/images/coin2.png","null","",NA,NA,NA,NA,""
"image-keyboard-response",56,83589,"0.0-3.15-0.15","20g8gaznvzcrza5","133.csv","","726.8000001907349","resources/trios/L4T4A3.jpg","38","restless",0.4,0.9,0.5,0.757991911196651,"true"
"image-keyboard-response",57,83992,"0.0-3.15-1.15","20g8gaznvzcrza5","133.csv","","null","resources/maskTrios/BT4B.jpg","null","",NA,NA,NA,NA,""
"image-keyboard-response",58,85194,"0.0-3.15-2.15","20g8gaznvzcrza5","133.csv","","null","resources/images/coin2.png","null","",NA,NA,NA,NA,""
"image-keyboard-response",59,85798,"0.0-3.16-0.16","20g8gaznvzcrza5","133.csv","","602.3000001907349","resources/trios/L2T4A2.jpg","38","restless",0.4,0.9,0.5,0.334658085977618,"true"
"image-keyboard-response",60,86200,"0.0-3.16-1.16","20g8gaznvzcrza5","133.csv","","null","resources/maskTrios/BT4B.jpg","null","",NA,NA,NA,NA,""
"image-keyboard-response",61,87407,"0.0-3.16-2.16","20g8gaznvzcrza5","133.csv","","null","resources/images/coin2.png","null","",NA,NA,NA,NA,""
"image-keyboard-response",62,88050,"0.0-3.17-0.17","20g8gaznvzcrza5","133.csv","","641.1000003814697","resources/trios/L2T2A3.jpg","38","restless",0.4,0.9,0.5,0.363871884161467,"true"
"image-keyboard-response",63,88451,"0.0-3.17-1.17","20g8gaznvzcrza5","133.csv","","null","resources/maskTrios/BT2B.jpg","null","",NA,NA,NA,NA,""
"image-keyboard-response",64,89657,"0.0-3.17-2.17","20g8gaznvzcrza5","133.csv","","null","resources/images/coin2.png","null","",NA,NA,NA,NA,""
"image-keyboard-response",65,90156,"0.0-3.18-0.18","20g8gaznvzcrza5","133.csv","","497.69999980926514","resources/trios/L2T2A2.jpg","38","restless",0.4,0.9,0.5,0.859771029212486,"true"
"image-keyboard-response",66,90560,"0.0-3.18-1.18","20g8gaznvzcrza5","133.csv","","null","resources/maskTrios/BT2B.jpg","null","",NA,NA,NA,NA,""
"image-keyboard-response",67,91766,"0.0-3.18-2.18","20g8gaznvzcrza5","133.csv","","null","resources/images/coin2.png","null","",NA,NA,NA,NA,""
"image-keyboard-response",68,92523,"0.0-3.19-0.19","20g8gaznvzcrza5","133.csv","","754.8999996185303","resources/trios/L2T4A3.jpg","38","restless",0.4,0.9,0.5,0.811326831930409,"true"
"image-keyboard-response",69,92927,"0.0-3.19-1.19","20g8gaznvzcrza5","133.csv","","null","resources/maskTrios/BT4B.jpg","null","",NA,NA,NA,NA,""
"image-keyboard-response",70,94128,"0.0-3.19-2.19","20g8gaznvzcrza5","133.csv","","null","resources/images/coin2.png","null","",NA,NA,NA,NA,""
"image-keyboard-response",71,94565,"0.0-3.20-0.20","20g8gaznvzcrza5","133.csv","","435.30000019073486","resources/trios/L2T4A2.jpg","38","restless",0.4,0.9,0.5,0.668844931431226,"true"
"image-keyboard-response",72,94971,"0.0-3.20-1.20","20g8gaznvzcrza5","133.csv","","null","resources/maskTrios/BT4B.jpg","null","",NA,NA,NA,NA,""
"image-keyboard-response",73,96177,"0.0-3.20-2.20","20g8gaznvzcrza5","133.csv","","null","resources/images/coin2.png","null","",NA,NA,NA,NA,""
"image-keyboard-response",74,96997,"0.0-3.21-0.21","20g8gaznvzcrza5","133.csv","","818.3999996185303","resources/trios/L4T4A2.jpg","38","restless",0.4,0.9,0.5,0.0207991321233976,"true"
"image-keyboard-response",75,97398,"0.0-3.21-1.21","20g8gaznvzcrza5","133.csv","","null","resources/maskTrios/BT4B.jpg","null","",NA,NA,NA,NA,""
"image-keyboard-response",76,98605,"0.0-3.21-2.21","20g8gaznvzcrza5","133.csv","","null","resources/images/coin2.png","null","",NA,NA,NA,NA,""
"image-keyboard-response",77,99037,"0.0-3.22-0.22","20g8gaznvzcrza5","133.csv","","431.40000009536743","resources/trios/L4T4A3.jpg","38","restless",0.4,0.9,0.5,0.492338206462061,"true"
"image-keyboard-response",78,99441,"0.0-3.22-1.22","20g8gaznvzcrza5","133.csv","","null","resources/maskTrios/BT4B.jpg","null","",NA,NA,NA,NA,""
"image-keyboard-response",79,100644,"0.0-3.22-2.22","20g8gaznvzcrza5","133.csv","","null","resources/images/coin2.png","null","",NA,NA,NA,NA,""
"image-keyboard-response",80,101217,"0.0-3.23-0.23","20g8gaznvzcrza5","133.csv","","571.9000000953674","resources/trios/L2T4A2.jpg","38","restless",0.4,0.8,0.5,0.167664613516138,"true"
"image-keyboard-response",81,101622,"0.0-3.23-1.23","20g8gaznvzcrza5","133.csv","","null","resources/maskTrios/BT4B.jpg","null","",NA,NA,NA,NA,""
"image-keyboard-response",82,102827,"0.0-3.23-2.23","20g8gaznvzcrza5","133.csv","","null","resources/images/coin2.png","null","",NA,NA,NA,NA,""
"image-keyboard-response",83,103248,"0.0-3.24-0.24","20g8gaznvzcrza5","133.csv","","419.69999980926514","resources/trios/L4T2A3.jpg","38","restless",0.4,0.8,0.5,0.834451073704231,"false"
"image-keyboard-response",84,103652,"0.0-3.24-1.24","20g8gaznvzcrza5","133.csv","","null","resources/maskTrios/BT2B.jpg","null","",NA,NA,NA,NA,""
"image-keyboard-response",85,104858,"0.0-3.24-2.24","20g8gaznvzcrza5","133.csv","","null","resources/images/fishbone.png","null","",NA,NA,NA,NA,""
"image-keyboard-response",86,105725,"0.0-3.25-0.25","20g8gaznvzcrza5","133.csv","","864.8999996185303","resources/trios/L2T2A2.jpg","37","restless",0.4,0.8,0.5,0.999813624727826,"false"
"image-keyboard-response",87,106127,"0.0-3.25-1.25","20g8gaznvzcrza5","133.csv","","null","resources/maskTrios/L2BB.jpg","null","",NA,NA,NA,NA,""
"image-keyboard-response",88,107328,"0.0-3.25-2.25","20g8gaznvzcrza5","133.csv","","null","resources/images/fishbone.png","null","",NA,NA,NA,NA,""
"image-keyboard-response",89,110087,"0.0-3.26-0.26","20g8gaznvzcrza5","133.csv","","2757.7000002861023","resources/trios/L4T2A3.jpg","39","restless",0.4,0.8,0.5,0.390129268580417,"true"
"image-keyboard-response",90,110493,"0.0-3.26-1.26","20g8gaznvzcrza5","133.csv","","null","resources/maskTrios/BBA3.jpg","null","",NA,NA,NA,NA,""
"image-keyboard-response",91,111699,"0.0-3.26-2.26","20g8gaznvzcrza5","133.csv","","null","resources/images/coin2.png","null","",NA,NA,NA,NA,""
"image-keyboard-response",92,112084,"0.0-3.27-0.27","20g8gaznvzcrza5","133.csv","","383.2000002861023","resources/trios/L4T4A3.jpg","39","restless",0.4,0.8,0.5,0.585287292863552,"false"
"image-keyboard-response",93,112487,"0.0-3.27-1.27","20g8gaznvzcrza5","133.csv","","null","resources/maskTrios/BBA3.jpg","null","",NA,NA,NA,NA,""
"image-keyboard-response",94,113693,"0.0-3.27-2.27","20g8gaznvzcrza5","133.csv","","null","resources/images/fishbone.png","null","",NA,NA,NA,NA,""
"image-keyboard-response",95,115122,"0.0-3.28-0.28","20g8gaznvzcrza5","133.csv","","1427.5999999046326","resources/trios/L4T2A2.jpg","37","restless",0.4,0.8,0.5,0.340067257291479,"true"
"image-keyboard-response",96,115527,"0.0-3.28-1.28","20g8gaznvzcrza5","133.csv","","null","resources/maskTrios/L4BB.jpg","null","",NA,NA,NA,NA,""
"image-keyboard-response",97,116733,"0.0-3.28-2.28","20g8gaznvzcrza5","133.csv","","null","resources/images/coin2.png","null","",NA,NA,NA,NA,""
"image-keyboard-response",98,117114,"0.0-3.29-0.29","20g8gaznvzcrza5","133.csv","","379.09999990463257","resources/trios/L4T2A3.jpg","37","restless",0.4,0.8,0.5,0.394672293870993,"true"
"image-keyboard-response",99,117517,"0.0-3.29-1.29","20g8gaznvzcrza5","133.csv","","null","resources/maskTrios/L4BB.jpg","null","",NA,NA,NA,NA,""
"image-keyboard-response",100,118721,"0.0-3.29-2.29","20g8gaznvzcrza5","133.csv","","null","resources/images/coin2.png","null","",NA,NA,NA,NA,""
"image-keyboard-response",101,119269,"0.0-3.30-0.30","20g8gaznvzcrza5","133.csv","","546.6999998092651","resources/trios/L4T4A3.jpg","37","restless",0.4,0.8,0.5,0.115566030827581,"true"
"image-keyboard-response",102,119672,"0.0-3.30-1.30","20g8gaznvzcrza5","133.csv","","null","resources/maskTrios/L4BB.jpg","null","",NA,NA,NA,NA,""
"image-keyboard-response",103,120877,"0.0-3.30-2.30","20g8gaznvzcrza5","133.csv","","null","resources/images/coin2.png","null","",NA,NA,NA,NA,""
"image-keyboard-response",104,121762,"0.0-3.31-0.31","20g8gaznvzcrza5","133.csv","","884.3000001907349","resources/trios/L2T4A3.jpg","37","restless",0.3,0.8,0.5,0.225894559666918,"true"
"image-keyboard-response",105,122165,"0.0-3.31-1.31","20g8gaznvzcrza5","133.csv","","null","resources/maskTrios/L2BB.jpg","null","",NA,NA,NA,NA,""
"image-keyboard-response",106,123367,"0.0-3.31-2.31","20g8gaznvzcrza5","133.csv","","null","resources/images/coin2.png","null","",NA,NA,NA,NA,""
"image-keyboard-response",107,123999,"0.0-3.32-0.32","20g8gaznvzcrza5","133.csv","","631.5","resources/trios/L2T2A2.jpg","37","restless",0.3,0.7,0.5,0.392603395400933,"false"
"image-keyboard-response",108,124406,"0.0-3.32-1.32","20g8gaznvzcrza5","133.csv","","null","resources/maskTrios/L2BB.jpg","null","",NA,NA,NA,NA,""
"image-keyboard-response",109,125608,"0.0-3.32-2.32","20g8gaznvzcrza5","133.csv","","null","resources/images/fishbone.png","null","",NA,NA,NA,NA,""
"image-keyboard-response",110,126628,"0.0-3.33-0.33","20g8gaznvzcrza5","133.csv","","1019.0999999046326","resources/trios/L4T4A3.jpg","38","restless",0.3,0.7,0.5,0.928264353529085,"false"
"image-keyboard-response",111,127029,"0.0-3.33-1.33","20g8gaznvzcrza5","133.csv","","null","resources/maskTrios/BT4B.jpg","null","",NA,NA,NA,NA,""
"image-keyboard-response",112,128234,"0.0-3.33-2.33","20g8gaznvzcrza5","133.csv","","null","resources/images/fishbone.png","null","",NA,NA,NA,NA,""
"image-keyboard-response",113,128645,"0.0-3.34-0.34","20g8gaznvzcrza5","133.csv","","409.8999996185303","resources/trios/L4T2A2.jpg","39","restless",0.3,0.7,0.4,0.786489615163943,"false"
"image-keyboard-response",114,129047,"0.0-3.34-1.34","20g8gaznvzcrza5","133.csv","","null","resources/maskTrios/BBA2.jpg","null","",NA,NA,NA,NA,""
"image-keyboard-response",115,130249,"0.0-3.34-2.34","20g8gaznvzcrza5","133.csv","","null","resources/images/fishbone.png","null","",NA,NA,NA,NA,""
"image-keyboard-response",116,130604,"0.0-3.35-0.35","20g8gaznvzcrza5","133.csv","","353.59999990463257","resources/trios/L2T2A3.jpg","37","restless",0.3,0.7,0.4,0.510832758537275,"false"
"image-keyboard-response",117,131009,"0.0-3.35-1.35","20g8gaznvzcrza5","133.csv","","null","resources/maskTrios/L2BB.jpg","null","",NA,NA,NA,NA,""
"image-keyboard-response",118,132212,"0.0-3.35-2.35","20g8gaznvzcrza5","133.csv","","null","resources/images/fishbone.png","null","",NA,NA,NA,NA,""
"image-keyboard-response",119,132518,"0.0-3.36-0.36","20g8gaznvzcrza5","133.csv","","304.7000002861023","resources/trios/L4T4A3.jpg","39","restless",0.3,0.6,0.4,0.648492979471871,"false"
"image-keyboard-response",120,132923,"0.0-3.36-1.36","20g8gaznvzcrza5","133.csv","","null","resources/maskTrios/BBA3.jpg","null","",NA,NA,NA,NA,""
"image-keyboard-response",121,134126,"0.0-3.36-2.36","20g8gaznvzcrza5","133.csv","","null","resources/images/fishbone.png","null","",NA,NA,NA,NA,""
"image-keyboard-response",122,134576,"0.0-3.37-0.37","20g8gaznvzcrza5","133.csv","","449.09999990463257","resources/trios/L2T2A2.jpg","38","restless",0.3,0.7,0.4,0.572496355831869,"true"
"image-keyboard-response",123,134982,"0.0-3.37-1.37","20g8gaznvzcrza5","133.csv","","null","resources/maskTrios/BT2B.jpg","null","",NA,NA,NA,NA,""
"image-keyboard-response",124,136188,"0.0-3.37-2.37","20g8gaznvzcrza5","133.csv","","null","resources/images/coin2.png","null","",NA,NA,NA,NA,""
"image-keyboard-response",125,136960,"0.0-3.38-0.38","20g8gaznvzcrza5","133.csv","","770.2999997138977","resources/trios/L4T4A2.jpg","38","restless",0.3,0.7,0.4,0.848279028402746,"false"
"image-keyboard-response",126,137362,"0.0-3.38-1.38","20g8gaznvzcrza5","133.csv","","null","resources/maskTrios/BT4B.jpg","null","",NA,NA,NA,NA,""
"image-keyboard-response",127,138563,"0.0-3.38-2.38","20g8gaznvzcrza5","133.csv","","null","resources/images/fishbone.png","null","",NA,NA,NA,NA,""
"image-keyboard-response",128,139078,"0.0-3.39-0.39","20g8gaznvzcrza5","133.csv","","513.5999999046326","resources/trios/L4T4A2.jpg","37","restless",0.3,0.7,0.4,0.55999293663232,"false"
"image-keyboard-response",129,139484,"0.0-3.39-1.39","20g8gaznvzcrza5","133.csv","","null","resources/maskTrios/L4BB.jpg","null","",NA,NA,NA,NA,""
"image-keyboard-response",130,140690,"0.0-3.39-2.39","20g8gaznvzcrza5","133.csv","","null","resources/images/fishbone.png","null","",NA,NA,NA,NA,""
"image-keyboard-response",131,140979,"0.0-3.40-0.40","20g8gaznvzcrza5","133.csv","","286.2999997138977","resources/trios/L4T2A2.jpg","39","restless",0.3,0.7,0.4,0.104203424912727,"true"
"image-keyboard-response",132,141385,"0.0-3.40-1.40","20g8gaznvzcrza5","133.csv","","null","resources/maskTrios/BBA2.jpg","null","",NA,NA,NA,NA,""
"image-keyboard-response",133,142591,"0.0-3.40-2.40","20g8gaznvzcrza5","133.csv","","null","resources/images/coin2.png","null","",NA,NA,NA,NA,""
"image-keyboard-response",134,143171,"0.0-3.41-0.41","20g8gaznvzcrza5","133.csv","","578","resources/trios/L4T4A2.jpg","39","restless",0.3,0.7,0.4,0.461958416784725,"false"
"image-keyboard-response",135,143576,"0.0-3.41-1.41","20g8gaznvzcrza5","133.csv","","null","resources/maskTrios/BBA2.jpg","null","",NA,NA,NA,NA,""
"image-keyboard-response",136,144780,"0.0-3.41-2.41","20g8gaznvzcrza5","133.csv","","null","resources/images/fishbone.png","null","",NA,NA,NA,NA,""
"image-keyboard-response",137,145031,"0.0-3.42-0.42","20g8gaznvzcrza5","133.csv","","249.69999980926514","resources/trios/L2T4A2.jpg","38","restless",0.3,0.7,0.4,0.411215058852603,"true"
"image-keyboard-response",138,145435,"0.0-3.42-1.42","20g8gaznvzcrza5","133.csv","","null","resources/maskTrios/BT4B.jpg","null","",NA,NA,NA,NA,""
"image-keyboard-response",139,146641,"0.0-3.42-2.42","20g8gaznvzcrza5","133.csv","","null","resources/images/coin2.png","null","",NA,NA,NA,NA,""
"image-keyboard-response",140,147100,"0.0-3.43-0.43","20g8gaznvzcrza5","133.csv","","457.09999990463257","resources/trios/L4T4A3.jpg","37","restless",0.3,0.8,0.4,0.16234601474377,"true"
"image-keyboard-response",141,147504,"0.0-3.43-1.43","20g8gaznvzcrza5","133.csv","","null","resources/maskTrios/L4BB.jpg","null","",NA,NA,NA,NA,""
"image-keyboard-response",142,148709,"0.0-3.43-2.43","20g8gaznvzcrza5","133.csv","","null","resources/images/coin2.png","null","",NA,NA,NA,NA,""
"image-keyboard-response",143,149125,"0.0-3.44-0.44","20g8gaznvzcrza5","133.csv","","414","resources/trios/L2T4A3.jpg","39","restless",0.3,0.8,0.4,0.954317690343821,"false"
"image-keyboard-response",144,149530,"0.0-3.44-1.44","20g8gaznvzcrza5","133.csv","","null","resources/maskTrios/BBA3.jpg","null","",NA,NA,NA,NA,""
"image-keyboard-response",145,150734,"0.0-3.44-2.44","20g8gaznvzcrza5","133.csv","","null","resources/images/fishbone.png","null","",NA,NA,NA,NA,""
"image-keyboard-response",146,151276,"0.0-3.45-0.45","20g8gaznvzcrza5","133.csv","","541","resources/trios/L2T2A3.jpg","38","restless",0.3,0.8,0.4,0.149014622463243,"true"
"image-keyboard-response",147,151680,"0.0-3.45-1.45","20g8gaznvzcrza5","133.csv","","null","resources/maskTrios/BT2B.jpg","null","",NA,NA,NA,NA,""
"image-keyboard-response",148,152886,"0.0-3.45-2.45","20g8gaznvzcrza5","133.csv","","null","resources/images/coin2.png","null","",NA,NA,NA,NA,""
"image-keyboard-response",149,153883,"0.0-3.46-0.46","20g8gaznvzcrza5","133.csv","","996.5","resources/trios/L2T2A3.jpg","37","restless",0.3,0.8,0.4,0.992301979152419,"false"
"image-keyboard-response",150,154287,"0.0-3.46-1.46","20g8gaznvzcrza5","133.csv","","null","resources/maskTrios/L2BB.jpg","null","",NA,NA,NA,NA,""
"image-keyboard-response",151,155492,"0.0-3.46-2.46","20g8gaznvzcrza5","133.csv","","null","resources/images/fishbone.png","null","",NA,NA,NA,NA,""
"image-keyboard-response",152,155818,"0.0-3.47-0.47","20g8gaznvzcrza5","133.csv","","324.7999997138977","resources/trios/L2T4A2.jpg","38","restless",0.3,0.8,0.4,0.0844192556857803,"true"
"image-keyboard-response",153,156220,"0.0-3.47-1.47","20g8gaznvzcrza5","133.csv","","null","resources/maskTrios/BT4B.jpg","null","",NA,NA,NA,NA,""
"image-keyboard-response",154,157423,"0.0-3.47-2.47","20g8gaznvzcrza5","133.csv","","null","resources/images/coin2.png","null","",NA,NA,NA,NA,""
"image-keyboard-response",155,158628,"0.0-3.48-0.48","20g8gaznvzcrza5","133.csv","","1203.7000002861023","resources/trios/L4T2A3.jpg","39","restless",0.3,0.8,0.4,0.348643222831141,"true"
"image-keyboard-response",156,159030,"0.0-3.48-1.48","20g8gaznvzcrza5","133.csv","","null","resources/maskTrios/BBA3.jpg","null","",NA,NA,NA,NA,""
"image-keyboard-response",157,160236,"0.0-3.48-2.48","20g8gaznvzcrza5","133.csv","","null","resources/images/coin2.png","null","",NA,NA,NA,NA,""
"image-keyboard-response",158,160933,"0.0-3.49-0.49","20g8gaznvzcrza5","133.csv","","695.2000002861023","resources/trios/L2T2A3.jpg","37","restless",0.3,0.8,0.4,0.903702515898296,"false"
"image-keyboard-response",159,161337,"0.0-3.49-1.49","20g8gaznvzcrza5","133.csv","","null","resources/maskTrios/L2BB.jpg","null","",NA,NA,NA,NA,""
"image-keyboard-response",160,162540,"0.0-3.49-2.49","20g8gaznvzcrza5","133.csv","","null","resources/images/fishbone.png","null","",NA,NA,NA,NA,""
"image-keyboard-response",161,163560,"0.0-3.50-0.50","20g8gaznvzcrza5","133.csv","","1019.2000002861023","resources/trios/L4T4A2.jpg","37","restless",0.3,0.8,0.4,0.0117584012357086,"true"
"image-keyboard-response",162,163965,"0.0-3.50-1.50","20g8gaznvzcrza5","133.csv","","null","resources/maskTrios/L4BB.jpg","null","",NA,NA,NA,NA,""
"image-keyboard-response",163,165171,"0.0-3.50-2.50","20g8gaznvzcrza5","133.csv","","null","resources/images/coin2.png","null","",NA,NA,NA,NA,""
"image-keyboard-response",164,165488,"0.0-3.51-0.51","20g8gaznvzcrza5","133.csv","","315.5","resources/trios/L2T2A2.jpg","38","restless",0.3,0.8,0.5,0.322815052300463,"true"
"image-keyboard-response",165,165891,"0.0-3.51-1.51","20g8gaznvzcrza5","133.csv","","null","resources/maskTrios/BT2B.jpg","null","",NA,NA,NA,NA,""
"image-keyboard-response",166,167092,"0.0-3.51-2.51","20g8gaznvzcrza5","133.csv","","null","resources/images/coin2.png","null","",NA,NA,NA,NA,""
"image-keyboard-response",167,167458,"0.0-3.52-0.52","20g8gaznvzcrza5","133.csv","","363.80000019073486","resources/trios/L2T4A3.jpg","39","restless",0.3,0.8,0.5,0.111103692558069,"true"
"image-keyboard-response",168,167863,"0.0-3.52-1.52","20g8gaznvzcrza5","133.csv","","null","resources/maskTrios/BBA3.jpg","null","",NA,NA,NA,NA,""
"image-keyboard-response",169,169069,"0.0-3.52-2.52","20g8gaznvzcrza5","133.csv","","null","resources/images/coin2.png","null","",NA,NA,NA,NA,""
"image-keyboard-response",170,169351,"0.0-3.53-0.53","20g8gaznvzcrza5","133.csv","","280.59999990463257","resources/trios/L2T2A3.jpg","38","restless",0.3,0.8,0.5,0.0555175060551065,"true"
"image-keyboard-response",171,169754,"0.0-3.53-1.53","20g8gaznvzcrza5","133.csv","","null","resources/maskTrios/BT2B.jpg","null","",NA,NA,NA,NA,""
"image-keyboard-response",172,170957,"0.0-3.53-2.53","20g8gaznvzcrza5","133.csv","","null","resources/images/coin2.png","null","",NA,NA,NA,NA,""
"image-keyboard-response",173,171301,"0.0-3.54-0.54","20g8gaznvzcrza5","133.csv","","342.40000009536743","resources/trios/L4T4A3.jpg","37","restless",0.3,0.8,0.5,0.954776006654477,"false"
"image-keyboard-response",174,171707,"0.0-3.54-1.54","20g8gaznvzcrza5","133.csv","","null","resources/maskTrios/L4BB.jpg","null","",NA,NA,NA,NA,""
"image-keyboard-response",175,172908,"0.0-3.54-2.54","20g8gaznvzcrza5","133.csv","","null","resources/images/fishbone.png","null","",NA,NA,NA,NA,""
"image-keyboard-response",176,173300,"0.0-3.55-0.55","20g8gaznvzcrza5","133.csv","","390.59999990463257","resources/trios/L2T4A3.jpg","38","restless",0.3,0.8,0.5,0.16586327747523,"true"
"image-keyboard-response",177,173707,"0.0-3.55-1.55","20g8gaznvzcrza5","133.csv","","null","resources/maskTrios/BT4B.jpg","null","",NA,NA,NA,NA,""
"image-keyboard-response",178,174913,"0.0-3.55-2.55","20g8gaznvzcrza5","133.csv","","null","resources/images/coin2.png","null","",NA,NA,NA,NA,""
"image-keyboard-response",179,176128,"0.0-3.56-0.56","20g8gaznvzcrza5","133.csv","","1213.5999999046326","resources/trios/L4T4A2.jpg","37","restless",0.3,0.8,0.5,0.990804636771823,"false"
"image-keyboard-response",180,176534,"0.0-3.56-1.56","20g8gaznvzcrza5","133.csv","","null","resources/maskTrios/L4BB.jpg","null","",NA,NA,NA,NA,""
"image-keyboard-response",181,177741,"0.0-3.56-2.56","20g8gaznvzcrza5","133.csv","","null","resources/images/fishbone.png","null","",NA,NA,NA,NA,""
"image-keyboard-response",182,177997,"0.0-3.57-0.57","20g8gaznvzcrza5","133.csv","","255.19999980926514","resources/trios/L4T4A3.jpg","38","restless",0.3,0.8,0.5,0.3182620987084,"true"
"image-keyboard-response",183,178402,"0.0-3.57-1.57","20g8gaznvzcrza5","133.csv","","null","resources/maskTrios/BT4B.jpg","null","",NA,NA,NA,NA,""
"image-keyboard-response",184,179608,"0.0-3.57-2.57","20g8gaznvzcrza5","133.csv","","null","resources/images/coin2.png","null","",NA,NA,NA,NA,""
"image-keyboard-response",185,179913,"0.0-3.58-0.58","20g8gaznvzcrza5","133.csv","","303.30000019073486","resources/trios/L4T4A2.jpg","38","restless",0.3,0.8,0.5,0.478295966499871,"true"
"image-keyboard-response",186,180319,"0.0-3.58-1.58","20g8gaznvzcrza5","133.csv","","null","resources/maskTrios/BT4B.jpg","null","",NA,NA,NA,NA,""
"image-keyboard-response",187,181523,"0.0-3.58-2.58","20g8gaznvzcrza5","133.csv","","null","resources/images/coin2.png","null","",NA,NA,NA,NA,""
"image-keyboard-response",188,181791,"0.0-3.59-0.59","20g8gaznvzcrza5","133.csv","","266","resources/trios/L4T2A2.jpg","38","restless",0.3,0.8,0.5,0.194339091682765,"true"
"image-keyboard-response",189,182194,"0.0-3.59-1.59","20g8gaznvzcrza5","133.csv","","null","resources/maskTrios/BT2B.jpg","null","",NA,NA,NA,NA,""
"image-keyboard-response",190,183400,"0.0-3.59-2.59","20g8gaznvzcrza5","133.csv","","null","resources/images/coin2.png","null","",NA,NA,NA,NA,""
"image-keyboard-response",191,183692,"0.0-3.60-0.60","20g8gaznvzcrza5","133.csv","","290.7000002861023","resources/trios/L4T4A2.jpg","38","restless",0.3,0.8,0.5,0.204095661577917,"true"
"image-keyboard-response",192,184096,"0.0-3.60-1.60","20g8gaznvzcrza5","133.csv","","null","resources/maskTrios/BT4B.jpg","null","",NA,NA,NA,NA,""
"image-keyboard-response",193,185302,"0.0-3.60-2.60","20g8gaznvzcrza5","133.csv","","null","resources/images/coin2.png","null","",NA,NA,NA,NA,""
"image-keyboard-response",194,185789,"0.0-3.61-0.61","20g8gaznvzcrza5","133.csv","","485.2999997138977","resources/trios/L2T2A2.jpg","38","restless",0.4,0.8,0.5,0.819800534033759,"false"
"image-keyboard-response",195,186191,"0.0-3.61-1.61","20g8gaznvzcrza5","133.csv","","null","resources/maskTrios/BT2B.jpg","null","",NA,NA,NA,NA,""
"image-keyboard-response",196,187398,"0.0-3.61-2.61","20g8gaznvzcrza5","133.csv","","null","resources/images/fishbone.png","null","",NA,NA,NA,NA,""
"image-keyboard-response",197,187709,"0.0-3.62-0.62","20g8gaznvzcrza5","133.csv","","310","resources/trios/L2T4A2.jpg","39","restless",0.5,0.8,0.5,0.479574476205547,"true"
"image-keyboard-response",198,188115,"0.0-3.62-1.62","20g8gaznvzcrza5","133.csv","","null","resources/maskTrios/BBA2.jpg","null","",NA,NA,NA,NA,""
"image-keyboard-response",199,189322,"0.0-3.62-2.62","20g8gaznvzcrza5","133.csv","","null","resources/images/coin2.png","null","",NA,NA,NA,NA,""
"image-keyboard-response",200,190268,"0.0-3.63-0.63","20g8gaznvzcrza5","133.csv","","945.1999998092651","resources/trios/L2T4A2.jpg","39","restless",0.5,0.8,0.5,0.494965904200299,"true"
"image-keyboard-response",201,190674,"0.0-3.63-1.63","20g8gaznvzcrza5","133.csv","","null","resources/maskTrios/BBA2.jpg","null","",NA,NA,NA,NA,""
"image-keyboard-response",202,191880,"0.0-3.63-2.63","20g8gaznvzcrza5","133.csv","","null","resources/images/coin2.png","null","",NA,NA,NA,NA,""
"image-keyboard-response",203,192209,"0.0-3.64-0.64","20g8gaznvzcrza5","133.csv","","327.80000019073486","resources/trios/L2T4A2.jpg","39","restless",0.5,0.8,0.5,0.541734107670667,"false"
"image-keyboard-response",204,192615,"0.0-3.64-1.64","20g8gaznvzcrza5","133.csv","","null","resources/maskTrios/BBA2.jpg","null","",NA,NA,NA,NA,""
"image-keyboard-response",205,193821,"0.0-3.64-2.64","20g8gaznvzcrza5","133.csv","","null","resources/images/fishbone.png","null","",NA,NA,NA,NA,""
"image-keyboard-response",206,194614,"0.0-3.65-0.65","20g8gaznvzcrza5","133.csv","","790.5999999046326","resources/trios/L2T2A2.jpg","38","restless",0.5,0.8,0.5,0.728628945438722,"true"
"image-keyboard-response",207,195018,"0.0-3.65-1.65","20g8gaznvzcrza5","133.csv","","null","resources/maskTrios/BT2B.jpg","null","",NA,NA,NA,NA,""
"image-keyboard-response",208,196223,"0.0-3.65-2.65","20g8gaznvzcrza5","133.csv","","null","resources/images/coin2.png","null","",NA,NA,NA,NA,""
"image-keyboard-response",209,197006,"0.0-3.66-0.66","20g8gaznvzcrza5","133.csv","","781.6999998092651","resources/trios/L2T4A2.jpg","38","restless",0.5,0.8,0.5,0.885625082910956,"false"
"image-keyboard-response",210,197407,"0.0-3.66-1.66","20g8gaznvzcrza5","133.csv","","null","resources/maskTrios/BT4B.jpg","null","",NA,NA,NA,NA,""
"image-keyboard-response",211,198612,"0.0-3.66-2.66","20g8gaznvzcrza5","133.csv","","null","resources/images/fishbone.png","null","",NA,NA,NA,NA,""
"image-keyboard-response",212,198918,"0.0-3.67-0.67","20g8gaznvzcrza5","133.csv","","304.90000009536743","resources/trios/L2T2A3.jpg","37","restless",0.5,0.8,0.5,0.370898037993857,"true"
"image-keyboard-response",213,199320,"0.0-3.67-1.67","20g8gaznvzcrza5","133.csv","","null","resources/maskTrios/L2BB.jpg","null","",NA,NA,NA,NA,""
"image-keyboard-response",214,200524,"0.0-3.67-2.67","20g8gaznvzcrza5","133.csv","","null","resources/images/coin2.png","null","",NA,NA,NA,NA,""
"image-keyboard-response",215,201057,"0.0-3.68-0.68","20g8gaznvzcrza5","133.csv","","531.0999999046326","resources/trios/L2T2A2.jpg","37","restless",0.5,0.8,0.5,0.967003359197078,"false"
"image-keyboard-response",216,201463,"0.0-3.68-1.68","20g8gaznvzcrza5","133.csv","","null","resources/maskTrios/L2BB.jpg","null","",NA,NA,NA,NA,""
"image-keyboard-response",217,202669,"0.0-3.68-2.68","20g8gaznvzcrza5","133.csv","","null","resources/images/fishbone.png","null","",NA,NA,NA,NA,""
"image-keyboard-response",218,203045,"0.0-3.69-0.69","20g8gaznvzcrza5","133.csv","","373.90000009536743","resources/trios/L4T4A3.jpg","39","restless",0.5,0.8,0.4,0.159910275428897,"true"
"image-keyboard-response",219,203449,"0.0-3.69-1.69","20g8gaznvzcrza5","133.csv","","null","resources/maskTrios/BBA3.jpg","null","",NA,NA,NA,NA,""
"image-keyboard-response",220,204650,"0.0-3.69-2.69","20g8gaznvzcrza5","133.csv","","null","resources/images/coin2.png","null","",NA,NA,NA,NA,""
"image-keyboard-response",221,205116,"0.0-3.70-0.70","20g8gaznvzcrza5","133.csv","","464","resources/trios/L2T2A3.jpg","38","restless",0.5,0.8,0.5,0.331953756551053,"true"
"image-keyboard-response",222,205522,"0.0-3.70-1.70","20g8gaznvzcrza5","133.csv","","null","resources/maskTrios/BT2B.jpg","null","",NA,NA,NA,NA,""
"image-keyboard-response",223,206724,"0.0-3.70-2.70","20g8gaznvzcrza5","133.csv","","null","resources/images/coin2.png","null","",NA,NA,NA,NA,""
"image-keyboard-response",224,207332,"0.0-3.71-0.71","20g8gaznvzcrza5","133.csv","","606.1000003814697","resources/trios/L2T2A3.jpg","37","restless",0.5,0.8,0.5,0.0452286920907121,"true"
"image-keyboard-response",225,207733,"0.0-3.71-1.71","20g8gaznvzcrza5","133.csv","","null","resources/maskTrios/L2BB.jpg","null","",NA,NA,NA,NA,""
"image-keyboard-response",226,208936,"0.0-3.71-2.71","20g8gaznvzcrza5","133.csv","","null","resources/images/coin2.png","null","",NA,NA,NA,NA,""
"image-keyboard-response",227,209317,"0.0-3.72-0.72","20g8gaznvzcrza5","133.csv","","380.6000003814697","resources/trios/L2T2A3.jpg","39","restless",0.5,0.8,0.5,0.992057013037873,"false"
"image-keyboard-response",228,209722,"0.0-3.72-1.72","20g8gaznvzcrza5","133.csv","","null","resources/maskTrios/BBA3.jpg","null","",NA,NA,NA,NA,""
"image-keyboard-response",229,210925,"0.0-3.72-2.72","20g8gaznvzcrza5","133.csv","","null","resources/images/fishbone.png","null","",NA,NA,NA,NA,""
"image-keyboard-response",230,211354,"0.0-3.73-0.73","20g8gaznvzcrza5","133.csv","","427","resources/trios/L2T2A2.jpg","39","restless",0.5,0.8,0.5,0.635946262129029,"false"
"image-keyboard-response",231,211758,"0.0-3.73-1.73","20g8gaznvzcrza5","133.csv","","null","resources/maskTrios/BBA2.jpg","null","",NA,NA,NA,NA,""
"image-keyboard-response",232,212961,"0.0-3.73-2.73","20g8gaznvzcrza5","133.csv","","null","resources/images/fishbone.png","null","",NA,NA,NA,NA,""
"image-keyboard-response",233,213324,"0.0-3.74-0.74","20g8gaznvzcrza5","133.csv","","361.40000009536743","resources/trios/L2T2A3.jpg","38","restless",0.4,0.8,0.5,0.266893561063889,"true"
"image-keyboard-response",234,213730,"0.0-3.74-1.74","20g8gaznvzcrza5","133.csv","","null","resources/maskTrios/BT2B.jpg","null","",NA,NA,NA,NA,""
"image-keyboard-response",235,214934,"0.0-3.74-2.74","20g8gaznvzcrza5","133.csv","","null","resources/images/coin2.png","null","",NA,NA,NA,NA,""
"image-keyboard-response",236,215283,"0.0-3.75-0.75","20g8gaznvzcrza5","133.csv","","347","resources/trios/L4T2A3.jpg","37","restless",0.4,0.8,0.5,0.448868176339589,"false"
"image-keyboard-response",237,215689,"0.0-3.75-1.75","20g8gaznvzcrza5","133.csv","","null","resources/maskTrios/L4BB.jpg","null","",NA,NA,NA,NA,""
"image-keyboard-response",238,216890,"0.0-3.75-2.75","20g8gaznvzcrza5","133.csv","","null","resources/images/fishbone.png","null","",NA,NA,NA,NA,""
"image-keyboard-response",239,217166,"0.0-3.76-0.76","20g8gaznvzcrza5","133.csv","","274.59999990463257","resources/trios/L4T4A3.jpg","38","restless",0.4,0.8,0.5,0.575111355312255,"true"
"image-keyboard-response",240,217572,"0.0-3.76-1.76","20g8gaznvzcrza5","133.csv","","null","resources/maskTrios/BT4B.jpg","null","",NA,NA,NA,NA,""
"image-keyboard-response",241,218773,"0.0-3.76-2.76","20g8gaznvzcrza5","133.csv","","null","resources/images/coin2.png","null","",NA,NA,NA,NA,""
"image-keyboard-response",242,219112,"0.0-3.77-0.77","20g8gaznvzcrza5","133.csv","","337","resources/trios/L4T2A2.jpg","38","restless",0.4,0.8,0.4,0.213944971940198,"true"
"image-keyboard-response",243,219518,"0.0-3.77-1.77","20g8gaznvzcrza5","133.csv","","null","resources/maskTrios/BT2B.jpg","null","",NA,NA,NA,NA,""
"image-keyboard-response",244,220723,"0.0-3.77-2.77","20g8gaznvzcrza5","133.csv","","null","resources/images/coin2.png","null","",NA,NA,NA,NA,""
"image-keyboard-response",245,221002,"0.0-3.78-0.78","20g8gaznvzcrza5","133.csv","","277","resources/trios/L4T4A3.jpg","38","restless",0.4,0.8,0.4,0.584974762625407,"true"
"image-keyboard-response",246,221403,"0.0-3.78-1.78","20g8gaznvzcrza5","133.csv","","null","resources/maskTrios/BT4B.jpg","null","",NA,NA,NA,NA,""
"image-keyboard-response",247,222606,"0.0-3.78-2.78","20g8gaznvzcrza5","133.csv","","null","resources/images/coin2.png","null","",NA,NA,NA,NA,""
"image-keyboard-response",248,222918,"0.0-3.79-0.79","20g8gaznvzcrza5","133.csv","","311.09999990463257","resources/trios/L4T4A3.jpg","38","restless",0.4,0.8,0.4,0.774866952814269,"true"
"image-keyboard-response",249,223322,"0.0-3.79-1.79","20g8gaznvzcrza5","133.csv","","null","resources/maskTrios/BT4B.jpg","null","",NA,NA,NA,NA,""
"image-keyboard-response",250,224529,"0.0-3.79-2.79","20g8gaznvzcrza5","133.csv","","null","resources/images/coin2.png","null","",NA,NA,NA,NA,""
"image-keyboard-response",251,224839,"0.0-3.80-0.80","20g8gaznvzcrza5","133.csv","","309.09999990463257","resources/trios/L4T2A2.jpg","38","restless",0.4,0.8,0.4,0.339414564892156,"true"
"image-keyboard-response",252,225244,"0.0-3.80-1.80","20g8gaznvzcrza5","133.csv","","null","resources/maskTrios/BT2B.jpg","null","",NA,NA,NA,NA,""
"image-keyboard-response",253,226447,"0.0-3.80-2.80","20g8gaznvzcrza5","133.csv","","null","resources/images/coin2.png","null","",NA,NA,NA,NA,""
"image-keyboard-response",254,226733,"0.0-3.81-0.81","20g8gaznvzcrza5","133.csv","","284.6000003814697","resources/trios/L4T2A2.jpg","38","restless",0.4,0.8,0.3,0.425054322778566,"true"
"image-keyboard-response",255,227140,"0.0-3.81-1.81","20g8gaznvzcrza5","133.csv","","null","resources/maskTrios/BT2B.jpg","null","",NA,NA,NA,NA,""
"image-keyboard-response",256,228346,"0.0-3.81-2.81","20g8gaznvzcrza5","133.csv","","null","resources/images/coin2.png","null","",NA,NA,NA,NA,""
"image-keyboard-response",257,228603,"0.0-3.82-0.82","20g8gaznvzcrza5","133.csv","","255.09999990463257","resources/trios/L2T4A2.jpg","38","restless",0.4,0.8,0.3,0.178202354115231,"true"
"image-keyboard-response",258,229006,"0.0-3.82-1.82","20g8gaznvzcrza5","133.csv","","null","resources/maskTrios/BT4B.jpg","null","",NA,NA,NA,NA,""
"image-keyboard-response",259,230207,"0.0-3.82-2.82","20g8gaznvzcrza5","133.csv","","null","resources/images/coin2.png","null","",NA,NA,NA,NA,""
"image-keyboard-response",260,230998,"0.0-3.83-0.83","20g8gaznvzcrza5","133.csv","","789.5999999046326","resources/trios/L4T2A3.jpg","38","restless",0.4,0.7,0.3,0.1898003950619,"true"
"image-keyboard-response",261,231404,"0.0-3.83-1.83","20g8gaznvzcrza5","133.csv","","null","resources/maskTrios/BT2B.jpg","null","",NA,NA,NA,NA,""
"image-keyboard-response",262,232608,"0.0-3.83-2.83","20g8gaznvzcrza5","133.csv","","null","resources/images/coin2.png","null","",NA,NA,NA,NA,""
"image-keyboard-response",263,232934,"0.0-3.84-0.84","20g8gaznvzcrza5","133.csv","","324.40000009536743","resources/trios/L4T4A2.jpg","38","restless",0.4,0.7,0.4,0.309978510183059,"true"
"image-keyboard-response",264,233339,"0.0-3.84-1.84","20g8gaznvzcrza5","133.csv","","null","resources/maskTrios/BT4B.jpg","null","",NA,NA,NA,NA,""
"image-keyboard-response",265,234542,"0.0-3.84-2.84","20g8gaznvzcrza5","133.csv","","null","resources/images/coin2.png","null","",NA,NA,NA,NA,""
"image-keyboard-response",266,234999,"0.0-3.85-0.85","20g8gaznvzcrza5","133.csv","","455.59999990463257","resources/trios/L4T2A2.jpg","38","restless",0.4,0.6,0.4,0.700241788090187,"false"
"image-keyboard-response",267,235405,"0.0-3.85-1.85","20g8gaznvzcrza5","133.csv","","null","resources/maskTrios/BT2B.jpg","null","",NA,NA,NA,NA,""
"image-keyboard-response",268,236612,"0.0-3.85-2.85","20g8gaznvzcrza5","133.csv","","null","resources/images/fishbone.png","null","",NA,NA,NA,NA,""
"image-keyboard-response",269,237637,"0.0-3.86-0.86","20g8gaznvzcrza5","133.csv","","1024","resources/trios/L4T2A3.jpg","37","restless",0.4,0.6,0.4,0.0680243610825135,"true"
"image-keyboard-response",270,238039,"0.0-3.86-1.86","20g8gaznvzcrza5","133.csv","","null","resources/maskTrios/L4BB.jpg","null","",NA,NA,NA,NA,""
"image-keyboard-response",271,239244,"0.0-3.86-2.86","20g8gaznvzcrza5","133.csv","","null","resources/images/coin2.png","null","",NA,NA,NA,NA,""
"image-keyboard-response",272,239589,"0.0-3.87-0.87","20g8gaznvzcrza5","133.csv","","343.2999997138977","resources/trios/L2T4A2.jpg","37","restless",0.4,0.6,0.4,0.468815626550767,"false"
"image-keyboard-response",273,239994,"0.0-3.87-1.87","20g8gaznvzcrza5","133.csv","","null","resources/maskTrios/L2BB.jpg","null","",NA,NA,NA,NA,""
"image-keyboard-response",274,241198,"0.0-3.87-2.87","20g8gaznvzcrza5","133.csv","","null","resources/images/fishbone.png","null","",NA,NA,NA,NA,""
"image-keyboard-response",275,242167,"0.0-3.88-0.88","20g8gaznvzcrza5","133.csv","","966.9000000953674","resources/trios/L4T4A3.jpg","39","restless",0.4,0.6,0.4,0.584481198590989,"false"
"image-keyboard-response",276,242572,"0.0-3.88-1.88","20g8gaznvzcrza5","133.csv","","null","resources/maskTrios/BBA3.jpg","null","",NA,NA,NA,NA,""
"image-keyboard-response",277,243773,"0.0-3.88-2.88","20g8gaznvzcrza5","133.csv","","null","resources/images/fishbone.png","null","",NA,NA,NA,NA,""
"image-keyboard-response",278,244077,"0.0-3.89-0.89","20g8gaznvzcrza5","133.csv","","302.69999980926514","resources/trios/L4T4A2.jpg","38","restless",0.4,0.6,0.4,0.173870177715998,"true"
"image-keyboard-response",279,244484,"0.0-3.89-1.89","20g8gaznvzcrza5","133.csv","","null","resources/maskTrios/BT4B.jpg","null","",NA,NA,NA,NA,""
"image-keyboard-response",280,245688,"0.0-3.89-2.89","20g8gaznvzcrza5","133.csv","","null","resources/images/coin2.png","null","",NA,NA,NA,NA,""
"image-keyboard-response",281,246029,"0.0-3.90-0.90","20g8gaznvzcrza5","133.csv","","338.80000019073486","resources/trios/L4T2A3.jpg","38","restless",0.5,0.6,0.4,0.970512602319825,"false"
"image-keyboard-response",282,246432,"0.0-3.90-1.90","20g8gaznvzcrza5","133.csv","","null","resources/maskTrios/BT2B.jpg","null","",NA,NA,NA,NA,""
"image-keyboard-response",283,247639,"0.0-3.90-2.90","20g8gaznvzcrza5","133.csv","","null","resources/images/fishbone.png","null","",NA,NA,NA,NA,""
"image-keyboard-response",284,248119,"0.0-3.91-0.91","20g8gaznvzcrza5","133.csv","","478.8999996185303","resources/trios/L4T4A3.jpg","38","restless",0.5,0.6,0.4,0.540794991461234,"true"
"image-keyboard-response",285,248523,"0.0-3.91-1.91","20g8gaznvzcrza5","133.csv","","null","resources/maskTrios/BT4B.jpg","null","",NA,NA,NA,NA,""
"image-keyboard-response",286,249729,"0.0-3.91-2.91","20g8gaznvzcrza5","133.csv","","null","resources/images/coin2.png","null","",NA,NA,NA,NA,""
"image-keyboard-response",287,250042,"0.0-3.92-0.92","20g8gaznvzcrza5","133.csv","","311.5","resources/trios/L2T2A2.jpg","37","restless",0.5,0.6,0.4,0.246944194860625,"true"
"image-keyboard-response",288,250448,"0.0-3.92-1.92","20g8gaznvzcrza5","133.csv","","null","resources/maskTrios/L2BB.jpg","null","",NA,NA,NA,NA,""
"image-keyboard-response",289,251654,"0.0-3.92-2.92","20g8gaznvzcrza5","133.csv","","null","resources/images/coin2.png","null","",NA,NA,NA,NA,""
"image-keyboard-response",290,252056,"0.0-3.93-0.93","20g8gaznvzcrza5","133.csv","","401.09999990463257","resources/trios/L2T2A3.jpg","38","restless",0.5,0.6,0.3,0.215783191183859,"true"
"image-keyboard-response",291,252463,"0.0-3.93-1.93","20g8gaznvzcrza5","133.csv","","null","resources/maskTrios/BT2B.jpg","null","",NA,NA,NA,NA,""
"image-keyboard-response",292,253664,"0.0-3.93-2.93","20g8gaznvzcrza5","133.csv","","null","resources/images/coin2.png","null","",NA,NA,NA,NA,""
"image-keyboard-response",293,254035,"0.0-3.94-0.94","20g8gaznvzcrza5","133.csv","","369.80000019073486","resources/trios/L4T4A3.jpg","37","restless",0.5,0.6,0.2,0.707907771248148,"false"
"image-keyboard-response",294,254438,"0.0-3.94-1.94","20g8gaznvzcrza5","133.csv","","null","resources/maskTrios/L4BB.jpg","null","",NA,NA,NA,NA,""
"image-keyboard-response",295,255639,"0.0-3.94-2.94","20g8gaznvzcrza5","133.csv","","null","resources/images/fishbone.png","null","",NA,NA,NA,NA,""
"image-keyboard-response",296,255960,"0.0-3.95-0.95","20g8gaznvzcrza5","133.csv","","318.90000009536743","resources/trios/L2T2A2.jpg","38","restless",0.5,0.6,0.2,0.0718002418016015,"true"
"image-keyboard-response",297,256363,"0.0-3.95-1.95","20g8gaznvzcrza5","133.csv","","null","resources/maskTrios/BT2B.jpg","null","",NA,NA,NA,NA,""
"image-keyboard-response",298,257565,"0.0-3.95-2.95","20g8gaznvzcrza5","133.csv","","null","resources/images/coin2.png","null","",NA,NA,NA,NA,""
"image-keyboard-response",299,258106,"0.0-3.96-0.96","20g8gaznvzcrza5","133.csv","","539.8000001907349","resources/trios/L4T2A3.jpg","39","restless",0.5,0.6,0.3,0.692736230379858,"false"
"image-keyboard-response",300,258510,"0.0-3.96-1.96","20g8gaznvzcrza5","133.csv","","null","resources/maskTrios/BBA3.jpg","null","",NA,NA,NA,NA,""
"image-keyboard-response",301,259716,"0.0-3.96-2.96","20g8gaznvzcrza5","133.csv","","null","resources/images/fishbone.png","null","",NA,NA,NA,NA,""
"image-keyboard-response",302,260323,"0.0-3.97-0.97","20g8gaznvzcrza5","133.csv","","605.1999998092651","resources/trios/L2T2A2.jpg","38","restless",0.6,0.6,0.3,0.801534275594758,"false"
"image-keyboard-response",303,260728,"0.0-3.97-1.97","20g8gaznvzcrza5","133.csv","","null","resources/maskTrios/BT2B.jpg","null","",NA,NA,NA,NA,""
"image-keyboard-response",304,261934,"0.0-3.97-2.97","20g8gaznvzcrza5","133.csv","","null","resources/images/fishbone.png","null","",NA,NA,NA,NA,""
"image-keyboard-response",305,262466,"0.0-3.98-0.98","20g8gaznvzcrza5","133.csv","","530.9000000953674","resources/trios/L4T2A2.jpg","37","restless",0.6,0.6,0.3,0.146791312691573,"true"
"image-keyboard-response",306,262869,"0.0-3.98-1.98","20g8gaznvzcrza5","133.csv","","null","resources/maskTrios/L4BB.jpg","null","",NA,NA,NA,NA,""
"image-keyboard-response",307,264072,"0.0-3.98-2.98","20g8gaznvzcrza5","133.csv","","null","resources/images/coin2.png","null","",NA,NA,NA,NA,""
"image-keyboard-response",308,264372,"0.0-3.99-0.99","20g8gaznvzcrza5","133.csv","","298.59999990463257","resources/trios/L4T4A2.jpg","37","restless",0.6,0.5,0.3,0.718280195628937,"false"
"image-keyboard-response",309,264776,"0.0-3.99-1.99","20g8gaznvzcrza5","133.csv","","null","resources/maskTrios/L4BB.jpg","null","",NA,NA,NA,NA,""
"image-keyboard-response",310,265977,"0.0-3.99-2.99","20g8gaznvzcrza5","133.csv","","null","resources/images/fishbone.png","null","",NA,NA,NA,NA,""
"image-keyboard-response",311,266396,"0.0-3.100-0.100","20g8gaznvzcrza5","133.csv","","417.69999980926514","resources/trios/L2T4A2.jpg","38","restless",0.6,0.5,0.3,0.0528592229023535,"true"
"image-keyboard-response",312,266802,"0.0-3.100-1.100","20g8gaznvzcrza5","133.csv","","null","resources/maskTrios/BT4B.jpg","null","",NA,NA,NA,NA,""
"image-keyboard-response",313,268005,"0.0-3.100-2.100","20g8gaznvzcrza5","133.csv","","null","resources/images/coin2.png","null","",NA,NA,NA,NA,""
"image-keyboard-response",314,268443,"0.0-3.101-0.101","20g8gaznvzcrza5","133.csv","","436.7999997138977","resources/trios/L4T4A2.jpg","37","restless",0.6,0.5,0.4,0.922500793471032,"false"
"image-keyboard-response",315,268849,"0.0-3.101-1.101","20g8gaznvzcrza5","133.csv","","null","resources/maskTrios/L4BB.jpg","null","",NA,NA,NA,NA,""
"image-keyboard-response",316,270055,"0.0-3.101-2.101","20g8gaznvzcrza5","133.csv","","null","resources/images/fishbone.png","null","",NA,NA,NA,NA,""
"image-keyboard-response",317,270339,"0.0-3.102-0.102","20g8gaznvzcrza5","133.csv","","282.6000003814697","resources/trios/L4T2A3.jpg","38","restless",0.6,0.5,0.4,0.57093792391703,"false"
"image-keyboard-response",318,270741,"0.0-3.102-1.102","20g8gaznvzcrza5","133.csv","","null","resources/maskTrios/BT2B.jpg","null","",NA,NA,NA,NA,""
"image-keyboard-response",319,271947,"0.0-3.102-2.102","20g8gaznvzcrza5","133.csv","","null","resources/images/fishbone.png","null","",NA,NA,NA,NA,""
"image-keyboard-response",320,272369,"0.0-3.103-0.103","20g8gaznvzcrza5","133.csv","","420.5","resources/trios/L4T4A2.jpg","38","restless",0.6,0.5,0.4,0.180707076229938,"true"
"image-keyboard-response",321,272771,"0.0-3.103-1.103","20g8gaznvzcrza5","133.csv","","null","resources/maskTrios/BT4B.jpg","null","",NA,NA,NA,NA,""
"image-keyboard-response",322,273975,"0.0-3.103-2.103","20g8gaznvzcrza5","133.csv","","null","resources/images/coin2.png","null","",NA,NA,NA,NA,""
"image-keyboard-response",323,274393,"0.0-3.104-0.104","20g8gaznvzcrza5","133.csv","","416.69999980926514","resources/trios/L4T4A3.jpg","38","restless",0.6,0.4,0.4,0.217682045343897,"true"
"image-keyboard-response",324,274797,"0.0-3.104-1.104","20g8gaznvzcrza5","133.csv","","null","resources/maskTrios/BT4B.jpg","null","",NA,NA,NA,NA,""
"image-keyboard-response",325,276001,"0.0-3.104-2.104","20g8gaznvzcrza5","133.csv","","null","resources/images/coin2.png","null","",NA,NA,NA,NA,""
"image-keyboard-response",326,276489,"0.0-3.105-0.105","20g8gaznvzcrza5","133.csv","","486.2999997138977","resources/trios/L4T4A3.jpg","37","restless",0.6,0.4,0.4,0.557710646853205,"true"
"image-keyboard-response",327,276896,"0.0-3.105-1.105","20g8gaznvzcrza5","133.csv","","null","resources/maskTrios/L4BB.jpg","null","",NA,NA,NA,NA,""
"image-keyboard-response",328,278098,"0.0-3.105-2.105","20g8gaznvzcrza5","133.csv","","null","resources/images/coin2.png","null","",NA,NA,NA,NA,""
"image-keyboard-response",329,278472,"0.0-3.106-0.106","20g8gaznvzcrza5","133.csv","","372.5","resources/trios/L4T2A2.jpg","38","restless",0.6,0.4,0.4,0.716413631512799,"false"
"image-keyboard-response",330,278878,"0.0-3.106-1.106","20g8gaznvzcrza5","133.csv","","null","resources/maskTrios/BT2B.jpg","null","",NA,NA,NA,NA,""
"image-keyboard-response",331,280084,"0.0-3.106-2.106","20g8gaznvzcrza5","133.csv","","null","resources/images/fishbone.png","null","",NA,NA,NA,NA,""
"image-keyboard-response",332,280529,"0.0-3.107-0.107","20g8gaznvzcrza5","133.csv","","443.09999990463257","resources/trios/L2T2A2.jpg","38","restless",0.6,0.4,0.4,0.510144299685896,"false"
"image-keyboard-response",333,280933,"0.0-3.107-1.107","20g8gaznvzcrza5","133.csv","","null","resources/maskTrios/BT2B.jpg","null","",NA,NA,NA,NA,""
"image-keyboard-response",334,282137,"0.0-3.107-2.107","20g8gaznvzcrza5","133.csv","","null","resources/images/fishbone.png","null","",NA,NA,NA,NA,""
"image-keyboard-response",335,282438,"0.0-3.108-0.108","20g8gaznvzcrza5","133.csv","","299.90000009536743","resources/trios/L2T2A2.jpg","38","restless",0.6,0.4,0.4,0.761248218512009,"false"
"image-keyboard-response",336,282841,"0.0-3.108-1.108","20g8gaznvzcrza5","133.csv","","null","resources/maskTrios/BT2B.jpg","null","",NA,NA,NA,NA,""
"image-keyboard-response",337,284047,"0.0-3.108-2.108","20g8gaznvzcrza5","133.csv","","null","resources/images/fishbone.png","null","",NA,NA,NA,NA,""
"image-keyboard-response",338,284370,"0.0-3.109-0.109","20g8gaznvzcrza5","133.csv","","322.2000002861023","resources/trios/L2T4A2.jpg","39","restless",0.6,0.4,0.4,0.605896799107542,"false"
"image-keyboard-response",339,284776,"0.0-3.109-1.109","20g8gaznvzcrza5","133.csv","","null","resources/maskTrios/BBA2.jpg","null","",NA,NA,NA,NA,""
"image-keyboard-response",340,285982,"0.0-3.109-2.109","20g8gaznvzcrza5","133.csv","","null","resources/images/fishbone.png","null","",NA,NA,NA,NA,""
"image-keyboard-response",341,286490,"0.0-3.110-0.110","20g8gaznvzcrza5","133.csv","","507","resources/trios/L4T2A2.jpg","37","restless",0.6,0.4,0.5,0.489152769416464,"true"
"image-keyboard-response",342,286895,"0.0-3.110-1.110","20g8gaznvzcrza5","133.csv","","null","resources/maskTrios/L4BB.jpg","null","",NA,NA,NA,NA,""
"image-keyboard-response",343,288101,"0.0-3.110-2.110","20g8gaznvzcrza5","133.csv","","null","resources/images/coin2.png","null","",NA,NA,NA,NA,""
"image-keyboard-response",344,288460,"0.0-3.111-0.111","20g8gaznvzcrza5","133.csv","","357.90000009536743","resources/trios/L4T4A3.jpg","37","restless",0.6,0.4,0.5,0.88327822883387,"false"
"image-keyboard-response",345,288861,"0.0-3.111-1.111","20g8gaznvzcrza5","133.csv","","null","resources/maskTrios/L4BB.jpg","null","",NA,NA,NA,NA,""
"image-keyboard-response",346,290067,"0.0-3.111-2.111","20g8gaznvzcrza5","133.csv","","null","resources/images/fishbone.png","null","",NA,NA,NA,NA,""
"image-keyboard-response",347,290555,"0.0-3.112-0.112","20g8gaznvzcrza5","133.csv","","486.09999990463257","resources/trios/L2T4A3.jpg","38","restless",0.6,0.4,0.5,0.66729695229095,"false"
"image-keyboard-response",348,290961,"0.0-3.112-1.112","20g8gaznvzcrza5","133.csv","","null","resources/maskTrios/BT4B.jpg","null","",NA,NA,NA,NA,""
"image-keyboard-response",349,292168,"0.0-3.112-2.112","20g8gaznvzcrza5","133.csv","","null","resources/images/fishbone.png","null","",NA,NA,NA,NA,""
"image-keyboard-response",350,292487,"0.0-3.113-0.113","20g8gaznvzcrza5","133.csv","","318.40000009536743","resources/trios/L4T4A3.jpg","39","restless",0.6,0.4,0.5,0.288014368438521,"true"
"image-keyboard-response",351,292892,"0.0-3.113-1.113","20g8gaznvzcrza5","133.csv","","null","resources/maskTrios/BBA3.jpg","null","",NA,NA,NA,NA,""
"image-keyboard-response",352,294095,"0.0-3.113-2.113","20g8gaznvzcrza5","133.csv","","null","resources/images/coin2.png","null","",NA,NA,NA,NA,""
"image-keyboard-response",353,294509,"0.0-3.114-0.114","20g8gaznvzcrza5","133.csv","","412.5","resources/trios/L4T2A3.jpg","37","restless",0.6,0.4,0.5,0.453761712714795,"true"
"image-keyboard-response",354,294912,"0.0-3.114-1.114","20g8gaznvzcrza5","133.csv","","null","resources/maskTrios/L4BB.jpg","null","",NA,NA,NA,NA,""
"image-keyboard-response",355,296118,"0.0-3.114-2.114","20g8gaznvzcrza5","133.csv","","null","resources/images/coin2.png","null","",NA,NA,NA,NA,""
"image-keyboard-response",356,296410,"0.0-3.115-0.115","20g8gaznvzcrza5","133.csv","","290.59999990463257","resources/trios/L2T2A2.jpg","39","restless",0.6,0.4,0.5,0.127102610569443,"true"
"image-keyboard-response",357,296815,"0.0-3.115-1.115","20g8gaznvzcrza5","133.csv","","null","resources/maskTrios/BBA2.jpg","null","",NA,NA,NA,NA,""
"image-keyboard-response",358,298020,"0.0-3.115-2.115","20g8gaznvzcrza5","133.csv","","null","resources/images/coin2.png","null","",NA,NA,NA,NA,""
"image-keyboard-response",359,298400,"0.0-3.116-0.116","20g8gaznvzcrza5","133.csv","","377.40000009536743","resources/trios/L4T4A2.jpg","37","restless",0.6,0.4,0.5,0.00763076636039917,"true"
"image-keyboard-response",360,298805,"0.0-3.116-1.116","20g8gaznvzcrza5","133.csv","","null","resources/maskTrios/L4BB.jpg","null","",NA,NA,NA,NA,""
"image-keyboard-response",361,300011,"0.0-3.116-2.116","20g8gaznvzcrza5","133.csv","","null","resources/images/coin2.png","null","",NA,NA,NA,NA,""
"image-keyboard-response",362,300462,"0.0-3.117-0.117","20g8gaznvzcrza5","133.csv","","450.19999980926514","resources/trios/L2T4A2.jpg","39","restless",0.5,0.4,0.5,0.741606159713863,"false"
"image-keyboard-response",363,300868,"0.0-3.117-1.117","20g8gaznvzcrza5","133.csv","","null","resources/maskTrios/BBA2.jpg","null","",NA,NA,NA,NA,""
"image-keyboard-response",364,302071,"0.0-3.117-2.117","20g8gaznvzcrza5","133.csv","","null","resources/images/fishbone.png","null","",NA,NA,NA,NA,""
"image-keyboard-response",365,302639,"0.0-3.118-0.118","20g8gaznvzcrza5","133.csv","","567.1999998092651","resources/trios/L2T4A2.jpg","38","restless",0.5,0.4,0.5,0.258526090990945,"true"
"image-keyboard-response",366,303042,"0.0-3.118-1.118","20g8gaznvzcrza5","133.csv","","null","resources/maskTrios/BT4B.jpg","null","",NA,NA,NA,NA,""
"image-keyboard-response",367,304248,"0.0-3.118-2.118","20g8gaznvzcrza5","133.csv","","null","resources/images/coin2.png","null","",NA,NA,NA,NA,""
"image-keyboard-response",368,304522,"0.0-3.119-0.119","20g8gaznvzcrza5","133.csv","","272.8999996185303","resources/trios/L4T4A3.jpg","38","restless",0.5,0.4,0.5,0.623391927165272,"false"
"image-keyboard-response",369,304927,"0.0-3.119-1.119","20g8gaznvzcrza5","133.csv","","null","resources/maskTrios/BT4B.jpg","null","",NA,NA,NA,NA,""
"image-keyboard-response",370,306133,"0.0-3.119-2.119","20g8gaznvzcrza5","133.csv","","null","resources/images/fishbone.png","null","",NA,NA,NA,NA,""
"image-keyboard-response",371,306531,"0.0-3.120-0.120","20g8gaznvzcrza5","133.csv","","396.09999990463257","resources/trios/L4T4A3.jpg","39","restless",0.5,0.4,0.6,0.593279749263469,"true"
"image-keyboard-response",372,306933,"0.0-3.120-1.120","20g8gaznvzcrza5","133.csv","","null","resources/maskTrios/BBA3.jpg","null","",NA,NA,NA,NA,""
"image-keyboard-response",373,308137,"0.0-3.120-2.120","20g8gaznvzcrza5","133.csv","","null","resources/images/coin2.png","null","",NA,NA,NA,NA,""
"image-keyboard-response",374,308552,"0.0-3.121-0.121","20g8gaznvzcrza5","133.csv","","413","resources/trios/L4T2A2.jpg","38","restless",0.5,0.4,0.5,0.434690450668057,"false"
"image-keyboard-response",375,308957,"0.0-3.121-1.121","20g8gaznvzcrza5","133.csv","","null","resources/maskTrios/BT2B.jpg","null","",NA,NA,NA,NA,""
"image-keyboard-response",376,310163,"0.0-3.121-2.121","20g8gaznvzcrza5","133.csv","","null","resources/images/fishbone.png","null","",NA,NA,NA,NA,""
"image-keyboard-response",377,310427,"0.0-3.122-0.122","20g8gaznvzcrza5","133.csv","","262.5","resources/trios/L2T2A2.jpg","39","restless",0.5,0.4,0.5,0.924834751623489,"false"
"image-keyboard-response",378,310831,"0.0-3.122-1.122","20g8gaznvzcrza5","133.csv","","null","resources/maskTrios/BBA2.jpg","null","",NA,NA,NA,NA,""
"image-keyboard-response",379,312036,"0.0-3.122-2.122","20g8gaznvzcrza5","133.csv","","null","resources/images/fishbone.png","null","",NA,NA,NA,NA,""
"image-keyboard-response",380,312605,"0.0-3.123-0.123","20g8gaznvzcrza5","133.csv","","567.3999996185303","resources/trios/L2T2A2.jpg","38","restless",0.5,0.3,0.5,0.375786202928516,"false"
"image-keyboard-response",381,313011,"0.0-3.123-1.123","20g8gaznvzcrza5","133.csv","","null","resources/maskTrios/BT2B.jpg","null","",NA,NA,NA,NA,""
"image-keyboard-response",382,314213,"0.0-3.123-2.123","20g8gaznvzcrza5","133.csv","","null","resources/images/fishbone.png","null","",NA,NA,NA,NA,""
"image-keyboard-response",383,314554,"0.0-3.124-0.124","20g8gaznvzcrza5","133.csv","","340.19999980926514","resources/trios/L4T4A3.jpg","38","restless",0.5,0.3,0.5,0.338022642128185,"false"
"image-keyboard-response",384,314960,"0.0-3.124-1.124","20g8gaznvzcrza5","133.csv","","null","resources/maskTrios/BT4B.jpg","null","",NA,NA,NA,NA,""
"image-keyboard-response",385,316164,"0.0-3.124-2.124","20g8gaznvzcrza5","133.csv","","null","resources/images/fishbone.png","null","",NA,NA,NA,NA,""
"image-keyboard-response",386,316206,"0.0-3.125-0.125","20g8gaznvzcrza5","133.csv","","40.5","resources/trios/L4T4A2.jpg","37","restless",0.5,0.3,0.5,0.418875370126278,"true"
"image-keyboard-response",387,316611,"0.0-3.125-1.125","20g8gaznvzcrza5","133.csv","","null","resources/maskTrios/L4BB.jpg","null","",NA,NA,NA,NA,""
"image-keyboard-response",388,317817,"0.0-3.125-2.125","20g8gaznvzcrza5","133.csv","","null","resources/images/coin2.png","null","",NA,NA,NA,NA,""
"image-keyboard-response",389,318251,"0.0-3.126-0.126","20g8gaznvzcrza5","133.csv","","432.19999980926514","resources/trios/L2T4A3.jpg","38","restless",0.5,0.3,0.5,0.458015418702069,"false"
"image-keyboard-response",390,318653,"0.0-3.126-1.126","20g8gaznvzcrza5","133.csv","","null","resources/maskTrios/BT4B.jpg","null","",NA,NA,NA,NA,""
"image-keyboard-response",391,319856,"0.0-3.126-2.126","20g8gaznvzcrza5","133.csv","","null","resources/images/fishbone.png","null","",NA,NA,NA,NA,""
"image-keyboard-response",392,319917,"0.0-3.127-0.127","20g8gaznvzcrza5","133.csv","","59.200000286102295","resources/trios/L2T4A2.jpg","37","restless",0.5,0.3,0.5,0.137779083301807,"true"
"image-keyboard-response",393,320320,"0.0-3.127-1.127","20g8gaznvzcrza5","133.csv","","null","resources/maskTrios/L2BB.jpg","null","",NA,NA,NA,NA,""
"image-keyboard-response",394,321523,"0.0-3.127-2.127","20g8gaznvzcrza5","133.csv","","null","resources/images/coin2.png","null","",NA,NA,NA,NA,""
"image-keyboard-response",395,321828,"0.0-3.128-0.128","20g8gaznvzcrza5","133.csv","","304.09999990463257","resources/trios/L4T4A3.jpg","37","restless",0.6,0.3,0.5,0.831129637860955,"false"
"image-keyboard-response",396,322234,"0.0-3.128-1.128","20g8gaznvzcrza5","133.csv","","null","resources/maskTrios/L4BB.jpg","null","",NA,NA,NA,NA,""
"image-keyboard-response",397,323439,"0.0-3.128-2.128","20g8gaznvzcrza5","133.csv","","null","resources/images/fishbone.png","null","",NA,NA,NA,NA,""
"image-keyboard-response",398,323925,"0.0-3.129-0.129","20g8gaznvzcrza5","133.csv","","484.40000009536743","resources/trios/L2T4A2.jpg","39","restless",0.6,0.3,0.5,0.414397992668757,"true"
"image-keyboard-response",399,324326,"0.0-3.129-1.129","20g8gaznvzcrza5","133.csv","","null","resources/maskTrios/BBA2.jpg","null","",NA,NA,NA,NA,""
"image-keyboard-response",400,325532,"0.0-3.129-2.129","20g8gaznvzcrza5","133.csv","","null","resources/images/coin2.png","null","",NA,NA,NA,NA,""
"image-keyboard-response",401,325860,"0.0-3.130-0.130","20g8gaznvzcrza5","133.csv","","326","resources/trios/L2T4A2.jpg","37","restless",0.6,0.3,0.5,0.465413082261505,"true"
"image-keyboard-response",402,326266,"0.0-3.130-1.130","20g8gaznvzcrza5","133.csv","","null","resources/maskTrios/L2BB.jpg","null","",NA,NA,NA,NA,""
"image-keyboard-response",403,327468,"0.0-3.130-2.130","20g8gaznvzcrza5","133.csv","","null","resources/images/coin2.png","null","",NA,NA,NA,NA,""
"image-keyboard-response",404,327780,"0.0-3.131-0.131","20g8gaznvzcrza5","133.csv","","310.09999990463257","resources/trios/L4T2A3.jpg","39","restless",0.6,0.3,0.5,0.748641106763528,"false"
"image-keyboard-response",405,328186,"0.0-3.131-1.131","20g8gaznvzcrza5","133.csv","","null","resources/maskTrios/BBA3.jpg","null","",NA,NA,NA,NA,""
"image-keyboard-response",406,329389,"0.0-3.131-2.131","20g8gaznvzcrza5","133.csv","","null","resources/images/fishbone.png","null","",NA,NA,NA,NA,""
"image-keyboard-response",407,329832,"0.0-3.132-0.132","20g8gaznvzcrza5","133.csv","","442.30000019073486","resources/trios/L4T2A3.jpg","39","restless",0.6,0.2,0.5,0.594850797922122,"false"
"image-keyboard-response",408,330236,"0.0-3.132-1.132","20g8gaznvzcrza5","133.csv","","null","resources/maskTrios/BBA3.jpg","null","",NA,NA,NA,NA,""
"image-keyboard-response",409,331437,"0.0-3.132-2.132","20g8gaznvzcrza5","133.csv","","null","resources/images/fishbone.png","null","",NA,NA,NA,NA,""
"image-keyboard-response",410,331775,"0.0-3.133-0.133","20g8gaznvzcrza5","133.csv","","336.90000009536743","resources/trios/L2T4A3.jpg","37","restless",0.6,0.2,0.4,0.661031357421114,"false"
"image-keyboard-response",411,332181,"0.0-3.133-1.133","20g8gaznvzcrza5","133.csv","","null","resources/maskTrios/L2BB.jpg","null","",NA,NA,NA,NA,""
"image-keyboard-response",412,333387,"0.0-3.133-2.133","20g8gaznvzcrza5","133.csv","","null","resources/images/fishbone.png","null","",NA,NA,NA,NA,""
"image-keyboard-response",413,333412,"0.0-3.134-0.134","20g8gaznvzcrza5","133.csv","","24.199999809265137","resources/trios/L2T4A3.jpg","38","restless",0.6,0.2,0.4,0.705317362959624,"false"
"image-keyboard-response",414,333818,"0.0-3.134-1.134","20g8gaznvzcrza5","133.csv","","null","resources/maskTrios/BT4B.jpg","null","",NA,NA,NA,NA,""
"image-keyboard-response",415,335019,"0.0-3.134-2.134","20g8gaznvzcrza5","133.csv","","null","resources/images/fishbone.png","null","",NA,NA,NA,NA,""
"image-keyboard-response",416,335475,"0.0-3.135-0.135","20g8gaznvzcrza5","133.csv","","455.09999990463257","resources/trios/L2T4A3.jpg","39","restless",0.5,0.2,0.4,0.4493790931694,"false"
"image-keyboard-response",417,335882,"0.0-3.135-1.135","20g8gaznvzcrza5","133.csv","","null","resources/maskTrios/BBA3.jpg","null","",NA,NA,NA,NA,""
"image-keyboard-response",418,337086,"0.0-3.135-2.135","20g8gaznvzcrza5","133.csv","","null","resources/images/fishbone.png","null","",NA,NA,NA,NA,""
"image-keyboard-response",419,337615,"0.0-3.136-0.136","20g8gaznvzcrza5","133.csv","","527.8000001907349","resources/trios/L2T2A2.jpg","37","restless",0.5,0.2,0.4,0.232241856140592,"true"
"image-keyboard-response",420,338020,"0.0-3.136-1.136","20g8gaznvzcrza5","133.csv","","null","resources/maskTrios/L2BB.jpg","null","",NA,NA,NA,NA,""
"image-keyboard-response",421,339226,"0.0-3.136-2.136","20g8gaznvzcrza5","133.csv","","null","resources/images/coin2.png","null","",NA,NA,NA,NA,""
"image-keyboard-response",422,339795,"0.0-3.137-0.137","20g8gaznvzcrza5","133.csv","","567.8000001907349","resources/trios/L4T4A2.jpg","37","restless",0.4,0.3,0.4,0.671642292957575,"false"
"image-keyboard-response",423,340198,"0.0-3.137-1.137","20g8gaznvzcrza5","133.csv","","null","resources/maskTrios/L4BB.jpg","null","",NA,NA,NA,NA,""
"image-keyboard-response",424,341400,"0.0-3.137-2.137","20g8gaznvzcrza5","133.csv","","null","resources/images/fishbone.png","null","",NA,NA,NA,NA,""
"image-keyboard-response",425,341779,"0.0-3.138-0.138","20g8gaznvzcrza5","133.csv","","377.7000002861023","resources/trios/L4T2A2.jpg","38","restless",0.4,0.3,0.4,0.809116162943962,"false"
"image-keyboard-response",426,342186,"0.0-3.138-1.138","20g8gaznvzcrza5","133.csv","","null","resources/maskTrios/BT2B.jpg","null","",NA,NA,NA,NA,""
"image-keyboard-response",427,343391,"0.0-3.138-2.138","20g8gaznvzcrza5","133.csv","","null","resources/images/fishbone.png","null","",NA,NA,NA,NA,""
"image-keyboard-response",428,343810,"0.0-3.139-0.139","20g8gaznvzcrza5","133.csv","","417.90000009536743","resources/trios/L4T4A3.jpg","39","restless",0.4,0.4,0.4,0.817519701575693,"false"
"image-keyboard-response",429,344211,"0.0-3.139-1.139","20g8gaznvzcrza5","133.csv","","null","resources/maskTrios/BBA3.jpg","null","",NA,NA,NA,NA,""
"image-keyboard-response",430,345417,"0.0-3.139-2.139","20g8gaznvzcrza5","133.csv","","null","resources/images/fishbone.png","null","",NA,NA,NA,NA,""
"image-keyboard-response",431,346684,"0.0-3.140-0.140","20g8gaznvzcrza5","133.csv","","1266.0999999046326","resources/trios/L4T2A2.jpg","39","restless",0.4,0.4,0.4,0.861027626199504,"false"
"image-keyboard-response",432,347090,"0.0-3.140-1.140","20g8gaznvzcrza5","133.csv","","null","resources/maskTrios/BBA2.jpg","null","",NA,NA,NA,NA,""
"image-keyboard-response",433,348296,"0.0-3.140-2.140","20g8gaznvzcrza5","133.csv","","null","resources/images/fishbone.png","null","",NA,NA,NA,NA,""
"image-keyboard-response",434,348558,"0.0-3.141-0.141","20g8gaznvzcrza5","133.csv","","261","resources/trios/L2T2A2.jpg","38","restless",0.4,0.4,0.4,0.250469589019771,"true"
"image-keyboard-response",435,348965,"0.0-3.141-1.141","20g8gaznvzcrza5","133.csv","","null","resources/maskTrios/BT2B.jpg","null","",NA,NA,NA,NA,""
"image-keyboard-response",436,350168,"0.0-3.141-2.141","20g8gaznvzcrza5","133.csv","","null","resources/images/coin2.png","null","",NA,NA,NA,NA,""
"image-keyboard-response",437,351963,"0.0-3.142-0.142","20g8gaznvzcrza5","133.csv","","1793.5999999046326","resources/trios/L4T4A2.jpg","37","restless",0.4,0.4,0.4,0.825679654223257,"false"
"image-keyboard-response",438,352368,"0.0-3.142-1.142","20g8gaznvzcrza5","133.csv","","null","resources/maskTrios/L4BB.jpg","null","",NA,NA,NA,NA,""
"image-keyboard-response",439,353569,"0.0-3.142-2.142","20g8gaznvzcrza5","133.csv","","null","resources/images/fishbone.png","null","",NA,NA,NA,NA,""
"image-keyboard-response",440,353687,"0.0-3.143-0.143","20g8gaznvzcrza5","133.csv","","116","resources/trios/L4T2A2.jpg","38","restless",0.4,0.4,0.4,0.871458785441439,"false"
"image-keyboard-response",441,354092,"0.0-3.143-1.143","20g8gaznvzcrza5","133.csv","","null","resources/maskTrios/BT2B.jpg","null","",NA,NA,NA,NA,""
"image-keyboard-response",442,355295,"0.0-3.143-2.143","20g8gaznvzcrza5","133.csv","","null","resources/images/fishbone.png","null","",NA,NA,NA,NA,""
"image-keyboard-response",443,355587,"0.0-3.144-0.144","20g8gaznvzcrza5","133.csv","","290.09999990463257","resources/trios/L4T4A2.jpg","39","restless",0.4,0.4,0.4,0.0986995271386408,"true"
"image-keyboard-response",444,355991,"0.0-3.144-1.144","20g8gaznvzcrza5","133.csv","","null","resources/maskTrios/BBA2.jpg","null","",NA,NA,NA,NA,""
"image-keyboard-response",445,357194,"0.0-3.144-2.144","20g8gaznvzcrza5","133.csv","","null","resources/images/coin2.png","null","",NA,NA,NA,NA,""
"image-keyboard-response",446,357636,"0.0-3.145-0.145","20g8gaznvzcrza5","133.csv","","441.09999990463257","resources/trios/L2T2A2.jpg","37","restless",0.4,0.4,0.4,0.599107518820149,"false"
"image-keyboard-response",447,358038,"0.0-3.145-1.145","20g8gaznvzcrza5","133.csv","","null","resources/maskTrios/L2BB.jpg","null","",NA,NA,NA,NA,""
"image-keyboard-response",448,359244,"0.0-3.145-2.145","20g8gaznvzcrza5","133.csv","","null","resources/images/fishbone.png","null","",NA,NA,NA,NA,""
"image-keyboard-response",449,359585,"0.0-3.146-0.146","20g8gaznvzcrza5","133.csv","","339.2000002861023","resources/trios/L2T4A3.jpg","39","restless",0.4,0.4,0.4,0.908078996698411,"false"
"image-keyboard-response",450,359990,"0.0-3.146-1.146","20g8gaznvzcrza5","133.csv","","null","resources/maskTrios/BBA3.jpg","null","",NA,NA,NA,NA,""
"image-keyboard-response",451,361196,"0.0-3.146-2.146","20g8gaznvzcrza5","133.csv","","null","resources/images/fishbone.png","null","",NA,NA,NA,NA,""
"image-keyboard-response",452,361502,"0.0-3.147-0.147","20g8gaznvzcrza5","133.csv","","304.6000003814697","resources/trios/L4T4A2.jpg","38","restless",0.4,0.4,0.4,0.0687761950354615,"true"
"image-keyboard-response",453,361908,"0.0-3.147-1.147","20g8gaznvzcrza5","133.csv","","null","resources/maskTrios/BT4B.jpg","null","",NA,NA,NA,NA,""
"image-keyboard-response",454,363114,"0.0-3.147-2.147","20g8gaznvzcrza5","133.csv","","null","resources/images/coin2.png","null","",NA,NA,NA,NA,""
"image-keyboard-response",455,363428,"0.0-3.148-0.148","20g8gaznvzcrza5","133.csv","","312.5","resources/trios/L4T4A2.jpg","38","restless",0.4,0.4,0.4,0.630112590931215,"false"
"image-keyboard-response",456,363833,"0.0-3.148-1.148","20g8gaznvzcrza5","133.csv","","null","resources/maskTrios/BT4B.jpg","null","",NA,NA,NA,NA,""
"image-keyboard-response",457,365037,"0.0-3.148-2.148","20g8gaznvzcrza5","133.csv","","null","resources/images/fishbone.png","null","",NA,NA,NA,NA,""
"image-keyboard-response",458,365562,"0.0-3.149-0.149","20g8gaznvzcrza5","133.csv","","523.9000000953674","resources/trios/L4T4A3.jpg","38","restless",0.4,0.4,0.4,0.134992579543154,"true"
"image-keyboard-response",459,365968,"0.0-3.149-1.149","20g8gaznvzcrza5","133.csv","","null","resources/maskTrios/BT4B.jpg","null","",NA,NA,NA,NA,""
"image-keyboard-response",460,367175,"0.0-3.149-2.149","20g8gaznvzcrza5","133.csv","","null","resources/images/coin2.png","null","",NA,NA,NA,NA,""
"image-keyboard-response",461,367553,"0.0-3.150-0.150","20g8gaznvzcrza5","133.csv","","376.69999980926514","resources/trios/L4T2A3.jpg","39","restless",0.5,0.4,0.4,0.196293719142235,"true"
"image-keyboard-response",462,367959,"0.0-3.150-1.150","20g8gaznvzcrza5","133.csv","","null","resources/maskTrios/BBA3.jpg","null","",NA,NA,NA,NA,""
"image-keyboard-response",463,369166,"0.0-3.150-2.150","20g8gaznvzcrza5","133.csv","","null","resources/images/coin2.png","null","",NA,NA,NA,NA,""
"image-keyboard-response",464,369552,"0.0-3.151-0.151","20g8gaznvzcrza5","133.csv","","385.09999990463257","resources/trios/L4T4A3.jpg","38","restless",0.5,0.5,0.4,0.292018668032643,"true"
"image-keyboard-response",465,369959,"0.0-3.151-1.151","20g8gaznvzcrza5","133.csv","","null","resources/maskTrios/BT4B.jpg","null","",NA,NA,NA,NA,""
"image-keyboard-response",466,371165,"0.0-3.151-2.151","20g8gaznvzcrza5","133.csv","","null","resources/images/coin2.png","null","",NA,NA,NA,NA,""
"image-keyboard-response",467,371678,"0.0-3.152-0.152","20g8gaznvzcrza5","133.csv","","511.09999990463257","resources/trios/L2T2A2.jpg","39","restless",0.5,0.5,0.5,0.938064818853111,"false"
"image-keyboard-response",468,372083,"0.0-3.152-1.152","20g8gaznvzcrza5","133.csv","","null","resources/maskTrios/BBA2.jpg","null","",NA,NA,NA,NA,""
"image-keyboard-response",469,373290,"0.0-3.152-2.152","20g8gaznvzcrza5","133.csv","","null","resources/images/fishbone.png","null","",NA,NA,NA,NA,""
"image-keyboard-response",470,373884,"0.0-3.153-0.153","20g8gaznvzcrza5","133.csv","","592.6000003814697","resources/trios/L4T4A3.jpg","37","restless",0.5,0.5,0.5,0.301904670217667,"true"
"image-keyboard-response",471,374290,"0.0-3.153-1.153","20g8gaznvzcrza5","133.csv","","null","resources/maskTrios/L4BB.jpg","null","",NA,NA,NA,NA,""
"image-keyboard-response",472,375494,"0.0-3.153-2.153","20g8gaznvzcrza5","133.csv","","null","resources/images/coin2.png","null","",NA,NA,NA,NA,""
"image-keyboard-response",473,375951,"0.0-3.154-0.154","20g8gaznvzcrza5","133.csv","","455.19999980926514","resources/trios/L2T2A2.jpg","38","restless",0.5,0.5,0.5,0.460828488393921,"true"
"image-keyboard-response",474,376354,"0.0-3.154-1.154","20g8gaznvzcrza5","133.csv","","null","resources/maskTrios/BT2B.jpg","null","",NA,NA,NA,NA,""
"image-keyboard-response",475,377560,"0.0-3.154-2.154","20g8gaznvzcrza5","133.csv","","null","resources/images/coin2.png","null","",NA,NA,NA,NA,""
"image-keyboard-response",476,377938,"0.0-3.155-0.155","20g8gaznvzcrza5","133.csv","","377.09999990463257","resources/trios/L4T4A3.jpg","39","restless",0.5,0.5,0.6,0.784939758338086,"false"
"image-keyboard-response",477,378342,"0.0-3.155-1.155","20g8gaznvzcrza5","133.csv","","null","resources/maskTrios/BBA3.jpg","null","",NA,NA,NA,NA,""
"image-keyboard-response",478,379547,"0.0-3.155-2.155","20g8gaznvzcrza5","133.csv","","null","resources/images/fishbone.png","null","",NA,NA,NA,NA,""
"image-keyboard-response",479,379995,"0.0-3.156-0.156","20g8gaznvzcrza5","133.csv","","445.90000009536743","resources/trios/L2T2A2.jpg","37","restless",0.5,0.5,0.6,0.448414454749158,"true"
"image-keyboard-response",480,380401,"0.0-3.156-1.156","20g8gaznvzcrza5","133.csv","","null","resources/maskTrios/L2BB.jpg","null","",NA,NA,NA,NA,""
"image-keyboard-response",481,381607,"0.0-3.156-2.156","20g8gaznvzcrza5","133.csv","","null","resources/images/coin2.png","null","",NA,NA,NA,NA,""
"image-keyboard-response",482,381962,"0.0-3.157-0.157","20g8gaznvzcrza5","133.csv","","353.59999990463257","resources/trios/L2T4A3.jpg","38","restless",0.5,0.5,0.6,0.589931627177553,"false"
"image-keyboard-response",483,382367,"0.0-3.157-1.157","20g8gaznvzcrza5","133.csv","","null","resources/maskTrios/BT4B.jpg","null","",NA,NA,NA,NA,""
"image-keyboard-response",484,383569,"0.0-3.157-2.157","20g8gaznvzcrza5","133.csv","","null","resources/images/fishbone.png","null","",NA,NA,NA,NA,""
"image-keyboard-response",485,383897,"0.0-3.158-0.158","20g8gaznvzcrza5","133.csv","","326.19999980926514","resources/trios/L2T2A3.jpg","37","restless",0.5,0.5,0.6,0.211188212709588,"true"
"image-keyboard-response",486,384299,"0.0-3.158-1.158","20g8gaznvzcrza5","133.csv","","null","resources/maskTrios/L2BB.jpg","null","",NA,NA,NA,NA,""
"image-keyboard-response",487,385502,"0.0-3.158-2.158","20g8gaznvzcrza5","133.csv","","null","resources/images/coin2.png","null","",NA,NA,NA,NA,""
"image-keyboard-response",488,385868,"0.0-3.159-0.159","20g8gaznvzcrza5","133.csv","","364.59999990463257","resources/trios/L4T4A2.jpg","37","restless",0.5,0.5,0.6,0.26072527214073,"true"
"image-keyboard-response",489,386275,"0.0-3.159-1.159","20g8gaznvzcrza5","133.csv","","null","resources/maskTrios/L4BB.jpg","null","",NA,NA,NA,NA,""
"image-keyboard-response",490,387480,"0.0-3.159-2.159","20g8gaznvzcrza5","133.csv","","null","resources/images/coin2.png","null","",NA,NA,NA,NA,""
"image-keyboard-response",491,388071,"0.0-3.160-0.160","20g8gaznvzcrza5","133.csv","","588.9000000953674","resources/trios/L2T4A3.jpg","38","restless",0.5,0.4,0.6,0.165842739191468,"true"
"image-keyboard-response",492,388473,"0.0-3.160-1.160","20g8gaznvzcrza5","133.csv","","null","resources/maskTrios/BT4B.jpg","null","",NA,NA,NA,NA,""
"image-keyboard-response",493,389675,"0.0-3.160-2.160","20g8gaznvzcrza5","133.csv","","null","resources/images/coin2.png","null","",NA,NA,NA,NA,""
"image-keyboard-response",494,390078,"0.0-3.161-0.161","20g8gaznvzcrza5","133.csv","","401.7999997138977","resources/trios/L4T2A3.jpg","38","restless",0.5,0.4,0.6,0.41946057648009,"false"
"image-keyboard-response",495,390483,"0.0-3.161-1.161","20g8gaznvzcrza5","133.csv","","null","resources/maskTrios/BT2B.jpg","null","",NA,NA,NA,NA,""
"image-keyboard-response",496,391686,"0.0-3.161-2.161","20g8gaznvzcrza5","133.csv","","null","resources/images/fishbone.png","null","",NA,NA,NA,NA,""
"image-keyboard-response",497,391955,"0.0-3.162-0.162","20g8gaznvzcrza5","133.csv","","268.09999990463257","resources/trios/L2T2A2.jpg","37","restless",0.5,0.4,0.6,0.605206640615995,"false"
"image-keyboard-response",498,392361,"0.0-3.162-1.162","20g8gaznvzcrza5","133.csv","","null","resources/maskTrios/L2BB.jpg","null","",NA,NA,NA,NA,""
"image-keyboard-response",499,393566,"0.0-3.162-2.162","20g8gaznvzcrza5","133.csv","","null","resources/images/fishbone.png","null","",NA,NA,NA,NA,""
"image-keyboard-response",500,394016,"0.0-3.163-0.163","20g8gaznvzcrza5","133.csv","","448.40000009536743","resources/trios/L2T4A3.jpg","38","restless",0.5,0.4,0.6,0.698140133671965,"false"
"image-keyboard-response",501,394418,"0.0-3.163-1.163","20g8gaznvzcrza5","133.csv","","null","resources/maskTrios/BT4B.jpg","null","",NA,NA,NA,NA,""
"image-keyboard-response",502,395623,"0.0-3.163-2.163","20g8gaznvzcrza5","133.csv","","null","resources/images/fishbone.png","null","",NA,NA,NA,NA,""
"image-keyboard-response",503,395917,"0.0-3.164-0.164","20g8gaznvzcrza5","133.csv","","292.30000019073486","resources/trios/L2T4A2.jpg","39","restless",0.6,0.5,0.6,0.275551570611325,"true"
"image-keyboard-response",504,396319,"0.0-3.164-1.164","20g8gaznvzcrza5","133.csv","","null","resources/maskTrios/BBA2.jpg","null","",NA,NA,NA,NA,""
"image-keyboard-response",505,397526,"0.0-3.164-2.164","20g8gaznvzcrza5","133.csv","","null","resources/images/coin2.png","null","",NA,NA,NA,NA,""
"image-keyboard-response",506,397849,"0.0-3.165-0.165","20g8gaznvzcrza5","133.csv","","321.90000009536743","resources/trios/L2T2A2.jpg","39","restless",0.6,0.5,0.6,0.790945429538591,"false"
"image-keyboard-response",507,398251,"0.0-3.165-1.165","20g8gaznvzcrza5","133.csv","","null","resources/maskTrios/BBA2.jpg","null","",NA,NA,NA,NA,""
"image-keyboard-response",508,399455,"0.0-3.165-2.165","20g8gaznvzcrza5","133.csv","","null","resources/images/fishbone.png","null","",NA,NA,NA,NA,""
"image-keyboard-response",509,400018,"0.0-3.166-0.166","20g8gaznvzcrza5","133.csv","","562.5","resources/trios/L4T2A2.jpg","39","restless",0.6,0.5,0.6,0.176761243929076,"true"
"image-keyboard-response",510,400423,"0.0-3.166-1.166","20g8gaznvzcrza5","133.csv","","null","resources/maskTrios/BBA2.jpg","null","",NA,NA,NA,NA,""
"image-keyboard-response",511,401630,"0.0-3.166-2.166","20g8gaznvzcrza5","133.csv","","null","resources/images/coin2.png","null","",NA,NA,NA,NA,""
"image-keyboard-response",512,401947,"0.0-3.167-0.167","20g8gaznvzcrza5","133.csv","","315.80000019073486","resources/trios/L4T2A3.jpg","37","restless",0.6,0.4,0.6,0.970050188950376,"false"
"image-keyboard-response",513,402349,"0.0-3.167-1.167","20g8gaznvzcrza5","133.csv","","null","resources/maskTrios/L4BB.jpg","null","",NA,NA,NA,NA,""
"image-keyboard-response",514,403555,"0.0-3.167-2.167","20g8gaznvzcrza5","133.csv","","null","resources/images/fishbone.png","null","",NA,NA,NA,NA,""
"image-keyboard-response",515,403927,"0.0-3.168-0.168","20g8gaznvzcrza5","133.csv","","370.09999990463257","resources/trios/L4T2A3.jpg","39","restless",0.6,0.4,0.6,0.818823007989557,"false"
"image-keyboard-response",516,404333,"0.0-3.168-1.168","20g8gaznvzcrza5","133.csv","","null","resources/maskTrios/BBA3.jpg","null","",NA,NA,NA,NA,""
"image-keyboard-response",517,405539,"0.0-3.168-2.168","20g8gaznvzcrza5","133.csv","","null","resources/images/fishbone.png","null","",NA,NA,NA,NA,""
"image-keyboard-response",518,406007,"0.0-3.169-0.169","20g8gaznvzcrza5","133.csv","","466.69999980926514","resources/trios/L2T4A2.jpg","39","restless",0.6,0.4,0.6,0.907373050299722,"false"
"image-keyboard-response",519,406409,"0.0-3.169-1.169","20g8gaznvzcrza5","133.csv","","null","resources/maskTrios/BBA2.jpg","null","",NA,NA,NA,NA,""
"image-keyboard-response",520,407615,"0.0-3.169-2.169","20g8gaznvzcrza5","133.csv","","null","resources/images/fishbone.png","null","",NA,NA,NA,NA,""
"image-keyboard-response",521,407890,"0.0-3.170-0.170","20g8gaznvzcrza5","133.csv","","273.09999990463257","resources/trios/L2T2A3.jpg","38","restless",0.6,0.4,0.6,0.640110703591095,"false"
"image-keyboard-response",522,408294,"0.0-3.170-1.170","20g8gaznvzcrza5","133.csv","","null","resources/maskTrios/BT2B.jpg","null","",NA,NA,NA,NA,""
"image-keyboard-response",523,409499,"0.0-3.170-2.170","20g8gaznvzcrza5","133.csv","","null","resources/images/fishbone.png","null","",NA,NA,NA,NA,""
"image-keyboard-response",524,409753,"0.0-3.171-0.171","20g8gaznvzcrza5","133.csv","","251.89999961853027","resources/trios/L4T4A3.jpg","37","restless",0.7,0.4,0.6,0.720781119369948,"false"
"image-keyboard-response",525,410159,"0.0-3.171-1.171","20g8gaznvzcrza5","133.csv","","null","resources/maskTrios/L4BB.jpg","null","",NA,NA,NA,NA,""
"image-keyboard-response",526,411361,"0.0-3.171-2.171","20g8gaznvzcrza5","133.csv","","null","resources/images/fishbone.png","null","",NA,NA,NA,NA,""
"image-keyboard-response",527,411767,"0.0-3.172-0.172","20g8gaznvzcrza5","133.csv","","404.59999990463257","resources/trios/L2T4A3.jpg","38","restless",0.7,0.4,0.6,0.705517750190202,"false"
"image-keyboard-response",528,412174,"0.0-3.172-1.172","20g8gaznvzcrza5","133.csv","","null","resources/maskTrios/BT4B.jpg","null","",NA,NA,NA,NA,""
"image-keyboard-response",529,413379,"0.0-3.172-2.172","20g8gaznvzcrza5","133.csv","","null","resources/images/fishbone.png","null","",NA,NA,NA,NA,""
"image-keyboard-response",530,413636,"0.0-3.173-0.173","20g8gaznvzcrza5","133.csv","","256.2000002861023","resources/trios/L2T2A2.jpg","38","restless",0.7,0.4,0.6,0.135808721403117,"true"
"image-keyboard-response",531,414038,"0.0-3.173-1.173","20g8gaznvzcrza5","133.csv","","null","resources/maskTrios/BT2B.jpg","null","",NA,NA,NA,NA,""
"image-keyboard-response",532,415242,"0.0-3.173-2.173","20g8gaznvzcrza5","133.csv","","null","resources/images/coin2.png","null","",NA,NA,NA,NA,""
"image-keyboard-response",533,415706,"0.0-3.174-0.174","20g8gaznvzcrza5","133.csv","","462.6000003814697","resources/trios/L2T4A2.jpg","38","restless",0.7,0.4,0.6,0.727944545540135,"false"
"image-keyboard-response",534,416111,"0.0-3.174-1.174","20g8gaznvzcrza5","133.csv","","null","resources/maskTrios/BT4B.jpg","null","",NA,NA,NA,NA,""
"image-keyboard-response",535,417316,"0.0-3.174-2.174","20g8gaznvzcrza5","133.csv","","null","resources/images/fishbone.png","null","",NA,NA,NA,NA,""
"image-keyboard-response",536,417598,"0.0-3.175-0.175","20g8gaznvzcrza5","133.csv","","280","resources/trios/L4T4A2.jpg","39","restless",0.7,0.4,0.6,0.173752424293523,"true"
"image-keyboard-response",537,418000,"0.0-3.175-1.175","20g8gaznvzcrza5","133.csv","","null","resources/maskTrios/BBA2.jpg","null","",NA,NA,NA,NA,""
"image-keyboard-response",538,419205,"0.0-3.175-2.175","20g8gaznvzcrza5","133.csv","","null","resources/images/coin2.png","null","",NA,NA,NA,NA,""
"image-keyboard-response",539,419604,"0.0-3.176-0.176","20g8gaznvzcrza5","133.csv","","397.7999997138977","resources/trios/L2T4A3.jpg","38","restless",0.7,0.3,0.6,0.258429961808361,"true"
"image-keyboard-response",540,420007,"0.0-3.176-1.176","20g8gaznvzcrza5","133.csv","","null","resources/maskTrios/BT4B.jpg","null","",NA,NA,NA,NA,""
"image-keyboard-response",541,421213,"0.0-3.176-2.176","20g8gaznvzcrza5","133.csv","","null","resources/images/coin2.png","null","",NA,NA,NA,NA,""
"image-keyboard-response",542,421752,"0.0-3.177-0.177","20g8gaznvzcrza5","133.csv","","537.5999999046326","resources/trios/L2T4A3.jpg","39","restless",0.7,0.3,0.6,0.582250130011828,"true"
"image-keyboard-response",543,422157,"0.0-3.177-1.177","20g8gaznvzcrza5","133.csv","","null","resources/maskTrios/BBA3.jpg","null","",NA,NA,NA,NA,""
"image-keyboard-response",544,423359,"0.0-3.177-2.177","20g8gaznvzcrza5","133.csv","","null","resources/images/coin2.png","null","",NA,NA,NA,NA,""
"image-keyboard-response",545,423757,"0.0-3.178-0.178","20g8gaznvzcrza5","133.csv","","397.19999980926514","resources/trios/L2T4A3.jpg","38","restless",0.7,0.3,0.6,0.293971666956177,"true"
"image-keyboard-response",546,424160,"0.0-3.178-1.178","20g8gaznvzcrza5","133.csv","","null","resources/maskTrios/BT4B.jpg","null","",NA,NA,NA,NA,""
"image-keyboard-response",547,425367,"0.0-3.178-2.178","20g8gaznvzcrza5","133.csv","","null","resources/images/coin2.png","null","",NA,NA,NA,NA,""
"image-keyboard-response",548,425855,"0.0-3.179-0.179","20g8gaznvzcrza5","133.csv","","487.3999996185303","resources/trios/L4T4A2.jpg","39","restless",0.7,0.3,0.6,0.166155349299141,"true"
"image-keyboard-response",549,426262,"0.0-3.179-1.179","20g8gaznvzcrza5","133.csv","","null","resources/maskTrios/BBA2.jpg","null","",NA,NA,NA,NA,""
"image-keyboard-response",550,427466,"0.0-3.179-2.179","20g8gaznvzcrza5","133.csv","","null","resources/images/coin2.png","null","",NA,NA,NA,NA,""
"image-keyboard-response",551,427794,"0.0-3.180-0.180","20g8gaznvzcrza5","133.csv","","327","resources/trios/L2T2A2.jpg","38","restless",0.7,0.3,0.6,0.000463774280225593,"true"
"image-keyboard-response",552,428199,"0.0-3.180-1.180","20g8gaznvzcrza5","133.csv","","null","resources/maskTrios/BT2B.jpg","null","",NA,NA,NA,NA,""
"image-keyboard-response",553,429403,"0.0-3.180-2.180","20g8gaznvzcrza5","133.csv","","null","resources/images/coin2.png","null","",NA,NA,NA,NA,""
"image-keyboard-response",554,429711,"0.0-3.181-0.181","20g8gaznvzcrza5","133.csv","","306.5","resources/trios/L2T4A2.jpg","39","restless",0.7,0.3,0.6,0.413535190644306,"true"
"image-keyboard-response",555,430116,"0.0-3.181-1.181","20g8gaznvzcrza5","133.csv","","null","resources/maskTrios/BBA2.jpg","null","",NA,NA,NA,NA,""
"image-keyboard-response",556,431317,"0.0-3.181-2.181","20g8gaznvzcrza5","133.csv","","null","resources/images/coin2.png","null","",NA,NA,NA,NA,""
"image-keyboard-response",557,431550,"0.0-3.182-0.182","20g8gaznvzcrza5","133.csv","","231.59999990463257","resources/trios/L2T2A2.jpg","38","restless",0.7,0.2,0.6,0.863356955110848,"false"
"image-keyboard-response",558,431956,"0.0-3.182-1.182","20g8gaznvzcrza5","133.csv","","null","resources/maskTrios/BT2B.jpg","null","",NA,NA,NA,NA,""
"image-keyboard-response",559,433162,"0.0-3.182-2.182","20g8gaznvzcrza5","133.csv","","null","resources/images/fishbone.png","null","",NA,NA,NA,NA,""
"image-keyboard-response",560,433464,"0.0-3.183-0.183","20g8gaznvzcrza5","133.csv","","300.09999990463257","resources/trios/L4T2A3.jpg","39","restless",0.7,0.2,0.6,0.452871995000532,"true"
"image-keyboard-response",561,433867,"0.0-3.183-1.183","20g8gaznvzcrza5","133.csv","","null","resources/maskTrios/BBA3.jpg","null","",NA,NA,NA,NA,""
"image-keyboard-response",562,435071,"0.0-3.183-2.183","20g8gaznvzcrza5","133.csv","","null","resources/images/coin2.png","null","",NA,NA,NA,NA,""
"image-keyboard-response",563,435365,"0.0-3.184-0.184","20g8gaznvzcrza5","133.csv","","293.5","resources/trios/L4T2A2.jpg","39","restless",0.7,0.2,0.6,0.853808820577015,"false"
"image-keyboard-response",564,435771,"0.0-3.184-1.184","20g8gaznvzcrza5","133.csv","","null","resources/maskTrios/BBA2.jpg","null","",NA,NA,NA,NA,""
"image-keyboard-response",565,436977,"0.0-3.184-2.184","20g8gaznvzcrza5","133.csv","","null","resources/images/fishbone.png","null","",NA,NA,NA,NA,""
"image-keyboard-response",566,437601,"0.0-3.185-0.185","20g8gaznvzcrza5","133.csv","","622.1999998092651","resources/trios/L2T4A3.jpg","39","restless",0.7,0.2,0.6,0.539499108313804,"true"
"image-keyboard-response",567,438007,"0.0-3.185-1.185","20g8gaznvzcrza5","133.csv","","null","resources/maskTrios/BBA3.jpg","null","",NA,NA,NA,NA,""
"image-keyboard-response",568,439213,"0.0-3.185-2.185","20g8gaznvzcrza5","133.csv","","null","resources/images/coin2.png","null","",NA,NA,NA,NA,""
"image-keyboard-response",569,439549,"0.0-3.186-0.186","20g8gaznvzcrza5","133.csv","","335","resources/trios/L2T4A2.jpg","38","restless",0.7,0.3,0.6,0.00156061884431624,"true"
"image-keyboard-response",570,439953,"0.0-3.186-1.186","20g8gaznvzcrza5","133.csv","","null","resources/maskTrios/BT4B.jpg","null","",NA,NA,NA,NA,""
"image-keyboard-response",571,441155,"0.0-3.186-2.186","20g8gaznvzcrza5","133.csv","","null","resources/images/coin2.png","null","",NA,NA,NA,NA,""
"image-keyboard-response",572,441518,"0.0-3.187-0.187","20g8gaznvzcrza5","133.csv","","362.30000019073486","resources/trios/L2T4A2.jpg","39","restless",0.7,0.3,0.6,0.986586454164796,"false"
"image-keyboard-response",573,441922,"0.0-3.187-1.187","20g8gaznvzcrza5","133.csv","","null","resources/maskTrios/BBA2.jpg","null","",NA,NA,NA,NA,""
"image-keyboard-response",574,443124,"0.0-3.187-2.187","20g8gaznvzcrza5","133.csv","","null","resources/images/fishbone.png","null","",NA,NA,NA,NA,""
"image-keyboard-response",575,443643,"0.0-3.188-0.188","20g8gaznvzcrza5","133.csv","","517.7000002861023","resources/trios/L4T4A3.jpg","39","restless",0.7,0.3,0.6,0.0127154236745814,"true"
"image-keyboard-response",576,444048,"0.0-3.188-1.188","20g8gaznvzcrza5","133.csv","","null","resources/maskTrios/BBA3.jpg","null","",NA,NA,NA,NA,""
"image-keyboard-response",577,445255,"0.0-3.188-2.188","20g8gaznvzcrza5","133.csv","","null","resources/images/coin2.png","null","",NA,NA,NA,NA,""
"image-keyboard-response",578,445551,"0.0-3.189-0.189","20g8gaznvzcrza5","133.csv","","294.90000009536743","resources/trios/L2T2A2.jpg","38","restless",0.7,0.3,0.6,0.415458183209731,"false"
"image-keyboard-response",579,445953,"0.0-3.189-1.189","20g8gaznvzcrza5","133.csv","","null","resources/maskTrios/BT2B.jpg","null","",NA,NA,NA,NA,""
"image-keyboard-response",580,447156,"0.0-3.189-2.189","20g8gaznvzcrza5","133.csv","","null","resources/images/fishbone.png","null","",NA,NA,NA,NA,""
"image-keyboard-response",581,447565,"0.0-3.190-0.190","20g8gaznvzcrza5","133.csv","","407.59999990463257","resources/trios/L2T2A2.jpg","39","restless",0.7,0.3,0.6,0.685049341570345,"false"
"image-keyboard-response",582,447968,"0.0-3.190-1.190","20g8gaznvzcrza5","133.csv","","null","resources/maskTrios/BBA2.jpg","null","",NA,NA,NA,NA,""
"image-keyboard-response",583,449174,"0.0-3.190-2.190","20g8gaznvzcrza5","133.csv","","null","resources/images/fishbone.png","null","",NA,NA,NA,NA,""
"image-keyboard-response",584,449474,"0.0-3.191-0.191","20g8gaznvzcrza5","133.csv","","298.19999980926514","resources/trios/L2T2A3.jpg","38","restless",0.6,0.3,0.6,0.952731355075395,"false"
"image-keyboard-response",585,449881,"0.0-3.191-1.191","20g8gaznvzcrza5","133.csv","","null","resources/maskTrios/BT2B.jpg","null","",NA,NA,NA,NA,""
"image-keyboard-response",586,451084,"0.0-3.191-2.191","20g8gaznvzcrza5","133.csv","","null","resources/images/fishbone.png","null","",NA,NA,NA,NA,""
"image-keyboard-response",587,451368,"0.0-3.192-0.192","20g8gaznvzcrza5","133.csv","","282.5","resources/trios/L2T2A2.jpg","37","restless",0.6,0.3,0.6,0.13154941124626,"true"
"image-keyboard-response",588,451772,"0.0-3.192-1.192","20g8gaznvzcrza5","133.csv","","null","resources/maskTrios/L2BB.jpg","null","",NA,NA,NA,NA,""
"image-keyboard-response",589,452978,"0.0-3.192-2.192","20g8gaznvzcrza5","133.csv","","null","resources/images/coin2.png","null","",NA,NA,NA,NA,""
"image-keyboard-response",590,453282,"0.0-3.193-0.193","20g8gaznvzcrza5","133.csv","","302.40000009536743","resources/trios/L2T4A3.jpg","37","restless",0.6,0.4,0.6,0.403997372762085,"true"
"image-keyboard-response",591,453686,"0.0-3.193-1.193","20g8gaznvzcrza5","133.csv","","null","resources/maskTrios/L2BB.jpg","null","",NA,NA,NA,NA,""
"image-keyboard-response",592,454890,"0.0-3.193-2.193","20g8gaznvzcrza5","133.csv","","null","resources/images/coin2.png","null","",NA,NA,NA,NA,""
"image-keyboard-response",593,455186,"0.0-3.194-0.194","20g8gaznvzcrza5","133.csv","","294.30000019073486","resources/trios/L4T4A3.jpg","37","restless",0.6,0.4,0.6,0.87701580661575,"false"
"image-keyboard-response",594,455589,"0.0-3.194-1.194","20g8gaznvzcrza5","133.csv","","null","resources/maskTrios/L4BB.jpg","null","",NA,NA,NA,NA,""
"image-keyboard-response",595,456793,"0.0-3.194-2.194","20g8gaznvzcrza5","133.csv","","null","resources/images/fishbone.png","null","",NA,NA,NA,NA,""
"image-keyboard-response",596,457421,"0.0-3.195-0.195","20g8gaznvzcrza5","133.csv","","626.8000001907349","resources/trios/L2T2A3.jpg","38","restless",0.6,0.4,0.6,0.91234713961127,"false"
"image-keyboard-response",597,457827,"0.0-3.195-1.195","20g8gaznvzcrza5","133.csv","","null","resources/maskTrios/BT2B.jpg","null","",NA,NA,NA,NA,""
"image-keyboard-response",598,459032,"0.0-3.195-2.195","20g8gaznvzcrza5","133.csv","","null","resources/images/fishbone.png","null","",NA,NA,NA,NA,""
"image-keyboard-response",599,459541,"0.0-3.196-0.196","20g8gaznvzcrza5","133.csv","","507","resources/trios/L4T2A2.jpg","38","restless",0.6,0.4,0.6,0.228903289871005,"true"
"image-keyboard-response",600,459946,"0.0-3.196-1.196","20g8gaznvzcrza5","133.csv","","null","resources/maskTrios/BT2B.jpg","null","",NA,NA,NA,NA,""
"image-keyboard-response",601,461152,"0.0-3.196-2.196","20g8gaznvzcrza5","133.csv","","null","resources/images/coin2.png","null","",NA,NA,NA,NA,""
"image-keyboard-response",602,461599,"0.0-3.197-0.197","20g8gaznvzcrza5","133.csv","","445.19999980926514","resources/trios/L2T2A2.jpg","37","restless",0.5,0.4,0.6,0.0425884176365217,"true"
"image-keyboard-response",603,462002,"0.0-3.197-1.197","20g8gaznvzcrza5","133.csv","","null","resources/maskTrios/L2BB.jpg","null","",NA,NA,NA,NA,""
"image-keyboard-response",604,463203,"0.0-3.197-2.197","20g8gaznvzcrza5","133.csv","","null","resources/images/coin2.png","null","",NA,NA,NA,NA,""
"image-keyboard-response",605,463510,"0.0-3.198-0.198","20g8gaznvzcrza5","133.csv","","305.40000009536743","resources/trios/L2T4A3.jpg","37","restless",0.5,0.4,0.6,0.369828533616115,"true"
"image-keyboard-response",606,463916,"0.0-3.198-1.198","20g8gaznvzcrza5","133.csv","","null","resources/maskTrios/L2BB.jpg","null","",NA,NA,NA,NA,""
"image-keyboard-response",607,465122,"0.0-3.198-2.198","20g8gaznvzcrza5","133.csv","","null","resources/images/coin2.png","null","",NA,NA,NA,NA,""
"image-keyboard-response",608,465527,"0.0-3.199-0.199","20g8gaznvzcrza5","133.csv","","403.59999990463257","resources/trios/L2T2A3.jpg","38","restless",0.5,0.3,0.6,0.645789074344918,"false"
"image-keyboard-response",609,465930,"0.0-3.199-1.199","20g8gaznvzcrza5","133.csv","","null","resources/maskTrios/BT2B.jpg","null","",NA,NA,NA,NA,""
"image-keyboard-response",610,467135,"0.0-3.199-2.199","20g8gaznvzcrza5","133.csv","","null","resources/images/fishbone.png","null","",NA,NA,NA,NA,""
"image-keyboard-response",611,467867,"0.0-3.200-0.200","20g8gaznvzcrza5","133.csv","","730.8000001907349","resources/trios/L4T2A2.jpg","38","restless",0.5,0.3,0.6,0.393368237461343,"false"
"image-keyboard-response",612,468269,"0.0-3.200-1.200","20g8gaznvzcrza5","133.csv","","null","resources/maskTrios/BT2B.jpg","null","",NA,NA,NA,NA,""
"image-keyboard-response",613,469475,"0.0-3.200-2.200","20g8gaznvzcrza5","133.csv","","null","resources/images/fishbone.png","null","",NA,NA,NA,NA,""
"image-keyboard-response",614,469796,"0.0-3.201-0.201","20g8gaznvzcrza5","133.csv","","320","resources/trios/L4T4A3.jpg","37","restless",0.4,0.3,0.6,0.489549680109361,"false"
"image-keyboard-response",615,470199,"0.0-3.201-1.201","20g8gaznvzcrza5","133.csv","","null","resources/maskTrios/L4BB.jpg","null","",NA,NA,NA,NA,""
"image-keyboard-response",616,471400,"0.0-3.201-2.201","20g8gaznvzcrza5","133.csv","","null","resources/images/fishbone.png","null","",NA,NA,NA,NA,""
"image-keyboard-response",617,472169,"0.0-3.202-0.202","20g8gaznvzcrza5","133.csv","","767.8999996185303","resources/trios/L4T4A3.jpg","38","restless",0.4,0.3,0.6,0.257349786810573,"true"
"image-keyboard-response",618,472573,"0.0-3.202-1.202","20g8gaznvzcrza5","133.csv","","null","resources/maskTrios/BT4B.jpg","null","",NA,NA,NA,NA,""
"image-keyboard-response",619,473779,"0.0-3.202-2.202","20g8gaznvzcrza5","133.csv","","null","resources/images/coin2.png","null","",NA,NA,NA,NA,""
"image-keyboard-response",620,474298,"0.0-3.203-0.203","20g8gaznvzcrza5","133.csv","","518","resources/trios/L4T4A3.jpg","38","restless",0.4,0.3,0.6,0.0193270513369104,"true"
"image-keyboard-response",621,474705,"0.0-3.203-1.203","20g8gaznvzcrza5","133.csv","","null","resources/maskTrios/BT4B.jpg","null","",NA,NA,NA,NA,""
