"trial_type","trial_index","time_elapsed","internal_node_id","subject","participantCode","walkNumber","success","rt","stimulus","key_press","test_part","leftProb","midProb","rightProb","generatedNum","correct"
"pavlovia",0,2196,"0.0-0.0","3uzecuzd5nk4ypo",995,"65.csv","","","","","",NA,NA,NA,NA,""
"fullscreen",1,5148,"0.0-1.0","3uzecuzd5nk4ypo",995,"65.csv","true","","","","",NA,NA,NA,NA,""
"html-keyboard-response",2,9830,"0.0-2.0-0.0","3uzecuzd5nk4ypo",995,"65.csv","","4681.0999999940395","<p><font size='6'>Arrrgh!</p></font><p>Can you be the best pirate? Try to find lots of gold! But beware, some islands have more gold than others, and over time, the island with the most gold may change. Can YOU figure it out? </p><font size='6'>GOOD LUCK, CAPTAIN!!!</font><p>Press any key to begin</p>","32","",NA,NA,NA,NA,""
"image-keyboard-response",3,12843,"0.0-2.0-1.0","3uzecuzd5nk4ypo",995,"65.csv","","null","resources/image_sets/111.png","null","",NA,NA,NA,NA,""
"image-keyboard-response",4,15949,"0.0-2.0-2.0","3uzecuzd5nk4ypo",995,"65.csv","","3105.5","resources/image_sets/left_highlight.png","37","",NA,NA,NA,NA,""
"image-keyboard-response",5,16749,"0.0-2.0-3.0","3uzecuzd5nk4ypo",995,"65.csv","","799.1999999880791","resources/image_sets/mid_highlight.png","38","",NA,NA,NA,NA,""
"image-keyboard-response",6,18614,"0.0-2.0-4.0","3uzecuzd5nk4ypo",995,"65.csv","","1863.7999999970198","resources/image_sets/right_highlight.png","39","",NA,NA,NA,NA,""
"image-keyboard-response",7,20622,"0.0-2.0-5.0","3uzecuzd5nk4ypo",995,"65.csv","","2007.300000011921","resources/image_sets/111.png","13","",NA,NA,NA,NA,""
"image-keyboard-response",8,23501,"0.0-2.0-6.0","3uzecuzd5nk4ypo",995,"65.csv","","2879","resources/images/coin2.png","13","",NA,NA,NA,NA,""
"image-keyboard-response",9,25382,"0.0-2.0-7.0","3uzecuzd5nk4ypo",995,"65.csv","","1879.7999999970198","resources/images/fishbone.png","13","",NA,NA,NA,NA,""
"html-keyboard-response",10,26686,"0.0-2.0-8.0","3uzecuzd5nk4ypo",995,"65.csv","","1303.0999999940395","<p>Your first journey will be a long one, but you will get a well deserved break at the end</p><p>After the break you will have four more journeys, but each will be much shorter than the first, and you will have breaks in between each</p><p>Press Enter to begin</p>","13","",NA,NA,NA,NA,""
"image-keyboard-response",11,28430,"0.0-3.0-0.0","3uzecuzd5nk4ypo",995,"65.csv","","1742.800000011921","resources/trios/L4T1A1.jpg","37","restless",0.7,0.3,0.9,0.438751791836739,"true"
"image-keyboard-response",12,28846,"0.0-3.0-1.0","3uzecuzd5nk4ypo",995,"65.csv","","null","resources/maskTrios/L4BB.jpg","null","",NA,NA,NA,NA,""
"image-keyboard-response",13,30059,"0.0-3.0-2.0","3uzecuzd5nk4ypo",995,"65.csv","","null","resources/images/coin2.png","null","",NA,NA,NA,NA,""
"image-keyboard-response",14,32518,"0.0-3.1-0.1","3uzecuzd5nk4ypo",995,"65.csv","","2458.2000000029802","resources/trios/L1T4A1.jpg","37","restless",0.7,0.2,0.9,0.0452175490228939,"true"
"image-keyboard-response",15,32926,"0.0-3.1-1.1","3uzecuzd5nk4ypo",995,"65.csv","","null","resources/maskTrios/L1BB.jpg","null","",NA,NA,NA,NA,""
"image-keyboard-response",16,34143,"0.0-3.1-2.1","3uzecuzd5nk4ypo",995,"65.csv","","null","resources/images/coin2.png","null","",NA,NA,NA,NA,""
"image-keyboard-response",17,35702,"0.0-3.2-0.2","3uzecuzd5nk4ypo",995,"65.csv","","1556.8999999910593","resources/trios/L4T4A1.jpg","37","restless",0.7,0.3,0.9,0.0748462235566474,"true"
"image-keyboard-response",18,36116,"0.0-3.2-1.2","3uzecuzd5nk4ypo",995,"65.csv","","null","resources/maskTrios/L4BB.jpg","null","",NA,NA,NA,NA,""
"image-keyboard-response",19,37328,"0.0-3.2-2.2","3uzecuzd5nk4ypo",995,"65.csv","","null","resources/images/coin2.png","null","",NA,NA,NA,NA,""
"image-keyboard-response",20,38510,"0.0-3.3-0.3","3uzecuzd5nk4ypo",995,"65.csv","","1181.3999999910593","resources/trios/L4T1A1.jpg","38","restless",0.7,0.3,0.9,0.413205806531354,"false"
"image-keyboard-response",21,38919,"0.0-3.3-1.3","3uzecuzd5nk4ypo",995,"65.csv","","null","resources/maskTrios/BT1B.jpg","null","",NA,NA,NA,NA,""
"image-keyboard-response",22,40133,"0.0-3.3-2.3","3uzecuzd5nk4ypo",995,"65.csv","","null","resources/images/fishbone.png","null","",NA,NA,NA,NA,""
"image-keyboard-response",23,40558,"0.0-3.4-0.4","3uzecuzd5nk4ypo",995,"65.csv","","424.20000000298023","resources/trios/L4T4A1.jpg","37","restless",0.7,0.3,0.9,0.0954943608394663,"true"
"image-keyboard-response",24,40972,"0.0-3.4-1.4","3uzecuzd5nk4ypo",995,"65.csv","","null","resources/maskTrios/L4BB.jpg","null","",NA,NA,NA,NA,""
"image-keyboard-response",25,42184,"0.0-3.4-2.4","3uzecuzd5nk4ypo",995,"65.csv","","null","resources/images/coin2.png","null","",NA,NA,NA,NA,""
"image-keyboard-response",26,42806,"0.0-3.5-0.5","3uzecuzd5nk4ypo",995,"65.csv","","620.8999999910593","resources/trios/L1T1A1.jpg","37","restless",0.7,0.3,0.9,0.226681271988852,"true"
"image-keyboard-response",27,43212,"0.0-3.5-1.5","3uzecuzd5nk4ypo",995,"65.csv","","null","resources/maskTrios/L1BB.jpg","null","",NA,NA,NA,NA,""
"image-keyboard-response",28,44429,"0.0-3.5-2.5","3uzecuzd5nk4ypo",995,"65.csv","","null","resources/images/coin2.png","null","",NA,NA,NA,NA,""
"image-keyboard-response",29,45190,"0.0-3.6-0.6","3uzecuzd5nk4ypo",995,"65.csv","","760.4000000059605","resources/trios/L4T4A1.jpg","37","restless",0.7,0.3,0.8,0.719398287058453,"false"
"image-keyboard-response",30,45596,"0.0-3.6-1.6","3uzecuzd5nk4ypo",995,"65.csv","","null","resources/maskTrios/L4BB.jpg","null","",NA,NA,NA,NA,""
"image-keyboard-response",31,46809,"0.0-3.6-2.6","3uzecuzd5nk4ypo",995,"65.csv","","null","resources/images/fishbone.png","null","",NA,NA,NA,NA,""
"image-keyboard-response",32,48910,"0.0-3.7-0.7","3uzecuzd5nk4ypo",995,"65.csv","","2100.2000000029802","resources/trios/L4T1A1.jpg","38","restless",0.7,0.3,0.8,0.373225570126736,"false"
"image-keyboard-response",33,49319,"0.0-3.7-1.7","3uzecuzd5nk4ypo",995,"65.csv","","null","resources/maskTrios/BT1B.jpg","null","",NA,NA,NA,NA,""
"image-keyboard-response",34,50533,"0.0-3.7-2.7","3uzecuzd5nk4ypo",995,"65.csv","","null","resources/images/fishbone.png","null","",NA,NA,NA,NA,""
"image-keyboard-response",35,51246,"0.0-3.8-0.8","3uzecuzd5nk4ypo",995,"65.csv","","712.1000000089407","resources/trios/L1T1A2.jpg","37","restless",0.7,0.3,0.8,0.584417887474986,"true"
"image-keyboard-response",36,51654,"0.0-3.8-1.8","3uzecuzd5nk4ypo",995,"65.csv","","null","resources/maskTrios/L1BB.jpg","null","",NA,NA,NA,NA,""
"image-keyboard-response",37,52867,"0.0-3.8-2.8","3uzecuzd5nk4ypo",995,"65.csv","","null","resources/images/coin2.png","null","",NA,NA,NA,NA,""
"image-keyboard-response",38,53470,"0.0-3.9-0.9","3uzecuzd5nk4ypo",995,"65.csv","","603.2000000029802","resources/trios/L1T1A1.jpg","37","restless",0.7,0.3,0.8,0.761492397249589,"false"
"image-keyboard-response",39,53890,"0.0-3.9-1.9","3uzecuzd5nk4ypo",995,"65.csv","","null","resources/maskTrios/L1BB.jpg","null","",NA,NA,NA,NA,""
"image-keyboard-response",40,55107,"0.0-3.9-2.9","3uzecuzd5nk4ypo",995,"65.csv","","null","resources/images/fishbone.png","null","",NA,NA,NA,NA,""
"image-keyboard-response",41,56014,"0.0-3.10-0.10","3uzecuzd5nk4ypo",995,"65.csv","","905.8999999910593","resources/trios/L1T4A1.jpg","38","restless",0.6,0.3,0.8,0.328419654283086,"false"
"image-keyboard-response",42,56429,"0.0-3.10-1.10","3uzecuzd5nk4ypo",995,"65.csv","","null","resources/maskTrios/BT4B.jpg","null","",NA,NA,NA,NA,""
"image-keyboard-response",43,57651,"0.0-3.10-2.10","3uzecuzd5nk4ypo",995,"65.csv","","null","resources/images/fishbone.png","null","",NA,NA,NA,NA,""
"image-keyboard-response",44,58007,"0.0-3.11-0.11","3uzecuzd5nk4ypo",995,"65.csv","","354.29999999701977","resources/trios/L1T4A2.jpg","39","restless",0.6,0.3,0.8,0.550062151956865,"true"
"image-keyboard-response",45,58417,"0.0-3.11-1.11","3uzecuzd5nk4ypo",995,"65.csv","","null","resources/maskTrios/BBA2.jpg","null","",NA,NA,NA,NA,""
"image-keyboard-response",46,59623,"0.0-3.11-2.11","3uzecuzd5nk4ypo",995,"65.csv","","null","resources/images/coin2.png","null","",NA,NA,NA,NA,""
"image-keyboard-response",47,60639,"0.0-3.12-0.12","3uzecuzd5nk4ypo",995,"65.csv","","1015.3999999910593","resources/trios/L4T4A1.jpg","37","restless",0.6,0.3,0.8,0.846793291283372,"false"
"image-keyboard-response",48,61057,"0.0-3.12-1.12","3uzecuzd5nk4ypo",995,"65.csv","","null","resources/maskTrios/L4BB.jpg","null","",NA,NA,NA,NA,""
"image-keyboard-response",49,62274,"0.0-3.12-2.12","3uzecuzd5nk4ypo",995,"65.csv","","null","resources/images/fishbone.png","null","",NA,NA,NA,NA,""
"image-keyboard-response",50,62727,"0.0-3.13-0.13","3uzecuzd5nk4ypo",995,"65.csv","","451.5","resources/trios/L4T4A1.jpg","38","restless",0.6,0.3,0.8,0.784390533792355,"false"
"image-keyboard-response",51,63132,"0.0-3.13-1.13","3uzecuzd5nk4ypo",995,"65.csv","","null","resources/maskTrios/BT4B.jpg","null","",NA,NA,NA,NA,""
"image-keyboard-response",52,64343,"0.0-3.13-2.13","3uzecuzd5nk4ypo",995,"65.csv","","null","resources/images/fishbone.png","null","",NA,NA,NA,NA,""
"image-keyboard-response",53,64591,"0.0-3.14-0.14","3uzecuzd5nk4ypo",995,"65.csv","","247","resources/trios/L4T1A2.jpg","39","restless",0.6,0.3,0.8,0.469755106225352,"true"
"image-keyboard-response",54,65008,"0.0-3.14-1.14","3uzecuzd5nk4ypo",995,"65.csv","","null","resources/maskTrios/BBA2.jpg","null","",NA,NA,NA,NA,""
"image-keyboard-response",55,66224,"0.0-3.14-2.14","3uzecuzd5nk4ypo",995,"65.csv","","null","resources/images/coin2.png","null","",NA,NA,NA,NA,""
"image-keyboard-response",56,66591,"0.0-3.15-0.15","3uzecuzd5nk4ypo",995,"65.csv","","366","resources/trios/L4T1A2.jpg","39","restless",0.6,0.3,0.8,0.4361530263311,"true"
"image-keyboard-response",57,66998,"0.0-3.15-1.15","3uzecuzd5nk4ypo",995,"65.csv","","null","resources/maskTrios/BBA2.jpg","null","",NA,NA,NA,NA,""
"image-keyboard-response",58,68214,"0.0-3.15-2.15","3uzecuzd5nk4ypo",995,"65.csv","","null","resources/images/coin2.png","null","",NA,NA,NA,NA,""
"image-keyboard-response",59,68575,"0.0-3.16-0.16","3uzecuzd5nk4ypo",995,"65.csv","","360","resources/trios/L4T4A1.jpg","39","restless",0.6,0.4,0.8,0.879574083153324,"false"
"image-keyboard-response",60,68994,"0.0-3.16-1.16","3uzecuzd5nk4ypo",995,"65.csv","","null","resources/maskTrios/BBA1.jpg","null","",NA,NA,NA,NA,""
"image-keyboard-response",61,70209,"0.0-3.16-2.16","3uzecuzd5nk4ypo",995,"65.csv","","null","resources/images/fishbone.png","null","",NA,NA,NA,NA,""
"image-keyboard-response",62,70303,"0.0-3.17-0.17","3uzecuzd5nk4ypo",995,"65.csv","","92.19999998807907","resources/trios/L1T1A1.jpg","38","restless",0.6,0.5,0.8,0.0749788993235585,"true"
"image-keyboard-response",63,70708,"0.0-3.17-1.17","3uzecuzd5nk4ypo",995,"65.csv","","null","resources/maskTrios/BT1B.jpg","null","",NA,NA,NA,NA,""
"image-keyboard-response",64,71919,"0.0-3.17-2.17","3uzecuzd5nk4ypo",995,"65.csv","","null","resources/images/coin2.png","null","",NA,NA,NA,NA,""
"image-keyboard-response",65,72471,"0.0-3.18-0.18","3uzecuzd5nk4ypo",995,"65.csv","","551.2000000029802","resources/trios/L4T4A2.jpg","37","restless",0.6,0.5,0.8,0.994938657300265,"false"
"image-keyboard-response",66,72886,"0.0-3.18-1.18","3uzecuzd5nk4ypo",995,"65.csv","","null","resources/maskTrios/L4BB.jpg","null","",NA,NA,NA,NA,""
"image-keyboard-response",67,74102,"0.0-3.18-2.18","3uzecuzd5nk4ypo",995,"65.csv","","null","resources/images/fishbone.png","null","",NA,NA,NA,NA,""
"image-keyboard-response",68,74335,"0.0-3.19-0.19","3uzecuzd5nk4ypo",995,"65.csv","","232.8999999910593","resources/trios/L4T4A2.jpg","38","restless",0.6,0.5,0.8,0.290901676821315,"true"
"image-keyboard-response",69,74743,"0.0-3.19-1.19","3uzecuzd5nk4ypo",995,"65.csv","","null","resources/maskTrios/BT4B.jpg","null","",NA,NA,NA,NA,""
"image-keyboard-response",70,75947,"0.0-3.19-2.19","3uzecuzd5nk4ypo",995,"65.csv","","null","resources/images/coin2.png","null","",NA,NA,NA,NA,""
"image-keyboard-response",71,76191,"0.0-3.20-0.20","3uzecuzd5nk4ypo",995,"65.csv","","243.20000000298023","resources/trios/L1T4A2.jpg","39","restless",0.6,0.5,0.8,0.871050441162004,"false"
"image-keyboard-response",72,76601,"0.0-3.20-1.20","3uzecuzd5nk4ypo",995,"65.csv","","null","resources/maskTrios/BBA2.jpg","null","",NA,NA,NA,NA,""
"image-keyboard-response",73,77812,"0.0-3.20-2.20","3uzecuzd5nk4ypo",995,"65.csv","","null","resources/images/fishbone.png","null","",NA,NA,NA,NA,""
"image-keyboard-response",74,78248,"0.0-3.21-0.21","3uzecuzd5nk4ypo",995,"65.csv","","434.5","resources/trios/L4T4A1.jpg","38","restless",0.6,0.5,0.8,0.0660458122485175,"true"
"image-keyboard-response",75,78655,"0.0-3.21-1.21","3uzecuzd5nk4ypo",995,"65.csv","","null","resources/maskTrios/BT4B.jpg","null","",NA,NA,NA,NA,""
"image-keyboard-response",76,79871,"0.0-3.21-2.21","3uzecuzd5nk4ypo",995,"65.csv","","null","resources/images/coin2.png","null","",NA,NA,NA,NA,""
"image-keyboard-response",77,81152,"0.0-3.22-0.22","3uzecuzd5nk4ypo",995,"65.csv","","1278.7000000029802","resources/trios/L1T1A2.jpg","38","restless",0.6,0.5,0.8,0.448023343389024,"true"
"image-keyboard-response",78,81567,"0.0-3.22-1.22","3uzecuzd5nk4ypo",995,"65.csv","","null","resources/maskTrios/BT1B.jpg","null","",NA,NA,NA,NA,""
"image-keyboard-response",79,82783,"0.0-3.22-2.22","3uzecuzd5nk4ypo",995,"65.csv","","null","resources/images/coin2.png","null","",NA,NA,NA,NA,""
"image-keyboard-response",80,83144,"0.0-3.23-0.23","3uzecuzd5nk4ypo",995,"65.csv","","360","resources/trios/L4T4A1.jpg","38","restless",0.6,0.5,0.8,0.708985387175542,"false"
"image-keyboard-response",81,83562,"0.0-3.23-1.23","3uzecuzd5nk4ypo",995,"65.csv","","null","resources/maskTrios/BT4B.jpg","null","",NA,NA,NA,NA,""
"image-keyboard-response",82,84776,"0.0-3.23-2.23","3uzecuzd5nk4ypo",995,"65.csv","","null","resources/images/fishbone.png","null","",NA,NA,NA,NA,""
"image-keyboard-response",83,84999,"0.0-3.24-0.24","3uzecuzd5nk4ypo",995,"65.csv","","222.29999999701977","resources/trios/L4T1A2.jpg","37","restless",0.6,0.4,0.8,0.508494245451098,"true"
"image-keyboard-response",84,85417,"0.0-3.24-1.24","3uzecuzd5nk4ypo",995,"65.csv","","null","resources/maskTrios/L4BB.jpg","null","",NA,NA,NA,NA,""
"image-keyboard-response",85,86631,"0.0-3.24-2.24","3uzecuzd5nk4ypo",995,"65.csv","","null","resources/images/coin2.png","null","",NA,NA,NA,NA,""
"image-keyboard-response",86,87048,"0.0-3.25-0.25","3uzecuzd5nk4ypo",995,"65.csv","","415.20000000298023","resources/trios/L4T4A2.jpg","37","restless",0.6,0.4,0.8,0.041170489370737,"true"
"image-keyboard-response",87,87456,"0.0-3.25-1.25","3uzecuzd5nk4ypo",995,"65.csv","","null","resources/maskTrios/L4BB.jpg","null","",NA,NA,NA,NA,""
"image-keyboard-response",88,88669,"0.0-3.25-2.25","3uzecuzd5nk4ypo",995,"65.csv","","null","resources/images/coin2.png","null","",NA,NA,NA,NA,""
"image-keyboard-response",89,88792,"0.0-3.26-0.26","3uzecuzd5nk4ypo",995,"65.csv","","121.69999998807907","resources/trios/L1T4A1.jpg","37","restless",0.5,0.4,0.8,0.0335666228312275,"true"
"image-keyboard-response",90,89201,"0.0-3.26-1.26","3uzecuzd5nk4ypo",995,"65.csv","","null","resources/maskTrios/L1BB.jpg","null","",NA,NA,NA,NA,""
"image-keyboard-response",91,90412,"0.0-3.26-2.26","3uzecuzd5nk4ypo",995,"65.csv","","null","resources/images/coin2.png","null","",NA,NA,NA,NA,""
"image-keyboard-response",92,90880,"0.0-3.27-0.27","3uzecuzd5nk4ypo",995,"65.csv","","467.40000000596046","resources/trios/L4T1A1.jpg","37","restless",0.5,0.4,0.8,0.543138797930362,"false"
"image-keyboard-response",93,91298,"0.0-3.27-1.27","3uzecuzd5nk4ypo",995,"65.csv","","null","resources/maskTrios/L4BB.jpg","null","",NA,NA,NA,NA,""
"image-keyboard-response",94,92510,"0.0-3.27-2.27","3uzecuzd5nk4ypo",995,"65.csv","","null","resources/images/fishbone.png","null","",NA,NA,NA,NA,""
"image-keyboard-response",95,92720,"0.0-3.28-0.28","3uzecuzd5nk4ypo",995,"65.csv","","208","resources/trios/L1T4A2.jpg","38","restless",0.5,0.4,0.8,0.60463047591035,"false"
"image-keyboard-response",96,93133,"0.0-3.28-1.28","3uzecuzd5nk4ypo",995,"65.csv","","null","resources/maskTrios/BT4B.jpg","null","",NA,NA,NA,NA,""
"image-keyboard-response",97,94346,"0.0-3.28-2.28","3uzecuzd5nk4ypo",995,"65.csv","","null","resources/images/fishbone.png","null","",NA,NA,NA,NA,""
"image-keyboard-response",98,94456,"0.0-3.29-0.29","3uzecuzd5nk4ypo",995,"65.csv","","109.1000000089407","resources/trios/L4T1A2.jpg","39","restless",0.5,0.4,0.8,0.389898435315232,"true"
"image-keyboard-response",99,94865,"0.0-3.29-1.29","3uzecuzd5nk4ypo",995,"65.csv","","null","resources/maskTrios/BBA2.jpg","null","",NA,NA,NA,NA,""
"image-keyboard-response",100,96076,"0.0-3.29-2.29","3uzecuzd5nk4ypo",995,"65.csv","","null","resources/images/coin2.png","null","",NA,NA,NA,NA,""
"image-keyboard-response",101,96424,"0.0-3.30-0.30","3uzecuzd5nk4ypo",995,"65.csv","","346.29999999701977","resources/trios/L4T4A1.jpg","39","restless",0.5,0.4,0.8,0.0900183748712524,"true"
"image-keyboard-response",102,96839,"0.0-3.30-1.30","3uzecuzd5nk4ypo",995,"65.csv","","null","resources/maskTrios/BBA1.jpg","null","",NA,NA,NA,NA,""
"image-keyboard-response",103,98050,"0.0-3.30-2.30","3uzecuzd5nk4ypo",995,"65.csv","","null","resources/images/coin2.png","null","",NA,NA,NA,NA,""
"image-keyboard-response",104,98312,"0.0-3.31-0.31","3uzecuzd5nk4ypo",995,"65.csv","","261.5","resources/trios/L4T4A1.jpg","39","restless",0.5,0.4,0.8,0.0813077307999752,"true"
"image-keyboard-response",105,98721,"0.0-3.31-1.31","3uzecuzd5nk4ypo",995,"65.csv","","null","resources/maskTrios/BBA1.jpg","null","",NA,NA,NA,NA,""
"image-keyboard-response",106,99929,"0.0-3.31-2.31","3uzecuzd5nk4ypo",995,"65.csv","","null","resources/images/coin2.png","null","",NA,NA,NA,NA,""
"image-keyboard-response",107,100152,"0.0-3.32-0.32","3uzecuzd5nk4ypo",995,"65.csv","","221","resources/trios/L1T1A1.jpg","38","restless",0.5,0.4,0.8,0.433472278376424,"false"
"image-keyboard-response",108,100568,"0.0-3.32-1.32","3uzecuzd5nk4ypo",995,"65.csv","","null","resources/maskTrios/BT1B.jpg","null","",NA,NA,NA,NA,""
"image-keyboard-response",109,101781,"0.0-3.32-2.32","3uzecuzd5nk4ypo",995,"65.csv","","null","resources/images/fishbone.png","null","",NA,NA,NA,NA,""
"image-keyboard-response",110,101880,"0.0-3.33-0.33","3uzecuzd5nk4ypo",995,"65.csv","","98.69999998807907","resources/trios/L4T1A2.jpg","39","restless",0.5,0.4,0.8,0.50134935854093,"true"
"image-keyboard-response",111,102293,"0.0-3.33-1.33","3uzecuzd5nk4ypo",995,"65.csv","","null","resources/maskTrios/BBA2.jpg","null","",NA,NA,NA,NA,""
"image-keyboard-response",112,103512,"0.0-3.33-2.33","3uzecuzd5nk4ypo",995,"65.csv","","null","resources/images/coin2.png","null","",NA,NA,NA,NA,""
"image-keyboard-response",113,103576,"0.0-3.34-0.34","3uzecuzd5nk4ypo",995,"65.csv","","63.20000000298023","resources/trios/L1T1A2.jpg","38","restless",0.5,0.4,0.8,0.400881973215799,"false"
"image-keyboard-response",114,103980,"0.0-3.34-1.34","3uzecuzd5nk4ypo",995,"65.csv","","null","resources/maskTrios/BT1B.jpg","null","",NA,NA,NA,NA,""
"image-keyboard-response",115,105193,"0.0-3.34-2.34","3uzecuzd5nk4ypo",995,"65.csv","","null","resources/images/fishbone.png","null","",NA,NA,NA,NA,""
"image-keyboard-response",116,105412,"0.0-3.35-0.35","3uzecuzd5nk4ypo",995,"65.csv","","218","resources/trios/L1T1A2.jpg","39","restless",0.5,0.4,0.8,0.293873121376347,"true"
"image-keyboard-response",117,105833,"0.0-3.35-1.35","3uzecuzd5nk4ypo",995,"65.csv","","null","resources/maskTrios/BBA2.jpg","null","",NA,NA,NA,NA,""
"image-keyboard-response",118,107043,"0.0-3.35-2.35","3uzecuzd5nk4ypo",995,"65.csv","","null","resources/images/coin2.png","null","",NA,NA,NA,NA,""
"image-keyboard-response",119,107104,"0.0-3.36-0.36","3uzecuzd5nk4ypo",995,"65.csv","","59.70000000298023","resources/trios/L4T4A2.jpg","39","restless",0.5,0.4,0.8,0.438539116647531,"true"
"image-keyboard-response",120,107509,"0.0-3.36-1.36","3uzecuzd5nk4ypo",995,"65.csv","","null","resources/maskTrios/BBA2.jpg","null","",NA,NA,NA,NA,""
"image-keyboard-response",121,108719,"0.0-3.36-2.36","3uzecuzd5nk4ypo",995,"65.csv","","null","resources/images/coin2.png","null","",NA,NA,NA,NA,""
"image-keyboard-response",122,108738,"0.0-3.37-0.37","3uzecuzd5nk4ypo",995,"65.csv","","18.5","resources/trios/L4T4A2.jpg","39","restless",0.4,0.4,0.8,0.238642319582547,"true"
"image-keyboard-response",123,109140,"0.0-3.37-1.37","3uzecuzd5nk4ypo",995,"65.csv","","null","resources/maskTrios/BBA2.jpg","null","",NA,NA,NA,NA,""
"image-keyboard-response",124,110353,"0.0-3.37-2.37","3uzecuzd5nk4ypo",995,"65.csv","","null","resources/images/coin2.png","null","",NA,NA,NA,NA,""
"image-keyboard-response",125,110656,"0.0-3.38-0.38","3uzecuzd5nk4ypo",995,"65.csv","","302","resources/trios/L1T4A2.jpg","39","restless",0.4,0.4,0.8,0.68629415109103,"true"
"image-keyboard-response",126,111068,"0.0-3.38-1.38","3uzecuzd5nk4ypo",995,"65.csv","","null","resources/maskTrios/BBA2.jpg","null","",NA,NA,NA,NA,""
"image-keyboard-response",127,112284,"0.0-3.38-2.38","3uzecuzd5nk4ypo",995,"65.csv","","null","resources/images/coin2.png","null","",NA,NA,NA,NA,""
"image-keyboard-response",128,113440,"0.0-3.39-0.39","3uzecuzd5nk4ypo",995,"65.csv","","1155.199999988079","resources/trios/L1T4A2.jpg","39","restless",0.4,0.4,0.8,0.407427770093256,"true"
"image-keyboard-response",129,113848,"0.0-3.39-1.39","3uzecuzd5nk4ypo",995,"65.csv","","null","resources/maskTrios/BBA2.jpg","null","",NA,NA,NA,NA,""
"image-keyboard-response",130,115056,"0.0-3.39-2.39","3uzecuzd5nk4ypo",995,"65.csv","","null","resources/images/coin2.png","null","",NA,NA,NA,NA,""
"image-keyboard-response",131,115400,"0.0-3.40-0.40","3uzecuzd5nk4ypo",995,"65.csv","","343.70000000298023","resources/trios/L4T4A2.jpg","39","restless",0.4,0.4,0.7,0.095796101121234,"true"
"image-keyboard-response",132,115819,"0.0-3.40-1.40","3uzecuzd5nk4ypo",995,"65.csv","","null","resources/maskTrios/BBA2.jpg","null","",NA,NA,NA,NA,""
"image-keyboard-response",133,117034,"0.0-3.40-2.40","3uzecuzd5nk4ypo",995,"65.csv","","null","resources/images/coin2.png","null","",NA,NA,NA,NA,""
"image-keyboard-response",134,117368,"0.0-3.41-0.41","3uzecuzd5nk4ypo",995,"65.csv","","332.40000000596046","resources/trios/L4T4A2.jpg","39","restless",0.4,0.4,0.7,0.980327659706853,"false"
"image-keyboard-response",135,117779,"0.0-3.41-1.41","3uzecuzd5nk4ypo",995,"65.csv","","null","resources/maskTrios/BBA2.jpg","null","",NA,NA,NA,NA,""
"image-keyboard-response",136,118980,"0.0-3.41-2.41","3uzecuzd5nk4ypo",995,"65.csv","","null","resources/images/fishbone.png","null","",NA,NA,NA,NA,""
"image-keyboard-response",137,119072,"0.0-3.42-0.42","3uzecuzd5nk4ypo",995,"65.csv","","91.5","resources/trios/L1T1A2.jpg","38","restless",0.4,0.4,0.7,0.498902300224253,"false"
"image-keyboard-response",138,119477,"0.0-3.42-1.42","3uzecuzd5nk4ypo",995,"65.csv","","null","resources/maskTrios/BT1B.jpg","null","",NA,NA,NA,NA,""
"image-keyboard-response",139,120680,"0.0-3.42-2.42","3uzecuzd5nk4ypo",995,"65.csv","","null","resources/images/fishbone.png","null","",NA,NA,NA,NA,""
"image-keyboard-response",140,120840,"0.0-3.43-0.43","3uzecuzd5nk4ypo",995,"65.csv","","159.29999999701977","resources/trios/L4T4A2.jpg","37","restless",0.3,0.5,0.7,0.0677081200673224,"true"
"image-keyboard-response",141,121250,"0.0-3.43-1.43","3uzecuzd5nk4ypo",995,"65.csv","","null","resources/maskTrios/L4BB.jpg","null","",NA,NA,NA,NA,""
"image-keyboard-response",142,122464,"0.0-3.43-2.43","3uzecuzd5nk4ypo",995,"65.csv","","null","resources/images/coin2.png","null","",NA,NA,NA,NA,""
"image-keyboard-response",143,122544,"0.0-3.44-0.44","3uzecuzd5nk4ypo",995,"65.csv","","78.59999999403954","resources/trios/L4T1A1.jpg","37","restless",0.3,0.5,0.7,0.0718873629650842,"true"
"image-keyboard-response",144,122947,"0.0-3.44-1.44","3uzecuzd5nk4ypo",995,"65.csv","","null","resources/maskTrios/L4BB.jpg","null","",NA,NA,NA,NA,""
"image-keyboard-response",145,124169,"0.0-3.44-2.44","3uzecuzd5nk4ypo",995,"65.csv","","null","resources/images/coin2.png","null","",NA,NA,NA,NA,""
"image-keyboard-response",146,124344,"0.0-3.45-0.45","3uzecuzd5nk4ypo",995,"65.csv","","173.90000000596046","resources/trios/L4T1A2.jpg","37","restless",0.3,0.4,0.7,0.0483084621015464,"true"
"image-keyboard-response",147,124760,"0.0-3.45-1.45","3uzecuzd5nk4ypo",995,"65.csv","","null","resources/maskTrios/L4BB.jpg","null","",NA,NA,NA,NA,""
"image-keyboard-response",148,125965,"0.0-3.45-2.45","3uzecuzd5nk4ypo",995,"65.csv","","null","resources/images/coin2.png","null","",NA,NA,NA,NA,""
"image-keyboard-response",149,126233,"0.0-3.46-0.46","3uzecuzd5nk4ypo",995,"65.csv","","266.20000000298023","resources/trios/L1T1A2.jpg","37","restless",0.4,0.4,0.7,0.0941025322521407,"true"
"image-keyboard-response",150,126649,"0.0-3.46-1.46","3uzecuzd5nk4ypo",995,"65.csv","","null","resources/maskTrios/L1BB.jpg","null","",NA,NA,NA,NA,""
"image-keyboard-response",151,127866,"0.0-3.46-2.46","3uzecuzd5nk4ypo",995,"65.csv","","null","resources/images/coin2.png","null","",NA,NA,NA,NA,""
"image-keyboard-response",152,127904,"0.0-3.47-0.47","3uzecuzd5nk4ypo",995,"65.csv","","36.70000000298023","resources/trios/L4T4A1.jpg","37","restless",0.4,0.4,0.7,0.401192411739916,"false"
"image-keyboard-response",153,128316,"0.0-3.47-1.47","3uzecuzd5nk4ypo",995,"65.csv","","null","resources/maskTrios/L4BB.jpg","null","",NA,NA,NA,NA,""
"image-keyboard-response",154,129525,"0.0-3.47-2.47","3uzecuzd5nk4ypo",995,"65.csv","","null","resources/images/fishbone.png","null","",NA,NA,NA,NA,""
"image-keyboard-response",155,129721,"0.0-3.48-0.48","3uzecuzd5nk4ypo",995,"65.csv","","195.30000001192093","resources/trios/L4T1A2.jpg","39","restless",0.4,0.4,0.7,0.357176413219681,"true"
"image-keyboard-response",156,130132,"0.0-3.48-1.48","3uzecuzd5nk4ypo",995,"65.csv","","null","resources/maskTrios/BBA2.jpg","null","",NA,NA,NA,NA,""
"image-keyboard-response",157,131341,"0.0-3.48-2.48","3uzecuzd5nk4ypo",995,"65.csv","","null","resources/images/coin2.png","null","",NA,NA,NA,NA,""
"image-keyboard-response",158,131392,"0.0-3.49-0.49","3uzecuzd5nk4ypo",995,"65.csv","","50.599999994039536","resources/trios/L1T4A2.jpg","39","restless",0.4,0.4,0.7,0.153195312338395,"true"
"image-keyboard-response",159,131805,"0.0-3.49-1.49","3uzecuzd5nk4ypo",995,"65.csv","","null","resources/maskTrios/BBA2.jpg","null","",NA,NA,NA,NA,""
"image-keyboard-response",160,133017,"0.0-3.49-2.49","3uzecuzd5nk4ypo",995,"65.csv","","null","resources/images/coin2.png","null","",NA,NA,NA,NA,""
"image-keyboard-response",161,133232,"0.0-3.50-0.50","3uzecuzd5nk4ypo",995,"65.csv","","214.3999999910593","resources/trios/L4T4A1.jpg","39","restless",0.4,0.4,0.7,0.781280319635813,"false"
"image-keyboard-response",162,133641,"0.0-3.50-1.50","3uzecuzd5nk4ypo",995,"65.csv","","null","resources/maskTrios/BBA1.jpg","null","",NA,NA,NA,NA,""
"image-keyboard-response",163,134852,"0.0-3.50-2.50","3uzecuzd5nk4ypo",995,"65.csv","","null","resources/images/fishbone.png","null","",NA,NA,NA,NA,""
"image-keyboard-response",164,134937,"0.0-3.51-0.51","3uzecuzd5nk4ypo",995,"65.csv","","84.30000001192093","resources/trios/L1T1A2.jpg","38","restless",0.4,0.4,0.7,0.588312033259442,"false"
"image-keyboard-response",165,135349,"0.0-3.51-1.51","3uzecuzd5nk4ypo",995,"65.csv","","null","resources/maskTrios/BT1B.jpg","null","",NA,NA,NA,NA,""
"image-keyboard-response",166,136571,"0.0-3.51-2.51","3uzecuzd5nk4ypo",995,"65.csv","","null","resources/images/fishbone.png","null","",NA,NA,NA,NA,""
"image-keyboard-response",167,136600,"0.0-3.52-0.52","3uzecuzd5nk4ypo",995,"65.csv","","28.19999998807907","resources/trios/L4T4A1.jpg","37","restless",0.3,0.5,0.7,0.640443116405339,"false"
"image-keyboard-response",168,137007,"0.0-3.52-1.52","3uzecuzd5nk4ypo",995,"65.csv","","null","resources/maskTrios/L4BB.jpg","null","",NA,NA,NA,NA,""
"image-keyboard-response",169,138224,"0.0-3.52-2.52","3uzecuzd5nk4ypo",995,"65.csv","","null","resources/images/fishbone.png","null","",NA,NA,NA,NA,""
"image-keyboard-response",170,138233,"0.0-3.53-0.53","3uzecuzd5nk4ypo",995,"65.csv","","8.299999997019768","resources/trios/L1T4A1.jpg","39","restless",0.3,0.5,0.7,0.383618472876222,"true"
"image-keyboard-response",171,138643,"0.0-3.53-1.53","3uzecuzd5nk4ypo",995,"65.csv","","null","resources/maskTrios/BBA1.jpg","null","",NA,NA,NA,NA,""
"image-keyboard-response",172,139857,"0.0-3.53-2.53","3uzecuzd5nk4ypo",995,"65.csv","","null","resources/images/coin2.png","null","",NA,NA,NA,NA,""
"image-keyboard-response",173,140121,"0.0-3.54-0.54","3uzecuzd5nk4ypo",995,"65.csv","","263.20000000298023","resources/trios/L1T1A2.jpg","39","restless",0.3,0.5,0.7,0.603959638759618,"true"
"image-keyboard-response",174,140526,"0.0-3.54-1.54","3uzecuzd5nk4ypo",995,"65.csv","","null","resources/maskTrios/BBA2.jpg","null","",NA,NA,NA,NA,""
"image-keyboard-response",175,141743,"0.0-3.54-2.54","3uzecuzd5nk4ypo",995,"65.csv","","null","resources/images/coin2.png","null","",NA,NA,NA,NA,""
"image-keyboard-response",176,142081,"0.0-3.55-0.55","3uzecuzd5nk4ypo",995,"65.csv","","336.5","resources/trios/L1T1A1.jpg","39","restless",0.3,0.5,0.7,0.799283053992073,"false"
"image-keyboard-response",177,142486,"0.0-3.55-1.55","3uzecuzd5nk4ypo",995,"65.csv","","null","resources/maskTrios/BBA1.jpg","null","",NA,NA,NA,NA,""
"image-keyboard-response",178,143699,"0.0-3.55-2.55","3uzecuzd5nk4ypo",995,"65.csv","","null","resources/images/fishbone.png","null","",NA,NA,NA,NA,""
"image-keyboard-response",179,144105,"0.0-3.56-0.56","3uzecuzd5nk4ypo",995,"65.csv","","404.5","resources/trios/L4T4A2.jpg","38","restless",0.3,0.5,0.6,0.133994991739365,"true"
"image-keyboard-response",180,144519,"0.0-3.56-1.56","3uzecuzd5nk4ypo",995,"65.csv","","null","resources/maskTrios/BT4B.jpg","null","",NA,NA,NA,NA,""
"image-keyboard-response",181,145730,"0.0-3.56-2.56","3uzecuzd5nk4ypo",995,"65.csv","","null","resources/images/coin2.png","null","",NA,NA,NA,NA,""
"image-keyboard-response",182,146001,"0.0-3.57-0.57","3uzecuzd5nk4ypo",995,"65.csv","","269.40000000596046","resources/trios/L4T1A2.jpg","38","restless",0.3,0.5,0.6,0.181845043352599,"true"
"image-keyboard-response",183,146414,"0.0-3.57-1.57","3uzecuzd5nk4ypo",995,"65.csv","","null","resources/maskTrios/BT1B.jpg","null","",NA,NA,NA,NA,""
"image-keyboard-response",184,147632,"0.0-3.57-2.57","3uzecuzd5nk4ypo",995,"65.csv","","null","resources/images/coin2.png","null","",NA,NA,NA,NA,""
"image-keyboard-response",185,148098,"0.0-3.58-0.58","3uzecuzd5nk4ypo",995,"65.csv","","463.70000000298023","resources/trios/L1T1A2.jpg","38","restless",0.3,0.5,0.6,0.781010356107573,"false"
"image-keyboard-response",186,148515,"0.0-3.58-1.58","3uzecuzd5nk4ypo",995,"65.csv","","null","resources/maskTrios/BT1B.jpg","null","",NA,NA,NA,NA,""
"image-keyboard-response",187,149726,"0.0-3.58-2.58","3uzecuzd5nk4ypo",995,"65.csv","","null","resources/images/fishbone.png","null","",NA,NA,NA,NA,""
"image-keyboard-response",188,150194,"0.0-3.59-0.59","3uzecuzd5nk4ypo",995,"65.csv","","466.5","resources/trios/L4T4A2.jpg","37","restless",0.3,0.4,0.6,0.170282064313456,"true"
"image-keyboard-response",189,150610,"0.0-3.59-1.59","3uzecuzd5nk4ypo",995,"65.csv","","null","resources/maskTrios/L4BB.jpg","null","",NA,NA,NA,NA,""
"image-keyboard-response",190,151822,"0.0-3.59-2.59","3uzecuzd5nk4ypo",995,"65.csv","","null","resources/images/coin2.png","null","",NA,NA,NA,NA,""
"image-keyboard-response",191,152249,"0.0-3.60-0.60","3uzecuzd5nk4ypo",995,"65.csv","","426.29999999701977","resources/trios/L1T1A1.jpg","37","restless",0.3,0.4,0.6,0.208141977132166,"true"
"image-keyboard-response",192,152664,"0.0-3.60-1.60","3uzecuzd5nk4ypo",995,"65.csv","","null","resources/maskTrios/L1BB.jpg","null","",NA,NA,NA,NA,""
"image-keyboard-response",193,153874,"0.0-3.60-2.60","3uzecuzd5nk4ypo",995,"65.csv","","null","resources/images/coin2.png","null","",NA,NA,NA,NA,""
"image-keyboard-response",194,154137,"0.0-3.61-0.61","3uzecuzd5nk4ypo",995,"65.csv","","262.40000000596046","resources/trios/L1T1A2.jpg","37","restless",0.3,0.4,0.6,0.173789178037192,"true"
"image-keyboard-response",195,154540,"0.0-3.61-1.61","3uzecuzd5nk4ypo",995,"65.csv","","null","resources/maskTrios/L1BB.jpg","null","",NA,NA,NA,NA,""
"image-keyboard-response",196,155754,"0.0-3.61-2.61","3uzecuzd5nk4ypo",995,"65.csv","","null","resources/images/coin2.png","null","",NA,NA,NA,NA,""
"image-keyboard-response",197,155953,"0.0-3.62-0.62","3uzecuzd5nk4ypo",995,"65.csv","","198.5","resources/trios/L4T1A1.jpg","37","restless",0.4,0.4,0.6,0.529019629019685,"false"
"image-keyboard-response",198,156361,"0.0-3.62-1.62","3uzecuzd5nk4ypo",995,"65.csv","","null","resources/maskTrios/L4BB.jpg","null","",NA,NA,NA,NA,""
"image-keyboard-response",199,157574,"0.0-3.62-2.62","3uzecuzd5nk4ypo",995,"65.csv","","null","resources/images/fishbone.png","null","",NA,NA,NA,NA,""
"image-keyboard-response",200,158017,"0.0-3.63-0.63","3uzecuzd5nk4ypo",995,"65.csv","","441.79999999701977","resources/trios/L4T1A1.jpg","38","restless",0.5,0.5,0.6,0.595947610765865,"false"
"image-keyboard-response",201,158430,"0.0-3.63-1.63","3uzecuzd5nk4ypo",995,"65.csv","","null","resources/maskTrios/BT1B.jpg","null","",NA,NA,NA,NA,""
"image-keyboard-response",202,159639,"0.0-3.63-2.63","3uzecuzd5nk4ypo",995,"65.csv","","null","resources/images/fishbone.png","null","",NA,NA,NA,NA,""
"image-keyboard-response",203,160026,"0.0-3.64-0.64","3uzecuzd5nk4ypo",995,"65.csv","","385.70000000298023","resources/trios/L4T1A2.jpg","39","restless",0.5,0.5,0.6,0.518520812742324,"true"
"image-keyboard-response",204,160430,"0.0-3.64-1.64","3uzecuzd5nk4ypo",995,"65.csv","","null","resources/maskTrios/BBA2.jpg","null","",NA,NA,NA,NA,""
"image-keyboard-response",205,161646,"0.0-3.64-2.64","3uzecuzd5nk4ypo",995,"65.csv","","null","resources/images/coin2.png","null","",NA,NA,NA,NA,""
"image-keyboard-response",206,162002,"0.0-3.65-0.65","3uzecuzd5nk4ypo",995,"65.csv","","355.20000000298023","resources/trios/L1T4A2.jpg","39","restless",0.5,0.5,0.6,0.240888680664979,"true"
"image-keyboard-response",207,162406,"0.0-3.65-1.65","3uzecuzd5nk4ypo",995,"65.csv","","null","resources/maskTrios/BBA2.jpg","null","",NA,NA,NA,NA,""
"image-keyboard-response",208,163614,"0.0-3.65-2.65","3uzecuzd5nk4ypo",995,"65.csv","","null","resources/images/coin2.png","null","",NA,NA,NA,NA,""
"image-keyboard-response",209,163793,"0.0-3.66-0.66","3uzecuzd5nk4ypo",995,"65.csv","","178.5","resources/trios/L4T4A2.jpg","39","restless",0.4,0.5,0.6,0.0521078898285856,"true"
"image-keyboard-response",210,164207,"0.0-3.66-1.66","3uzecuzd5nk4ypo",995,"65.csv","","null","resources/maskTrios/BBA2.jpg","null","",NA,NA,NA,NA,""
"image-keyboard-response",211,165423,"0.0-3.66-2.66","3uzecuzd5nk4ypo",995,"65.csv","","null","resources/images/coin2.png","null","",NA,NA,NA,NA,""
"image-keyboard-response",212,165634,"0.0-3.67-0.67","3uzecuzd5nk4ypo",995,"65.csv","","209.40000000596046","resources/trios/L4T1A2.jpg","39","restless",0.4,0.5,0.5,0.828088051768597,"false"
"image-keyboard-response",213,166044,"0.0-3.67-1.67","3uzecuzd5nk4ypo",995,"65.csv","","null","resources/maskTrios/BBA2.jpg","null","",NA,NA,NA,NA,""
"image-keyboard-response",214,167257,"0.0-3.67-2.67","3uzecuzd5nk4ypo",995,"65.csv","","null","resources/images/fishbone.png","null","",NA,NA,NA,NA,""
"image-keyboard-response",215,167425,"0.0-3.68-0.68","3uzecuzd5nk4ypo",995,"65.csv","","167.5","resources/trios/L1T4A1.jpg","38","restless",0.4,0.5,0.5,0.186093185740365,"true"
"image-keyboard-response",216,167834,"0.0-3.68-1.68","3uzecuzd5nk4ypo",995,"65.csv","","null","resources/maskTrios/BT4B.jpg","null","",NA,NA,NA,NA,""
"image-keyboard-response",217,169048,"0.0-3.68-2.68","3uzecuzd5nk4ypo",995,"65.csv","","null","resources/images/coin2.png","null","",NA,NA,NA,NA,""
"image-keyboard-response",218,184755,"0.0-3.69-0.69","3uzecuzd5nk4ypo",995,"65.csv","","15706","resources/trios/L1T4A2.jpg","37","restless",0.4,0.5,0.6,0.30890601169654,"true"
"image-keyboard-response",219,185175,"0.0-3.69-1.69","3uzecuzd5nk4ypo",995,"65.csv","","null","resources/maskTrios/L1BB.jpg","null","",NA,NA,NA,NA,""
"image-keyboard-response",220,186383,"0.0-3.69-2.69","3uzecuzd5nk4ypo",995,"65.csv","","null","resources/images/coin2.png","null","",NA,NA,NA,NA,""
"image-keyboard-response",221,186659,"0.0-3.70-0.70","3uzecuzd5nk4ypo",995,"65.csv","","274.59999999403954","resources/trios/L1T1A1.jpg","37","restless",0.4,0.5,0.6,0.311301882609603,"true"
"image-keyboard-response",222,187070,"0.0-3.70-1.70","3uzecuzd5nk4ypo",995,"65.csv","","null","resources/maskTrios/L1BB.jpg","null","",NA,NA,NA,NA,""
"image-keyboard-response",223,188283,"0.0-3.70-2.70","3uzecuzd5nk4ypo",995,"65.csv","","null","resources/images/coin2.png","null","",NA,NA,NA,NA,""
"image-keyboard-response",224,188530,"0.0-3.71-0.71","3uzecuzd5nk4ypo",995,"65.csv","","246.5","resources/trios/L1T1A1.jpg","37","restless",0.4,0.5,0.6,0.628295004925588,"false"
"image-keyboard-response",225,188939,"0.0-3.71-1.71","3uzecuzd5nk4ypo",995,"65.csv","","null","resources/maskTrios/L1BB.jpg","null","",NA,NA,NA,NA,""
"image-keyboard-response",226,190159,"0.0-3.71-2.71","3uzecuzd5nk4ypo",995,"65.csv","","null","resources/images/fishbone.png","null","",NA,NA,NA,NA,""
"image-keyboard-response",227,190339,"0.0-3.72-0.72","3uzecuzd5nk4ypo",995,"65.csv","","178.79999999701977","resources/trios/L4T4A2.jpg","38","restless",0.4,0.5,0.6,0.397179876087346,"true"
"image-keyboard-response",228,190750,"0.0-3.72-1.72","3uzecuzd5nk4ypo",995,"65.csv","","null","resources/maskTrios/BT4B.jpg","null","",NA,NA,NA,NA,""
"image-keyboard-response",229,191961,"0.0-3.72-2.72","3uzecuzd5nk4ypo",995,"65.csv","","null","resources/images/coin2.png","null","",NA,NA,NA,NA,""
"image-keyboard-response",230,192202,"0.0-3.73-0.73","3uzecuzd5nk4ypo",995,"65.csv","","240.5","resources/trios/L4T4A2.jpg","38","restless",0.4,0.5,0.6,0.248240213462619,"true"
"image-keyboard-response",231,192616,"0.0-3.73-1.73","3uzecuzd5nk4ypo",995,"65.csv","","null","resources/maskTrios/BT4B.jpg","null","",NA,NA,NA,NA,""
"image-keyboard-response",232,193834,"0.0-3.73-2.73","3uzecuzd5nk4ypo",995,"65.csv","","null","resources/images/coin2.png","null","",NA,NA,NA,NA,""
"image-keyboard-response",233,194091,"0.0-3.74-0.74","3uzecuzd5nk4ypo",995,"65.csv","","255.90000000596046","resources/trios/L4T1A1.jpg","38","restless",0.4,0.5,0.6,0.522933045811492,"false"
"image-keyboard-response",234,194508,"0.0-3.74-1.74","3uzecuzd5nk4ypo",995,"65.csv","","null","resources/maskTrios/BT1B.jpg","null","",NA,NA,NA,NA,""
"image-keyboard-response",235,195716,"0.0-3.74-2.74","3uzecuzd5nk4ypo",995,"65.csv","","null","resources/images/fishbone.png","null","",NA,NA,NA,NA,""
"image-keyboard-response",236,196011,"0.0-3.75-0.75","3uzecuzd5nk4ypo",995,"65.csv","","294","resources/trios/L4T4A1.jpg","39","restless",0.4,0.5,0.6,0.926789020562319,"false"
"image-keyboard-response",237,196430,"0.0-3.75-1.75","3uzecuzd5nk4ypo",995,"65.csv","","null","resources/maskTrios/BBA1.jpg","null","",NA,NA,NA,NA,""
"image-keyboard-response",238,197643,"0.0-3.75-2.75","3uzecuzd5nk4ypo",995,"65.csv","","null","resources/images/fishbone.png","null","",NA,NA,NA,NA,""
"image-keyboard-response",239,197731,"0.0-3.76-0.76","3uzecuzd5nk4ypo",995,"65.csv","","87.40000000596046","resources/trios/L1T4A1.jpg","37","restless",0.4,0.5,0.6,0.676467347458772,"false"
"image-keyboard-response",240,198144,"0.0-3.76-1.76","3uzecuzd5nk4ypo",995,"65.csv","","null","resources/maskTrios/L1BB.jpg","null","",NA,NA,NA,NA,""
"image-keyboard-response",241,199357,"0.0-3.76-2.76","3uzecuzd5nk4ypo",995,"65.csv","","null","resources/images/fishbone.png","null","",NA,NA,NA,NA,""
"image-keyboard-response",242,199379,"0.0-3.77-0.77","3uzecuzd5nk4ypo",995,"65.csv","","21.5","resources/trios/L1T4A1.jpg","38","restless",0.4,0.5,0.5,0.663078208438605,"false"
"image-keyboard-response",243,199794,"0.0-3.77-1.77","3uzecuzd5nk4ypo",995,"65.csv","","null","resources/maskTrios/BT4B.jpg","null","",NA,NA,NA,NA,""
"image-keyboard-response",244,201010,"0.0-3.77-2.77","3uzecuzd5nk4ypo",995,"65.csv","","null","resources/images/fishbone.png","null","",NA,NA,NA,NA,""
"image-keyboard-response",245,201099,"0.0-3.78-0.78","3uzecuzd5nk4ypo",995,"65.csv","","87.8999999910593","resources/trios/L1T1A2.jpg","38","restless",0.4,0.6,0.5,0.546741897048372,"true"
"image-keyboard-response",246,201523,"0.0-3.78-1.78","3uzecuzd5nk4ypo",995,"65.csv","","null","resources/maskTrios/BT1B.jpg","null","",NA,NA,NA,NA,""
"image-keyboard-response",247,202737,"0.0-3.78-2.78","3uzecuzd5nk4ypo",995,"65.csv","","null","resources/images/coin2.png","null","",NA,NA,NA,NA,""
"image-keyboard-response",248,202803,"0.0-3.79-0.79","3uzecuzd5nk4ypo",995,"65.csv","","65","resources/trios/L1T4A2.jpg","38","restless",0.4,0.6,0.5,0.95053213747277,"false"
"image-keyboard-response",249,203217,"0.0-3.79-1.79","3uzecuzd5nk4ypo",995,"65.csv","","null","resources/maskTrios/BT4B.jpg","null","",NA,NA,NA,NA,""
"image-keyboard-response",250,204431,"0.0-3.79-2.79","3uzecuzd5nk4ypo",995,"65.csv","","null","resources/images/fishbone.png","null","",NA,NA,NA,NA,""
"image-keyboard-response",251,204531,"0.0-3.80-0.80","3uzecuzd5nk4ypo",995,"65.csv","","98.40000000596046","resources/trios/L4T1A2.jpg","37","restless",0.4,0.6,0.5,0.738003797114352,"false"
"image-keyboard-response",252,204946,"0.0-3.80-1.80","3uzecuzd5nk4ypo",995,"65.csv","","null","resources/maskTrios/L4BB.jpg","null","",NA,NA,NA,NA,""
"image-keyboard-response",253,206161,"0.0-3.80-2.80","3uzecuzd5nk4ypo",995,"65.csv","","null","resources/images/fishbone.png","null","",NA,NA,NA,NA,""
"image-keyboard-response",254,206243,"0.0-3.81-0.81","3uzecuzd5nk4ypo",995,"65.csv","","81","resources/trios/L1T1A1.jpg","39","restless",0.4,0.6,0.5,0.932924175210699,"false"
"image-keyboard-response",255,206659,"0.0-3.81-1.81","3uzecuzd5nk4ypo",995,"65.csv","","null","resources/maskTrios/BBA1.jpg","null","",NA,NA,NA,NA,""
"image-keyboard-response",256,207870,"0.0-3.81-2.81","3uzecuzd5nk4ypo",995,"65.csv","","null","resources/images/fishbone.png","null","",NA,NA,NA,NA,""
"image-keyboard-response",257,208515,"0.0-3.82-0.82","3uzecuzd5nk4ypo",995,"65.csv","","644.1999999880791","resources/trios/L4T4A2.jpg","38","restless",0.4,0.6,0.5,0.79371745930306,"false"
"image-keyboard-response",258,208924,"0.0-3.82-1.82","3uzecuzd5nk4ypo",995,"65.csv","","null","resources/maskTrios/BT4B.jpg","null","",NA,NA,NA,NA,""
"image-keyboard-response",259,210140,"0.0-3.82-2.82","3uzecuzd5nk4ypo",995,"65.csv","","null","resources/images/fishbone.png","null","",NA,NA,NA,NA,""
"image-keyboard-response",260,212075,"0.0-3.83-0.83","3uzecuzd5nk4ypo",995,"65.csv","","1930.2999999970198","resources/trios/L4T4A2.jpg","37","restless",0.4,0.6,0.5,0.37830497984332,"true"
"image-keyboard-response",261,212489,"0.0-3.83-1.83","3uzecuzd5nk4ypo",995,"65.csv","","null","resources/maskTrios/L4BB.jpg","null","",NA,NA,NA,NA,""
"image-keyboard-response",262,213706,"0.0-3.83-2.83","3uzecuzd5nk4ypo",995,"65.csv","","null","resources/images/coin2.png","null","",NA,NA,NA,NA,""
"image-keyboard-response",263,213803,"0.0-3.84-0.84","3uzecuzd5nk4ypo",995,"65.csv","","96.3999999910593","resources/trios/L4T1A2.jpg","37","restless",0.4,0.7,0.5,0.786377749774472,"false"
"image-keyboard-response",264,214217,"0.0-3.84-1.84","3uzecuzd5nk4ypo",995,"65.csv","","null","resources/maskTrios/L4BB.jpg","null","",NA,NA,NA,NA,""
"image-keyboard-response",265,215428,"0.0-3.84-2.84","3uzecuzd5nk4ypo",995,"65.csv","","null","resources/images/fishbone.png","null","",NA,NA,NA,NA,""
"image-keyboard-response",266,215523,"0.0-3.85-0.85","3uzecuzd5nk4ypo",995,"65.csv","","94.09999999403954","resources/trios/L4T1A1.jpg","39","restless",0.4,0.7,0.5,0.445944226796459,"true"
"image-keyboard-response",267,215942,"0.0-3.85-1.85","3uzecuzd5nk4ypo",995,"65.csv","","null","resources/maskTrios/BBA1.jpg","null","",NA,NA,NA,NA,""
"image-keyboard-response",268,217149,"0.0-3.85-2.85","3uzecuzd5nk4ypo",995,"65.csv","","null","resources/images/coin2.png","null","",NA,NA,NA,NA,""
"image-keyboard-response",269,217651,"0.0-3.86-0.86","3uzecuzd5nk4ypo",995,"65.csv","","501.5","resources/trios/L4T1A2.jpg","39","restless",0.4,0.7,0.5,0.177561475187741,"true"
"image-keyboard-response",270,218060,"0.0-3.86-1.86","3uzecuzd5nk4ypo",995,"65.csv","","null","resources/maskTrios/BBA2.jpg","null","",NA,NA,NA,NA,""
"image-keyboard-response",271,219272,"0.0-3.86-2.86","3uzecuzd5nk4ypo",995,"65.csv","","null","resources/images/coin2.png","null","",NA,NA,NA,NA,""
"image-keyboard-response",272,219436,"0.0-3.87-0.87","3uzecuzd5nk4ypo",995,"65.csv","","161.80000001192093","resources/trios/L4T4A1.jpg","39","restless",0.4,0.7,0.5,0.558821931001968,"false"
"image-keyboard-response",273,219847,"0.0-3.87-1.87","3uzecuzd5nk4ypo",995,"65.csv","","null","resources/maskTrios/BBA1.jpg","null","",NA,NA,NA,NA,""
"image-keyboard-response",274,221056,"0.0-3.87-2.87","3uzecuzd5nk4ypo",995,"65.csv","","null","resources/images/fishbone.png","null","",NA,NA,NA,NA,""
"image-keyboard-response",275,221371,"0.0-3.88-0.88","3uzecuzd5nk4ypo",995,"65.csv","","315.1000000089407","resources/trios/L4T1A2.jpg","38","restless",0.4,0.7,0.5,0.540206529431625,"true"
"image-keyboard-response",276,221790,"0.0-3.88-1.88","3uzecuzd5nk4ypo",995,"65.csv","","null","resources/maskTrios/BT1B.jpg","null","",NA,NA,NA,NA,""
"image-keyboard-response",277,223002,"0.0-3.88-2.88","3uzecuzd5nk4ypo",995,"65.csv","","null","resources/images/coin2.png","null","",NA,NA,NA,NA,""
"image-keyboard-response",278,227908,"0.0-3.89-0.89","3uzecuzd5nk4ypo",995,"65.csv","","4905.0999999940395","resources/trios/L1T4A1.jpg","38","restless",0.4,0.8,0.5,0.966187163966094,"false"
"image-keyboard-response",279,228321,"0.0-3.89-1.89","3uzecuzd5nk4ypo",995,"65.csv","","null","resources/maskTrios/BT4B.jpg","null","",NA,NA,NA,NA,""
"image-keyboard-response",280,229531,"0.0-3.89-2.89","3uzecuzd5nk4ypo",995,"65.csv","","null","resources/images/fishbone.png","null","",NA,NA,NA,NA,""
"image-keyboard-response",281,230036,"0.0-3.90-0.90","3uzecuzd5nk4ypo",995,"65.csv","","504.09999999403954","resources/trios/L4T4A2.jpg","37","restless",0.4,0.8,0.5,0.991135667918599,"false"
"image-keyboard-response",282,230454,"0.0-3.90-1.90","3uzecuzd5nk4ypo",995,"65.csv","","null","resources/maskTrios/L4BB.jpg","null","",NA,NA,NA,NA,""
"image-keyboard-response",283,231660,"0.0-3.90-2.90","3uzecuzd5nk4ypo",995,"65.csv","","null","resources/images/fishbone.png","null","",NA,NA,NA,NA,""
"image-keyboard-response",284,231788,"0.0-3.91-0.91","3uzecuzd5nk4ypo",995,"65.csv","","127.30000001192093","resources/trios/L4T1A2.jpg","37","restless",0.4,0.8,0.5,0.0814000599043727,"true"
"image-keyboard-response",285,232211,"0.0-3.91-1.91","3uzecuzd5nk4ypo",995,"65.csv","","null","resources/maskTrios/L4BB.jpg","null","",NA,NA,NA,NA,""
"image-keyboard-response",286,233421,"0.0-3.91-2.91","3uzecuzd5nk4ypo",995,"65.csv","","null","resources/images/coin2.png","null","",NA,NA,NA,NA,""
"image-keyboard-response",287,233500,"0.0-3.92-0.92","3uzecuzd5nk4ypo",995,"65.csv","","78.1000000089407","resources/trios/L1T1A1.jpg","37","restless",0.4,0.8,0.5,0.241292633782165,"true"
"image-keyboard-response",288,233909,"0.0-3.92-1.92","3uzecuzd5nk4ypo",995,"65.csv","","null","resources/maskTrios/L1BB.jpg","null","",NA,NA,NA,NA,""
"image-keyboard-response",289,235125,"0.0-3.92-2.92","3uzecuzd5nk4ypo",995,"65.csv","","null","resources/images/coin2.png","null","",NA,NA,NA,NA,""
"image-keyboard-response",290,235220,"0.0-3.93-0.93","3uzecuzd5nk4ypo",995,"65.csv","","94.1000000089407","resources/trios/L4T4A2.jpg","38","restless",0.4,0.7,0.5,0.794398484371114,"false"
"image-keyboard-response",291,235640,"0.0-3.93-1.93","3uzecuzd5nk4ypo",995,"65.csv","","null","resources/maskTrios/BT4B.jpg","null","",NA,NA,NA,NA,""
"image-keyboard-response",292,236848,"0.0-3.93-2.93","3uzecuzd5nk4ypo",995,"65.csv","","null","resources/images/fishbone.png","null","",NA,NA,NA,NA,""
"image-keyboard-response",293,236892,"0.0-3.94-0.94","3uzecuzd5nk4ypo",995,"65.csv","","43.80000001192093","resources/trios/L4T1A1.jpg","37","restless",0.4,0.7,0.5,0.647176572069716,"false"
"image-keyboard-response",294,237300,"0.0-3.94-1.94","3uzecuzd5nk4ypo",995,"65.csv","","null","resources/maskTrios/L4BB.jpg","null","",NA,NA,NA,NA,""
"image-keyboard-response",295,238514,"0.0-3.94-2.94","3uzecuzd5nk4ypo",995,"65.csv","","null","resources/images/fishbone.png","null","",NA,NA,NA,NA,""
"image-keyboard-response",296,238620,"0.0-3.95-0.95","3uzecuzd5nk4ypo",995,"65.csv","","105.70000000298023","resources/trios/L1T4A1.jpg","39","restless",0.4,0.7,0.5,0.789119395989771,"false"
"image-keyboard-response",297,239029,"0.0-3.95-1.95","3uzecuzd5nk4ypo",995,"65.csv","","null","resources/maskTrios/BBA1.jpg","null","",NA,NA,NA,NA,""
"image-keyboard-response",298,240238,"0.0-3.95-2.95","3uzecuzd5nk4ypo",995,"65.csv","","null","resources/images/fishbone.png","null","",NA,NA,NA,NA,""
"image-keyboard-response",299,240316,"0.0-3.96-0.96","3uzecuzd5nk4ypo",995,"65.csv","","76.70000000298023","resources/trios/L1T1A2.jpg","38","restless",0.4,0.7,0.5,0.432540652248816,"true"
"image-keyboard-response",300,240724,"0.0-3.96-1.96","3uzecuzd5nk4ypo",995,"65.csv","","null","resources/maskTrios/BT1B.jpg","null","",NA,NA,NA,NA,""
"image-keyboard-response",301,241945,"0.0-3.96-2.96","3uzecuzd5nk4ypo",995,"65.csv","","null","resources/images/coin2.png","null","",NA,NA,NA,NA,""
"image-keyboard-response",302,242012,"0.0-3.97-0.97","3uzecuzd5nk4ypo",995,"65.csv","","65.5","resources/trios/L4T1A2.jpg","38","restless",0.5,0.7,0.5,0.387099841556916,"true"
"image-keyboard-response",303,242427,"0.0-3.97-1.97","3uzecuzd5nk4ypo",995,"65.csv","","null","resources/maskTrios/BT1B.jpg","null","",NA,NA,NA,NA,""
"image-keyboard-response",304,243649,"0.0-3.97-2.97","3uzecuzd5nk4ypo",995,"65.csv","","null","resources/images/coin2.png","null","",NA,NA,NA,NA,""
"image-keyboard-response",305,243669,"0.0-3.98-0.98","3uzecuzd5nk4ypo",995,"65.csv","","18.900000005960464","resources/trios/L4T1A1.jpg","38","restless",0.6,0.7,0.5,0.636121769156537,"true"
"image-keyboard-response",306,244081,"0.0-3.98-1.98","3uzecuzd5nk4ypo",995,"65.csv","","null","resources/maskTrios/BT1B.jpg","null","",NA,NA,NA,NA,""
"image-keyboard-response",307,245294,"0.0-3.98-2.98","3uzecuzd5nk4ypo",995,"65.csv","","null","resources/images/coin2.png","null","",NA,NA,NA,NA,""
"image-keyboard-response",308,245436,"0.0-3.99-0.99","3uzecuzd5nk4ypo",995,"65.csv","","141.90000000596046","resources/trios/L1T4A2.jpg","38","restless",0.6,0.7,0.5,0.0262617624215726,"true"
"image-keyboard-response",309,245843,"0.0-3.99-1.99","3uzecuzd5nk4ypo",995,"65.csv","","null","resources/maskTrios/BT4B.jpg","null","",NA,NA,NA,NA,""
"image-keyboard-response",310,247053,"0.0-3.99-2.99","3uzecuzd5nk4ypo",995,"65.csv","","null","resources/images/coin2.png","null","",NA,NA,NA,NA,""
"image-keyboard-response",311,247060,"0.0-3.100-0.100","3uzecuzd5nk4ypo",995,"65.csv","","6.5999999940395355","resources/trios/L1T4A1.jpg","38","restless",0.6,0.8,0.5,0.56050225223053,"true"
"image-keyboard-response",312,247474,"0.0-3.100-1.100","3uzecuzd5nk4ypo",995,"65.csv","","null","resources/maskTrios/BT4B.jpg","null","",NA,NA,NA,NA,""
"image-keyboard-response",313,248686,"0.0-3.100-2.100","3uzecuzd5nk4ypo",995,"65.csv","","null","resources/images/coin2.png","null","",NA,NA,NA,NA,""
"image-keyboard-response",314,248804,"0.0-3.101-0.101","3uzecuzd5nk4ypo",995,"65.csv","","117.40000000596046","resources/trios/L1T1A2.jpg","38","restless",0.6,0.8,0.5,0.741331629020444,"true"
"image-keyboard-response",315,249227,"0.0-3.101-1.101","3uzecuzd5nk4ypo",995,"65.csv","","null","resources/maskTrios/BT1B.jpg","null","",NA,NA,NA,NA,""
"image-keyboard-response",316,250437,"0.0-3.101-2.101","3uzecuzd5nk4ypo",995,"65.csv","","null","resources/images/coin2.png","null","",NA,NA,NA,NA,""
"image-keyboard-response",317,250516,"0.0-3.102-0.102","3uzecuzd5nk4ypo",995,"65.csv","","77.80000001192093","resources/trios/L4T4A2.jpg","38","restless",0.6,0.9,0.5,0.499310536995082,"true"
"image-keyboard-response",318,250932,"0.0-3.102-1.102","3uzecuzd5nk4ypo",995,"65.csv","","null","resources/maskTrios/BT4B.jpg","null","",NA,NA,NA,NA,""
"image-keyboard-response",319,252145,"0.0-3.102-2.102","3uzecuzd5nk4ypo",995,"65.csv","","null","resources/images/coin2.png","null","",NA,NA,NA,NA,""
"image-keyboard-response",320,252188,"0.0-3.103-0.103","3uzecuzd5nk4ypo",995,"65.csv","","41.80000001192093","resources/trios/L1T1A1.jpg","38","restless",0.6,0.9,0.5,0.538198896054512,"true"
"image-keyboard-response",321,252594,"0.0-3.103-1.103","3uzecuzd5nk4ypo",995,"65.csv","","null","resources/maskTrios/BT1B.jpg","null","",NA,NA,NA,NA,""
"image-keyboard-response",322,253806,"0.0-3.103-2.103","3uzecuzd5nk4ypo",995,"65.csv","","null","resources/images/coin2.png","null","",NA,NA,NA,NA,""
"image-keyboard-response",323,253860,"0.0-3.104-0.104","3uzecuzd5nk4ypo",995,"65.csv","","52.599999994039536","resources/trios/L1T1A1.jpg","38","restless",0.6,0.9,0.5,0.475379170707058,"true"
"image-keyboard-response",324,254271,"0.0-3.104-1.104","3uzecuzd5nk4ypo",995,"65.csv","","null","resources/maskTrios/BT1B.jpg","null","",NA,NA,NA,NA,""
"image-keyboard-response",325,255486,"0.0-3.104-2.104","3uzecuzd5nk4ypo",995,"65.csv","","null","resources/images/coin2.png","null","",NA,NA,NA,NA,""
"image-keyboard-response",326,255613,"0.0-3.105-0.105","3uzecuzd5nk4ypo",995,"65.csv","","125.59999999403954","resources/trios/L4T4A2.jpg","38","restless",0.6,0.9,0.5,0.609534560908797,"true"
"image-keyboard-response",327,256030,"0.0-3.105-1.105","3uzecuzd5nk4ypo",995,"65.csv","","null","resources/maskTrios/BT4B.jpg","null","",NA,NA,NA,NA,""
"image-keyboard-response",328,257236,"0.0-3.105-2.105","3uzecuzd5nk4ypo",995,"65.csv","","null","resources/images/coin2.png","null","",NA,NA,NA,NA,""
"image-keyboard-response",329,257261,"0.0-3.106-0.106","3uzecuzd5nk4ypo",995,"65.csv","","23.100000008940697","resources/trios/L4T4A2.jpg","38","restless",0.6,0.9,0.5,0.291257534401652,"true"
"image-keyboard-response",330,257670,"0.0-3.106-1.106","3uzecuzd5nk4ypo",995,"65.csv","","null","resources/maskTrios/BT4B.jpg","null","",NA,NA,NA,NA,""
"image-keyboard-response",331,258879,"0.0-3.106-2.106","3uzecuzd5nk4ypo",995,"65.csv","","null","resources/images/coin2.png","null","",NA,NA,NA,NA,""
"image-keyboard-response",332,259004,"0.0-3.107-0.107","3uzecuzd5nk4ypo",995,"65.csv","","123.70000000298023","resources/trios/L1T4A1.jpg","38","restless",0.6,0.9,0.5,0.957680170035376,"false"
"image-keyboard-response",333,259426,"0.0-3.107-1.107","3uzecuzd5nk4ypo",995,"65.csv","","null","resources/maskTrios/BT4B.jpg","null","",NA,NA,NA,NA,""
"image-keyboard-response",334,260639,"0.0-3.107-2.107","3uzecuzd5nk4ypo",995,"65.csv","","null","resources/images/fishbone.png","null","",NA,NA,NA,NA,""
"image-keyboard-response",335,260772,"0.0-3.108-0.108","3uzecuzd5nk4ypo",995,"65.csv","","131.3999999910593","resources/trios/L1T4A1.jpg","37","restless",0.6,0.9,0.5,0.862324477963394,"false"
"image-keyboard-response",336,261184,"0.0-3.108-1.108","3uzecuzd5nk4ypo",995,"65.csv","","null","resources/maskTrios/L1BB.jpg","null","",NA,NA,NA,NA,""
"image-keyboard-response",337,262396,"0.0-3.108-2.108","3uzecuzd5nk4ypo",995,"65.csv","","null","resources/images/fishbone.png","null","",NA,NA,NA,NA,""
"image-keyboard-response",338,262516,"0.0-3.109-0.109","3uzecuzd5nk4ypo",995,"65.csv","","119.1000000089407","resources/trios/L1T1A2.jpg","38","restless",0.6,0.9,0.5,0.150132617408099,"true"
"image-keyboard-response",339,262926,"0.0-3.109-1.109","3uzecuzd5nk4ypo",995,"65.csv","","null","resources/maskTrios/BT1B.jpg","null","",NA,NA,NA,NA,""
"image-keyboard-response",340,264141,"0.0-3.109-2.109","3uzecuzd5nk4ypo",995,"65.csv","","null","resources/images/coin2.png","null","",NA,NA,NA,NA,""
"image-keyboard-response",341,264252,"0.0-3.110-0.110","3uzecuzd5nk4ypo",995,"65.csv","","110.40000000596046","resources/trios/L4T1A2.jpg","38","restless",0.6,0.9,0.5,0.707240618415324,"true"
"image-keyboard-response",342,264656,"0.0-3.110-1.110","3uzecuzd5nk4ypo",995,"65.csv","","null","resources/maskTrios/BT1B.jpg","null","",NA,NA,NA,NA,""
"image-keyboard-response",343,265874,"0.0-3.110-2.110","3uzecuzd5nk4ypo",995,"65.csv","","null","resources/images/coin2.png","null","",NA,NA,NA,NA,""
"image-keyboard-response",344,265877,"0.0-3.111-0.111","3uzecuzd5nk4ypo",995,"65.csv","","1.3999999910593033","resources/trios/L1T1A2.jpg","38","restless",0.6,0.9,0.5,0.66189889473286,"true"
"image-keyboard-response",345,266293,"0.0-3.111-1.111","3uzecuzd5nk4ypo",995,"65.csv","","null","resources/maskTrios/BT1B.jpg","null","",NA,NA,NA,NA,""
"image-keyboard-response",346,267503,"0.0-3.111-2.111","3uzecuzd5nk4ypo",995,"65.csv","","null","resources/images/coin2.png","null","",NA,NA,NA,NA,""
"image-keyboard-response",347,267532,"0.0-3.112-0.112","3uzecuzd5nk4ypo",995,"65.csv","","28.200000002980232","resources/trios/L4T4A1.jpg","38","restless",0.6,0.9,0.5,0.428569368349325,"true"
"image-keyboard-response",348,267953,"0.0-3.112-1.112","3uzecuzd5nk4ypo",995,"65.csv","","null","resources/maskTrios/BT4B.jpg","null","",NA,NA,NA,NA,""
"image-keyboard-response",349,269157,"0.0-3.112-2.112","3uzecuzd5nk4ypo",995,"65.csv","","null","resources/images/coin2.png","null","",NA,NA,NA,NA,""
"image-keyboard-response",350,269324,"0.0-3.113-0.113","3uzecuzd5nk4ypo",995,"65.csv","","167.30000001192093","resources/trios/L1T1A1.jpg","38","restless",0.6,0.9,0.5,0.45734268071959,"true"
"image-keyboard-response",351,269734,"0.0-3.113-1.113","3uzecuzd5nk4ypo",995,"65.csv","","null","resources/maskTrios/BT1B.jpg","null","",NA,NA,NA,NA,""
"image-keyboard-response",352,270945,"0.0-3.113-2.113","3uzecuzd5nk4ypo",995,"65.csv","","null","resources/images/coin2.png","null","",NA,NA,NA,NA,""
"image-keyboard-response",353,271069,"0.0-3.114-0.114","3uzecuzd5nk4ypo",995,"65.csv","","122.79999999701977","resources/trios/L4T4A1.jpg","38","restless",0.6,0.9,0.5,0.665036964697434,"true"
"image-keyboard-response",354,271491,"0.0-3.114-1.114","3uzecuzd5nk4ypo",995,"65.csv","","null","resources/maskTrios/BT4B.jpg","null","",NA,NA,NA,NA,""
"image-keyboard-response",355,272693,"0.0-3.114-2.114","3uzecuzd5nk4ypo",995,"65.csv","","null","resources/images/coin2.png","null","",NA,NA,NA,NA,""
"image-keyboard-response",356,272861,"0.0-3.115-0.115","3uzecuzd5nk4ypo",995,"65.csv","","167.19999998807907","resources/trios/L4T1A2.jpg","38","restless",0.6,0.9,0.5,0.169367941725901,"true"
"image-keyboard-response",357,273276,"0.0-3.115-1.115","3uzecuzd5nk4ypo",995,"65.csv","","null","resources/maskTrios/BT1B.jpg","null","",NA,NA,NA,NA,""
"image-keyboard-response",358,274491,"0.0-3.115-2.115","3uzecuzd5nk4ypo",995,"65.csv","","null","resources/images/coin2.png","null","",NA,NA,NA,NA,""
"image-keyboard-response",359,275269,"0.0-3.116-0.116","3uzecuzd5nk4ypo",995,"65.csv","","777","resources/trios/L1T1A2.jpg","38","restless",0.6,0.9,0.5,0.941368964723809,"false"
"image-keyboard-response",360,275689,"0.0-3.116-1.116","3uzecuzd5nk4ypo",995,"65.csv","","null","resources/maskTrios/BT1B.jpg","null","",NA,NA,NA,NA,""
"image-keyboard-response",361,276900,"0.0-3.116-2.116","3uzecuzd5nk4ypo",995,"65.csv","","null","resources/images/fishbone.png","null","",NA,NA,NA,NA,""
"image-keyboard-response",362,276919,"0.0-3.117-0.117","3uzecuzd5nk4ypo",995,"65.csv","","17.5","resources/trios/L1T4A1.jpg","38","restless",0.6,0.9,0.5,0.215610380846859,"true"
"image-keyboard-response",363,277335,"0.0-3.117-1.117","3uzecuzd5nk4ypo",995,"65.csv","","null","resources/maskTrios/BT4B.jpg","null","",NA,NA,NA,NA,""
"image-keyboard-response",364,278541,"0.0-3.117-2.117","3uzecuzd5nk4ypo",995,"65.csv","","null","resources/images/coin2.png","null","",NA,NA,NA,NA,""
"image-keyboard-response",365,278685,"0.0-3.118-0.118","3uzecuzd5nk4ypo",995,"65.csv","","143","resources/trios/L1T1A1.jpg","38","restless",0.6,0.9,0.5,0.11969320037687,"true"
"image-keyboard-response",366,279094,"0.0-3.118-1.118","3uzecuzd5nk4ypo",995,"65.csv","","null","resources/maskTrios/BT1B.jpg","null","",NA,NA,NA,NA,""
"image-keyboard-response",367,280304,"0.0-3.118-2.118","3uzecuzd5nk4ypo",995,"65.csv","","null","resources/images/coin2.png","null","",NA,NA,NA,NA,""
"image-keyboard-response",368,280405,"0.0-3.119-0.119","3uzecuzd5nk4ypo",995,"65.csv","","99.59999999403954","resources/trios/L1T1A2.jpg","38","restless",0.6,0.8,0.5,0.87267560322307,"false"
"image-keyboard-response",369,280813,"0.0-3.119-1.119","3uzecuzd5nk4ypo",995,"65.csv","","null","resources/maskTrios/BT1B.jpg","null","",NA,NA,NA,NA,""
"image-keyboard-response",370,282030,"0.0-3.119-2.119","3uzecuzd5nk4ypo",995,"65.csv","","null","resources/images/fishbone.png","null","",NA,NA,NA,NA,""
"image-keyboard-response",371,282085,"0.0-3.120-0.120","3uzecuzd5nk4ypo",995,"65.csv","","54.30000001192093","resources/trios/L1T4A1.jpg","38","restless",0.6,0.8,0.5,0.707610288452896,"true"
"image-keyboard-response",372,282496,"0.0-3.120-1.120","3uzecuzd5nk4ypo",995,"65.csv","","null","resources/maskTrios/BT4B.jpg","null","",NA,NA,NA,NA,""
"image-keyboard-response",373,283706,"0.0-3.120-2.120","3uzecuzd5nk4ypo",995,"65.csv","","null","resources/images/coin2.png","null","",NA,NA,NA,NA,""
"image-keyboard-response",374,283837,"0.0-3.121-0.121","3uzecuzd5nk4ypo",995,"65.csv","","130.1000000089407","resources/trios/L1T1A2.jpg","38","restless",0.6,0.8,0.5,0.598181653836004,"true"
"image-keyboard-response",375,284250,"0.0-3.121-1.121","3uzecuzd5nk4ypo",995,"65.csv","","null","resources/maskTrios/BT1B.jpg","null","",NA,NA,NA,NA,""
"image-keyboard-response",376,285464,"0.0-3.121-2.121","3uzecuzd5nk4ypo",995,"65.csv","","null","resources/images/coin2.png","null","",NA,NA,NA,NA,""
"image-keyboard-response",377,285477,"0.0-3.122-0.122","3uzecuzd5nk4ypo",995,"65.csv","","12.399999991059303","resources/trios/L4T4A2.jpg","38","restless",0.6,0.8,0.5,0.398920702992917,"true"
"image-keyboard-response",378,285886,"0.0-3.122-1.122","3uzecuzd5nk4ypo",995,"65.csv","","null","resources/maskTrios/BT4B.jpg","null","",NA,NA,NA,NA,""
"image-keyboard-response",379,287100,"0.0-3.122-2.122","3uzecuzd5nk4ypo",995,"65.csv","","null","resources/images/coin2.png","null","",NA,NA,NA,NA,""
"image-keyboard-response",380,287121,"0.0-3.123-0.123","3uzecuzd5nk4ypo",995,"65.csv","","19.099999994039536","resources/trios/L4T4A1.jpg","38","restless",0.7,0.8,0.5,0.251319713050694,"true"
"image-keyboard-response",381,287537,"0.0-3.123-1.123","3uzecuzd5nk4ypo",995,"65.csv","","null","resources/maskTrios/BT4B.jpg","null","",NA,NA,NA,NA,""
"image-keyboard-response",382,288747,"0.0-3.123-2.123","3uzecuzd5nk4ypo",995,"65.csv","","null","resources/images/coin2.png","null","",NA,NA,NA,NA,""
"image-keyboard-response",383,288877,"0.0-3.124-0.124","3uzecuzd5nk4ypo",995,"65.csv","","128.69999998807907","resources/trios/L4T1A1.jpg","38","restless",0.6,0.8,0.5,0.712563880137951,"true"
"image-keyboard-response",384,289292,"0.0-3.124-1.124","3uzecuzd5nk4ypo",995,"65.csv","","null","resources/maskTrios/BT1B.jpg","null","",NA,NA,NA,NA,""
"image-keyboard-response",385,290507,"0.0-3.124-2.124","3uzecuzd5nk4ypo",995,"65.csv","","null","resources/images/coin2.png","null","",NA,NA,NA,NA,""
"image-keyboard-response",386,290549,"0.0-3.125-0.125","3uzecuzd5nk4ypo",995,"65.csv","","40.79999999701977","resources/trios/L4T4A1.jpg","38","restless",0.6,0.8,0.5,0.678463060187763,"true"
"image-keyboard-response",387,290956,"0.0-3.125-1.125","3uzecuzd5nk4ypo",995,"65.csv","","null","resources/maskTrios/BT4B.jpg","null","",NA,NA,NA,NA,""
"image-keyboard-response",388,292158,"0.0-3.125-2.125","3uzecuzd5nk4ypo",995,"65.csv","","null","resources/images/coin2.png","null","",NA,NA,NA,NA,""
"image-keyboard-response",389,292205,"0.0-3.126-0.126","3uzecuzd5nk4ypo",995,"65.csv","","46.6000000089407","resources/trios/L1T1A2.jpg","38","restless",0.6,0.8,0.4,0.937830573839457,"false"
"image-keyboard-response",390,292626,"0.0-3.126-1.126","3uzecuzd5nk4ypo",995,"65.csv","","null","resources/maskTrios/BT1B.jpg","null","",NA,NA,NA,NA,""
"image-keyboard-response",391,293834,"0.0-3.126-2.126","3uzecuzd5nk4ypo",995,"65.csv","","null","resources/images/fishbone.png","null","",NA,NA,NA,NA,""
"image-keyboard-response",392,293885,"0.0-3.127-0.127","3uzecuzd5nk4ypo",995,"65.csv","","49.6000000089407","resources/trios/L1T1A1.jpg","38","restless",0.7,0.8,0.4,0.548503643604344,"true"
"image-keyboard-response",393,294301,"0.0-3.127-1.127","3uzecuzd5nk4ypo",995,"65.csv","","null","resources/maskTrios/BT1B.jpg","null","",NA,NA,NA,NA,""
"image-keyboard-response",394,295509,"0.0-3.127-2.127","3uzecuzd5nk4ypo",995,"65.csv","","null","resources/images/coin2.png","null","",NA,NA,NA,NA,""
"image-keyboard-response",395,295669,"0.0-3.128-0.128","3uzecuzd5nk4ypo",995,"65.csv","","159.30000001192093","resources/trios/L4T4A1.jpg","38","restless",0.7,0.8,0.4,0.357537196777375,"true"
"image-keyboard-response",396,296076,"0.0-3.128-1.128","3uzecuzd5nk4ypo",995,"65.csv","","null","resources/maskTrios/BT4B.jpg","null","",NA,NA,NA,NA,""
"image-keyboard-response",397,297285,"0.0-3.128-2.128","3uzecuzd5nk4ypo",995,"65.csv","","null","resources/images/coin2.png","null","",NA,NA,NA,NA,""
"image-keyboard-response",398,297421,"0.0-3.129-0.129","3uzecuzd5nk4ypo",995,"65.csv","","134.79999999701977","resources/trios/L4T1A1.jpg","38","restless",0.7,0.8,0.4,0.732774272393449,"true"
"image-keyboard-response",399,297830,"0.0-3.129-1.129","3uzecuzd5nk4ypo",995,"65.csv","","null","resources/maskTrios/BT1B.jpg","null","",NA,NA,NA,NA,""
"image-keyboard-response",400,299038,"0.0-3.129-2.129","3uzecuzd5nk4ypo",995,"65.csv","","null","resources/images/coin2.png","null","",NA,NA,NA,NA,""
"image-keyboard-response",401,299165,"0.0-3.130-0.130","3uzecuzd5nk4ypo",995,"65.csv","","125.79999999701977","resources/trios/L1T4A2.jpg","38","restless",0.7,0.8,0.4,0.353796945099255,"true"
"image-keyboard-response",402,299585,"0.0-3.130-1.130","3uzecuzd5nk4ypo",995,"65.csv","","null","resources/maskTrios/BT4B.jpg","null","",NA,NA,NA,NA,""
"image-keyboard-response",403,300788,"0.0-3.130-2.130","3uzecuzd5nk4ypo",995,"65.csv","","null","resources/images/coin2.png","null","",NA,NA,NA,NA,""
"image-keyboard-response",404,300790,"0.0-3.131-0.131","3uzecuzd5nk4ypo",995,"65.csv","","1.0999999940395355","resources/trios/L1T1A2.jpg","38","restless",0.7,0.7,0.4,0.0156066527725895,"true"
"image-keyboard-response",405,301205,"0.0-3.131-1.131","3uzecuzd5nk4ypo",995,"65.csv","","null","resources/maskTrios/BT1B.jpg","null","",NA,NA,NA,NA,""
"image-keyboard-response",406,302405,"0.0-3.131-2.131","3uzecuzd5nk4ypo",995,"65.csv","","null","resources/images/coin2.png","null","",NA,NA,NA,NA,""
"image-keyboard-response",407,302502,"0.0-3.132-0.132","3uzecuzd5nk4ypo",995,"65.csv","","95.40000000596046","resources/trios/L4T1A1.jpg","38","restless",0.7,0.8,0.4,0.585007116321118,"true"
"image-keyboard-response",408,302917,"0.0-3.132-1.132","3uzecuzd5nk4ypo",995,"65.csv","","null","resources/maskTrios/BT1B.jpg","null","",NA,NA,NA,NA,""
"image-keyboard-response",409,304128,"0.0-3.132-2.132","3uzecuzd5nk4ypo",995,"65.csv","","null","resources/images/coin2.png","null","",NA,NA,NA,NA,""
"image-keyboard-response",410,304222,"0.0-3.133-0.133","3uzecuzd5nk4ypo",995,"65.csv","","92.59999999403954","resources/trios/L4T1A2.jpg","38","restless",0.7,0.8,0.4,0.938855138697873,"false"
"image-keyboard-response",411,304641,"0.0-3.133-1.133","3uzecuzd5nk4ypo",995,"65.csv","","null","resources/maskTrios/BT1B.jpg","null","",NA,NA,NA,NA,""
"image-keyboard-response",412,305854,"0.0-3.133-2.133","3uzecuzd5nk4ypo",995,"65.csv","","null","resources/images/fishbone.png","null","",NA,NA,NA,NA,""
"image-keyboard-response",413,305861,"0.0-3.134-0.134","3uzecuzd5nk4ypo",995,"65.csv","","5.700000002980232","resources/trios/L1T1A1.jpg","39","restless",0.6,0.8,0.4,0.580144644502592,"false"
"image-keyboard-response",414,306276,"0.0-3.134-1.134","3uzecuzd5nk4ypo",995,"65.csv","","null","resources/maskTrios/BBA1.jpg","null","",NA,NA,NA,NA,""
"image-keyboard-response",415,307478,"0.0-3.134-2.134","3uzecuzd5nk4ypo",995,"65.csv","","null","resources/images/fishbone.png","null","",NA,NA,NA,NA,""
"image-keyboard-response",416,307614,"0.0-3.135-0.135","3uzecuzd5nk4ypo",995,"65.csv","","134.79999999701977","resources/trios/L1T1A2.jpg","38","restless",0.7,0.8,0.4,0.314175440438164,"true"
"image-keyboard-response",417,308020,"0.0-3.135-1.135","3uzecuzd5nk4ypo",995,"65.csv","","null","resources/maskTrios/BT1B.jpg","null","",NA,NA,NA,NA,""
"image-keyboard-response",418,309237,"0.0-3.135-2.135","3uzecuzd5nk4ypo",995,"65.csv","","null","resources/images/coin2.png","null","",NA,NA,NA,NA,""
"image-keyboard-response",419,309357,"0.0-3.136-0.136","3uzecuzd5nk4ypo",995,"65.csv","","119.5","resources/trios/L4T1A1.jpg","38","restless",0.6,0.8,0.4,0.377331584760108,"true"
"image-keyboard-response",420,309766,"0.0-3.136-1.136","3uzecuzd5nk4ypo",995,"65.csv","","null","resources/maskTrios/BT1B.jpg","null","",NA,NA,NA,NA,""
"image-keyboard-response",421,310976,"0.0-3.136-2.136","3uzecuzd5nk4ypo",995,"65.csv","","null","resources/images/coin2.png","null","",NA,NA,NA,NA,""
"image-keyboard-response",422,311110,"0.0-3.137-0.137","3uzecuzd5nk4ypo",995,"65.csv","","132.59999999403954","resources/trios/L4T4A2.jpg","38","restless",0.6,0.8,0.5,0.385572618619655,"true"
"image-keyboard-response",423,311520,"0.0-3.137-1.137","3uzecuzd5nk4ypo",995,"65.csv","","null","resources/maskTrios/BT4B.jpg","null","",NA,NA,NA,NA,""
"image-keyboard-response",424,312729,"0.0-3.137-2.137","3uzecuzd5nk4ypo",995,"65.csv","","null","resources/images/coin2.png","null","",NA,NA,NA,NA,""
"image-keyboard-response",425,312894,"0.0-3.138-0.138","3uzecuzd5nk4ypo",995,"65.csv","","164.29999999701977","resources/trios/L1T4A2.jpg","38","restless",0.6,0.8,0.5,0.571996436051325,"true"
"image-keyboard-response",426,313305,"0.0-3.138-1.138","3uzecuzd5nk4ypo",995,"65.csv","","null","resources/maskTrios/BT4B.jpg","null","",NA,NA,NA,NA,""
"image-keyboard-response",427,314520,"0.0-3.138-2.138","3uzecuzd5nk4ypo",995,"65.csv","","null","resources/images/coin2.png","null","",NA,NA,NA,NA,""
"image-keyboard-response",428,314646,"0.0-3.139-0.139","3uzecuzd5nk4ypo",995,"65.csv","","124.8999999910593","resources/trios/L1T4A1.jpg","38","restless",0.6,0.8,0.5,0.724550139042506,"true"
"image-keyboard-response",429,315065,"0.0-3.139-1.139","3uzecuzd5nk4ypo",995,"65.csv","","null","resources/maskTrios/BT4B.jpg","null","",NA,NA,NA,NA,""
"image-keyboard-response",430,316279,"0.0-3.139-2.139","3uzecuzd5nk4ypo",995,"65.csv","","null","resources/images/coin2.png","null","",NA,NA,NA,NA,""
"image-keyboard-response",431,316414,"0.0-3.140-0.140","3uzecuzd5nk4ypo",995,"65.csv","","133.70000000298023","resources/trios/L4T1A1.jpg","38","restless",0.6,0.8,0.5,0.208190975087859,"true"
"image-keyboard-response",432,316822,"0.0-3.140-1.140","3uzecuzd5nk4ypo",995,"65.csv","","null","resources/maskTrios/BT1B.jpg","null","",NA,NA,NA,NA,""
"image-keyboard-response",433,318033,"0.0-3.140-2.140","3uzecuzd5nk4ypo",995,"65.csv","","null","resources/images/coin2.png","null","",NA,NA,NA,NA,""
"image-keyboard-response",434,318158,"0.0-3.141-0.141","3uzecuzd5nk4ypo",995,"65.csv","","125","resources/trios/L4T1A1.jpg","38","restless",0.6,0.8,0.5,0.991360686785485,"false"
"image-keyboard-response",435,318566,"0.0-3.141-1.141","3uzecuzd5nk4ypo",995,"65.csv","","null","resources/maskTrios/BT1B.jpg","null","",NA,NA,NA,NA,""
"image-keyboard-response",436,319774,"0.0-3.141-2.141","3uzecuzd5nk4ypo",995,"65.csv","","null","resources/images/fishbone.png","null","",NA,NA,NA,NA,""
"image-keyboard-response",437,319950,"0.0-3.142-0.142","3uzecuzd5nk4ypo",995,"65.csv","","174.79999999701977","resources/trios/L1T4A1.jpg","38","restless",0.6,0.7,0.5,0.578088558409777,"true"
"image-keyboard-response",438,320357,"0.0-3.142-1.142","3uzecuzd5nk4ypo",995,"65.csv","","null","resources/maskTrios/BT4B.jpg","null","",NA,NA,NA,NA,""
"image-keyboard-response",439,321566,"0.0-3.142-2.142","3uzecuzd5nk4ypo",995,"65.csv","","null","resources/images/coin2.png","null","",NA,NA,NA,NA,""
"image-keyboard-response",440,321718,"0.0-3.143-0.143","3uzecuzd5nk4ypo",995,"65.csv","","151.20000000298023","resources/trios/L1T4A2.jpg","38","restless",0.6,0.7,0.5,0.467566247402962,"true"
"image-keyboard-response",441,322126,"0.0-3.143-1.143","3uzecuzd5nk4ypo",995,"65.csv","","null","resources/maskTrios/BT4B.jpg","null","",NA,NA,NA,NA,""
"image-keyboard-response",442,323347,"0.0-3.143-2.143","3uzecuzd5nk4ypo",995,"65.csv","","null","resources/images/coin2.png","null","",NA,NA,NA,NA,""
"image-keyboard-response",443,323406,"0.0-3.144-0.144","3uzecuzd5nk4ypo",995,"65.csv","","57.900000005960464","resources/trios/L1T1A2.jpg","38","restless",0.6,0.7,0.5,0.0658623259944988,"true"
"image-keyboard-response",444,323813,"0.0-3.144-1.144","3uzecuzd5nk4ypo",995,"65.csv","","null","resources/maskTrios/BT1B.jpg","null","",NA,NA,NA,NA,""
"image-keyboard-response",445,325030,"0.0-3.144-2.144","3uzecuzd5nk4ypo",995,"65.csv","","null","resources/images/coin2.png","null","",NA,NA,NA,NA,""
"image-keyboard-response",446,325166,"0.0-3.145-0.145","3uzecuzd5nk4ypo",995,"65.csv","","135.5","resources/trios/L4T4A1.jpg","38","restless",0.6,0.7,0.5,0.964081799153987,"false"
"image-keyboard-response",447,325573,"0.0-3.145-1.145","3uzecuzd5nk4ypo",995,"65.csv","","null","resources/maskTrios/BT4B.jpg","null","",NA,NA,NA,NA,""
"image-keyboard-response",448,326789,"0.0-3.145-2.145","3uzecuzd5nk4ypo",995,"65.csv","","null","resources/images/fishbone.png","null","",NA,NA,NA,NA,""
"image-keyboard-response",449,326910,"0.0-3.146-0.146","3uzecuzd5nk4ypo",995,"65.csv","","119.79999999701977","resources/trios/L4T4A1.jpg","38","restless",0.6,0.7,0.5,0.336555614772549,"true"
"image-keyboard-response",450,327316,"0.0-3.146-1.146","3uzecuzd5nk4ypo",995,"65.csv","","null","resources/maskTrios/BT4B.jpg","null","",NA,NA,NA,NA,""
"image-keyboard-response",451,328530,"0.0-3.146-2.146","3uzecuzd5nk4ypo",995,"65.csv","","null","resources/images/coin2.png","null","",NA,NA,NA,NA,""
"image-keyboard-response",452,328598,"0.0-3.147-0.147","3uzecuzd5nk4ypo",995,"65.csv","","67.79999999701977","resources/trios/L1T1A2.jpg","38","restless",0.5,0.7,0.5,0.741771061156462,"false"
"image-keyboard-response",453,329009,"0.0-3.147-1.147","3uzecuzd5nk4ypo",995,"65.csv","","null","resources/maskTrios/BT1B.jpg","null","",NA,NA,NA,NA,""
"image-keyboard-response",454,330225,"0.0-3.147-2.147","3uzecuzd5nk4ypo",995,"65.csv","","null","resources/images/fishbone.png","null","",NA,NA,NA,NA,""
"image-keyboard-response",455,330262,"0.0-3.148-0.148","3uzecuzd5nk4ypo",995,"65.csv","","35.79999999701977","resources/trios/L1T1A1.jpg","38","restless",0.4,0.7,0.5,0.224472823161857,"true"
"image-keyboard-response",456,330674,"0.0-3.148-1.148","3uzecuzd5nk4ypo",995,"65.csv","","null","resources/maskTrios/BT1B.jpg","null","",NA,NA,NA,NA,""
"image-keyboard-response",457,331895,"0.0-3.148-2.148","3uzecuzd5nk4ypo",995,"65.csv","","null","resources/images/coin2.png","null","",NA,NA,NA,NA,""
"image-keyboard-response",458,331966,"0.0-3.149-0.149","3uzecuzd5nk4ypo",995,"65.csv","","70.59999999403954","resources/trios/L1T1A2.jpg","38","restless",0.4,0.7,0.5,0.504194842601958,"true"
"image-keyboard-response",459,332378,"0.0-3.149-1.149","3uzecuzd5nk4ypo",995,"65.csv","","null","resources/maskTrios/BT1B.jpg","null","",NA,NA,NA,NA,""
"image-keyboard-response",460,333589,"0.0-3.149-2.149","3uzecuzd5nk4ypo",995,"65.csv","","null","resources/images/coin2.png","null","",NA,NA,NA,NA,""
"image-keyboard-response",461,333743,"0.0-3.150-0.150","3uzecuzd5nk4ypo",995,"65.csv","","152.5","resources/trios/L4T4A2.jpg","38","restless",0.4,0.6,0.5,0.207397127490113,"true"
"image-keyboard-response",462,334148,"0.0-3.150-1.150","3uzecuzd5nk4ypo",995,"65.csv","","null","resources/maskTrios/BT4B.jpg","null","",NA,NA,NA,NA,""
"image-keyboard-response",463,335366,"0.0-3.150-2.150","3uzecuzd5nk4ypo",995,"65.csv","","null","resources/images/coin2.png","null","",NA,NA,NA,NA,""
"image-keyboard-response",464,335439,"0.0-3.151-0.151","3uzecuzd5nk4ypo",995,"65.csv","","72.3999999910593","resources/trios/L1T4A2.jpg","38","restless",0.4,0.6,0.5,0.918100815183129,"false"
"image-keyboard-response",465,335846,"0.0-3.151-1.151","3uzecuzd5nk4ypo",995,"65.csv","","null","resources/maskTrios/BT4B.jpg","null","",NA,NA,NA,NA,""
"image-keyboard-response",466,337061,"0.0-3.151-2.151","3uzecuzd5nk4ypo",995,"65.csv","","null","resources/images/fishbone.png","null","",NA,NA,NA,NA,""
"image-keyboard-response",467,337206,"0.0-3.152-0.152","3uzecuzd5nk4ypo",995,"65.csv","","144.40000000596046","resources/trios/L1T1A1.jpg","38","restless",0.4,0.6,0.5,0.0548060551565548,"true"
"image-keyboard-response",468,337620,"0.0-3.152-1.152","3uzecuzd5nk4ypo",995,"65.csv","","null","resources/maskTrios/BT1B.jpg","null","",NA,NA,NA,NA,""
"image-keyboard-response",469,338831,"0.0-3.152-2.152","3uzecuzd5nk4ypo",995,"65.csv","","null","resources/images/coin2.png","null","",NA,NA,NA,NA,""
"image-keyboard-response",470,338854,"0.0-3.153-0.153","3uzecuzd5nk4ypo",995,"65.csv","","23.100000008940697","resources/trios/L4T1A2.jpg","38","restless",0.4,0.6,0.5,0.0412021611316862,"true"
"image-keyboard-response",471,339267,"0.0-3.153-1.153","3uzecuzd5nk4ypo",995,"65.csv","","null","resources/maskTrios/BT1B.jpg","null","",NA,NA,NA,NA,""
"image-keyboard-response",472,340481,"0.0-3.153-2.153","3uzecuzd5nk4ypo",995,"65.csv","","null","resources/images/coin2.png","null","",NA,NA,NA,NA,""
"image-keyboard-response",473,340558,"0.0-3.154-0.154","3uzecuzd5nk4ypo",995,"65.csv","","75.40000000596046","resources/trios/L4T1A1.jpg","38","restless",0.4,0.6,0.5,0.471859284834249,"true"
"image-keyboard-response",474,340961,"0.0-3.154-1.154","3uzecuzd5nk4ypo",995,"65.csv","","null","resources/maskTrios/BT1B.jpg","null","",NA,NA,NA,NA,""
"image-keyboard-response",475,342166,"0.0-3.154-2.154","3uzecuzd5nk4ypo",995,"65.csv","","null","resources/images/coin2.png","null","",NA,NA,NA,NA,""
"image-keyboard-response",476,342343,"0.0-3.155-0.155","3uzecuzd5nk4ypo",995,"65.csv","","175.79999999701977","resources/trios/L1T4A1.jpg","38","restless",0.4,0.6,0.5,0.734846347022501,"false"
"image-keyboard-response",477,342760,"0.0-3.155-1.155","3uzecuzd5nk4ypo",995,"65.csv","","null","resources/maskTrios/BT4B.jpg","null","",NA,NA,NA,NA,""
"image-keyboard-response",478,343972,"0.0-3.155-2.155","3uzecuzd5nk4ypo",995,"65.csv","","null","resources/images/fishbone.png","null","",NA,NA,NA,NA,""
"image-keyboard-response",479,344047,"0.0-3.156-0.156","3uzecuzd5nk4ypo",995,"65.csv","","74.20000000298023","resources/trios/L1T4A1.jpg","38","restless",0.4,0.6,0.5,0.0556007151101721,"true"
"image-keyboard-response",480,344455,"0.0-3.156-1.156","3uzecuzd5nk4ypo",995,"65.csv","","null","resources/maskTrios/BT4B.jpg","null","",NA,NA,NA,NA,""
"image-keyboard-response",481,345671,"0.0-3.156-2.156","3uzecuzd5nk4ypo",995,"65.csv","","null","resources/images/coin2.png","null","",NA,NA,NA,NA,""
"image-keyboard-response",482,345727,"0.0-3.157-0.157","3uzecuzd5nk4ypo",995,"65.csv","","54.70000000298023","resources/trios/L1T1A1.jpg","38","restless",0.4,0.6,0.5,0.237501174271539,"true"
"image-keyboard-response",483,346135,"0.0-3.157-1.157","3uzecuzd5nk4ypo",995,"65.csv","","null","resources/maskTrios/BT1B.jpg","null","",NA,NA,NA,NA,""
"image-keyboard-response",484,347344,"0.0-3.157-2.157","3uzecuzd5nk4ypo",995,"65.csv","","null","resources/images/coin2.png","null","",NA,NA,NA,NA,""
"image-keyboard-response",485,347471,"0.0-3.158-0.158","3uzecuzd5nk4ypo",995,"65.csv","","126","resources/trios/L4T1A1.jpg","38","restless",0.4,0.6,0.5,0.99446143960187,"false"
"image-keyboard-response",486,347876,"0.0-3.158-1.158","3uzecuzd5nk4ypo",995,"65.csv","","null","resources/maskTrios/BT1B.jpg","null","",NA,NA,NA,NA,""
"image-keyboard-response",487,349079,"0.0-3.158-2.158","3uzecuzd5nk4ypo",995,"65.csv","","null","resources/images/fishbone.png","null","",NA,NA,NA,NA,""
"image-keyboard-response",488,349295,"0.0-3.159-0.159","3uzecuzd5nk4ypo",995,"65.csv","","215.29999999701977","resources/trios/L1T1A1.jpg","38","restless",0.4,0.5,0.5,0.0510086431269947,"true"
"image-keyboard-response",489,349709,"0.0-3.159-1.159","3uzecuzd5nk4ypo",995,"65.csv","","null","resources/maskTrios/BT1B.jpg","null","",NA,NA,NA,NA,""
"image-keyboard-response",490,350919,"0.0-3.159-2.159","3uzecuzd5nk4ypo",995,"65.csv","","null","resources/images/coin2.png","null","",NA,NA,NA,NA,""
"image-keyboard-response",491,351111,"0.0-3.160-0.160","3uzecuzd5nk4ypo",995,"65.csv","","191.29999999701977","resources/trios/L4T4A1.jpg","38","restless",0.4,0.5,0.5,0.370638240256569,"true"
"image-keyboard-response",492,351519,"0.0-3.160-1.160","3uzecuzd5nk4ypo",995,"65.csv","","null","resources/maskTrios/BT4B.jpg","null","",NA,NA,NA,NA,""
"image-keyboard-response",493,352737,"0.0-3.160-2.160","3uzecuzd5nk4ypo",995,"65.csv","","null","resources/images/coin2.png","null","",NA,NA,NA,NA,""
"image-keyboard-response",494,352799,"0.0-3.161-0.161","3uzecuzd5nk4ypo",995,"65.csv","","61.1000000089407","resources/trios/L1T1A1.jpg","38","restless",0.4,0.4,0.5,0.0584784972115926,"true"
"image-keyboard-response",495,353205,"0.0-3.161-1.161","3uzecuzd5nk4ypo",995,"65.csv","","null","resources/maskTrios/BT1B.jpg","null","",NA,NA,NA,NA,""
"image-keyboard-response",496,354419,"0.0-3.161-2.161","3uzecuzd5nk4ypo",995,"65.csv","","null","resources/images/coin2.png","null","",NA,NA,NA,NA,""
"image-keyboard-response",497,354494,"0.0-3.162-0.162","3uzecuzd5nk4ypo",995,"65.csv","","73.70000000298023","resources/trios/L1T4A2.jpg","38","restless",0.3,0.4,0.5,0.213317540886414,"true"
"image-keyboard-response",498,354900,"0.0-3.162-1.162","3uzecuzd5nk4ypo",995,"65.csv","","null","resources/maskTrios/BT4B.jpg","null","",NA,NA,NA,NA,""
"image-keyboard-response",499,356111,"0.0-3.162-2.162","3uzecuzd5nk4ypo",995,"65.csv","","null","resources/images/coin2.png","null","",NA,NA,NA,NA,""
"image-keyboard-response",500,356295,"0.0-3.163-0.163","3uzecuzd5nk4ypo",995,"65.csv","","183","resources/trios/L1T1A1.jpg","38","restless",0.3,0.4,0.5,0.349729184768256,"true"
"image-keyboard-response",501,356705,"0.0-3.163-1.163","3uzecuzd5nk4ypo",995,"65.csv","","null","resources/maskTrios/BT1B.jpg","null","",NA,NA,NA,NA,""
"image-keyboard-response",502,357919,"0.0-3.163-2.163","3uzecuzd5nk4ypo",995,"65.csv","","null","resources/images/coin2.png","null","",NA,NA,NA,NA,""
"image-keyboard-response",503,358015,"0.0-3.164-0.164","3uzecuzd5nk4ypo",995,"65.csv","","94.40000000596046","resources/trios/L4T4A2.jpg","38","restless",0.3,0.4,0.6,0.954738046505372,"false"
"image-keyboard-response",504,358433,"0.0-3.164-1.164","3uzecuzd5nk4ypo",995,"65.csv","","null","resources/maskTrios/BT4B.jpg","null","",NA,NA,NA,NA,""
"image-keyboard-response",505,359645,"0.0-3.164-2.164","3uzecuzd5nk4ypo",995,"65.csv","","null","resources/images/fishbone.png","null","",NA,NA,NA,NA,""
"image-keyboard-response",506,359744,"0.0-3.165-0.165","3uzecuzd5nk4ypo",995,"65.csv","","97.09999999403954","resources/trios/L4T1A2.jpg","38","restless",0.3,0.4,0.6,0.612491449681431,"false"
"image-keyboard-response",507,360159,"0.0-3.165-1.165","3uzecuzd5nk4ypo",995,"65.csv","","null","resources/maskTrios/BT1B.jpg","null","",NA,NA,NA,NA,""
"image-keyboard-response",508,361367,"0.0-3.165-2.165","3uzecuzd5nk4ypo",995,"65.csv","","null","resources/images/fishbone.png","null","",NA,NA,NA,NA,""
"image-keyboard-response",509,361439,"0.0-3.166-0.166","3uzecuzd5nk4ypo",995,"65.csv","","71.40000000596046","resources/trios/L1T1A2.jpg","39","restless",0.3,0.4,0.6,0.191386336996944,"true"
"image-keyboard-response",510,361847,"0.0-3.166-1.166","3uzecuzd5nk4ypo",995,"65.csv","","null","resources/maskTrios/BBA2.jpg","null","",NA,NA,NA,NA,""
"image-keyboard-response",511,363066,"0.0-3.166-2.166","3uzecuzd5nk4ypo",995,"65.csv","","null","resources/images/coin2.png","null","",NA,NA,NA,NA,""
"image-keyboard-response",512,363303,"0.0-3.167-0.167","3uzecuzd5nk4ypo",995,"65.csv","","237","resources/trios/L4T1A1.jpg","39","restless",0.3,0.4,0.6,0.317148156021338,"true"
"image-keyboard-response",513,363722,"0.0-3.167-1.167","3uzecuzd5nk4ypo",995,"65.csv","","null","resources/maskTrios/BBA1.jpg","null","",NA,NA,NA,NA,""
"image-keyboard-response",514,364933,"0.0-3.167-2.167","3uzecuzd5nk4ypo",995,"65.csv","","null","resources/images/coin2.png","null","",NA,NA,NA,NA,""
"image-keyboard-response",515,365047,"0.0-3.168-0.168","3uzecuzd5nk4ypo",995,"65.csv","","114.09999999403954","resources/trios/L1T1A1.jpg","39","restless",0.3,0.4,0.6,0.110381273788111,"true"
"image-keyboard-response",516,365465,"0.0-3.168-1.168","3uzecuzd5nk4ypo",995,"65.csv","","null","resources/maskTrios/BBA1.jpg","null","",NA,NA,NA,NA,""
"image-keyboard-response",517,366671,"0.0-3.168-2.168","3uzecuzd5nk4ypo",995,"65.csv","","null","resources/images/coin2.png","null","",NA,NA,NA,NA,""
"image-keyboard-response",518,366767,"0.0-3.169-0.169","3uzecuzd5nk4ypo",995,"65.csv","","95.40000000596046","resources/trios/L4T1A1.jpg","39","restless",0.3,0.4,0.5,0.080662483316311,"true"
"image-keyboard-response",519,367186,"0.0-3.169-1.169","3uzecuzd5nk4ypo",995,"65.csv","","null","resources/maskTrios/BBA1.jpg","null","",NA,NA,NA,NA,""
"image-keyboard-response",520,368402,"0.0-3.169-2.169","3uzecuzd5nk4ypo",995,"65.csv","","null","resources/images/coin2.png","null","",NA,NA,NA,NA,""
"image-keyboard-response",521,368511,"0.0-3.170-0.170","3uzecuzd5nk4ypo",995,"65.csv","","105.70000000298023","resources/trios/L1T1A1.jpg","39","restless",0.3,0.3,0.5,0.867030110487043,"false"
"image-keyboard-response",522,368919,"0.0-3.170-1.170","3uzecuzd5nk4ypo",995,"65.csv","","null","resources/maskTrios/BBA1.jpg","null","",NA,NA,NA,NA,""
"image-keyboard-response",523,370129,"0.0-3.170-2.170","3uzecuzd5nk4ypo",995,"65.csv","","null","resources/images/fishbone.png","null","",NA,NA,NA,NA,""
"image-keyboard-response",524,370247,"0.0-3.171-0.171","3uzecuzd5nk4ypo",995,"65.csv","","117.5","resources/trios/L1T1A2.jpg","37","restless",0.3,0.3,0.5,0.985230614986747,"false"
"image-keyboard-response",525,370656,"0.0-3.171-1.171","3uzecuzd5nk4ypo",995,"65.csv","","null","resources/maskTrios/L1BB.jpg","null","",NA,NA,NA,NA,""
"image-keyboard-response",526,371870,"0.0-3.171-2.171","3uzecuzd5nk4ypo",995,"65.csv","","null","resources/images/fishbone.png","null","",NA,NA,NA,NA,""
"image-keyboard-response",527,371935,"0.0-3.172-0.172","3uzecuzd5nk4ypo",995,"65.csv","","65.29999999701977","resources/trios/L1T1A2.jpg","37","restless",0.3,0.3,0.5,0.271691439394016,"true"
"image-keyboard-response",528,372339,"0.0-3.172-1.172","3uzecuzd5nk4ypo",995,"65.csv","","null","resources/maskTrios/L1BB.jpg","null","",NA,NA,NA,NA,""
"image-keyboard-response",529,373556,"0.0-3.172-2.172","3uzecuzd5nk4ypo",995,"65.csv","","null","resources/images/coin2.png","null","",NA,NA,NA,NA,""
"image-keyboard-response",530,373735,"0.0-3.173-0.173","3uzecuzd5nk4ypo",995,"65.csv","","178.90000000596046","resources/trios/L4T1A2.jpg","37","restless",0.3,0.3,0.5,0.477062332416071,"false"
"image-keyboard-response",531,374151,"0.0-3.173-1.173","3uzecuzd5nk4ypo",995,"65.csv","","null","resources/maskTrios/L4BB.jpg","null","",NA,NA,NA,NA,""
"image-keyboard-response",532,375368,"0.0-3.173-2.173","3uzecuzd5nk4ypo",995,"65.csv","","null","resources/images/fishbone.png","null","",NA,NA,NA,NA,""
"image-keyboard-response",533,375424,"0.0-3.174-0.174","3uzecuzd5nk4ypo",995,"65.csv","","54.5","resources/trios/L4T4A2.jpg","38","restless",0.3,0.3,0.5,0.465640846076598,"false"
"image-keyboard-response",534,375836,"0.0-3.174-1.174","3uzecuzd5nk4ypo",995,"65.csv","","null","resources/maskTrios/BT4B.jpg","null","",NA,NA,NA,NA,""
"image-keyboard-response",535,377045,"0.0-3.174-2.174","3uzecuzd5nk4ypo",995,"65.csv","","null","resources/images/fishbone.png","null","",NA,NA,NA,NA,""
"image-keyboard-response",536,377064,"0.0-3.175-0.175","3uzecuzd5nk4ypo",995,"65.csv","","17.400000005960464","resources/trios/L4T1A2.jpg","39","restless",0.3,0.3,0.5,0.395393345933712,"true"
"image-keyboard-response",537,377480,"0.0-3.175-1.175","3uzecuzd5nk4ypo",995,"65.csv","","null","resources/maskTrios/BBA2.jpg","null","",NA,NA,NA,NA,""
"image-keyboard-response",538,378689,"0.0-3.175-2.175","3uzecuzd5nk4ypo",995,"65.csv","","null","resources/images/coin2.png","null","",NA,NA,NA,NA,""
"image-keyboard-response",539,378752,"0.0-3.176-0.176","3uzecuzd5nk4ypo",995,"65.csv","","61.5","resources/trios/L4T4A2.jpg","39","restless",0.3,0.3,0.5,0.0442911300513165,"true"
"image-keyboard-response",540,379162,"0.0-3.176-1.176","3uzecuzd5nk4ypo",995,"65.csv","","null","resources/maskTrios/BBA2.jpg","null","",NA,NA,NA,NA,""
"image-keyboard-response",541,380376,"0.0-3.176-2.176","3uzecuzd5nk4ypo",995,"65.csv","","null","resources/images/coin2.png","null","",NA,NA,NA,NA,""
"image-keyboard-response",542,380504,"0.0-3.177-0.177","3uzecuzd5nk4ypo",995,"65.csv","","126.80000001192093","resources/trios/L1T1A2.jpg","39","restless",0.3,0.3,0.5,0.0755173278670902,"true"
"image-keyboard-response",543,380921,"0.0-3.177-1.177","3uzecuzd5nk4ypo",995,"65.csv","","null","resources/maskTrios/BBA2.jpg","null","",NA,NA,NA,NA,""
"image-keyboard-response",544,382128,"0.0-3.177-2.177","3uzecuzd5nk4ypo",995,"65.csv","","null","resources/images/coin2.png","null","",NA,NA,NA,NA,""
"image-keyboard-response",545,382224,"0.0-3.178-0.178","3uzecuzd5nk4ypo",995,"65.csv","","95.3999999910593","resources/trios/L1T4A1.jpg","39","restless",0.3,0.3,0.5,0.964253999840197,"false"
"image-keyboard-response",546,382630,"0.0-3.178-1.178","3uzecuzd5nk4ypo",995,"65.csv","","null","resources/maskTrios/BBA1.jpg","null","",NA,NA,NA,NA,""
"image-keyboard-response",547,383845,"0.0-3.178-2.178","3uzecuzd5nk4ypo",995,"65.csv","","null","resources/images/fishbone.png","null","",NA,NA,NA,NA,""
"image-keyboard-response",548,383977,"0.0-3.179-0.179","3uzecuzd5nk4ypo",995,"65.csv","","130.29999999701977","resources/trios/L4T1A2.jpg","38","restless",0.3,0.3,0.5,0.557681051998518,"false"
"image-keyboard-response",549,384389,"0.0-3.179-1.179","3uzecuzd5nk4ypo",995,"65.csv","","null","resources/maskTrios/BT1B.jpg","null","",NA,NA,NA,NA,""
"image-keyboard-response",550,385605,"0.0-3.179-2.179","3uzecuzd5nk4ypo",995,"65.csv","","null","resources/images/fishbone.png","null","",NA,NA,NA,NA,""
"image-keyboard-response",551,385632,"0.0-3.180-0.180","3uzecuzd5nk4ypo",995,"65.csv","","25.299999997019768","resources/trios/L1T4A1.jpg","39","restless",0.3,0.3,0.5,0.732745764505141,"false"
"image-keyboard-response",552,386043,"0.0-3.180-1.180","3uzecuzd5nk4ypo",995,"65.csv","","null","resources/maskTrios/BBA1.jpg","null","",NA,NA,NA,NA,""
"image-keyboard-response",553,387255,"0.0-3.180-2.180","3uzecuzd5nk4ypo",995,"65.csv","","null","resources/images/fishbone.png","null","",NA,NA,NA,NA,""
"image-keyboard-response",554,387352,"0.0-3.181-0.181","3uzecuzd5nk4ypo",995,"65.csv","","96.09999999403954","resources/trios/L4T4A2.jpg","38","restless",0.3,0.3,0.5,0.632790273089328,"false"
"image-keyboard-response",555,387769,"0.0-3.181-1.181","3uzecuzd5nk4ypo",995,"65.csv","","null","resources/maskTrios/BT4B.jpg","null","",NA,NA,NA,NA,""
"image-keyboard-response",556,388982,"0.0-3.181-2.181","3uzecuzd5nk4ypo",995,"65.csv","","null","resources/images/fishbone.png","null","",NA,NA,NA,NA,""
"image-keyboard-response",557,389136,"0.0-3.182-0.182","3uzecuzd5nk4ypo",995,"65.csv","","152.19999998807907","resources/trios/L1T1A2.jpg","38","restless",0.4,0.3,0.5,0.546290923480813,"false"
"image-keyboard-response",558,389544,"0.0-3.182-1.182","3uzecuzd5nk4ypo",995,"65.csv","","null","resources/maskTrios/BT1B.jpg","null","",NA,NA,NA,NA,""
"image-keyboard-response",559,390754,"0.0-3.182-2.182","3uzecuzd5nk4ypo",995,"65.csv","","null","resources/images/fishbone.png","null","",NA,NA,NA,NA,""
"image-keyboard-response",560,390849,"0.0-3.183-0.183","3uzecuzd5nk4ypo",995,"65.csv","","93.5","resources/trios/L1T4A2.jpg","37","restless",0.3,0.3,0.5,0.0392370848835406,"true"
"image-keyboard-response",561,391253,"0.0-3.183-1.183","3uzecuzd5nk4ypo",995,"65.csv","","null","resources/maskTrios/L1BB.jpg","null","",NA,NA,NA,NA,""
"image-keyboard-response",562,392466,"0.0-3.183-2.183","3uzecuzd5nk4ypo",995,"65.csv","","null","resources/images/coin2.png","null","",NA,NA,NA,NA,""
"image-keyboard-response",563,392488,"0.0-3.184-0.184","3uzecuzd5nk4ypo",995,"65.csv","","21.599999994039536","resources/trios/L4T4A2.jpg","37","restless",0.3,0.3,0.5,0.800433794290644,"false"
"image-keyboard-response",564,392902,"0.0-3.184-1.184","3uzecuzd5nk4ypo",995,"65.csv","","null","resources/maskTrios/L4BB.jpg","null","",NA,NA,NA,NA,""
"image-keyboard-response",565,394122,"0.0-3.184-2.184","3uzecuzd5nk4ypo",995,"65.csv","","null","resources/images/fishbone.png","null","",NA,NA,NA,NA,""
"image-keyboard-response",566,394168,"0.0-3.185-0.185","3uzecuzd5nk4ypo",995,"65.csv","","45.20000000298023","resources/trios/L4T1A2.jpg","38","restless",0.3,0.3,0.5,0.376149229492672,"false"
"image-keyboard-response",567,394576,"0.0-3.185-1.185","3uzecuzd5nk4ypo",995,"65.csv","","null","resources/maskTrios/BT1B.jpg","null","",NA,NA,NA,NA,""
"image-keyboard-response",568,395786,"0.0-3.185-2.185","3uzecuzd5nk4ypo",995,"65.csv","","null","resources/images/fishbone.png","null","",NA,NA,NA,NA,""
"image-keyboard-response",569,395816,"0.0-3.186-0.186","3uzecuzd5nk4ypo",995,"65.csv","","29.299999997019768","resources/trios/L4T4A2.jpg","38","restless",0.3,0.3,0.5,0.111794825837913,"true"
"image-keyboard-response",570,396221,"0.0-3.186-1.186","3uzecuzd5nk4ypo",995,"65.csv","","null","resources/maskTrios/BT4B.jpg","null","",NA,NA,NA,NA,""
"image-keyboard-response",571,397424,"0.0-3.186-2.186","3uzecuzd5nk4ypo",995,"65.csv","","null","resources/images/coin2.png","null","",NA,NA,NA,NA,""
"image-keyboard-response",572,397609,"0.0-3.187-0.187","3uzecuzd5nk4ypo",995,"65.csv","","183.5","resources/trios/L4T4A2.jpg","38","restless",0.4,0.3,0.5,0.888689205326163,"false"
"image-keyboard-response",573,398022,"0.0-3.187-1.187","3uzecuzd5nk4ypo",995,"65.csv","","null","resources/maskTrios/BT4B.jpg","null","",NA,NA,NA,NA,""
"image-keyboard-response",574,399224,"0.0-3.187-2.187","3uzecuzd5nk4ypo",995,"65.csv","","null","resources/images/fishbone.png","null","",NA,NA,NA,NA,""
"image-keyboard-response",575,399296,"0.0-3.188-0.188","3uzecuzd5nk4ypo",995,"65.csv","","71.40000000596046","resources/trios/L4T1A1.jpg","39","restless",0.4,0.3,0.5,0.0037680960447084,"true"
"image-keyboard-response",576,399703,"0.0-3.188-1.188","3uzecuzd5nk4ypo",995,"65.csv","","null","resources/maskTrios/BBA1.jpg","null","",NA,NA,NA,NA,""
"image-keyboard-response",577,400917,"0.0-3.188-2.188","3uzecuzd5nk4ypo",995,"65.csv","","null","resources/images/coin2.png","null","",NA,NA,NA,NA,""
"image-keyboard-response",578,400921,"0.0-3.189-0.189","3uzecuzd5nk4ypo",995,"65.csv","","3","resources/trios/L1T1A1.jpg","39","restless",0.4,0.3,0.5,0.208030254409406,"true"
"image-keyboard-response",579,401337,"0.0-3.189-1.189","3uzecuzd5nk4ypo",995,"65.csv","","null","resources/maskTrios/BBA1.jpg","null","",NA,NA,NA,NA,""
"image-keyboard-response",580,402552,"0.0-3.189-2.189","3uzecuzd5nk4ypo",995,"65.csv","","null","resources/images/coin2.png","null","",NA,NA,NA,NA,""
"image-keyboard-response",581,402618,"0.0-3.190-0.190","3uzecuzd5nk4ypo",995,"65.csv","","64.90000000596046","resources/trios/L1T4A1.jpg","39","restless",0.4,0.3,0.5,0.442466428291183,"true"
"image-keyboard-response",582,403033,"0.0-3.190-1.190","3uzecuzd5nk4ypo",995,"65.csv","","null","resources/maskTrios/BBA1.jpg","null","",NA,NA,NA,NA,""
"image-keyboard-response",583,404248,"0.0-3.190-2.190","3uzecuzd5nk4ypo",995,"65.csv","","null","resources/images/coin2.png","null","",NA,NA,NA,NA,""
"image-keyboard-response",584,404409,"0.0-3.191-0.191","3uzecuzd5nk4ypo",995,"65.csv","","159","resources/trios/L1T4A1.jpg","39","restless",0.4,0.3,0.5,0.890592654834216,"false"
"image-keyboard-response",585,404810,"0.0-3.191-1.191","3uzecuzd5nk4ypo",995,"65.csv","","null","resources/maskTrios/BBA1.jpg","null","",NA,NA,NA,NA,""
"image-keyboard-response",586,406024,"0.0-3.191-2.191","3uzecuzd5nk4ypo",995,"65.csv","","null","resources/images/fishbone.png","null","",NA,NA,NA,NA,""
"image-keyboard-response",587,406177,"0.0-3.192-0.192","3uzecuzd5nk4ypo",995,"65.csv","","151.6000000089407","resources/trios/L1T4A2.jpg","37","restless",0.4,0.3,0.5,0.166231009471768,"true"
"image-keyboard-response",588,406582,"0.0-3.192-1.192","3uzecuzd5nk4ypo",995,"65.csv","","null","resources/maskTrios/L1BB.jpg","null","",NA,NA,NA,NA,""
"image-keyboard-response",589,407797,"0.0-3.192-2.192","3uzecuzd5nk4ypo",995,"65.csv","","null","resources/images/coin2.png","null","",NA,NA,NA,NA,""
"image-keyboard-response",590,408136,"0.0-3.193-0.193","3uzecuzd5nk4ypo",995,"65.csv","","338.3999999910593","resources/trios/L4T1A2.jpg","37","restless",0.4,0.3,0.5,0.0403793912808483,"true"
"image-keyboard-response",591,408543,"0.0-3.193-1.193","3uzecuzd5nk4ypo",995,"65.csv","","null","resources/maskTrios/L4BB.jpg","null","",NA,NA,NA,NA,""
"image-keyboard-response",592,409758,"0.0-3.193-2.193","3uzecuzd5nk4ypo",995,"65.csv","","null","resources/images/coin2.png","null","",NA,NA,NA,NA,""
"image-keyboard-response",593,409912,"0.0-3.194-0.194","3uzecuzd5nk4ypo",995,"65.csv","","153.3999999910593","resources/trios/L1T1A2.jpg","38","restless",0.5,0.3,0.5,0.923600040840283,"false"
"image-keyboard-response",594,410317,"0.0-3.194-1.194","3uzecuzd5nk4ypo",995,"65.csv","","null","resources/maskTrios/BT1B.jpg","null","",NA,NA,NA,NA,""
"image-keyboard-response",595,411532,"0.0-3.194-2.194","3uzecuzd5nk4ypo",995,"65.csv","","null","resources/images/fishbone.png","null","",NA,NA,NA,NA,""
"image-keyboard-response",596,411865,"0.0-3.195-0.195","3uzecuzd5nk4ypo",995,"65.csv","","331.59999999403954","resources/trios/L4T1A1.jpg","37","restless",0.5,0.3,0.5,0.87905943221357,"false"
"image-keyboard-response",597,412276,"0.0-3.195-1.195","3uzecuzd5nk4ypo",995,"65.csv","","null","resources/maskTrios/L4BB.jpg","null","",NA,NA,NA,NA,""
"image-keyboard-response",598,413498,"0.0-3.195-2.195","3uzecuzd5nk4ypo",995,"65.csv","","null","resources/images/fishbone.png","null","",NA,NA,NA,NA,""
"image-keyboard-response",599,413529,"0.0-3.196-0.196","3uzecuzd5nk4ypo",995,"65.csv","","29.899999991059303","resources/trios/L4T4A2.jpg","39","restless",0.5,0.3,0.5,0.652762634969283,"false"
"image-keyboard-response",600,413934,"0.0-3.196-1.196","3uzecuzd5nk4ypo",995,"65.csv","","null","resources/maskTrios/BBA2.jpg","null","",NA,NA,NA,NA,""
"image-keyboard-response",601,415150,"0.0-3.196-2.196","3uzecuzd5nk4ypo",995,"65.csv","","null","resources/images/fishbone.png","null","",NA,NA,NA,NA,""
"image-keyboard-response",602,415505,"0.0-3.197-0.197","3uzecuzd5nk4ypo",995,"65.csv","","353.79999999701977","resources/trios/L4T4A1.jpg","38","restless",0.5,0.3,0.5,0.00762868825425733,"true"
"image-keyboard-response",603,415914,"0.0-3.197-1.197","3uzecuzd5nk4ypo",995,"65.csv","","null","resources/maskTrios/BT4B.jpg","null","",NA,NA,NA,NA,""
"image-keyboard-response",604,417124,"0.0-3.197-2.197","3uzecuzd5nk4ypo",995,"65.csv","","null","resources/images/coin2.png","null","",NA,NA,NA,NA,""
"image-keyboard-response",605,417258,"0.0-3.198-0.198","3uzecuzd5nk4ypo",995,"65.csv","","132.5","resources/trios/L4T1A2.jpg","38","restless",0.6,0.3,0.6,0.862049948339585,"false"
"image-keyboard-response",606,417666,"0.0-3.198-1.198","3uzecuzd5nk4ypo",995,"65.csv","","null","resources/maskTrios/BT1B.jpg","null","",NA,NA,NA,NA,""
"image-keyboard-response",607,418882,"0.0-3.198-2.198","3uzecuzd5nk4ypo",995,"65.csv","","null","resources/images/fishbone.png","null","",NA,NA,NA,NA,""
"image-keyboard-response",608,418993,"0.0-3.199-0.199","3uzecuzd5nk4ypo",995,"65.csv","","109.1000000089407","resources/trios/L4T1A2.jpg","38","restless",0.6,0.3,0.5,0.432380135434991,"false"
"image-keyboard-response",609,419411,"0.0-3.199-1.199","3uzecuzd5nk4ypo",995,"65.csv","","null","resources/maskTrios/BT1B.jpg","null","",NA,NA,NA,NA,""
"image-keyboard-response",610,420625,"0.0-3.199-2.199","3uzecuzd5nk4ypo",995,"65.csv","","null","resources/images/fishbone.png","null","",NA,NA,NA,NA,""
