"trial_type","trial_index","time_elapsed","internal_node_id","subject","participantCode","walkNumber","success","rt","stimulus","key_press","test_part","leftProb","midProb","rightProb","generatedNum","correct"
"pavlovia",0,1190,"0.0-0.0","2r3ptwvy965fj5t",350,"34.csv","","","","","",NA,NA,NA,NA,""
"fullscreen",1,9815,"0.0-1.0","2r3ptwvy965fj5t",350,"34.csv","true","","","","",NA,NA,NA,NA,""
"html-keyboard-response",2,26110,"0.0-2.0-0.0","2r3ptwvy965fj5t",350,"34.csv","","16293","<p><font size='6'>Arrrgh!</p></font><p>Can you be the best pirate? Try to find lots of gold! But beware, some islands have more gold than others, and over time, the island with the most gold may change. Can YOU figure it out? </p><font size='6'>GOOD LUCK, CAPTAIN!!!</font><p>Press any key to begin</p>","13","",NA,NA,NA,NA,""
"image-keyboard-response",3,29112,"0.0-2.0-1.0","2r3ptwvy965fj5t",350,"34.csv","","null","resources/image_sets/111.png","null","",NA,NA,NA,NA,""
"image-keyboard-response",4,46610,"0.0-2.0-2.0","2r3ptwvy965fj5t",350,"34.csv","","17496","resources/image_sets/left_highlight.png","37","",NA,NA,NA,NA,""
"image-keyboard-response",5,52907,"0.0-2.0-3.0","2r3ptwvy965fj5t",350,"34.csv","","6296","resources/image_sets/mid_highlight.png","38","",NA,NA,NA,NA,""
"image-keyboard-response",6,62255,"0.0-2.0-4.0","2r3ptwvy965fj5t",350,"34.csv","","9346","resources/image_sets/right_highlight.png","39","",NA,NA,NA,NA,""
"image-keyboard-response",7,65268,"0.0-2.0-5.0","2r3ptwvy965fj5t",350,"34.csv","","3011.9999999999927","resources/image_sets/111.png","13","",NA,NA,NA,NA,""
"image-keyboard-response",8,68942,"0.0-2.0-6.0","2r3ptwvy965fj5t",350,"34.csv","","3672.0000000000146","resources/images/coin2.png","13","",NA,NA,NA,NA,""
"image-keyboard-response",9,69958,"0.0-2.0-7.0","2r3ptwvy965fj5t",350,"34.csv","","1015","resources/images/fishbone.png","13","",NA,NA,NA,NA,""
"html-keyboard-response",10,71700,"0.0-2.0-8.0","2r3ptwvy965fj5t",350,"34.csv","","1741","<p>Your first journey will be a long one, but you will get a well deserved break at the end</p><p>After the break you will have four more journeys, but each will be much shorter than the first, and you will have breaks in between each</p><p>Press Enter to begin</p>","13","",NA,NA,NA,NA,""
"image-keyboard-response",11,74572,"0.0-3.0-0.0","2r3ptwvy965fj5t",350,"34.csv","","2871.0000000000146","resources/trios/L2T4A3.jpg","39","restless",0.3,0.9,0.7,0.500564789527714,"true"
"image-keyboard-response",12,74976,"0.0-3.0-1.0","2r3ptwvy965fj5t",350,"34.csv","","null","resources/maskTrios/BBA3.jpg","null","",NA,NA,NA,NA,""
"image-keyboard-response",13,76180,"0.0-3.0-2.0","2r3ptwvy965fj5t",350,"34.csv","","null","resources/images/coin2.png","null","",NA,NA,NA,NA,""
"image-keyboard-response",14,77958,"0.0-3.1-0.1","2r3ptwvy965fj5t",350,"34.csv","","1775","resources/trios/L2T4A3.jpg","39","restless",0.3,0.9,0.7,0.178699226949033,"true"
"image-keyboard-response",15,78361,"0.0-3.1-1.1","2r3ptwvy965fj5t",350,"34.csv","","null","resources/maskTrios/BBA3.jpg","null","",NA,NA,NA,NA,""
"image-keyboard-response",16,79564,"0.0-3.1-2.1","2r3ptwvy965fj5t",350,"34.csv","","null","resources/images/coin2.png","null","",NA,NA,NA,NA,""
"image-keyboard-response",17,79995,"0.0-3.2-0.2","2r3ptwvy965fj5t",350,"34.csv","","428.99999999998545","resources/trios/L2T4A3.jpg","39","restless",0.3,0.9,0.7,0.799687649358495,"false"
"image-keyboard-response",18,80398,"0.0-3.2-1.2","2r3ptwvy965fj5t",350,"34.csv","","null","resources/maskTrios/BBA3.jpg","null","",NA,NA,NA,NA,""
"image-keyboard-response",19,81600,"0.0-3.2-2.2","2r3ptwvy965fj5t",350,"34.csv","","null","resources/images/fishbone.png","null","",NA,NA,NA,NA,""
"image-keyboard-response",20,84295,"0.0-3.3-0.3","2r3ptwvy965fj5t",350,"34.csv","","2693.0000000000146","resources/trios/L1T4A3.jpg","37","restless",0.4,0.9,0.8,0.376477303783558,"true"
"image-keyboard-response",21,84697,"0.0-3.3-1.3","2r3ptwvy965fj5t",350,"34.csv","","null","resources/maskTrios/L1BB.jpg","null","",NA,NA,NA,NA,""
"image-keyboard-response",22,85901,"0.0-3.3-2.3","2r3ptwvy965fj5t",350,"34.csv","","null","resources/images/coin2.png","null","",NA,NA,NA,NA,""
"image-keyboard-response",23,86556,"0.0-3.4-0.4","2r3ptwvy965fj5t",350,"34.csv","","652","resources/trios/L2T1A1.jpg","39","restless",0.4,0.9,0.8,0.558123119029926,"true"
"image-keyboard-response",24,86958,"0.0-3.4-1.4","2r3ptwvy965fj5t",350,"34.csv","","null","resources/maskTrios/BBA1.jpg","null","",NA,NA,NA,NA,""
"image-keyboard-response",25,88160,"0.0-3.4-2.4","2r3ptwvy965fj5t",350,"34.csv","","null","resources/images/coin2.png","null","",NA,NA,NA,NA,""
"image-keyboard-response",26,88588,"0.0-3.5-0.5","2r3ptwvy965fj5t",350,"34.csv","","426","resources/trios/L2T1A3.jpg","37","restless",0.4,0.9,0.7,0.941909915994115,"false"
"image-keyboard-response",27,88990,"0.0-3.5-1.5","2r3ptwvy965fj5t",350,"34.csv","","null","resources/maskTrios/L2BB.jpg","null","",NA,NA,NA,NA,""
"image-keyboard-response",28,90193,"0.0-3.5-2.5","2r3ptwvy965fj5t",350,"34.csv","","null","resources/images/fishbone.png","null","",NA,NA,NA,NA,""
"image-keyboard-response",29,90565,"0.0-3.6-0.6","2r3ptwvy965fj5t",350,"34.csv","","370","resources/trios/L1T4A1.jpg","39","restless",0.4,0.9,0.7,0.513350735724082,"true"
"image-keyboard-response",30,90968,"0.0-3.6-1.6","2r3ptwvy965fj5t",350,"34.csv","","null","resources/maskTrios/BBA1.jpg","null","",NA,NA,NA,NA,""
"image-keyboard-response",31,92171,"0.0-3.6-2.6","2r3ptwvy965fj5t",350,"34.csv","","null","resources/images/coin2.png","null","",NA,NA,NA,NA,""
"image-keyboard-response",32,92582,"0.0-3.7-0.7","2r3ptwvy965fj5t",350,"34.csv","","408.99999999998545","resources/trios/L1T1A3.jpg","39","restless",0.4,0.9,0.7,0.522023049165842,"true"
"image-keyboard-response",33,92985,"0.0-3.7-1.7","2r3ptwvy965fj5t",350,"34.csv","","null","resources/maskTrios/BBA3.jpg","null","",NA,NA,NA,NA,""
"image-keyboard-response",34,94187,"0.0-3.7-2.7","2r3ptwvy965fj5t",350,"34.csv","","null","resources/images/coin2.png","null","",NA,NA,NA,NA,""
"image-keyboard-response",35,94648,"0.0-3.8-0.8","2r3ptwvy965fj5t",350,"34.csv","","459","resources/trios/L2T4A1.jpg","39","restless",0.4,0.9,0.7,0.948618427562594,"false"
"image-keyboard-response",36,95050,"0.0-3.8-1.8","2r3ptwvy965fj5t",350,"34.csv","","null","resources/maskTrios/BBA1.jpg","null","",NA,NA,NA,NA,""
"image-keyboard-response",37,96254,"0.0-3.8-2.8","2r3ptwvy965fj5t",350,"34.csv","","null","resources/images/fishbone.png","null","",NA,NA,NA,NA,""
"image-keyboard-response",38,96774,"0.0-3.9-0.9","2r3ptwvy965fj5t",350,"34.csv","","518","resources/trios/L1T4A1.jpg","37","restless",0.4,0.9,0.7,0.185541287022048,"true"
"image-keyboard-response",39,97177,"0.0-3.9-1.9","2r3ptwvy965fj5t",350,"34.csv","","null","resources/maskTrios/L1BB.jpg","null","",NA,NA,NA,NA,""
"image-keyboard-response",40,98380,"0.0-3.9-2.9","2r3ptwvy965fj5t",350,"34.csv","","null","resources/images/coin2.png","null","",NA,NA,NA,NA,""
"image-keyboard-response",41,99195,"0.0-3.10-0.10","2r3ptwvy965fj5t",350,"34.csv","","814","resources/trios/L2T1A3.jpg","39","restless",0.4,0.9,0.7,0.574614841331128,"true"
"image-keyboard-response",42,99597,"0.0-3.10-1.10","2r3ptwvy965fj5t",350,"34.csv","","null","resources/maskTrios/BBA3.jpg","null","",NA,NA,NA,NA,""
"image-keyboard-response",43,100800,"0.0-3.10-2.10","2r3ptwvy965fj5t",350,"34.csv","","null","resources/images/coin2.png","null","",NA,NA,NA,NA,""
"image-keyboard-response",44,101309,"0.0-3.11-0.11","2r3ptwvy965fj5t",350,"34.csv","","507","resources/trios/L1T1A1.jpg","37","restless",0.4,0.9,0.7,0.428931004350628,"false"
"image-keyboard-response",45,101711,"0.0-3.11-1.11","2r3ptwvy965fj5t",350,"34.csv","","null","resources/maskTrios/L1BB.jpg","null","",NA,NA,NA,NA,""
"image-keyboard-response",46,102914,"0.0-3.11-2.11","2r3ptwvy965fj5t",350,"34.csv","","null","resources/images/fishbone.png","null","",NA,NA,NA,NA,""
"image-keyboard-response",47,103326,"0.0-3.12-0.12","2r3ptwvy965fj5t",350,"34.csv","","410","resources/trios/L2T1A1.jpg","39","restless",0.5,0.9,0.7,0.741552560685556,"false"
"image-keyboard-response",48,103728,"0.0-3.12-1.12","2r3ptwvy965fj5t",350,"34.csv","","null","resources/maskTrios/BBA1.jpg","null","",NA,NA,NA,NA,""
"image-keyboard-response",49,104929,"0.0-3.12-2.12","2r3ptwvy965fj5t",350,"34.csv","","null","resources/images/fishbone.png","null","",NA,NA,NA,NA,""
"image-keyboard-response",50,105370,"0.0-3.13-0.13","2r3ptwvy965fj5t",350,"34.csv","","439","resources/trios/L2T4A1.jpg","39","restless",0.6,0.9,0.7,0.216735948464695,"true"
"image-keyboard-response",51,105772,"0.0-3.13-1.13","2r3ptwvy965fj5t",350,"34.csv","","null","resources/maskTrios/BBA1.jpg","null","",NA,NA,NA,NA,""
"image-keyboard-response",52,106975,"0.0-3.13-2.13","2r3ptwvy965fj5t",350,"34.csv","","null","resources/images/coin2.png","null","",NA,NA,NA,NA,""
"image-keyboard-response",53,107468,"0.0-3.14-0.14","2r3ptwvy965fj5t",350,"34.csv","","492.00000000001455","resources/trios/L2T4A1.jpg","39","restless",0.6,0.9,0.8,0.653315432346562,"true"
"image-keyboard-response",54,107870,"0.0-3.14-1.14","2r3ptwvy965fj5t",350,"34.csv","","null","resources/maskTrios/BBA1.jpg","null","",NA,NA,NA,NA,""
"image-keyboard-response",55,109073,"0.0-3.14-2.14","2r3ptwvy965fj5t",350,"34.csv","","null","resources/images/coin2.png","null","",NA,NA,NA,NA,""
"image-keyboard-response",56,109699,"0.0-3.15-0.15","2r3ptwvy965fj5t",350,"34.csv","","625","resources/trios/L1T4A1.jpg","39","restless",0.7,0.9,0.8,0.454064270106789,"true"
"image-keyboard-response",57,110102,"0.0-3.15-1.15","2r3ptwvy965fj5t",350,"34.csv","","null","resources/maskTrios/BBA1.jpg","null","",NA,NA,NA,NA,""
"image-keyboard-response",58,111305,"0.0-3.15-2.15","2r3ptwvy965fj5t",350,"34.csv","","null","resources/images/coin2.png","null","",NA,NA,NA,NA,""
"image-keyboard-response",59,111687,"0.0-3.16-0.16","2r3ptwvy965fj5t",350,"34.csv","","381","resources/trios/L1T1A3.jpg","39","restless",0.7,0.9,0.8,0.0926735159685032,"true"
"image-keyboard-response",60,112090,"0.0-3.16-1.16","2r3ptwvy965fj5t",350,"34.csv","","null","resources/maskTrios/BBA3.jpg","null","",NA,NA,NA,NA,""
"image-keyboard-response",61,113292,"0.0-3.16-2.16","2r3ptwvy965fj5t",350,"34.csv","","null","resources/images/coin2.png","null","",NA,NA,NA,NA,""
"image-keyboard-response",62,113745,"0.0-3.17-0.17","2r3ptwvy965fj5t",350,"34.csv","","451","resources/trios/L1T4A3.jpg","39","restless",0.7,0.8,0.8,0.692047424952609,"true"
"image-keyboard-response",63,114147,"0.0-3.17-1.17","2r3ptwvy965fj5t",350,"34.csv","","null","resources/maskTrios/BBA3.jpg","null","",NA,NA,NA,NA,""
"image-keyboard-response",64,115350,"0.0-3.17-2.17","2r3ptwvy965fj5t",350,"34.csv","","null","resources/images/coin2.png","null","",NA,NA,NA,NA,""
"image-keyboard-response",65,115798,"0.0-3.18-0.18","2r3ptwvy965fj5t",350,"34.csv","","446.00000000001455","resources/trios/L2T4A1.jpg","39","restless",0.7,0.7,0.8,0.487244938398335,"true"
"image-keyboard-response",66,116200,"0.0-3.18-1.18","2r3ptwvy965fj5t",350,"34.csv","","null","resources/maskTrios/BBA1.jpg","null","",NA,NA,NA,NA,""
"image-keyboard-response",67,117402,"0.0-3.18-2.18","2r3ptwvy965fj5t",350,"34.csv","","null","resources/images/coin2.png","null","",NA,NA,NA,NA,""
"image-keyboard-response",68,117783,"0.0-3.19-0.19","2r3ptwvy965fj5t",350,"34.csv","","379","resources/trios/L2T4A3.jpg","39","restless",0.7,0.7,0.8,0.735277239045969,"true"
"image-keyboard-response",69,118185,"0.0-3.19-1.19","2r3ptwvy965fj5t",350,"34.csv","","null","resources/maskTrios/BBA3.jpg","null","",NA,NA,NA,NA,""
"image-keyboard-response",70,119388,"0.0-3.19-2.19","2r3ptwvy965fj5t",350,"34.csv","","null","resources/images/coin2.png","null","",NA,NA,NA,NA,""
"image-keyboard-response",71,119704,"0.0-3.20-0.20","2r3ptwvy965fj5t",350,"34.csv","","314","resources/trios/L2T1A1.jpg","39","restless",0.7,0.7,0.8,0.638756946791919,"true"
"image-keyboard-response",72,120106,"0.0-3.20-1.20","2r3ptwvy965fj5t",350,"34.csv","","null","resources/maskTrios/BBA1.jpg","null","",NA,NA,NA,NA,""
"image-keyboard-response",73,121309,"0.0-3.20-2.20","2r3ptwvy965fj5t",350,"34.csv","","null","resources/images/coin2.png","null","",NA,NA,NA,NA,""
"image-keyboard-response",74,121632,"0.0-3.21-0.21","2r3ptwvy965fj5t",350,"34.csv","","321.99999999998545","resources/trios/L2T1A3.jpg","39","restless",0.7,0.7,0.8,0.244600288054825,"true"
"image-keyboard-response",75,122035,"0.0-3.21-1.21","2r3ptwvy965fj5t",350,"34.csv","","null","resources/maskTrios/BBA3.jpg","null","",NA,NA,NA,NA,""
"image-keyboard-response",76,123237,"0.0-3.21-2.21","2r3ptwvy965fj5t",350,"34.csv","","null","resources/images/coin2.png","null","",NA,NA,NA,NA,""
"image-keyboard-response",77,123573,"0.0-3.22-0.22","2r3ptwvy965fj5t",350,"34.csv","","334","resources/trios/L2T1A1.jpg","39","restless",0.6,0.7,0.8,0.9509703998531,"false"
"image-keyboard-response",78,123975,"0.0-3.22-1.22","2r3ptwvy965fj5t",350,"34.csv","","null","resources/maskTrios/BBA1.jpg","null","",NA,NA,NA,NA,""
"image-keyboard-response",79,125178,"0.0-3.22-2.22","2r3ptwvy965fj5t",350,"34.csv","","null","resources/images/fishbone.png","null","",NA,NA,NA,NA,""
"image-keyboard-response",80,125720,"0.0-3.23-0.23","2r3ptwvy965fj5t",350,"34.csv","","540","resources/trios/L2T1A1.jpg","37","restless",0.6,0.7,0.8,0.0727665533731835,"true"
"image-keyboard-response",81,126122,"0.0-3.23-1.23","2r3ptwvy965fj5t",350,"34.csv","","null","resources/maskTrios/L2BB.jpg","null","",NA,NA,NA,NA,""
"image-keyboard-response",82,127325,"0.0-3.23-2.23","2r3ptwvy965fj5t",350,"34.csv","","null","resources/images/coin2.png","null","",NA,NA,NA,NA,""
"image-keyboard-response",83,127738,"0.0-3.24-0.24","2r3ptwvy965fj5t",350,"34.csv","","411","resources/trios/L1T1A1.jpg","39","restless",0.6,0.7,0.8,0.110256543376165,"true"
"image-keyboard-response",84,128140,"0.0-3.24-1.24","2r3ptwvy965fj5t",350,"34.csv","","null","resources/maskTrios/BBA1.jpg","null","",NA,NA,NA,NA,""
"image-keyboard-response",85,129342,"0.0-3.24-2.24","2r3ptwvy965fj5t",350,"34.csv","","null","resources/images/coin2.png","null","",NA,NA,NA,NA,""
"image-keyboard-response",86,129709,"0.0-3.25-0.25","2r3ptwvy965fj5t",350,"34.csv","","365","resources/trios/L2T4A3.jpg","39","restless",0.6,0.7,0.8,0.384970501222227,"true"
"image-keyboard-response",87,130111,"0.0-3.25-1.25","2r3ptwvy965fj5t",350,"34.csv","","null","resources/maskTrios/BBA3.jpg","null","",NA,NA,NA,NA,""
"image-keyboard-response",88,131314,"0.0-3.25-2.25","2r3ptwvy965fj5t",350,"34.csv","","null","resources/images/coin2.png","null","",NA,NA,NA,NA,""
"image-keyboard-response",89,131624,"0.0-3.26-0.26","2r3ptwvy965fj5t",350,"34.csv","","308.0000000000291","resources/trios/L1T1A1.jpg","39","restless",0.6,0.7,0.8,0.704045765282908,"true"
"image-keyboard-response",90,132026,"0.0-3.26-1.26","2r3ptwvy965fj5t",350,"34.csv","","null","resources/maskTrios/BBA1.jpg","null","",NA,NA,NA,NA,""
"image-keyboard-response",91,133233,"0.0-3.26-2.26","2r3ptwvy965fj5t",350,"34.csv","","null","resources/images/coin2.png","null","",NA,NA,NA,NA,""
"image-keyboard-response",92,133570,"0.0-3.27-0.27","2r3ptwvy965fj5t",350,"34.csv","","334","resources/trios/L2T1A1.jpg","39","restless",0.6,0.7,0.8,0.828618457504091,"false"
"image-keyboard-response",93,133972,"0.0-3.27-1.27","2r3ptwvy965fj5t",350,"34.csv","","null","resources/maskTrios/BBA1.jpg","null","",NA,NA,NA,NA,""
"image-keyboard-response",94,135175,"0.0-3.27-2.27","2r3ptwvy965fj5t",350,"34.csv","","null","resources/images/fishbone.png","null","",NA,NA,NA,NA,""
"image-keyboard-response",95,135570,"0.0-3.28-0.28","2r3ptwvy965fj5t",350,"34.csv","","393","resources/trios/L1T4A1.jpg","37","restless",0.6,0.7,0.8,0.292368209049314,"true"
"image-keyboard-response",96,135973,"0.0-3.28-1.28","2r3ptwvy965fj5t",350,"34.csv","","null","resources/maskTrios/L1BB.jpg","null","",NA,NA,NA,NA,""
"image-keyboard-response",97,137174,"0.0-3.28-2.28","2r3ptwvy965fj5t",350,"34.csv","","null","resources/images/coin2.png","null","",NA,NA,NA,NA,""
"image-keyboard-response",98,137664,"0.0-3.29-0.29","2r3ptwvy965fj5t",350,"34.csv","","487","resources/trios/L1T4A1.jpg","39","restless",0.6,0.6,0.9,0.553282006280005,"true"
"image-keyboard-response",99,138066,"0.0-3.29-1.29","2r3ptwvy965fj5t",350,"34.csv","","null","resources/maskTrios/BBA1.jpg","null","",NA,NA,NA,NA,""
"image-keyboard-response",100,139269,"0.0-3.29-2.29","2r3ptwvy965fj5t",350,"34.csv","","null","resources/images/coin2.png","null","",NA,NA,NA,NA,""
"image-keyboard-response",101,139638,"0.0-3.30-0.30","2r3ptwvy965fj5t",350,"34.csv","","367","resources/trios/L1T4A3.jpg","39","restless",0.6,0.6,0.9,0.351377808006732,"true"
"image-keyboard-response",102,140040,"0.0-3.30-1.30","2r3ptwvy965fj5t",350,"34.csv","","null","resources/maskTrios/BBA3.jpg","null","",NA,NA,NA,NA,""
"image-keyboard-response",103,141242,"0.0-3.30-2.30","2r3ptwvy965fj5t",350,"34.csv","","null","resources/images/coin2.png","null","",NA,NA,NA,NA,""
"image-keyboard-response",104,141628,"0.0-3.31-0.31","2r3ptwvy965fj5t",350,"34.csv","","385.0000000000291","resources/trios/L1T4A1.jpg","39","restless",0.6,0.6,0.9,0.361817731092091,"true"
"image-keyboard-response",105,142030,"0.0-3.31-1.31","2r3ptwvy965fj5t",350,"34.csv","","null","resources/maskTrios/BBA1.jpg","null","",NA,NA,NA,NA,""
"image-keyboard-response",106,143232,"0.0-3.31-2.31","2r3ptwvy965fj5t",350,"34.csv","","null","resources/images/coin2.png","null","",NA,NA,NA,NA,""
"image-keyboard-response",107,143818,"0.0-3.32-0.32","2r3ptwvy965fj5t",350,"34.csv","","583.9999999999709","resources/trios/L1T1A3.jpg","39","restless",0.6,0.6,0.8,0.539630931247472,"true"
"image-keyboard-response",108,144220,"0.0-3.32-1.32","2r3ptwvy965fj5t",350,"34.csv","","null","resources/maskTrios/BBA3.jpg","null","",NA,NA,NA,NA,""
"image-keyboard-response",109,145422,"0.0-3.32-2.32","2r3ptwvy965fj5t",350,"34.csv","","null","resources/images/coin2.png","null","",NA,NA,NA,NA,""
"image-keyboard-response",110,145889,"0.0-3.33-0.33","2r3ptwvy965fj5t",350,"34.csv","","465","resources/trios/L2T1A3.jpg","39","restless",0.7,0.6,0.8,0.985581974131491,"false"
"image-keyboard-response",111,146291,"0.0-3.33-1.33","2r3ptwvy965fj5t",350,"34.csv","","null","resources/maskTrios/BBA3.jpg","null","",NA,NA,NA,NA,""
"image-keyboard-response",112,147493,"0.0-3.33-2.33","2r3ptwvy965fj5t",350,"34.csv","","null","resources/images/fishbone.png","null","",NA,NA,NA,NA,""
"image-keyboard-response",113,147897,"0.0-3.34-0.34","2r3ptwvy965fj5t",350,"34.csv","","402","resources/trios/L2T4A1.jpg","37","restless",0.6,0.6,0.8,0.704584904322214,"false"
"image-keyboard-response",114,148299,"0.0-3.34-1.34","2r3ptwvy965fj5t",350,"34.csv","","null","resources/maskTrios/L2BB.jpg","null","",NA,NA,NA,NA,""
"image-keyboard-response",115,149505,"0.0-3.34-2.34","2r3ptwvy965fj5t",350,"34.csv","","null","resources/images/fishbone.png","null","",NA,NA,NA,NA,""
"image-keyboard-response",116,150021,"0.0-3.35-0.35","2r3ptwvy965fj5t",350,"34.csv","","513.0000000000291","resources/trios/L2T1A1.jpg","39","restless",0.6,0.5,0.8,0.608295685378912,"true"
"image-keyboard-response",117,150424,"0.0-3.35-1.35","2r3ptwvy965fj5t",350,"34.csv","","null","resources/maskTrios/BBA1.jpg","null","",NA,NA,NA,NA,""
"image-keyboard-response",118,151626,"0.0-3.35-2.35","2r3ptwvy965fj5t",350,"34.csv","","null","resources/images/coin2.png","null","",NA,NA,NA,NA,""
"image-keyboard-response",119,152660,"0.0-3.36-0.36","2r3ptwvy965fj5t",350,"34.csv","","1032","resources/trios/L2T1A1.jpg","39","restless",0.6,0.5,0.8,0.311905615690918,"true"
"image-keyboard-response",120,153062,"0.0-3.36-1.36","2r3ptwvy965fj5t",350,"34.csv","","null","resources/maskTrios/BBA1.jpg","null","",NA,NA,NA,NA,""
"image-keyboard-response",121,154264,"0.0-3.36-2.36","2r3ptwvy965fj5t",350,"34.csv","","null","resources/images/coin2.png","null","",NA,NA,NA,NA,""
"image-keyboard-response",122,154657,"0.0-3.37-0.37","2r3ptwvy965fj5t",350,"34.csv","","391","resources/trios/L2T1A3.jpg","39","restless",0.5,0.5,0.8,0.482449696142205,"true"
"image-keyboard-response",123,155060,"0.0-3.37-1.37","2r3ptwvy965fj5t",350,"34.csv","","null","resources/maskTrios/BBA3.jpg","null","",NA,NA,NA,NA,""
"image-keyboard-response",124,156262,"0.0-3.37-2.37","2r3ptwvy965fj5t",350,"34.csv","","null","resources/images/coin2.png","null","",NA,NA,NA,NA,""
"image-keyboard-response",125,156700,"0.0-3.38-0.38","2r3ptwvy965fj5t",350,"34.csv","","436","resources/trios/L1T1A3.jpg","39","restless",0.5,0.6,0.7,0.0849694749086545,"true"
"image-keyboard-response",126,157102,"0.0-3.38-1.38","2r3ptwvy965fj5t",350,"34.csv","","null","resources/maskTrios/BBA3.jpg","null","",NA,NA,NA,NA,""
"image-keyboard-response",127,158304,"0.0-3.38-2.38","2r3ptwvy965fj5t",350,"34.csv","","null","resources/images/coin2.png","null","",NA,NA,NA,NA,""
"image-keyboard-response",128,158562,"0.0-3.39-0.39","2r3ptwvy965fj5t",350,"34.csv","","256","resources/trios/L1T1A3.jpg","39","restless",0.5,0.6,0.7,0.634663445930769,"true"
"image-keyboard-response",129,158965,"0.0-3.39-1.39","2r3ptwvy965fj5t",350,"34.csv","","null","resources/maskTrios/BBA3.jpg","null","",NA,NA,NA,NA,""
"image-keyboard-response",130,160167,"0.0-3.39-2.39","2r3ptwvy965fj5t",350,"34.csv","","null","resources/images/coin2.png","null","",NA,NA,NA,NA,""
"image-keyboard-response",131,160633,"0.0-3.40-0.40","2r3ptwvy965fj5t",350,"34.csv","","465","resources/trios/L2T4A1.jpg","39","restless",0.5,0.6,0.7,0.857600819478887,"false"
"image-keyboard-response",132,161038,"0.0-3.40-1.40","2r3ptwvy965fj5t",350,"34.csv","","null","resources/maskTrios/BBA1.jpg","null","",NA,NA,NA,NA,""
"image-keyboard-response",133,162240,"0.0-3.40-2.40","2r3ptwvy965fj5t",350,"34.csv","","null","resources/images/fishbone.png","null","",NA,NA,NA,NA,""
"image-keyboard-response",134,162559,"0.0-3.41-0.41","2r3ptwvy965fj5t",350,"34.csv","","316","resources/trios/L2T1A1.jpg","37","restless",0.5,0.6,0.7,0.204712576162001,"true"
"image-keyboard-response",135,162961,"0.0-3.41-1.41","2r3ptwvy965fj5t",350,"34.csv","","null","resources/maskTrios/L2BB.jpg","null","",NA,NA,NA,NA,""
"image-keyboard-response",136,164164,"0.0-3.41-2.41","2r3ptwvy965fj5t",350,"34.csv","","null","resources/images/coin2.png","null","",NA,NA,NA,NA,""
"image-keyboard-response",137,165343,"0.0-3.42-0.42","2r3ptwvy965fj5t",350,"34.csv","","1175","resources/trios/L2T4A1.jpg","39","restless",0.5,0.6,0.8,0.393950148920725,"true"
"image-keyboard-response",138,165746,"0.0-3.42-1.42","2r3ptwvy965fj5t",350,"34.csv","","null","resources/maskTrios/BBA1.jpg","null","",NA,NA,NA,NA,""
"image-keyboard-response",139,166949,"0.0-3.42-2.42","2r3ptwvy965fj5t",350,"34.csv","","null","resources/images/coin2.png","null","",NA,NA,NA,NA,""
"image-keyboard-response",140,167728,"0.0-3.43-0.43","2r3ptwvy965fj5t",350,"34.csv","","777","resources/trios/L1T1A1.jpg","39","restless",0.5,0.6,0.8,0.435621160585253,"true"
"image-keyboard-response",141,168130,"0.0-3.43-1.43","2r3ptwvy965fj5t",350,"34.csv","","null","resources/maskTrios/BBA1.jpg","null","",NA,NA,NA,NA,""
"image-keyboard-response",142,169333,"0.0-3.43-2.43","2r3ptwvy965fj5t",350,"34.csv","","null","resources/images/coin2.png","null","",NA,NA,NA,NA,""
"image-keyboard-response",143,170559,"0.0-3.44-0.44","2r3ptwvy965fj5t",350,"34.csv","","1224","resources/trios/L1T1A1.jpg","39","restless",0.5,0.6,0.8,0.963444539346827,"false"
"image-keyboard-response",144,170961,"0.0-3.44-1.44","2r3ptwvy965fj5t",350,"34.csv","","null","resources/maskTrios/BBA1.jpg","null","",NA,NA,NA,NA,""
"image-keyboard-response",145,172164,"0.0-3.44-2.44","2r3ptwvy965fj5t",350,"34.csv","","null","resources/images/fishbone.png","null","",NA,NA,NA,NA,""
"image-keyboard-response",146,172746,"0.0-3.45-0.45","2r3ptwvy965fj5t",350,"34.csv","","580","resources/trios/L2T4A1.jpg","37","restless",0.5,0.6,0.8,0.556810899677286,"false"
"image-keyboard-response",147,173148,"0.0-3.45-1.45","2r3ptwvy965fj5t",350,"34.csv","","null","resources/maskTrios/L2BB.jpg","null","",NA,NA,NA,NA,""
"image-keyboard-response",148,174350,"0.0-3.45-2.45","2r3ptwvy965fj5t",350,"34.csv","","null","resources/images/fishbone.png","null","",NA,NA,NA,NA,""
"image-keyboard-response",149,174664,"0.0-3.46-0.46","2r3ptwvy965fj5t",350,"34.csv","","312.0000000000291","resources/trios/L1T4A3.jpg","39","restless",0.5,0.6,0.7,0.993001815548033,"false"
"image-keyboard-response",150,175066,"0.0-3.46-1.46","2r3ptwvy965fj5t",350,"34.csv","","null","resources/maskTrios/BBA3.jpg","null","",NA,NA,NA,NA,""
"image-keyboard-response",151,176269,"0.0-3.46-2.46","2r3ptwvy965fj5t",350,"34.csv","","null","resources/images/fishbone.png","null","",NA,NA,NA,NA,""
"image-keyboard-response",152,177578,"0.0-3.47-0.47","2r3ptwvy965fj5t",350,"34.csv","","1305","resources/trios/L2T1A3.jpg","38","restless",0.5,0.7,0.7,0.716918687729176,"false"
"image-keyboard-response",153,177981,"0.0-3.47-1.47","2r3ptwvy965fj5t",350,"34.csv","","null","resources/maskTrios/BT1B.jpg","null","",NA,NA,NA,NA,""
"image-keyboard-response",154,179183,"0.0-3.47-2.47","2r3ptwvy965fj5t",350,"34.csv","","null","resources/images/fishbone.png","null","",NA,NA,NA,NA,""
"image-keyboard-response",155,179881,"0.0-3.48-0.48","2r3ptwvy965fj5t",350,"34.csv","","696","resources/trios/L1T4A3.jpg","39","restless",0.5,0.7,0.8,0.314614351345197,"true"
"image-keyboard-response",156,180283,"0.0-3.48-1.48","2r3ptwvy965fj5t",350,"34.csv","","null","resources/maskTrios/BBA3.jpg","null","",NA,NA,NA,NA,""
"image-keyboard-response",157,181485,"0.0-3.48-2.48","2r3ptwvy965fj5t",350,"34.csv","","null","resources/images/coin2.png","null","",NA,NA,NA,NA,""
"image-keyboard-response",158,182099,"0.0-3.49-0.49","2r3ptwvy965fj5t",350,"34.csv","","607.9999999999709","resources/trios/L1T4A1.jpg","39","restless",0.4,0.6,0.8,0.60630627797326,"true"
"image-keyboard-response",159,182500,"0.0-3.49-1.49","2r3ptwvy965fj5t",350,"34.csv","","null","resources/maskTrios/BBA1.jpg","null","",NA,NA,NA,NA,""
"image-keyboard-response",160,183703,"0.0-3.49-2.49","2r3ptwvy965fj5t",350,"34.csv","","null","resources/images/coin2.png","null","",NA,NA,NA,NA,""
"image-keyboard-response",161,184326,"0.0-3.50-0.50","2r3ptwvy965fj5t",350,"34.csv","","620","resources/trios/L2T4A3.jpg","39","restless",0.4,0.6,0.8,0.526811178486246,"true"
"image-keyboard-response",162,184728,"0.0-3.50-1.50","2r3ptwvy965fj5t",350,"34.csv","","null","resources/maskTrios/BBA3.jpg","null","",NA,NA,NA,NA,""
"image-keyboard-response",163,185931,"0.0-3.50-2.50","2r3ptwvy965fj5t",350,"34.csv","","null","resources/images/coin2.png","null","",NA,NA,NA,NA,""
"image-keyboard-response",164,186448,"0.0-3.51-0.51","2r3ptwvy965fj5t",350,"34.csv","","514","resources/trios/L1T1A3.jpg","39","restless",0.4,0.6,0.8,0.110586414710735,"true"
"image-keyboard-response",165,186850,"0.0-3.51-1.51","2r3ptwvy965fj5t",350,"34.csv","","null","resources/maskTrios/BBA3.jpg","null","",NA,NA,NA,NA,""
"image-keyboard-response",166,188053,"0.0-3.51-2.51","2r3ptwvy965fj5t",350,"34.csv","","null","resources/images/coin2.png","null","",NA,NA,NA,NA,""
"image-keyboard-response",167,188449,"0.0-3.52-0.52","2r3ptwvy965fj5t",350,"34.csv","","394","resources/trios/L2T4A3.jpg","39","restless",0.4,0.6,0.8,0.795988030955797,"true"
"image-keyboard-response",168,188851,"0.0-3.52-1.52","2r3ptwvy965fj5t",350,"34.csv","","null","resources/maskTrios/BBA3.jpg","null","",NA,NA,NA,NA,""
"image-keyboard-response",169,190054,"0.0-3.52-2.52","2r3ptwvy965fj5t",350,"34.csv","","null","resources/images/coin2.png","null","",NA,NA,NA,NA,""
"image-keyboard-response",170,190529,"0.0-3.53-0.53","2r3ptwvy965fj5t",350,"34.csv","","472.9999999999709","resources/trios/L2T1A1.jpg","39","restless",0.4,0.6,0.8,0.873228174506151,"false"
"image-keyboard-response",171,190932,"0.0-3.53-1.53","2r3ptwvy965fj5t",350,"34.csv","","null","resources/maskTrios/BBA1.jpg","null","",NA,NA,NA,NA,""
"image-keyboard-response",172,192134,"0.0-3.53-2.53","2r3ptwvy965fj5t",350,"34.csv","","null","resources/images/fishbone.png","null","",NA,NA,NA,NA,""
"image-keyboard-response",173,192619,"0.0-3.54-0.54","2r3ptwvy965fj5t",350,"34.csv","","483","resources/trios/L1T4A3.jpg","38","restless",0.4,0.6,0.8,0.746557655292931,"false"
"image-keyboard-response",174,193023,"0.0-3.54-1.54","2r3ptwvy965fj5t",350,"34.csv","","null","resources/maskTrios/BT4B.jpg","null","",NA,NA,NA,NA,""
"image-keyboard-response",175,194225,"0.0-3.54-2.54","2r3ptwvy965fj5t",350,"34.csv","","null","resources/images/fishbone.png","null","",NA,NA,NA,NA,""
"image-keyboard-response",176,194558,"0.0-3.55-0.55","2r3ptwvy965fj5t",350,"34.csv","","329.9999999999709","resources/trios/L2T4A3.jpg","37","restless",0.4,0.6,0.8,0.322237063714565,"true"
"image-keyboard-response",177,194960,"0.0-3.55-1.55","2r3ptwvy965fj5t",350,"34.csv","","null","resources/maskTrios/L2BB.jpg","null","",NA,NA,NA,NA,""
"image-keyboard-response",178,196163,"0.0-3.55-2.55","2r3ptwvy965fj5t",350,"34.csv","","null","resources/images/coin2.png","null","",NA,NA,NA,NA,""
"image-keyboard-response",179,196733,"0.0-3.56-0.56","2r3ptwvy965fj5t",350,"34.csv","","565","resources/trios/L1T1A3.jpg","39","restless",0.4,0.6,0.8,0.446697919319914,"true"
"image-keyboard-response",180,197136,"0.0-3.56-1.56","2r3ptwvy965fj5t",350,"34.csv","","null","resources/maskTrios/BBA3.jpg","null","",NA,NA,NA,NA,""
"image-keyboard-response",181,198339,"0.0-3.56-2.56","2r3ptwvy965fj5t",350,"34.csv","","null","resources/images/coin2.png","null","",NA,NA,NA,NA,""
"image-keyboard-response",182,198645,"0.0-3.57-0.57","2r3ptwvy965fj5t",350,"34.csv","","304.0000000000291","resources/trios/L2T1A3.jpg","39","restless",0.4,0.7,0.8,0.0136253088345809,"true"
"image-keyboard-response",183,199047,"0.0-3.57-1.57","2r3ptwvy965fj5t",350,"34.csv","","null","resources/maskTrios/BBA3.jpg","null","",NA,NA,NA,NA,""
"image-keyboard-response",184,200250,"0.0-3.57-2.57","2r3ptwvy965fj5t",350,"34.csv","","null","resources/images/coin2.png","null","",NA,NA,NA,NA,""
"image-keyboard-response",185,201031,"0.0-3.58-0.58","2r3ptwvy965fj5t",350,"34.csv","","778","resources/trios/L1T1A1.jpg","39","restless",0.4,0.7,0.8,0.449208209567957,"true"
"image-keyboard-response",186,201433,"0.0-3.58-1.58","2r3ptwvy965fj5t",350,"34.csv","","null","resources/maskTrios/BBA1.jpg","null","",NA,NA,NA,NA,""
"image-keyboard-response",187,202636,"0.0-3.58-2.58","2r3ptwvy965fj5t",350,"34.csv","","null","resources/images/coin2.png","null","",NA,NA,NA,NA,""
"image-keyboard-response",188,206887,"0.0-3.59-0.59","2r3ptwvy965fj5t",350,"34.csv","","4249","resources/trios/L2T4A3.jpg","39","restless",0.4,0.7,0.8,0.456738603238032,"true"
"image-keyboard-response",189,207290,"0.0-3.59-1.59","2r3ptwvy965fj5t",350,"34.csv","","null","resources/maskTrios/BBA3.jpg","null","",NA,NA,NA,NA,""
"image-keyboard-response",190,208493,"0.0-3.59-2.59","2r3ptwvy965fj5t",350,"34.csv","","null","resources/images/coin2.png","null","",NA,NA,NA,NA,""
"image-keyboard-response",191,211327,"0.0-3.60-0.60","2r3ptwvy965fj5t",350,"34.csv","","2832","resources/trios/L1T1A3.jpg","39","restless",0.4,0.6,0.8,0.308344736376543,"true"
"image-keyboard-response",192,211730,"0.0-3.60-1.60","2r3ptwvy965fj5t",350,"34.csv","","null","resources/maskTrios/BBA3.jpg","null","",NA,NA,NA,NA,""
"image-keyboard-response",193,212933,"0.0-3.60-2.60","2r3ptwvy965fj5t",350,"34.csv","","null","resources/images/coin2.png","null","",NA,NA,NA,NA,""
"image-keyboard-response",194,213221,"0.0-3.61-0.61","2r3ptwvy965fj5t",350,"34.csv","","286.0000000000291","resources/trios/L1T4A1.jpg","39","restless",0.4,0.5,0.8,0.163527787523952,"true"
"image-keyboard-response",195,213624,"0.0-3.61-1.61","2r3ptwvy965fj5t",350,"34.csv","","null","resources/maskTrios/BBA1.jpg","null","",NA,NA,NA,NA,""
"image-keyboard-response",196,214827,"0.0-3.61-2.61","2r3ptwvy965fj5t",350,"34.csv","","null","resources/images/coin2.png","null","",NA,NA,NA,NA,""
"image-keyboard-response",197,215382,"0.0-3.62-0.62","2r3ptwvy965fj5t",350,"34.csv","","553.0000000000291","resources/trios/L2T4A3.jpg","39","restless",0.4,0.5,0.9,0.0459462382457352,"true"
"image-keyboard-response",198,215785,"0.0-3.62-1.62","2r3ptwvy965fj5t",350,"34.csv","","null","resources/maskTrios/BBA3.jpg","null","",NA,NA,NA,NA,""
"image-keyboard-response",199,216988,"0.0-3.62-2.62","2r3ptwvy965fj5t",350,"34.csv","","null","resources/images/coin2.png","null","",NA,NA,NA,NA,""
"image-keyboard-response",200,220705,"0.0-3.63-0.63","2r3ptwvy965fj5t",350,"34.csv","","3714.999999999971","resources/trios/L2T4A1.jpg","39","restless",0.4,0.5,0.9,0.573596190232899,"true"
"image-keyboard-response",201,221107,"0.0-3.63-1.63","2r3ptwvy965fj5t",350,"34.csv","","null","resources/maskTrios/BBA1.jpg","null","",NA,NA,NA,NA,""
"image-keyboard-response",202,222310,"0.0-3.63-2.63","2r3ptwvy965fj5t",350,"34.csv","","null","resources/images/coin2.png","null","",NA,NA,NA,NA,""
"image-keyboard-response",203,222858,"0.0-3.64-0.64","2r3ptwvy965fj5t",350,"34.csv","","544","resources/trios/L2T1A1.jpg","39","restless",0.4,0.5,0.9,0.0274790039360427,"true"
"image-keyboard-response",204,223260,"0.0-3.64-1.64","2r3ptwvy965fj5t",350,"34.csv","","null","resources/maskTrios/BBA1.jpg","null","",NA,NA,NA,NA,""
"image-keyboard-response",205,224464,"0.0-3.64-2.64","2r3ptwvy965fj5t",350,"34.csv","","null","resources/images/coin2.png","null","",NA,NA,NA,NA,""
"image-keyboard-response",206,225082,"0.0-3.65-0.65","2r3ptwvy965fj5t",350,"34.csv","","616","resources/trios/L2T1A1.jpg","39","restless",0.4,0.4,0.9,0.54120681280031,"true"
"image-keyboard-response",207,225485,"0.0-3.65-1.65","2r3ptwvy965fj5t",350,"34.csv","","null","resources/maskTrios/BBA1.jpg","null","",NA,NA,NA,NA,""
"image-keyboard-response",208,226688,"0.0-3.65-2.65","2r3ptwvy965fj5t",350,"34.csv","","null","resources/images/coin2.png","null","",NA,NA,NA,NA,""
"image-keyboard-response",209,226924,"0.0-3.66-0.66","2r3ptwvy965fj5t",350,"34.csv","","234.0000000000291","resources/trios/L1T4A1.jpg","39","restless",0.4,0.4,0.9,0.872323907687551,"true"
"image-keyboard-response",210,227327,"0.0-3.66-1.66","2r3ptwvy965fj5t",350,"34.csv","","null","resources/maskTrios/BBA1.jpg","null","",NA,NA,NA,NA,""
"image-keyboard-response",211,228530,"0.0-3.66-2.66","2r3ptwvy965fj5t",350,"34.csv","","null","resources/images/coin2.png","null","",NA,NA,NA,NA,""
"image-keyboard-response",212,229150,"0.0-3.67-0.67","2r3ptwvy965fj5t",350,"34.csv","","619","resources/trios/L1T4A3.jpg","39","restless",0.4,0.4,0.9,0.613844737057468,"true"
"image-keyboard-response",213,229553,"0.0-3.67-1.67","2r3ptwvy965fj5t",350,"34.csv","","null","resources/maskTrios/BBA3.jpg","null","",NA,NA,NA,NA,""
"image-keyboard-response",214,230756,"0.0-3.67-2.67","2r3ptwvy965fj5t",350,"34.csv","","null","resources/images/coin2.png","null","",NA,NA,NA,NA,""
"image-keyboard-response",215,231313,"0.0-3.68-0.68","2r3ptwvy965fj5t",350,"34.csv","","555","resources/trios/L1T4A1.jpg","39","restless",0.4,0.3,0.9,0.0528629208636258,"true"
"image-keyboard-response",216,231715,"0.0-3.68-1.68","2r3ptwvy965fj5t",350,"34.csv","","null","resources/maskTrios/BBA1.jpg","null","",NA,NA,NA,NA,""
"image-keyboard-response",217,232918,"0.0-3.68-2.68","2r3ptwvy965fj5t",350,"34.csv","","null","resources/images/coin2.png","null","",NA,NA,NA,NA,""
"image-keyboard-response",218,233447,"0.0-3.69-0.69","2r3ptwvy965fj5t",350,"34.csv","","527","resources/trios/L1T4A1.jpg","39","restless",0.4,0.3,0.9,0.52654007197838,"true"
"image-keyboard-response",219,233849,"0.0-3.69-1.69","2r3ptwvy965fj5t",350,"34.csv","","null","resources/maskTrios/BBA1.jpg","null","",NA,NA,NA,NA,""
"image-keyboard-response",220,235052,"0.0-3.69-2.69","2r3ptwvy965fj5t",350,"34.csv","","null","resources/images/coin2.png","null","",NA,NA,NA,NA,""
"image-keyboard-response",221,235762,"0.0-3.70-0.70","2r3ptwvy965fj5t",350,"34.csv","","708","resources/trios/L2T1A3.jpg","39","restless",0.4,0.3,0.9,0.602640065874262,"true"
"image-keyboard-response",222,236166,"0.0-3.70-1.70","2r3ptwvy965fj5t",350,"34.csv","","null","resources/maskTrios/BBA3.jpg","null","",NA,NA,NA,NA,""
"image-keyboard-response",223,237369,"0.0-3.70-2.70","2r3ptwvy965fj5t",350,"34.csv","","null","resources/images/coin2.png","null","",NA,NA,NA,NA,""
"image-keyboard-response",224,238016,"0.0-3.71-0.71","2r3ptwvy965fj5t",350,"34.csv","","642","resources/trios/L2T1A3.jpg","39","restless",0.4,0.3,0.9,0.473214590197833,"true"
"image-keyboard-response",225,238418,"0.0-3.71-1.71","2r3ptwvy965fj5t",350,"34.csv","","null","resources/maskTrios/BBA3.jpg","null","",NA,NA,NA,NA,""
"image-keyboard-response",226,239621,"0.0-3.71-2.71","2r3ptwvy965fj5t",350,"34.csv","","null","resources/images/coin2.png","null","",NA,NA,NA,NA,""
"image-keyboard-response",227,240259,"0.0-3.72-0.72","2r3ptwvy965fj5t",350,"34.csv","","636","resources/trios/L1T4A1.jpg","39","restless",0.4,0.3,0.9,0.437744145166318,"true"
"image-keyboard-response",228,240661,"0.0-3.72-1.72","2r3ptwvy965fj5t",350,"34.csv","","null","resources/maskTrios/BBA1.jpg","null","",NA,NA,NA,NA,""
"image-keyboard-response",229,241864,"0.0-3.72-2.72","2r3ptwvy965fj5t",350,"34.csv","","null","resources/images/coin2.png","null","",NA,NA,NA,NA,""
"image-keyboard-response",230,242594,"0.0-3.73-0.73","2r3ptwvy965fj5t",350,"34.csv","","728","resources/trios/L1T1A1.jpg","39","restless",0.4,0.3,0.9,0.342707516605901,"true"
"image-keyboard-response",231,242996,"0.0-3.73-1.73","2r3ptwvy965fj5t",350,"34.csv","","null","resources/maskTrios/BBA1.jpg","null","",NA,NA,NA,NA,""
"image-keyboard-response",232,244199,"0.0-3.73-2.73","2r3ptwvy965fj5t",350,"34.csv","","null","resources/images/coin2.png","null","",NA,NA,NA,NA,""
"image-keyboard-response",233,244641,"0.0-3.74-0.74","2r3ptwvy965fj5t",350,"34.csv","","440","resources/trios/L1T1A1.jpg","39","restless",0.5,0.3,0.9,0.0293578912183812,"true"
"image-keyboard-response",234,245043,"0.0-3.74-1.74","2r3ptwvy965fj5t",350,"34.csv","","null","resources/maskTrios/BBA1.jpg","null","",NA,NA,NA,NA,""
"image-keyboard-response",235,246246,"0.0-3.74-2.74","2r3ptwvy965fj5t",350,"34.csv","","null","resources/images/coin2.png","null","",NA,NA,NA,NA,""
"image-keyboard-response",236,246824,"0.0-3.75-0.75","2r3ptwvy965fj5t",350,"34.csv","","576","resources/trios/L1T1A3.jpg","39","restless",0.5,0.3,0.9,0.00144518654848924,"true"
"image-keyboard-response",237,247226,"0.0-3.75-1.75","2r3ptwvy965fj5t",350,"34.csv","","null","resources/maskTrios/BBA3.jpg","null","",NA,NA,NA,NA,""
"image-keyboard-response",238,248431,"0.0-3.75-2.75","2r3ptwvy965fj5t",350,"34.csv","","null","resources/images/coin2.png","null","",NA,NA,NA,NA,""
"image-keyboard-response",239,249685,"0.0-3.76-0.76","2r3ptwvy965fj5t",350,"34.csv","","1252","resources/trios/L2T1A1.jpg","39","restless",0.4,0.3,0.8,0.0404422523891795,"true"
"image-keyboard-response",240,250087,"0.0-3.76-1.76","2r3ptwvy965fj5t",350,"34.csv","","null","resources/maskTrios/BBA1.jpg","null","",NA,NA,NA,NA,""
"image-keyboard-response",241,251290,"0.0-3.76-2.76","2r3ptwvy965fj5t",350,"34.csv","","null","resources/images/coin2.png","null","",NA,NA,NA,NA,""
"image-keyboard-response",242,251735,"0.0-3.77-0.77","2r3ptwvy965fj5t",350,"34.csv","","443","resources/trios/L1T4A3.jpg","39","restless",0.4,0.3,0.8,0.288311722320273,"true"
"image-keyboard-response",243,252138,"0.0-3.77-1.77","2r3ptwvy965fj5t",350,"34.csv","","null","resources/maskTrios/BBA3.jpg","null","",NA,NA,NA,NA,""
"image-keyboard-response",244,253340,"0.0-3.77-2.77","2r3ptwvy965fj5t",350,"34.csv","","null","resources/images/coin2.png","null","",NA,NA,NA,NA,""
"image-keyboard-response",245,253824,"0.0-3.78-0.78","2r3ptwvy965fj5t",350,"34.csv","","481","resources/trios/L2T1A3.jpg","39","restless",0.4,0.3,0.8,0.648201509533972,"true"
"image-keyboard-response",246,254226,"0.0-3.78-1.78","2r3ptwvy965fj5t",350,"34.csv","","null","resources/maskTrios/BBA3.jpg","null","",NA,NA,NA,NA,""
"image-keyboard-response",247,255429,"0.0-3.78-2.78","2r3ptwvy965fj5t",350,"34.csv","","null","resources/images/coin2.png","null","",NA,NA,NA,NA,""
"image-keyboard-response",248,255795,"0.0-3.79-0.79","2r3ptwvy965fj5t",350,"34.csv","","365","resources/trios/L2T1A1.jpg","39","restless",0.4,0.3,0.8,0.116299090664182,"true"
"image-keyboard-response",249,256198,"0.0-3.79-1.79","2r3ptwvy965fj5t",350,"34.csv","","null","resources/maskTrios/BBA1.jpg","null","",NA,NA,NA,NA,""
"image-keyboard-response",250,257401,"0.0-3.79-2.79","2r3ptwvy965fj5t",350,"34.csv","","null","resources/images/coin2.png","null","",NA,NA,NA,NA,""
"image-keyboard-response",251,257899,"0.0-3.80-0.80","2r3ptwvy965fj5t",350,"34.csv","","492.9999999999709","resources/trios/L1T1A3.jpg","39","restless",0.4,0.3,0.8,0.749159126832168,"true"
"image-keyboard-response",252,258302,"0.0-3.80-1.80","2r3ptwvy965fj5t",350,"34.csv","","null","resources/maskTrios/BBA3.jpg","null","",NA,NA,NA,NA,""
"image-keyboard-response",253,259505,"0.0-3.80-2.80","2r3ptwvy965fj5t",350,"34.csv","","null","resources/images/coin2.png","null","",NA,NA,NA,NA,""
"image-keyboard-response",254,260113,"0.0-3.81-0.81","2r3ptwvy965fj5t",350,"34.csv","","602.9999999999709","resources/trios/L1T4A1.jpg","39","restless",0.4,0.3,0.8,0.24492391654718,"true"
"image-keyboard-response",255,260515,"0.0-3.81-1.81","2r3ptwvy965fj5t",350,"34.csv","","null","resources/maskTrios/BBA1.jpg","null","",NA,NA,NA,NA,""
"image-keyboard-response",256,261718,"0.0-3.81-2.81","2r3ptwvy965fj5t",350,"34.csv","","null","resources/images/coin2.png","null","",NA,NA,NA,NA,""
"image-keyboard-response",257,262148,"0.0-3.82-0.82","2r3ptwvy965fj5t",350,"34.csv","","427","resources/trios/L2T1A3.jpg","39","restless",0.4,0.3,0.8,0.815150607270111,"false"
"image-keyboard-response",258,262550,"0.0-3.82-1.82","2r3ptwvy965fj5t",350,"34.csv","","null","resources/maskTrios/BBA3.jpg","null","",NA,NA,NA,NA,""
"image-keyboard-response",259,263752,"0.0-3.82-2.82","2r3ptwvy965fj5t",350,"34.csv","","null","resources/images/fishbone.png","null","",NA,NA,NA,NA,""
"image-keyboard-response",260,264591,"0.0-3.83-0.83","2r3ptwvy965fj5t",350,"34.csv","","837","resources/trios/L2T4A3.jpg","37","restless",0.4,0.4,0.8,0.0893098711697834,"true"
"image-keyboard-response",261,264994,"0.0-3.83-1.83","2r3ptwvy965fj5t",350,"34.csv","","null","resources/maskTrios/L2BB.jpg","null","",NA,NA,NA,NA,""
"image-keyboard-response",262,266196,"0.0-3.83-2.83","2r3ptwvy965fj5t",350,"34.csv","","null","resources/images/coin2.png","null","",NA,NA,NA,NA,""
"image-keyboard-response",263,266631,"0.0-3.84-0.84","2r3ptwvy965fj5t",350,"34.csv","","432","resources/trios/L1T1A1.jpg","39","restless",0.4,0.4,0.8,0.687407839193958,"true"
"image-keyboard-response",264,267033,"0.0-3.84-1.84","2r3ptwvy965fj5t",350,"34.csv","","null","resources/maskTrios/BBA1.jpg","null","",NA,NA,NA,NA,""
"image-keyboard-response",265,268236,"0.0-3.84-2.84","2r3ptwvy965fj5t",350,"34.csv","","null","resources/images/coin2.png","null","",NA,NA,NA,NA,""
"image-keyboard-response",266,268663,"0.0-3.85-0.85","2r3ptwvy965fj5t",350,"34.csv","","425","resources/trios/L2T4A1.jpg","39","restless",0.4,0.4,0.8,0.751092773452788,"true"
"image-keyboard-response",267,269064,"0.0-3.85-1.85","2r3ptwvy965fj5t",350,"34.csv","","null","resources/maskTrios/BBA1.jpg","null","",NA,NA,NA,NA,""
"image-keyboard-response",268,270267,"0.0-3.85-2.85","2r3ptwvy965fj5t",350,"34.csv","","null","resources/images/coin2.png","null","",NA,NA,NA,NA,""
"image-keyboard-response",269,270712,"0.0-3.86-0.86","2r3ptwvy965fj5t",350,"34.csv","","442","resources/trios/L2T4A1.jpg","39","restless",0.5,0.4,0.8,0.384843490084206,"true"
"image-keyboard-response",270,271114,"0.0-3.86-1.86","2r3ptwvy965fj5t",350,"34.csv","","null","resources/maskTrios/BBA1.jpg","null","",NA,NA,NA,NA,""
"image-keyboard-response",271,272317,"0.0-3.86-2.86","2r3ptwvy965fj5t",350,"34.csv","","null","resources/images/coin2.png","null","",NA,NA,NA,NA,""
"image-keyboard-response",272,272718,"0.0-3.87-0.87","2r3ptwvy965fj5t",350,"34.csv","","397.9999999999418","resources/trios/L2T4A1.jpg","39","restless",0.5,0.4,0.8,0.622719266825376,"true"
"image-keyboard-response",273,273122,"0.0-3.87-1.87","2r3ptwvy965fj5t",350,"34.csv","","null","resources/maskTrios/BBA1.jpg","null","",NA,NA,NA,NA,""
"image-keyboard-response",274,274325,"0.0-3.87-2.87","2r3ptwvy965fj5t",350,"34.csv","","null","resources/images/coin2.png","null","",NA,NA,NA,NA,""
"image-keyboard-response",275,274736,"0.0-3.88-0.88","2r3ptwvy965fj5t",350,"34.csv","","409","resources/trios/L2T4A1.jpg","39","restless",0.6,0.5,0.8,0.316572136430817,"true"
"image-keyboard-response",276,275138,"0.0-3.88-1.88","2r3ptwvy965fj5t",350,"34.csv","","null","resources/maskTrios/BBA1.jpg","null","",NA,NA,NA,NA,""
"image-keyboard-response",277,276343,"0.0-3.88-2.88","2r3ptwvy965fj5t",350,"34.csv","","null","resources/images/coin2.png","null","",NA,NA,NA,NA,""
"image-keyboard-response",278,276811,"0.0-3.89-0.89","2r3ptwvy965fj5t",350,"34.csv","","465","resources/trios/L2T1A1.jpg","39","restless",0.6,0.5,0.8,0.304820750095399,"true"
"image-keyboard-response",279,277213,"0.0-3.89-1.89","2r3ptwvy965fj5t",350,"34.csv","","null","resources/maskTrios/BBA1.jpg","null","",NA,NA,NA,NA,""
"image-keyboard-response",280,278416,"0.0-3.89-2.89","2r3ptwvy965fj5t",350,"34.csv","","null","resources/images/coin2.png","null","",NA,NA,NA,NA,""
"image-keyboard-response",281,278881,"0.0-3.90-0.90","2r3ptwvy965fj5t",350,"34.csv","","462","resources/trios/L1T1A3.jpg","39","restless",0.6,0.5,0.8,0.69324257044885,"true"
"image-keyboard-response",282,279283,"0.0-3.90-1.90","2r3ptwvy965fj5t",350,"34.csv","","null","resources/maskTrios/BBA3.jpg","null","",NA,NA,NA,NA,""
"image-keyboard-response",283,280486,"0.0-3.90-2.90","2r3ptwvy965fj5t",350,"34.csv","","null","resources/images/coin2.png","null","",NA,NA,NA,NA,""
"image-keyboard-response",284,280943,"0.0-3.91-0.91","2r3ptwvy965fj5t",350,"34.csv","","453","resources/trios/L2T1A1.jpg","39","restless",0.6,0.5,0.8,0.188604063807542,"true"
"image-keyboard-response",285,281346,"0.0-3.91-1.91","2r3ptwvy965fj5t",350,"34.csv","","null","resources/maskTrios/BBA1.jpg","null","",NA,NA,NA,NA,""
"image-keyboard-response",286,282549,"0.0-3.91-2.91","2r3ptwvy965fj5t",350,"34.csv","","null","resources/images/coin2.png","null","",NA,NA,NA,NA,""
"image-keyboard-response",287,283033,"0.0-3.92-0.92","2r3ptwvy965fj5t",350,"34.csv","","483.0000000000582","resources/trios/L2T4A1.jpg","39","restless",0.6,0.5,0.8,0.898996372268878,"false"
"image-keyboard-response",288,283436,"0.0-3.92-1.92","2r3ptwvy965fj5t",350,"34.csv","","null","resources/maskTrios/BBA1.jpg","null","",NA,NA,NA,NA,""
"image-keyboard-response",289,284638,"0.0-3.92-2.92","2r3ptwvy965fj5t",350,"34.csv","","null","resources/images/fishbone.png","null","",NA,NA,NA,NA,""
"image-keyboard-response",290,285120,"0.0-3.93-0.93","2r3ptwvy965fj5t",350,"34.csv","","476","resources/trios/L1T4A1.jpg","37","restless",0.6,0.5,0.8,0.0786124228850472,"true"
"image-keyboard-response",291,285523,"0.0-3.93-1.93","2r3ptwvy965fj5t",350,"34.csv","","null","resources/maskTrios/L1BB.jpg","null","",NA,NA,NA,NA,""
"image-keyboard-response",292,286726,"0.0-3.93-2.93","2r3ptwvy965fj5t",350,"34.csv","","null","resources/images/coin2.png","null","",NA,NA,NA,NA,""
"image-keyboard-response",293,287279,"0.0-3.94-0.94","2r3ptwvy965fj5t",350,"34.csv","","551","resources/trios/L1T1A3.jpg","39","restless",0.6,0.5,0.8,0.313297638446251,"true"
"image-keyboard-response",294,287682,"0.0-3.94-1.94","2r3ptwvy965fj5t",350,"34.csv","","null","resources/maskTrios/BBA3.jpg","null","",NA,NA,NA,NA,""
"image-keyboard-response",295,288884,"0.0-3.94-2.94","2r3ptwvy965fj5t",350,"34.csv","","null","resources/images/coin2.png","null","",NA,NA,NA,NA,""
"image-keyboard-response",296,289569,"0.0-3.95-0.95","2r3ptwvy965fj5t",350,"34.csv","","683.0000000000582","resources/trios/L1T1A1.jpg","39","restless",0.6,0.5,0.8,0.289091139841986,"true"
"image-keyboard-response",297,289971,"0.0-3.95-1.95","2r3ptwvy965fj5t",350,"34.csv","","null","resources/maskTrios/BBA1.jpg","null","",NA,NA,NA,NA,""
"image-keyboard-response",298,291174,"0.0-3.95-2.95","2r3ptwvy965fj5t",350,"34.csv","","null","resources/images/coin2.png","null","",NA,NA,NA,NA,""
"image-keyboard-response",299,292045,"0.0-3.96-0.96","2r3ptwvy965fj5t",350,"34.csv","","869.0000000000582","resources/trios/L2T4A3.jpg","39","restless",0.6,0.5,0.8,0.190921617204808,"true"
"image-keyboard-response",300,292448,"0.0-3.96-1.96","2r3ptwvy965fj5t",350,"34.csv","","null","resources/maskTrios/BBA3.jpg","null","",NA,NA,NA,NA,""
"image-keyboard-response",301,293651,"0.0-3.96-2.96","2r3ptwvy965fj5t",350,"34.csv","","null","resources/images/coin2.png","null","",NA,NA,NA,NA,""
"image-keyboard-response",302,294448,"0.0-3.97-0.97","2r3ptwvy965fj5t",350,"34.csv","","796","resources/trios/L1T4A1.jpg","39","restless",0.6,0.4,0.8,0.33595537423252,"true"
"image-keyboard-response",303,294851,"0.0-3.97-1.97","2r3ptwvy965fj5t",350,"34.csv","","null","resources/maskTrios/BBA1.jpg","null","",NA,NA,NA,NA,""
"image-keyboard-response",304,296053,"0.0-3.97-2.97","2r3ptwvy965fj5t",350,"34.csv","","null","resources/images/coin2.png","null","",NA,NA,NA,NA,""
"image-keyboard-response",305,297621,"0.0-3.98-0.98","2r3ptwvy965fj5t",350,"34.csv","","1566","resources/trios/L2T1A3.jpg","39","restless",0.6,0.4,0.8,0.506606948915829,"true"
"image-keyboard-response",306,298024,"0.0-3.98-1.98","2r3ptwvy965fj5t",350,"34.csv","","null","resources/maskTrios/BBA3.jpg","null","",NA,NA,NA,NA,""
"image-keyboard-response",307,299226,"0.0-3.98-2.98","2r3ptwvy965fj5t",350,"34.csv","","null","resources/images/coin2.png","null","",NA,NA,NA,NA,""
"image-keyboard-response",308,299831,"0.0-3.99-0.99","2r3ptwvy965fj5t",350,"34.csv","","602.0000000000582","resources/trios/L2T1A3.jpg","39","restless",0.5,0.4,0.7,0.0714217633034716,"true"
"image-keyboard-response",309,300235,"0.0-3.99-1.99","2r3ptwvy965fj5t",350,"34.csv","","null","resources/maskTrios/BBA3.jpg","null","",NA,NA,NA,NA,""
"image-keyboard-response",310,301438,"0.0-3.99-2.99","2r3ptwvy965fj5t",350,"34.csv","","null","resources/images/coin2.png","null","",NA,NA,NA,NA,""
"image-keyboard-response",311,302219,"0.0-3.100-0.100","2r3ptwvy965fj5t",350,"34.csv","","776","resources/trios/L1T1A3.jpg","39","restless",0.5,0.4,0.7,0.890776316406415,"false"
"image-keyboard-response",312,302622,"0.0-3.100-1.100","2r3ptwvy965fj5t",350,"34.csv","","null","resources/maskTrios/BBA3.jpg","null","",NA,NA,NA,NA,""
"image-keyboard-response",313,303824,"0.0-3.100-2.100","2r3ptwvy965fj5t",350,"34.csv","","null","resources/images/fishbone.png","null","",NA,NA,NA,NA,""
"image-keyboard-response",314,304705,"0.0-3.101-0.101","2r3ptwvy965fj5t",350,"34.csv","","879","resources/trios/L1T1A3.jpg","37","restless",0.5,0.4,0.7,0.378226571666267,"true"
"image-keyboard-response",315,305108,"0.0-3.101-1.101","2r3ptwvy965fj5t",350,"34.csv","","null","resources/maskTrios/L1BB.jpg","null","",NA,NA,NA,NA,""
"image-keyboard-response",316,306310,"0.0-3.101-2.101","2r3ptwvy965fj5t",350,"34.csv","","null","resources/images/coin2.png","null","",NA,NA,NA,NA,""
"image-keyboard-response",317,306848,"0.0-3.102-0.102","2r3ptwvy965fj5t",350,"34.csv","","536","resources/trios/L1T4A1.jpg","39","restless",0.5,0.4,0.7,0.404465732330668,"true"
"image-keyboard-response",318,307251,"0.0-3.102-1.102","2r3ptwvy965fj5t",350,"34.csv","","null","resources/maskTrios/BBA1.jpg","null","",NA,NA,NA,NA,""
"image-keyboard-response",319,308453,"0.0-3.102-2.102","2r3ptwvy965fj5t",350,"34.csv","","null","resources/images/coin2.png","null","",NA,NA,NA,NA,""
"image-keyboard-response",320,309015,"0.0-3.103-0.103","2r3ptwvy965fj5t",350,"34.csv","","561","resources/trios/L2T1A1.jpg","39","restless",0.5,0.4,0.7,0.568939337458817,"true"
"image-keyboard-response",321,309418,"0.0-3.103-1.103","2r3ptwvy965fj5t",350,"34.csv","","null","resources/maskTrios/BBA1.jpg","null","",NA,NA,NA,NA,""
"image-keyboard-response",322,310623,"0.0-3.103-2.103","2r3ptwvy965fj5t",350,"34.csv","","null","resources/images/coin2.png","null","",NA,NA,NA,NA,""
"image-keyboard-response",323,312673,"0.0-3.104-0.104","2r3ptwvy965fj5t",350,"34.csv","","2045","resources/trios/L1T4A1.jpg","39","restless",0.5,0.4,0.7,0.261446099125762,"true"
"image-keyboard-response",324,313075,"0.0-3.104-1.104","2r3ptwvy965fj5t",350,"34.csv","","null","resources/maskTrios/BBA1.jpg","null","",NA,NA,NA,NA,""
"image-keyboard-response",325,314278,"0.0-3.104-2.104","2r3ptwvy965fj5t",350,"34.csv","","null","resources/images/coin2.png","null","",NA,NA,NA,NA,""
"image-keyboard-response",326,314849,"0.0-3.105-0.105","2r3ptwvy965fj5t",350,"34.csv","","568","resources/trios/L1T4A3.jpg","39","restless",0.5,0.4,0.7,0.552727931093255,"true"
"image-keyboard-response",327,315252,"0.0-3.105-1.105","2r3ptwvy965fj5t",350,"34.csv","","null","resources/maskTrios/BBA3.jpg","null","",NA,NA,NA,NA,""
"image-keyboard-response",328,316455,"0.0-3.105-2.105","2r3ptwvy965fj5t",350,"34.csv","","null","resources/images/coin2.png","null","",NA,NA,NA,NA,""
"image-keyboard-response",329,317622,"0.0-3.106-0.106","2r3ptwvy965fj5t",350,"34.csv","","1166","resources/trios/L1T1A1.jpg","39","restless",0.5,0.4,0.7,0.180983770412223,"true"
"image-keyboard-response",330,318025,"0.0-3.106-1.106","2r3ptwvy965fj5t",350,"34.csv","","null","resources/maskTrios/BBA1.jpg","null","",NA,NA,NA,NA,""
"image-keyboard-response",331,319228,"0.0-3.106-2.106","2r3ptwvy965fj5t",350,"34.csv","","null","resources/images/coin2.png","null","",NA,NA,NA,NA,""
"image-keyboard-response",332,320582,"0.0-3.107-0.107","2r3ptwvy965fj5t",350,"34.csv","","1351.9999999999418","resources/trios/L2T1A1.jpg","39","restless",0.5,0.4,0.7,0.64850804287721,"true"
"image-keyboard-response",333,320984,"0.0-3.107-1.107","2r3ptwvy965fj5t",350,"34.csv","","null","resources/maskTrios/BBA1.jpg","null","",NA,NA,NA,NA,""
"image-keyboard-response",334,322187,"0.0-3.107-2.107","2r3ptwvy965fj5t",350,"34.csv","","null","resources/images/coin2.png","null","",NA,NA,NA,NA,""
"image-keyboard-response",335,322782,"0.0-3.108-0.108","2r3ptwvy965fj5t",350,"34.csv","","593","resources/trios/L1T4A1.jpg","39","restless",0.5,0.4,0.7,0.427648058258811,"true"
"image-keyboard-response",336,323186,"0.0-3.108-1.108","2r3ptwvy965fj5t",350,"34.csv","","null","resources/maskTrios/BBA1.jpg","null","",NA,NA,NA,NA,""
"image-keyboard-response",337,324389,"0.0-3.108-2.108","2r3ptwvy965fj5t",350,"34.csv","","null","resources/images/coin2.png","null","",NA,NA,NA,NA,""
"image-keyboard-response",338,324957,"0.0-3.109-0.109","2r3ptwvy965fj5t",350,"34.csv","","562","resources/trios/L2T4A3.jpg","39","restless",0.5,0.4,0.7,0.39091836893798,"true"
"image-keyboard-response",339,325359,"0.0-3.109-1.109","2r3ptwvy965fj5t",350,"34.csv","","null","resources/maskTrios/BBA3.jpg","null","",NA,NA,NA,NA,""
"image-keyboard-response",340,326562,"0.0-3.109-2.109","2r3ptwvy965fj5t",350,"34.csv","","null","resources/images/coin2.png","null","",NA,NA,NA,NA,""
"image-keyboard-response",341,327032,"0.0-3.110-0.110","2r3ptwvy965fj5t",350,"34.csv","","467","resources/trios/L1T1A1.jpg","39","restless",0.5,0.4,0.7,0.119452359273512,"true"
"image-keyboard-response",342,327434,"0.0-3.110-1.110","2r3ptwvy965fj5t",350,"34.csv","","null","resources/maskTrios/BBA1.jpg","null","",NA,NA,NA,NA,""
"image-keyboard-response",343,328636,"0.0-3.110-2.110","2r3ptwvy965fj5t",350,"34.csv","","null","resources/images/coin2.png","null","",NA,NA,NA,NA,""
"image-keyboard-response",344,329247,"0.0-3.111-0.111","2r3ptwvy965fj5t",350,"34.csv","","608.0000000000582","resources/trios/L2T4A3.jpg","39","restless",0.5,0.4,0.7,0.602538608803677,"true"
"image-keyboard-response",345,329649,"0.0-3.111-1.111","2r3ptwvy965fj5t",350,"34.csv","","null","resources/maskTrios/BBA3.jpg","null","",NA,NA,NA,NA,""
"image-keyboard-response",346,330853,"0.0-3.111-2.111","2r3ptwvy965fj5t",350,"34.csv","","null","resources/images/coin2.png","null","",NA,NA,NA,NA,""
"image-keyboard-response",347,331251,"0.0-3.112-0.112","2r3ptwvy965fj5t",350,"34.csv","","396","resources/trios/L2T4A3.jpg","39","restless",0.5,0.4,0.7,0.30524769820993,"true"
"image-keyboard-response",348,331654,"0.0-3.112-1.112","2r3ptwvy965fj5t",350,"34.csv","","null","resources/maskTrios/BBA3.jpg","null","",NA,NA,NA,NA,""
"image-keyboard-response",349,332857,"0.0-3.112-2.112","2r3ptwvy965fj5t",350,"34.csv","","null","resources/images/coin2.png","null","",NA,NA,NA,NA,""
"image-keyboard-response",350,333851,"0.0-3.113-0.113","2r3ptwvy965fj5t",350,"34.csv","","992","resources/trios/L1T4A1.jpg","39","restless",0.5,0.4,0.8,0.131203079622707,"true"
"image-keyboard-response",351,334253,"0.0-3.113-1.113","2r3ptwvy965fj5t",350,"34.csv","","null","resources/maskTrios/BBA1.jpg","null","",NA,NA,NA,NA,""
"image-keyboard-response",352,335456,"0.0-3.113-2.113","2r3ptwvy965fj5t",350,"34.csv","","null","resources/images/coin2.png","null","",NA,NA,NA,NA,""
"image-keyboard-response",353,335614,"0.0-3.114-0.114","2r3ptwvy965fj5t",350,"34.csv","","156","resources/trios/L2T4A1.jpg","39","restless",0.5,0.4,0.8,0.291120446089221,"true"
"image-keyboard-response",354,336017,"0.0-3.114-1.114","2r3ptwvy965fj5t",350,"34.csv","","null","resources/maskTrios/BBA1.jpg","null","",NA,NA,NA,NA,""
"image-keyboard-response",355,337223,"0.0-3.114-2.114","2r3ptwvy965fj5t",350,"34.csv","","null","resources/images/coin2.png","null","",NA,NA,NA,NA,""
"image-keyboard-response",356,337649,"0.0-3.115-0.115","2r3ptwvy965fj5t",350,"34.csv","","423","resources/trios/L1T1A1.jpg","39","restless",0.5,0.3,0.8,0.829339817950238,"false"
"image-keyboard-response",357,338052,"0.0-3.115-1.115","2r3ptwvy965fj5t",350,"34.csv","","null","resources/maskTrios/BBA1.jpg","null","",NA,NA,NA,NA,""
"image-keyboard-response",358,339255,"0.0-3.115-2.115","2r3ptwvy965fj5t",350,"34.csv","","null","resources/images/fishbone.png","null","",NA,NA,NA,NA,""
"image-keyboard-response",359,340136,"0.0-3.116-0.116","2r3ptwvy965fj5t",350,"34.csv","","879","resources/trios/L1T1A1.jpg","37","restless",0.5,0.3,0.8,0.0633282163396425,"true"
"image-keyboard-response",360,340537,"0.0-3.116-1.116","2r3ptwvy965fj5t",350,"34.csv","","null","resources/maskTrios/L1BB.jpg","null","",NA,NA,NA,NA,""
"image-keyboard-response",361,341740,"0.0-3.116-2.116","2r3ptwvy965fj5t",350,"34.csv","","null","resources/images/coin2.png","null","",NA,NA,NA,NA,""
"image-keyboard-response",362,342530,"0.0-3.117-0.117","2r3ptwvy965fj5t",350,"34.csv","","787","resources/trios/L1T4A1.jpg","39","restless",0.5,0.3,0.8,0.626682026777113,"true"
"image-keyboard-response",363,342932,"0.0-3.117-1.117","2r3ptwvy965fj5t",350,"34.csv","","null","resources/maskTrios/BBA1.jpg","null","",NA,NA,NA,NA,""
"image-keyboard-response",364,344136,"0.0-3.117-2.117","2r3ptwvy965fj5t",350,"34.csv","","null","resources/images/coin2.png","null","",NA,NA,NA,NA,""
"image-keyboard-response",365,344710,"0.0-3.118-0.118","2r3ptwvy965fj5t",350,"34.csv","","573","resources/trios/L1T4A1.jpg","39","restless",0.5,0.3,0.8,0.699894493307863,"true"
"image-keyboard-response",366,345113,"0.0-3.118-1.118","2r3ptwvy965fj5t",350,"34.csv","","null","resources/maskTrios/BBA1.jpg","null","",NA,NA,NA,NA,""
"image-keyboard-response",367,346316,"0.0-3.118-2.118","2r3ptwvy965fj5t",350,"34.csv","","null","resources/images/coin2.png","null","",NA,NA,NA,NA,""
"image-keyboard-response",368,346858,"0.0-3.119-0.119","2r3ptwvy965fj5t",350,"34.csv","","538","resources/trios/L1T4A1.jpg","39","restless",0.5,0.3,0.8,0.81193609230869,"false"
"image-keyboard-response",369,347261,"0.0-3.119-1.119","2r3ptwvy965fj5t",350,"34.csv","","null","resources/maskTrios/BBA1.jpg","null","",NA,NA,NA,NA,""
"image-keyboard-response",370,348463,"0.0-3.119-2.119","2r3ptwvy965fj5t",350,"34.csv","","null","resources/images/fishbone.png","null","",NA,NA,NA,NA,""
"image-keyboard-response",371,349870,"0.0-3.120-0.120","2r3ptwvy965fj5t",350,"34.csv","","1404","resources/trios/L1T4A1.jpg","39","restless",0.5,0.3,0.8,0.00658881460591831,"true"
"image-keyboard-response",372,350273,"0.0-3.120-1.120","2r3ptwvy965fj5t",350,"34.csv","","null","resources/maskTrios/BBA1.jpg","null","",NA,NA,NA,NA,""
"image-keyboard-response",373,351476,"0.0-3.120-2.120","2r3ptwvy965fj5t",350,"34.csv","","null","resources/images/coin2.png","null","",NA,NA,NA,NA,""
"image-keyboard-response",374,352593,"0.0-3.121-0.121","2r3ptwvy965fj5t",350,"34.csv","","1114.0000000000582","resources/trios/L1T4A1.jpg","39","restless",0.5,0.3,0.8,0.761365059339516,"true"
"image-keyboard-response",375,352996,"0.0-3.121-1.121","2r3ptwvy965fj5t",350,"34.csv","","null","resources/maskTrios/BBA1.jpg","null","",NA,NA,NA,NA,""
"image-keyboard-response",376,354199,"0.0-3.121-2.121","2r3ptwvy965fj5t",350,"34.csv","","null","resources/images/coin2.png","null","",NA,NA,NA,NA,""
"image-keyboard-response",377,354242,"0.0-3.122-0.122","2r3ptwvy965fj5t",350,"34.csv","","41","resources/trios/L2T1A3.jpg","39","restless",0.6,0.3,0.8,0.966082927035487,"false"
"image-keyboard-response",378,354645,"0.0-3.122-1.122","2r3ptwvy965fj5t",350,"34.csv","","null","resources/maskTrios/BBA3.jpg","null","",NA,NA,NA,NA,""
"image-keyboard-response",379,355847,"0.0-3.122-2.122","2r3ptwvy965fj5t",350,"34.csv","","null","resources/images/fishbone.png","null","",NA,NA,NA,NA,""
"image-keyboard-response",380,356813,"0.0-3.123-0.123","2r3ptwvy965fj5t",350,"34.csv","","963","resources/trios/L1T4A3.jpg","39","restless",0.6,0.3,0.8,0.144032399341467,"true"
"image-keyboard-response",381,357215,"0.0-3.123-1.123","2r3ptwvy965fj5t",350,"34.csv","","null","resources/maskTrios/BBA3.jpg","null","",NA,NA,NA,NA,""
"image-keyboard-response",382,358418,"0.0-3.123-2.123","2r3ptwvy965fj5t",350,"34.csv","","null","resources/images/coin2.png","null","",NA,NA,NA,NA,""
"image-keyboard-response",383,359194,"0.0-3.124-0.124","2r3ptwvy965fj5t",350,"34.csv","","774","resources/trios/L1T1A3.jpg","39","restless",0.6,0.3,0.8,0.953272690343999,"false"
"image-keyboard-response",384,359597,"0.0-3.124-1.124","2r3ptwvy965fj5t",350,"34.csv","","null","resources/maskTrios/BBA3.jpg","null","",NA,NA,NA,NA,""
"image-keyboard-response",385,360799,"0.0-3.124-2.124","2r3ptwvy965fj5t",350,"34.csv","","null","resources/images/fishbone.png","null","",NA,NA,NA,NA,""
"image-keyboard-response",386,361343,"0.0-3.125-0.125","2r3ptwvy965fj5t",350,"34.csv","","542","resources/trios/L1T4A3.jpg","39","restless",0.6,0.3,0.8,0.0440370196447099,"true"
"image-keyboard-response",387,361746,"0.0-3.125-1.125","2r3ptwvy965fj5t",350,"34.csv","","null","resources/maskTrios/BBA3.jpg","null","",NA,NA,NA,NA,""
"image-keyboard-response",388,362949,"0.0-3.125-2.125","2r3ptwvy965fj5t",350,"34.csv","","null","resources/images/coin2.png","null","",NA,NA,NA,NA,""
"image-keyboard-response",389,363689,"0.0-3.126-0.126","2r3ptwvy965fj5t",350,"34.csv","","737","resources/trios/L1T1A1.jpg","39","restless",0.5,0.4,0.8,0.545010770087952,"true"
"image-keyboard-response",390,364092,"0.0-3.126-1.126","2r3ptwvy965fj5t",350,"34.csv","","null","resources/maskTrios/BBA1.jpg","null","",NA,NA,NA,NA,""
"image-keyboard-response",391,365296,"0.0-3.126-2.126","2r3ptwvy965fj5t",350,"34.csv","","null","resources/images/coin2.png","null","",NA,NA,NA,NA,""
"image-keyboard-response",392,365359,"0.0-3.127-0.127","2r3ptwvy965fj5t",350,"34.csv","","61.00000000005821","resources/trios/L1T4A3.jpg","39","restless",0.5,0.4,0.8,0.80349506544826,"false"
"image-keyboard-response",393,365762,"0.0-3.127-1.127","2r3ptwvy965fj5t",350,"34.csv","","null","resources/maskTrios/BBA3.jpg","null","",NA,NA,NA,NA,""
"image-keyboard-response",394,366964,"0.0-3.127-2.127","2r3ptwvy965fj5t",350,"34.csv","","null","resources/images/fishbone.png","null","",NA,NA,NA,NA,""
"image-keyboard-response",395,367544,"0.0-3.128-0.128","2r3ptwvy965fj5t",350,"34.csv","","574.0000000000582","resources/trios/L1T4A1.jpg","39","restless",0.5,0.4,0.8,0.402275100535316,"true"
"image-keyboard-response",396,367946,"0.0-3.128-1.128","2r3ptwvy965fj5t",350,"34.csv","","null","resources/maskTrios/BBA1.jpg","null","",NA,NA,NA,NA,""
"image-keyboard-response",397,369150,"0.0-3.128-2.128","2r3ptwvy965fj5t",350,"34.csv","","null","resources/images/coin2.png","null","",NA,NA,NA,NA,""
"image-keyboard-response",398,371964,"0.0-3.129-0.129","2r3ptwvy965fj5t",350,"34.csv","","2811.999999999942","resources/trios/L2T4A3.jpg","39","restless",0.5,0.4,0.8,0.178519463219851,"true"
"image-keyboard-response",399,372366,"0.0-3.129-1.129","2r3ptwvy965fj5t",350,"34.csv","","null","resources/maskTrios/BBA3.jpg","null","",NA,NA,NA,NA,""
"image-keyboard-response",400,373569,"0.0-3.129-2.129","2r3ptwvy965fj5t",350,"34.csv","","null","resources/images/coin2.png","null","",NA,NA,NA,NA,""
"image-keyboard-response",401,374220,"0.0-3.130-0.130","2r3ptwvy965fj5t",350,"34.csv","","648","resources/trios/L2T1A3.jpg","39","restless",0.5,0.4,0.8,0.0830436089620545,"true"
"image-keyboard-response",402,374622,"0.0-3.130-1.130","2r3ptwvy965fj5t",350,"34.csv","","null","resources/maskTrios/BBA3.jpg","null","",NA,NA,NA,NA,""
"image-keyboard-response",403,375828,"0.0-3.130-2.130","2r3ptwvy965fj5t",350,"34.csv","","null","resources/images/coin2.png","null","",NA,NA,NA,NA,""
"image-keyboard-response",404,376988,"0.0-3.131-0.131","2r3ptwvy965fj5t",350,"34.csv","","1157","resources/trios/L2T1A3.jpg","39","restless",0.5,0.4,0.8,0.980977518200613,"false"
"image-keyboard-response",405,377390,"0.0-3.131-1.131","2r3ptwvy965fj5t",350,"34.csv","","null","resources/maskTrios/BBA3.jpg","null","",NA,NA,NA,NA,""
"image-keyboard-response",406,378593,"0.0-3.131-2.131","2r3ptwvy965fj5t",350,"34.csv","","null","resources/images/fishbone.png","null","",NA,NA,NA,NA,""
"image-keyboard-response",407,379771,"0.0-3.132-0.132","2r3ptwvy965fj5t",350,"34.csv","","1176","resources/trios/L2T1A3.jpg","39","restless",0.6,0.4,0.8,0.668182545566148,"true"
"image-keyboard-response",408,380174,"0.0-3.132-1.132","2r3ptwvy965fj5t",350,"34.csv","","null","resources/maskTrios/BBA3.jpg","null","",NA,NA,NA,NA,""
"image-keyboard-response",409,381377,"0.0-3.132-2.132","2r3ptwvy965fj5t",350,"34.csv","","null","resources/images/coin2.png","null","",NA,NA,NA,NA,""
"image-keyboard-response",410,382231,"0.0-3.133-0.133","2r3ptwvy965fj5t",350,"34.csv","","852","resources/trios/L1T1A1.jpg","39","restless",0.6,0.4,0.8,0.349547860599247,"true"
"image-keyboard-response",411,382633,"0.0-3.133-1.133","2r3ptwvy965fj5t",350,"34.csv","","null","resources/maskTrios/BBA1.jpg","null","",NA,NA,NA,NA,""
"image-keyboard-response",412,383836,"0.0-3.133-2.133","2r3ptwvy965fj5t",350,"34.csv","","null","resources/images/coin2.png","null","",NA,NA,NA,NA,""
"image-keyboard-response",413,384367,"0.0-3.134-0.134","2r3ptwvy965fj5t",350,"34.csv","","529","resources/trios/L1T4A1.jpg","39","restless",0.6,0.5,0.7,0.560465860697216,"true"
"image-keyboard-response",414,384769,"0.0-3.134-1.134","2r3ptwvy965fj5t",350,"34.csv","","null","resources/maskTrios/BBA1.jpg","null","",NA,NA,NA,NA,""
"image-keyboard-response",415,385972,"0.0-3.134-2.134","2r3ptwvy965fj5t",350,"34.csv","","null","resources/images/coin2.png","null","",NA,NA,NA,NA,""
"image-keyboard-response",416,386409,"0.0-3.135-0.135","2r3ptwvy965fj5t",350,"34.csv","","434","resources/trios/L2T4A3.jpg","39","restless",0.6,0.5,0.7,0.873962390370134,"false"
"image-keyboard-response",417,386812,"0.0-3.135-1.135","2r3ptwvy965fj5t",350,"34.csv","","null","resources/maskTrios/BBA3.jpg","null","",NA,NA,NA,NA,""
"image-keyboard-response",418,388014,"0.0-3.135-2.135","2r3ptwvy965fj5t",350,"34.csv","","null","resources/images/fishbone.png","null","",NA,NA,NA,NA,""
"image-keyboard-response",419,388479,"0.0-3.136-0.136","2r3ptwvy965fj5t",350,"34.csv","","463.0000000000582","resources/trios/L2T1A3.jpg","39","restless",0.6,0.5,0.7,0.925734017834625,"false"
"image-keyboard-response",420,388881,"0.0-3.136-1.136","2r3ptwvy965fj5t",350,"34.csv","","null","resources/maskTrios/BBA3.jpg","null","",NA,NA,NA,NA,""
"image-keyboard-response",421,390084,"0.0-3.136-2.136","2r3ptwvy965fj5t",350,"34.csv","","null","resources/images/fishbone.png","null","",NA,NA,NA,NA,""
"image-keyboard-response",422,390440,"0.0-3.137-0.137","2r3ptwvy965fj5t",350,"34.csv","","354","resources/trios/L2T1A3.jpg","39","restless",0.6,0.5,0.7,0.672412795033702,"true"
"image-keyboard-response",423,390842,"0.0-3.137-1.137","2r3ptwvy965fj5t",350,"34.csv","","null","resources/maskTrios/BBA3.jpg","null","",NA,NA,NA,NA,""
"image-keyboard-response",424,392049,"0.0-3.137-2.137","2r3ptwvy965fj5t",350,"34.csv","","null","resources/images/coin2.png","null","",NA,NA,NA,NA,""
"image-keyboard-response",425,392937,"0.0-3.138-0.138","2r3ptwvy965fj5t",350,"34.csv","","885","resources/trios/L2T1A3.jpg","39","restless",0.6,0.5,0.7,0.720403397265496,"false"
"image-keyboard-response",426,393339,"0.0-3.138-1.138","2r3ptwvy965fj5t",350,"34.csv","","null","resources/maskTrios/BBA3.jpg","null","",NA,NA,NA,NA,""
"image-keyboard-response",427,394541,"0.0-3.138-2.138","2r3ptwvy965fj5t",350,"34.csv","","null","resources/images/fishbone.png","null","",NA,NA,NA,NA,""
"image-keyboard-response",428,395452,"0.0-3.139-0.139","2r3ptwvy965fj5t",350,"34.csv","","907","resources/trios/L1T1A1.jpg","39","restless",0.6,0.5,0.7,0.852648325930338,"false"
"image-keyboard-response",429,395854,"0.0-3.139-1.139","2r3ptwvy965fj5t",350,"34.csv","","null","resources/maskTrios/BBA1.jpg","null","",NA,NA,NA,NA,""
"image-keyboard-response",430,397057,"0.0-3.139-2.139","2r3ptwvy965fj5t",350,"34.csv","","null","resources/images/fishbone.png","null","",NA,NA,NA,NA,""
"image-keyboard-response",431,400242,"0.0-3.140-0.140","2r3ptwvy965fj5t",350,"34.csv","","3183","resources/trios/L1T4A1.jpg","39","restless",0.6,0.5,0.6,0.930212994564986,"false"
"image-keyboard-response",432,400645,"0.0-3.140-1.140","2r3ptwvy965fj5t",350,"34.csv","","null","resources/maskTrios/BBA1.jpg","null","",NA,NA,NA,NA,""
"image-keyboard-response",433,401848,"0.0-3.140-2.140","2r3ptwvy965fj5t",350,"34.csv","","null","resources/images/fishbone.png","null","",NA,NA,NA,NA,""
"image-keyboard-response",434,402526,"0.0-3.141-0.141","2r3ptwvy965fj5t",350,"34.csv","","676.0000000000582","resources/trios/L1T4A3.jpg","37","restless",0.6,0.5,0.6,0.0452943650078415,"true"
"image-keyboard-response",435,402929,"0.0-3.141-1.141","2r3ptwvy965fj5t",350,"34.csv","","null","resources/maskTrios/L1BB.jpg","null","",NA,NA,NA,NA,""
"image-keyboard-response",436,404132,"0.0-3.141-2.141","2r3ptwvy965fj5t",350,"34.csv","","null","resources/images/coin2.png","null","",NA,NA,NA,NA,""
"image-keyboard-response",437,406359,"0.0-3.142-0.142","2r3ptwvy965fj5t",350,"34.csv","","2225","resources/trios/L2T1A1.jpg","39","restless",0.6,0.5,0.6,0.25203189345806,"true"
"image-keyboard-response",438,406762,"0.0-3.142-1.142","2r3ptwvy965fj5t",350,"34.csv","","null","resources/maskTrios/BBA1.jpg","null","",NA,NA,NA,NA,""
"image-keyboard-response",439,407965,"0.0-3.142-2.142","2r3ptwvy965fj5t",350,"34.csv","","null","resources/images/coin2.png","null","",NA,NA,NA,NA,""
"image-keyboard-response",440,408604,"0.0-3.143-0.143","2r3ptwvy965fj5t",350,"34.csv","","635.0000000000582","resources/trios/L1T1A3.jpg","39","restless",0.5,0.5,0.6,0.195231486610056,"true"
"image-keyboard-response",441,409006,"0.0-3.143-1.143","2r3ptwvy965fj5t",350,"34.csv","","null","resources/maskTrios/BBA3.jpg","null","",NA,NA,NA,NA,""
"image-keyboard-response",442,410209,"0.0-3.143-2.143","2r3ptwvy965fj5t",350,"34.csv","","null","resources/images/coin2.png","null","",NA,NA,NA,NA,""
"image-keyboard-response",443,410941,"0.0-3.144-0.144","2r3ptwvy965fj5t",350,"34.csv","","729","resources/trios/L2T1A1.jpg","39","restless",0.5,0.5,0.6,0.690065479884866,"false"
"image-keyboard-response",444,411343,"0.0-3.144-1.144","2r3ptwvy965fj5t",350,"34.csv","","null","resources/maskTrios/BBA1.jpg","null","",NA,NA,NA,NA,""
"image-keyboard-response",445,412546,"0.0-3.144-2.144","2r3ptwvy965fj5t",350,"34.csv","","null","resources/images/fishbone.png","null","",NA,NA,NA,NA,""
"image-keyboard-response",446,412681,"0.0-3.145-0.145","2r3ptwvy965fj5t",350,"34.csv","","133","resources/trios/L1T1A3.jpg","37","restless",0.6,0.5,0.6,0.353265029433238,"true"
"image-keyboard-response",447,413084,"0.0-3.145-1.145","2r3ptwvy965fj5t",350,"34.csv","","null","resources/maskTrios/L1BB.jpg","null","",NA,NA,NA,NA,""
"image-keyboard-response",448,414287,"0.0-3.145-2.145","2r3ptwvy965fj5t",350,"34.csv","","null","resources/images/coin2.png","null","",NA,NA,NA,NA,""
"image-keyboard-response",449,414895,"0.0-3.146-0.146","2r3ptwvy965fj5t",350,"34.csv","","606","resources/trios/L2T1A1.jpg","39","restless",0.6,0.5,0.6,0.13393308510268,"true"
"image-keyboard-response",450,415297,"0.0-3.146-1.146","2r3ptwvy965fj5t",350,"34.csv","","null","resources/maskTrios/BBA1.jpg","null","",NA,NA,NA,NA,""
"image-keyboard-response",451,416500,"0.0-3.146-2.146","2r3ptwvy965fj5t",350,"34.csv","","null","resources/images/coin2.png","null","",NA,NA,NA,NA,""
"image-keyboard-response",452,418064,"0.0-3.147-0.147","2r3ptwvy965fj5t",350,"34.csv","","1561.9999999999418","resources/trios/L1T4A1.jpg","39","restless",0.7,0.5,0.6,0.147692372121019,"true"
"image-keyboard-response",453,418467,"0.0-3.147-1.147","2r3ptwvy965fj5t",350,"34.csv","","null","resources/maskTrios/BBA1.jpg","null","",NA,NA,NA,NA,""
"image-keyboard-response",454,419669,"0.0-3.147-2.147","2r3ptwvy965fj5t",350,"34.csv","","null","resources/images/coin2.png","null","",NA,NA,NA,NA,""
"image-keyboard-response",455,419704,"0.0-3.148-0.148","2r3ptwvy965fj5t",350,"34.csv","","33.00000000005821","resources/trios/L2T1A1.jpg","39","restless",0.7,0.5,0.6,0.092578130666548,"true"
"image-keyboard-response",456,420106,"0.0-3.148-1.148","2r3ptwvy965fj5t",350,"34.csv","","null","resources/maskTrios/BBA1.jpg","null","",NA,NA,NA,NA,""
"image-keyboard-response",457,421309,"0.0-3.148-2.148","2r3ptwvy965fj5t",350,"34.csv","","null","resources/images/coin2.png","null","",NA,NA,NA,NA,""
"image-keyboard-response",458,421496,"0.0-3.149-0.149","2r3ptwvy965fj5t",350,"34.csv","","184.0000000000582","resources/trios/L2T4A1.jpg","39","restless",0.7,0.5,0.6,0.169117271031843,"true"
"image-keyboard-response",459,421899,"0.0-3.149-1.149","2r3ptwvy965fj5t",350,"34.csv","","null","resources/maskTrios/BBA1.jpg","null","",NA,NA,NA,NA,""
"image-keyboard-response",460,423102,"0.0-3.149-2.149","2r3ptwvy965fj5t",350,"34.csv","","null","resources/images/coin2.png","null","",NA,NA,NA,NA,""
"image-keyboard-response",461,436846,"0.0-3.150-0.150","2r3ptwvy965fj5t",350,"34.csv","","13737.999999999942","resources/trios/L1T4A3.jpg","39","restless",0.7,0.5,0.6,0.321965750830095,"true"
"image-keyboard-response",462,437248,"0.0-3.150-1.150","2r3ptwvy965fj5t",350,"34.csv","","null","resources/maskTrios/BBA3.jpg","null","",NA,NA,NA,NA,""
"image-keyboard-response",463,438451,"0.0-3.150-2.150","2r3ptwvy965fj5t",350,"34.csv","","null","resources/images/coin2.png","null","",NA,NA,NA,NA,""
"image-keyboard-response",464,439730,"0.0-3.151-0.151","2r3ptwvy965fj5t",350,"34.csv","","1275.9999999999418","resources/trios/L2T1A3.jpg","39","restless",0.7,0.6,0.6,0.0676106276530833,"true"
"image-keyboard-response",465,440132,"0.0-3.151-1.151","2r3ptwvy965fj5t",350,"34.csv","","null","resources/maskTrios/BBA3.jpg","null","",NA,NA,NA,NA,""
"image-keyboard-response",466,441335,"0.0-3.151-2.151","2r3ptwvy965fj5t",350,"34.csv","","null","resources/images/coin2.png","null","",NA,NA,NA,NA,""
"image-keyboard-response",467,441869,"0.0-3.152-0.152","2r3ptwvy965fj5t",350,"34.csv","","532","resources/trios/L2T1A1.jpg","39","restless",0.8,0.6,0.6,0.849713562812681,"false"
"image-keyboard-response",468,442271,"0.0-3.152-1.152","2r3ptwvy965fj5t",350,"34.csv","","null","resources/maskTrios/BBA1.jpg","null","",NA,NA,NA,NA,""
"image-keyboard-response",469,443474,"0.0-3.152-2.152","2r3ptwvy965fj5t",350,"34.csv","","null","resources/images/fishbone.png","null","",NA,NA,NA,NA,""
"image-keyboard-response",470,443650,"0.0-3.153-0.153","2r3ptwvy965fj5t",350,"34.csv","","174","resources/trios/L2T4A1.jpg","37","restless",0.8,0.6,0.6,0.811674844078757,"false"
"image-keyboard-response",471,444053,"0.0-3.153-1.153","2r3ptwvy965fj5t",350,"34.csv","","null","resources/maskTrios/L2BB.jpg","null","",NA,NA,NA,NA,""
"image-keyboard-response",472,445255,"0.0-3.153-2.153","2r3ptwvy965fj5t",350,"34.csv","","null","resources/images/fishbone.png","null","",NA,NA,NA,NA,""
"image-keyboard-response",473,445793,"0.0-3.154-0.154","2r3ptwvy965fj5t",350,"34.csv","","536","resources/trios/L1T1A1.jpg","39","restless",0.8,0.6,0.5,0.108837665017956,"true"
"image-keyboard-response",474,446195,"0.0-3.154-1.154","2r3ptwvy965fj5t",350,"34.csv","","null","resources/maskTrios/BBA1.jpg","null","",NA,NA,NA,NA,""
"image-keyboard-response",475,447398,"0.0-3.154-2.154","2r3ptwvy965fj5t",350,"34.csv","","null","resources/images/coin2.png","null","",NA,NA,NA,NA,""
"image-keyboard-response",476,453268,"0.0-3.155-0.155","2r3ptwvy965fj5t",350,"34.csv","","5868","resources/trios/L1T1A3.jpg","39","restless",0.8,0.6,0.5,0.448386086730918,"true"
"image-keyboard-response",477,453671,"0.0-3.155-1.155","2r3ptwvy965fj5t",350,"34.csv","","null","resources/maskTrios/BBA3.jpg","null","",NA,NA,NA,NA,""
"image-keyboard-response",478,454874,"0.0-3.155-2.155","2r3ptwvy965fj5t",350,"34.csv","","null","resources/images/coin2.png","null","",NA,NA,NA,NA,""
"image-keyboard-response",479,456306,"0.0-3.156-0.156","2r3ptwvy965fj5t",350,"34.csv","","1430","resources/trios/L1T4A3.jpg","39","restless",0.8,0.6,0.5,0.79122628095984,"false"
"image-keyboard-response",480,456710,"0.0-3.156-1.156","2r3ptwvy965fj5t",350,"34.csv","","null","resources/maskTrios/BBA3.jpg","null","",NA,NA,NA,NA,""
"image-keyboard-response",481,457913,"0.0-3.156-2.156","2r3ptwvy965fj5t",350,"34.csv","","null","resources/images/fishbone.png","null","",NA,NA,NA,NA,""
"image-keyboard-response",482,458738,"0.0-3.157-0.157","2r3ptwvy965fj5t",350,"34.csv","","823","resources/trios/L2T1A1.jpg","37","restless",0.8,0.5,0.5,0.172288806446107,"true"
"image-keyboard-response",483,459140,"0.0-3.157-1.157","2r3ptwvy965fj5t",350,"34.csv","","null","resources/maskTrios/L2BB.jpg","null","",NA,NA,NA,NA,""
"image-keyboard-response",484,460343,"0.0-3.157-2.157","2r3ptwvy965fj5t",350,"34.csv","","null","resources/images/coin2.png","null","",NA,NA,NA,NA,""
"image-keyboard-response",485,461276,"0.0-3.158-0.158","2r3ptwvy965fj5t",350,"34.csv","","931","resources/trios/L1T4A3.jpg","39","restless",0.8,0.5,0.5,0.285845245240302,"true"
"image-keyboard-response",486,461678,"0.0-3.158-1.158","2r3ptwvy965fj5t",350,"34.csv","","null","resources/maskTrios/BBA3.jpg","null","",NA,NA,NA,NA,""
"image-keyboard-response",487,462881,"0.0-3.158-2.158","2r3ptwvy965fj5t",350,"34.csv","","null","resources/images/coin2.png","null","",NA,NA,NA,NA,""
"image-keyboard-response",488,465348,"0.0-3.159-0.159","2r3ptwvy965fj5t",350,"34.csv","","2465","resources/trios/L1T4A1.jpg","39","restless",0.8,0.5,0.5,0.0825845646546273,"true"
"image-keyboard-response",489,465752,"0.0-3.159-1.159","2r3ptwvy965fj5t",350,"34.csv","","null","resources/maskTrios/BBA1.jpg","null","",NA,NA,NA,NA,""
"image-keyboard-response",490,466955,"0.0-3.159-2.159","2r3ptwvy965fj5t",350,"34.csv","","null","resources/images/coin2.png","null","",NA,NA,NA,NA,""
"image-keyboard-response",491,491867,"0.0-3.160-0.160","2r3ptwvy965fj5t",350,"34.csv","","24907","resources/trios/L2T4A1.jpg","39","restless",0.8,0.5,0.6,0.226159861654384,"true"
"image-keyboard-response",492,492270,"0.0-3.160-1.160","2r3ptwvy965fj5t",350,"34.csv","","null","resources/maskTrios/BBA1.jpg","null","",NA,NA,NA,NA,""
"image-keyboard-response",493,493472,"0.0-3.160-2.160","2r3ptwvy965fj5t",350,"34.csv","","null","resources/images/coin2.png","null","",NA,NA,NA,NA,""
"image-keyboard-response",494,495078,"0.0-3.161-0.161","2r3ptwvy965fj5t",350,"34.csv","","1602.0000000000582","resources/trios/L2T1A3.jpg","39","restless",0.8,0.5,0.6,0.496871390377309,"true"
"image-keyboard-response",495,495481,"0.0-3.161-1.161","2r3ptwvy965fj5t",350,"34.csv","","null","resources/maskTrios/BBA3.jpg","null","",NA,NA,NA,NA,""
"image-keyboard-response",496,496684,"0.0-3.161-2.161","2r3ptwvy965fj5t",350,"34.csv","","null","resources/images/coin2.png","null","",NA,NA,NA,NA,""
"image-keyboard-response",497,498304,"0.0-3.162-0.162","2r3ptwvy965fj5t",350,"34.csv","","1618","resources/trios/L1T4A3.jpg","39","restless",0.8,0.5,0.5,0.0847833807585505,"true"
"image-keyboard-response",498,498708,"0.0-3.162-1.162","2r3ptwvy965fj5t",350,"34.csv","","null","resources/maskTrios/BBA3.jpg","null","",NA,NA,NA,NA,""
"image-keyboard-response",499,499911,"0.0-3.162-2.162","2r3ptwvy965fj5t",350,"34.csv","","null","resources/images/coin2.png","null","",NA,NA,NA,NA,""
"image-keyboard-response",500,500970,"0.0-3.163-0.163","2r3ptwvy965fj5t",350,"34.csv","","1054","resources/trios/L1T1A3.jpg","39","restless",0.8,0.6,0.5,0.388612528537612,"true"
"image-keyboard-response",501,501373,"0.0-3.163-1.163","2r3ptwvy965fj5t",350,"34.csv","","null","resources/maskTrios/BBA3.jpg","null","",NA,NA,NA,NA,""
"image-keyboard-response",502,502576,"0.0-3.163-2.163","2r3ptwvy965fj5t",350,"34.csv","","null","resources/images/coin2.png","null","",NA,NA,NA,NA,""
"image-keyboard-response",503,505072,"0.0-3.164-0.164","2r3ptwvy965fj5t",350,"34.csv","","2493","resources/trios/L1T1A1.jpg","39","restless",0.8,0.6,0.5,0.546106346053615,"false"
"image-keyboard-response",504,505473,"0.0-3.164-1.164","2r3ptwvy965fj5t",350,"34.csv","","null","resources/maskTrios/BBA1.jpg","null","",NA,NA,NA,NA,""
"image-keyboard-response",505,506676,"0.0-3.164-2.164","2r3ptwvy965fj5t",350,"34.csv","","null","resources/images/fishbone.png","null","",NA,NA,NA,NA,""
"image-keyboard-response",506,507194,"0.0-3.165-0.165","2r3ptwvy965fj5t",350,"34.csv","","514.9999999999418","resources/trios/L1T1A3.jpg","37","restless",0.8,0.6,0.5,0.0722117079125518,"true"
"image-keyboard-response",507,507597,"0.0-3.165-1.165","2r3ptwvy965fj5t",350,"34.csv","","null","resources/maskTrios/L1BB.jpg","null","",NA,NA,NA,NA,""
"image-keyboard-response",508,508800,"0.0-3.165-2.165","2r3ptwvy965fj5t",350,"34.csv","","null","resources/images/coin2.png","null","",NA,NA,NA,NA,""
"image-keyboard-response",509,509377,"0.0-3.166-0.166","2r3ptwvy965fj5t",350,"34.csv","","575","resources/trios/L2T4A1.jpg","39","restless",0.8,0.6,0.6,0.576054838954095,"true"
"image-keyboard-response",510,509779,"0.0-3.166-1.166","2r3ptwvy965fj5t",350,"34.csv","","null","resources/maskTrios/BBA1.jpg","null","",NA,NA,NA,NA,""
"image-keyboard-response",511,510985,"0.0-3.166-2.166","2r3ptwvy965fj5t",350,"34.csv","","null","resources/images/coin2.png","null","",NA,NA,NA,NA,""
"image-keyboard-response",512,511723,"0.0-3.167-0.167","2r3ptwvy965fj5t",350,"34.csv","","734.9999999998836","resources/trios/L2T1A1.jpg","39","restless",0.8,0.6,0.6,0.546799134287811,"true"
"image-keyboard-response",513,512126,"0.0-3.167-1.167","2r3ptwvy965fj5t",350,"34.csv","","null","resources/maskTrios/BBA1.jpg","null","",NA,NA,NA,NA,""
"image-keyboard-response",514,513329,"0.0-3.167-2.167","2r3ptwvy965fj5t",350,"34.csv","","null","resources/images/coin2.png","null","",NA,NA,NA,NA,""
"image-keyboard-response",515,513950,"0.0-3.168-0.168","2r3ptwvy965fj5t",350,"34.csv","","615","resources/trios/L2T1A1.jpg","39","restless",0.9,0.7,0.6,0.750927594719297,"false"
"image-keyboard-response",516,514353,"0.0-3.168-1.168","2r3ptwvy965fj5t",350,"34.csv","","null","resources/maskTrios/BBA1.jpg","null","",NA,NA,NA,NA,""
"image-keyboard-response",517,515555,"0.0-3.168-2.168","2r3ptwvy965fj5t",350,"34.csv","","null","resources/images/fishbone.png","null","",NA,NA,NA,NA,""
"image-keyboard-response",518,516574,"0.0-3.169-0.169","2r3ptwvy965fj5t",350,"34.csv","","1015.9999999999418","resources/trios/L1T4A3.jpg","39","restless",0.9,0.7,0.6,0.11674498144655,"true"
"image-keyboard-response",519,516976,"0.0-3.169-1.169","2r3ptwvy965fj5t",350,"34.csv","","null","resources/maskTrios/BBA3.jpg","null","",NA,NA,NA,NA,""
"image-keyboard-response",520,518179,"0.0-3.169-2.169","2r3ptwvy965fj5t",350,"34.csv","","null","resources/images/coin2.png","null","",NA,NA,NA,NA,""
"image-keyboard-response",521,519491,"0.0-3.170-0.170","2r3ptwvy965fj5t",350,"34.csv","","1309","resources/trios/L1T4A3.jpg","39","restless",0.9,0.7,0.6,0.0471815056913829,"true"
"image-keyboard-response",522,519894,"0.0-3.170-1.170","2r3ptwvy965fj5t",350,"34.csv","","null","resources/maskTrios/BBA3.jpg","null","",NA,NA,NA,NA,""
"image-keyboard-response",523,521097,"0.0-3.170-2.170","2r3ptwvy965fj5t",350,"34.csv","","null","resources/images/coin2.png","null","",NA,NA,NA,NA,""
"image-keyboard-response",524,521300,"0.0-3.171-0.171","2r3ptwvy965fj5t",350,"34.csv","","201.0000000000582","resources/trios/L2T1A1.jpg","39","restless",0.9,0.7,0.5,0.112400572134039,"true"
"image-keyboard-response",525,521703,"0.0-3.171-1.171","2r3ptwvy965fj5t",350,"34.csv","","null","resources/maskTrios/BBA1.jpg","null","",NA,NA,NA,NA,""
"image-keyboard-response",526,522908,"0.0-3.171-2.171","2r3ptwvy965fj5t",350,"34.csv","","null","resources/images/coin2.png","null","",NA,NA,NA,NA,""
"image-keyboard-response",527,523353,"0.0-3.172-0.172","2r3ptwvy965fj5t",350,"34.csv","","442","resources/trios/L1T1A1.jpg","39","restless",0.9,0.7,0.5,0.965368432852562,"false"
"image-keyboard-response",528,523755,"0.0-3.172-1.172","2r3ptwvy965fj5t",350,"34.csv","","null","resources/maskTrios/BBA1.jpg","null","",NA,NA,NA,NA,""
"image-keyboard-response",529,524958,"0.0-3.172-2.172","2r3ptwvy965fj5t",350,"34.csv","","null","resources/images/fishbone.png","null","",NA,NA,NA,NA,""
"image-keyboard-response",530,525446,"0.0-3.173-0.173","2r3ptwvy965fj5t",350,"34.csv","","485","resources/trios/L1T4A3.jpg","37","restless",0.9,0.7,0.5,0.650536246132569,"true"
"image-keyboard-response",531,525848,"0.0-3.173-1.173","2r3ptwvy965fj5t",350,"34.csv","","null","resources/maskTrios/L1BB.jpg","null","",NA,NA,NA,NA,""
"image-keyboard-response",532,527055,"0.0-3.173-2.173","2r3ptwvy965fj5t",350,"34.csv","","null","resources/images/coin2.png","null","",NA,NA,NA,NA,""
"image-keyboard-response",533,528183,"0.0-3.174-0.174","2r3ptwvy965fj5t",350,"34.csv","","1126","resources/trios/L2T1A1.jpg","39","restless",0.9,0.7,0.5,0.6456247512556,"false"
"image-keyboard-response",534,528586,"0.0-3.174-1.174","2r3ptwvy965fj5t",350,"34.csv","","null","resources/maskTrios/BBA1.jpg","null","",NA,NA,NA,NA,""
"image-keyboard-response",535,529788,"0.0-3.174-2.174","2r3ptwvy965fj5t",350,"34.csv","","null","resources/images/fishbone.png","null","",NA,NA,NA,NA,""
"image-keyboard-response",536,529995,"0.0-3.175-0.175","2r3ptwvy965fj5t",350,"34.csv","","203","resources/trios/L1T1A3.jpg","37","restless",0.9,0.7,0.5,0.627311197587652,"true"
"image-keyboard-response",537,530397,"0.0-3.175-1.175","2r3ptwvy965fj5t",350,"34.csv","","null","resources/maskTrios/L1BB.jpg","null","",NA,NA,NA,NA,""
"image-keyboard-response",538,531600,"0.0-3.175-2.175","2r3ptwvy965fj5t",350,"34.csv","","null","resources/images/coin2.png","null","",NA,NA,NA,NA,""
"image-keyboard-response",539,532924,"0.0-3.176-0.176","2r3ptwvy965fj5t",350,"34.csv","","1323","resources/trios/L1T1A1.jpg","39","restless",0.9,0.7,0.5,0.100604967395473,"true"
"image-keyboard-response",540,533327,"0.0-3.176-1.176","2r3ptwvy965fj5t",350,"34.csv","","null","resources/maskTrios/BBA1.jpg","null","",NA,NA,NA,NA,""
"image-keyboard-response",541,534530,"0.0-3.176-2.176","2r3ptwvy965fj5t",350,"34.csv","","null","resources/images/coin2.png","null","",NA,NA,NA,NA,""
"image-keyboard-response",542,538785,"0.0-3.177-0.177","2r3ptwvy965fj5t",350,"34.csv","","4252","resources/trios/L2T1A1.jpg","39","restless",0.9,0.7,0.5,0.00136432167107736,"true"
"image-keyboard-response",543,539187,"0.0-3.177-1.177","2r3ptwvy965fj5t",350,"34.csv","","null","resources/maskTrios/BBA1.jpg","null","",NA,NA,NA,NA,""
"image-keyboard-response",544,540390,"0.0-3.177-2.177","2r3ptwvy965fj5t",350,"34.csv","","null","resources/images/coin2.png","null","",NA,NA,NA,NA,""
"image-keyboard-response",545,541125,"0.0-3.178-0.178","2r3ptwvy965fj5t",350,"34.csv","","732","resources/trios/L2T1A1.jpg","39","restless",0.9,0.7,0.4,0.820978016236207,"false"
"image-keyboard-response",546,541528,"0.0-3.178-1.178","2r3ptwvy965fj5t",350,"34.csv","","null","resources/maskTrios/BBA1.jpg","null","",NA,NA,NA,NA,""
"image-keyboard-response",547,542730,"0.0-3.178-2.178","2r3ptwvy965fj5t",350,"34.csv","","null","resources/images/fishbone.png","null","",NA,NA,NA,NA,""
"image-keyboard-response",548,543274,"0.0-3.179-0.179","2r3ptwvy965fj5t",350,"34.csv","","541.9999999998836","resources/trios/L1T4A3.jpg","37","restless",0.9,0.7,0.4,0.403880935412349,"true"
"image-keyboard-response",549,543677,"0.0-3.179-1.179","2r3ptwvy965fj5t",350,"34.csv","","null","resources/maskTrios/L1BB.jpg","null","",NA,NA,NA,NA,""
"image-keyboard-response",550,544880,"0.0-3.179-2.179","2r3ptwvy965fj5t",350,"34.csv","","null","resources/images/coin2.png","null","",NA,NA,NA,NA,""
"image-keyboard-response",551,545619,"0.0-3.180-0.180","2r3ptwvy965fj5t",350,"34.csv","","737","resources/trios/L2T4A3.jpg","39","restless",0.9,0.6,0.3,0.370172594045492,"false"
"image-keyboard-response",552,546023,"0.0-3.180-1.180","2r3ptwvy965fj5t",350,"34.csv","","null","resources/maskTrios/BBA3.jpg","null","",NA,NA,NA,NA,""
"image-keyboard-response",553,547225,"0.0-3.180-2.180","2r3ptwvy965fj5t",350,"34.csv","","null","resources/images/fishbone.png","null","",NA,NA,NA,NA,""
"image-keyboard-response",554,550700,"0.0-3.181-0.181","2r3ptwvy965fj5t",350,"34.csv","","3470.9999999998836","resources/trios/L2T1A1.jpg","39","restless",0.9,0.6,0.3,0.836042172360727,"false"
"image-keyboard-response",555,551102,"0.0-3.181-1.181","2r3ptwvy965fj5t",350,"34.csv","","null","resources/maskTrios/BBA1.jpg","null","",NA,NA,NA,NA,""
"image-keyboard-response",556,552305,"0.0-3.181-2.181","2r3ptwvy965fj5t",350,"34.csv","","null","resources/images/fishbone.png","null","",NA,NA,NA,NA,""
"image-keyboard-response",557,553242,"0.0-3.182-0.182","2r3ptwvy965fj5t",350,"34.csv","","935","resources/trios/L1T1A3.jpg","37","restless",0.9,0.6,0.3,0.513605285462309,"true"
"image-keyboard-response",558,553644,"0.0-3.182-1.182","2r3ptwvy965fj5t",350,"34.csv","","null","resources/maskTrios/L1BB.jpg","null","",NA,NA,NA,NA,""
"image-keyboard-response",559,554847,"0.0-3.182-2.182","2r3ptwvy965fj5t",350,"34.csv","","null","resources/images/coin2.png","null","",NA,NA,NA,NA,""
"image-keyboard-response",560,555762,"0.0-3.183-0.183","2r3ptwvy965fj5t",350,"34.csv","","913","resources/trios/L1T4A3.jpg","39","restless",0.9,0.5,0.3,0.19597133566087,"true"
"image-keyboard-response",561,556165,"0.0-3.183-1.183","2r3ptwvy965fj5t",350,"34.csv","","null","resources/maskTrios/BBA3.jpg","null","",NA,NA,NA,NA,""
"image-keyboard-response",562,557368,"0.0-3.183-2.183","2r3ptwvy965fj5t",350,"34.csv","","null","resources/images/coin2.png","null","",NA,NA,NA,NA,""
"image-keyboard-response",563,559130,"0.0-3.184-0.184","2r3ptwvy965fj5t",350,"34.csv","","1760","resources/trios/L1T4A1.jpg","39","restless",0.9,0.5,0.3,0.712669625157252,"false"
"image-keyboard-response",564,559533,"0.0-3.184-1.184","2r3ptwvy965fj5t",350,"34.csv","","null","resources/maskTrios/BBA1.jpg","null","",NA,NA,NA,NA,""
"image-keyboard-response",565,560738,"0.0-3.184-2.184","2r3ptwvy965fj5t",350,"34.csv","","null","resources/images/fishbone.png","null","",NA,NA,NA,NA,""
"image-keyboard-response",566,561423,"0.0-3.185-0.185","2r3ptwvy965fj5t",350,"34.csv","","683","resources/trios/L2T4A3.jpg","37","restless",0.9,0.5,0.3,0.734593268922125,"true"
"image-keyboard-response",567,561825,"0.0-3.185-1.185","2r3ptwvy965fj5t",350,"34.csv","","null","resources/maskTrios/L2BB.jpg","null","",NA,NA,NA,NA,""
"image-keyboard-response",568,563028,"0.0-3.185-2.185","2r3ptwvy965fj5t",350,"34.csv","","null","resources/images/coin2.png","null","",NA,NA,NA,NA,""
"image-keyboard-response",569,563078,"0.0-3.186-0.186","2r3ptwvy965fj5t",350,"34.csv","","45.000000000116415","resources/trios/L2T1A3.jpg","39","restless",0.8,0.5,0.3,0.822844680091266,"false"
"image-keyboard-response",570,563481,"0.0-3.186-1.186","2r3ptwvy965fj5t",350,"34.csv","","null","resources/maskTrios/BBA3.jpg","null","",NA,NA,NA,NA,""
"image-keyboard-response",571,564684,"0.0-3.186-2.186","2r3ptwvy965fj5t",350,"34.csv","","null","resources/images/fishbone.png","null","",NA,NA,NA,NA,""
"image-keyboard-response",572,565310,"0.0-3.187-0.187","2r3ptwvy965fj5t",350,"34.csv","","624","resources/trios/L2T4A1.jpg","39","restless",0.8,0.5,0.3,0.362854602609322,"false"
"image-keyboard-response",573,565712,"0.0-3.187-1.187","2r3ptwvy965fj5t",350,"34.csv","","null","resources/maskTrios/BBA1.jpg","null","",NA,NA,NA,NA,""
"image-keyboard-response",574,566914,"0.0-3.187-2.187","2r3ptwvy965fj5t",350,"34.csv","","null","resources/images/fishbone.png","null","",NA,NA,NA,NA,""
"image-keyboard-response",575,567270,"0.0-3.188-0.188","2r3ptwvy965fj5t",350,"34.csv","","353","resources/trios/L2T1A3.jpg","39","restless",0.8,0.5,0.3,0.00567137916864791,"true"
"image-keyboard-response",576,567672,"0.0-3.188-1.188","2r3ptwvy965fj5t",350,"34.csv","","null","resources/maskTrios/BBA3.jpg","null","",NA,NA,NA,NA,""
"image-keyboard-response",577,568875,"0.0-3.188-2.188","2r3ptwvy965fj5t",350,"34.csv","","null","resources/images/coin2.png","null","",NA,NA,NA,NA,""
"image-keyboard-response",578,569528,"0.0-3.189-0.189","2r3ptwvy965fj5t",350,"34.csv","","650","resources/trios/L2T4A1.jpg","39","restless",0.8,0.4,0.3,0.706585705687836,"false"
"image-keyboard-response",579,569930,"0.0-3.189-1.189","2r3ptwvy965fj5t",350,"34.csv","","null","resources/maskTrios/BBA1.jpg","null","",NA,NA,NA,NA,""
"image-keyboard-response",580,571132,"0.0-3.189-2.189","2r3ptwvy965fj5t",350,"34.csv","","null","resources/images/fishbone.png","null","",NA,NA,NA,NA,""
"image-keyboard-response",581,571501,"0.0-3.190-0.190","2r3ptwvy965fj5t",350,"34.csv","","366.0000000001164","resources/trios/L2T4A1.jpg","38","restless",0.7,0.3,0.3,0.30736335063379,"false"
"image-keyboard-response",582,571903,"0.0-3.190-1.190","2r3ptwvy965fj5t",350,"34.csv","","null","resources/maskTrios/BT4B.jpg","null","",NA,NA,NA,NA,""
"image-keyboard-response",583,573106,"0.0-3.190-2.190","2r3ptwvy965fj5t",350,"34.csv","","null","resources/images/fishbone.png","null","",NA,NA,NA,NA,""
"image-keyboard-response",584,573554,"0.0-3.191-0.191","2r3ptwvy965fj5t",350,"34.csv","","446.0000000001164","resources/trios/L1T1A1.jpg","37","restless",0.7,0.3,0.3,0.322699646298552,"true"
"image-keyboard-response",585,573958,"0.0-3.191-1.191","2r3ptwvy965fj5t",350,"34.csv","","null","resources/maskTrios/L1BB.jpg","null","",NA,NA,NA,NA,""
"image-keyboard-response",586,575161,"0.0-3.191-2.191","2r3ptwvy965fj5t",350,"34.csv","","null","resources/images/coin2.png","null","",NA,NA,NA,NA,""
"image-keyboard-response",587,575827,"0.0-3.192-0.192","2r3ptwvy965fj5t",350,"34.csv","","663","resources/trios/L1T4A3.jpg","39","restless",0.7,0.3,0.3,0.424069029934917,"false"
"image-keyboard-response",588,576230,"0.0-3.192-1.192","2r3ptwvy965fj5t",350,"34.csv","","null","resources/maskTrios/BBA3.jpg","null","",NA,NA,NA,NA,""
"image-keyboard-response",589,577432,"0.0-3.192-2.192","2r3ptwvy965fj5t",350,"34.csv","","null","resources/images/fishbone.png","null","",NA,NA,NA,NA,""
"image-keyboard-response",590,577718,"0.0-3.193-0.193","2r3ptwvy965fj5t",350,"34.csv","","283","resources/trios/L1T4A3.jpg","39","restless",0.7,0.3,0.3,0.128287062252203,"true"
"image-keyboard-response",591,578120,"0.0-3.193-1.193","2r3ptwvy965fj5t",350,"34.csv","","null","resources/maskTrios/BBA3.jpg","null","",NA,NA,NA,NA,""
"image-keyboard-response",592,579323,"0.0-3.193-2.193","2r3ptwvy965fj5t",350,"34.csv","","null","resources/images/coin2.png","null","",NA,NA,NA,NA,""
"image-keyboard-response",593,579759,"0.0-3.194-0.194","2r3ptwvy965fj5t",350,"34.csv","","432","resources/trios/L2T4A3.jpg","39","restless",0.7,0.3,0.3,0.945360020734211,"false"
"image-keyboard-response",594,580161,"0.0-3.194-1.194","2r3ptwvy965fj5t",350,"34.csv","","null","resources/maskTrios/BBA3.jpg","null","",NA,NA,NA,NA,""
"image-keyboard-response",595,581364,"0.0-3.194-2.194","2r3ptwvy965fj5t",350,"34.csv","","null","resources/images/fishbone.png","null","",NA,NA,NA,NA,""
"image-keyboard-response",596,581718,"0.0-3.195-0.195","2r3ptwvy965fj5t",350,"34.csv","","352","resources/trios/L1T1A1.jpg","39","restless",0.7,0.3,0.3,0.540602848065229,"false"
"image-keyboard-response",597,582121,"0.0-3.195-1.195","2r3ptwvy965fj5t",350,"34.csv","","null","resources/maskTrios/BBA1.jpg","null","",NA,NA,NA,NA,""
"image-keyboard-response",598,583323,"0.0-3.195-2.195","2r3ptwvy965fj5t",350,"34.csv","","null","resources/images/fishbone.png","null","",NA,NA,NA,NA,""
"image-keyboard-response",599,583615,"0.0-3.196-0.196","2r3ptwvy965fj5t",350,"34.csv","","289","resources/trios/L2T1A1.jpg","39","restless",0.7,0.3,0.3,0.863423725510197,"false"
"image-keyboard-response",600,584018,"0.0-3.196-1.196","2r3ptwvy965fj5t",350,"34.csv","","null","resources/maskTrios/BBA1.jpg","null","",NA,NA,NA,NA,""
"image-keyboard-response",601,585220,"0.0-3.196-2.196","2r3ptwvy965fj5t",350,"34.csv","","null","resources/images/fishbone.png","null","",NA,NA,NA,NA,""
"image-keyboard-response",602,585635,"0.0-3.197-0.197","2r3ptwvy965fj5t",350,"34.csv","","412","resources/trios/L2T1A1.jpg","37","restless",0.7,0.3,0.3,0.617299375050317,"true"
"image-keyboard-response",603,586037,"0.0-3.197-1.197","2r3ptwvy965fj5t",350,"34.csv","","null","resources/maskTrios/L2BB.jpg","null","",NA,NA,NA,NA,""
"image-keyboard-response",604,587240,"0.0-3.197-2.197","2r3ptwvy965fj5t",350,"34.csv","","null","resources/images/coin2.png","null","",NA,NA,NA,NA,""
"image-keyboard-response",605,588070,"0.0-3.198-0.198","2r3ptwvy965fj5t",350,"34.csv","","828","resources/trios/L1T1A3.jpg","37","restless",0.7,0.3,0.3,0.263815398546656,"true"
"image-keyboard-response",606,588473,"0.0-3.198-1.198","2r3ptwvy965fj5t",350,"34.csv","","null","resources/maskTrios/L1BB.jpg","null","",NA,NA,NA,NA,""
"image-keyboard-response",607,589676,"0.0-3.198-2.198","2r3ptwvy965fj5t",350,"34.csv","","null","resources/images/coin2.png","null","",NA,NA,NA,NA,""
"image-keyboard-response",608,590113,"0.0-3.199-0.199","2r3ptwvy965fj5t",350,"34.csv","","435","resources/trios/L1T4A1.jpg","37","restless",0.6,0.3,0.3,0.564666996121304,"true"
"image-keyboard-response",609,590515,"0.0-3.199-1.199","2r3ptwvy965fj5t",350,"34.csv","","null","resources/maskTrios/L1BB.jpg","null","",NA,NA,NA,NA,""
"image-keyboard-response",610,591719,"0.0-3.199-2.199","2r3ptwvy965fj5t",350,"34.csv","","null","resources/images/coin2.png","null","",NA,NA,NA,NA,""
"image-keyboard-response",611,592135,"0.0-3.200-0.200","2r3ptwvy965fj5t",350,"34.csv","","415.0000000001164","resources/trios/L2T4A1.jpg","37","restless",0.6,0.3,0.3,0.507685998669989,"true"
"image-keyboard-response",612,592540,"0.0-3.200-1.200","2r3ptwvy965fj5t",350,"34.csv","","null","resources/maskTrios/L2BB.jpg","null","",NA,NA,NA,NA,""
"image-keyboard-response",613,593743,"0.0-3.200-2.200","2r3ptwvy965fj5t",350,"34.csv","","null","resources/images/coin2.png","null","",NA,NA,NA,NA,""
"image-keyboard-response",614,594138,"0.0-3.201-0.201","2r3ptwvy965fj5t",350,"34.csv","","392","resources/trios/L2T4A3.jpg","37","restless",0.5,0.3,0.3,0.174577235170635,"true"
"image-keyboard-response",615,594541,"0.0-3.201-1.201","2r3ptwvy965fj5t",350,"34.csv","","null","resources/maskTrios/L2BB.jpg","null","",NA,NA,NA,NA,""
"image-keyboard-response",616,595743,"0.0-3.201-2.201","2r3ptwvy965fj5t",350,"34.csv","","null","resources/images/coin2.png","null","",NA,NA,NA,NA,""
"image-keyboard-response",617,596074,"0.0-3.202-0.202","2r3ptwvy965fj5t",350,"34.csv","","327","resources/trios/L1T1A3.jpg","37","restless",0.5,0.3,0.3,0.168315185477938,"true"
"image-keyboard-response",618,596476,"0.0-3.202-1.202","2r3ptwvy965fj5t",350,"34.csv","","null","resources/maskTrios/L1BB.jpg","null","",NA,NA,NA,NA,""
"image-keyboard-response",619,597679,"0.0-3.202-2.202","2r3ptwvy965fj5t",350,"34.csv","","null","resources/images/coin2.png","null","",NA,NA,NA,NA,""
"image-keyboard-response",620,599758,"0.0-3.203-0.203","2r3ptwvy965fj5t",350,"34.csv","","2077","resources/trios/L2T1A3.jpg","37","restless",0.4,0.2,0.3,0.744581608372226,"false"
