"trial_type","trial_index","time_elapsed","internal_node_id","subject","participantCode","walkNumber","success","rt","stimulus","key_press","test_part","leftProb","midProb","rightProb","generatedNum","correct"
"pavlovia",0,1090,"0.0-0.0","z8gmkpfu036htbm",95,"2.csv","","","","","",NA,NA,NA,NA,""
"fullscreen",1,10628,"0.0-1.0","z8gmkpfu036htbm",95,"2.csv","true","","","","",NA,NA,NA,NA,""
"html-keyboard-response",2,23597,"0.0-2.0-0.0","z8gmkpfu036htbm",95,"2.csv","","12967.90000000596","<p><font size='6'>Arrrgh!</p></font><p>Can you be the best pirate? Try to find lots of gold! But beware, some islands have more gold than others, and over time, the island with the most gold may change. Can YOU figure it out? </p><font size='6'>GOOD LUCK, CAPTAIN!!!</font><p>Press any key to begin</p>","32","",NA,NA,NA,NA,""
"image-keyboard-response",3,26612,"0.0-2.0-1.0","z8gmkpfu036htbm",95,"2.csv","","null","resources/image_sets/111.png","null","",NA,NA,NA,NA,""
"image-keyboard-response",4,38619,"0.0-2.0-2.0","z8gmkpfu036htbm",95,"2.csv","","12005.79999999702","resources/image_sets/left_highlight.png","37","",NA,NA,NA,NA,""
"image-keyboard-response",5,41799,"0.0-2.0-3.0","z8gmkpfu036htbm",95,"2.csv","","3179.10000000149","resources/image_sets/mid_highlight.png","38","",NA,NA,NA,NA,""
"image-keyboard-response",6,45442,"0.0-2.0-4.0","z8gmkpfu036htbm",95,"2.csv","","3641.7999999970198","resources/image_sets/right_highlight.png","39","",NA,NA,NA,NA,""
"image-keyboard-response",7,62066,"0.0-2.0-5.0","z8gmkpfu036htbm",95,"2.csv","","16622.30000000447","resources/image_sets/111.png","13","",NA,NA,NA,NA,""
"image-keyboard-response",8,65043,"0.0-2.0-6.0","z8gmkpfu036htbm",95,"2.csv","","2976.5","resources/images/coin2.png","13","",NA,NA,NA,NA,""
"image-keyboard-response",9,68552,"0.0-2.0-7.0","z8gmkpfu036htbm",95,"2.csv","","3507.6999999955297","resources/images/fishbone.png","13","",NA,NA,NA,NA,""
"html-keyboard-response",10,74252,"0.0-2.0-8.0","z8gmkpfu036htbm",95,"2.csv","","5698.89999999851","<p>Your first journey will be a long one, but you will get a well deserved break at the end</p><p>After the break you will have four more journeys, but each will be much shorter than the first, and you will have breaks in between each</p><p>Press Enter to begin</p>","13","",NA,NA,NA,NA,""
"image-keyboard-response",11,77608,"0.0-3.0-0.0","z8gmkpfu036htbm",95,"2.csv","","3354.9000000059605","resources/trios/L1T2A2.jpg","39","restless",0.9,0.7,0.3,0.571229778247051,"false"
"image-keyboard-response",12,78020,"0.0-3.0-1.0","z8gmkpfu036htbm",95,"2.csv","","null","resources/maskTrios/BBA2.jpg","null","",NA,NA,NA,NA,""
"image-keyboard-response",13,79225,"0.0-3.0-2.0","z8gmkpfu036htbm",95,"2.csv","","null","resources/images/fishbone.png","null","",NA,NA,NA,NA,""
"image-keyboard-response",14,82970,"0.0-3.1-0.1","z8gmkpfu036htbm",95,"2.csv","","3742.7999999970198","resources/trios/L2T2A3.jpg","38","restless",0.9,0.7,0.3,0.895167464062268,"false"
"image-keyboard-response",15,83378,"0.0-3.1-1.1","z8gmkpfu036htbm",95,"2.csv","","null","resources/maskTrios/BT2B.jpg","null","",NA,NA,NA,NA,""
"image-keyboard-response",16,84588,"0.0-3.1-2.1","z8gmkpfu036htbm",95,"2.csv","","null","resources/images/fishbone.png","null","",NA,NA,NA,NA,""
"image-keyboard-response",17,85925,"0.0-3.2-0.2","z8gmkpfu036htbm",95,"2.csv","","1335.5","resources/trios/L1T2A2.jpg","37","restless",0.8,0.7,0.3,0.586401857022333,"true"
"image-keyboard-response",18,86332,"0.0-3.2-1.2","z8gmkpfu036htbm",95,"2.csv","","null","resources/maskTrios/L1BB.jpg","null","",NA,NA,NA,NA,""
"image-keyboard-response",19,87540,"0.0-3.2-2.2","z8gmkpfu036htbm",95,"2.csv","","null","resources/images/coin2.png","null","",NA,NA,NA,NA,""
"image-keyboard-response",20,90437,"0.0-3.3-0.3","z8gmkpfu036htbm",95,"2.csv","","2895.6999999955297","resources/trios/L2T1A3.jpg","39","restless",0.8,0.7,0.3,0.664824007732592,"false"
"image-keyboard-response",21,90841,"0.0-3.3-1.3","z8gmkpfu036htbm",95,"2.csv","","null","resources/maskTrios/BBA3.jpg","null","",NA,NA,NA,NA,""
"image-keyboard-response",22,92047,"0.0-3.3-2.3","z8gmkpfu036htbm",95,"2.csv","","null","resources/images/fishbone.png","null","",NA,NA,NA,NA,""
"image-keyboard-response",23,93399,"0.0-3.4-0.4","z8gmkpfu036htbm",95,"2.csv","","1350.3999999985099","resources/trios/L2T1A2.jpg","37","restless",0.8,0.7,0.3,0.463713542713811,"true"
"image-keyboard-response",24,93809,"0.0-3.4-1.4","z8gmkpfu036htbm",95,"2.csv","","null","resources/maskTrios/L2BB.jpg","null","",NA,NA,NA,NA,""
"image-keyboard-response",25,95016,"0.0-3.4-2.4","z8gmkpfu036htbm",95,"2.csv","","null","resources/images/coin2.png","null","",NA,NA,NA,NA,""
"image-keyboard-response",26,95534,"0.0-3.5-0.5","z8gmkpfu036htbm",95,"2.csv","","516.8999999985099","resources/trios/L1T1A2.jpg","37","restless",0.8,0.8,0.3,0.0974773231910229,"true"
"image-keyboard-response",27,95948,"0.0-3.5-1.5","z8gmkpfu036htbm",95,"2.csv","","null","resources/maskTrios/L1BB.jpg","null","",NA,NA,NA,NA,""
"image-keyboard-response",28,97151,"0.0-3.5-2.5","z8gmkpfu036htbm",95,"2.csv","","null","resources/images/coin2.png","null","",NA,NA,NA,NA,""
"image-keyboard-response",29,98133,"0.0-3.6-0.6","z8gmkpfu036htbm",95,"2.csv","","980.8999999985099","resources/trios/L1T1A3.jpg","37","restless",0.8,0.8,0.3,0.0946634224962184,"true"
"image-keyboard-response",30,98543,"0.0-3.6-1.6","z8gmkpfu036htbm",95,"2.csv","","null","resources/maskTrios/L1BB.jpg","null","",NA,NA,NA,NA,""
"image-keyboard-response",31,99756,"0.0-3.6-2.6","z8gmkpfu036htbm",95,"2.csv","","null","resources/images/coin2.png","null","",NA,NA,NA,NA,""
"image-keyboard-response",32,100915,"0.0-3.7-0.7","z8gmkpfu036htbm",95,"2.csv","","1158.1000000014901","resources/trios/L1T2A2.jpg","37","restless",0.8,0.8,0.3,0.631371323864311,"true"
"image-keyboard-response",33,101324,"0.0-3.7-1.7","z8gmkpfu036htbm",95,"2.csv","","null","resources/maskTrios/L1BB.jpg","null","",NA,NA,NA,NA,""
"image-keyboard-response",34,102528,"0.0-3.7-2.7","z8gmkpfu036htbm",95,"2.csv","","null","resources/images/coin2.png","null","",NA,NA,NA,NA,""
"image-keyboard-response",35,103213,"0.0-3.8-0.8","z8gmkpfu036htbm",95,"2.csv","","683.3000000044703","resources/trios/L2T2A2.jpg","37","restless",0.8,0.8,0.3,0.0599707440770116,"true"
"image-keyboard-response",36,103615,"0.0-3.8-1.8","z8gmkpfu036htbm",95,"2.csv","","null","resources/maskTrios/L2BB.jpg","null","",NA,NA,NA,NA,""
"image-keyboard-response",37,104825,"0.0-3.8-2.8","z8gmkpfu036htbm",95,"2.csv","","null","resources/images/coin2.png","null","",NA,NA,NA,NA,""
"image-keyboard-response",38,105295,"0.0-3.9-0.9","z8gmkpfu036htbm",95,"2.csv","","468.70000000298023","resources/trios/L1T1A3.jpg","37","restless",0.8,0.8,0.3,0.182955085916829,"true"
"image-keyboard-response",39,105703,"0.0-3.9-1.9","z8gmkpfu036htbm",95,"2.csv","","null","resources/maskTrios/L1BB.jpg","null","",NA,NA,NA,NA,""
"image-keyboard-response",40,106916,"0.0-3.9-2.9","z8gmkpfu036htbm",95,"2.csv","","null","resources/images/coin2.png","null","",NA,NA,NA,NA,""
"image-keyboard-response",41,107305,"0.0-3.10-0.10","z8gmkpfu036htbm",95,"2.csv","","387.69999999552965","resources/trios/L1T2A3.jpg","37","restless",0.8,0.8,0.3,0.675199339292343,"true"
"image-keyboard-response",42,107712,"0.0-3.10-1.10","z8gmkpfu036htbm",95,"2.csv","","null","resources/maskTrios/L1BB.jpg","null","",NA,NA,NA,NA,""
"image-keyboard-response",43,108924,"0.0-3.10-2.10","z8gmkpfu036htbm",95,"2.csv","","null","resources/images/coin2.png","null","",NA,NA,NA,NA,""
"image-keyboard-response",44,109340,"0.0-3.11-0.11","z8gmkpfu036htbm",95,"2.csv","","414.6000000014901","resources/trios/L2T2A2.jpg","37","restless",0.8,0.8,0.3,0.382730295240168,"true"
"image-keyboard-response",45,109743,"0.0-3.11-1.11","z8gmkpfu036htbm",95,"2.csv","","null","resources/maskTrios/L2BB.jpg","null","",NA,NA,NA,NA,""
"image-keyboard-response",46,110951,"0.0-3.11-2.11","z8gmkpfu036htbm",95,"2.csv","","null","resources/images/coin2.png","null","",NA,NA,NA,NA,""
"image-keyboard-response",47,111312,"0.0-3.12-0.12","z8gmkpfu036htbm",95,"2.csv","","359.1000000014901","resources/trios/L1T2A3.jpg","37","restless",0.8,0.8,0.3,0.861618355648806,"false"
"image-keyboard-response",48,111720,"0.0-3.12-1.12","z8gmkpfu036htbm",95,"2.csv","","null","resources/maskTrios/L1BB.jpg","null","",NA,NA,NA,NA,""
"image-keyboard-response",49,112927,"0.0-3.12-2.12","z8gmkpfu036htbm",95,"2.csv","","null","resources/images/fishbone.png","null","",NA,NA,NA,NA,""
"image-keyboard-response",50,113765,"0.0-3.13-0.13","z8gmkpfu036htbm",95,"2.csv","","837.2999999970198","resources/trios/L1T2A2.jpg","38","restless",0.8,0.8,0.3,0.15006647884079,"true"
"image-keyboard-response",51,114180,"0.0-3.13-1.13","z8gmkpfu036htbm",95,"2.csv","","null","resources/maskTrios/BT2B.jpg","null","",NA,NA,NA,NA,""
"image-keyboard-response",52,115383,"0.0-3.13-2.13","z8gmkpfu036htbm",95,"2.csv","","null","resources/images/coin2.png","null","",NA,NA,NA,NA,""
"image-keyboard-response",53,115853,"0.0-3.14-0.14","z8gmkpfu036htbm",95,"2.csv","","467.80000000447035","resources/trios/L2T1A2.jpg","38","restless",0.8,0.8,0.3,0.305743764414382,"true"
"image-keyboard-response",54,116259,"0.0-3.14-1.14","z8gmkpfu036htbm",95,"2.csv","","null","resources/maskTrios/BT1B.jpg","null","",NA,NA,NA,NA,""
"image-keyboard-response",55,117467,"0.0-3.14-2.14","z8gmkpfu036htbm",95,"2.csv","","null","resources/images/coin2.png","null","",NA,NA,NA,NA,""
"image-keyboard-response",56,117906,"0.0-3.15-0.15","z8gmkpfu036htbm",95,"2.csv","","438.19999999552965","resources/trios/L1T2A3.jpg","38","restless",0.8,0.8,0.3,0.690871107993747,"true"
"image-keyboard-response",57,118312,"0.0-3.15-1.15","z8gmkpfu036htbm",95,"2.csv","","null","resources/maskTrios/BT2B.jpg","null","",NA,NA,NA,NA,""
"image-keyboard-response",58,119524,"0.0-3.15-2.15","z8gmkpfu036htbm",95,"2.csv","","null","resources/images/coin2.png","null","",NA,NA,NA,NA,""
"image-keyboard-response",59,119991,"0.0-3.16-0.16","z8gmkpfu036htbm",95,"2.csv","","465.6000000014901","resources/trios/L1T1A3.jpg","38","restless",0.8,0.8,0.3,0.984879619402555,"false"
"image-keyboard-response",60,120404,"0.0-3.16-1.16","z8gmkpfu036htbm",95,"2.csv","","null","resources/maskTrios/BT1B.jpg","null","",NA,NA,NA,NA,""
"image-keyboard-response",61,121612,"0.0-3.16-2.16","z8gmkpfu036htbm",95,"2.csv","","null","resources/images/fishbone.png","null","",NA,NA,NA,NA,""
"image-keyboard-response",62,123301,"0.0-3.17-0.17","z8gmkpfu036htbm",95,"2.csv","","1688","resources/trios/L1T1A3.jpg","37","restless",0.7,0.8,0.3,0.578517464995185,"true"
"image-keyboard-response",63,123707,"0.0-3.17-1.17","z8gmkpfu036htbm",95,"2.csv","","null","resources/maskTrios/L1BB.jpg","null","",NA,NA,NA,NA,""
"image-keyboard-response",64,124916,"0.0-3.17-2.17","z8gmkpfu036htbm",95,"2.csv","","null","resources/images/coin2.png","null","",NA,NA,NA,NA,""
"image-keyboard-response",65,125322,"0.0-3.18-0.18","z8gmkpfu036htbm",95,"2.csv","","405.1000000014901","resources/trios/L1T1A2.jpg","37","restless",0.7,0.8,0.3,0.32641443309772,"true"
"image-keyboard-response",66,125731,"0.0-3.18-1.18","z8gmkpfu036htbm",95,"2.csv","","null","resources/maskTrios/L1BB.jpg","null","",NA,NA,NA,NA,""
"image-keyboard-response",67,126940,"0.0-3.18-2.18","z8gmkpfu036htbm",95,"2.csv","","null","resources/images/coin2.png","null","",NA,NA,NA,NA,""
"image-keyboard-response",68,127272,"0.0-3.19-0.19","z8gmkpfu036htbm",95,"2.csv","","330.6000000014901","resources/trios/L2T1A2.jpg","37","restless",0.7,0.8,0.3,0.810786292755745,"false"
"image-keyboard-response",69,127684,"0.0-3.19-1.19","z8gmkpfu036htbm",95,"2.csv","","null","resources/maskTrios/L2BB.jpg","null","",NA,NA,NA,NA,""
"image-keyboard-response",70,128888,"0.0-3.19-2.19","z8gmkpfu036htbm",95,"2.csv","","null","resources/images/fishbone.png","null","",NA,NA,NA,NA,""
"image-keyboard-response",71,130317,"0.0-3.20-0.20","z8gmkpfu036htbm",95,"2.csv","","1427.8999999985099","resources/trios/L1T2A2.jpg","38","restless",0.6,0.8,0.3,0.14410887068138,"true"
"image-keyboard-response",72,130721,"0.0-3.20-1.20","z8gmkpfu036htbm",95,"2.csv","","null","resources/maskTrios/BT2B.jpg","null","",NA,NA,NA,NA,""
"image-keyboard-response",73,131930,"0.0-3.20-2.20","z8gmkpfu036htbm",95,"2.csv","","null","resources/images/coin2.png","null","",NA,NA,NA,NA,""
"image-keyboard-response",74,132315,"0.0-3.21-0.21","z8gmkpfu036htbm",95,"2.csv","","384","resources/trios/L1T2A3.jpg","38","restless",0.6,0.7,0.3,0.0997990600081349,"true"
"image-keyboard-response",75,132722,"0.0-3.21-1.21","z8gmkpfu036htbm",95,"2.csv","","null","resources/maskTrios/BT2B.jpg","null","",NA,NA,NA,NA,""
"image-keyboard-response",76,133931,"0.0-3.21-2.21","z8gmkpfu036htbm",95,"2.csv","","null","resources/images/coin2.png","null","",NA,NA,NA,NA,""
"image-keyboard-response",77,134295,"0.0-3.22-0.22","z8gmkpfu036htbm",95,"2.csv","","362.80000000447035","resources/trios/L2T1A3.jpg","38","restless",0.6,0.7,0.3,0.292010619772101,"true"
"image-keyboard-response",78,134708,"0.0-3.22-1.22","z8gmkpfu036htbm",95,"2.csv","","null","resources/maskTrios/BT1B.jpg","null","",NA,NA,NA,NA,""
"image-keyboard-response",79,135916,"0.0-3.22-2.22","z8gmkpfu036htbm",95,"2.csv","","null","resources/images/coin2.png","null","",NA,NA,NA,NA,""
"image-keyboard-response",80,136291,"0.0-3.23-0.23","z8gmkpfu036htbm",95,"2.csv","","374.29999999701977","resources/trios/L2T2A3.jpg","38","restless",0.6,0.7,0.3,0.619896800017119,"true"
"image-keyboard-response",81,136695,"0.0-3.23-1.23","z8gmkpfu036htbm",95,"2.csv","","null","resources/maskTrios/BT2B.jpg","null","",NA,NA,NA,NA,""
"image-keyboard-response",82,137908,"0.0-3.23-2.23","z8gmkpfu036htbm",95,"2.csv","","null","resources/images/coin2.png","null","",NA,NA,NA,NA,""
"image-keyboard-response",83,138309,"0.0-3.24-0.24","z8gmkpfu036htbm",95,"2.csv","","399.69999999552965","resources/trios/L1T1A2.jpg","38","restless",0.5,0.7,0.3,0.335192168725437,"true"
"image-keyboard-response",84,138711,"0.0-3.24-1.24","z8gmkpfu036htbm",95,"2.csv","","null","resources/maskTrios/BT1B.jpg","null","",NA,NA,NA,NA,""
"image-keyboard-response",85,139919,"0.0-3.24-2.24","z8gmkpfu036htbm",95,"2.csv","","null","resources/images/coin2.png","null","",NA,NA,NA,NA,""
"image-keyboard-response",86,140287,"0.0-3.25-0.25","z8gmkpfu036htbm",95,"2.csv","","367","resources/trios/L2T1A2.jpg","38","restless",0.5,0.6,0.3,0.517185108739629,"true"
"image-keyboard-response",87,140696,"0.0-3.25-1.25","z8gmkpfu036htbm",95,"2.csv","","null","resources/maskTrios/BT1B.jpg","null","",NA,NA,NA,NA,""
"image-keyboard-response",88,141903,"0.0-3.25-2.25","z8gmkpfu036htbm",95,"2.csv","","null","resources/images/coin2.png","null","",NA,NA,NA,NA,""
"image-keyboard-response",89,142248,"0.0-3.26-0.26","z8gmkpfu036htbm",95,"2.csv","","344.19999999552965","resources/trios/L2T1A2.jpg","38","restless",0.5,0.6,0.2,0.533753990947581,"true"
"image-keyboard-response",90,142658,"0.0-3.26-1.26","z8gmkpfu036htbm",95,"2.csv","","null","resources/maskTrios/BT1B.jpg","null","",NA,NA,NA,NA,""
"image-keyboard-response",91,143863,"0.0-3.26-2.26","z8gmkpfu036htbm",95,"2.csv","","null","resources/images/coin2.png","null","",NA,NA,NA,NA,""
"image-keyboard-response",92,144264,"0.0-3.27-0.27","z8gmkpfu036htbm",95,"2.csv","","399.90000000596046","resources/trios/L1T1A3.jpg","38","restless",0.5,0.6,0.2,0.281499931873475,"true"
"image-keyboard-response",93,144672,"0.0-3.27-1.27","z8gmkpfu036htbm",95,"2.csv","","null","resources/maskTrios/BT1B.jpg","null","",NA,NA,NA,NA,""
"image-keyboard-response",94,145884,"0.0-3.27-2.27","z8gmkpfu036htbm",95,"2.csv","","null","resources/images/coin2.png","null","",NA,NA,NA,NA,""
"image-keyboard-response",95,146302,"0.0-3.28-0.28","z8gmkpfu036htbm",95,"2.csv","","417","resources/trios/L1T1A2.jpg","38","restless",0.5,0.6,0.3,0.83731864411518,"false"
"image-keyboard-response",96,146712,"0.0-3.28-1.28","z8gmkpfu036htbm",95,"2.csv","","null","resources/maskTrios/BT1B.jpg","null","",NA,NA,NA,NA,""
"image-keyboard-response",97,147924,"0.0-3.28-2.28","z8gmkpfu036htbm",95,"2.csv","","null","resources/images/fishbone.png","null","",NA,NA,NA,NA,""
"image-keyboard-response",98,148281,"0.0-3.29-0.29","z8gmkpfu036htbm",95,"2.csv","","355.6000000014901","resources/trios/L1T2A3.jpg","37","restless",0.5,0.6,0.3,0.574704559005844,"false"
"image-keyboard-response",99,148687,"0.0-3.29-1.29","z8gmkpfu036htbm",95,"2.csv","","null","resources/maskTrios/L1BB.jpg","null","",NA,NA,NA,NA,""
"image-keyboard-response",100,149900,"0.0-3.29-2.29","z8gmkpfu036htbm",95,"2.csv","","null","resources/images/fishbone.png","null","",NA,NA,NA,NA,""
"image-keyboard-response",101,150331,"0.0-3.30-0.30","z8gmkpfu036htbm",95,"2.csv","","429.8999999985099","resources/trios/L1T1A3.jpg","39","restless",0.4,0.6,0.3,0.50960127101495,"false"
"image-keyboard-response",102,150740,"0.0-3.30-1.30","z8gmkpfu036htbm",95,"2.csv","","null","resources/maskTrios/BBA3.jpg","null","",NA,NA,NA,NA,""
"image-keyboard-response",103,151948,"0.0-3.30-2.30","z8gmkpfu036htbm",95,"2.csv","","null","resources/images/fishbone.png","null","",NA,NA,NA,NA,""
"image-keyboard-response",104,152376,"0.0-3.31-0.31","z8gmkpfu036htbm",95,"2.csv","","427","resources/trios/L2T1A2.jpg","38","restless",0.4,0.6,0.3,0.179732118657339,"true"
"image-keyboard-response",105,152788,"0.0-3.31-1.31","z8gmkpfu036htbm",95,"2.csv","","null","resources/maskTrios/BT1B.jpg","null","",NA,NA,NA,NA,""
"image-keyboard-response",106,153992,"0.0-3.31-2.31","z8gmkpfu036htbm",95,"2.csv","","null","resources/images/coin2.png","null","",NA,NA,NA,NA,""
"image-keyboard-response",107,154371,"0.0-3.32-0.32","z8gmkpfu036htbm",95,"2.csv","","378.29999999701977","resources/trios/L2T2A2.jpg","38","restless",0.4,0.6,0.3,0.961848185537552,"false"
"image-keyboard-response",108,154780,"0.0-3.32-1.32","z8gmkpfu036htbm",95,"2.csv","","null","resources/maskTrios/BT2B.jpg","null","",NA,NA,NA,NA,""
"image-keyboard-response",109,155985,"0.0-3.32-2.32","z8gmkpfu036htbm",95,"2.csv","","null","resources/images/fishbone.png","null","",NA,NA,NA,NA,""
"image-keyboard-response",110,156449,"0.0-3.33-0.33","z8gmkpfu036htbm",95,"2.csv","","462.30000000447035","resources/trios/L2T2A2.jpg","37","restless",0.4,0.6,0.3,0.605950816106824,"false"
"image-keyboard-response",111,156856,"0.0-3.33-1.33","z8gmkpfu036htbm",95,"2.csv","","null","resources/maskTrios/L2BB.jpg","null","",NA,NA,NA,NA,""
"image-keyboard-response",112,158064,"0.0-3.33-2.33","z8gmkpfu036htbm",95,"2.csv","","null","resources/images/fishbone.png","null","",NA,NA,NA,NA,""
"image-keyboard-response",113,158554,"0.0-3.34-0.34","z8gmkpfu036htbm",95,"2.csv","","488.29999999701977","resources/trios/L2T1A2.jpg","39","restless",0.4,0.6,0.3,0.530561322951574,"false"
"image-keyboard-response",114,158964,"0.0-3.34-1.34","z8gmkpfu036htbm",95,"2.csv","","null","resources/maskTrios/BBA2.jpg","null","",NA,NA,NA,NA,""
"image-keyboard-response",115,160168,"0.0-3.34-2.34","z8gmkpfu036htbm",95,"2.csv","","null","resources/images/fishbone.png","null","",NA,NA,NA,NA,""
"image-keyboard-response",116,160771,"0.0-3.35-0.35","z8gmkpfu036htbm",95,"2.csv","","601.2000000029802","resources/trios/L2T2A3.jpg","38","restless",0.4,0.6,0.3,0.726726368808206,"false"
"image-keyboard-response",117,161179,"0.0-3.35-1.35","z8gmkpfu036htbm",95,"2.csv","","null","resources/maskTrios/BT2B.jpg","null","",NA,NA,NA,NA,""
"image-keyboard-response",118,162383,"0.0-3.35-2.35","z8gmkpfu036htbm",95,"2.csv","","null","resources/images/fishbone.png","null","",NA,NA,NA,NA,""
"image-keyboard-response",119,162865,"0.0-3.36-0.36","z8gmkpfu036htbm",95,"2.csv","","480.8999999985099","resources/trios/L1T1A3.jpg","37","restless",0.4,0.6,0.3,0.580206679409636,"false"
"image-keyboard-response",120,163271,"0.0-3.36-1.36","z8gmkpfu036htbm",95,"2.csv","","null","resources/maskTrios/L1BB.jpg","null","",NA,NA,NA,NA,""
"image-keyboard-response",121,164480,"0.0-3.36-2.36","z8gmkpfu036htbm",95,"2.csv","","null","resources/images/fishbone.png","null","",NA,NA,NA,NA,""
"image-keyboard-response",122,165217,"0.0-3.37-0.37","z8gmkpfu036htbm",95,"2.csv","","735.1000000014901","resources/trios/L1T1A2.jpg","37","restless",0.4,0.6,0.4,0.371254639807911,"true"
"image-keyboard-response",123,165625,"0.0-3.37-1.37","z8gmkpfu036htbm",95,"2.csv","","null","resources/maskTrios/L1BB.jpg","null","",NA,NA,NA,NA,""
"image-keyboard-response",124,166836,"0.0-3.37-2.37","z8gmkpfu036htbm",95,"2.csv","","null","resources/images/coin2.png","null","",NA,NA,NA,NA,""
"image-keyboard-response",125,167220,"0.0-3.38-0.38","z8gmkpfu036htbm",95,"2.csv","","383.3999999985099","resources/trios/L2T2A3.jpg","37","restless",0.4,0.6,0.4,0.730475711507009,"false"
"image-keyboard-response",126,167628,"0.0-3.38-1.38","z8gmkpfu036htbm",95,"2.csv","","null","resources/maskTrios/L2BB.jpg","null","",NA,NA,NA,NA,""
"image-keyboard-response",127,168836,"0.0-3.38-2.38","z8gmkpfu036htbm",95,"2.csv","","null","resources/images/fishbone.png","null","",NA,NA,NA,NA,""
"image-keyboard-response",128,169417,"0.0-3.39-0.39","z8gmkpfu036htbm",95,"2.csv","","579.8999999985099","resources/trios/L2T2A3.jpg","38","restless",0.4,0.6,0.4,0.619134981026322,"false"
"image-keyboard-response",129,169825,"0.0-3.39-1.39","z8gmkpfu036htbm",95,"2.csv","","null","resources/maskTrios/BT2B.jpg","null","",NA,NA,NA,NA,""
"image-keyboard-response",130,171032,"0.0-3.39-2.39","z8gmkpfu036htbm",95,"2.csv","","null","resources/images/fishbone.png","null","",NA,NA,NA,NA,""
"image-keyboard-response",131,171635,"0.0-3.40-0.40","z8gmkpfu036htbm",95,"2.csv","","601.7999999970198","resources/trios/L1T1A2.jpg","39","restless",0.4,0.6,0.4,0.324437815534869,"true"
"image-keyboard-response",132,172043,"0.0-3.40-1.40","z8gmkpfu036htbm",95,"2.csv","","null","resources/maskTrios/BBA2.jpg","null","",NA,NA,NA,NA,""
"image-keyboard-response",133,173252,"0.0-3.40-2.40","z8gmkpfu036htbm",95,"2.csv","","null","resources/images/coin2.png","null","",NA,NA,NA,NA,""
"image-keyboard-response",134,173953,"0.0-3.41-0.41","z8gmkpfu036htbm",95,"2.csv","","700.1000000014901","resources/trios/L1T1A3.jpg","39","restless",0.4,0.7,0.4,0.0139772994333123,"true"
"image-keyboard-response",135,174360,"0.0-3.41-1.41","z8gmkpfu036htbm",95,"2.csv","","null","resources/maskTrios/BBA3.jpg","null","",NA,NA,NA,NA,""
"image-keyboard-response",136,175571,"0.0-3.41-2.41","z8gmkpfu036htbm",95,"2.csv","","null","resources/images/coin2.png","null","",NA,NA,NA,NA,""
"image-keyboard-response",137,176139,"0.0-3.42-0.42","z8gmkpfu036htbm",95,"2.csv","","566","resources/trios/L1T1A2.jpg","39","restless",0.5,0.7,0.3,0.497849593826523,"false"
"image-keyboard-response",138,176543,"0.0-3.42-1.42","z8gmkpfu036htbm",95,"2.csv","","null","resources/maskTrios/BBA2.jpg","null","",NA,NA,NA,NA,""
"image-keyboard-response",139,177752,"0.0-3.42-2.42","z8gmkpfu036htbm",95,"2.csv","","null","resources/images/fishbone.png","null","",NA,NA,NA,NA,""
"image-keyboard-response",140,178401,"0.0-3.43-0.43","z8gmkpfu036htbm",95,"2.csv","","647.1000000014901","resources/trios/L2T2A2.jpg","37","restless",0.5,0.7,0.3,0.102803918858573,"true"
"image-keyboard-response",141,178812,"0.0-3.43-1.43","z8gmkpfu036htbm",95,"2.csv","","null","resources/maskTrios/L2BB.jpg","null","",NA,NA,NA,NA,""
"image-keyboard-response",142,180020,"0.0-3.43-2.43","z8gmkpfu036htbm",95,"2.csv","","null","resources/images/coin2.png","null","",NA,NA,NA,NA,""
"image-keyboard-response",143,180449,"0.0-3.44-0.44","z8gmkpfu036htbm",95,"2.csv","","427.70000000298023","resources/trios/L1T1A3.jpg","37","restless",0.5,0.7,0.3,0.0662740796949612,"true"
"image-keyboard-response",144,180856,"0.0-3.44-1.44","z8gmkpfu036htbm",95,"2.csv","","null","resources/maskTrios/L1BB.jpg","null","",NA,NA,NA,NA,""
"image-keyboard-response",145,182064,"0.0-3.44-2.44","z8gmkpfu036htbm",95,"2.csv","","null","resources/images/coin2.png","null","",NA,NA,NA,NA,""
"image-keyboard-response",146,182519,"0.0-3.45-0.45","z8gmkpfu036htbm",95,"2.csv","","454.29999999701977","resources/trios/L1T2A3.jpg","37","restless",0.5,0.7,0.3,0.870139095301522,"false"
"image-keyboard-response",147,182928,"0.0-3.45-1.45","z8gmkpfu036htbm",95,"2.csv","","null","resources/maskTrios/L1BB.jpg","null","",NA,NA,NA,NA,""
"image-keyboard-response",148,184140,"0.0-3.45-2.45","z8gmkpfu036htbm",95,"2.csv","","null","resources/images/fishbone.png","null","",NA,NA,NA,NA,""
"image-keyboard-response",149,184620,"0.0-3.46-0.46","z8gmkpfu036htbm",95,"2.csv","","478.70000000298023","resources/trios/L1T1A3.jpg","38","restless",0.5,0.7,0.3,0.892494855619932,"false"
"image-keyboard-response",150,185026,"0.0-3.46-1.46","z8gmkpfu036htbm",95,"2.csv","","null","resources/maskTrios/BT1B.jpg","null","",NA,NA,NA,NA,""
"image-keyboard-response",151,186231,"0.0-3.46-2.46","z8gmkpfu036htbm",95,"2.csv","","null","resources/images/fishbone.png","null","",NA,NA,NA,NA,""
"image-keyboard-response",152,186573,"0.0-3.47-0.47","z8gmkpfu036htbm",95,"2.csv","","340.8999999985099","resources/trios/L1T2A3.jpg","37","restless",0.5,0.7,0.3,0.537368951608783,"false"
"image-keyboard-response",153,186988,"0.0-3.47-1.47","z8gmkpfu036htbm",95,"2.csv","","null","resources/maskTrios/L1BB.jpg","null","",NA,NA,NA,NA,""
"image-keyboard-response",154,188191,"0.0-3.47-2.47","z8gmkpfu036htbm",95,"2.csv","","null","resources/images/fishbone.png","null","",NA,NA,NA,NA,""
"image-keyboard-response",155,189181,"0.0-3.48-0.48","z8gmkpfu036htbm",95,"2.csv","","989","resources/trios/L1T2A2.jpg","37","restless",0.4,0.7,0.3,0.749715458432118,"false"
"image-keyboard-response",156,189587,"0.0-3.48-1.48","z8gmkpfu036htbm",95,"2.csv","","null","resources/maskTrios/L1BB.jpg","null","",NA,NA,NA,NA,""
"image-keyboard-response",157,190793,"0.0-3.48-2.48","z8gmkpfu036htbm",95,"2.csv","","null","resources/images/fishbone.png","null","",NA,NA,NA,NA,""
"image-keyboard-response",158,191234,"0.0-3.49-0.49","z8gmkpfu036htbm",95,"2.csv","","439.79999999701977","resources/trios/L2T1A2.jpg","39","restless",0.4,0.8,0.3,0.0487249221929078,"true"
"image-keyboard-response",159,191640,"0.0-3.49-1.49","z8gmkpfu036htbm",95,"2.csv","","null","resources/maskTrios/BBA2.jpg","null","",NA,NA,NA,NA,""
"image-keyboard-response",160,192848,"0.0-3.49-2.49","z8gmkpfu036htbm",95,"2.csv","","null","resources/images/coin2.png","null","",NA,NA,NA,NA,""
"image-keyboard-response",161,193364,"0.0-3.50-0.50","z8gmkpfu036htbm",95,"2.csv","","515","resources/trios/L2T1A3.jpg","39","restless",0.4,0.8,0.3,0.611810954660287,"false"
"image-keyboard-response",162,193768,"0.0-3.50-1.50","z8gmkpfu036htbm",95,"2.csv","","null","resources/maskTrios/BBA3.jpg","null","",NA,NA,NA,NA,""
"image-keyboard-response",163,194980,"0.0-3.50-2.50","z8gmkpfu036htbm",95,"2.csv","","null","resources/images/fishbone.png","null","",NA,NA,NA,NA,""
"image-keyboard-response",164,195814,"0.0-3.51-0.51","z8gmkpfu036htbm",95,"2.csv","","833.3999999985099","resources/trios/L2T1A2.jpg","38","restless",0.4,0.8,0.3,0.0375385757801685,"true"
"image-keyboard-response",165,196223,"0.0-3.51-1.51","z8gmkpfu036htbm",95,"2.csv","","null","resources/maskTrios/BT1B.jpg","null","",NA,NA,NA,NA,""
"image-keyboard-response",166,197436,"0.0-3.51-2.51","z8gmkpfu036htbm",95,"2.csv","","null","resources/images/coin2.png","null","",NA,NA,NA,NA,""
"image-keyboard-response",167,197936,"0.0-3.52-0.52","z8gmkpfu036htbm",95,"2.csv","","498.70000000298023","resources/trios/L2T1A3.jpg","38","restless",0.4,0.8,0.3,0.586476790247664,"true"
"image-keyboard-response",168,198343,"0.0-3.52-1.52","z8gmkpfu036htbm",95,"2.csv","","null","resources/maskTrios/BT1B.jpg","null","",NA,NA,NA,NA,""
"image-keyboard-response",169,199556,"0.0-3.52-2.52","z8gmkpfu036htbm",95,"2.csv","","null","resources/images/coin2.png","null","",NA,NA,NA,NA,""
"image-keyboard-response",170,199980,"0.0-3.53-0.53","z8gmkpfu036htbm",95,"2.csv","","422.90000000596046","resources/trios/L2T2A3.jpg","38","restless",0.4,0.8,0.3,0.31883552757862,"true"
"image-keyboard-response",171,200387,"0.0-3.53-1.53","z8gmkpfu036htbm",95,"2.csv","","null","resources/maskTrios/BT2B.jpg","null","",NA,NA,NA,NA,""
"image-keyboard-response",172,201592,"0.0-3.53-2.53","z8gmkpfu036htbm",95,"2.csv","","null","resources/images/coin2.png","null","",NA,NA,NA,NA,""
"image-keyboard-response",173,202211,"0.0-3.54-0.54","z8gmkpfu036htbm",95,"2.csv","","617.6999999955297","resources/trios/L1T1A3.jpg","38","restless",0.4,0.8,0.3,0.245490103234926,"true"
"image-keyboard-response",174,202617,"0.0-3.54-1.54","z8gmkpfu036htbm",95,"2.csv","","null","resources/maskTrios/BT1B.jpg","null","",NA,NA,NA,NA,""
"image-keyboard-response",175,203825,"0.0-3.54-2.54","z8gmkpfu036htbm",95,"2.csv","","null","resources/images/coin2.png","null","",NA,NA,NA,NA,""
"image-keyboard-response",176,204285,"0.0-3.55-0.55","z8gmkpfu036htbm",95,"2.csv","","458.1000000014901","resources/trios/L1T2A2.jpg","38","restless",0.5,0.8,0.3,0.510870407284942,"true"
"image-keyboard-response",177,204692,"0.0-3.55-1.55","z8gmkpfu036htbm",95,"2.csv","","null","resources/maskTrios/BT2B.jpg","null","",NA,NA,NA,NA,""
"image-keyboard-response",178,205896,"0.0-3.55-2.55","z8gmkpfu036htbm",95,"2.csv","","null","resources/images/coin2.png","null","",NA,NA,NA,NA,""
"image-keyboard-response",179,206305,"0.0-3.56-0.56","z8gmkpfu036htbm",95,"2.csv","","407.40000000596046","resources/trios/L2T1A3.jpg","38","restless",0.5,0.8,0.3,0.105400117563622,"true"
"image-keyboard-response",180,206713,"0.0-3.56-1.56","z8gmkpfu036htbm",95,"2.csv","","null","resources/maskTrios/BT1B.jpg","null","",NA,NA,NA,NA,""
"image-keyboard-response",181,207920,"0.0-3.56-2.56","z8gmkpfu036htbm",95,"2.csv","","null","resources/images/coin2.png","null","",NA,NA,NA,NA,""
"image-keyboard-response",182,208341,"0.0-3.57-0.57","z8gmkpfu036htbm",95,"2.csv","","419.20000000298023","resources/trios/L2T1A3.jpg","38","restless",0.5,0.8,0.3,0.0699897822918392,"true"
"image-keyboard-response",183,208749,"0.0-3.57-1.57","z8gmkpfu036htbm",95,"2.csv","","null","resources/maskTrios/BT1B.jpg","null","",NA,NA,NA,NA,""
"image-keyboard-response",184,209958,"0.0-3.57-2.57","z8gmkpfu036htbm",95,"2.csv","","null","resources/images/coin2.png","null","",NA,NA,NA,NA,""
"image-keyboard-response",185,210328,"0.0-3.58-0.58","z8gmkpfu036htbm",95,"2.csv","","368.70000000298023","resources/trios/L2T1A2.jpg","38","restless",0.5,0.8,0.3,0.665354650271209,"true"
"image-keyboard-response",186,210743,"0.0-3.58-1.58","z8gmkpfu036htbm",95,"2.csv","","null","resources/maskTrios/BT1B.jpg","null","",NA,NA,NA,NA,""
"image-keyboard-response",187,211952,"0.0-3.58-2.58","z8gmkpfu036htbm",95,"2.csv","","null","resources/images/coin2.png","null","",NA,NA,NA,NA,""
"image-keyboard-response",188,212299,"0.0-3.59-0.59","z8gmkpfu036htbm",95,"2.csv","","346.19999999552965","resources/trios/L1T2A2.jpg","38","restless",0.5,0.8,0.3,0.230542148468782,"true"
"image-keyboard-response",189,212708,"0.0-3.59-1.59","z8gmkpfu036htbm",95,"2.csv","","null","resources/maskTrios/BT2B.jpg","null","",NA,NA,NA,NA,""
"image-keyboard-response",190,213916,"0.0-3.59-2.59","z8gmkpfu036htbm",95,"2.csv","","null","resources/images/coin2.png","null","",NA,NA,NA,NA,""
"image-keyboard-response",191,214488,"0.0-3.60-0.60","z8gmkpfu036htbm",95,"2.csv","","570.1000000014901","resources/trios/L1T2A3.jpg","38","restless",0.5,0.8,0.3,0.614885410477616,"true"
"image-keyboard-response",192,214896,"0.0-3.60-1.60","z8gmkpfu036htbm",95,"2.csv","","null","resources/maskTrios/BT2B.jpg","null","",NA,NA,NA,NA,""
"image-keyboard-response",193,216107,"0.0-3.60-2.60","z8gmkpfu036htbm",95,"2.csv","","null","resources/images/coin2.png","null","",NA,NA,NA,NA,""
"image-keyboard-response",194,216714,"0.0-3.61-0.61","z8gmkpfu036htbm",95,"2.csv","","606.2000000029802","resources/trios/L1T2A3.jpg","38","restless",0.5,0.8,0.3,0.719390649534589,"true"
"image-keyboard-response",195,217119,"0.0-3.61-1.61","z8gmkpfu036htbm",95,"2.csv","","null","resources/maskTrios/BT2B.jpg","null","",NA,NA,NA,NA,""
"image-keyboard-response",196,218332,"0.0-3.61-2.61","z8gmkpfu036htbm",95,"2.csv","","null","resources/images/coin2.png","null","",NA,NA,NA,NA,""
"image-keyboard-response",197,218801,"0.0-3.62-0.62","z8gmkpfu036htbm",95,"2.csv","","468.1000000014901","resources/trios/L2T1A3.jpg","38","restless",0.5,0.9,0.3,0.0291795063581877,"true"
"image-keyboard-response",198,219208,"0.0-3.62-1.62","z8gmkpfu036htbm",95,"2.csv","","null","resources/maskTrios/BT1B.jpg","null","",NA,NA,NA,NA,""
"image-keyboard-response",199,220421,"0.0-3.62-2.62","z8gmkpfu036htbm",95,"2.csv","","null","resources/images/coin2.png","null","",NA,NA,NA,NA,""
"image-keyboard-response",200,220858,"0.0-3.63-0.63","z8gmkpfu036htbm",95,"2.csv","","435.20000000298023","resources/trios/L1T1A3.jpg","38","restless",0.5,0.8,0.3,0.749792455649236,"true"
"image-keyboard-response",201,221269,"0.0-3.63-1.63","z8gmkpfu036htbm",95,"2.csv","","null","resources/maskTrios/BT1B.jpg","null","",NA,NA,NA,NA,""
"image-keyboard-response",202,222475,"0.0-3.63-2.63","z8gmkpfu036htbm",95,"2.csv","","null","resources/images/coin2.png","null","",NA,NA,NA,NA,""
"image-keyboard-response",203,222738,"0.0-3.64-0.64","z8gmkpfu036htbm",95,"2.csv","","261.20000000298023","resources/trios/L1T1A3.jpg","38","restless",0.5,0.8,0.3,0.140088651096146,"true"
"image-keyboard-response",204,223150,"0.0-3.64-1.64","z8gmkpfu036htbm",95,"2.csv","","null","resources/maskTrios/BT1B.jpg","null","",NA,NA,NA,NA,""
"image-keyboard-response",205,224358,"0.0-3.64-2.64","z8gmkpfu036htbm",95,"2.csv","","null","resources/images/coin2.png","null","",NA,NA,NA,NA,""
"image-keyboard-response",206,224650,"0.0-3.65-0.65","z8gmkpfu036htbm",95,"2.csv","","290.1000000014901","resources/trios/L1T2A3.jpg","38","restless",0.5,0.8,0.3,0.794436811223318,"true"
"image-keyboard-response",207,225062,"0.0-3.65-1.65","z8gmkpfu036htbm",95,"2.csv","","null","resources/maskTrios/BT2B.jpg","null","",NA,NA,NA,NA,""
"image-keyboard-response",208,226271,"0.0-3.65-2.65","z8gmkpfu036htbm",95,"2.csv","","null","resources/images/coin2.png","null","",NA,NA,NA,NA,""
"image-keyboard-response",209,226693,"0.0-3.66-0.66","z8gmkpfu036htbm",95,"2.csv","","421","resources/trios/L1T1A3.jpg","38","restless",0.5,0.8,0.3,0.566732415480714,"true"
"image-keyboard-response",210,227101,"0.0-3.66-1.66","z8gmkpfu036htbm",95,"2.csv","","null","resources/maskTrios/BT1B.jpg","null","",NA,NA,NA,NA,""
"image-keyboard-response",211,228311,"0.0-3.66-2.66","z8gmkpfu036htbm",95,"2.csv","","null","resources/images/coin2.png","null","",NA,NA,NA,NA,""
"image-keyboard-response",212,228704,"0.0-3.67-0.67","z8gmkpfu036htbm",95,"2.csv","","391.1000000014901","resources/trios/L1T2A2.jpg","38","restless",0.5,0.8,0.3,0.719458947893918,"true"
"image-keyboard-response",213,229112,"0.0-3.67-1.67","z8gmkpfu036htbm",95,"2.csv","","null","resources/maskTrios/BT2B.jpg","null","",NA,NA,NA,NA,""
"image-keyboard-response",214,230320,"0.0-3.67-2.67","z8gmkpfu036htbm",95,"2.csv","","null","resources/images/coin2.png","null","",NA,NA,NA,NA,""
"image-keyboard-response",215,231150,"0.0-3.68-0.68","z8gmkpfu036htbm",95,"2.csv","","828.5","resources/trios/L1T2A2.jpg","38","restless",0.5,0.9,0.3,0.761760516246031,"true"
"image-keyboard-response",216,231552,"0.0-3.68-1.68","z8gmkpfu036htbm",95,"2.csv","","null","resources/maskTrios/BT2B.jpg","null","",NA,NA,NA,NA,""
"image-keyboard-response",217,232759,"0.0-3.68-2.68","z8gmkpfu036htbm",95,"2.csv","","null","resources/images/coin2.png","null","",NA,NA,NA,NA,""
"image-keyboard-response",218,233573,"0.0-3.69-0.69","z8gmkpfu036htbm",95,"2.csv","","811.7000000029802","resources/trios/L2T1A3.jpg","38","restless",0.5,0.9,0.3,0.482834152022597,"true"
"image-keyboard-response",219,233980,"0.0-3.69-1.69","z8gmkpfu036htbm",95,"2.csv","","null","resources/maskTrios/BT1B.jpg","null","",NA,NA,NA,NA,""
"image-keyboard-response",220,235193,"0.0-3.69-2.69","z8gmkpfu036htbm",95,"2.csv","","null","resources/images/coin2.png","null","",NA,NA,NA,NA,""
"image-keyboard-response",221,235572,"0.0-3.70-0.70","z8gmkpfu036htbm",95,"2.csv","","378.1000000014901","resources/trios/L1T2A2.jpg","38","restless",0.4,0.9,0.3,0.0753184874538908,"true"
"image-keyboard-response",222,235983,"0.0-3.70-1.70","z8gmkpfu036htbm",95,"2.csv","","null","resources/maskTrios/BT2B.jpg","null","",NA,NA,NA,NA,""
"image-keyboard-response",223,237193,"0.0-3.70-2.70","z8gmkpfu036htbm",95,"2.csv","","null","resources/images/coin2.png","null","",NA,NA,NA,NA,""
"image-keyboard-response",224,237581,"0.0-3.71-0.71","z8gmkpfu036htbm",95,"2.csv","","386.19999999552965","resources/trios/L2T2A2.jpg","38","restless",0.5,0.9,0.3,0.323622340387013,"true"
"image-keyboard-response",225,237988,"0.0-3.71-1.71","z8gmkpfu036htbm",95,"2.csv","","null","resources/maskTrios/BT2B.jpg","null","",NA,NA,NA,NA,""
"image-keyboard-response",226,239201,"0.0-3.71-2.71","z8gmkpfu036htbm",95,"2.csv","","null","resources/images/coin2.png","null","",NA,NA,NA,NA,""
"image-keyboard-response",227,239579,"0.0-3.72-0.72","z8gmkpfu036htbm",95,"2.csv","","375.8999999985099","resources/trios/L2T1A3.jpg","38","restless",0.5,0.8,0.3,0.246729094722336,"true"
"image-keyboard-response",228,239986,"0.0-3.72-1.72","z8gmkpfu036htbm",95,"2.csv","","null","resources/maskTrios/BT1B.jpg","null","",NA,NA,NA,NA,""
"image-keyboard-response",229,241190,"0.0-3.72-2.72","z8gmkpfu036htbm",95,"2.csv","","null","resources/images/coin2.png","null","",NA,NA,NA,NA,""
"image-keyboard-response",230,241691,"0.0-3.73-0.73","z8gmkpfu036htbm",95,"2.csv","","499.3999999985099","resources/trios/L1T1A2.jpg","38","restless",0.5,0.8,0.3,0.640937918364898,"true"
"image-keyboard-response",231,242098,"0.0-3.73-1.73","z8gmkpfu036htbm",95,"2.csv","","null","resources/maskTrios/BT1B.jpg","null","",NA,NA,NA,NA,""
"image-keyboard-response",232,243306,"0.0-3.73-2.73","z8gmkpfu036htbm",95,"2.csv","","null","resources/images/coin2.png","null","",NA,NA,NA,NA,""
"image-keyboard-response",233,243745,"0.0-3.74-0.74","z8gmkpfu036htbm",95,"2.csv","","437","resources/trios/L2T1A2.jpg","38","restless",0.5,0.8,0.3,0.192099266230482,"true"
"image-keyboard-response",234,244150,"0.0-3.74-1.74","z8gmkpfu036htbm",95,"2.csv","","null","resources/maskTrios/BT1B.jpg","null","",NA,NA,NA,NA,""
"image-keyboard-response",235,245362,"0.0-3.74-2.74","z8gmkpfu036htbm",95,"2.csv","","null","resources/images/coin2.png","null","",NA,NA,NA,NA,""
"image-keyboard-response",236,245749,"0.0-3.75-0.75","z8gmkpfu036htbm",95,"2.csv","","385.20000000298023","resources/trios/L1T1A3.jpg","38","restless",0.5,0.7,0.3,0.115803418676351,"true"
"image-keyboard-response",237,246158,"0.0-3.75-1.75","z8gmkpfu036htbm",95,"2.csv","","null","resources/maskTrios/BT1B.jpg","null","",NA,NA,NA,NA,""
"image-keyboard-response",238,247370,"0.0-3.75-2.75","z8gmkpfu036htbm",95,"2.csv","","null","resources/images/coin2.png","null","",NA,NA,NA,NA,""
"image-keyboard-response",239,247704,"0.0-3.76-0.76","z8gmkpfu036htbm",95,"2.csv","","331.8999999985099","resources/trios/L2T2A2.jpg","38","restless",0.5,0.7,0.3,0.493712164228654,"true"
"image-keyboard-response",240,248114,"0.0-3.76-1.76","z8gmkpfu036htbm",95,"2.csv","","null","resources/maskTrios/BT2B.jpg","null","",NA,NA,NA,NA,""
"image-keyboard-response",241,249318,"0.0-3.76-2.76","z8gmkpfu036htbm",95,"2.csv","","null","resources/images/coin2.png","null","",NA,NA,NA,NA,""
"image-keyboard-response",242,249701,"0.0-3.77-0.77","z8gmkpfu036htbm",95,"2.csv","","381.8999999985099","resources/trios/L1T1A3.jpg","38","restless",0.5,0.7,0.3,0.445276291630941,"true"
"image-keyboard-response",243,250114,"0.0-3.77-1.77","z8gmkpfu036htbm",95,"2.csv","","null","resources/maskTrios/BT1B.jpg","null","",NA,NA,NA,NA,""
"image-keyboard-response",244,251323,"0.0-3.77-2.77","z8gmkpfu036htbm",95,"2.csv","","null","resources/images/coin2.png","null","",NA,NA,NA,NA,""
"image-keyboard-response",245,251747,"0.0-3.78-0.78","z8gmkpfu036htbm",95,"2.csv","","422.79999999701977","resources/trios/L1T2A3.jpg","38","restless",0.5,0.7,0.3,0.525881518916755,"true"
"image-keyboard-response",246,252155,"0.0-3.78-1.78","z8gmkpfu036htbm",95,"2.csv","","null","resources/maskTrios/BT2B.jpg","null","",NA,NA,NA,NA,""
"image-keyboard-response",247,253363,"0.0-3.78-2.78","z8gmkpfu036htbm",95,"2.csv","","null","resources/images/coin2.png","null","",NA,NA,NA,NA,""
"image-keyboard-response",248,253878,"0.0-3.79-0.79","z8gmkpfu036htbm",95,"2.csv","","513.7000000029802","resources/trios/L2T1A2.jpg","38","restless",0.5,0.7,0.3,0.457887301884832,"true"
"image-keyboard-response",249,254287,"0.0-3.79-1.79","z8gmkpfu036htbm",95,"2.csv","","null","resources/maskTrios/BT1B.jpg","null","",NA,NA,NA,NA,""
"image-keyboard-response",250,255496,"0.0-3.79-2.79","z8gmkpfu036htbm",95,"2.csv","","null","resources/images/coin2.png","null","",NA,NA,NA,NA,""
"image-keyboard-response",251,255765,"0.0-3.80-0.80","z8gmkpfu036htbm",95,"2.csv","","267.29999999701977","resources/trios/L1T2A3.jpg","38","restless",0.5,0.7,0.3,0.0752318421128935,"true"
"image-keyboard-response",252,256174,"0.0-3.80-1.80","z8gmkpfu036htbm",95,"2.csv","","null","resources/maskTrios/BT2B.jpg","null","",NA,NA,NA,NA,""
"image-keyboard-response",253,257387,"0.0-3.80-2.80","z8gmkpfu036htbm",95,"2.csv","","null","resources/images/coin2.png","null","",NA,NA,NA,NA,""
"image-keyboard-response",254,257702,"0.0-3.81-0.81","z8gmkpfu036htbm",95,"2.csv","","313.6000000014901","resources/trios/L1T1A3.jpg","38","restless",0.5,0.7,0.3,0.381599205691571,"true"
"image-keyboard-response",255,258115,"0.0-3.81-1.81","z8gmkpfu036htbm",95,"2.csv","","null","resources/maskTrios/BT1B.jpg","null","",NA,NA,NA,NA,""
"image-keyboard-response",256,259323,"0.0-3.81-2.81","z8gmkpfu036htbm",95,"2.csv","","null","resources/images/coin2.png","null","",NA,NA,NA,NA,""
"image-keyboard-response",257,259644,"0.0-3.82-0.82","z8gmkpfu036htbm",95,"2.csv","","319.6000000014901","resources/trios/L2T1A2.jpg","38","restless",0.6,0.7,0.3,0.115517919413572,"true"
"image-keyboard-response",258,260051,"0.0-3.82-1.82","z8gmkpfu036htbm",95,"2.csv","","null","resources/maskTrios/BT1B.jpg","null","",NA,NA,NA,NA,""
"image-keyboard-response",259,261259,"0.0-3.82-2.82","z8gmkpfu036htbm",95,"2.csv","","null","resources/images/coin2.png","null","",NA,NA,NA,NA,""
"image-keyboard-response",260,261679,"0.0-3.83-0.83","z8gmkpfu036htbm",95,"2.csv","","418.3999999985099","resources/trios/L1T2A3.jpg","38","restless",0.6,0.6,0.3,0.794729562648548,"false"
"image-keyboard-response",261,262091,"0.0-3.83-1.83","z8gmkpfu036htbm",95,"2.csv","","null","resources/maskTrios/BT2B.jpg","null","",NA,NA,NA,NA,""
"image-keyboard-response",262,263299,"0.0-3.83-2.83","z8gmkpfu036htbm",95,"2.csv","","null","resources/images/fishbone.png","null","",NA,NA,NA,NA,""
"image-keyboard-response",263,263712,"0.0-3.84-0.84","z8gmkpfu036htbm",95,"2.csv","","412","resources/trios/L1T2A2.jpg","37","restless",0.6,0.6,0.3,0.00901290470075833,"true"
"image-keyboard-response",264,264121,"0.0-3.84-1.84","z8gmkpfu036htbm",95,"2.csv","","null","resources/maskTrios/L1BB.jpg","null","",NA,NA,NA,NA,""
"image-keyboard-response",265,265326,"0.0-3.84-2.84","z8gmkpfu036htbm",95,"2.csv","","null","resources/images/coin2.png","null","",NA,NA,NA,NA,""
"image-keyboard-response",266,265719,"0.0-3.85-0.85","z8gmkpfu036htbm",95,"2.csv","","391.29999999701977","resources/trios/L2T1A2.jpg","37","restless",0.6,0.6,0.3,0.950214627611772,"false"
"image-keyboard-response",267,266131,"0.0-3.85-1.85","z8gmkpfu036htbm",95,"2.csv","","null","resources/maskTrios/L2BB.jpg","null","",NA,NA,NA,NA,""
"image-keyboard-response",268,267339,"0.0-3.85-2.85","z8gmkpfu036htbm",95,"2.csv","","null","resources/images/fishbone.png","null","",NA,NA,NA,NA,""
"image-keyboard-response",269,267637,"0.0-3.86-0.86","z8gmkpfu036htbm",95,"2.csv","","296","resources/trios/L1T1A2.jpg","38","restless",0.5,0.6,0.3,0.0306628398267572,"true"
"image-keyboard-response",270,268043,"0.0-3.86-1.86","z8gmkpfu036htbm",95,"2.csv","","null","resources/maskTrios/BT1B.jpg","null","",NA,NA,NA,NA,""
"image-keyboard-response",271,269251,"0.0-3.86-2.86","z8gmkpfu036htbm",95,"2.csv","","null","resources/images/coin2.png","null","",NA,NA,NA,NA,""
"image-keyboard-response",272,269620,"0.0-3.87-0.87","z8gmkpfu036htbm",95,"2.csv","","367.69999999552965","resources/trios/L2T2A2.jpg","38","restless",0.5,0.6,0.3,0.0342018223635034,"true"
"image-keyboard-response",273,270023,"0.0-3.87-1.87","z8gmkpfu036htbm",95,"2.csv","","null","resources/maskTrios/BT2B.jpg","null","",NA,NA,NA,NA,""
"image-keyboard-response",274,271235,"0.0-3.87-2.87","z8gmkpfu036htbm",95,"2.csv","","null","resources/images/coin2.png","null","",NA,NA,NA,NA,""
"image-keyboard-response",275,271577,"0.0-3.88-0.88","z8gmkpfu036htbm",95,"2.csv","","340","resources/trios/L2T1A2.jpg","38","restless",0.5,0.6,0.4,0.662393366327854,"false"
"image-keyboard-response",276,271984,"0.0-3.88-1.88","z8gmkpfu036htbm",95,"2.csv","","null","resources/maskTrios/BT1B.jpg","null","",NA,NA,NA,NA,""
"image-keyboard-response",277,273190,"0.0-3.88-2.88","z8gmkpfu036htbm",95,"2.csv","","null","resources/images/fishbone.png","null","",NA,NA,NA,NA,""
"image-keyboard-response",278,273507,"0.0-3.89-0.89","z8gmkpfu036htbm",95,"2.csv","","315","resources/trios/L2T1A2.jpg","37","restless",0.5,0.6,0.4,0.483411928895366,"true"
"image-keyboard-response",279,273911,"0.0-3.89-1.89","z8gmkpfu036htbm",95,"2.csv","","null","resources/maskTrios/L2BB.jpg","null","",NA,NA,NA,NA,""
"image-keyboard-response",280,275122,"0.0-3.89-2.89","z8gmkpfu036htbm",95,"2.csv","","null","resources/images/coin2.png","null","",NA,NA,NA,NA,""
"image-keyboard-response",281,275551,"0.0-3.90-0.90","z8gmkpfu036htbm",95,"2.csv","","427","resources/trios/L1T1A2.jpg","37","restless",0.5,0.6,0.4,0.0862326733574106,"true"
"image-keyboard-response",282,275959,"0.0-3.90-1.90","z8gmkpfu036htbm",95,"2.csv","","null","resources/maskTrios/L1BB.jpg","null","",NA,NA,NA,NA,""
"image-keyboard-response",283,277171,"0.0-3.90-2.90","z8gmkpfu036htbm",95,"2.csv","","null","resources/images/coin2.png","null","",NA,NA,NA,NA,""
"image-keyboard-response",284,277748,"0.0-3.91-0.91","z8gmkpfu036htbm",95,"2.csv","","575.6000000014901","resources/trios/L1T1A3.jpg","37","restless",0.5,0.6,0.4,0.658615586134438,"false"
"image-keyboard-response",285,278154,"0.0-3.91-1.91","z8gmkpfu036htbm",95,"2.csv","","null","resources/maskTrios/L1BB.jpg","null","",NA,NA,NA,NA,""
"image-keyboard-response",286,279360,"0.0-3.91-2.91","z8gmkpfu036htbm",95,"2.csv","","null","resources/images/fishbone.png","null","",NA,NA,NA,NA,""
"image-keyboard-response",287,279664,"0.0-3.92-0.92","z8gmkpfu036htbm",95,"2.csv","","302.6000000014901","resources/trios/L2T2A3.jpg","38","restless",0.5,0.6,0.4,0.614734135775599,"false"
"image-keyboard-response",288,280075,"0.0-3.92-1.92","z8gmkpfu036htbm",95,"2.csv","","null","resources/maskTrios/BT2B.jpg","null","",NA,NA,NA,NA,""
"image-keyboard-response",289,281281,"0.0-3.92-2.92","z8gmkpfu036htbm",95,"2.csv","","null","resources/images/fishbone.png","null","",NA,NA,NA,NA,""
"image-keyboard-response",290,281653,"0.0-3.93-0.93","z8gmkpfu036htbm",95,"2.csv","","370.69999999552965","resources/trios/L1T1A3.jpg","37","restless",0.5,0.6,0.4,0.265247179510676,"true"
"image-keyboard-response",291,282067,"0.0-3.93-1.93","z8gmkpfu036htbm",95,"2.csv","","null","resources/maskTrios/L1BB.jpg","null","",NA,NA,NA,NA,""
"image-keyboard-response",292,283271,"0.0-3.93-2.93","z8gmkpfu036htbm",95,"2.csv","","null","resources/images/coin2.png","null","",NA,NA,NA,NA,""
"image-keyboard-response",293,283925,"0.0-3.94-0.94","z8gmkpfu036htbm",95,"2.csv","","652.6000000014901","resources/trios/L2T1A3.jpg","37","restless",0.5,0.6,0.4,0.35664425278857,"true"
"image-keyboard-response",294,284331,"0.0-3.94-1.94","z8gmkpfu036htbm",95,"2.csv","","null","resources/maskTrios/L2BB.jpg","null","",NA,NA,NA,NA,""
"image-keyboard-response",295,285539,"0.0-3.94-2.94","z8gmkpfu036htbm",95,"2.csv","","null","resources/images/coin2.png","null","",NA,NA,NA,NA,""
"image-keyboard-response",296,288495,"0.0-3.95-0.95","z8gmkpfu036htbm",95,"2.csv","","2954.2999999970198","resources/trios/L1T1A2.jpg","37","restless",0.5,0.6,0.4,0.931097727323439,"false"
"image-keyboard-response",297,288907,"0.0-3.95-1.95","z8gmkpfu036htbm",95,"2.csv","","null","resources/maskTrios/L1BB.jpg","null","",NA,NA,NA,NA,""
"image-keyboard-response",298,290115,"0.0-3.95-2.95","z8gmkpfu036htbm",95,"2.csv","","null","resources/images/fishbone.png","null","",NA,NA,NA,NA,""
"image-keyboard-response",299,290605,"0.0-3.96-0.96","z8gmkpfu036htbm",95,"2.csv","","488.1000000014901","resources/trios/L1T1A2.jpg","38","restless",0.5,0.6,0.4,0.619743598957436,"false"
"image-keyboard-response",300,291006,"0.0-3.96-1.96","z8gmkpfu036htbm",95,"2.csv","","null","resources/maskTrios/BT1B.jpg","null","",NA,NA,NA,NA,""
"image-keyboard-response",301,292215,"0.0-3.96-2.96","z8gmkpfu036htbm",95,"2.csv","","null","resources/images/fishbone.png","null","",NA,NA,NA,NA,""
"image-keyboard-response",302,292491,"0.0-3.97-0.97","z8gmkpfu036htbm",95,"2.csv","","274.59999999403954","resources/trios/L2T1A2.jpg","37","restless",0.5,0.6,0.4,0.919997278926477,"false"
"image-keyboard-response",303,292899,"0.0-3.97-1.97","z8gmkpfu036htbm",95,"2.csv","","null","resources/maskTrios/L2BB.jpg","null","",NA,NA,NA,NA,""
"image-keyboard-response",304,294107,"0.0-3.97-2.97","z8gmkpfu036htbm",95,"2.csv","","null","resources/images/fishbone.png","null","",NA,NA,NA,NA,""
"image-keyboard-response",305,294503,"0.0-3.98-0.98","z8gmkpfu036htbm",95,"2.csv","","394.29999999701977","resources/trios/L2T1A2.jpg","39","restless",0.5,0.6,0.4,0.922800776340252,"false"
"image-keyboard-response",306,294912,"0.0-3.98-1.98","z8gmkpfu036htbm",95,"2.csv","","null","resources/maskTrios/BBA2.jpg","null","",NA,NA,NA,NA,""
"image-keyboard-response",307,296122,"0.0-3.98-2.98","z8gmkpfu036htbm",95,"2.csv","","null","resources/images/fishbone.png","null","",NA,NA,NA,NA,""
"image-keyboard-response",308,296399,"0.0-3.99-0.99","z8gmkpfu036htbm",95,"2.csv","","276","resources/trios/L2T2A2.jpg","38","restless",0.5,0.6,0.4,0.208713347250358,"true"
"image-keyboard-response",309,296809,"0.0-3.99-1.99","z8gmkpfu036htbm",95,"2.csv","","null","resources/maskTrios/BT2B.jpg","null","",NA,NA,NA,NA,""
"image-keyboard-response",310,298015,"0.0-3.99-2.99","z8gmkpfu036htbm",95,"2.csv","","null","resources/images/coin2.png","null","",NA,NA,NA,NA,""
"image-keyboard-response",311,298445,"0.0-3.100-0.100","z8gmkpfu036htbm",95,"2.csv","","429.29999999701977","resources/trios/L1T2A3.jpg","38","restless",0.5,0.6,0.4,0.438260348281563,"true"
"image-keyboard-response",312,298859,"0.0-3.100-1.100","z8gmkpfu036htbm",95,"2.csv","","null","resources/maskTrios/BT2B.jpg","null","",NA,NA,NA,NA,""
"image-keyboard-response",313,300066,"0.0-3.100-2.100","z8gmkpfu036htbm",95,"2.csv","","null","resources/images/coin2.png","null","",NA,NA,NA,NA,""
"image-keyboard-response",314,300069,"0.0-3.101-0.101","z8gmkpfu036htbm",95,"2.csv","","1.1999999955296516","resources/trios/L1T1A2.jpg","38","restless",0.5,0.6,0.4,0.0457854314338273,"true"
"image-keyboard-response",315,300475,"0.0-3.101-1.101","z8gmkpfu036htbm",95,"2.csv","","null","resources/maskTrios/BT1B.jpg","null","",NA,NA,NA,NA,""
"image-keyboard-response",316,301679,"0.0-3.101-2.101","z8gmkpfu036htbm",95,"2.csv","","null","resources/images/coin2.png","null","",NA,NA,NA,NA,""
"image-keyboard-response",317,302009,"0.0-3.102-0.102","z8gmkpfu036htbm",95,"2.csv","","327.6000000014901","resources/trios/L1T2A3.jpg","38","restless",0.5,0.6,0.4,0.885762680372482,"false"
"image-keyboard-response",318,302415,"0.0-3.102-1.102","z8gmkpfu036htbm",95,"2.csv","","null","resources/maskTrios/BT2B.jpg","null","",NA,NA,NA,NA,""
"image-keyboard-response",319,303627,"0.0-3.102-2.102","z8gmkpfu036htbm",95,"2.csv","","null","resources/images/fishbone.png","null","",NA,NA,NA,NA,""
"image-keyboard-response",320,304331,"0.0-3.103-0.103","z8gmkpfu036htbm",95,"2.csv","","702.7000000029802","resources/trios/L2T1A3.jpg","37","restless",0.5,0.6,0.4,0.795869344181233,"false"
"image-keyboard-response",321,304740,"0.0-3.103-1.103","z8gmkpfu036htbm",95,"2.csv","","null","resources/maskTrios/L2BB.jpg","null","",NA,NA,NA,NA,""
"image-keyboard-response",322,305943,"0.0-3.103-2.103","z8gmkpfu036htbm",95,"2.csv","","null","resources/images/fishbone.png","null","",NA,NA,NA,NA,""
"image-keyboard-response",323,306354,"0.0-3.104-0.104","z8gmkpfu036htbm",95,"2.csv","","408.3999999985099","resources/trios/L1T1A3.jpg","39","restless",0.5,0.5,0.4,0.907423075238031,"false"
"image-keyboard-response",324,306763,"0.0-3.104-1.104","z8gmkpfu036htbm",95,"2.csv","","null","resources/maskTrios/BBA3.jpg","null","",NA,NA,NA,NA,""
"image-keyboard-response",325,307971,"0.0-3.104-2.104","z8gmkpfu036htbm",95,"2.csv","","null","resources/images/fishbone.png","null","",NA,NA,NA,NA,""
"image-keyboard-response",326,308906,"0.0-3.105-0.105","z8gmkpfu036htbm",95,"2.csv","","933.0999999940395","resources/trios/L1T2A2.jpg","38","restless",0.5,0.5,0.4,0.160248741879677,"true"
"image-keyboard-response",327,309315,"0.0-3.105-1.105","z8gmkpfu036htbm",95,"2.csv","","null","resources/maskTrios/BT2B.jpg","null","",NA,NA,NA,NA,""
"image-keyboard-response",328,310519,"0.0-3.105-2.105","z8gmkpfu036htbm",95,"2.csv","","null","resources/images/coin2.png","null","",NA,NA,NA,NA,""
"image-keyboard-response",329,310895,"0.0-3.106-0.106","z8gmkpfu036htbm",95,"2.csv","","373.8999999985099","resources/trios/L1T1A2.jpg","38","restless",0.5,0.5,0.4,0.947821216601404,"false"
"image-keyboard-response",330,311307,"0.0-3.106-1.106","z8gmkpfu036htbm",95,"2.csv","","null","resources/maskTrios/BT1B.jpg","null","",NA,NA,NA,NA,""
"image-keyboard-response",331,312515,"0.0-3.106-2.106","z8gmkpfu036htbm",95,"2.csv","","null","resources/images/fishbone.png","null","",NA,NA,NA,NA,""
"image-keyboard-response",332,312906,"0.0-3.107-0.107","z8gmkpfu036htbm",95,"2.csv","","389.5","resources/trios/L1T2A3.jpg","37","restless",0.5,0.5,0.4,0.100131504067893,"true"
"image-keyboard-response",333,313315,"0.0-3.107-1.107","z8gmkpfu036htbm",95,"2.csv","","null","resources/maskTrios/L1BB.jpg","null","",NA,NA,NA,NA,""
"image-keyboard-response",334,314523,"0.0-3.107-2.107","z8gmkpfu036htbm",95,"2.csv","","null","resources/images/coin2.png","null","",NA,NA,NA,NA,""
"image-keyboard-response",335,314973,"0.0-3.108-0.108","z8gmkpfu036htbm",95,"2.csv","","448","resources/trios/L1T2A2.jpg","37","restless",0.4,0.5,0.5,0.219460846908729,"true"
"image-keyboard-response",336,315375,"0.0-3.108-1.108","z8gmkpfu036htbm",95,"2.csv","","null","resources/maskTrios/L1BB.jpg","null","",NA,NA,NA,NA,""
"image-keyboard-response",337,316583,"0.0-3.108-2.108","z8gmkpfu036htbm",95,"2.csv","","null","resources/images/coin2.png","null","",NA,NA,NA,NA,""
"image-keyboard-response",338,317144,"0.0-3.109-0.109","z8gmkpfu036htbm",95,"2.csv","","559.2999999970198","resources/trios/L2T1A2.jpg","37","restless",0.4,0.5,0.5,0.202588669090651,"true"
"image-keyboard-response",339,317555,"0.0-3.109-1.109","z8gmkpfu036htbm",95,"2.csv","","null","resources/maskTrios/L2BB.jpg","null","",NA,NA,NA,NA,""
"image-keyboard-response",340,318759,"0.0-3.109-2.109","z8gmkpfu036htbm",95,"2.csv","","null","resources/images/coin2.png","null","",NA,NA,NA,NA,""
"image-keyboard-response",341,319163,"0.0-3.110-0.110","z8gmkpfu036htbm",95,"2.csv","","401.69999999552965","resources/trios/L2T2A2.jpg","37","restless",0.4,0.5,0.5,0.269173838516441,"true"
"image-keyboard-response",342,319568,"0.0-3.110-1.110","z8gmkpfu036htbm",95,"2.csv","","null","resources/maskTrios/L2BB.jpg","null","",NA,NA,NA,NA,""
"image-keyboard-response",343,320779,"0.0-3.110-2.110","z8gmkpfu036htbm",95,"2.csv","","null","resources/images/coin2.png","null","",NA,NA,NA,NA,""
"image-keyboard-response",344,321118,"0.0-3.111-0.111","z8gmkpfu036htbm",95,"2.csv","","337.79999999701977","resources/trios/L1T1A3.jpg","37","restless",0.4,0.5,0.5,0.340646311292932,"true"
"image-keyboard-response",345,321528,"0.0-3.111-1.111","z8gmkpfu036htbm",95,"2.csv","","null","resources/maskTrios/L1BB.jpg","null","",NA,NA,NA,NA,""
"image-keyboard-response",346,322739,"0.0-3.111-2.111","z8gmkpfu036htbm",95,"2.csv","","null","resources/images/coin2.png","null","",NA,NA,NA,NA,""
"image-keyboard-response",347,323215,"0.0-3.112-0.112","z8gmkpfu036htbm",95,"2.csv","","474.19999999552965","resources/trios/L1T1A2.jpg","37","restless",0.4,0.5,0.4,0.0771583605223414,"true"
"image-keyboard-response",348,323624,"0.0-3.112-1.112","z8gmkpfu036htbm",95,"2.csv","","null","resources/maskTrios/L1BB.jpg","null","",NA,NA,NA,NA,""
"image-keyboard-response",349,324835,"0.0-3.112-2.112","z8gmkpfu036htbm",95,"2.csv","","null","resources/images/coin2.png","null","",NA,NA,NA,NA,""
"image-keyboard-response",350,325446,"0.0-3.113-0.113","z8gmkpfu036htbm",95,"2.csv","","608.5999999940395","resources/trios/L1T1A2.jpg","37","restless",0.4,0.5,0.3,0.444080116168985,"false"
"image-keyboard-response",351,325859,"0.0-3.113-1.113","z8gmkpfu036htbm",95,"2.csv","","null","resources/maskTrios/L1BB.jpg","null","",NA,NA,NA,NA,""
"image-keyboard-response",352,327067,"0.0-3.113-2.113","z8gmkpfu036htbm",95,"2.csv","","null","resources/images/fishbone.png","null","",NA,NA,NA,NA,""
"image-keyboard-response",353,327591,"0.0-3.114-0.114","z8gmkpfu036htbm",95,"2.csv","","521.7999999970198","resources/trios/L2T1A3.jpg","39","restless",0.4,0.4,0.3,0.928168579323402,"false"
"image-keyboard-response",354,328003,"0.0-3.114-1.114","z8gmkpfu036htbm",95,"2.csv","","null","resources/maskTrios/BBA3.jpg","null","",NA,NA,NA,NA,""
"image-keyboard-response",355,329211,"0.0-3.114-2.114","z8gmkpfu036htbm",95,"2.csv","","null","resources/images/fishbone.png","null","",NA,NA,NA,NA,""
"image-keyboard-response",356,329553,"0.0-3.115-0.115","z8gmkpfu036htbm",95,"2.csv","","339.59999999403954","resources/trios/L2T1A3.jpg","38","restless",0.4,0.4,0.3,0.693006814908782,"false"
"image-keyboard-response",357,329963,"0.0-3.115-1.115","z8gmkpfu036htbm",95,"2.csv","","null","resources/maskTrios/BT1B.jpg","null","",NA,NA,NA,NA,""
"image-keyboard-response",358,331168,"0.0-3.115-2.115","z8gmkpfu036htbm",95,"2.csv","","null","resources/images/fishbone.png","null","",NA,NA,NA,NA,""
"image-keyboard-response",359,331486,"0.0-3.116-0.116","z8gmkpfu036htbm",95,"2.csv","","316.19999999552965","resources/trios/L2T1A2.jpg","37","restless",0.4,0.3,0.3,0.127637036448884,"true"
"image-keyboard-response",360,331899,"0.0-3.116-1.116","z8gmkpfu036htbm",95,"2.csv","","null","resources/maskTrios/L2BB.jpg","null","",NA,NA,NA,NA,""
"image-keyboard-response",361,333106,"0.0-3.116-2.116","z8gmkpfu036htbm",95,"2.csv","","null","resources/images/coin2.png","null","",NA,NA,NA,NA,""
"image-keyboard-response",362,333494,"0.0-3.117-0.117","z8gmkpfu036htbm",95,"2.csv","","386.29999999701977","resources/trios/L1T2A3.jpg","37","restless",0.4,0.3,0.3,0.146958947504054,"true"
"image-keyboard-response",363,333903,"0.0-3.117-1.117","z8gmkpfu036htbm",95,"2.csv","","null","resources/maskTrios/L1BB.jpg","null","",NA,NA,NA,NA,""
"image-keyboard-response",364,335115,"0.0-3.117-2.117","z8gmkpfu036htbm",95,"2.csv","","null","resources/images/coin2.png","null","",NA,NA,NA,NA,""
"image-keyboard-response",365,335606,"0.0-3.118-0.118","z8gmkpfu036htbm",95,"2.csv","","489.29999999701977","resources/trios/L1T2A3.jpg","37","restless",0.4,0.2,0.3,0.7162998327984,"false"
"image-keyboard-response",366,336019,"0.0-3.118-1.118","z8gmkpfu036htbm",95,"2.csv","","null","resources/maskTrios/L1BB.jpg","null","",NA,NA,NA,NA,""
"image-keyboard-response",367,337223,"0.0-3.118-2.118","z8gmkpfu036htbm",95,"2.csv","","null","resources/images/fishbone.png","null","",NA,NA,NA,NA,""
"image-keyboard-response",368,337462,"0.0-3.119-0.119","z8gmkpfu036htbm",95,"2.csv","","237.5","resources/trios/L1T2A2.jpg","38","restless",0.4,0.2,0.3,0.43312632567218,"false"
"image-keyboard-response",369,337872,"0.0-3.119-1.119","z8gmkpfu036htbm",95,"2.csv","","null","resources/maskTrios/BT2B.jpg","null","",NA,NA,NA,NA,""
"image-keyboard-response",370,339081,"0.0-3.119-2.119","z8gmkpfu036htbm",95,"2.csv","","null","resources/images/fishbone.png","null","",NA,NA,NA,NA,""
"image-keyboard-response",371,339364,"0.0-3.120-0.120","z8gmkpfu036htbm",95,"2.csv","","281.20000000298023","resources/trios/L2T1A3.jpg","37","restless",0.4,0.2,0.3,0.315221653919514,"true"
"image-keyboard-response",372,339767,"0.0-3.120-1.120","z8gmkpfu036htbm",95,"2.csv","","null","resources/maskTrios/L2BB.jpg","null","",NA,NA,NA,NA,""
"image-keyboard-response",373,340976,"0.0-3.120-2.120","z8gmkpfu036htbm",95,"2.csv","","null","resources/images/coin2.png","null","",NA,NA,NA,NA,""
"image-keyboard-response",374,341361,"0.0-3.121-0.121","z8gmkpfu036htbm",95,"2.csv","","383.5","resources/trios/L1T1A3.jpg","37","restless",0.4,0.2,0.3,0.549244469952255,"false"
"image-keyboard-response",375,341771,"0.0-3.121-1.121","z8gmkpfu036htbm",95,"2.csv","","null","resources/maskTrios/L1BB.jpg","null","",NA,NA,NA,NA,""
"image-keyboard-response",376,342975,"0.0-3.121-2.121","z8gmkpfu036htbm",95,"2.csv","","null","resources/images/fishbone.png","null","",NA,NA,NA,NA,""
"image-keyboard-response",377,343274,"0.0-3.122-0.122","z8gmkpfu036htbm",95,"2.csv","","297.5","resources/trios/L2T1A2.jpg","38","restless",0.4,0.2,0.3,0.0936885342584899,"true"
"image-keyboard-response",378,343683,"0.0-3.122-1.122","z8gmkpfu036htbm",95,"2.csv","","null","resources/maskTrios/BT1B.jpg","null","",NA,NA,NA,NA,""
"image-keyboard-response",379,344890,"0.0-3.122-2.122","z8gmkpfu036htbm",95,"2.csv","","null","resources/images/coin2.png","null","",NA,NA,NA,NA,""
"image-keyboard-response",380,345270,"0.0-3.123-0.123","z8gmkpfu036htbm",95,"2.csv","","378.09999999403954","resources/trios/L2T2A2.jpg","38","restless",0.4,0.2,0.3,0.341068615247999,"false"
"image-keyboard-response",381,345683,"0.0-3.123-1.123","z8gmkpfu036htbm",95,"2.csv","","null","resources/maskTrios/BT2B.jpg","null","",NA,NA,NA,NA,""
"image-keyboard-response",382,346891,"0.0-3.123-2.123","z8gmkpfu036htbm",95,"2.csv","","null","resources/images/fishbone.png","null","",NA,NA,NA,NA,""
"image-keyboard-response",383,347176,"0.0-3.124-0.124","z8gmkpfu036htbm",95,"2.csv","","282.69999999552965","resources/trios/L2T2A2.jpg","37","restless",0.4,0.2,0.3,0.196062063108574,"true"
"image-keyboard-response",384,347585,"0.0-3.124-1.124","z8gmkpfu036htbm",95,"2.csv","","null","resources/maskTrios/L2BB.jpg","null","",NA,NA,NA,NA,""
"image-keyboard-response",385,348795,"0.0-3.124-2.124","z8gmkpfu036htbm",95,"2.csv","","null","resources/images/coin2.png","null","",NA,NA,NA,NA,""
"image-keyboard-response",386,349353,"0.0-3.125-0.125","z8gmkpfu036htbm",95,"2.csv","","556.6000000014901","resources/trios/L2T2A2.jpg","37","restless",0.4,0.2,0.4,0.162152608385135,"true"
"image-keyboard-response",387,349762,"0.0-3.125-1.125","z8gmkpfu036htbm",95,"2.csv","","null","resources/maskTrios/L2BB.jpg","null","",NA,NA,NA,NA,""
"image-keyboard-response",388,350967,"0.0-3.125-2.125","z8gmkpfu036htbm",95,"2.csv","","null","resources/images/coin2.png","null","",NA,NA,NA,NA,""
"image-keyboard-response",389,351334,"0.0-3.126-0.126","z8gmkpfu036htbm",95,"2.csv","","365","resources/trios/L1T2A2.jpg","37","restless",0.4,0.2,0.4,0.67797287652788,"false"
"image-keyboard-response",390,351747,"0.0-3.126-1.126","z8gmkpfu036htbm",95,"2.csv","","null","resources/maskTrios/L1BB.jpg","null","",NA,NA,NA,NA,""
"image-keyboard-response",391,352954,"0.0-3.126-2.126","z8gmkpfu036htbm",95,"2.csv","","null","resources/images/fishbone.png","null","",NA,NA,NA,NA,""
"image-keyboard-response",392,353321,"0.0-3.127-0.127","z8gmkpfu036htbm",95,"2.csv","","365.5","resources/trios/L1T1A3.jpg","39","restless",0.4,0.2,0.4,0.349461280308131,"true"
"image-keyboard-response",393,353731,"0.0-3.127-1.127","z8gmkpfu036htbm",95,"2.csv","","null","resources/maskTrios/BBA3.jpg","null","",NA,NA,NA,NA,""
"image-keyboard-response",394,354935,"0.0-3.127-2.127","z8gmkpfu036htbm",95,"2.csv","","null","resources/images/coin2.png","null","",NA,NA,NA,NA,""
"image-keyboard-response",395,355396,"0.0-3.128-0.128","z8gmkpfu036htbm",95,"2.csv","","460","resources/trios/L2T1A3.jpg","39","restless",0.4,0.2,0.4,0.367922886878559,"true"
"image-keyboard-response",396,355803,"0.0-3.128-1.128","z8gmkpfu036htbm",95,"2.csv","","null","resources/maskTrios/BBA3.jpg","null","",NA,NA,NA,NA,""
"image-keyboard-response",397,357006,"0.0-3.128-2.128","z8gmkpfu036htbm",95,"2.csv","","null","resources/images/coin2.png","null","",NA,NA,NA,NA,""
"image-keyboard-response",398,357509,"0.0-3.129-0.129","z8gmkpfu036htbm",95,"2.csv","","500.80000000447035","resources/trios/L2T2A2.jpg","39","restless",0.4,0.2,0.4,0.43296987097877,"false"
"image-keyboard-response",399,357915,"0.0-3.129-1.129","z8gmkpfu036htbm",95,"2.csv","","null","resources/maskTrios/BBA2.jpg","null","",NA,NA,NA,NA,""
"image-keyboard-response",400,359121,"0.0-3.129-2.129","z8gmkpfu036htbm",95,"2.csv","","null","resources/images/fishbone.png","null","",NA,NA,NA,NA,""
"image-keyboard-response",401,359573,"0.0-3.130-0.130","z8gmkpfu036htbm",95,"2.csv","","451.20000000298023","resources/trios/L2T2A3.jpg","38","restless",0.4,0.2,0.4,0.240857693163677,"false"
"image-keyboard-response",402,359983,"0.0-3.130-1.130","z8gmkpfu036htbm",95,"2.csv","","null","resources/maskTrios/BT2B.jpg","null","",NA,NA,NA,NA,""
"image-keyboard-response",403,361195,"0.0-3.130-2.130","z8gmkpfu036htbm",95,"2.csv","","null","resources/images/fishbone.png","null","",NA,NA,NA,NA,""
"image-keyboard-response",404,361469,"0.0-3.131-0.131","z8gmkpfu036htbm",95,"2.csv","","271.79999999701977","resources/trios/L2T1A3.jpg","37","restless",0.4,0.2,0.4,0.465322080907982,"false"
"image-keyboard-response",405,361871,"0.0-3.131-1.131","z8gmkpfu036htbm",95,"2.csv","","null","resources/maskTrios/L2BB.jpg","null","",NA,NA,NA,NA,""
"image-keyboard-response",406,363082,"0.0-3.131-2.131","z8gmkpfu036htbm",95,"2.csv","","null","resources/images/fishbone.png","null","",NA,NA,NA,NA,""
"image-keyboard-response",407,363371,"0.0-3.132-0.132","z8gmkpfu036htbm",95,"2.csv","","286.69999999552965","resources/trios/L2T1A2.jpg","38","restless",0.4,0.2,0.4,0.641244670644736,"false"
"image-keyboard-response",408,363776,"0.0-3.132-1.132","z8gmkpfu036htbm",95,"2.csv","","null","resources/maskTrios/BT1B.jpg","null","",NA,NA,NA,NA,""
"image-keyboard-response",409,364987,"0.0-3.132-2.132","z8gmkpfu036htbm",95,"2.csv","","null","resources/images/fishbone.png","null","",NA,NA,NA,NA,""
"image-keyboard-response",410,365285,"0.0-3.133-0.133","z8gmkpfu036htbm",95,"2.csv","","295.69999999552965","resources/trios/L1T1A3.jpg","37","restless",0.5,0.2,0.4,0.71980038861627,"false"
"image-keyboard-response",411,365688,"0.0-3.133-1.133","z8gmkpfu036htbm",95,"2.csv","","null","resources/maskTrios/L1BB.jpg","null","",NA,NA,NA,NA,""
"image-keyboard-response",412,366895,"0.0-3.133-2.133","z8gmkpfu036htbm",95,"2.csv","","null","resources/images/fishbone.png","null","",NA,NA,NA,NA,""
"image-keyboard-response",413,367418,"0.0-3.134-0.134","z8gmkpfu036htbm",95,"2.csv","","520.7999999970198","resources/trios/L2T2A3.jpg","39","restless",0.5,0.2,0.4,0.00101426208148059,"true"
"image-keyboard-response",414,367823,"0.0-3.134-1.134","z8gmkpfu036htbm",95,"2.csv","","null","resources/maskTrios/BBA3.jpg","null","",NA,NA,NA,NA,""
"image-keyboard-response",415,369033,"0.0-3.134-2.134","z8gmkpfu036htbm",95,"2.csv","","null","resources/images/coin2.png","null","",NA,NA,NA,NA,""
"image-keyboard-response",416,369453,"0.0-3.135-0.135","z8gmkpfu036htbm",95,"2.csv","","418.70000000298023","resources/trios/L2T1A2.jpg","39","restless",0.5,0.2,0.4,0.824522284749396,"false"
"image-keyboard-response",417,369865,"0.0-3.135-1.135","z8gmkpfu036htbm",95,"2.csv","","null","resources/maskTrios/BBA2.jpg","null","",NA,NA,NA,NA,""
"image-keyboard-response",418,371071,"0.0-3.135-2.135","z8gmkpfu036htbm",95,"2.csv","","null","resources/images/fishbone.png","null","",NA,NA,NA,NA,""
"image-keyboard-response",419,371415,"0.0-3.136-0.136","z8gmkpfu036htbm",95,"2.csv","","343.30000000447035","resources/trios/L1T1A3.jpg","38","restless",0.5,0.2,0.4,0.0115382076814461,"true"
"image-keyboard-response",420,371824,"0.0-3.136-1.136","z8gmkpfu036htbm",95,"2.csv","","null","resources/maskTrios/BT1B.jpg","null","",NA,NA,NA,NA,""
"image-keyboard-response",421,373031,"0.0-3.136-2.136","z8gmkpfu036htbm",95,"2.csv","","null","resources/images/coin2.png","null","",NA,NA,NA,NA,""
"image-keyboard-response",422,373374,"0.0-3.137-0.137","z8gmkpfu036htbm",95,"2.csv","","341.19999999552965","resources/trios/L2T1A2.jpg","38","restless",0.5,0.2,0.4,0.678118749111281,"false"
"image-keyboard-response",423,373786,"0.0-3.137-1.137","z8gmkpfu036htbm",95,"2.csv","","null","resources/maskTrios/BT1B.jpg","null","",NA,NA,NA,NA,""
"image-keyboard-response",424,374994,"0.0-3.137-2.137","z8gmkpfu036htbm",95,"2.csv","","null","resources/images/fishbone.png","null","",NA,NA,NA,NA,""
"image-keyboard-response",425,375229,"0.0-3.138-0.138","z8gmkpfu036htbm",95,"2.csv","","233","resources/trios/L1T1A3.jpg","39","restless",0.5,0.2,0.4,0.440762820032842,"false"
"image-keyboard-response",426,375631,"0.0-3.138-1.138","z8gmkpfu036htbm",95,"2.csv","","null","resources/maskTrios/BBA3.jpg","null","",NA,NA,NA,NA,""
"image-keyboard-response",427,376841,"0.0-3.138-2.138","z8gmkpfu036htbm",95,"2.csv","","null","resources/images/fishbone.png","null","",NA,NA,NA,NA,""
"image-keyboard-response",428,377146,"0.0-3.139-0.139","z8gmkpfu036htbm",95,"2.csv","","304.3999999985099","resources/trios/L1T1A2.jpg","37","restless",0.6,0.2,0.4,0.0777385336933101,"true"
"image-keyboard-response",429,377555,"0.0-3.139-1.139","z8gmkpfu036htbm",95,"2.csv","","null","resources/maskTrios/L1BB.jpg","null","",NA,NA,NA,NA,""
"image-keyboard-response",430,378759,"0.0-3.139-2.139","z8gmkpfu036htbm",95,"2.csv","","null","resources/images/coin2.png","null","",NA,NA,NA,NA,""
"image-keyboard-response",431,379016,"0.0-3.140-0.140","z8gmkpfu036htbm",95,"2.csv","","256","resources/trios/L2T1A2.jpg","37","restless",0.6,0.2,0.3,0.91743076824426,"false"
"image-keyboard-response",432,379425,"0.0-3.140-1.140","z8gmkpfu036htbm",95,"2.csv","","null","resources/maskTrios/L2BB.jpg","null","",NA,NA,NA,NA,""
"image-keyboard-response",433,380631,"0.0-3.140-2.140","z8gmkpfu036htbm",95,"2.csv","","null","resources/images/fishbone.png","null","",NA,NA,NA,NA,""
"image-keyboard-response",434,380983,"0.0-3.141-0.141","z8gmkpfu036htbm",95,"2.csv","","350.5","resources/trios/L2T2A2.jpg","38","restless",0.6,0.3,0.3,0.462290908733874,"false"
"image-keyboard-response",435,381395,"0.0-3.141-1.141","z8gmkpfu036htbm",95,"2.csv","","null","resources/maskTrios/BT2B.jpg","null","",NA,NA,NA,NA,""
"image-keyboard-response",436,382603,"0.0-3.141-2.141","z8gmkpfu036htbm",95,"2.csv","","null","resources/images/fishbone.png","null","",NA,NA,NA,NA,""
"image-keyboard-response",437,382901,"0.0-3.142-0.142","z8gmkpfu036htbm",95,"2.csv","","296.5","resources/trios/L2T2A2.jpg","37","restless",0.6,0.3,0.3,0.125053160831671,"true"
"image-keyboard-response",438,383315,"0.0-3.142-1.142","z8gmkpfu036htbm",95,"2.csv","","null","resources/maskTrios/L2BB.jpg","null","",NA,NA,NA,NA,""
"image-keyboard-response",439,384519,"0.0-3.142-2.142","z8gmkpfu036htbm",95,"2.csv","","null","resources/images/coin2.png","null","",NA,NA,NA,NA,""
"image-keyboard-response",440,384961,"0.0-3.143-0.143","z8gmkpfu036htbm",95,"2.csv","","441.1000000014901","resources/trios/L1T2A2.jpg","37","restless",0.6,0.3,0.3,0.97967039355667,"false"
"image-keyboard-response",441,385367,"0.0-3.143-1.143","z8gmkpfu036htbm",95,"2.csv","","null","resources/maskTrios/L1BB.jpg","null","",NA,NA,NA,NA,""
"image-keyboard-response",442,386579,"0.0-3.143-2.143","z8gmkpfu036htbm",95,"2.csv","","null","resources/images/fishbone.png","null","",NA,NA,NA,NA,""
"image-keyboard-response",443,386894,"0.0-3.144-0.144","z8gmkpfu036htbm",95,"2.csv","","313.1000000014901","resources/trios/L1T1A3.jpg","39","restless",0.6,0.3,0.3,0.017274814269989,"true"
"image-keyboard-response",444,387307,"0.0-3.144-1.144","z8gmkpfu036htbm",95,"2.csv","","null","resources/maskTrios/BBA3.jpg","null","",NA,NA,NA,NA,""
"image-keyboard-response",445,388515,"0.0-3.144-2.144","z8gmkpfu036htbm",95,"2.csv","","null","resources/images/coin2.png","null","",NA,NA,NA,NA,""
"image-keyboard-response",446,389073,"0.0-3.145-0.145","z8gmkpfu036htbm",95,"2.csv","","556.2000000029802","resources/trios/L2T2A2.jpg","39","restless",0.6,0.3,0.3,0.0483800920316477,"true"
"image-keyboard-response",447,389479,"0.0-3.145-1.145","z8gmkpfu036htbm",95,"2.csv","","null","resources/maskTrios/BBA2.jpg","null","",NA,NA,NA,NA,""
"image-keyboard-response",448,390687,"0.0-3.145-2.145","z8gmkpfu036htbm",95,"2.csv","","null","resources/images/coin2.png","null","",NA,NA,NA,NA,""
"image-keyboard-response",449,391009,"0.0-3.146-0.146","z8gmkpfu036htbm",95,"2.csv","","319.79999999701977","resources/trios/L1T2A2.jpg","39","restless",0.5,0.3,0.3,0.0513204486191265,"true"
"image-keyboard-response",450,391419,"0.0-3.146-1.146","z8gmkpfu036htbm",95,"2.csv","","null","resources/maskTrios/BBA2.jpg","null","",NA,NA,NA,NA,""
"image-keyboard-response",451,392627,"0.0-3.146-2.146","z8gmkpfu036htbm",95,"2.csv","","null","resources/images/coin2.png","null","",NA,NA,NA,NA,""
"image-keyboard-response",452,392979,"0.0-3.147-0.147","z8gmkpfu036htbm",95,"2.csv","","349.80000000447035","resources/trios/L1T2A3.jpg","39","restless",0.6,0.3,0.3,0.565074516115394,"false"
"image-keyboard-response",453,393387,"0.0-3.147-1.147","z8gmkpfu036htbm",95,"2.csv","","null","resources/maskTrios/BBA3.jpg","null","",NA,NA,NA,NA,""
"image-keyboard-response",454,394591,"0.0-3.147-2.147","z8gmkpfu036htbm",95,"2.csv","","null","resources/images/fishbone.png","null","",NA,NA,NA,NA,""
"image-keyboard-response",455,394848,"0.0-3.148-0.148","z8gmkpfu036htbm",95,"2.csv","","255.40000000596046","resources/trios/L2T1A2.jpg","38","restless",0.5,0.3,0.3,0.374695472469883,"false"
"image-keyboard-response",456,395259,"0.0-3.148-1.148","z8gmkpfu036htbm",95,"2.csv","","null","resources/maskTrios/BT1B.jpg","null","",NA,NA,NA,NA,""
"image-keyboard-response",457,396466,"0.0-3.148-2.148","z8gmkpfu036htbm",95,"2.csv","","null","resources/images/fishbone.png","null","",NA,NA,NA,NA,""
"image-keyboard-response",458,397058,"0.0-3.149-0.149","z8gmkpfu036htbm",95,"2.csv","","590.7000000029802","resources/trios/L1T2A2.jpg","37","restless",0.5,0.3,0.3,0.644564724071035,"false"
"image-keyboard-response",459,397467,"0.0-3.149-1.149","z8gmkpfu036htbm",95,"2.csv","","null","resources/maskTrios/L1BB.jpg","null","",NA,NA,NA,NA,""
"image-keyboard-response",460,398675,"0.0-3.149-2.149","z8gmkpfu036htbm",95,"2.csv","","null","resources/images/fishbone.png","null","",NA,NA,NA,NA,""
"image-keyboard-response",461,399681,"0.0-3.150-0.150","z8gmkpfu036htbm",95,"2.csv","","1004.1000000014901","resources/trios/L1T2A2.jpg","37","restless",0.5,0.4,0.3,0.368503553095573,"true"
"image-keyboard-response",462,400091,"0.0-3.150-1.150","z8gmkpfu036htbm",95,"2.csv","","null","resources/maskTrios/L1BB.jpg","null","",NA,NA,NA,NA,""
"image-keyboard-response",463,401299,"0.0-3.150-2.150","z8gmkpfu036htbm",95,"2.csv","","null","resources/images/coin2.png","null","",NA,NA,NA,NA,""
"image-keyboard-response",464,401810,"0.0-3.151-0.151","z8gmkpfu036htbm",95,"2.csv","","509.70000000298023","resources/trios/L1T1A2.jpg","37","restless",0.5,0.4,0.3,0.741950104604575,"false"
"image-keyboard-response",465,402219,"0.0-3.151-1.151","z8gmkpfu036htbm",95,"2.csv","","null","resources/maskTrios/L1BB.jpg","null","",NA,NA,NA,NA,""
"image-keyboard-response",466,403423,"0.0-3.151-2.151","z8gmkpfu036htbm",95,"2.csv","","null","resources/images/fishbone.png","null","",NA,NA,NA,NA,""
"image-keyboard-response",467,404457,"0.0-3.152-0.152","z8gmkpfu036htbm",95,"2.csv","","1032.1999999955297","resources/trios/L2T2A2.jpg","38","restless",0.4,0.4,0.4,0.865671847278696,"false"
"image-keyboard-response",468,404865,"0.0-3.152-1.152","z8gmkpfu036htbm",95,"2.csv","","null","resources/maskTrios/BT2B.jpg","null","",NA,NA,NA,NA,""
"image-keyboard-response",469,406075,"0.0-3.152-2.152","z8gmkpfu036htbm",95,"2.csv","","null","resources/images/fishbone.png","null","",NA,NA,NA,NA,""
"image-keyboard-response",470,406431,"0.0-3.153-0.153","z8gmkpfu036htbm",95,"2.csv","","355.1000000014901","resources/trios/L1T1A3.jpg","37","restless",0.4,0.4,0.5,0.312944032530596,"true"
"image-keyboard-response",471,406841,"0.0-3.153-1.153","z8gmkpfu036htbm",95,"2.csv","","null","resources/maskTrios/L1BB.jpg","null","",NA,NA,NA,NA,""
"image-keyboard-response",472,408051,"0.0-3.153-2.153","z8gmkpfu036htbm",95,"2.csv","","null","resources/images/coin2.png","null","",NA,NA,NA,NA,""
"image-keyboard-response",473,408542,"0.0-3.154-0.154","z8gmkpfu036htbm",95,"2.csv","","489.3999999985099","resources/trios/L1T2A3.jpg","37","restless",0.4,0.4,0.5,0.993703687017207,"false"
"image-keyboard-response",474,408955,"0.0-3.154-1.154","z8gmkpfu036htbm",95,"2.csv","","null","resources/maskTrios/L1BB.jpg","null","",NA,NA,NA,NA,""
"image-keyboard-response",475,410159,"0.0-3.154-2.154","z8gmkpfu036htbm",95,"2.csv","","null","resources/images/fishbone.png","null","",NA,NA,NA,NA,""
"image-keyboard-response",476,410484,"0.0-3.155-0.155","z8gmkpfu036htbm",95,"2.csv","","323.19999999552965","resources/trios/L1T2A3.jpg","39","restless",0.4,0.4,0.5,0.643770856878294,"false"
"image-keyboard-response",477,410887,"0.0-3.155-1.155","z8gmkpfu036htbm",95,"2.csv","","null","resources/maskTrios/BBA3.jpg","null","",NA,NA,NA,NA,""
"image-keyboard-response",478,412095,"0.0-3.155-2.155","z8gmkpfu036htbm",95,"2.csv","","null","resources/images/fishbone.png","null","",NA,NA,NA,NA,""
"image-keyboard-response",479,412376,"0.0-3.156-0.156","z8gmkpfu036htbm",95,"2.csv","","278.59999999403954","resources/trios/L2T2A2.jpg","38","restless",0.4,0.4,0.5,0.487982090054184,"false"
"image-keyboard-response",480,412786,"0.0-3.156-1.156","z8gmkpfu036htbm",95,"2.csv","","null","resources/maskTrios/BT2B.jpg","null","",NA,NA,NA,NA,""
"image-keyboard-response",481,413990,"0.0-3.156-2.156","z8gmkpfu036htbm",95,"2.csv","","null","resources/images/fishbone.png","null","",NA,NA,NA,NA,""
"image-keyboard-response",482,414326,"0.0-3.157-0.157","z8gmkpfu036htbm",95,"2.csv","","333.79999999701977","resources/trios/L2T1A2.jpg","39","restless",0.4,0.4,0.5,0.681044118185158,"false"
"image-keyboard-response",483,414739,"0.0-3.157-1.157","z8gmkpfu036htbm",95,"2.csv","","null","resources/maskTrios/BBA2.jpg","null","",NA,NA,NA,NA,""
"image-keyboard-response",484,415943,"0.0-3.157-2.157","z8gmkpfu036htbm",95,"2.csv","","null","resources/images/fishbone.png","null","",NA,NA,NA,NA,""
"image-keyboard-response",485,416235,"0.0-3.158-0.158","z8gmkpfu036htbm",95,"2.csv","","289.69999999552965","resources/trios/L2T2A2.jpg","37","restless",0.4,0.4,0.5,0.750561686604673,"false"
"image-keyboard-response",486,416639,"0.0-3.158-1.158","z8gmkpfu036htbm",95,"2.csv","","null","resources/maskTrios/L2BB.jpg","null","",NA,NA,NA,NA,""
"image-keyboard-response",487,417848,"0.0-3.158-2.158","z8gmkpfu036htbm",95,"2.csv","","null","resources/images/fishbone.png","null","",NA,NA,NA,NA,""
"image-keyboard-response",488,418106,"0.0-3.159-0.159","z8gmkpfu036htbm",95,"2.csv","","257.1000000014901","resources/trios/L1T2A3.jpg","38","restless",0.3,0.5,0.5,0.46821971958332,"true"
"image-keyboard-response",489,418511,"0.0-3.159-1.159","z8gmkpfu036htbm",95,"2.csv","","null","resources/maskTrios/BT2B.jpg","null","",NA,NA,NA,NA,""
"image-keyboard-response",490,419723,"0.0-3.159-2.159","z8gmkpfu036htbm",95,"2.csv","","null","resources/images/coin2.png","null","",NA,NA,NA,NA,""
"image-keyboard-response",491,420073,"0.0-3.160-0.160","z8gmkpfu036htbm",95,"2.csv","","348.80000000447035","resources/trios/L1T1A2.jpg","38","restless",0.3,0.5,0.5,0.455435322433217,"true"
"image-keyboard-response",492,420483,"0.0-3.160-1.160","z8gmkpfu036htbm",95,"2.csv","","null","resources/maskTrios/BT1B.jpg","null","",NA,NA,NA,NA,""
"image-keyboard-response",493,421691,"0.0-3.160-2.160","z8gmkpfu036htbm",95,"2.csv","","null","resources/images/coin2.png","null","",NA,NA,NA,NA,""
"image-keyboard-response",494,422000,"0.0-3.161-0.161","z8gmkpfu036htbm",95,"2.csv","","306.79999999701977","resources/trios/L2T1A3.jpg","38","restless",0.3,0.5,0.6,0.0776050836477105,"true"
"image-keyboard-response",495,422411,"0.0-3.161-1.161","z8gmkpfu036htbm",95,"2.csv","","null","resources/maskTrios/BT1B.jpg","null","",NA,NA,NA,NA,""
"image-keyboard-response",496,423615,"0.0-3.161-2.161","z8gmkpfu036htbm",95,"2.csv","","null","resources/images/coin2.png","null","",NA,NA,NA,NA,""
"image-keyboard-response",497,424058,"0.0-3.162-0.162","z8gmkpfu036htbm",95,"2.csv","","440.8999999985099","resources/trios/L1T2A3.jpg","38","restless",0.2,0.5,0.6,0.918446057904062,"false"
"image-keyboard-response",498,424463,"0.0-3.162-1.162","z8gmkpfu036htbm",95,"2.csv","","null","resources/maskTrios/BT2B.jpg","null","",NA,NA,NA,NA,""
"image-keyboard-response",499,425675,"0.0-3.162-2.162","z8gmkpfu036htbm",95,"2.csv","","null","resources/images/fishbone.png","null","",NA,NA,NA,NA,""
"image-keyboard-response",500,426169,"0.0-3.163-0.163","z8gmkpfu036htbm",95,"2.csv","","492.6000000014901","resources/trios/L2T2A2.jpg","37","restless",0.2,0.5,0.6,0.516446451760344,"false"
"image-keyboard-response",501,426579,"0.0-3.163-1.163","z8gmkpfu036htbm",95,"2.csv","","null","resources/maskTrios/L2BB.jpg","null","",NA,NA,NA,NA,""
"image-keyboard-response",502,427786,"0.0-3.163-2.163","z8gmkpfu036htbm",95,"2.csv","","null","resources/images/fishbone.png","null","",NA,NA,NA,NA,""
"image-keyboard-response",503,428699,"0.0-3.164-0.164","z8gmkpfu036htbm",95,"2.csv","","911.2999999970198","resources/trios/L2T2A2.jpg","39","restless",0.2,0.6,0.6,0.678760836821892,"false"
"image-keyboard-response",504,429103,"0.0-3.164-1.164","z8gmkpfu036htbm",95,"2.csv","","null","resources/maskTrios/BBA2.jpg","null","",NA,NA,NA,NA,""
"image-keyboard-response",505,430315,"0.0-3.164-2.164","z8gmkpfu036htbm",95,"2.csv","","null","resources/images/fishbone.png","null","",NA,NA,NA,NA,""
"image-keyboard-response",506,430780,"0.0-3.165-0.165","z8gmkpfu036htbm",95,"2.csv","","463.69999999552965","resources/trios/L1T2A3.jpg","38","restless",0.2,0.6,0.6,0.735638982747134,"false"
"image-keyboard-response",507,431184,"0.0-3.165-1.165","z8gmkpfu036htbm",95,"2.csv","","null","resources/maskTrios/BT2B.jpg","null","",NA,NA,NA,NA,""
"image-keyboard-response",508,432395,"0.0-3.165-2.165","z8gmkpfu036htbm",95,"2.csv","","null","resources/images/fishbone.png","null","",NA,NA,NA,NA,""
"image-keyboard-response",509,432730,"0.0-3.166-0.166","z8gmkpfu036htbm",95,"2.csv","","333.1000000014901","resources/trios/L2T1A2.jpg","37","restless",0.2,0.6,0.6,0.314913753608101,"false"
"image-keyboard-response",510,433139,"0.0-3.166-1.166","z8gmkpfu036htbm",95,"2.csv","","null","resources/maskTrios/L2BB.jpg","null","",NA,NA,NA,NA,""
"image-keyboard-response",511,434347,"0.0-3.166-2.166","z8gmkpfu036htbm",95,"2.csv","","null","resources/images/fishbone.png","null","",NA,NA,NA,NA,""
"image-keyboard-response",512,435293,"0.0-3.167-0.167","z8gmkpfu036htbm",95,"2.csv","","944.2999999970198","resources/trios/L1T2A2.jpg","37","restless",0.2,0.6,0.6,0.955361665404604,"false"
"image-keyboard-response",513,435703,"0.0-3.167-1.167","z8gmkpfu036htbm",95,"2.csv","","null","resources/maskTrios/L1BB.jpg","null","",NA,NA,NA,NA,""
"image-keyboard-response",514,436915,"0.0-3.167-2.167","z8gmkpfu036htbm",95,"2.csv","","null","resources/images/fishbone.png","null","",NA,NA,NA,NA,""
"image-keyboard-response",515,437564,"0.0-3.168-0.168","z8gmkpfu036htbm",95,"2.csv","","647.6999999955297","resources/trios/L1T2A3.jpg","38","restless",0.2,0.6,0.5,0.124649159688563,"true"
"image-keyboard-response",516,437971,"0.0-3.168-1.168","z8gmkpfu036htbm",95,"2.csv","","null","resources/maskTrios/BT2B.jpg","null","",NA,NA,NA,NA,""
"image-keyboard-response",517,439177,"0.0-3.168-2.168","z8gmkpfu036htbm",95,"2.csv","","null","resources/images/coin2.png","null","",NA,NA,NA,NA,""
"image-keyboard-response",518,439546,"0.0-3.169-0.169","z8gmkpfu036htbm",95,"2.csv","","367","resources/trios/L1T2A2.jpg","38","restless",0.2,0.6,0.5,0.0832706932488727,"true"
"image-keyboard-response",519,439951,"0.0-3.169-1.169","z8gmkpfu036htbm",95,"2.csv","","null","resources/maskTrios/BT2B.jpg","null","",NA,NA,NA,NA,""
"image-keyboard-response",520,441159,"0.0-3.169-2.169","z8gmkpfu036htbm",95,"2.csv","","null","resources/images/coin2.png","null","",NA,NA,NA,NA,""
"image-keyboard-response",521,441656,"0.0-3.170-0.170","z8gmkpfu036htbm",95,"2.csv","","495.5","resources/trios/L2T2A3.jpg","38","restless",0.3,0.6,0.5,0.40577232134245,"true"
"image-keyboard-response",522,442067,"0.0-3.170-1.170","z8gmkpfu036htbm",95,"2.csv","","null","resources/maskTrios/BT2B.jpg","null","",NA,NA,NA,NA,""
"image-keyboard-response",523,443275,"0.0-3.170-2.170","z8gmkpfu036htbm",95,"2.csv","","null","resources/images/coin2.png","null","",NA,NA,NA,NA,""
"image-keyboard-response",524,443764,"0.0-3.171-0.171","z8gmkpfu036htbm",95,"2.csv","","486.6000000014901","resources/trios/L1T2A3.jpg","38","restless",0.3,0.6,0.5,0.109580926473207,"true"
"image-keyboard-response",525,444171,"0.0-3.171-1.171","z8gmkpfu036htbm",95,"2.csv","","null","resources/maskTrios/BT2B.jpg","null","",NA,NA,NA,NA,""
"image-keyboard-response",526,445379,"0.0-3.171-2.171","z8gmkpfu036htbm",95,"2.csv","","null","resources/images/coin2.png","null","",NA,NA,NA,NA,""
"image-keyboard-response",527,446002,"0.0-3.172-0.172","z8gmkpfu036htbm",95,"2.csv","","621.1999999955297","resources/trios/L2T1A2.jpg","38","restless",0.3,0.6,0.5,0.947535518672499,"false"
"image-keyboard-response",528,446409,"0.0-3.172-1.172","z8gmkpfu036htbm",95,"2.csv","","null","resources/maskTrios/BT1B.jpg","null","",NA,NA,NA,NA,""
"image-keyboard-response",529,447615,"0.0-3.172-2.172","z8gmkpfu036htbm",95,"2.csv","","null","resources/images/fishbone.png","null","",NA,NA,NA,NA,""
"image-keyboard-response",530,447891,"0.0-3.173-0.173","z8gmkpfu036htbm",95,"2.csv","","274.8999999985099","resources/trios/L2T2A2.jpg","39","restless",0.3,0.6,0.5,0.751713576132389,"false"
"image-keyboard-response",531,448295,"0.0-3.173-1.173","z8gmkpfu036htbm",95,"2.csv","","null","resources/maskTrios/BBA2.jpg","null","",NA,NA,NA,NA,""
"image-keyboard-response",532,449503,"0.0-3.173-2.173","z8gmkpfu036htbm",95,"2.csv","","null","resources/images/fishbone.png","null","",NA,NA,NA,NA,""
"image-keyboard-response",533,449849,"0.0-3.174-0.174","z8gmkpfu036htbm",95,"2.csv","","344.5","resources/trios/L1T1A2.jpg","37","restless",0.3,0.6,0.6,0.0215330959537072,"true"
"image-keyboard-response",534,450259,"0.0-3.174-1.174","z8gmkpfu036htbm",95,"2.csv","","null","resources/maskTrios/L1BB.jpg","null","",NA,NA,NA,NA,""
"image-keyboard-response",535,451466,"0.0-3.174-2.174","z8gmkpfu036htbm",95,"2.csv","","null","resources/images/coin2.png","null","",NA,NA,NA,NA,""
"image-keyboard-response",536,451955,"0.0-3.175-0.175","z8gmkpfu036htbm",95,"2.csv","","487.29999999701977","resources/trios/L2T1A3.jpg","37","restless",0.3,0.6,0.6,0.345637750871021,"false"
"image-keyboard-response",537,452363,"0.0-3.175-1.175","z8gmkpfu036htbm",95,"2.csv","","null","resources/maskTrios/L2BB.jpg","null","",NA,NA,NA,NA,""
"image-keyboard-response",538,453571,"0.0-3.175-2.175","z8gmkpfu036htbm",95,"2.csv","","null","resources/images/fishbone.png","null","",NA,NA,NA,NA,""
"image-keyboard-response",539,453931,"0.0-3.176-0.176","z8gmkpfu036htbm",95,"2.csv","","357.8999999985099","resources/trios/L2T2A2.jpg","38","restless",0.3,0.6,0.7,0.302105861037041,"true"
"image-keyboard-response",540,454339,"0.0-3.176-1.176","z8gmkpfu036htbm",95,"2.csv","","null","resources/maskTrios/BT2B.jpg","null","",NA,NA,NA,NA,""
"image-keyboard-response",541,455544,"0.0-3.176-2.176","z8gmkpfu036htbm",95,"2.csv","","null","resources/images/coin2.png","null","",NA,NA,NA,NA,""
"image-keyboard-response",542,455906,"0.0-3.177-0.177","z8gmkpfu036htbm",95,"2.csv","","360.29999999701977","resources/trios/L2T1A2.jpg","38","restless",0.3,0.6,0.7,0.959871919702571,"false"
"image-keyboard-response",543,456312,"0.0-3.177-1.177","z8gmkpfu036htbm",95,"2.csv","","null","resources/maskTrios/BT1B.jpg","null","",NA,NA,NA,NA,""
"image-keyboard-response",544,457523,"0.0-3.177-2.177","z8gmkpfu036htbm",95,"2.csv","","null","resources/images/fishbone.png","null","",NA,NA,NA,NA,""
"image-keyboard-response",545,457813,"0.0-3.178-0.178","z8gmkpfu036htbm",95,"2.csv","","287.69999999552965","resources/trios/L2T2A3.jpg","37","restless",0.3,0.5,0.7,0.353004236428834,"false"
"image-keyboard-response",546,458215,"0.0-3.178-1.178","z8gmkpfu036htbm",95,"2.csv","","null","resources/maskTrios/L2BB.jpg","null","",NA,NA,NA,NA,""
"image-keyboard-response",547,459427,"0.0-3.178-2.178","z8gmkpfu036htbm",95,"2.csv","","null","resources/images/fishbone.png","null","",NA,NA,NA,NA,""
"image-keyboard-response",548,459791,"0.0-3.179-0.179","z8gmkpfu036htbm",95,"2.csv","","362","resources/trios/L2T2A3.jpg","39","restless",0.3,0.5,0.7,0.871695532856209,"false"
"image-keyboard-response",549,460202,"0.0-3.179-1.179","z8gmkpfu036htbm",95,"2.csv","","null","resources/maskTrios/BBA3.jpg","null","",NA,NA,NA,NA,""
"image-keyboard-response",550,461411,"0.0-3.179-2.179","z8gmkpfu036htbm",95,"2.csv","","null","resources/images/fishbone.png","null","",NA,NA,NA,NA,""
"image-keyboard-response",551,461740,"0.0-3.180-0.180","z8gmkpfu036htbm",95,"2.csv","","326.5","resources/trios/L1T2A2.jpg","37","restless",0.3,0.5,0.8,0.935311024404326,"false"
"image-keyboard-response",552,462147,"0.0-3.180-1.180","z8gmkpfu036htbm",95,"2.csv","","null","resources/maskTrios/L1BB.jpg","null","",NA,NA,NA,NA,""
"image-keyboard-response",553,463351,"0.0-3.180-2.180","z8gmkpfu036htbm",95,"2.csv","","null","resources/images/fishbone.png","null","",NA,NA,NA,NA,""
"image-keyboard-response",554,463621,"0.0-3.181-0.181","z8gmkpfu036htbm",95,"2.csv","","268.29999999701977","resources/trios/L1T2A2.jpg","38","restless",0.3,0.5,0.8,0.0810556126267865,"true"
"image-keyboard-response",555,464035,"0.0-3.181-1.181","z8gmkpfu036htbm",95,"2.csv","","null","resources/maskTrios/BT2B.jpg","null","",NA,NA,NA,NA,""
"image-keyboard-response",556,465240,"0.0-3.181-2.181","z8gmkpfu036htbm",95,"2.csv","","null","resources/images/coin2.png","null","",NA,NA,NA,NA,""
"image-keyboard-response",557,465631,"0.0-3.182-0.182","z8gmkpfu036htbm",95,"2.csv","","388.8999999985099","resources/trios/L2T2A3.jpg","38","restless",0.3,0.4,0.9,0.869251292046662,"false"
"image-keyboard-response",558,466039,"0.0-3.182-1.182","z8gmkpfu036htbm",95,"2.csv","","null","resources/maskTrios/BT2B.jpg","null","",NA,NA,NA,NA,""
"image-keyboard-response",559,467247,"0.0-3.182-2.182","z8gmkpfu036htbm",95,"2.csv","","null","resources/images/fishbone.png","null","",NA,NA,NA,NA,""
"image-keyboard-response",560,467528,"0.0-3.183-0.183","z8gmkpfu036htbm",95,"2.csv","","279.19999999552965","resources/trios/L1T2A2.jpg","39","restless",0.3,0.4,0.9,0.581248813238263,"true"
"image-keyboard-response",561,467934,"0.0-3.183-1.183","z8gmkpfu036htbm",95,"2.csv","","null","resources/maskTrios/BBA2.jpg","null","",NA,NA,NA,NA,""
"image-keyboard-response",562,469147,"0.0-3.183-2.183","z8gmkpfu036htbm",95,"2.csv","","null","resources/images/coin2.png","null","",NA,NA,NA,NA,""
"image-keyboard-response",563,469848,"0.0-3.184-0.184","z8gmkpfu036htbm",95,"2.csv","","699.5","resources/trios/L2T2A2.jpg","39","restless",0.4,0.5,0.9,0.68622250809109,"true"
"image-keyboard-response",564,470254,"0.0-3.184-1.184","z8gmkpfu036htbm",95,"2.csv","","null","resources/maskTrios/BBA2.jpg","null","",NA,NA,NA,NA,""
"image-keyboard-response",565,471465,"0.0-3.184-2.184","z8gmkpfu036htbm",95,"2.csv","","null","resources/images/coin2.png","null","",NA,NA,NA,NA,""
"image-keyboard-response",566,471947,"0.0-3.185-0.185","z8gmkpfu036htbm",95,"2.csv","","480.5","resources/trios/L2T2A3.jpg","39","restless",0.4,0.5,0.9,0.142243755471592,"true"
"image-keyboard-response",567,472355,"0.0-3.185-1.185","z8gmkpfu036htbm",95,"2.csv","","null","resources/maskTrios/BBA3.jpg","null","",NA,NA,NA,NA,""
"image-keyboard-response",568,473559,"0.0-3.185-2.185","z8gmkpfu036htbm",95,"2.csv","","null","resources/images/coin2.png","null","",NA,NA,NA,NA,""
"image-keyboard-response",569,473757,"0.0-3.186-0.186","z8gmkpfu036htbm",95,"2.csv","","196.40000000596046","resources/trios/L2T1A3.jpg","39","restless",0.4,0.5,0.9,0.0459548179305558,"true"
"image-keyboard-response",570,474167,"0.0-3.186-1.186","z8gmkpfu036htbm",95,"2.csv","","null","resources/maskTrios/BBA3.jpg","null","",NA,NA,NA,NA,""
"image-keyboard-response",571,475379,"0.0-3.186-2.186","z8gmkpfu036htbm",95,"2.csv","","null","resources/images/coin2.png","null","",NA,NA,NA,NA,""
"image-keyboard-response",572,475632,"0.0-3.187-0.187","z8gmkpfu036htbm",95,"2.csv","","251.5","resources/trios/L1T2A3.jpg","39","restless",0.4,0.5,0.9,0.935162295158852,"false"
"image-keyboard-response",573,476039,"0.0-3.187-1.187","z8gmkpfu036htbm",95,"2.csv","","null","resources/maskTrios/BBA3.jpg","null","",NA,NA,NA,NA,""
"image-keyboard-response",574,477247,"0.0-3.187-2.187","z8gmkpfu036htbm",95,"2.csv","","null","resources/images/fishbone.png","null","",NA,NA,NA,NA,""
"image-keyboard-response",575,477644,"0.0-3.188-0.188","z8gmkpfu036htbm",95,"2.csv","","395.8999999985099","resources/trios/L2T1A2.jpg","38","restless",0.4,0.5,0.9,0.361159832749769,"true"
"image-keyboard-response",576,478051,"0.0-3.188-1.188","z8gmkpfu036htbm",95,"2.csv","","null","resources/maskTrios/BT1B.jpg","null","",NA,NA,NA,NA,""
"image-keyboard-response",577,479255,"0.0-3.188-2.188","z8gmkpfu036htbm",95,"2.csv","","null","resources/images/coin2.png","null","",NA,NA,NA,NA,""
"image-keyboard-response",578,479554,"0.0-3.189-0.189","z8gmkpfu036htbm",95,"2.csv","","297.79999999701977","resources/trios/L1T2A2.jpg","38","restless",0.4,0.5,0.9,0.0459335364157432,"true"
"image-keyboard-response",579,479963,"0.0-3.189-1.189","z8gmkpfu036htbm",95,"2.csv","","null","resources/maskTrios/BT2B.jpg","null","",NA,NA,NA,NA,""
"image-keyboard-response",580,481167,"0.0-3.189-2.189","z8gmkpfu036htbm",95,"2.csv","","null","resources/images/coin2.png","null","",NA,NA,NA,NA,""
"image-keyboard-response",581,481448,"0.0-3.190-0.190","z8gmkpfu036htbm",95,"2.csv","","279.69999999552965","resources/trios/L2T1A2.jpg","38","restless",0.4,0.5,0.9,0.705159704601434,"false"
"image-keyboard-response",582,481856,"0.0-3.190-1.190","z8gmkpfu036htbm",95,"2.csv","","null","resources/maskTrios/BT1B.jpg","null","",NA,NA,NA,NA,""
"image-keyboard-response",583,483067,"0.0-3.190-2.190","z8gmkpfu036htbm",95,"2.csv","","null","resources/images/fishbone.png","null","",NA,NA,NA,NA,""
"image-keyboard-response",584,483398,"0.0-3.191-0.191","z8gmkpfu036htbm",95,"2.csv","","329.59999999403954","resources/trios/L2T1A3.jpg","37","restless",0.4,0.5,0.9,0.432542330934692,"false"
"image-keyboard-response",585,483803,"0.0-3.191-1.191","z8gmkpfu036htbm",95,"2.csv","","null","resources/maskTrios/L2BB.jpg","null","",NA,NA,NA,NA,""
"image-keyboard-response",586,485011,"0.0-3.191-2.191","z8gmkpfu036htbm",95,"2.csv","","null","resources/images/fishbone.png","null","",NA,NA,NA,NA,""
"image-keyboard-response",587,485640,"0.0-3.192-0.192","z8gmkpfu036htbm",95,"2.csv","","627.3000000044703","resources/trios/L1T1A3.jpg","39","restless",0.4,0.5,0.9,0.0633105264000982,"true"
"image-keyboard-response",588,486049,"0.0-3.192-1.192","z8gmkpfu036htbm",95,"2.csv","","null","resources/maskTrios/BBA3.jpg","null","",NA,NA,NA,NA,""
"image-keyboard-response",589,487259,"0.0-3.192-2.192","z8gmkpfu036htbm",95,"2.csv","","null","resources/images/coin2.png","null","",NA,NA,NA,NA,""
"image-keyboard-response",590,487567,"0.0-3.193-0.193","z8gmkpfu036htbm",95,"2.csv","","305.79999999701977","resources/trios/L2T1A2.jpg","39","restless",0.4,0.5,0.9,0.853679324849561,"true"
"image-keyboard-response",591,487975,"0.0-3.193-1.193","z8gmkpfu036htbm",95,"2.csv","","null","resources/maskTrios/BBA2.jpg","null","",NA,NA,NA,NA,""
"image-keyboard-response",592,489185,"0.0-3.193-2.193","z8gmkpfu036htbm",95,"2.csv","","null","resources/images/coin2.png","null","",NA,NA,NA,NA,""
"image-keyboard-response",593,489571,"0.0-3.194-0.194","z8gmkpfu036htbm",95,"2.csv","","384.70000000298023","resources/trios/L1T1A3.jpg","39","restless",0.5,0.5,0.9,0.155500731507112,"true"
"image-keyboard-response",594,489978,"0.0-3.194-1.194","z8gmkpfu036htbm",95,"2.csv","","null","resources/maskTrios/BBA3.jpg","null","",NA,NA,NA,NA,""
"image-keyboard-response",595,491184,"0.0-3.194-2.194","z8gmkpfu036htbm",95,"2.csv","","null","resources/images/coin2.png","null","",NA,NA,NA,NA,""
"image-keyboard-response",596,491735,"0.0-3.195-0.195","z8gmkpfu036htbm",95,"2.csv","","550.3999999985099","resources/trios/L2T1A2.jpg","39","restless",0.5,0.5,0.9,0.964041857538474,"false"
"image-keyboard-response",597,492147,"0.0-3.195-1.195","z8gmkpfu036htbm",95,"2.csv","","null","resources/maskTrios/BBA2.jpg","null","",NA,NA,NA,NA,""
"image-keyboard-response",598,493351,"0.0-3.195-2.195","z8gmkpfu036htbm",95,"2.csv","","null","resources/images/fishbone.png","null","",NA,NA,NA,NA,""
"image-keyboard-response",599,493810,"0.0-3.196-0.196","z8gmkpfu036htbm",95,"2.csv","","457.69999999552965","resources/trios/L1T1A3.jpg","38","restless",0.5,0.5,0.9,0.646482113919038,"false"
"image-keyboard-response",600,494215,"0.0-3.196-1.196","z8gmkpfu036htbm",95,"2.csv","","null","resources/maskTrios/BT1B.jpg","null","",NA,NA,NA,NA,""
"image-keyboard-response",601,495425,"0.0-3.196-2.196","z8gmkpfu036htbm",95,"2.csv","","null","resources/images/fishbone.png","null","",NA,NA,NA,NA,""
"image-keyboard-response",602,496152,"0.0-3.197-0.197","z8gmkpfu036htbm",95,"2.csv","","725.1000000014901","resources/trios/L2T1A3.jpg","38","restless",0.5,0.5,0.9,0.835154138728512,"false"
"image-keyboard-response",603,496559,"0.0-3.197-1.197","z8gmkpfu036htbm",95,"2.csv","","null","resources/maskTrios/BT1B.jpg","null","",NA,NA,NA,NA,""
"image-keyboard-response",604,497771,"0.0-3.197-2.197","z8gmkpfu036htbm",95,"2.csv","","null","resources/images/fishbone.png","null","",NA,NA,NA,NA,""
"image-keyboard-response",605,498317,"0.0-3.198-0.198","z8gmkpfu036htbm",95,"2.csv","","544.4000000059605","resources/trios/L1T2A3.jpg","37","restless",0.5,0.5,0.9,0.941258098448543,"false"
"image-keyboard-response",606,498727,"0.0-3.198-1.198","z8gmkpfu036htbm",95,"2.csv","","null","resources/maskTrios/L1BB.jpg","null","",NA,NA,NA,NA,""
"image-keyboard-response",607,499935,"0.0-3.198-2.198","z8gmkpfu036htbm",95,"2.csv","","null","resources/images/fishbone.png","null","",NA,NA,NA,NA,""
"image-keyboard-response",608,502380,"0.0-3.199-0.199","z8gmkpfu036htbm",95,"2.csv","","2443.6999999955297","resources/trios/L1T1A3.jpg","37","restless",0.6,0.5,0.9,0.308250545352943,"true"
"image-keyboard-response",609,502787,"0.0-3.199-1.199","z8gmkpfu036htbm",95,"2.csv","","null","resources/maskTrios/L1BB.jpg","null","",NA,NA,NA,NA,""
"image-keyboard-response",610,503992,"0.0-3.199-2.199","z8gmkpfu036htbm",95,"2.csv","","null","resources/images/coin2.png","null","",NA,NA,NA,NA,""
"image-keyboard-response",611,505572,"0.0-3.200-0.200","z8gmkpfu036htbm",95,"2.csv","","1579.4000000059605","resources/trios/L2T2A2.jpg","37","restless",0.6,0.5,0.8,0.819084791730549,"false"
"image-keyboard-response",612,505979,"0.0-3.200-1.200","z8gmkpfu036htbm",95,"2.csv","","null","resources/maskTrios/L2BB.jpg","null","",NA,NA,NA,NA,""
"image-keyboard-response",613,507183,"0.0-3.200-2.200","z8gmkpfu036htbm",95,"2.csv","","null","resources/images/fishbone.png","null","",NA,NA,NA,NA,""
"image-keyboard-response",614,509077,"0.0-3.201-0.201","z8gmkpfu036htbm",95,"2.csv","","1892.2999999970198","resources/trios/L2T1A3.jpg","39","restless",0.6,0.5,0.8,0.780389045491022,"true"
"image-keyboard-response",615,509479,"0.0-3.201-1.201","z8gmkpfu036htbm",95,"2.csv","","null","resources/maskTrios/BBA3.jpg","null","",NA,NA,NA,NA,""
"image-keyboard-response",616,510688,"0.0-3.201-2.201","z8gmkpfu036htbm",95,"2.csv","","null","resources/images/coin2.png","null","",NA,NA,NA,NA,""
