"trial_type","trial_index","time_elapsed","internal_node_id","subject","participantCode","walkNumber","success","rt","stimulus","key_press","test_part","leftProb","midProb","rightProb","generatedNum","correct"
"pavlovia",0,1127,"0.0-0.0","068sm2olnt0wntt",703,"65.csv","","","","","",NA,NA,NA,NA,""
"fullscreen",1,9264,"0.0-1.0","068sm2olnt0wntt",703,"65.csv","true","","","","",NA,NA,NA,NA,""
"html-keyboard-response",2,19663,"0.0-2.0-0.0","068sm2olnt0wntt",703,"65.csv","","10397","<p><font size='6'>Arrrgh!</p></font><p>Can you be the best pirate? Try to find lots of gold! But beware, some islands have more gold than others, and over time, the island with the most gold may change. Can YOU figure it out? </p><font size='6'>GOOD LUCK, CAPTAIN!!!</font><p>Press any key to begin</p>","32","",NA,NA,NA,NA,""
"image-keyboard-response",3,22676,"0.0-2.0-1.0","068sm2olnt0wntt",703,"65.csv","","null","resources/image_sets/111.png","null","",NA,NA,NA,NA,""
"image-keyboard-response",4,29584,"0.0-2.0-2.0","068sm2olnt0wntt",703,"65.csv","","6906","resources/image_sets/left_highlight.png","37","",NA,NA,NA,NA,""
"image-keyboard-response",5,32366,"0.0-2.0-3.0","068sm2olnt0wntt",703,"65.csv","","2779.9000000003725","resources/image_sets/mid_highlight.png","38","",NA,NA,NA,NA,""
"image-keyboard-response",6,33919,"0.0-2.0-4.0","068sm2olnt0wntt",703,"65.csv","","1552.300000000745","resources/image_sets/right_highlight.png","39","",NA,NA,NA,NA,""
"image-keyboard-response",7,35469,"0.0-2.0-5.0","068sm2olnt0wntt",703,"65.csv","","1548.0999999996275","resources/image_sets/111.png","13","",NA,NA,NA,NA,""
"image-keyboard-response",8,40760,"0.0-2.0-6.0","068sm2olnt0wntt",703,"65.csv","","5290.5999999996275","resources/images/coin2.png","13","",NA,NA,NA,NA,""
"image-keyboard-response",9,42896,"0.0-2.0-7.0","068sm2olnt0wntt",703,"65.csv","","2135","resources/images/fishbone.png","13","",NA,NA,NA,NA,""
"html-keyboard-response",10,48797,"0.0-2.0-8.0","068sm2olnt0wntt",703,"65.csv","","5901.39999999851","<p>Your first journey will be a long one, but you will get a well deserved break at the end</p><p>After the break you will have four more journeys, but each will be much shorter than the first, and you will have breaks in between each</p><p>Press Enter to begin</p>","13","",NA,NA,NA,NA,""
"image-keyboard-response",11,50162,"0.0-3.0-0.0","068sm2olnt0wntt",703,"65.csv","","1364","resources/trios/L4T2A2.jpg","38","restless",0.7,0.3,0.9,0.81620242609335,"false"
"image-keyboard-response",12,50566,"0.0-3.0-1.0","068sm2olnt0wntt",703,"65.csv","","null","resources/maskTrios/BT2B.jpg","null","",NA,NA,NA,NA,""
"image-keyboard-response",13,51775,"0.0-3.0-2.0","068sm2olnt0wntt",703,"65.csv","","null","resources/images/fishbone.png","null","",NA,NA,NA,NA,""
"image-keyboard-response",14,53520,"0.0-3.1-0.1","068sm2olnt0wntt",703,"65.csv","","1742.9000000003725","resources/trios/L4T1A3.jpg","38","restless",0.7,0.2,0.9,0.659783802308391,"false"
"image-keyboard-response",15,53927,"0.0-3.1-1.1","068sm2olnt0wntt",703,"65.csv","","null","resources/maskTrios/BT1B.jpg","null","",NA,NA,NA,NA,""
"image-keyboard-response",16,55129,"0.0-3.1-2.1","068sm2olnt0wntt",703,"65.csv","","null","resources/images/fishbone.png","null","",NA,NA,NA,NA,""
"image-keyboard-response",17,56466,"0.0-3.2-0.2","068sm2olnt0wntt",703,"65.csv","","1335.2000000011176","resources/trios/L1T1A3.jpg","37","restless",0.7,0.3,0.9,0.14462206899313,"true"
"image-keyboard-response",18,56876,"0.0-3.2-1.2","068sm2olnt0wntt",703,"65.csv","","null","resources/maskTrios/L1BB.jpg","null","",NA,NA,NA,NA,""
"image-keyboard-response",19,58089,"0.0-3.2-2.2","068sm2olnt0wntt",703,"65.csv","","null","resources/images/coin2.png","null","",NA,NA,NA,NA,""
"image-keyboard-response",20,60141,"0.0-3.3-0.3","068sm2olnt0wntt",703,"65.csv","","2051","resources/trios/L1T1A3.jpg","37","restless",0.7,0.3,0.9,0.396338231052129,"true"
"image-keyboard-response",21,60548,"0.0-3.3-1.3","068sm2olnt0wntt",703,"65.csv","","null","resources/maskTrios/L1BB.jpg","null","",NA,NA,NA,NA,""
"image-keyboard-response",22,61753,"0.0-3.3-2.3","068sm2olnt0wntt",703,"65.csv","","null","resources/images/coin2.png","null","",NA,NA,NA,NA,""
"image-keyboard-response",23,62525,"0.0-3.4-0.4","068sm2olnt0wntt",703,"65.csv","","771.5","resources/trios/L4T2A2.jpg","37","restless",0.7,0.3,0.9,0.155525314563633,"true"
"image-keyboard-response",24,62936,"0.0-3.4-1.4","068sm2olnt0wntt",703,"65.csv","","null","resources/maskTrios/L4BB.jpg","null","",NA,NA,NA,NA,""
"image-keyboard-response",25,64141,"0.0-3.4-2.4","068sm2olnt0wntt",703,"65.csv","","null","resources/images/coin2.png","null","",NA,NA,NA,NA,""
"image-keyboard-response",26,64760,"0.0-3.5-0.5","068sm2olnt0wntt",703,"65.csv","","617.7000000011176","resources/trios/L1T1A2.jpg","37","restless",0.7,0.3,0.9,0.700447319572283,"false"
"image-keyboard-response",27,65167,"0.0-3.5-1.5","068sm2olnt0wntt",703,"65.csv","","null","resources/maskTrios/L1BB.jpg","null","",NA,NA,NA,NA,""
"image-keyboard-response",28,66382,"0.0-3.5-2.5","068sm2olnt0wntt",703,"65.csv","","null","resources/images/fishbone.png","null","",NA,NA,NA,NA,""
"image-keyboard-response",29,67227,"0.0-3.6-0.6","068sm2olnt0wntt",703,"65.csv","","843.9000000003725","resources/trios/L1T2A3.jpg","37","restless",0.7,0.3,0.8,0.887334262760466,"false"
"image-keyboard-response",30,67642,"0.0-3.6-1.6","068sm2olnt0wntt",703,"65.csv","","null","resources/maskTrios/L1BB.jpg","null","",NA,NA,NA,NA,""
"image-keyboard-response",31,68857,"0.0-3.6-2.6","068sm2olnt0wntt",703,"65.csv","","null","resources/images/fishbone.png","null","",NA,NA,NA,NA,""
"image-keyboard-response",32,69796,"0.0-3.7-0.7","068sm2olnt0wntt",703,"65.csv","","937.3000000007451","resources/trios/L4T1A3.jpg","37","restless",0.7,0.3,0.8,0.828934310692642,"false"
"image-keyboard-response",33,70211,"0.0-3.7-1.7","068sm2olnt0wntt",703,"65.csv","","null","resources/maskTrios/L4BB.jpg","null","",NA,NA,NA,NA,""
"image-keyboard-response",34,71423,"0.0-3.7-2.7","068sm2olnt0wntt",703,"65.csv","","null","resources/images/fishbone.png","null","",NA,NA,NA,NA,""
"image-keyboard-response",35,72328,"0.0-3.8-0.8","068sm2olnt0wntt",703,"65.csv","","903.8000000007451","resources/trios/L4T1A2.jpg","38","restless",0.7,0.3,0.8,0.762186523448319,"false"
"image-keyboard-response",36,72731,"0.0-3.8-1.8","068sm2olnt0wntt",703,"65.csv","","null","resources/maskTrios/BT1B.jpg","null","",NA,NA,NA,NA,""
"image-keyboard-response",37,73944,"0.0-3.8-2.8","068sm2olnt0wntt",703,"65.csv","","null","resources/images/fishbone.png","null","",NA,NA,NA,NA,""
"image-keyboard-response",38,76344,"0.0-3.9-0.9","068sm2olnt0wntt",703,"65.csv","","2398.5","resources/trios/L4T2A3.jpg","37","restless",0.7,0.3,0.8,0.669365869727422,"true"
"image-keyboard-response",39,76760,"0.0-3.9-1.9","068sm2olnt0wntt",703,"65.csv","","null","resources/maskTrios/L4BB.jpg","null","",NA,NA,NA,NA,""
"image-keyboard-response",40,77974,"0.0-3.9-2.9","068sm2olnt0wntt",703,"65.csv","","null","resources/images/coin2.png","null","",NA,NA,NA,NA,""
"image-keyboard-response",41,78825,"0.0-3.10-0.10","068sm2olnt0wntt",703,"65.csv","","848.9000000003725","resources/trios/L1T1A2.jpg","37","restless",0.6,0.3,0.8,0.63440470458815,"false"
"image-keyboard-response",42,79237,"0.0-3.10-1.10","068sm2olnt0wntt",703,"65.csv","","null","resources/maskTrios/L1BB.jpg","null","",NA,NA,NA,NA,""
"image-keyboard-response",43,80452,"0.0-3.10-2.10","068sm2olnt0wntt",703,"65.csv","","null","resources/images/fishbone.png","null","",NA,NA,NA,NA,""
"image-keyboard-response",44,81287,"0.0-3.11-0.11","068sm2olnt0wntt",703,"65.csv","","833.7999999988824","resources/trios/L1T2A3.jpg","38","restless",0.6,0.3,0.8,0.140972564231277,"true"
"image-keyboard-response",45,81699,"0.0-3.11-1.11","068sm2olnt0wntt",703,"65.csv","","null","resources/maskTrios/BT2B.jpg","null","",NA,NA,NA,NA,""
"image-keyboard-response",46,82911,"0.0-3.11-2.11","068sm2olnt0wntt",703,"65.csv","","null","resources/images/coin2.png","null","",NA,NA,NA,NA,""
"image-keyboard-response",47,83767,"0.0-3.12-0.12","068sm2olnt0wntt",703,"65.csv","","854.2999999988824","resources/trios/L1T1A2.jpg","37","restless",0.6,0.3,0.8,0.0219285840320111,"true"
"image-keyboard-response",48,84175,"0.0-3.12-1.12","068sm2olnt0wntt",703,"65.csv","","null","resources/maskTrios/L1BB.jpg","null","",NA,NA,NA,NA,""
"image-keyboard-response",49,85388,"0.0-3.12-2.12","068sm2olnt0wntt",703,"65.csv","","null","resources/images/coin2.png","null","",NA,NA,NA,NA,""
"image-keyboard-response",50,86143,"0.0-3.13-0.13","068sm2olnt0wntt",703,"65.csv","","752.5999999996275","resources/trios/L1T1A2.jpg","37","restless",0.6,0.3,0.8,0.915299607075548,"false"
"image-keyboard-response",51,86558,"0.0-3.13-1.13","068sm2olnt0wntt",703,"65.csv","","null","resources/maskTrios/L1BB.jpg","null","",NA,NA,NA,NA,""
"image-keyboard-response",52,87772,"0.0-3.13-2.13","068sm2olnt0wntt",703,"65.csv","","null","resources/images/fishbone.png","null","",NA,NA,NA,NA,""
"image-keyboard-response",53,88808,"0.0-3.14-0.14","068sm2olnt0wntt",703,"65.csv","","1034.5999999996275","resources/trios/L1T2A3.jpg","38","restless",0.6,0.3,0.8,0.936639552208013,"false"
"image-keyboard-response",54,89220,"0.0-3.14-1.14","068sm2olnt0wntt",703,"65.csv","","null","resources/maskTrios/BT2B.jpg","null","",NA,NA,NA,NA,""
"image-keyboard-response",55,90434,"0.0-3.14-2.14","068sm2olnt0wntt",703,"65.csv","","null","resources/images/fishbone.png","null","",NA,NA,NA,NA,""
"image-keyboard-response",56,91176,"0.0-3.15-0.15","068sm2olnt0wntt",703,"65.csv","","741","resources/trios/L1T2A2.jpg","37","restless",0.6,0.3,0.8,0.94769288816979,"false"
"image-keyboard-response",57,91585,"0.0-3.15-1.15","068sm2olnt0wntt",703,"65.csv","","null","resources/maskTrios/L1BB.jpg","null","",NA,NA,NA,NA,""
"image-keyboard-response",58,92797,"0.0-3.15-2.15","068sm2olnt0wntt",703,"65.csv","","null","resources/images/fishbone.png","null","",NA,NA,NA,NA,""
"image-keyboard-response",59,93948,"0.0-3.16-0.16","068sm2olnt0wntt",703,"65.csv","","1149.800000000745","resources/trios/L4T1A3.jpg","37","restless",0.6,0.4,0.8,0.575648988390016,"true"
"image-keyboard-response",60,94350,"0.0-3.16-1.16","068sm2olnt0wntt",703,"65.csv","","null","resources/maskTrios/L4BB.jpg","null","",NA,NA,NA,NA,""
"image-keyboard-response",61,95565,"0.0-3.16-2.16","068sm2olnt0wntt",703,"65.csv","","null","resources/images/coin2.png","null","",NA,NA,NA,NA,""
"image-keyboard-response",62,96628,"0.0-3.17-0.17","068sm2olnt0wntt",703,"65.csv","","1062.0999999996275","resources/trios/L4T2A3.jpg","38","restless",0.6,0.5,0.8,0.060088756803055,"true"
"image-keyboard-response",63,97043,"0.0-3.17-1.17","068sm2olnt0wntt",703,"65.csv","","null","resources/maskTrios/BT2B.jpg","null","",NA,NA,NA,NA,""
"image-keyboard-response",64,98257,"0.0-3.17-2.17","068sm2olnt0wntt",703,"65.csv","","null","resources/images/coin2.png","null","",NA,NA,NA,NA,""
"image-keyboard-response",65,99087,"0.0-3.18-0.18","068sm2olnt0wntt",703,"65.csv","","828.2999999988824","resources/trios/L4T1A3.jpg","37","restless",0.6,0.5,0.8,0.306226915965382,"true"
"image-keyboard-response",66,99499,"0.0-3.18-1.18","068sm2olnt0wntt",703,"65.csv","","null","resources/maskTrios/L4BB.jpg","null","",NA,NA,NA,NA,""
"image-keyboard-response",67,100711,"0.0-3.18-2.18","068sm2olnt0wntt",703,"65.csv","","null","resources/images/coin2.png","null","",NA,NA,NA,NA,""
"image-keyboard-response",68,102272,"0.0-3.19-0.19","068sm2olnt0wntt",703,"65.csv","","1559.5","resources/trios/L4T2A3.jpg","38","restless",0.6,0.5,0.8,0.0669162089789832,"true"
"image-keyboard-response",69,102685,"0.0-3.19-1.19","068sm2olnt0wntt",703,"65.csv","","null","resources/maskTrios/BT2B.jpg","null","",NA,NA,NA,NA,""
"image-keyboard-response",70,103900,"0.0-3.19-2.19","068sm2olnt0wntt",703,"65.csv","","null","resources/images/coin2.png","null","",NA,NA,NA,NA,""
"image-keyboard-response",71,104667,"0.0-3.20-0.20","068sm2olnt0wntt",703,"65.csv","","766.8000000007451","resources/trios/L1T1A2.jpg","39","restless",0.6,0.5,0.8,0.240108441098769,"true"
"image-keyboard-response",72,105082,"0.0-3.20-1.20","068sm2olnt0wntt",703,"65.csv","","null","resources/maskTrios/BBA2.jpg","null","",NA,NA,NA,NA,""
"image-keyboard-response",73,106296,"0.0-3.20-2.20","068sm2olnt0wntt",703,"65.csv","","null","resources/images/coin2.png","null","",NA,NA,NA,NA,""
"image-keyboard-response",74,108377,"0.0-3.21-0.21","068sm2olnt0wntt",703,"65.csv","","2079.0999999996275","resources/trios/L4T1A2.jpg","39","restless",0.6,0.5,0.8,0.857078081989009,"false"
"image-keyboard-response",75,108788,"0.0-3.21-1.21","068sm2olnt0wntt",703,"65.csv","","null","resources/maskTrios/BBA2.jpg","null","",NA,NA,NA,NA,""
"image-keyboard-response",76,110004,"0.0-3.21-2.21","068sm2olnt0wntt",703,"65.csv","","null","resources/images/fishbone.png","null","",NA,NA,NA,NA,""
"image-keyboard-response",77,111368,"0.0-3.22-0.22","068sm2olnt0wntt",703,"65.csv","","1363.0999999996275","resources/trios/L1T2A2.jpg","38","restless",0.6,0.5,0.8,0.122440090728802,"true"
"image-keyboard-response",78,111775,"0.0-3.22-1.22","068sm2olnt0wntt",703,"65.csv","","null","resources/maskTrios/BT2B.jpg","null","",NA,NA,NA,NA,""
"image-keyboard-response",79,112989,"0.0-3.22-2.22","068sm2olnt0wntt",703,"65.csv","","null","resources/images/coin2.png","null","",NA,NA,NA,NA,""
"image-keyboard-response",80,114081,"0.0-3.23-0.23","068sm2olnt0wntt",703,"65.csv","","1091.300000000745","resources/trios/L1T1A2.jpg","37","restless",0.6,0.5,0.8,0.876962125999815,"false"
"image-keyboard-response",81,114497,"0.0-3.23-1.23","068sm2olnt0wntt",703,"65.csv","","null","resources/maskTrios/L1BB.jpg","null","",NA,NA,NA,NA,""
"image-keyboard-response",82,115708,"0.0-3.23-2.23","068sm2olnt0wntt",703,"65.csv","","null","resources/images/fishbone.png","null","",NA,NA,NA,NA,""
"image-keyboard-response",83,118157,"0.0-3.24-0.24","068sm2olnt0wntt",703,"65.csv","","2448.199999999255","resources/trios/L4T1A3.jpg","37","restless",0.6,0.4,0.8,0.527966225917931,"true"
"image-keyboard-response",84,118562,"0.0-3.24-1.24","068sm2olnt0wntt",703,"65.csv","","null","resources/maskTrios/L4BB.jpg","null","",NA,NA,NA,NA,""
"image-keyboard-response",85,119774,"0.0-3.24-2.24","068sm2olnt0wntt",703,"65.csv","","null","resources/images/coin2.png","null","",NA,NA,NA,NA,""
"image-keyboard-response",86,120938,"0.0-3.25-0.25","068sm2olnt0wntt",703,"65.csv","","1162.7000000011176","resources/trios/L1T1A2.jpg","39","restless",0.6,0.4,0.8,0.560950565129708,"true"
"image-keyboard-response",87,121343,"0.0-3.25-1.25","068sm2olnt0wntt",703,"65.csv","","null","resources/maskTrios/BBA2.jpg","null","",NA,NA,NA,NA,""
"image-keyboard-response",88,122558,"0.0-3.25-2.25","068sm2olnt0wntt",703,"65.csv","","null","resources/images/coin2.png","null","",NA,NA,NA,NA,""
"image-keyboard-response",89,123463,"0.0-3.26-0.26","068sm2olnt0wntt",703,"65.csv","","903.4000000003725","resources/trios/L1T2A3.jpg","38","restless",0.5,0.4,0.8,0.397846572986245,"true"
"image-keyboard-response",90,123872,"0.0-3.26-1.26","068sm2olnt0wntt",703,"65.csv","","null","resources/maskTrios/BT2B.jpg","null","",NA,NA,NA,NA,""
"image-keyboard-response",91,125084,"0.0-3.26-2.26","068sm2olnt0wntt",703,"65.csv","","null","resources/images/coin2.png","null","",NA,NA,NA,NA,""
"image-keyboard-response",92,126055,"0.0-3.27-0.27","068sm2olnt0wntt",703,"65.csv","","969.8999999985099","resources/trios/L1T2A3.jpg","38","restless",0.5,0.4,0.8,0.928830452934934,"false"
"image-keyboard-response",93,126472,"0.0-3.27-1.27","068sm2olnt0wntt",703,"65.csv","","null","resources/maskTrios/BT2B.jpg","null","",NA,NA,NA,NA,""
"image-keyboard-response",94,127683,"0.0-3.27-2.27","068sm2olnt0wntt",703,"65.csv","","null","resources/images/fishbone.png","null","",NA,NA,NA,NA,""
"image-keyboard-response",95,130584,"0.0-3.28-0.28","068sm2olnt0wntt",703,"65.csv","","2900.5","resources/trios/L4T1A3.jpg","37","restless",0.5,0.4,0.8,0.463419480643459,"true"
"image-keyboard-response",96,131001,"0.0-3.28-1.28","068sm2olnt0wntt",703,"65.csv","","null","resources/maskTrios/L4BB.jpg","null","",NA,NA,NA,NA,""
"image-keyboard-response",97,132217,"0.0-3.28-2.28","068sm2olnt0wntt",703,"65.csv","","null","resources/images/coin2.png","null","",NA,NA,NA,NA,""
"image-keyboard-response",98,133289,"0.0-3.29-0.29","068sm2olnt0wntt",703,"65.csv","","1069.9000000003725","resources/trios/L1T2A2.jpg","38","restless",0.5,0.4,0.8,0.263518463545564,"true"
"image-keyboard-response",99,133692,"0.0-3.29-1.29","068sm2olnt0wntt",703,"65.csv","","null","resources/maskTrios/BT2B.jpg","null","",NA,NA,NA,NA,""
"image-keyboard-response",100,134907,"0.0-3.29-2.29","068sm2olnt0wntt",703,"65.csv","","null","resources/images/coin2.png","null","",NA,NA,NA,NA,""
"image-keyboard-response",101,135965,"0.0-3.30-0.30","068sm2olnt0wntt",703,"65.csv","","1056","resources/trios/L1T1A3.jpg","39","restless",0.5,0.4,0.8,0.685781559488493,"true"
"image-keyboard-response",102,136370,"0.0-3.30-1.30","068sm2olnt0wntt",703,"65.csv","","null","resources/maskTrios/BBA3.jpg","null","",NA,NA,NA,NA,""
"image-keyboard-response",103,137571,"0.0-3.30-2.30","068sm2olnt0wntt",703,"65.csv","","null","resources/images/coin2.png","null","",NA,NA,NA,NA,""
"image-keyboard-response",104,139833,"0.0-3.31-0.31","068sm2olnt0wntt",703,"65.csv","","2260.39999999851","resources/trios/L4T1A2.jpg","37","restless",0.5,0.4,0.8,0.140473295982199,"true"
"image-keyboard-response",105,140237,"0.0-3.31-1.31","068sm2olnt0wntt",703,"65.csv","","null","resources/maskTrios/L4BB.jpg","null","",NA,NA,NA,NA,""
"image-keyboard-response",106,141451,"0.0-3.31-2.31","068sm2olnt0wntt",703,"65.csv","","null","resources/images/coin2.png","null","",NA,NA,NA,NA,""
"image-keyboard-response",107,143029,"0.0-3.32-0.32","068sm2olnt0wntt",703,"65.csv","","1577","resources/trios/L1T1A3.jpg","38","restless",0.5,0.4,0.8,0.86541983368888,"false"
"image-keyboard-response",108,143437,"0.0-3.32-1.32","068sm2olnt0wntt",703,"65.csv","","null","resources/maskTrios/BT1B.jpg","null","",NA,NA,NA,NA,""
"image-keyboard-response",109,144639,"0.0-3.32-2.32","068sm2olnt0wntt",703,"65.csv","","null","resources/images/fishbone.png","null","",NA,NA,NA,NA,""
"image-keyboard-response",110,146446,"0.0-3.33-0.33","068sm2olnt0wntt",703,"65.csv","","1806.199999999255","resources/trios/L4T1A2.jpg","39","restless",0.5,0.4,0.8,0.0246504729445229,"true"
"image-keyboard-response",111,146854,"0.0-3.33-1.33","068sm2olnt0wntt",703,"65.csv","","null","resources/maskTrios/BBA2.jpg","null","",NA,NA,NA,NA,""
"image-keyboard-response",112,148068,"0.0-3.33-2.33","068sm2olnt0wntt",703,"65.csv","","null","resources/images/coin2.png","null","",NA,NA,NA,NA,""
"image-keyboard-response",113,149181,"0.0-3.34-0.34","068sm2olnt0wntt",703,"65.csv","","1112.2000000011176","resources/trios/L1T2A3.jpg","38","restless",0.5,0.4,0.8,0.128044029411485,"true"
"image-keyboard-response",114,149592,"0.0-3.34-1.34","068sm2olnt0wntt",703,"65.csv","","null","resources/maskTrios/BT2B.jpg","null","",NA,NA,NA,NA,""
"image-keyboard-response",115,150807,"0.0-3.34-2.34","068sm2olnt0wntt",703,"65.csv","","null","resources/images/coin2.png","null","",NA,NA,NA,NA,""
"image-keyboard-response",116,151554,"0.0-3.35-0.35","068sm2olnt0wntt",703,"65.csv","","745.5","resources/trios/L4T2A3.jpg","38","restless",0.5,0.4,0.8,0.0839178210276457,"true"
"image-keyboard-response",117,151957,"0.0-3.35-1.35","068sm2olnt0wntt",703,"65.csv","","null","resources/maskTrios/BT2B.jpg","null","",NA,NA,NA,NA,""
"image-keyboard-response",118,153167,"0.0-3.35-2.35","068sm2olnt0wntt",703,"65.csv","","null","resources/images/coin2.png","null","",NA,NA,NA,NA,""
"image-keyboard-response",119,154013,"0.0-3.36-0.36","068sm2olnt0wntt",703,"65.csv","","844.8000000007451","resources/trios/L4T1A3.jpg","37","restless",0.5,0.4,0.8,0.918599620628187,"false"
"image-keyboard-response",120,154426,"0.0-3.36-1.36","068sm2olnt0wntt",703,"65.csv","","null","resources/maskTrios/L4BB.jpg","null","",NA,NA,NA,NA,""
"image-keyboard-response",121,155637,"0.0-3.36-2.36","068sm2olnt0wntt",703,"65.csv","","null","resources/images/fishbone.png","null","",NA,NA,NA,NA,""
"image-keyboard-response",122,156747,"0.0-3.37-0.37","068sm2olnt0wntt",703,"65.csv","","1108.5","resources/trios/L1T2A3.jpg","38","restless",0.4,0.4,0.8,0.269080118624944,"true"
"image-keyboard-response",123,157161,"0.0-3.37-1.37","068sm2olnt0wntt",703,"65.csv","","null","resources/maskTrios/BT2B.jpg","null","",NA,NA,NA,NA,""
"image-keyboard-response",124,158372,"0.0-3.37-2.37","068sm2olnt0wntt",703,"65.csv","","null","resources/images/coin2.png","null","",NA,NA,NA,NA,""
"image-keyboard-response",125,159496,"0.0-3.38-0.38","068sm2olnt0wntt",703,"65.csv","","1123.0999999996275","resources/trios/L4T2A3.jpg","38","restless",0.4,0.4,0.8,0.907639292998734,"false"
"image-keyboard-response",126,159911,"0.0-3.38-1.38","068sm2olnt0wntt",703,"65.csv","","null","resources/maskTrios/BT2B.jpg","null","",NA,NA,NA,NA,""
"image-keyboard-response",127,161125,"0.0-3.38-2.38","068sm2olnt0wntt",703,"65.csv","","null","resources/images/fishbone.png","null","",NA,NA,NA,NA,""
"image-keyboard-response",128,163568,"0.0-3.39-0.39","068sm2olnt0wntt",703,"65.csv","","2441.300000000745","resources/trios/L4T1A3.jpg","39","restless",0.4,0.4,0.8,0.776213276097603,"true"
"image-keyboard-response",129,163972,"0.0-3.39-1.39","068sm2olnt0wntt",703,"65.csv","","null","resources/maskTrios/BBA3.jpg","null","",NA,NA,NA,NA,""
"image-keyboard-response",130,165189,"0.0-3.39-2.39","068sm2olnt0wntt",703,"65.csv","","null","resources/images/coin2.png","null","",NA,NA,NA,NA,""
"image-keyboard-response",131,166218,"0.0-3.40-0.40","068sm2olnt0wntt",703,"65.csv","","1027.800000000745","resources/trios/L1T2A3.jpg","38","restless",0.4,0.4,0.7,0.805486329224852,"false"
"image-keyboard-response",132,166621,"0.0-3.40-1.40","068sm2olnt0wntt",703,"65.csv","","null","resources/maskTrios/BT2B.jpg","null","",NA,NA,NA,NA,""
"image-keyboard-response",133,167836,"0.0-3.40-2.40","068sm2olnt0wntt",703,"65.csv","","null","resources/images/fishbone.png","null","",NA,NA,NA,NA,""
"image-keyboard-response",134,168976,"0.0-3.41-0.41","068sm2olnt0wntt",703,"65.csv","","1139.7000000011176","resources/trios/L4T1A3.jpg","39","restless",0.4,0.4,0.7,0.288770477083691,"true"
"image-keyboard-response",135,169379,"0.0-3.41-1.41","068sm2olnt0wntt",703,"65.csv","","null","resources/maskTrios/BBA3.jpg","null","",NA,NA,NA,NA,""
"image-keyboard-response",136,170588,"0.0-3.41-2.41","068sm2olnt0wntt",703,"65.csv","","null","resources/images/coin2.png","null","",NA,NA,NA,NA,""
"image-keyboard-response",137,172607,"0.0-3.42-0.42","068sm2olnt0wntt",703,"65.csv","","2017.8999999985099","resources/trios/L4T2A2.jpg","38","restless",0.4,0.4,0.7,0.196925729808656,"true"
"image-keyboard-response",138,173013,"0.0-3.42-1.42","068sm2olnt0wntt",703,"65.csv","","null","resources/maskTrios/BT2B.jpg","null","",NA,NA,NA,NA,""
"image-keyboard-response",139,174215,"0.0-3.42-2.42","068sm2olnt0wntt",703,"65.csv","","null","resources/images/coin2.png","null","",NA,NA,NA,NA,""
"image-keyboard-response",140,175166,"0.0-3.43-0.43","068sm2olnt0wntt",703,"65.csv","","950.1999999992549","resources/trios/L1T1A3.jpg","37","restless",0.3,0.5,0.7,0.450871955104168,"false"
"image-keyboard-response",141,175569,"0.0-3.43-1.43","068sm2olnt0wntt",703,"65.csv","","null","resources/maskTrios/L1BB.jpg","null","",NA,NA,NA,NA,""
"image-keyboard-response",142,176781,"0.0-3.43-2.43","068sm2olnt0wntt",703,"65.csv","","null","resources/images/fishbone.png","null","",NA,NA,NA,NA,""
"image-keyboard-response",143,178338,"0.0-3.44-0.44","068sm2olnt0wntt",703,"65.csv","","1557","resources/trios/L4T2A3.jpg","38","restless",0.3,0.5,0.7,0.638121762056719,"false"
"image-keyboard-response",144,178744,"0.0-3.44-1.44","068sm2olnt0wntt",703,"65.csv","","null","resources/maskTrios/BT2B.jpg","null","",NA,NA,NA,NA,""
"image-keyboard-response",145,179955,"0.0-3.44-2.44","068sm2olnt0wntt",703,"65.csv","","null","resources/images/fishbone.png","null","",NA,NA,NA,NA,""
"image-keyboard-response",146,181166,"0.0-3.45-0.45","068sm2olnt0wntt",703,"65.csv","","1209.5","resources/trios/L4T2A3.jpg","38","restless",0.3,0.4,0.7,0.98751220716888,"false"
"image-keyboard-response",147,181575,"0.0-3.45-1.45","068sm2olnt0wntt",703,"65.csv","","null","resources/maskTrios/BT2B.jpg","null","",NA,NA,NA,NA,""
"image-keyboard-response",148,182786,"0.0-3.45-2.45","068sm2olnt0wntt",703,"65.csv","","null","resources/images/fishbone.png","null","",NA,NA,NA,NA,""
"image-keyboard-response",149,185298,"0.0-3.46-0.46","068sm2olnt0wntt",703,"65.csv","","2511.300000000745","resources/trios/L1T2A2.jpg","38","restless",0.4,0.4,0.7,0.462172112107722,"false"
"image-keyboard-response",150,185707,"0.0-3.46-1.46","068sm2olnt0wntt",703,"65.csv","","null","resources/maskTrios/BT2B.jpg","null","",NA,NA,NA,NA,""
"image-keyboard-response",151,186919,"0.0-3.46-2.46","068sm2olnt0wntt",703,"65.csv","","null","resources/images/fishbone.png","null","",NA,NA,NA,NA,""
"image-keyboard-response",152,189052,"0.0-3.47-0.47","068sm2olnt0wntt",703,"65.csv","","2130.9000000003725","resources/trios/L1T1A3.jpg","39","restless",0.4,0.4,0.7,0.270041043606779,"true"
"image-keyboard-response",153,189462,"0.0-3.47-1.47","068sm2olnt0wntt",703,"65.csv","","null","resources/maskTrios/BBA3.jpg","null","",NA,NA,NA,NA,""
"image-keyboard-response",154,190672,"0.0-3.47-2.47","068sm2olnt0wntt",703,"65.csv","","null","resources/images/coin2.png","null","",NA,NA,NA,NA,""
"image-keyboard-response",155,191926,"0.0-3.48-0.48","068sm2olnt0wntt",703,"65.csv","","1252.0999999996275","resources/trios/L1T2A3.jpg","38","restless",0.4,0.4,0.7,0.221967513495092,"true"
"image-keyboard-response",156,192338,"0.0-3.48-1.48","068sm2olnt0wntt",703,"65.csv","","null","resources/maskTrios/BT2B.jpg","null","",NA,NA,NA,NA,""
"image-keyboard-response",157,193551,"0.0-3.48-2.48","068sm2olnt0wntt",703,"65.csv","","null","resources/images/coin2.png","null","",NA,NA,NA,NA,""
"image-keyboard-response",158,194533,"0.0-3.49-0.49","068sm2olnt0wntt",703,"65.csv","","980.5999999996275","resources/trios/L4T1A3.jpg","37","restless",0.4,0.4,0.7,0.433520858521363,"false"
"image-keyboard-response",159,194942,"0.0-3.49-1.49","068sm2olnt0wntt",703,"65.csv","","null","resources/maskTrios/L4BB.jpg","null","",NA,NA,NA,NA,""
"image-keyboard-response",160,196157,"0.0-3.49-2.49","068sm2olnt0wntt",703,"65.csv","","null","resources/images/fishbone.png","null","",NA,NA,NA,NA,""
"image-keyboard-response",161,197422,"0.0-3.50-0.50","068sm2olnt0wntt",703,"65.csv","","1263.3999999985099","resources/trios/L1T1A3.jpg","39","restless",0.4,0.4,0.7,0.413011472453884,"true"
"image-keyboard-response",162,197828,"0.0-3.50-1.50","068sm2olnt0wntt",703,"65.csv","","null","resources/maskTrios/BBA3.jpg","null","",NA,NA,NA,NA,""
"image-keyboard-response",163,199043,"0.0-3.50-2.50","068sm2olnt0wntt",703,"65.csv","","null","resources/images/coin2.png","null","",NA,NA,NA,NA,""
"image-keyboard-response",164,200304,"0.0-3.51-0.51","068sm2olnt0wntt",703,"65.csv","","1260.0999999996275","resources/trios/L1T1A3.jpg","39","restless",0.4,0.4,0.7,0.397560757820539,"true"
"image-keyboard-response",165,200708,"0.0-3.51-1.51","068sm2olnt0wntt",703,"65.csv","","null","resources/maskTrios/BBA3.jpg","null","",NA,NA,NA,NA,""
"image-keyboard-response",166,201911,"0.0-3.51-2.51","068sm2olnt0wntt",703,"65.csv","","null","resources/images/coin2.png","null","",NA,NA,NA,NA,""
"image-keyboard-response",167,203099,"0.0-3.52-0.52","068sm2olnt0wntt",703,"65.csv","","1186.9000000003725","resources/trios/L1T2A2.jpg","38","restless",0.3,0.5,0.7,0.0176955372579317,"true"
"image-keyboard-response",168,203502,"0.0-3.52-1.52","068sm2olnt0wntt",703,"65.csv","","null","resources/maskTrios/BT2B.jpg","null","",NA,NA,NA,NA,""
"image-keyboard-response",169,204705,"0.0-3.52-2.52","068sm2olnt0wntt",703,"65.csv","","null","resources/images/coin2.png","null","",NA,NA,NA,NA,""
"image-keyboard-response",170,207093,"0.0-3.53-0.53","068sm2olnt0wntt",703,"65.csv","","2387","resources/trios/L4T1A3.jpg","39","restless",0.3,0.5,0.7,0.403917984088935,"true"
"image-keyboard-response",171,207497,"0.0-3.53-1.53","068sm2olnt0wntt",703,"65.csv","","null","resources/maskTrios/BBA3.jpg","null","",NA,NA,NA,NA,""
"image-keyboard-response",172,208714,"0.0-3.53-2.53","068sm2olnt0wntt",703,"65.csv","","null","resources/images/coin2.png","null","",NA,NA,NA,NA,""
"image-keyboard-response",173,209509,"0.0-3.54-0.54","068sm2olnt0wntt",703,"65.csv","","793.6999999992549","resources/trios/L1T1A3.jpg","37","restless",0.3,0.5,0.7,0.58518047672187,"false"
"image-keyboard-response",174,209911,"0.0-3.54-1.54","068sm2olnt0wntt",703,"65.csv","","null","resources/maskTrios/L1BB.jpg","null","",NA,NA,NA,NA,""
"image-keyboard-response",175,211126,"0.0-3.54-2.54","068sm2olnt0wntt",703,"65.csv","","null","resources/images/fishbone.png","null","",NA,NA,NA,NA,""
"image-keyboard-response",176,212240,"0.0-3.55-0.55","068sm2olnt0wntt",703,"65.csv","","1112.5999999996275","resources/trios/L1T2A3.jpg","38","restless",0.3,0.5,0.7,0.196962552555965,"true"
"image-keyboard-response",177,212654,"0.0-3.55-1.55","068sm2olnt0wntt",703,"65.csv","","null","resources/maskTrios/BT2B.jpg","null","",NA,NA,NA,NA,""
"image-keyboard-response",178,213867,"0.0-3.55-2.55","068sm2olnt0wntt",703,"65.csv","","null","resources/images/coin2.png","null","",NA,NA,NA,NA,""
"image-keyboard-response",179,217189,"0.0-3.56-0.56","068sm2olnt0wntt",703,"65.csv","","3321.4000000003725","resources/trios/L1T1A3.jpg","39","restless",0.3,0.5,0.6,0.237020046306012,"true"
"image-keyboard-response",180,217601,"0.0-3.56-1.56","068sm2olnt0wntt",703,"65.csv","","null","resources/maskTrios/BBA3.jpg","null","",NA,NA,NA,NA,""
"image-keyboard-response",181,218816,"0.0-3.56-2.56","068sm2olnt0wntt",703,"65.csv","","null","resources/images/coin2.png","null","",NA,NA,NA,NA,""
"image-keyboard-response",182,220690,"0.0-3.57-0.57","068sm2olnt0wntt",703,"65.csv","","1872.7000000011176","resources/trios/L1T1A2.jpg","39","restless",0.3,0.5,0.6,0.414196753636605,"true"
"image-keyboard-response",183,221092,"0.0-3.57-1.57","068sm2olnt0wntt",703,"65.csv","","null","resources/maskTrios/BBA2.jpg","null","",NA,NA,NA,NA,""
"image-keyboard-response",184,222303,"0.0-3.57-2.57","068sm2olnt0wntt",703,"65.csv","","null","resources/images/coin2.png","null","",NA,NA,NA,NA,""
"image-keyboard-response",185,223282,"0.0-3.58-0.58","068sm2olnt0wntt",703,"65.csv","","976.7999999988824","resources/trios/L4T1A2.jpg","39","restless",0.3,0.5,0.6,0.643063333935392,"false"
"image-keyboard-response",186,223687,"0.0-3.58-1.58","068sm2olnt0wntt",703,"65.csv","","null","resources/maskTrios/BBA2.jpg","null","",NA,NA,NA,NA,""
"image-keyboard-response",187,224904,"0.0-3.58-2.58","068sm2olnt0wntt",703,"65.csv","","null","resources/images/fishbone.png","null","",NA,NA,NA,NA,""
"image-keyboard-response",188,226538,"0.0-3.59-0.59","068sm2olnt0wntt",703,"65.csv","","1632","resources/trios/L4T1A3.jpg","39","restless",0.3,0.4,0.6,0.931831782662533,"false"
"image-keyboard-response",189,226950,"0.0-3.59-1.59","068sm2olnt0wntt",703,"65.csv","","null","resources/maskTrios/BBA3.jpg","null","",NA,NA,NA,NA,""
"image-keyboard-response",190,228166,"0.0-3.59-2.59","068sm2olnt0wntt",703,"65.csv","","null","resources/images/fishbone.png","null","",NA,NA,NA,NA,""
"image-keyboard-response",191,229380,"0.0-3.60-0.60","068sm2olnt0wntt",703,"65.csv","","1212.5","resources/trios/L4T1A2.jpg","37","restless",0.3,0.4,0.6,0.605989768678366,"false"
"image-keyboard-response",192,229784,"0.0-3.60-1.60","068sm2olnt0wntt",703,"65.csv","","null","resources/maskTrios/L4BB.jpg","null","",NA,NA,NA,NA,""
"image-keyboard-response",193,231000,"0.0-3.60-2.60","068sm2olnt0wntt",703,"65.csv","","null","resources/images/fishbone.png","null","",NA,NA,NA,NA,""
"image-keyboard-response",194,231738,"0.0-3.61-0.61","068sm2olnt0wntt",703,"65.csv","","737.5999999996275","resources/trios/L1T2A3.jpg","38","restless",0.3,0.4,0.6,0.785468621259468,"false"
"image-keyboard-response",195,232155,"0.0-3.61-1.61","068sm2olnt0wntt",703,"65.csv","","null","resources/maskTrios/BT2B.jpg","null","",NA,NA,NA,NA,""
"image-keyboard-response",196,233369,"0.0-3.61-2.61","068sm2olnt0wntt",703,"65.csv","","null","resources/images/fishbone.png","null","",NA,NA,NA,NA,""
"image-keyboard-response",197,234546,"0.0-3.62-0.62","068sm2olnt0wntt",703,"65.csv","","1176.4000000003725","resources/trios/L1T2A2.jpg","37","restless",0.4,0.4,0.6,0.434243744543307,"false"
"image-keyboard-response",198,234961,"0.0-3.62-1.62","068sm2olnt0wntt",703,"65.csv","","null","resources/maskTrios/L1BB.jpg","null","",NA,NA,NA,NA,""
"image-keyboard-response",199,236164,"0.0-3.62-2.62","068sm2olnt0wntt",703,"65.csv","","null","resources/images/fishbone.png","null","",NA,NA,NA,NA,""
"image-keyboard-response",200,237036,"0.0-3.63-0.63","068sm2olnt0wntt",703,"65.csv","","870.4000000003725","resources/trios/L1T2A3.jpg","38","restless",0.5,0.5,0.6,0.253069423827548,"true"
"image-keyboard-response",201,237443,"0.0-3.63-1.63","068sm2olnt0wntt",703,"65.csv","","null","resources/maskTrios/BT2B.jpg","null","",NA,NA,NA,NA,""
"image-keyboard-response",202,238659,"0.0-3.63-2.63","068sm2olnt0wntt",703,"65.csv","","null","resources/images/coin2.png","null","",NA,NA,NA,NA,""
"image-keyboard-response",203,240220,"0.0-3.64-0.64","068sm2olnt0wntt",703,"65.csv","","1559.300000000745","resources/trios/L1T1A2.jpg","37","restless",0.5,0.5,0.6,0.135236026547834,"true"
"image-keyboard-response",204,240627,"0.0-3.64-1.64","068sm2olnt0wntt",703,"65.csv","","null","resources/maskTrios/L1BB.jpg","null","",NA,NA,NA,NA,""
"image-keyboard-response",205,241843,"0.0-3.64-2.64","068sm2olnt0wntt",703,"65.csv","","null","resources/images/coin2.png","null","",NA,NA,NA,NA,""
"image-keyboard-response",206,243232,"0.0-3.65-0.65","068sm2olnt0wntt",703,"65.csv","","1387.4000000003725","resources/trios/L4T1A2.jpg","37","restless",0.5,0.5,0.6,0.703051380529287,"false"
"image-keyboard-response",207,243635,"0.0-3.65-1.65","068sm2olnt0wntt",703,"65.csv","","null","resources/maskTrios/L4BB.jpg","null","",NA,NA,NA,NA,""
"image-keyboard-response",208,244842,"0.0-3.65-2.65","068sm2olnt0wntt",703,"65.csv","","null","resources/images/fishbone.png","null","",NA,NA,NA,NA,""
"image-keyboard-response",209,246366,"0.0-3.66-0.66","068sm2olnt0wntt",703,"65.csv","","1523.5999999996275","resources/trios/L1T1A3.jpg","37","restless",0.4,0.5,0.6,0.338869051676506,"true"
"image-keyboard-response",210,246774,"0.0-3.66-1.66","068sm2olnt0wntt",703,"65.csv","","null","resources/maskTrios/L1BB.jpg","null","",NA,NA,NA,NA,""
"image-keyboard-response",211,247989,"0.0-3.66-2.66","068sm2olnt0wntt",703,"65.csv","","null","resources/images/coin2.png","null","",NA,NA,NA,NA,""
"image-keyboard-response",212,249734,"0.0-3.67-0.67","068sm2olnt0wntt",703,"65.csv","","1744.9000000003725","resources/trios/L4T1A3.jpg","39","restless",0.4,0.5,0.5,0.794531973964348,"false"
"image-keyboard-response",213,250151,"0.0-3.67-1.67","068sm2olnt0wntt",703,"65.csv","","null","resources/maskTrios/BBA3.jpg","null","",NA,NA,NA,NA,""
"image-keyboard-response",214,251367,"0.0-3.67-2.67","068sm2olnt0wntt",703,"65.csv","","null","resources/images/fishbone.png","null","",NA,NA,NA,NA,""
"image-keyboard-response",215,251926,"0.0-3.68-0.68","068sm2olnt0wntt",703,"65.csv","","557.1999999992549","resources/trios/L4T1A3.jpg","37","restless",0.4,0.5,0.5,0.787066906970867,"false"
"image-keyboard-response",216,252330,"0.0-3.68-1.68","068sm2olnt0wntt",703,"65.csv","","null","resources/maskTrios/L4BB.jpg","null","",NA,NA,NA,NA,""
"image-keyboard-response",217,253546,"0.0-3.68-2.68","068sm2olnt0wntt",703,"65.csv","","null","resources/images/fishbone.png","null","",NA,NA,NA,NA,""
"image-keyboard-response",218,254085,"0.0-3.69-0.69","068sm2olnt0wntt",703,"65.csv","","537.7000000011176","resources/trios/L4T1A2.jpg","38","restless",0.4,0.5,0.6,0.149669535491677,"true"
"image-keyboard-response",219,254496,"0.0-3.69-1.69","068sm2olnt0wntt",703,"65.csv","","null","resources/maskTrios/BT1B.jpg","null","",NA,NA,NA,NA,""
"image-keyboard-response",220,255698,"0.0-3.69-2.69","068sm2olnt0wntt",703,"65.csv","","null","resources/images/coin2.png","null","",NA,NA,NA,NA,""
"image-keyboard-response",221,256845,"0.0-3.70-0.70","068sm2olnt0wntt",703,"65.csv","","1145.9000000003725","resources/trios/L4T1A3.jpg","38","restless",0.4,0.5,0.6,0.392809584382355,"true"
"image-keyboard-response",222,257258,"0.0-3.70-1.70","068sm2olnt0wntt",703,"65.csv","","null","resources/maskTrios/BT1B.jpg","null","",NA,NA,NA,NA,""
"image-keyboard-response",223,258469,"0.0-3.70-2.70","068sm2olnt0wntt",703,"65.csv","","null","resources/images/coin2.png","null","",NA,NA,NA,NA,""
"image-keyboard-response",224,259935,"0.0-3.71-0.71","068sm2olnt0wntt",703,"65.csv","","1465.4000000003725","resources/trios/L1T2A3.jpg","38","restless",0.4,0.5,0.6,0.858102281388072,"false"
"image-keyboard-response",225,260342,"0.0-3.71-1.71","068sm2olnt0wntt",703,"65.csv","","null","resources/maskTrios/BT2B.jpg","null","",NA,NA,NA,NA,""
"image-keyboard-response",226,261544,"0.0-3.71-2.71","068sm2olnt0wntt",703,"65.csv","","null","resources/images/fishbone.png","null","",NA,NA,NA,NA,""
"image-keyboard-response",227,263357,"0.0-3.72-0.72","068sm2olnt0wntt",703,"65.csv","","1812.5999999996275","resources/trios/L1T1A3.jpg","39","restless",0.4,0.5,0.6,0.0456708101684429,"true"
"image-keyboard-response",228,263764,"0.0-3.72-1.72","068sm2olnt0wntt",703,"65.csv","","null","resources/maskTrios/BBA3.jpg","null","",NA,NA,NA,NA,""
"image-keyboard-response",229,264970,"0.0-3.72-2.72","068sm2olnt0wntt",703,"65.csv","","null","resources/images/coin2.png","null","",NA,NA,NA,NA,""
"image-keyboard-response",230,266005,"0.0-3.73-0.73","068sm2olnt0wntt",703,"65.csv","","1033.7999999988824","resources/trios/L4T1A3.jpg","38","restless",0.4,0.5,0.6,0.322327324671036,"true"
"image-keyboard-response",231,266417,"0.0-3.73-1.73","068sm2olnt0wntt",703,"65.csv","","null","resources/maskTrios/BT1B.jpg","null","",NA,NA,NA,NA,""
"image-keyboard-response",232,267620,"0.0-3.73-2.73","068sm2olnt0wntt",703,"65.csv","","null","resources/images/coin2.png","null","",NA,NA,NA,NA,""
"image-keyboard-response",233,268646,"0.0-3.74-0.74","068sm2olnt0wntt",703,"65.csv","","1025.0999999996275","resources/trios/L1T2A2.jpg","37","restless",0.4,0.5,0.6,0.0260483522247401,"true"
"image-keyboard-response",234,269048,"0.0-3.74-1.74","068sm2olnt0wntt",703,"65.csv","","null","resources/maskTrios/L1BB.jpg","null","",NA,NA,NA,NA,""
"image-keyboard-response",235,270254,"0.0-3.74-2.74","068sm2olnt0wntt",703,"65.csv","","null","resources/images/coin2.png","null","",NA,NA,NA,NA,""
"image-keyboard-response",236,271652,"0.0-3.75-0.75","068sm2olnt0wntt",703,"65.csv","","1397","resources/trios/L4T2A3.jpg","38","restless",0.4,0.5,0.6,0.0359379711391814,"true"
"image-keyboard-response",237,272060,"0.0-3.75-1.75","068sm2olnt0wntt",703,"65.csv","","null","resources/maskTrios/BT2B.jpg","null","",NA,NA,NA,NA,""
"image-keyboard-response",238,273267,"0.0-3.75-2.75","068sm2olnt0wntt",703,"65.csv","","null","resources/images/coin2.png","null","",NA,NA,NA,NA,""
"image-keyboard-response",239,274750,"0.0-3.76-0.76","068sm2olnt0wntt",703,"65.csv","","1482.699999999255","resources/trios/L1T2A3.jpg","38","restless",0.4,0.5,0.6,0.317246708473954,"true"
"image-keyboard-response",240,275159,"0.0-3.76-1.76","068sm2olnt0wntt",703,"65.csv","","null","resources/maskTrios/BT2B.jpg","null","",NA,NA,NA,NA,""
"image-keyboard-response",241,276369,"0.0-3.76-2.76","068sm2olnt0wntt",703,"65.csv","","null","resources/images/coin2.png","null","",NA,NA,NA,NA,""
"image-keyboard-response",242,277973,"0.0-3.77-0.77","068sm2olnt0wntt",703,"65.csv","","1602.9000000003725","resources/trios/L4T1A3.jpg","38","restless",0.4,0.5,0.5,0.561646938789053,"false"
"image-keyboard-response",243,278381,"0.0-3.77-1.77","068sm2olnt0wntt",703,"65.csv","","null","resources/maskTrios/BT1B.jpg","null","",NA,NA,NA,NA,""
"image-keyboard-response",244,279587,"0.0-3.77-2.77","068sm2olnt0wntt",703,"65.csv","","null","resources/images/fishbone.png","null","",NA,NA,NA,NA,""
"image-keyboard-response",245,282722,"0.0-3.78-0.78","068sm2olnt0wntt",703,"65.csv","","3134.5","resources/trios/L1T2A2.jpg","37","restless",0.4,0.6,0.5,0.510853191405846,"false"
"image-keyboard-response",246,283130,"0.0-3.78-1.78","068sm2olnt0wntt",703,"65.csv","","null","resources/maskTrios/L1BB.jpg","null","",NA,NA,NA,NA,""
"image-keyboard-response",247,284341,"0.0-3.78-2.78","068sm2olnt0wntt",703,"65.csv","","null","resources/images/fishbone.png","null","",NA,NA,NA,NA,""
"image-keyboard-response",248,286834,"0.0-3.79-0.79","068sm2olnt0wntt",703,"65.csv","","2492.9000000003725","resources/trios/L4T2A3.jpg","38","restless",0.4,0.6,0.5,0.865694971669488,"false"
"image-keyboard-response",249,287246,"0.0-3.79-1.79","068sm2olnt0wntt",703,"65.csv","","null","resources/maskTrios/BT2B.jpg","null","",NA,NA,NA,NA,""
"image-keyboard-response",250,288455,"0.0-3.79-2.79","068sm2olnt0wntt",703,"65.csv","","null","resources/images/fishbone.png","null","",NA,NA,NA,NA,""
"image-keyboard-response",251,289910,"0.0-3.80-0.80","068sm2olnt0wntt",703,"65.csv","","1455","resources/trios/L1T1A2.jpg","38","restless",0.4,0.6,0.5,0.970040604339123,"false"
"image-keyboard-response",252,290322,"0.0-3.80-1.80","068sm2olnt0wntt",703,"65.csv","","null","resources/maskTrios/BT1B.jpg","null","",NA,NA,NA,NA,""
"image-keyboard-response",253,291530,"0.0-3.80-2.80","068sm2olnt0wntt",703,"65.csv","","null","resources/images/fishbone.png","null","",NA,NA,NA,NA,""
"image-keyboard-response",254,292853,"0.0-3.81-0.81","068sm2olnt0wntt",703,"65.csv","","1322.300000000745","resources/trios/L4T2A3.jpg","37","restless",0.4,0.6,0.5,0.267896317634652,"true"
"image-keyboard-response",255,293257,"0.0-3.81-1.81","068sm2olnt0wntt",703,"65.csv","","null","resources/maskTrios/L4BB.jpg","null","",NA,NA,NA,NA,""
"image-keyboard-response",256,294460,"0.0-3.81-2.81","068sm2olnt0wntt",703,"65.csv","","null","resources/images/coin2.png","null","",NA,NA,NA,NA,""
"image-keyboard-response",257,295600,"0.0-3.82-0.82","068sm2olnt0wntt",703,"65.csv","","1139.7999999988824","resources/trios/L4T2A3.jpg","37","restless",0.4,0.6,0.5,0.524752897394452,"false"
"image-keyboard-response",258,296013,"0.0-3.82-1.82","068sm2olnt0wntt",703,"65.csv","","null","resources/maskTrios/L4BB.jpg","null","",NA,NA,NA,NA,""
"image-keyboard-response",259,297218,"0.0-3.82-2.82","068sm2olnt0wntt",703,"65.csv","","null","resources/images/fishbone.png","null","",NA,NA,NA,NA,""
"image-keyboard-response",260,298059,"0.0-3.83-0.83","068sm2olnt0wntt",703,"65.csv","","840.2000000011176","resources/trios/L1T2A2.jpg","38","restless",0.4,0.6,0.5,0.83130794468551,"false"
"image-keyboard-response",261,298469,"0.0-3.83-1.83","068sm2olnt0wntt",703,"65.csv","","null","resources/maskTrios/BT2B.jpg","null","",NA,NA,NA,NA,""
"image-keyboard-response",262,299677,"0.0-3.83-2.83","068sm2olnt0wntt",703,"65.csv","","null","resources/images/fishbone.png","null","",NA,NA,NA,NA,""
"image-keyboard-response",263,301329,"0.0-3.84-0.84","068sm2olnt0wntt",703,"65.csv","","1651.2999999988824","resources/trios/L1T1A2.jpg","39","restless",0.4,0.7,0.5,0.35869703918913,"true"
"image-keyboard-response",264,301736,"0.0-3.84-1.84","068sm2olnt0wntt",703,"65.csv","","null","resources/maskTrios/BBA2.jpg","null","",NA,NA,NA,NA,""
"image-keyboard-response",265,302941,"0.0-3.84-2.84","068sm2olnt0wntt",703,"65.csv","","null","resources/images/coin2.png","null","",NA,NA,NA,NA,""
"image-keyboard-response",266,305929,"0.0-3.85-0.85","068sm2olnt0wntt",703,"65.csv","","2987.4000000003725","resources/trios/L4T1A3.jpg","39","restless",0.4,0.7,0.5,0.575415616529514,"false"
"image-keyboard-response",267,306342,"0.0-3.85-1.85","068sm2olnt0wntt",703,"65.csv","","null","resources/maskTrios/BBA3.jpg","null","",NA,NA,NA,NA,""
"image-keyboard-response",268,307545,"0.0-3.85-2.85","068sm2olnt0wntt",703,"65.csv","","null","resources/images/fishbone.png","null","",NA,NA,NA,NA,""
"image-keyboard-response",269,308373,"0.0-3.86-0.86","068sm2olnt0wntt",703,"65.csv","","826.9000000003725","resources/trios/L4T1A2.jpg","38","restless",0.4,0.7,0.5,0.985327670832851,"false"
"image-keyboard-response",270,308789,"0.0-3.86-1.86","068sm2olnt0wntt",703,"65.csv","","null","resources/maskTrios/BT1B.jpg","null","",NA,NA,NA,NA,""
"image-keyboard-response",271,309993,"0.0-3.86-2.86","068sm2olnt0wntt",703,"65.csv","","null","resources/images/fishbone.png","null","",NA,NA,NA,NA,""
"image-keyboard-response",272,311795,"0.0-3.87-0.87","068sm2olnt0wntt",703,"65.csv","","1800.699999999255","resources/trios/L1T2A2.jpg","38","restless",0.4,0.7,0.5,0.993222013168804,"false"
"image-keyboard-response",273,312200,"0.0-3.87-1.87","068sm2olnt0wntt",703,"65.csv","","null","resources/maskTrios/BT2B.jpg","null","",NA,NA,NA,NA,""
"image-keyboard-response",274,313415,"0.0-3.87-2.87","068sm2olnt0wntt",703,"65.csv","","null","resources/images/fishbone.png","null","",NA,NA,NA,NA,""
"image-keyboard-response",275,316022,"0.0-3.88-0.88","068sm2olnt0wntt",703,"65.csv","","2606.4000000003725","resources/trios/L1T1A3.jpg","37","restless",0.4,0.7,0.5,0.316296455100743,"true"
"image-keyboard-response",276,316431,"0.0-3.88-1.88","068sm2olnt0wntt",703,"65.csv","","null","resources/maskTrios/L1BB.jpg","null","",NA,NA,NA,NA,""
"image-keyboard-response",277,317641,"0.0-3.88-2.88","068sm2olnt0wntt",703,"65.csv","","null","resources/images/coin2.png","null","",NA,NA,NA,NA,""
"image-keyboard-response",278,318947,"0.0-3.89-0.89","068sm2olnt0wntt",703,"65.csv","","1304.2999999988824","resources/trios/L1T2A2.jpg","38","restless",0.4,0.8,0.5,0.472768427661926,"true"
"image-keyboard-response",279,319353,"0.0-3.89-1.89","068sm2olnt0wntt",703,"65.csv","","null","resources/maskTrios/BT2B.jpg","null","",NA,NA,NA,NA,""
"image-keyboard-response",280,320555,"0.0-3.89-2.89","068sm2olnt0wntt",703,"65.csv","","null","resources/images/coin2.png","null","",NA,NA,NA,NA,""
"image-keyboard-response",281,326742,"0.0-3.90-0.90","068sm2olnt0wntt",703,"65.csv","","6185.800000000745","resources/trios/L1T2A3.jpg","38","restless",0.4,0.8,0.5,0.574445116907721,"true"
"image-keyboard-response",282,327146,"0.0-3.90-1.90","068sm2olnt0wntt",703,"65.csv","","null","resources/maskTrios/BT2B.jpg","null","",NA,NA,NA,NA,""
"image-keyboard-response",283,328349,"0.0-3.90-2.90","068sm2olnt0wntt",703,"65.csv","","null","resources/images/coin2.png","null","",NA,NA,NA,NA,""
"image-keyboard-response",284,330304,"0.0-3.91-0.91","068sm2olnt0wntt",703,"65.csv","","1953.9000000003725","resources/trios/L4T1A2.jpg","38","restless",0.4,0.8,0.5,0.339858678450252,"true"
"image-keyboard-response",285,330715,"0.0-3.91-1.91","068sm2olnt0wntt",703,"65.csv","","null","resources/maskTrios/BT1B.jpg","null","",NA,NA,NA,NA,""
"image-keyboard-response",286,331920,"0.0-3.91-2.91","068sm2olnt0wntt",703,"65.csv","","null","resources/images/coin2.png","null","",NA,NA,NA,NA,""
"image-keyboard-response",287,333493,"0.0-3.92-0.92","068sm2olnt0wntt",703,"65.csv","","1572.199999999255","resources/trios/L4T1A3.jpg","38","restless",0.4,0.8,0.5,0.363800858645832,"true"
"image-keyboard-response",288,333896,"0.0-3.92-1.92","068sm2olnt0wntt",703,"65.csv","","null","resources/maskTrios/BT1B.jpg","null","",NA,NA,NA,NA,""
"image-keyboard-response",289,335099,"0.0-3.92-2.92","068sm2olnt0wntt",703,"65.csv","","null","resources/images/coin2.png","null","",NA,NA,NA,NA,""
"image-keyboard-response",290,340750,"0.0-3.93-0.93","068sm2olnt0wntt",703,"65.csv","","5648.4000000003725","resources/trios/L4T2A2.jpg","37","restless",0.4,0.7,0.5,0.0562015763885042,"true"
"image-keyboard-response",291,341154,"0.0-3.93-1.93","068sm2olnt0wntt",703,"65.csv","","null","resources/maskTrios/L4BB.jpg","null","",NA,NA,NA,NA,""
"image-keyboard-response",292,342367,"0.0-3.93-2.93","068sm2olnt0wntt",703,"65.csv","","null","resources/images/coin2.png","null","",NA,NA,NA,NA,""
"image-keyboard-response",293,343938,"0.0-3.94-0.94","068sm2olnt0wntt",703,"65.csv","","1569.300000000745","resources/trios/L4T2A2.jpg","37","restless",0.4,0.7,0.5,0.633550176298721,"false"
"image-keyboard-response",294,344345,"0.0-3.94-1.94","068sm2olnt0wntt",703,"65.csv","","null","resources/maskTrios/L4BB.jpg","null","",NA,NA,NA,NA,""
"image-keyboard-response",295,345556,"0.0-3.94-2.94","068sm2olnt0wntt",703,"65.csv","","null","resources/images/fishbone.png","null","",NA,NA,NA,NA,""
"image-keyboard-response",296,348758,"0.0-3.95-0.95","068sm2olnt0wntt",703,"65.csv","","3200.2000000011176","resources/trios/L1T2A3.jpg","37","restless",0.4,0.7,0.5,0.0906575610427189,"true"
"image-keyboard-response",297,349160,"0.0-3.95-1.95","068sm2olnt0wntt",703,"65.csv","","null","resources/maskTrios/L1BB.jpg","null","",NA,NA,NA,NA,""
"image-keyboard-response",298,350375,"0.0-3.95-2.95","068sm2olnt0wntt",703,"65.csv","","null","resources/images/coin2.png","null","",NA,NA,NA,NA,""
"image-keyboard-response",299,355112,"0.0-3.96-0.96","068sm2olnt0wntt",703,"65.csv","","4736.5999999996275","resources/trios/L1T1A2.jpg","38","restless",0.4,0.7,0.5,0.647927149794309,"true"
"image-keyboard-response",300,355516,"0.0-3.96-1.96","068sm2olnt0wntt",703,"65.csv","","null","resources/maskTrios/BT1B.jpg","null","",NA,NA,NA,NA,""
"image-keyboard-response",301,356730,"0.0-3.96-2.96","068sm2olnt0wntt",703,"65.csv","","null","resources/images/coin2.png","null","",NA,NA,NA,NA,""
"image-keyboard-response",302,357947,"0.0-3.97-0.97","068sm2olnt0wntt",703,"65.csv","","1216.0999999996275","resources/trios/L1T1A2.jpg","38","restless",0.5,0.7,0.5,0.929131171545397,"false"
"image-keyboard-response",303,358355,"0.0-3.97-1.97","068sm2olnt0wntt",703,"65.csv","","null","resources/maskTrios/BT1B.jpg","null","",NA,NA,NA,NA,""
"image-keyboard-response",304,359565,"0.0-3.97-2.97","068sm2olnt0wntt",703,"65.csv","","null","resources/images/fishbone.png","null","",NA,NA,NA,NA,""
"image-keyboard-response",305,361664,"0.0-3.98-0.98","068sm2olnt0wntt",703,"65.csv","","2098.300000000745","resources/trios/L4T2A2.jpg","38","restless",0.6,0.7,0.5,0.933304866234518,"false"
"image-keyboard-response",306,362070,"0.0-3.98-1.98","068sm2olnt0wntt",703,"65.csv","","null","resources/maskTrios/BT2B.jpg","null","",NA,NA,NA,NA,""
"image-keyboard-response",307,363285,"0.0-3.98-2.98","068sm2olnt0wntt",703,"65.csv","","null","resources/images/fishbone.png","null","",NA,NA,NA,NA,""
"image-keyboard-response",308,365863,"0.0-3.99-0.99","068sm2olnt0wntt",703,"65.csv","","2577.300000000745","resources/trios/L1T1A2.jpg","38","restless",0.6,0.7,0.5,0.306055040147148,"true"
"image-keyboard-response",309,366278,"0.0-3.99-1.99","068sm2olnt0wntt",703,"65.csv","","null","resources/maskTrios/BT1B.jpg","null","",NA,NA,NA,NA,""
"image-keyboard-response",310,367494,"0.0-3.99-2.99","068sm2olnt0wntt",703,"65.csv","","null","resources/images/coin2.png","null","",NA,NA,NA,NA,""
"image-keyboard-response",311,369308,"0.0-3.100-0.100","068sm2olnt0wntt",703,"65.csv","","1812.4000000003725","resources/trios/L4T1A3.jpg","39","restless",0.6,0.8,0.5,0.287817090784523,"true"
"image-keyboard-response",312,369716,"0.0-3.100-1.100","068sm2olnt0wntt",703,"65.csv","","null","resources/maskTrios/BBA3.jpg","null","",NA,NA,NA,NA,""
"image-keyboard-response",313,370931,"0.0-3.100-2.100","068sm2olnt0wntt",703,"65.csv","","null","resources/images/coin2.png","null","",NA,NA,NA,NA,""
"image-keyboard-response",314,373861,"0.0-3.101-0.101","068sm2olnt0wntt",703,"65.csv","","2928.5999999996275","resources/trios/L4T2A2.jpg","38","restless",0.6,0.8,0.5,0.911115768013189,"false"
"image-keyboard-response",315,374277,"0.0-3.101-1.101","068sm2olnt0wntt",703,"65.csv","","null","resources/maskTrios/BT2B.jpg","null","",NA,NA,NA,NA,""
"image-keyboard-response",316,375495,"0.0-3.101-2.101","068sm2olnt0wntt",703,"65.csv","","null","resources/images/fishbone.png","null","",NA,NA,NA,NA,""
"image-keyboard-response",317,376935,"0.0-3.102-0.102","068sm2olnt0wntt",703,"65.csv","","1439.2000000011176","resources/trios/L4T1A2.jpg","39","restless",0.6,0.9,0.5,0.883726109747722,"false"
"image-keyboard-response",318,377348,"0.0-3.102-1.102","068sm2olnt0wntt",703,"65.csv","","null","resources/maskTrios/BBA2.jpg","null","",NA,NA,NA,NA,""
"image-keyboard-response",319,378558,"0.0-3.102-2.102","068sm2olnt0wntt",703,"65.csv","","null","resources/images/fishbone.png","null","",NA,NA,NA,NA,""
"image-keyboard-response",320,378686,"0.0-3.103-0.103","068sm2olnt0wntt",703,"65.csv","","127.5","resources/trios/L1T1A2.jpg","38","restless",0.6,0.9,0.5,0.42026519295524,"true"
"image-keyboard-response",321,379103,"0.0-3.103-1.103","068sm2olnt0wntt",703,"65.csv","","null","resources/maskTrios/BT1B.jpg","null","",NA,NA,NA,NA,""
"image-keyboard-response",322,380318,"0.0-3.103-2.103","068sm2olnt0wntt",703,"65.csv","","null","resources/images/coin2.png","null","",NA,NA,NA,NA,""
"image-keyboard-response",323,381887,"0.0-3.104-0.104","068sm2olnt0wntt",703,"65.csv","","1567.9000000003725","resources/trios/L4T1A3.jpg","39","restless",0.6,0.9,0.5,0.357976190022452,"true"
"image-keyboard-response",324,382296,"0.0-3.104-1.104","068sm2olnt0wntt",703,"65.csv","","null","resources/maskTrios/BBA3.jpg","null","",NA,NA,NA,NA,""
"image-keyboard-response",325,383509,"0.0-3.104-2.104","068sm2olnt0wntt",703,"65.csv","","null","resources/images/coin2.png","null","",NA,NA,NA,NA,""
"image-keyboard-response",326,386604,"0.0-3.105-0.105","068sm2olnt0wntt",703,"65.csv","","3093.5999999996275","resources/trios/L4T2A3.jpg","37","restless",0.6,0.9,0.5,0.616505537584402,"false"
"image-keyboard-response",327,387013,"0.0-3.105-1.105","068sm2olnt0wntt",703,"65.csv","","null","resources/maskTrios/L4BB.jpg","null","",NA,NA,NA,NA,""
"image-keyboard-response",328,388215,"0.0-3.105-2.105","068sm2olnt0wntt",703,"65.csv","","null","resources/images/fishbone.png","null","",NA,NA,NA,NA,""
"image-keyboard-response",329,390349,"0.0-3.106-0.106","068sm2olnt0wntt",703,"65.csv","","2132.5999999996275","resources/trios/L1T1A3.jpg","39","restless",0.6,0.9,0.5,0.242903223801849,"true"
"image-keyboard-response",330,390757,"0.0-3.106-1.106","068sm2olnt0wntt",703,"65.csv","","null","resources/maskTrios/BBA3.jpg","null","",NA,NA,NA,NA,""
"image-keyboard-response",331,391972,"0.0-3.106-2.106","068sm2olnt0wntt",703,"65.csv","","null","resources/images/coin2.png","null","",NA,NA,NA,NA,""
"image-keyboard-response",332,393435,"0.0-3.107-0.107","068sm2olnt0wntt",703,"65.csv","","1461.1000000014901","resources/trios/L1T2A3.jpg","37","restless",0.6,0.9,0.5,0.33273142521415,"true"
"image-keyboard-response",333,393837,"0.0-3.107-1.107","068sm2olnt0wntt",703,"65.csv","","null","resources/maskTrios/L1BB.jpg","null","",NA,NA,NA,NA,""
"image-keyboard-response",334,395054,"0.0-3.107-2.107","068sm2olnt0wntt",703,"65.csv","","null","resources/images/coin2.png","null","",NA,NA,NA,NA,""
"image-keyboard-response",335,397978,"0.0-3.108-0.108","068sm2olnt0wntt",703,"65.csv","","2923.199999999255","resources/trios/L1T2A2.jpg","38","restless",0.6,0.9,0.5,0.742924435365033,"true"
"image-keyboard-response",336,398392,"0.0-3.108-1.108","068sm2olnt0wntt",703,"65.csv","","null","resources/maskTrios/BT2B.jpg","null","",NA,NA,NA,NA,""
"image-keyboard-response",337,399606,"0.0-3.108-2.108","068sm2olnt0wntt",703,"65.csv","","null","resources/images/coin2.png","null","",NA,NA,NA,NA,""
"image-keyboard-response",338,400697,"0.0-3.109-0.109","068sm2olnt0wntt",703,"65.csv","","1088.8999999985099","resources/trios/L1T1A3.jpg","39","restless",0.6,0.9,0.5,0.52134913131969,"false"
"image-keyboard-response",339,401112,"0.0-3.109-1.109","068sm2olnt0wntt",703,"65.csv","","null","resources/maskTrios/BBA3.jpg","null","",NA,NA,NA,NA,""
"image-keyboard-response",340,402314,"0.0-3.109-2.109","068sm2olnt0wntt",703,"65.csv","","null","resources/images/fishbone.png","null","",NA,NA,NA,NA,""
"image-keyboard-response",341,403299,"0.0-3.110-0.110","068sm2olnt0wntt",703,"65.csv","","983.9000000003725","resources/trios/L4T1A2.jpg","38","restless",0.6,0.9,0.5,0.244828854670683,"true"
"image-keyboard-response",342,403716,"0.0-3.110-1.110","068sm2olnt0wntt",703,"65.csv","","null","resources/maskTrios/BT1B.jpg","null","",NA,NA,NA,NA,""
"image-keyboard-response",343,404918,"0.0-3.110-2.110","068sm2olnt0wntt",703,"65.csv","","null","resources/images/coin2.png","null","",NA,NA,NA,NA,""
"image-keyboard-response",344,405797,"0.0-3.111-0.111","068sm2olnt0wntt",703,"65.csv","","878.4000000003725","resources/trios/L1T1A2.jpg","37","restless",0.6,0.9,0.5,0.226563155427583,"true"
"image-keyboard-response",345,406210,"0.0-3.111-1.111","068sm2olnt0wntt",703,"65.csv","","null","resources/maskTrios/L1BB.jpg","null","",NA,NA,NA,NA,""
"image-keyboard-response",346,407426,"0.0-3.111-2.111","068sm2olnt0wntt",703,"65.csv","","null","resources/images/coin2.png","null","",NA,NA,NA,NA,""
"image-keyboard-response",347,408762,"0.0-3.112-0.112","068sm2olnt0wntt",703,"65.csv","","1334.5999999996275","resources/trios/L1T2A2.jpg","38","restless",0.6,0.9,0.5,0.152949591010945,"true"
"image-keyboard-response",348,409169,"0.0-3.112-1.112","068sm2olnt0wntt",703,"65.csv","","null","resources/maskTrios/BT2B.jpg","null","",NA,NA,NA,NA,""
"image-keyboard-response",349,410382,"0.0-3.112-2.112","068sm2olnt0wntt",703,"65.csv","","null","resources/images/coin2.png","null","",NA,NA,NA,NA,""
"image-keyboard-response",350,412946,"0.0-3.113-0.113","068sm2olnt0wntt",703,"65.csv","","2562.89999999851","resources/trios/L1T2A3.jpg","38","restless",0.6,0.9,0.5,0.12405993826199,"true"
"image-keyboard-response",351,413356,"0.0-3.113-1.113","068sm2olnt0wntt",703,"65.csv","","null","resources/maskTrios/BT2B.jpg","null","",NA,NA,NA,NA,""
"image-keyboard-response",352,414567,"0.0-3.113-2.113","068sm2olnt0wntt",703,"65.csv","","null","resources/images/coin2.png","null","",NA,NA,NA,NA,""
"image-keyboard-response",353,415941,"0.0-3.114-0.114","068sm2olnt0wntt",703,"65.csv","","1373","resources/trios/L1T2A3.jpg","38","restless",0.6,0.9,0.5,0.490412890357299,"true"
"image-keyboard-response",354,416344,"0.0-3.114-1.114","068sm2olnt0wntt",703,"65.csv","","null","resources/maskTrios/BT2B.jpg","null","",NA,NA,NA,NA,""
"image-keyboard-response",355,417556,"0.0-3.114-2.114","068sm2olnt0wntt",703,"65.csv","","null","resources/images/coin2.png","null","",NA,NA,NA,NA,""
"image-keyboard-response",356,419342,"0.0-3.115-0.115","068sm2olnt0wntt",703,"65.csv","","1785.2999999988824","resources/trios/L1T1A2.jpg","37","restless",0.6,0.9,0.5,0.874309630155349,"false"
"image-keyboard-response",357,419756,"0.0-3.115-1.115","068sm2olnt0wntt",703,"65.csv","","null","resources/maskTrios/L1BB.jpg","null","",NA,NA,NA,NA,""
"image-keyboard-response",358,420972,"0.0-3.115-2.115","068sm2olnt0wntt",703,"65.csv","","null","resources/images/fishbone.png","null","",NA,NA,NA,NA,""
"image-keyboard-response",359,423200,"0.0-3.116-0.116","068sm2olnt0wntt",703,"65.csv","","2226.2999999988824","resources/trios/L4T2A2.jpg","38","restless",0.6,0.9,0.5,0.964469209567172,"false"
"image-keyboard-response",360,423613,"0.0-3.116-1.116","068sm2olnt0wntt",703,"65.csv","","null","resources/maskTrios/BT2B.jpg","null","",NA,NA,NA,NA,""
"image-keyboard-response",361,424820,"0.0-3.116-2.116","068sm2olnt0wntt",703,"65.csv","","null","resources/images/fishbone.png","null","",NA,NA,NA,NA,""
"image-keyboard-response",362,426258,"0.0-3.117-0.117","068sm2olnt0wntt",703,"65.csv","","1436.6000000014901","resources/trios/L1T1A3.jpg","39","restless",0.6,0.9,0.5,0.72195971287622,"false"
"image-keyboard-response",363,426666,"0.0-3.117-1.117","068sm2olnt0wntt",703,"65.csv","","null","resources/maskTrios/BBA3.jpg","null","",NA,NA,NA,NA,""
"image-keyboard-response",364,427880,"0.0-3.117-2.117","068sm2olnt0wntt",703,"65.csv","","null","resources/images/fishbone.png","null","",NA,NA,NA,NA,""
"image-keyboard-response",365,427906,"0.0-3.118-0.118","068sm2olnt0wntt",703,"65.csv","","23.90000000037253","resources/trios/L4T1A3.jpg","39","restless",0.6,0.9,0.5,0.133604563091259,"true"
"image-keyboard-response",366,428316,"0.0-3.118-1.118","068sm2olnt0wntt",703,"65.csv","","null","resources/maskTrios/BBA3.jpg","null","",NA,NA,NA,NA,""
"image-keyboard-response",367,429530,"0.0-3.118-2.118","068sm2olnt0wntt",703,"65.csv","","null","resources/images/coin2.png","null","",NA,NA,NA,NA,""
"image-keyboard-response",368,430780,"0.0-3.119-0.119","068sm2olnt0wntt",703,"65.csv","","1248.5","resources/trios/L4T1A2.jpg","37","restless",0.6,0.8,0.5,0.591613811986804,"true"
"image-keyboard-response",369,431185,"0.0-3.119-1.119","068sm2olnt0wntt",703,"65.csv","","null","resources/maskTrios/L4BB.jpg","null","",NA,NA,NA,NA,""
"image-keyboard-response",370,432400,"0.0-3.119-2.119","068sm2olnt0wntt",703,"65.csv","","null","resources/images/coin2.png","null","",NA,NA,NA,NA,""
"image-keyboard-response",371,434582,"0.0-3.120-0.120","068sm2olnt0wntt",703,"65.csv","","2180.10000000149","resources/trios/L1T2A3.jpg","39","restless",0.6,0.8,0.5,0.713013189022514,"false"
"image-keyboard-response",372,434984,"0.0-3.120-1.120","068sm2olnt0wntt",703,"65.csv","","null","resources/maskTrios/BBA3.jpg","null","",NA,NA,NA,NA,""
"image-keyboard-response",373,436198,"0.0-3.120-2.120","068sm2olnt0wntt",703,"65.csv","","null","resources/images/fishbone.png","null","",NA,NA,NA,NA,""
"image-keyboard-response",374,438260,"0.0-3.121-0.121","068sm2olnt0wntt",703,"65.csv","","2060.5","resources/trios/L1T2A3.jpg","38","restless",0.6,0.8,0.5,0.458838804735074,"true"
"image-keyboard-response",375,438676,"0.0-3.121-1.121","068sm2olnt0wntt",703,"65.csv","","null","resources/maskTrios/BT2B.jpg","null","",NA,NA,NA,NA,""
"image-keyboard-response",376,439892,"0.0-3.121-2.121","068sm2olnt0wntt",703,"65.csv","","null","resources/images/coin2.png","null","",NA,NA,NA,NA,""
"image-keyboard-response",377,441559,"0.0-3.122-0.122","068sm2olnt0wntt",703,"65.csv","","1665.2000000011176","resources/trios/L1T2A3.jpg","38","restless",0.6,0.8,0.5,0.489262353402055,"true"
"image-keyboard-response",378,441968,"0.0-3.122-1.122","068sm2olnt0wntt",703,"65.csv","","null","resources/maskTrios/BT2B.jpg","null","",NA,NA,NA,NA,""
"image-keyboard-response",379,443172,"0.0-3.122-2.122","068sm2olnt0wntt",703,"65.csv","","null","resources/images/coin2.png","null","",NA,NA,NA,NA,""
"image-keyboard-response",380,443927,"0.0-3.123-0.123","068sm2olnt0wntt",703,"65.csv","","753.1999999992549","resources/trios/L4T1A3.jpg","39","restless",0.7,0.8,0.5,0.472228739029256,"true"
"image-keyboard-response",381,444339,"0.0-3.123-1.123","068sm2olnt0wntt",703,"65.csv","","null","resources/maskTrios/BBA3.jpg","null","",NA,NA,NA,NA,""
"image-keyboard-response",382,445552,"0.0-3.123-2.123","068sm2olnt0wntt",703,"65.csv","","null","resources/images/coin2.png","null","",NA,NA,NA,NA,""
"image-keyboard-response",383,446219,"0.0-3.124-0.124","068sm2olnt0wntt",703,"65.csv","","665.3000000007451","resources/trios/L4T1A2.jpg","38","restless",0.6,0.8,0.5,0.599489693635978,"true"
"image-keyboard-response",384,446628,"0.0-3.124-1.124","068sm2olnt0wntt",703,"65.csv","","null","resources/maskTrios/BT1B.jpg","null","",NA,NA,NA,NA,""
"image-keyboard-response",385,447838,"0.0-3.124-2.124","068sm2olnt0wntt",703,"65.csv","","null","resources/images/coin2.png","null","",NA,NA,NA,NA,""
"image-keyboard-response",386,450231,"0.0-3.125-0.125","068sm2olnt0wntt",703,"65.csv","","2391.699999999255","resources/trios/L1T1A3.jpg","39","restless",0.6,0.8,0.5,0.794911745516348,"false"
"image-keyboard-response",387,450644,"0.0-3.125-1.125","068sm2olnt0wntt",703,"65.csv","","null","resources/maskTrios/BBA3.jpg","null","",NA,NA,NA,NA,""
"image-keyboard-response",388,451858,"0.0-3.125-2.125","068sm2olnt0wntt",703,"65.csv","","null","resources/images/fishbone.png","null","",NA,NA,NA,NA,""
"image-keyboard-response",389,452666,"0.0-3.126-0.126","068sm2olnt0wntt",703,"65.csv","","806","resources/trios/L4T1A3.jpg","39","restless",0.6,0.8,0.4,0.57800431390028,"false"
"image-keyboard-response",390,453074,"0.0-3.126-1.126","068sm2olnt0wntt",703,"65.csv","","null","resources/maskTrios/BBA3.jpg","null","",NA,NA,NA,NA,""
"image-keyboard-response",391,454283,"0.0-3.126-2.126","068sm2olnt0wntt",703,"65.csv","","null","resources/images/fishbone.png","null","",NA,NA,NA,NA,""
"image-keyboard-response",392,455156,"0.0-3.127-0.127","068sm2olnt0wntt",703,"65.csv","","871.6999999992549","resources/trios/L1T2A3.jpg","37","restless",0.7,0.8,0.4,0.471433636279234,"true"
"image-keyboard-response",393,455571,"0.0-3.127-1.127","068sm2olnt0wntt",703,"65.csv","","null","resources/maskTrios/L1BB.jpg","null","",NA,NA,NA,NA,""
"image-keyboard-response",394,456787,"0.0-3.127-2.127","068sm2olnt0wntt",703,"65.csv","","null","resources/images/coin2.png","null","",NA,NA,NA,NA,""
"image-keyboard-response",395,458086,"0.0-3.128-0.128","068sm2olnt0wntt",703,"65.csv","","1297.3999999985099","resources/trios/L4T2A2.jpg","38","restless",0.7,0.8,0.4,0.540003810584917,"true"
"image-keyboard-response",396,458498,"0.0-3.128-1.128","068sm2olnt0wntt",703,"65.csv","","null","resources/maskTrios/BT2B.jpg","null","",NA,NA,NA,NA,""
"image-keyboard-response",397,459715,"0.0-3.128-2.128","068sm2olnt0wntt",703,"65.csv","","null","resources/images/coin2.png","null","",NA,NA,NA,NA,""
"image-keyboard-response",398,461139,"0.0-3.129-0.129","068sm2olnt0wntt",703,"65.csv","","1423.699999999255","resources/trios/L1T1A2.jpg","39","restless",0.7,0.8,0.4,0.624693565360356,"false"
"image-keyboard-response",399,461556,"0.0-3.129-1.129","068sm2olnt0wntt",703,"65.csv","","null","resources/maskTrios/BBA2.jpg","null","",NA,NA,NA,NA,""
"image-keyboard-response",400,462769,"0.0-3.129-2.129","068sm2olnt0wntt",703,"65.csv","","null","resources/images/fishbone.png","null","",NA,NA,NA,NA,""
"image-keyboard-response",401,464428,"0.0-3.130-0.130","068sm2olnt0wntt",703,"65.csv","","1658.5","resources/trios/L1T2A3.jpg","37","restless",0.7,0.8,0.4,0.225631673620473,"true"
"image-keyboard-response",402,464833,"0.0-3.130-1.130","068sm2olnt0wntt",703,"65.csv","","null","resources/maskTrios/L1BB.jpg","null","",NA,NA,NA,NA,""
"image-keyboard-response",403,466042,"0.0-3.130-2.130","068sm2olnt0wntt",703,"65.csv","","null","resources/images/coin2.png","null","",NA,NA,NA,NA,""
"image-keyboard-response",404,467669,"0.0-3.131-0.131","068sm2olnt0wntt",703,"65.csv","","1625.800000000745","resources/trios/L1T2A2.jpg","38","restless",0.7,0.7,0.4,0.0718355232836927,"true"
"image-keyboard-response",405,468080,"0.0-3.131-1.131","068sm2olnt0wntt",703,"65.csv","","null","resources/maskTrios/BT2B.jpg","null","",NA,NA,NA,NA,""
"image-keyboard-response",406,469295,"0.0-3.131-2.131","068sm2olnt0wntt",703,"65.csv","","null","resources/images/coin2.png","null","",NA,NA,NA,NA,""
"image-keyboard-response",407,470512,"0.0-3.132-0.132","068sm2olnt0wntt",703,"65.csv","","1216.199999999255","resources/trios/L4T1A2.jpg","37","restless",0.7,0.8,0.4,0.374293408982457,"true"
"image-keyboard-response",408,470918,"0.0-3.132-1.132","068sm2olnt0wntt",703,"65.csv","","null","resources/maskTrios/L4BB.jpg","null","",NA,NA,NA,NA,""
"image-keyboard-response",409,472130,"0.0-3.132-2.132","068sm2olnt0wntt",703,"65.csv","","null","resources/images/coin2.png","null","",NA,NA,NA,NA,""
"image-keyboard-response",410,473290,"0.0-3.133-0.133","068sm2olnt0wntt",703,"65.csv","","1159","resources/trios/L1T2A2.jpg","38","restless",0.7,0.8,0.4,0.797350246911247,"true"
"image-keyboard-response",411,473708,"0.0-3.133-1.133","068sm2olnt0wntt",703,"65.csv","","null","resources/maskTrios/BT2B.jpg","null","",NA,NA,NA,NA,""
"image-keyboard-response",412,474923,"0.0-3.133-2.133","068sm2olnt0wntt",703,"65.csv","","null","resources/images/coin2.png","null","",NA,NA,NA,NA,""
"image-keyboard-response",413,475694,"0.0-3.134-0.134","068sm2olnt0wntt",703,"65.csv","","769.7999999988824","resources/trios/L1T2A3.jpg","37","restless",0.6,0.8,0.4,0.761454116489803,"false"
"image-keyboard-response",414,476107,"0.0-3.134-1.134","068sm2olnt0wntt",703,"65.csv","","null","resources/maskTrios/L1BB.jpg","null","",NA,NA,NA,NA,""
"image-keyboard-response",415,477324,"0.0-3.134-2.134","068sm2olnt0wntt",703,"65.csv","","null","resources/images/fishbone.png","null","",NA,NA,NA,NA,""
"image-keyboard-response",416,478829,"0.0-3.135-0.135","068sm2olnt0wntt",703,"65.csv","","1504","resources/trios/L1T2A3.jpg","39","restless",0.7,0.8,0.4,0.601569934705956,"false"
"image-keyboard-response",417,479241,"0.0-3.135-1.135","068sm2olnt0wntt",703,"65.csv","","null","resources/maskTrios/BBA3.jpg","null","",NA,NA,NA,NA,""
"image-keyboard-response",418,480452,"0.0-3.135-2.135","068sm2olnt0wntt",703,"65.csv","","null","resources/images/fishbone.png","null","",NA,NA,NA,NA,""
"image-keyboard-response",419,481568,"0.0-3.136-0.136","068sm2olnt0wntt",703,"65.csv","","1114.800000000745","resources/trios/L4T1A3.jpg","38","restless",0.6,0.8,0.4,0.810297317720407,"false"
"image-keyboard-response",420,481979,"0.0-3.136-1.136","068sm2olnt0wntt",703,"65.csv","","null","resources/maskTrios/BT1B.jpg","null","",NA,NA,NA,NA,""
"image-keyboard-response",421,483182,"0.0-3.136-2.136","068sm2olnt0wntt",703,"65.csv","","null","resources/images/fishbone.png","null","",NA,NA,NA,NA,""
"image-keyboard-response",422,484932,"0.0-3.137-0.137","068sm2olnt0wntt",703,"65.csv","","1748.5","resources/trios/L4T2A3.jpg","37","restless",0.6,0.8,0.5,0.405280971101167,"true"
"image-keyboard-response",423,485339,"0.0-3.137-1.137","068sm2olnt0wntt",703,"65.csv","","null","resources/maskTrios/L4BB.jpg","null","",NA,NA,NA,NA,""
"image-keyboard-response",424,486555,"0.0-3.137-2.137","068sm2olnt0wntt",703,"65.csv","","null","resources/images/coin2.png","null","",NA,NA,NA,NA,""
"image-keyboard-response",425,487601,"0.0-3.138-0.138","068sm2olnt0wntt",703,"65.csv","","1045","resources/trios/L4T2A3.jpg","37","restless",0.6,0.8,0.5,0.392032327870306,"true"
"image-keyboard-response",426,488015,"0.0-3.138-1.138","068sm2olnt0wntt",703,"65.csv","","null","resources/maskTrios/L4BB.jpg","null","",NA,NA,NA,NA,""
"image-keyboard-response",427,489231,"0.0-3.138-2.138","068sm2olnt0wntt",703,"65.csv","","null","resources/images/coin2.png","null","",NA,NA,NA,NA,""
"image-keyboard-response",428,490471,"0.0-3.139-0.139","068sm2olnt0wntt",703,"65.csv","","1238.5","resources/trios/L4T1A2.jpg","38","restless",0.6,0.8,0.5,0.461538900979396,"true"
"image-keyboard-response",429,490879,"0.0-3.139-1.139","068sm2olnt0wntt",703,"65.csv","","null","resources/maskTrios/BT1B.jpg","null","",NA,NA,NA,NA,""
"image-keyboard-response",430,492095,"0.0-3.139-2.139","068sm2olnt0wntt",703,"65.csv","","null","resources/images/coin2.png","null","",NA,NA,NA,NA,""
"image-keyboard-response",431,493703,"0.0-3.140-0.140","068sm2olnt0wntt",703,"65.csv","","1606.800000000745","resources/trios/L1T1A3.jpg","39","restless",0.6,0.8,0.5,0.892619461566535,"false"
"image-keyboard-response",432,494107,"0.0-3.140-1.140","068sm2olnt0wntt",703,"65.csv","","null","resources/maskTrios/BBA3.jpg","null","",NA,NA,NA,NA,""
"image-keyboard-response",433,495310,"0.0-3.140-2.140","068sm2olnt0wntt",703,"65.csv","","null","resources/images/fishbone.png","null","",NA,NA,NA,NA,""
"image-keyboard-response",434,495989,"0.0-3.141-0.141","068sm2olnt0wntt",703,"65.csv","","677.5","resources/trios/L4T1A2.jpg","38","restless",0.6,0.8,0.5,0.825670337915708,"false"
"image-keyboard-response",435,496397,"0.0-3.141-1.141","068sm2olnt0wntt",703,"65.csv","","null","resources/maskTrios/BT1B.jpg","null","",NA,NA,NA,NA,""
"image-keyboard-response",436,497609,"0.0-3.141-2.141","068sm2olnt0wntt",703,"65.csv","","null","resources/images/fishbone.png","null","",NA,NA,NA,NA,""
"image-keyboard-response",437,499490,"0.0-3.142-0.142","068sm2olnt0wntt",703,"65.csv","","1879.7000000011176","resources/trios/L1T2A3.jpg","37","restless",0.6,0.7,0.5,0.277851297219583,"true"
"image-keyboard-response",438,499894,"0.0-3.142-1.142","068sm2olnt0wntt",703,"65.csv","","null","resources/maskTrios/L1BB.jpg","null","",NA,NA,NA,NA,""
"image-keyboard-response",439,501107,"0.0-3.142-2.142","068sm2olnt0wntt",703,"65.csv","","null","resources/images/coin2.png","null","",NA,NA,NA,NA,""
"image-keyboard-response",440,502050,"0.0-3.143-0.143","068sm2olnt0wntt",703,"65.csv","","941.2999999988824","resources/trios/L1T1A2.jpg","37","restless",0.6,0.7,0.5,0.353712259457583,"true"
"image-keyboard-response",441,502461,"0.0-3.143-1.143","068sm2olnt0wntt",703,"65.csv","","null","resources/maskTrios/L1BB.jpg","null","",NA,NA,NA,NA,""
"image-keyboard-response",442,503674,"0.0-3.143-2.143","068sm2olnt0wntt",703,"65.csv","","null","resources/images/coin2.png","null","",NA,NA,NA,NA,""
"image-keyboard-response",443,504975,"0.0-3.144-0.144","068sm2olnt0wntt",703,"65.csv","","1299.800000000745","resources/trios/L1T1A3.jpg","38","restless",0.6,0.7,0.5,0.570598673120927,"true"
"image-keyboard-response",444,505386,"0.0-3.144-1.144","068sm2olnt0wntt",703,"65.csv","","null","resources/maskTrios/BT1B.jpg","null","",NA,NA,NA,NA,""
"image-keyboard-response",445,506598,"0.0-3.144-2.144","068sm2olnt0wntt",703,"65.csv","","null","resources/images/coin2.png","null","",NA,NA,NA,NA,""
"image-keyboard-response",446,507623,"0.0-3.145-0.145","068sm2olnt0wntt",703,"65.csv","","1023.5999999996275","resources/trios/L1T1A3.jpg","38","restless",0.6,0.7,0.5,0.687683871139049,"true"
"image-keyboard-response",447,508036,"0.0-3.145-1.145","068sm2olnt0wntt",703,"65.csv","","null","resources/maskTrios/BT1B.jpg","null","",NA,NA,NA,NA,""
"image-keyboard-response",448,509251,"0.0-3.145-2.145","068sm2olnt0wntt",703,"65.csv","","null","resources/images/coin2.png","null","",NA,NA,NA,NA,""
"image-keyboard-response",449,511029,"0.0-3.146-0.146","068sm2olnt0wntt",703,"65.csv","","1776.7000000011176","resources/trios/L1T1A3.jpg","38","restless",0.6,0.7,0.5,0.746693283812506,"false"
"image-keyboard-response",450,511435,"0.0-3.146-1.146","068sm2olnt0wntt",703,"65.csv","","null","resources/maskTrios/BT1B.jpg","null","",NA,NA,NA,NA,""
"image-keyboard-response",451,512649,"0.0-3.146-2.146","068sm2olnt0wntt",703,"65.csv","","null","resources/images/fishbone.png","null","",NA,NA,NA,NA,""
"image-keyboard-response",452,515670,"0.0-3.147-0.147","068sm2olnt0wntt",703,"65.csv","","3019.699999999255","resources/trios/L4T2A2.jpg","38","restless",0.5,0.7,0.5,0.890315648231252,"false"
"image-keyboard-response",453,516086,"0.0-3.147-1.147","068sm2olnt0wntt",703,"65.csv","","null","resources/maskTrios/BT2B.jpg","null","",NA,NA,NA,NA,""
"image-keyboard-response",454,517302,"0.0-3.147-2.147","068sm2olnt0wntt",703,"65.csv","","null","resources/images/fishbone.png","null","",NA,NA,NA,NA,""
"image-keyboard-response",455,517978,"0.0-3.148-0.148","068sm2olnt0wntt",703,"65.csv","","673.8999999985099","resources/trios/L4T1A2.jpg","37","restless",0.4,0.7,0.5,0.832340164657748,"false"
"image-keyboard-response",456,518389,"0.0-3.148-1.148","068sm2olnt0wntt",703,"65.csv","","null","resources/maskTrios/L4BB.jpg","null","",NA,NA,NA,NA,""
"image-keyboard-response",457,519600,"0.0-3.148-2.148","068sm2olnt0wntt",703,"65.csv","","null","resources/images/fishbone.png","null","",NA,NA,NA,NA,""
"image-keyboard-response",458,520937,"0.0-3.149-0.149","068sm2olnt0wntt",703,"65.csv","","1336.0999999996275","resources/trios/L4T2A3.jpg","37","restless",0.4,0.7,0.5,0.678865301080041,"false"
"image-keyboard-response",459,521341,"0.0-3.149-1.149","068sm2olnt0wntt",703,"65.csv","","null","resources/maskTrios/L4BB.jpg","null","",NA,NA,NA,NA,""
"image-keyboard-response",460,522554,"0.0-3.149-2.149","068sm2olnt0wntt",703,"65.csv","","null","resources/images/fishbone.png","null","",NA,NA,NA,NA,""
"image-keyboard-response",461,523198,"0.0-3.150-0.150","068sm2olnt0wntt",703,"65.csv","","643.2000000011176","resources/trios/L1T2A2.jpg","38","restless",0.4,0.6,0.5,0.616333728005759,"false"
"image-keyboard-response",462,523611,"0.0-3.150-1.150","068sm2olnt0wntt",703,"65.csv","","null","resources/maskTrios/BT2B.jpg","null","",NA,NA,NA,NA,""
"image-keyboard-response",463,524826,"0.0-3.150-2.150","068sm2olnt0wntt",703,"65.csv","","null","resources/images/fishbone.png","null","",NA,NA,NA,NA,""
"image-keyboard-response",464,526427,"0.0-3.151-0.151","068sm2olnt0wntt",703,"65.csv","","1600.0999999996275","resources/trios/L1T2A2.jpg","38","restless",0.4,0.6,0.5,0.758162310290011,"false"
"image-keyboard-response",465,526834,"0.0-3.151-1.151","068sm2olnt0wntt",703,"65.csv","","null","resources/maskTrios/BT2B.jpg","null","",NA,NA,NA,NA,""
"image-keyboard-response",466,528049,"0.0-3.151-2.151","068sm2olnt0wntt",703,"65.csv","","null","resources/images/fishbone.png","null","",NA,NA,NA,NA,""
"image-keyboard-response",467,528995,"0.0-3.152-0.152","068sm2olnt0wntt",703,"65.csv","","943.5999999996275","resources/trios/L1T2A2.jpg","38","restless",0.4,0.6,0.5,0.836533800808234,"false"
"image-keyboard-response",468,529404,"0.0-3.152-1.152","068sm2olnt0wntt",703,"65.csv","","null","resources/maskTrios/BT2B.jpg","null","",NA,NA,NA,NA,""
"image-keyboard-response",469,530621,"0.0-3.152-2.152","068sm2olnt0wntt",703,"65.csv","","null","resources/images/fishbone.png","null","",NA,NA,NA,NA,""
"image-keyboard-response",470,531843,"0.0-3.153-0.153","068sm2olnt0wntt",703,"65.csv","","1220.2000000011176","resources/trios/L4T1A2.jpg","38","restless",0.4,0.6,0.5,0.403691336112522,"true"
"image-keyboard-response",471,532255,"0.0-3.153-1.153","068sm2olnt0wntt",703,"65.csv","","null","resources/maskTrios/BT1B.jpg","null","",NA,NA,NA,NA,""
"image-keyboard-response",472,533463,"0.0-3.153-2.153","068sm2olnt0wntt",703,"65.csv","","null","resources/images/coin2.png","null","",NA,NA,NA,NA,""
"image-keyboard-response",473,534337,"0.0-3.154-0.154","068sm2olnt0wntt",703,"65.csv","","872.5999999996275","resources/trios/L1T1A3.jpg","39","restless",0.4,0.6,0.5,0.786489474777877,"false"
"image-keyboard-response",474,534741,"0.0-3.154-1.154","068sm2olnt0wntt",703,"65.csv","","null","resources/maskTrios/BBA3.jpg","null","",NA,NA,NA,NA,""
"image-keyboard-response",475,535955,"0.0-3.154-2.154","068sm2olnt0wntt",703,"65.csv","","null","resources/images/fishbone.png","null","",NA,NA,NA,NA,""
"image-keyboard-response",476,537050,"0.0-3.155-0.155","068sm2olnt0wntt",703,"65.csv","","1093.7000000011176","resources/trios/L4T1A2.jpg","37","restless",0.4,0.6,0.5,0.199804911012372,"true"
"image-keyboard-response",477,537452,"0.0-3.155-1.155","068sm2olnt0wntt",703,"65.csv","","null","resources/maskTrios/L4BB.jpg","null","",NA,NA,NA,NA,""
"image-keyboard-response",478,538665,"0.0-3.155-2.155","068sm2olnt0wntt",703,"65.csv","","null","resources/images/coin2.png","null","",NA,NA,NA,NA,""
"image-keyboard-response",479,539526,"0.0-3.156-0.156","068sm2olnt0wntt",703,"65.csv","","859.2999999988824","resources/trios/L1T2A2.jpg","38","restless",0.4,0.6,0.5,0.530240957737037,"true"
"image-keyboard-response",480,539927,"0.0-3.156-1.156","068sm2olnt0wntt",703,"65.csv","","null","resources/maskTrios/BT2B.jpg","null","",NA,NA,NA,NA,""
"image-keyboard-response",481,541139,"0.0-3.156-2.156","068sm2olnt0wntt",703,"65.csv","","null","resources/images/coin2.png","null","",NA,NA,NA,NA,""
"image-keyboard-response",482,541902,"0.0-3.157-0.157","068sm2olnt0wntt",703,"65.csv","","762.4000000003725","resources/trios/L1T1A3.jpg","39","restless",0.4,0.6,0.5,0.155337093652694,"true"
"image-keyboard-response",483,542310,"0.0-3.157-1.157","068sm2olnt0wntt",703,"65.csv","","null","resources/maskTrios/BBA3.jpg","null","",NA,NA,NA,NA,""
"image-keyboard-response",484,543525,"0.0-3.157-2.157","068sm2olnt0wntt",703,"65.csv","","null","resources/images/coin2.png","null","",NA,NA,NA,NA,""
"image-keyboard-response",485,544403,"0.0-3.158-0.158","068sm2olnt0wntt",703,"65.csv","","876.6000000014901","resources/trios/L4T1A2.jpg","38","restless",0.4,0.6,0.5,0.142632841622194,"true"
"image-keyboard-response",486,544819,"0.0-3.158-1.158","068sm2olnt0wntt",703,"65.csv","","null","resources/maskTrios/BT1B.jpg","null","",NA,NA,NA,NA,""
"image-keyboard-response",487,546033,"0.0-3.158-2.158","068sm2olnt0wntt",703,"65.csv","","null","resources/images/coin2.png","null","",NA,NA,NA,NA,""
"image-keyboard-response",488,547151,"0.0-3.159-0.159","068sm2olnt0wntt",703,"65.csv","","1116.7000000011176","resources/trios/L1T1A3.jpg","39","restless",0.4,0.5,0.5,0.0539813521333583,"true"
"image-keyboard-response",489,547559,"0.0-3.159-1.159","068sm2olnt0wntt",703,"65.csv","","null","resources/maskTrios/BBA3.jpg","null","",NA,NA,NA,NA,""
"image-keyboard-response",490,548775,"0.0-3.159-2.159","068sm2olnt0wntt",703,"65.csv","","null","resources/images/coin2.png","null","",NA,NA,NA,NA,""
"image-keyboard-response",491,549829,"0.0-3.160-0.160","068sm2olnt0wntt",703,"65.csv","","1052.699999999255","resources/trios/L4T2A3.jpg","37","restless",0.4,0.5,0.5,0.936908533528779,"false"
"image-keyboard-response",492,550232,"0.0-3.160-1.160","068sm2olnt0wntt",703,"65.csv","","null","resources/maskTrios/L4BB.jpg","null","",NA,NA,NA,NA,""
"image-keyboard-response",493,551444,"0.0-3.160-2.160","068sm2olnt0wntt",703,"65.csv","","null","resources/images/fishbone.png","null","",NA,NA,NA,NA,""
"image-keyboard-response",494,552422,"0.0-3.161-0.161","068sm2olnt0wntt",703,"65.csv","","976.2999999988824","resources/trios/L1T1A3.jpg","39","restless",0.4,0.4,0.5,0.823211840531486,"false"
"image-keyboard-response",495,552832,"0.0-3.161-1.161","068sm2olnt0wntt",703,"65.csv","","null","resources/maskTrios/BBA3.jpg","null","",NA,NA,NA,NA,""
"image-keyboard-response",496,554045,"0.0-3.161-2.161","068sm2olnt0wntt",703,"65.csv","","null","resources/images/fishbone.png","null","",NA,NA,NA,NA,""
"image-keyboard-response",497,555196,"0.0-3.162-0.162","068sm2olnt0wntt",703,"65.csv","","1149.5999999996275","resources/trios/L1T1A3.jpg","38","restless",0.3,0.4,0.5,0.208846169017298,"true"
"image-keyboard-response",498,555601,"0.0-3.162-1.162","068sm2olnt0wntt",703,"65.csv","","null","resources/maskTrios/BT1B.jpg","null","",NA,NA,NA,NA,""
"image-keyboard-response",499,556816,"0.0-3.162-2.162","068sm2olnt0wntt",703,"65.csv","","null","resources/images/coin2.png","null","",NA,NA,NA,NA,""
"image-keyboard-response",500,558227,"0.0-3.163-0.163","068sm2olnt0wntt",703,"65.csv","","1410.199999999255","resources/trios/L1T1A3.jpg","38","restless",0.3,0.4,0.5,0.0980699613570002,"true"
"image-keyboard-response",501,558631,"0.0-3.163-1.163","068sm2olnt0wntt",703,"65.csv","","null","resources/maskTrios/BT1B.jpg","null","",NA,NA,NA,NA,""
"image-keyboard-response",502,559843,"0.0-3.163-2.163","068sm2olnt0wntt",703,"65.csv","","null","resources/images/coin2.png","null","",NA,NA,NA,NA,""
"image-keyboard-response",503,561319,"0.0-3.164-0.164","068sm2olnt0wntt",703,"65.csv","","1473.8999999985099","resources/trios/L1T2A2.jpg","37","restless",0.3,0.4,0.6,0.540351944379112,"false"
"image-keyboard-response",504,561726,"0.0-3.164-1.164","068sm2olnt0wntt",703,"65.csv","","null","resources/maskTrios/L1BB.jpg","null","",NA,NA,NA,NA,""
"image-keyboard-response",505,562940,"0.0-3.164-2.164","068sm2olnt0wntt",703,"65.csv","","null","resources/images/fishbone.png","null","",NA,NA,NA,NA,""
"image-keyboard-response",506,563972,"0.0-3.165-0.165","068sm2olnt0wntt",703,"65.csv","","1030.2999999988824","resources/trios/L4T2A3.jpg","37","restless",0.3,0.4,0.6,0.561133924254268,"false"
"image-keyboard-response",507,564387,"0.0-3.165-1.165","068sm2olnt0wntt",703,"65.csv","","null","resources/maskTrios/L4BB.jpg","null","",NA,NA,NA,NA,""
"image-keyboard-response",508,565602,"0.0-3.165-2.165","068sm2olnt0wntt",703,"65.csv","","null","resources/images/fishbone.png","null","",NA,NA,NA,NA,""
"image-keyboard-response",509,566324,"0.0-3.166-0.166","068sm2olnt0wntt",703,"65.csv","","720.3999999985099","resources/trios/L1T2A2.jpg","38","restless",0.3,0.4,0.6,0.940829547833696,"false"
"image-keyboard-response",510,566733,"0.0-3.166-1.166","068sm2olnt0wntt",703,"65.csv","","null","resources/maskTrios/BT2B.jpg","null","",NA,NA,NA,NA,""
"image-keyboard-response",511,567948,"0.0-3.166-2.166","068sm2olnt0wntt",703,"65.csv","","null","resources/images/fishbone.png","null","",NA,NA,NA,NA,""
"image-keyboard-response",512,569434,"0.0-3.167-0.167","068sm2olnt0wntt",703,"65.csv","","1484.5999999996275","resources/trios/L1T2A3.jpg","38","restless",0.3,0.4,0.6,0.93678057770304,"false"
"image-keyboard-response",513,569848,"0.0-3.167-1.167","068sm2olnt0wntt",703,"65.csv","","null","resources/maskTrios/BT2B.jpg","null","",NA,NA,NA,NA,""
"image-keyboard-response",514,571065,"0.0-3.167-2.167","068sm2olnt0wntt",703,"65.csv","","null","resources/images/fishbone.png","null","",NA,NA,NA,NA,""
"image-keyboard-response",515,571877,"0.0-3.168-0.168","068sm2olnt0wntt",703,"65.csv","","810.4000000003725","resources/trios/L1T1A2.jpg","38","restless",0.3,0.4,0.6,0.0844317140193194,"true"
"image-keyboard-response",516,572282,"0.0-3.168-1.168","068sm2olnt0wntt",703,"65.csv","","null","resources/maskTrios/BT1B.jpg","null","",NA,NA,NA,NA,""
"image-keyboard-response",517,573498,"0.0-3.168-2.168","068sm2olnt0wntt",703,"65.csv","","null","resources/images/coin2.png","null","",NA,NA,NA,NA,""
"image-keyboard-response",518,576078,"0.0-3.169-0.169","068sm2olnt0wntt",703,"65.csv","","2579","resources/trios/L1T2A2.jpg","38","restless",0.3,0.4,0.5,0.381848965189517,"true"
"image-keyboard-response",519,576492,"0.0-3.169-1.169","068sm2olnt0wntt",703,"65.csv","","null","resources/maskTrios/BT2B.jpg","null","",NA,NA,NA,NA,""
"image-keyboard-response",520,577707,"0.0-3.169-2.169","068sm2olnt0wntt",703,"65.csv","","null","resources/images/coin2.png","null","",NA,NA,NA,NA,""
"image-keyboard-response",521,578839,"0.0-3.170-0.170","068sm2olnt0wntt",703,"65.csv","","1131.1000000014901","resources/trios/L4T1A2.jpg","37","restless",0.3,0.3,0.5,0.710109012455882,"false"
"image-keyboard-response",522,579246,"0.0-3.170-1.170","068sm2olnt0wntt",703,"65.csv","","null","resources/maskTrios/L4BB.jpg","null","",NA,NA,NA,NA,""
"image-keyboard-response",523,580448,"0.0-3.170-2.170","068sm2olnt0wntt",703,"65.csv","","null","resources/images/fishbone.png","null","",NA,NA,NA,NA,""
"image-keyboard-response",524,581563,"0.0-3.171-0.171","068sm2olnt0wntt",703,"65.csv","","1113.5","resources/trios/L4T1A2.jpg","38","restless",0.3,0.3,0.5,0.114625128477723,"true"
"image-keyboard-response",525,581975,"0.0-3.171-1.171","068sm2olnt0wntt",703,"65.csv","","null","resources/maskTrios/BT1B.jpg","null","",NA,NA,NA,NA,""
"image-keyboard-response",526,583191,"0.0-3.171-2.171","068sm2olnt0wntt",703,"65.csv","","null","resources/images/coin2.png","null","",NA,NA,NA,NA,""
"image-keyboard-response",527,584259,"0.0-3.172-0.172","068sm2olnt0wntt",703,"65.csv","","1066.4000000003725","resources/trios/L1T1A3.jpg","37","restless",0.3,0.3,0.5,0.793579289678524,"false"
"image-keyboard-response",528,584668,"0.0-3.172-1.172","068sm2olnt0wntt",703,"65.csv","","null","resources/maskTrios/L1BB.jpg","null","",NA,NA,NA,NA,""
"image-keyboard-response",529,585882,"0.0-3.172-2.172","068sm2olnt0wntt",703,"65.csv","","null","resources/images/fishbone.png","null","",NA,NA,NA,NA,""
"image-keyboard-response",530,587000,"0.0-3.173-0.173","068sm2olnt0wntt",703,"65.csv","","1116.2999999988824","resources/trios/L4T1A2.jpg","38","restless",0.3,0.3,0.5,0.0799911230171078,"true"
"image-keyboard-response",531,587416,"0.0-3.173-1.173","068sm2olnt0wntt",703,"65.csv","","null","resources/maskTrios/BT1B.jpg","null","",NA,NA,NA,NA,""
"image-keyboard-response",532,588628,"0.0-3.173-2.173","068sm2olnt0wntt",703,"65.csv","","null","resources/images/coin2.png","null","",NA,NA,NA,NA,""
"image-keyboard-response",533,590688,"0.0-3.174-0.174","068sm2olnt0wntt",703,"65.csv","","2058.300000000745","resources/trios/L1T1A2.jpg","39","restless",0.3,0.3,0.5,0.795079911238729,"false"
"image-keyboard-response",534,591105,"0.0-3.174-1.174","068sm2olnt0wntt",703,"65.csv","","null","resources/maskTrios/BBA2.jpg","null","",NA,NA,NA,NA,""
"image-keyboard-response",535,592319,"0.0-3.174-2.174","068sm2olnt0wntt",703,"65.csv","","null","resources/images/fishbone.png","null","",NA,NA,NA,NA,""
"image-keyboard-response",536,594263,"0.0-3.175-0.175","068sm2olnt0wntt",703,"65.csv","","1941.4000000003725","resources/trios/L4T1A3.jpg","38","restless",0.3,0.3,0.5,0.389636333864582,"false"
"image-keyboard-response",537,594680,"0.0-3.175-1.175","068sm2olnt0wntt",703,"65.csv","","null","resources/maskTrios/BT1B.jpg","null","",NA,NA,NA,NA,""
"image-keyboard-response",538,595884,"0.0-3.175-2.175","068sm2olnt0wntt",703,"65.csv","","null","resources/images/fishbone.png","null","",NA,NA,NA,NA,""
"image-keyboard-response",539,597074,"0.0-3.176-0.176","068sm2olnt0wntt",703,"65.csv","","1188.2999999988824","resources/trios/L4T1A2.jpg","38","restless",0.3,0.3,0.5,0.4750977644136,"false"
"image-keyboard-response",540,597487,"0.0-3.176-1.176","068sm2olnt0wntt",703,"65.csv","","null","resources/maskTrios/BT1B.jpg","null","",NA,NA,NA,NA,""
"image-keyboard-response",541,598701,"0.0-3.176-2.176","068sm2olnt0wntt",703,"65.csv","","null","resources/images/fishbone.png","null","",NA,NA,NA,NA,""
"image-keyboard-response",542,599849,"0.0-3.177-0.177","068sm2olnt0wntt",703,"65.csv","","1146.9000000003725","resources/trios/L4T1A2.jpg","37","restless",0.3,0.3,0.5,0.165496907309691,"true"
"image-keyboard-response",543,600257,"0.0-3.177-1.177","068sm2olnt0wntt",703,"65.csv","","null","resources/maskTrios/L4BB.jpg","null","",NA,NA,NA,NA,""
"image-keyboard-response",544,601472,"0.0-3.177-2.177","068sm2olnt0wntt",703,"65.csv","","null","resources/images/coin2.png","null","",NA,NA,NA,NA,""
"image-keyboard-response",545,602456,"0.0-3.178-0.178","068sm2olnt0wntt",703,"65.csv","","982.6000000014901","resources/trios/L1T1A2.jpg","37","restless",0.3,0.3,0.5,0.0929903229365543,"true"
"image-keyboard-response",546,602873,"0.0-3.178-1.178","068sm2olnt0wntt",703,"65.csv","","null","resources/maskTrios/L1BB.jpg","null","",NA,NA,NA,NA,""
"image-keyboard-response",547,604080,"0.0-3.178-2.178","068sm2olnt0wntt",703,"65.csv","","null","resources/images/coin2.png","null","",NA,NA,NA,NA,""
"image-keyboard-response",548,608775,"0.0-3.179-0.179","068sm2olnt0wntt",703,"65.csv","","4694.10000000149","resources/trios/L1T1A3.jpg","38","restless",0.3,0.3,0.5,0.448718097013682,"false"
"image-keyboard-response",549,609188,"0.0-3.179-1.179","068sm2olnt0wntt",703,"65.csv","","null","resources/maskTrios/BT1B.jpg","null","",NA,NA,NA,NA,""
"image-keyboard-response",550,610402,"0.0-3.179-2.179","068sm2olnt0wntt",703,"65.csv","","null","resources/images/fishbone.png","null","",NA,NA,NA,NA,""
"image-keyboard-response",551,610918,"0.0-3.180-0.180","068sm2olnt0wntt",703,"65.csv","","514.5","resources/trios/L4T2A2.jpg","39","restless",0.3,0.3,0.5,0.952205520552658,"false"
"image-keyboard-response",552,611321,"0.0-3.180-1.180","068sm2olnt0wntt",703,"65.csv","","null","resources/maskTrios/BBA2.jpg","null","",NA,NA,NA,NA,""
"image-keyboard-response",553,612533,"0.0-3.180-2.180","068sm2olnt0wntt",703,"65.csv","","null","resources/images/fishbone.png","null","",NA,NA,NA,NA,""
"image-keyboard-response",554,612896,"0.0-3.181-0.181","068sm2olnt0wntt",703,"65.csv","","360.80000000074506","resources/trios/L1T1A2.jpg","37","restless",0.3,0.3,0.5,0.801648064519503,"false"
"image-keyboard-response",555,613309,"0.0-3.181-1.181","068sm2olnt0wntt",703,"65.csv","","null","resources/maskTrios/L1BB.jpg","null","",NA,NA,NA,NA,""
"image-keyboard-response",556,614511,"0.0-3.181-2.181","068sm2olnt0wntt",703,"65.csv","","null","resources/images/fishbone.png","null","",NA,NA,NA,NA,""
"image-keyboard-response",557,614898,"0.0-3.182-0.182","068sm2olnt0wntt",703,"65.csv","","386.40000000037253","resources/trios/L1T1A3.jpg","38","restless",0.4,0.3,0.5,0.84682159094794,"false"
"image-keyboard-response",558,615307,"0.0-3.182-1.182","068sm2olnt0wntt",703,"65.csv","","null","resources/maskTrios/BT1B.jpg","null","",NA,NA,NA,NA,""
"image-keyboard-response",559,616510,"0.0-3.182-2.182","068sm2olnt0wntt",703,"65.csv","","null","resources/images/fishbone.png","null","",NA,NA,NA,NA,""
"image-keyboard-response",560,616729,"0.0-3.183-0.183","068sm2olnt0wntt",703,"65.csv","","218.19999999925494","resources/trios/L4T2A3.jpg","39","restless",0.3,0.3,0.5,0.908446873495261,"false"
"image-keyboard-response",561,617145,"0.0-3.183-1.183","068sm2olnt0wntt",703,"65.csv","","null","resources/maskTrios/BBA3.jpg","null","",NA,NA,NA,NA,""
"image-keyboard-response",562,618361,"0.0-3.183-2.183","068sm2olnt0wntt",703,"65.csv","","null","resources/images/fishbone.png","null","",NA,NA,NA,NA,""
"image-keyboard-response",563,618505,"0.0-3.184-0.184","068sm2olnt0wntt",703,"65.csv","","142.19999999925494","resources/trios/L1T1A3.jpg","37","restless",0.3,0.3,0.5,0.515341774347165,"false"
"image-keyboard-response",564,618919,"0.0-3.184-1.184","068sm2olnt0wntt",703,"65.csv","","null","resources/maskTrios/L1BB.jpg","null","",NA,NA,NA,NA,""
"image-keyboard-response",565,620131,"0.0-3.184-2.184","068sm2olnt0wntt",703,"65.csv","","null","resources/images/fishbone.png","null","",NA,NA,NA,NA,""
"image-keyboard-response",566,620511,"0.0-3.185-0.185","068sm2olnt0wntt",703,"65.csv","","378.2999999988824","resources/trios/L4T2A2.jpg","39","restless",0.3,0.3,0.5,0.887096383205063,"false"
"image-keyboard-response",567,620924,"0.0-3.185-1.185","068sm2olnt0wntt",703,"65.csv","","null","resources/maskTrios/BBA2.jpg","null","",NA,NA,NA,NA,""
"image-keyboard-response",568,622126,"0.0-3.185-2.185","068sm2olnt0wntt",703,"65.csv","","null","resources/images/fishbone.png","null","",NA,NA,NA,NA,""
"image-keyboard-response",569,622326,"0.0-3.186-0.186","068sm2olnt0wntt",703,"65.csv","","198.80000000074506","resources/trios/L1T2A3.jpg","38","restless",0.3,0.3,0.5,0.660285030977822,"false"
"image-keyboard-response",570,622738,"0.0-3.186-1.186","068sm2olnt0wntt",703,"65.csv","","null","resources/maskTrios/BT2B.jpg","null","",NA,NA,NA,NA,""
"image-keyboard-response",571,623952,"0.0-3.186-2.186","068sm2olnt0wntt",703,"65.csv","","null","resources/images/fishbone.png","null","",NA,NA,NA,NA,""
"image-keyboard-response",572,623978,"0.0-3.187-0.187","068sm2olnt0wntt",703,"65.csv","","25.199999999254942","resources/trios/L4T1A2.jpg","39","restless",0.4,0.3,0.5,0.323348766798146,"true"
"image-keyboard-response",573,624388,"0.0-3.187-1.187","068sm2olnt0wntt",703,"65.csv","","null","resources/maskTrios/BBA2.jpg","null","",NA,NA,NA,NA,""
"image-keyboard-response",574,625600,"0.0-3.187-2.187","068sm2olnt0wntt",703,"65.csv","","null","resources/images/coin2.png","null","",NA,NA,NA,NA,""
"image-keyboard-response",575,625747,"0.0-3.188-0.188","068sm2olnt0wntt",703,"65.csv","","145.59999999962747","resources/trios/L4T2A2.jpg","37","restless",0.4,0.3,0.5,0.802357098513827,"false"
"image-keyboard-response",576,626161,"0.0-3.188-1.188","068sm2olnt0wntt",703,"65.csv","","null","resources/maskTrios/L4BB.jpg","null","",NA,NA,NA,NA,""
"image-keyboard-response",577,627375,"0.0-3.188-2.188","068sm2olnt0wntt",703,"65.csv","","null","resources/images/fishbone.png","null","",NA,NA,NA,NA,""
"image-keyboard-response",578,627420,"0.0-3.189-0.189","068sm2olnt0wntt",703,"65.csv","","43.40000000037253","resources/trios/L4T1A2.jpg","37","restless",0.4,0.3,0.5,0.497190863393291,"false"
"image-keyboard-response",579,627822,"0.0-3.189-1.189","068sm2olnt0wntt",703,"65.csv","","null","resources/maskTrios/L4BB.jpg","null","",NA,NA,NA,NA,""
"image-keyboard-response",580,629024,"0.0-3.189-2.189","068sm2olnt0wntt",703,"65.csv","","null","resources/images/fishbone.png","null","",NA,NA,NA,NA,""
"image-keyboard-response",581,629234,"0.0-3.190-0.190","068sm2olnt0wntt",703,"65.csv","","208.5","resources/trios/L4T1A3.jpg","39","restless",0.4,0.3,0.5,0.70064855689177,"false"
"image-keyboard-response",582,629648,"0.0-3.190-1.190","068sm2olnt0wntt",703,"65.csv","","null","resources/maskTrios/BBA3.jpg","null","",NA,NA,NA,NA,""
"image-keyboard-response",583,630865,"0.0-3.190-2.190","068sm2olnt0wntt",703,"65.csv","","null","resources/images/fishbone.png","null","",NA,NA,NA,NA,""
"image-keyboard-response",584,630948,"0.0-3.191-0.191","068sm2olnt0wntt",703,"65.csv","","81.09999999962747","resources/trios/L4T2A2.jpg","38","restless",0.4,0.3,0.5,0.371642028650393,"false"
"image-keyboard-response",585,631362,"0.0-3.191-1.191","068sm2olnt0wntt",703,"65.csv","","null","resources/maskTrios/BT2B.jpg","null","",NA,NA,NA,NA,""
"image-keyboard-response",586,632575,"0.0-3.191-2.191","068sm2olnt0wntt",703,"65.csv","","null","resources/images/fishbone.png","null","",NA,NA,NA,NA,""
"image-keyboard-response",587,632965,"0.0-3.192-0.192","068sm2olnt0wntt",703,"65.csv","","388.90000000037253","resources/trios/L1T1A3.jpg","37","restless",0.4,0.3,0.5,0.91645335144901,"false"
"image-keyboard-response",588,633369,"0.0-3.192-1.192","068sm2olnt0wntt",703,"65.csv","","null","resources/maskTrios/L1BB.jpg","null","",NA,NA,NA,NA,""
"image-keyboard-response",589,634583,"0.0-3.192-2.192","068sm2olnt0wntt",703,"65.csv","","null","resources/images/fishbone.png","null","",NA,NA,NA,NA,""
"image-keyboard-response",590,634700,"0.0-3.193-0.193","068sm2olnt0wntt",703,"65.csv","","115.69999999925494","resources/trios/L1T2A3.jpg","39","restless",0.4,0.3,0.5,0.073571313247514,"true"
"image-keyboard-response",591,635103,"0.0-3.193-1.193","068sm2olnt0wntt",703,"65.csv","","null","resources/maskTrios/BBA3.jpg","null","",NA,NA,NA,NA,""
"image-keyboard-response",592,636312,"0.0-3.193-2.193","068sm2olnt0wntt",703,"65.csv","","null","resources/images/coin2.png","null","",NA,NA,NA,NA,""
"image-keyboard-response",593,636610,"0.0-3.194-0.194","068sm2olnt0wntt",703,"65.csv","","296.40000000037253","resources/trios/L4T1A3.jpg","39","restless",0.5,0.3,0.5,0.981487528123702,"false"
"image-keyboard-response",594,637013,"0.0-3.194-1.194","068sm2olnt0wntt",703,"65.csv","","null","resources/maskTrios/BBA3.jpg","null","",NA,NA,NA,NA,""
"image-keyboard-response",595,638215,"0.0-3.194-2.194","068sm2olnt0wntt",703,"65.csv","","null","resources/images/fishbone.png","null","",NA,NA,NA,NA,""
"image-keyboard-response",596,638318,"0.0-3.195-0.195","068sm2olnt0wntt",703,"65.csv","","101.09999999962747","resources/trios/L1T1A3.jpg","37","restless",0.5,0.3,0.5,0.00507779957144283,"true"
"image-keyboard-response",597,638724,"0.0-3.195-1.195","068sm2olnt0wntt",703,"65.csv","","null","resources/maskTrios/L1BB.jpg","null","",NA,NA,NA,NA,""
"image-keyboard-response",598,639937,"0.0-3.195-2.195","068sm2olnt0wntt",703,"65.csv","","null","resources/images/coin2.png","null","",NA,NA,NA,NA,""
"image-keyboard-response",599,639987,"0.0-3.196-0.196","068sm2olnt0wntt",703,"65.csv","","48.30000000074506","resources/trios/L1T1A2.jpg","39","restless",0.5,0.3,0.5,0.0345882709928753,"true"
"image-keyboard-response",600,640389,"0.0-3.196-1.196","068sm2olnt0wntt",703,"65.csv","","null","resources/maskTrios/BBA2.jpg","null","",NA,NA,NA,NA,""
"image-keyboard-response",601,641592,"0.0-3.196-2.196","068sm2olnt0wntt",703,"65.csv","","null","resources/images/coin2.png","null","",NA,NA,NA,NA,""
"image-keyboard-response",602,641710,"0.0-3.197-0.197","068sm2olnt0wntt",703,"65.csv","","116.80000000074506","resources/trios/L1T2A2.jpg","39","restless",0.5,0.3,0.5,0.98897943628899,"false"
"image-keyboard-response",603,642111,"0.0-3.197-1.197","068sm2olnt0wntt",703,"65.csv","","null","resources/maskTrios/BBA2.jpg","null","",NA,NA,NA,NA,""
"image-keyboard-response",604,643327,"0.0-3.197-2.197","068sm2olnt0wntt",703,"65.csv","","null","resources/images/fishbone.png","null","",NA,NA,NA,NA,""
"image-keyboard-response",605,643540,"0.0-3.198-0.198","068sm2olnt0wntt",703,"65.csv","","211.59999999962747","resources/trios/L4T1A3.jpg","38","restless",0.6,0.3,0.6,0.0211103144346287,"true"
"image-keyboard-response",606,643942,"0.0-3.198-1.198","068sm2olnt0wntt",703,"65.csv","","null","resources/maskTrios/BT1B.jpg","null","",NA,NA,NA,NA,""
"image-keyboard-response",607,645143,"0.0-3.198-2.198","068sm2olnt0wntt",703,"65.csv","","null","resources/images/coin2.png","null","",NA,NA,NA,NA,""
"image-keyboard-response",608,645311,"0.0-3.199-0.199","068sm2olnt0wntt",703,"65.csv","","166.09999999962747","resources/trios/L1T1A2.jpg","39","restless",0.6,0.3,0.5,0.229535499142425,"true"
"image-keyboard-response",609,645721,"0.0-3.199-1.199","068sm2olnt0wntt",703,"65.csv","","null","resources/maskTrios/BBA2.jpg","null","",NA,NA,NA,NA,""
