"trial_type","trial_index","time_elapsed","internal_node_id","subject","participantCode","walkNumber","success","rt","stimulus","key_press","test_part","leftProb","midProb","rightProb","generatedNum","correct"
"pavlovia",0,985,"0.0-0.0","6nb6smtjh5u51jt",191,"129.csv","","","","","",NA,NA,NA,NA,""
"fullscreen",1,4217,"0.0-1.0","6nb6smtjh5u51jt",191,"129.csv","true","","","","",NA,NA,NA,NA,""
"html-keyboard-response",2,10439,"0.0-2.0-0.0","6nb6smtjh5u51jt",191,"129.csv","","6220.20000000298","<p><font size='6'>Arrrgh!</p></font><p>Can you be the best pirate? Try to find lots of gold! But beware, some islands have more gold than others, and over time, the island with the most gold may change. Can YOU figure it out? </p><font size='6'>GOOD LUCK, CAPTAIN!!!</font><p>Press any key to begin</p>","32","",NA,NA,NA,NA,""
"image-keyboard-response",3,13445,"0.0-2.0-1.0","6nb6smtjh5u51jt",191,"129.csv","","null","resources/image_sets/111.png","null","",NA,NA,NA,NA,""
"image-keyboard-response",4,17200,"0.0-2.0-2.0","6nb6smtjh5u51jt",191,"129.csv","","3753.4000000059605","resources/image_sets/left_highlight.png","37","",NA,NA,NA,NA,""
"image-keyboard-response",5,20573,"0.0-2.0-3.0","6nb6smtjh5u51jt",191,"129.csv","","3371.2999999970198","resources/image_sets/mid_highlight.png","38","",NA,NA,NA,NA,""
"image-keyboard-response",6,21509,"0.0-2.0-4.0","6nb6smtjh5u51jt",191,"129.csv","","935.3000000119209","resources/image_sets/right_highlight.png","39","",NA,NA,NA,NA,""
"image-keyboard-response",7,22970,"0.0-2.0-5.0","6nb6smtjh5u51jt",191,"129.csv","","1459.3999999910593","resources/image_sets/111.png","13","",NA,NA,NA,NA,""
"image-keyboard-response",8,24831,"0.0-2.0-6.0","6nb6smtjh5u51jt",191,"129.csv","","1859.7999999970198","resources/images/coin2.png","13","",NA,NA,NA,NA,""
"image-keyboard-response",9,25745,"0.0-2.0-7.0","6nb6smtjh5u51jt",191,"129.csv","","912.8999999910593","resources/images/fishbone.png","13","",NA,NA,NA,NA,""
"html-keyboard-response",10,27804,"0.0-2.0-8.0","6nb6smtjh5u51jt",191,"129.csv","","2059.0999999940395","<p>Your first journey will be a long one, but you will get a well deserved break at the end</p><p>After the break you will have four more journeys, but each will be much shorter than the first, and you will have breaks in between each</p><p>Press Enter to begin</p>","13","",NA,NA,NA,NA,""
"image-keyboard-response",11,30130,"0.0-3.0-0.0","6nb6smtjh5u51jt",191,"129.csv","","2323","resources/trios/L2T2A2.jpg","39","restless",0.7,0.3,0.9,0.780472607648091,"true"
"image-keyboard-response",12,30533,"0.0-3.0-1.0","6nb6smtjh5u51jt",191,"129.csv","","null","resources/maskTrios/BBA2.jpg","null","",NA,NA,NA,NA,""
"image-keyboard-response",13,31736,"0.0-3.0-2.0","6nb6smtjh5u51jt",191,"129.csv","","null","resources/images/coin2.png","null","",NA,NA,NA,NA,""
"image-keyboard-response",14,34882,"0.0-3.1-0.1","6nb6smtjh5u51jt",191,"129.csv","","3144.2000000029802","resources/trios/L1T2A3.jpg","38","restless",0.7,0.3,0.9,0.0310727129153481,"true"
"image-keyboard-response",15,35289,"0.0-3.1-1.1","6nb6smtjh5u51jt",191,"129.csv","","null","resources/maskTrios/BT2B.jpg","null","",NA,NA,NA,NA,""
"image-keyboard-response",16,36492,"0.0-3.1-2.1","6nb6smtjh5u51jt",191,"129.csv","","null","resources/images/coin2.png","null","",NA,NA,NA,NA,""
"image-keyboard-response",17,39504,"0.0-3.2-0.2","6nb6smtjh5u51jt",191,"129.csv","","3010.6000000089407","resources/trios/L2T2A3.jpg","38","restless",0.7,0.3,0.9,0.251419289509183,"true"
"image-keyboard-response",18,39906,"0.0-3.2-1.2","6nb6smtjh5u51jt",191,"129.csv","","null","resources/maskTrios/BT2B.jpg","null","",NA,NA,NA,NA,""
"image-keyboard-response",19,41112,"0.0-3.2-2.2","6nb6smtjh5u51jt",191,"129.csv","","null","resources/images/coin2.png","null","",NA,NA,NA,NA,""
"image-keyboard-response",20,42192,"0.0-3.3-0.3","6nb6smtjh5u51jt",191,"129.csv","","1078.4000000059605","resources/trios/L1T1A2.jpg","39","restless",0.7,0.3,0.9,0.931240542356569,"false"
"image-keyboard-response",21,42599,"0.0-3.3-1.3","6nb6smtjh5u51jt",191,"129.csv","","null","resources/maskTrios/BBA2.jpg","null","",NA,NA,NA,NA,""
"image-keyboard-response",22,43805,"0.0-3.3-2.3","6nb6smtjh5u51jt",191,"129.csv","","null","resources/images/fishbone.png","null","",NA,NA,NA,NA,""
"image-keyboard-response",23,46439,"0.0-3.4-0.4","6nb6smtjh5u51jt",191,"129.csv","","2632.5","resources/trios/L1T1A2.jpg","37","restless",0.7,0.3,0.9,0.347198112011807,"true"
"image-keyboard-response",24,46844,"0.0-3.4-1.4","6nb6smtjh5u51jt",191,"129.csv","","null","resources/maskTrios/L1BB.jpg","null","",NA,NA,NA,NA,""
"image-keyboard-response",25,48049,"0.0-3.4-2.4","6nb6smtjh5u51jt",191,"129.csv","","null","resources/images/coin2.png","null","",NA,NA,NA,NA,""
"image-keyboard-response",26,48753,"0.0-3.5-0.5","6nb6smtjh5u51jt",191,"129.csv","","702.0999999940395","resources/trios/L2T1A2.jpg","37","restless",0.7,0.3,0.9,0.423857785784703,"true"
"image-keyboard-response",27,49156,"0.0-3.5-1.5","6nb6smtjh5u51jt",191,"129.csv","","null","resources/maskTrios/L2BB.jpg","null","",NA,NA,NA,NA,""
"image-keyboard-response",28,50359,"0.0-3.5-2.5","6nb6smtjh5u51jt",191,"129.csv","","null","resources/images/coin2.png","null","",NA,NA,NA,NA,""
"image-keyboard-response",29,51116,"0.0-3.6-0.6","6nb6smtjh5u51jt",191,"129.csv","","755.7000000029802","resources/trios/L1T2A3.jpg","39","restless",0.7,0.3,0.9,0.639293052947851,"true"
"image-keyboard-response",30,51522,"0.0-3.6-1.6","6nb6smtjh5u51jt",191,"129.csv","","null","resources/maskTrios/BBA3.jpg","null","",NA,NA,NA,NA,""
"image-keyboard-response",31,52725,"0.0-3.6-2.6","6nb6smtjh5u51jt",191,"129.csv","","null","resources/images/coin2.png","null","",NA,NA,NA,NA,""
"image-keyboard-response",32,53628,"0.0-3.7-0.7","6nb6smtjh5u51jt",191,"129.csv","","901.7000000029802","resources/trios/L1T1A2.jpg","37","restless",0.7,0.3,0.8,0.986084596331745,"false"
"image-keyboard-response",33,54035,"0.0-3.7-1.7","6nb6smtjh5u51jt",191,"129.csv","","null","resources/maskTrios/L1BB.jpg","null","",NA,NA,NA,NA,""
"image-keyboard-response",34,55241,"0.0-3.7-2.7","6nb6smtjh5u51jt",191,"129.csv","","null","resources/images/fishbone.png","null","",NA,NA,NA,NA,""
"image-keyboard-response",35,56044,"0.0-3.8-0.8","6nb6smtjh5u51jt",191,"129.csv","","802","resources/trios/L2T2A2.jpg","38","restless",0.7,0.3,0.8,0.698289871109278,"false"
"image-keyboard-response",36,56451,"0.0-3.8-1.8","6nb6smtjh5u51jt",191,"129.csv","","null","resources/maskTrios/BT2B.jpg","null","",NA,NA,NA,NA,""
"image-keyboard-response",37,57656,"0.0-3.8-2.8","6nb6smtjh5u51jt",191,"129.csv","","null","resources/images/fishbone.png","null","",NA,NA,NA,NA,""
"image-keyboard-response",38,58772,"0.0-3.9-0.9","6nb6smtjh5u51jt",191,"129.csv","","1114.5","resources/trios/L2T1A3.jpg","39","restless",0.7,0.3,0.7,0.435283190099666,"true"
"image-keyboard-response",39,59179,"0.0-3.9-1.9","6nb6smtjh5u51jt",191,"129.csv","","null","resources/maskTrios/BBA3.jpg","null","",NA,NA,NA,NA,""
"image-keyboard-response",40,60380,"0.0-3.9-2.9","6nb6smtjh5u51jt",191,"129.csv","","null","resources/images/coin2.png","null","",NA,NA,NA,NA,""
"image-keyboard-response",41,61165,"0.0-3.10-0.10","6nb6smtjh5u51jt",191,"129.csv","","783.8000000119209","resources/trios/L1T1A3.jpg","37","restless",0.7,0.3,0.7,0.707577061860244,"false"
"image-keyboard-response",42,61570,"0.0-3.10-1.10","6nb6smtjh5u51jt",191,"129.csv","","null","resources/maskTrios/L1BB.jpg","null","",NA,NA,NA,NA,""
"image-keyboard-response",43,62774,"0.0-3.10-2.10","6nb6smtjh5u51jt",191,"129.csv","","null","resources/images/fishbone.png","null","",NA,NA,NA,NA,""
"image-keyboard-response",44,65817,"0.0-3.11-0.11","6nb6smtjh5u51jt",191,"129.csv","","3041","resources/trios/L1T1A2.jpg","39","restless",0.7,0.3,0.7,0.597697887039938,"true"
"image-keyboard-response",45,66223,"0.0-3.11-1.11","6nb6smtjh5u51jt",191,"129.csv","","null","resources/maskTrios/BBA2.jpg","null","",NA,NA,NA,NA,""
"image-keyboard-response",46,67430,"0.0-3.11-2.11","6nb6smtjh5u51jt",191,"129.csv","","null","resources/images/coin2.png","null","",NA,NA,NA,NA,""
"image-keyboard-response",47,68451,"0.0-3.12-0.12","6nb6smtjh5u51jt",191,"129.csv","","1020","resources/trios/L1T2A3.jpg","38","restless",0.7,0.3,0.7,0.600115781624327,"false"
"image-keyboard-response",48,68857,"0.0-3.12-1.12","6nb6smtjh5u51jt",191,"129.csv","","null","resources/maskTrios/BT2B.jpg","null","",NA,NA,NA,NA,""
"image-keyboard-response",49,70061,"0.0-3.12-2.12","6nb6smtjh5u51jt",191,"129.csv","","null","resources/images/fishbone.png","null","",NA,NA,NA,NA,""
"image-keyboard-response",50,71025,"0.0-3.13-0.13","6nb6smtjh5u51jt",191,"129.csv","","963","resources/trios/L1T2A3.jpg","38","restless",0.7,0.3,0.7,0.143246494635551,"true"
"image-keyboard-response",51,71428,"0.0-3.13-1.13","6nb6smtjh5u51jt",191,"129.csv","","null","resources/maskTrios/BT2B.jpg","null","",NA,NA,NA,NA,""
"image-keyboard-response",52,72629,"0.0-3.13-2.13","6nb6smtjh5u51jt",191,"129.csv","","null","resources/images/coin2.png","null","",NA,NA,NA,NA,""
"image-keyboard-response",53,73897,"0.0-3.14-0.14","6nb6smtjh5u51jt",191,"129.csv","","1266.0999999940395","resources/trios/L1T1A2.jpg","39","restless",0.7,0.3,0.7,0.882815921875004,"false"
"image-keyboard-response",54,74303,"0.0-3.14-1.14","6nb6smtjh5u51jt",191,"129.csv","","null","resources/maskTrios/BBA2.jpg","null","",NA,NA,NA,NA,""
"image-keyboard-response",55,75509,"0.0-3.14-2.14","6nb6smtjh5u51jt",191,"129.csv","","null","resources/images/fishbone.png","null","",NA,NA,NA,NA,""
"image-keyboard-response",56,77131,"0.0-3.15-0.15","6nb6smtjh5u51jt",191,"129.csv","","1620.0999999940395","resources/trios/L2T1A3.jpg","37","restless",0.6,0.3,0.7,0.957872131498088,"false"
"image-keyboard-response",57,77538,"0.0-3.15-1.15","6nb6smtjh5u51jt",191,"129.csv","","null","resources/maskTrios/L2BB.jpg","null","",NA,NA,NA,NA,""
"image-keyboard-response",58,78744,"0.0-3.15-2.15","6nb6smtjh5u51jt",191,"129.csv","","null","resources/images/fishbone.png","null","",NA,NA,NA,NA,""
"image-keyboard-response",59,79863,"0.0-3.16-0.16","6nb6smtjh5u51jt",191,"129.csv","","1117.199999988079","resources/trios/L1T1A2.jpg","37","restless",0.6,0.3,0.7,0.435051073970974,"true"
"image-keyboard-response",60,80268,"0.0-3.16-1.16","6nb6smtjh5u51jt",191,"129.csv","","null","resources/maskTrios/L1BB.jpg","null","",NA,NA,NA,NA,""
"image-keyboard-response",61,81474,"0.0-3.16-2.16","6nb6smtjh5u51jt",191,"129.csv","","null","resources/images/coin2.png","null","",NA,NA,NA,NA,""
"image-keyboard-response",62,82825,"0.0-3.17-0.17","6nb6smtjh5u51jt",191,"129.csv","","1350","resources/trios/L1T1A3.jpg","37","restless",0.5,0.3,0.7,0.56212183538019,"false"
"image-keyboard-response",63,83229,"0.0-3.17-1.17","6nb6smtjh5u51jt",191,"129.csv","","null","resources/maskTrios/L1BB.jpg","null","",NA,NA,NA,NA,""
"image-keyboard-response",64,84432,"0.0-3.17-2.17","6nb6smtjh5u51jt",191,"129.csv","","null","resources/images/fishbone.png","null","",NA,NA,NA,NA,""
"image-keyboard-response",65,87381,"0.0-3.18-0.18","6nb6smtjh5u51jt",191,"129.csv","","2946.5","resources/trios/L2T2A2.jpg","38","restless",0.5,0.3,0.7,0.0134240571592823,"true"
"image-keyboard-response",66,87782,"0.0-3.18-1.18","6nb6smtjh5u51jt",191,"129.csv","","null","resources/maskTrios/BT2B.jpg","null","",NA,NA,NA,NA,""
"image-keyboard-response",67,88986,"0.0-3.18-2.18","6nb6smtjh5u51jt",191,"129.csv","","null","resources/images/coin2.png","null","",NA,NA,NA,NA,""
"image-keyboard-response",68,90205,"0.0-3.19-0.19","6nb6smtjh5u51jt",191,"129.csv","","1217.8999999910593","resources/trios/L1T2A3.jpg","37","restless",0.5,0.3,0.7,0.442346271386818,"true"
"image-keyboard-response",69,90611,"0.0-3.19-1.19","6nb6smtjh5u51jt",191,"129.csv","","null","resources/maskTrios/L1BB.jpg","null","",NA,NA,NA,NA,""
"image-keyboard-response",70,91813,"0.0-3.19-2.19","6nb6smtjh5u51jt",191,"129.csv","","null","resources/images/coin2.png","null","",NA,NA,NA,NA,""
"image-keyboard-response",71,95035,"0.0-3.20-0.20","6nb6smtjh5u51jt",191,"129.csv","","3220.5","resources/trios/L1T2A2.jpg","37","restless",0.5,0.3,0.7,0.784674834607348,"false"
"image-keyboard-response",72,95439,"0.0-3.20-1.20","6nb6smtjh5u51jt",191,"129.csv","","null","resources/maskTrios/L1BB.jpg","null","",NA,NA,NA,NA,""
"image-keyboard-response",73,96642,"0.0-3.20-2.20","6nb6smtjh5u51jt",191,"129.csv","","null","resources/images/fishbone.png","null","",NA,NA,NA,NA,""
"image-keyboard-response",74,98286,"0.0-3.21-0.21","6nb6smtjh5u51jt",191,"129.csv","","1642.5999999940395","resources/trios/L1T1A3.jpg","37","restless",0.4,0.3,0.6,0.962904023257902,"false"
"image-keyboard-response",75,98689,"0.0-3.21-1.21","6nb6smtjh5u51jt",191,"129.csv","","null","resources/maskTrios/L1BB.jpg","null","",NA,NA,NA,NA,""
"image-keyboard-response",76,99892,"0.0-3.21-2.21","6nb6smtjh5u51jt",191,"129.csv","","null","resources/images/fishbone.png","null","",NA,NA,NA,NA,""
"image-keyboard-response",77,100527,"0.0-3.22-0.22","6nb6smtjh5u51jt",191,"129.csv","","633.7999999970198","resources/trios/L1T2A3.jpg","38","restless",0.4,0.4,0.6,0.611555033796864,"false"
"image-keyboard-response",78,100931,"0.0-3.22-1.22","6nb6smtjh5u51jt",191,"129.csv","","null","resources/maskTrios/BT2B.jpg","null","",NA,NA,NA,NA,""
"image-keyboard-response",79,102138,"0.0-3.22-2.22","6nb6smtjh5u51jt",191,"129.csv","","null","resources/images/fishbone.png","null","",NA,NA,NA,NA,""
"image-keyboard-response",80,103140,"0.0-3.23-0.23","6nb6smtjh5u51jt",191,"129.csv","","1001.3000000119209","resources/trios/L1T1A2.jpg","37","restless",0.4,0.4,0.6,0.834678665630302,"false"
"image-keyboard-response",81,103547,"0.0-3.23-1.23","6nb6smtjh5u51jt",191,"129.csv","","null","resources/maskTrios/L1BB.jpg","null","",NA,NA,NA,NA,""
"image-keyboard-response",82,104752,"0.0-3.23-2.23","6nb6smtjh5u51jt",191,"129.csv","","null","resources/images/fishbone.png","null","",NA,NA,NA,NA,""
"image-keyboard-response",83,105781,"0.0-3.24-0.24","6nb6smtjh5u51jt",191,"129.csv","","1028","resources/trios/L2T1A3.jpg","38","restless",0.4,0.4,0.6,0.0411644057138707,"true"
"image-keyboard-response",84,106188,"0.0-3.24-1.24","6nb6smtjh5u51jt",191,"129.csv","","null","resources/maskTrios/BT1B.jpg","null","",NA,NA,NA,NA,""
"image-keyboard-response",85,107393,"0.0-3.24-2.24","6nb6smtjh5u51jt",191,"129.csv","","null","resources/images/coin2.png","null","",NA,NA,NA,NA,""
"image-keyboard-response",86,108397,"0.0-3.25-0.25","6nb6smtjh5u51jt",191,"129.csv","","1002.7000000029802","resources/trios/L2T2A2.jpg","39","restless",0.4,0.5,0.6,0.898640555548869,"false"
"image-keyboard-response",87,108799,"0.0-3.25-1.25","6nb6smtjh5u51jt",191,"129.csv","","null","resources/maskTrios/BBA2.jpg","null","",NA,NA,NA,NA,""
"image-keyboard-response",88,110002,"0.0-3.25-2.25","6nb6smtjh5u51jt",191,"129.csv","","null","resources/images/fishbone.png","null","",NA,NA,NA,NA,""
"image-keyboard-response",89,110308,"0.0-3.26-0.26","6nb6smtjh5u51jt",191,"129.csv","","305","resources/trios/L2T2A3.jpg","38","restless",0.4,0.5,0.6,0.402060755844766,"true"
"image-keyboard-response",90,110714,"0.0-3.26-1.26","6nb6smtjh5u51jt",191,"129.csv","","null","resources/maskTrios/BT2B.jpg","null","",NA,NA,NA,NA,""
"image-keyboard-response",91,111916,"0.0-3.26-2.26","6nb6smtjh5u51jt",191,"129.csv","","null","resources/images/coin2.png","null","",NA,NA,NA,NA,""
"image-keyboard-response",92,112288,"0.0-3.27-0.27","6nb6smtjh5u51jt",191,"129.csv","","370.70000000298023","resources/trios/L1T2A2.jpg","38","restless",0.4,0.5,0.6,0.726639734479581,"false"
"image-keyboard-response",93,112694,"0.0-3.27-1.27","6nb6smtjh5u51jt",191,"129.csv","","null","resources/maskTrios/BT2B.jpg","null","",NA,NA,NA,NA,""
"image-keyboard-response",94,113901,"0.0-3.27-2.27","6nb6smtjh5u51jt",191,"129.csv","","null","resources/images/fishbone.png","null","",NA,NA,NA,NA,""
"image-keyboard-response",95,114160,"0.0-3.28-0.28","6nb6smtjh5u51jt",191,"129.csv","","258","resources/trios/L2T1A2.jpg","37","restless",0.4,0.5,0.6,0.85753948191628,"false"
"image-keyboard-response",96,114566,"0.0-3.28-1.28","6nb6smtjh5u51jt",191,"129.csv","","null","resources/maskTrios/L2BB.jpg","null","",NA,NA,NA,NA,""
"image-keyboard-response",97,115769,"0.0-3.28-2.28","6nb6smtjh5u51jt",191,"129.csv","","null","resources/images/fishbone.png","null","",NA,NA,NA,NA,""
"image-keyboard-response",98,115810,"0.0-3.29-0.29","6nb6smtjh5u51jt",191,"129.csv","","39.8999999910593","resources/trios/L2T2A3.jpg","38","restless",0.5,0.5,0.6,0.230809974397658,"true"
"image-keyboard-response",99,116212,"0.0-3.29-1.29","6nb6smtjh5u51jt",191,"129.csv","","null","resources/maskTrios/BT2B.jpg","null","",NA,NA,NA,NA,""
"image-keyboard-response",100,117415,"0.0-3.29-2.29","6nb6smtjh5u51jt",191,"129.csv","","null","resources/images/coin2.png","null","",NA,NA,NA,NA,""
"image-keyboard-response",101,118237,"0.0-3.30-0.30","6nb6smtjh5u51jt",191,"129.csv","","821.2999999970198","resources/trios/L1T2A3.jpg","38","restless",0.5,0.5,0.6,0.829821575899024,"false"
"image-keyboard-response",102,118642,"0.0-3.30-1.30","6nb6smtjh5u51jt",191,"129.csv","","null","resources/maskTrios/BT2B.jpg","null","",NA,NA,NA,NA,""
"image-keyboard-response",103,119848,"0.0-3.30-2.30","6nb6smtjh5u51jt",191,"129.csv","","null","resources/images/fishbone.png","null","",NA,NA,NA,NA,""
"image-keyboard-response",104,120199,"0.0-3.31-0.31","6nb6smtjh5u51jt",191,"129.csv","","349.29999999701977","resources/trios/L2T1A2.jpg","37","restless",0.5,0.5,0.6,0.0472593462278283,"true"
"image-keyboard-response",105,120603,"0.0-3.31-1.31","6nb6smtjh5u51jt",191,"129.csv","","null","resources/maskTrios/L2BB.jpg","null","",NA,NA,NA,NA,""
"image-keyboard-response",106,121809,"0.0-3.31-2.31","6nb6smtjh5u51jt",191,"129.csv","","null","resources/images/coin2.png","null","",NA,NA,NA,NA,""
"image-keyboard-response",107,122751,"0.0-3.32-0.32","6nb6smtjh5u51jt",191,"129.csv","","940.9000000059605","resources/trios/L1T2A2.jpg","37","restless",0.5,0.5,0.6,0.714282704865226,"false"
"image-keyboard-response",108,123158,"0.0-3.32-1.32","6nb6smtjh5u51jt",191,"129.csv","","null","resources/maskTrios/L1BB.jpg","null","",NA,NA,NA,NA,""
"image-keyboard-response",109,124359,"0.0-3.32-2.32","6nb6smtjh5u51jt",191,"129.csv","","null","resources/images/fishbone.png","null","",NA,NA,NA,NA,""
"image-keyboard-response",110,125364,"0.0-3.33-0.33","6nb6smtjh5u51jt",191,"129.csv","","1003.9000000059605","resources/trios/L1T2A3.jpg","38","restless",0.5,0.5,0.6,0.873637134871683,"false"
"image-keyboard-response",111,125767,"0.0-3.33-1.33","6nb6smtjh5u51jt",191,"129.csv","","null","resources/maskTrios/BT2B.jpg","null","",NA,NA,NA,NA,""
"image-keyboard-response",112,126968,"0.0-3.33-2.33","6nb6smtjh5u51jt",191,"129.csv","","null","resources/images/fishbone.png","null","",NA,NA,NA,NA,""
"image-keyboard-response",113,128209,"0.0-3.34-0.34","6nb6smtjh5u51jt",191,"129.csv","","1238.8999999910593","resources/trios/L2T1A2.jpg","38","restless",0.6,0.4,0.6,0.253004601227105,"true"
"image-keyboard-response",114,128616,"0.0-3.34-1.34","6nb6smtjh5u51jt",191,"129.csv","","null","resources/maskTrios/BT1B.jpg","null","",NA,NA,NA,NA,""
"image-keyboard-response",115,129822,"0.0-3.34-2.34","6nb6smtjh5u51jt",191,"129.csv","","null","resources/images/coin2.png","null","",NA,NA,NA,NA,""
"image-keyboard-response",116,131268,"0.0-3.35-0.35","6nb6smtjh5u51jt",191,"129.csv","","1444.5","resources/trios/L2T1A2.jpg","37","restless",0.6,0.4,0.6,0.457870454674068,"true"
"image-keyboard-response",117,131675,"0.0-3.35-1.35","6nb6smtjh5u51jt",191,"129.csv","","null","resources/maskTrios/L2BB.jpg","null","",NA,NA,NA,NA,""
"image-keyboard-response",118,132881,"0.0-3.35-2.35","6nb6smtjh5u51jt",191,"129.csv","","null","resources/images/coin2.png","null","",NA,NA,NA,NA,""
"image-keyboard-response",119,134259,"0.0-3.36-0.36","6nb6smtjh5u51jt",191,"129.csv","","1376.5","resources/trios/L2T1A2.jpg","38","restless",0.6,0.3,0.6,0.067333175358786,"true"
"image-keyboard-response",120,134665,"0.0-3.36-1.36","6nb6smtjh5u51jt",191,"129.csv","","null","resources/maskTrios/BT1B.jpg","null","",NA,NA,NA,NA,""
"image-keyboard-response",121,135871,"0.0-3.36-2.36","6nb6smtjh5u51jt",191,"129.csv","","null","resources/images/coin2.png","null","",NA,NA,NA,NA,""
"image-keyboard-response",122,136611,"0.0-3.37-0.37","6nb6smtjh5u51jt",191,"129.csv","","738.5999999940395","resources/trios/L1T2A3.jpg","39","restless",0.6,0.3,0.6,0.967718588437256,"false"
"image-keyboard-response",123,137014,"0.0-3.37-1.37","6nb6smtjh5u51jt",191,"129.csv","","null","resources/maskTrios/BBA3.jpg","null","",NA,NA,NA,NA,""
"image-keyboard-response",124,138218,"0.0-3.37-2.37","6nb6smtjh5u51jt",191,"129.csv","","null","resources/images/fishbone.png","null","",NA,NA,NA,NA,""
"image-keyboard-response",125,139460,"0.0-3.38-0.38","6nb6smtjh5u51jt",191,"129.csv","","1240.7999999970198","resources/trios/L2T1A2.jpg","38","restless",0.6,0.3,0.6,0.365454593187188,"false"
"image-keyboard-response",126,139864,"0.0-3.38-1.38","6nb6smtjh5u51jt",191,"129.csv","","null","resources/maskTrios/BT1B.jpg","null","",NA,NA,NA,NA,""
"image-keyboard-response",127,141065,"0.0-3.38-2.38","6nb6smtjh5u51jt",191,"129.csv","","null","resources/images/fishbone.png","null","",NA,NA,NA,NA,""
"image-keyboard-response",128,141697,"0.0-3.39-0.39","6nb6smtjh5u51jt",191,"129.csv","","630.2000000029802","resources/trios/L2T1A3.jpg","38","restless",0.6,0.3,0.6,0.710559032173107,"false"
"image-keyboard-response",129,142100,"0.0-3.39-1.39","6nb6smtjh5u51jt",191,"129.csv","","null","resources/maskTrios/BT1B.jpg","null","",NA,NA,NA,NA,""
"image-keyboard-response",130,143307,"0.0-3.39-2.39","6nb6smtjh5u51jt",191,"129.csv","","null","resources/images/fishbone.png","null","",NA,NA,NA,NA,""
"image-keyboard-response",131,143937,"0.0-3.40-0.40","6nb6smtjh5u51jt",191,"129.csv","","629.5","resources/trios/L1T2A3.jpg","37","restless",0.6,0.3,0.6,0.443102096879885,"true"
"image-keyboard-response",132,144340,"0.0-3.40-1.40","6nb6smtjh5u51jt",191,"129.csv","","null","resources/maskTrios/L1BB.jpg","null","",NA,NA,NA,NA,""
"image-keyboard-response",133,145546,"0.0-3.40-2.40","6nb6smtjh5u51jt",191,"129.csv","","null","resources/images/coin2.png","null","",NA,NA,NA,NA,""
"image-keyboard-response",134,146625,"0.0-3.41-0.41","6nb6smtjh5u51jt",191,"129.csv","","1077.4000000059605","resources/trios/L2T2A2.jpg","37","restless",0.6,0.3,0.6,0.201071131632303,"true"
"image-keyboard-response",135,147032,"0.0-3.41-1.41","6nb6smtjh5u51jt",191,"129.csv","","null","resources/maskTrios/L2BB.jpg","null","",NA,NA,NA,NA,""
"image-keyboard-response",136,148239,"0.0-3.41-2.41","6nb6smtjh5u51jt",191,"129.csv","","null","resources/images/coin2.png","null","",NA,NA,NA,NA,""
"image-keyboard-response",137,149393,"0.0-3.42-0.42","6nb6smtjh5u51jt",191,"129.csv","","1153.2000000029802","resources/trios/L1T2A2.jpg","37","restless",0.6,0.3,0.6,0.533412769096362,"true"
"image-keyboard-response",138,149799,"0.0-3.42-1.42","6nb6smtjh5u51jt",191,"129.csv","","null","resources/maskTrios/L1BB.jpg","null","",NA,NA,NA,NA,""
"image-keyboard-response",139,151001,"0.0-3.42-2.42","6nb6smtjh5u51jt",191,"129.csv","","null","resources/images/coin2.png","null","",NA,NA,NA,NA,""
"image-keyboard-response",140,152932,"0.0-3.43-0.43","6nb6smtjh5u51jt",191,"129.csv","","1929.699999988079","resources/trios/L2T2A3.jpg","38","restless",0.6,0.3,0.6,0.541926457332407,"false"
"image-keyboard-response",141,153339,"0.0-3.43-1.43","6nb6smtjh5u51jt",191,"129.csv","","null","resources/maskTrios/BT2B.jpg","null","",NA,NA,NA,NA,""
"image-keyboard-response",142,154545,"0.0-3.43-2.43","6nb6smtjh5u51jt",191,"129.csv","","null","resources/images/fishbone.png","null","",NA,NA,NA,NA,""
"image-keyboard-response",143,155178,"0.0-3.44-0.44","6nb6smtjh5u51jt",191,"129.csv","","631.2999999970198","resources/trios/L2T2A2.jpg","39","restless",0.6,0.4,0.6,0.0258933554309078,"true"
"image-keyboard-response",144,155581,"0.0-3.44-1.44","6nb6smtjh5u51jt",191,"129.csv","","null","resources/maskTrios/BBA2.jpg","null","",NA,NA,NA,NA,""
"image-keyboard-response",145,156784,"0.0-3.44-2.44","6nb6smtjh5u51jt",191,"129.csv","","null","resources/images/coin2.png","null","",NA,NA,NA,NA,""
"image-keyboard-response",146,157516,"0.0-3.45-0.45","6nb6smtjh5u51jt",191,"129.csv","","731.3999999910593","resources/trios/L2T2A3.jpg","39","restless",0.6,0.4,0.6,0.890214143493417,"false"
"image-keyboard-response",147,157923,"0.0-3.45-1.45","6nb6smtjh5u51jt",191,"129.csv","","null","resources/maskTrios/BBA3.jpg","null","",NA,NA,NA,NA,""
"image-keyboard-response",148,159129,"0.0-3.45-2.45","6nb6smtjh5u51jt",191,"129.csv","","null","resources/images/fishbone.png","null","",NA,NA,NA,NA,""
"image-keyboard-response",149,159940,"0.0-3.46-0.46","6nb6smtjh5u51jt",191,"129.csv","","809.8000000119209","resources/trios/L1T2A2.jpg","37","restless",0.6,0.4,0.6,0.281822503533631,"true"
"image-keyboard-response",150,160347,"0.0-3.46-1.46","6nb6smtjh5u51jt",191,"129.csv","","null","resources/maskTrios/L1BB.jpg","null","",NA,NA,NA,NA,""
"image-keyboard-response",151,161553,"0.0-3.46-2.46","6nb6smtjh5u51jt",191,"129.csv","","null","resources/images/coin2.png","null","",NA,NA,NA,NA,""
"image-keyboard-response",152,164439,"0.0-3.47-0.47","6nb6smtjh5u51jt",191,"129.csv","","2884.2000000029802","resources/trios/L2T1A2.jpg","39","restless",0.6,0.4,0.5,0.713514461467356,"false"
"image-keyboard-response",153,164846,"0.0-3.47-1.47","6nb6smtjh5u51jt",191,"129.csv","","null","resources/maskTrios/BBA2.jpg","null","",NA,NA,NA,NA,""
"image-keyboard-response",154,166050,"0.0-3.47-2.47","6nb6smtjh5u51jt",191,"129.csv","","null","resources/images/fishbone.png","null","",NA,NA,NA,NA,""
"image-keyboard-response",155,166594,"0.0-3.48-0.48","6nb6smtjh5u51jt",191,"129.csv","","542.7999999970198","resources/trios/L2T2A3.jpg","38","restless",0.6,0.4,0.5,0.348973324938738,"true"
"image-keyboard-response",156,167001,"0.0-3.48-1.48","6nb6smtjh5u51jt",191,"129.csv","","null","resources/maskTrios/BT2B.jpg","null","",NA,NA,NA,NA,""
"image-keyboard-response",157,168207,"0.0-3.48-2.48","6nb6smtjh5u51jt",191,"129.csv","","null","resources/images/coin2.png","null","",NA,NA,NA,NA,""
"image-keyboard-response",158,168861,"0.0-3.49-0.49","6nb6smtjh5u51jt",191,"129.csv","","652.6000000089407","resources/trios/L2T2A3.jpg","38","restless",0.6,0.5,0.5,0.050145487206531,"true"
"image-keyboard-response",159,169268,"0.0-3.49-1.49","6nb6smtjh5u51jt",191,"129.csv","","null","resources/maskTrios/BT2B.jpg","null","",NA,NA,NA,NA,""
"image-keyboard-response",160,170471,"0.0-3.49-2.49","6nb6smtjh5u51jt",191,"129.csv","","null","resources/images/coin2.png","null","",NA,NA,NA,NA,""
"image-keyboard-response",161,171162,"0.0-3.50-0.50","6nb6smtjh5u51jt",191,"129.csv","","689.7999999970198","resources/trios/L2T2A3.jpg","38","restless",0.7,0.6,0.5,0.938768684009136,"false"
"image-keyboard-response",162,171566,"0.0-3.50-1.50","6nb6smtjh5u51jt",191,"129.csv","","null","resources/maskTrios/BT2B.jpg","null","",NA,NA,NA,NA,""
"image-keyboard-response",163,172769,"0.0-3.50-2.50","6nb6smtjh5u51jt",191,"129.csv","","null","resources/images/fishbone.png","null","",NA,NA,NA,NA,""
"image-keyboard-response",164,173446,"0.0-3.51-0.51","6nb6smtjh5u51jt",191,"129.csv","","675.5","resources/trios/L1T2A2.jpg","37","restless",0.7,0.6,0.5,0.24114834292512,"true"
"image-keyboard-response",165,173852,"0.0-3.51-1.51","6nb6smtjh5u51jt",191,"129.csv","","null","resources/maskTrios/L1BB.jpg","null","",NA,NA,NA,NA,""
"image-keyboard-response",166,175059,"0.0-3.51-2.51","6nb6smtjh5u51jt",191,"129.csv","","null","resources/images/coin2.png","null","",NA,NA,NA,NA,""
"image-keyboard-response",167,175388,"0.0-3.52-0.52","6nb6smtjh5u51jt",191,"129.csv","","328.20000000298023","resources/trios/L2T1A2.jpg","37","restless",0.7,0.6,0.5,0.864638972746653,"false"
"image-keyboard-response",168,175795,"0.0-3.52-1.52","6nb6smtjh5u51jt",191,"129.csv","","null","resources/maskTrios/L2BB.jpg","null","",NA,NA,NA,NA,""
"image-keyboard-response",169,177000,"0.0-3.52-2.52","6nb6smtjh5u51jt",191,"129.csv","","null","resources/images/fishbone.png","null","",NA,NA,NA,NA,""
"image-keyboard-response",170,177061,"0.0-3.53-0.53","6nb6smtjh5u51jt",191,"129.csv","","59.3999999910593","resources/trios/L1T2A2.jpg","38","restless",0.7,0.6,0.5,0.67881086778854,"false"
"image-keyboard-response",171,177467,"0.0-3.53-1.53","6nb6smtjh5u51jt",191,"129.csv","","null","resources/maskTrios/BT2B.jpg","null","",NA,NA,NA,NA,""
"image-keyboard-response",172,178673,"0.0-3.53-2.53","6nb6smtjh5u51jt",191,"129.csv","","null","resources/images/fishbone.png","null","",NA,NA,NA,NA,""
"image-keyboard-response",173,178997,"0.0-3.54-0.54","6nb6smtjh5u51jt",191,"129.csv","","322.79999999701977","resources/trios/L1T1A3.jpg","39","restless",0.7,0.6,0.5,0.389519046639723,"true"
"image-keyboard-response",174,179404,"0.0-3.54-1.54","6nb6smtjh5u51jt",191,"129.csv","","null","resources/maskTrios/BBA3.jpg","null","",NA,NA,NA,NA,""
"image-keyboard-response",175,180608,"0.0-3.54-2.54","6nb6smtjh5u51jt",191,"129.csv","","null","resources/images/coin2.png","null","",NA,NA,NA,NA,""
"image-keyboard-response",176,182204,"0.0-3.55-0.55","6nb6smtjh5u51jt",191,"129.csv","","1593.800000011921","resources/trios/L1T2A2.jpg","38","restless",0.7,0.6,0.5,0.158954795676221,"true"
"image-keyboard-response",177,182610,"0.0-3.55-1.55","6nb6smtjh5u51jt",191,"129.csv","","null","resources/maskTrios/BT2B.jpg","null","",NA,NA,NA,NA,""
"image-keyboard-response",178,183817,"0.0-3.55-2.55","6nb6smtjh5u51jt",191,"129.csv","","null","resources/images/coin2.png","null","",NA,NA,NA,NA,""
"image-keyboard-response",179,183935,"0.0-3.56-0.56","6nb6smtjh5u51jt",191,"129.csv","","117.59999999403954","resources/trios/L1T2A3.jpg","37","restless",0.7,0.5,0.5,0.35521560683373,"true"
"image-keyboard-response",180,184341,"0.0-3.56-1.56","6nb6smtjh5u51jt",191,"129.csv","","null","resources/maskTrios/L1BB.jpg","null","",NA,NA,NA,NA,""
"image-keyboard-response",181,185547,"0.0-3.56-2.56","6nb6smtjh5u51jt",191,"129.csv","","null","resources/images/coin2.png","null","",NA,NA,NA,NA,""
"image-keyboard-response",182,186254,"0.0-3.57-0.57","6nb6smtjh5u51jt",191,"129.csv","","704.7999999970198","resources/trios/L1T2A3.jpg","37","restless",0.8,0.5,0.5,0.611052844391937,"true"
"image-keyboard-response",183,186660,"0.0-3.57-1.57","6nb6smtjh5u51jt",191,"129.csv","","null","resources/maskTrios/L1BB.jpg","null","",NA,NA,NA,NA,""
"image-keyboard-response",184,187863,"0.0-3.57-2.57","6nb6smtjh5u51jt",191,"129.csv","","null","resources/images/coin2.png","null","",NA,NA,NA,NA,""
"image-keyboard-response",185,188784,"0.0-3.58-0.58","6nb6smtjh5u51jt",191,"129.csv","","919.2999999970198","resources/trios/L2T1A3.jpg","38","restless",0.8,0.5,0.5,0.409480474176122,"true"
"image-keyboard-response",186,189189,"0.0-3.58-1.58","6nb6smtjh5u51jt",191,"129.csv","","null","resources/maskTrios/BT1B.jpg","null","",NA,NA,NA,NA,""
"image-keyboard-response",187,190394,"0.0-3.58-2.58","6nb6smtjh5u51jt",191,"129.csv","","null","resources/images/coin2.png","null","",NA,NA,NA,NA,""
"image-keyboard-response",188,191702,"0.0-3.59-0.59","6nb6smtjh5u51jt",191,"129.csv","","1306.300000011921","resources/trios/L1T2A2.jpg","38","restless",0.8,0.5,0.5,0.303273202489139,"true"
"image-keyboard-response",189,192109,"0.0-3.59-1.59","6nb6smtjh5u51jt",191,"129.csv","","null","resources/maskTrios/BT2B.jpg","null","",NA,NA,NA,NA,""
"image-keyboard-response",190,193311,"0.0-3.59-2.59","6nb6smtjh5u51jt",191,"129.csv","","null","resources/images/coin2.png","null","",NA,NA,NA,NA,""
"image-keyboard-response",191,193911,"0.0-3.60-0.60","6nb6smtjh5u51jt",191,"129.csv","","597.8000000119209","resources/trios/L1T1A2.jpg","38","restless",0.8,0.6,0.5,0.473136822921653,"true"
"image-keyboard-response",192,194316,"0.0-3.60-1.60","6nb6smtjh5u51jt",191,"129.csv","","null","resources/maskTrios/BT1B.jpg","null","",NA,NA,NA,NA,""
"image-keyboard-response",193,195520,"0.0-3.60-2.60","6nb6smtjh5u51jt",191,"129.csv","","null","resources/images/coin2.png","null","",NA,NA,NA,NA,""
"image-keyboard-response",194,195790,"0.0-3.61-0.61","6nb6smtjh5u51jt",191,"129.csv","","269.1000000089407","resources/trios/L1T1A3.jpg","38","restless",0.8,0.6,0.5,0.226784588412532,"true"
"image-keyboard-response",195,196192,"0.0-3.61-1.61","6nb6smtjh5u51jt",191,"129.csv","","null","resources/maskTrios/BT1B.jpg","null","",NA,NA,NA,NA,""
"image-keyboard-response",196,197395,"0.0-3.61-2.61","6nb6smtjh5u51jt",191,"129.csv","","null","resources/images/coin2.png","null","",NA,NA,NA,NA,""
"image-keyboard-response",197,197749,"0.0-3.62-0.62","6nb6smtjh5u51jt",191,"129.csv","","352.6000000089407","resources/trios/L1T1A3.jpg","38","restless",0.8,0.6,0.5,0.838463394932442,"false"
"image-keyboard-response",198,198156,"0.0-3.62-1.62","6nb6smtjh5u51jt",191,"129.csv","","null","resources/maskTrios/BT1B.jpg","null","",NA,NA,NA,NA,""
"image-keyboard-response",199,199359,"0.0-3.62-2.62","6nb6smtjh5u51jt",191,"129.csv","","null","resources/images/fishbone.png","null","",NA,NA,NA,NA,""
"image-keyboard-response",200,199818,"0.0-3.63-0.63","6nb6smtjh5u51jt",191,"129.csv","","457.90000000596046","resources/trios/L1T2A2.jpg","37","restless",0.8,0.7,0.5,0.00832259625286302,"true"
"image-keyboard-response",201,200223,"0.0-3.63-1.63","6nb6smtjh5u51jt",191,"129.csv","","null","resources/maskTrios/L1BB.jpg","null","",NA,NA,NA,NA,""
"image-keyboard-response",202,201429,"0.0-3.63-2.63","6nb6smtjh5u51jt",191,"129.csv","","null","resources/images/coin2.png","null","",NA,NA,NA,NA,""
"image-keyboard-response",203,201759,"0.0-3.64-0.64","6nb6smtjh5u51jt",191,"129.csv","","329.70000000298023","resources/trios/L2T1A2.jpg","39","restless",0.8,0.7,0.5,0.615431124472254,"false"
"image-keyboard-response",204,202164,"0.0-3.64-1.64","6nb6smtjh5u51jt",191,"129.csv","","null","resources/maskTrios/BBA2.jpg","null","",NA,NA,NA,NA,""
"image-keyboard-response",205,203367,"0.0-3.64-2.64","6nb6smtjh5u51jt",191,"129.csv","","null","resources/images/fishbone.png","null","",NA,NA,NA,NA,""
"image-keyboard-response",206,203556,"0.0-3.65-0.65","6nb6smtjh5u51jt",191,"129.csv","","187.90000000596046","resources/trios/L2T1A3.jpg","37","restless",0.8,0.7,0.5,0.256635679753257,"true"
"image-keyboard-response",207,203958,"0.0-3.65-1.65","6nb6smtjh5u51jt",191,"129.csv","","null","resources/maskTrios/L2BB.jpg","null","",NA,NA,NA,NA,""
"image-keyboard-response",208,205161,"0.0-3.65-2.65","6nb6smtjh5u51jt",191,"129.csv","","null","resources/images/coin2.png","null","",NA,NA,NA,NA,""
"image-keyboard-response",209,205573,"0.0-3.66-0.66","6nb6smtjh5u51jt",191,"129.csv","","410.70000000298023","resources/trios/L1T2A3.jpg","38","restless",0.8,0.6,0.4,0.118054311890267,"true"
"image-keyboard-response",210,205979,"0.0-3.66-1.66","6nb6smtjh5u51jt",191,"129.csv","","null","resources/maskTrios/BT2B.jpg","null","",NA,NA,NA,NA,""
"image-keyboard-response",211,207185,"0.0-3.66-2.66","6nb6smtjh5u51jt",191,"129.csv","","null","resources/images/coin2.png","null","",NA,NA,NA,NA,""
"image-keyboard-response",212,207563,"0.0-3.67-0.67","6nb6smtjh5u51jt",191,"129.csv","","376.79999999701977","resources/trios/L2T1A3.jpg","37","restless",0.8,0.6,0.3,0.954049973444383,"false"
"image-keyboard-response",213,207970,"0.0-3.67-1.67","6nb6smtjh5u51jt",191,"129.csv","","null","resources/maskTrios/L2BB.jpg","null","",NA,NA,NA,NA,""
"image-keyboard-response",214,209176,"0.0-3.67-2.67","6nb6smtjh5u51jt",191,"129.csv","","null","resources/images/fishbone.png","null","",NA,NA,NA,NA,""
"image-keyboard-response",215,209472,"0.0-3.68-0.68","6nb6smtjh5u51jt",191,"129.csv","","295","resources/trios/L1T2A2.jpg","38","restless",0.8,0.6,0.3,0.200620523032969,"true"
"image-keyboard-response",216,209876,"0.0-3.68-1.68","6nb6smtjh5u51jt",191,"129.csv","","null","resources/maskTrios/BT2B.jpg","null","",NA,NA,NA,NA,""
"image-keyboard-response",217,211080,"0.0-3.68-2.68","6nb6smtjh5u51jt",191,"129.csv","","null","resources/images/coin2.png","null","",NA,NA,NA,NA,""
"image-keyboard-response",218,213102,"0.0-3.69-0.69","6nb6smtjh5u51jt",191,"129.csv","","2020.9000000059605","resources/trios/L2T1A2.jpg","37","restless",0.8,0.6,0.3,0.620811617108486,"true"
"image-keyboard-response",219,213507,"0.0-3.69-1.69","6nb6smtjh5u51jt",191,"129.csv","","null","resources/maskTrios/L2BB.jpg","null","",NA,NA,NA,NA,""
"image-keyboard-response",220,214710,"0.0-3.69-2.69","6nb6smtjh5u51jt",191,"129.csv","","null","resources/images/coin2.png","null","",NA,NA,NA,NA,""
"image-keyboard-response",221,216245,"0.0-3.70-0.70","6nb6smtjh5u51jt",191,"129.csv","","1533","resources/trios/L1T1A3.jpg","37","restless",0.8,0.6,0.3,0.17119002232451,"true"
"image-keyboard-response",222,216651,"0.0-3.70-1.70","6nb6smtjh5u51jt",191,"129.csv","","null","resources/maskTrios/L1BB.jpg","null","",NA,NA,NA,NA,""
"image-keyboard-response",223,217853,"0.0-3.70-2.70","6nb6smtjh5u51jt",191,"129.csv","","null","resources/images/coin2.png","null","",NA,NA,NA,NA,""
"image-keyboard-response",224,218799,"0.0-3.71-0.71","6nb6smtjh5u51jt",191,"129.csv","","945.2999999970198","resources/trios/L2T1A3.jpg","37","restless",0.8,0.6,0.4,0.627209341961976,"true"
"image-keyboard-response",225,219204,"0.0-3.71-1.71","6nb6smtjh5u51jt",191,"129.csv","","null","resources/maskTrios/L2BB.jpg","null","",NA,NA,NA,NA,""
"image-keyboard-response",226,220410,"0.0-3.71-2.71","6nb6smtjh5u51jt",191,"129.csv","","null","resources/images/coin2.png","null","",NA,NA,NA,NA,""
"image-keyboard-response",227,221236,"0.0-3.72-0.72","6nb6smtjh5u51jt",191,"129.csv","","824.7000000029802","resources/trios/L2T2A2.jpg","37","restless",0.8,0.6,0.4,0.393296885354009,"true"
"image-keyboard-response",228,221643,"0.0-3.72-1.72","6nb6smtjh5u51jt",191,"129.csv","","null","resources/maskTrios/L2BB.jpg","null","",NA,NA,NA,NA,""
"image-keyboard-response",229,222848,"0.0-3.72-2.72","6nb6smtjh5u51jt",191,"129.csv","","null","resources/images/coin2.png","null","",NA,NA,NA,NA,""
"image-keyboard-response",230,223433,"0.0-3.73-0.73","6nb6smtjh5u51jt",191,"129.csv","","583.2999999970198","resources/trios/L2T2A3.jpg","38","restless",0.8,0.7,0.5,0.382978748855508,"true"
"image-keyboard-response",231,223837,"0.0-3.73-1.73","6nb6smtjh5u51jt",191,"129.csv","","null","resources/maskTrios/BT2B.jpg","null","",NA,NA,NA,NA,""
"image-keyboard-response",232,225044,"0.0-3.73-2.73","6nb6smtjh5u51jt",191,"129.csv","","null","resources/images/coin2.png","null","",NA,NA,NA,NA,""
"image-keyboard-response",233,225346,"0.0-3.74-0.74","6nb6smtjh5u51jt",191,"129.csv","","301.3999999910593","resources/trios/L2T1A2.jpg","38","restless",0.8,0.7,0.5,0.806473285200971,"false"
"image-keyboard-response",234,225748,"0.0-3.74-1.74","6nb6smtjh5u51jt",191,"129.csv","","null","resources/maskTrios/BT1B.jpg","null","",NA,NA,NA,NA,""
"image-keyboard-response",235,226952,"0.0-3.74-2.74","6nb6smtjh5u51jt",191,"129.csv","","null","resources/images/fishbone.png","null","",NA,NA,NA,NA,""
"image-keyboard-response",236,227470,"0.0-3.75-0.75","6nb6smtjh5u51jt",191,"129.csv","","516.6000000089407","resources/trios/L1T1A2.jpg","37","restless",0.8,0.7,0.5,0.443621131070196,"true"
"image-keyboard-response",237,227876,"0.0-3.75-1.75","6nb6smtjh5u51jt",191,"129.csv","","null","resources/maskTrios/L1BB.jpg","null","",NA,NA,NA,NA,""
"image-keyboard-response",238,229078,"0.0-3.75-2.75","6nb6smtjh5u51jt",191,"129.csv","","null","resources/images/coin2.png","null","",NA,NA,NA,NA,""
"image-keyboard-response",239,229608,"0.0-3.76-0.76","6nb6smtjh5u51jt",191,"129.csv","","528.7999999970198","resources/trios/L2T1A2.jpg","38","restless",0.8,0.7,0.5,0.118242920964036,"true"
"image-keyboard-response",240,230015,"0.0-3.76-1.76","6nb6smtjh5u51jt",191,"129.csv","","null","resources/maskTrios/BT1B.jpg","null","",NA,NA,NA,NA,""
"image-keyboard-response",241,231221,"0.0-3.76-2.76","6nb6smtjh5u51jt",191,"129.csv","","null","resources/images/coin2.png","null","",NA,NA,NA,NA,""
"image-keyboard-response",242,231440,"0.0-3.77-0.77","6nb6smtjh5u51jt",191,"129.csv","","217.20000000298023","resources/trios/L1T2A2.jpg","39","restless",0.8,0.7,0.5,0.611515729510326,"false"
"image-keyboard-response",243,231843,"0.0-3.77-1.77","6nb6smtjh5u51jt",191,"129.csv","","null","resources/maskTrios/BBA2.jpg","null","",NA,NA,NA,NA,""
"image-keyboard-response",244,233045,"0.0-3.77-2.77","6nb6smtjh5u51jt",191,"129.csv","","null","resources/images/fishbone.png","null","",NA,NA,NA,NA,""
"image-keyboard-response",245,237901,"0.0-3.78-0.78","6nb6smtjh5u51jt",191,"129.csv","","4853.5999999940395","resources/trios/L1T1A2.jpg","38","restless",0.8,0.7,0.5,0.964940677025381,"false"
"image-keyboard-response",246,238308,"0.0-3.78-1.78","6nb6smtjh5u51jt",191,"129.csv","","null","resources/maskTrios/BT1B.jpg","null","",NA,NA,NA,NA,""
"image-keyboard-response",247,239511,"0.0-3.78-2.78","6nb6smtjh5u51jt",191,"129.csv","","null","resources/images/fishbone.png","null","",NA,NA,NA,NA,""
"image-keyboard-response",248,240804,"0.0-3.79-0.79","6nb6smtjh5u51jt",191,"129.csv","","1291.4000000059605","resources/trios/L1T1A2.jpg","37","restless",0.8,0.7,0.5,0.901322177014279,"false"
"image-keyboard-response",249,241208,"0.0-3.79-1.79","6nb6smtjh5u51jt",191,"129.csv","","null","resources/maskTrios/L1BB.jpg","null","",NA,NA,NA,NA,""
"image-keyboard-response",250,242414,"0.0-3.79-2.79","6nb6smtjh5u51jt",191,"129.csv","","null","resources/images/fishbone.png","null","",NA,NA,NA,NA,""
"image-keyboard-response",251,243041,"0.0-3.80-0.80","6nb6smtjh5u51jt",191,"129.csv","","624.6999999880791","resources/trios/L1T1A3.jpg","38","restless",0.7,0.6,0.5,0.00432666842337692,"true"
"image-keyboard-response",252,243443,"0.0-3.80-1.80","6nb6smtjh5u51jt",191,"129.csv","","null","resources/maskTrios/BT1B.jpg","null","",NA,NA,NA,NA,""
"image-keyboard-response",253,244646,"0.0-3.80-2.80","6nb6smtjh5u51jt",191,"129.csv","","null","resources/images/coin2.png","null","",NA,NA,NA,NA,""
"image-keyboard-response",254,244790,"0.0-3.81-0.81","6nb6smtjh5u51jt",191,"129.csv","","142.70000000298023","resources/trios/L1T1A2.jpg","39","restless",0.7,0.6,0.6,0.283952735749618,"true"
"image-keyboard-response",255,245193,"0.0-3.81-1.81","6nb6smtjh5u51jt",191,"129.csv","","null","resources/maskTrios/BBA2.jpg","null","",NA,NA,NA,NA,""
"image-keyboard-response",256,246396,"0.0-3.81-2.81","6nb6smtjh5u51jt",191,"129.csv","","null","resources/images/coin2.png","null","",NA,NA,NA,NA,""
"image-keyboard-response",257,250519,"0.0-3.82-0.82","6nb6smtjh5u51jt",191,"129.csv","","4121","resources/trios/L1T2A3.jpg","37","restless",0.7,0.6,0.6,0.819388095485862,"false"
"image-keyboard-response",258,250926,"0.0-3.82-1.82","6nb6smtjh5u51jt",191,"129.csv","","null","resources/maskTrios/L1BB.jpg","null","",NA,NA,NA,NA,""
"image-keyboard-response",259,252129,"0.0-3.82-2.82","6nb6smtjh5u51jt",191,"129.csv","","null","resources/images/fishbone.png","null","",NA,NA,NA,NA,""
"image-keyboard-response",260,252607,"0.0-3.83-0.83","6nb6smtjh5u51jt",191,"129.csv","","476.6000000089407","resources/trios/L1T1A3.jpg","38","restless",0.7,0.6,0.6,0.465889561593157,"true"
"image-keyboard-response",261,253012,"0.0-3.83-1.83","6nb6smtjh5u51jt",191,"129.csv","","null","resources/maskTrios/BT1B.jpg","null","",NA,NA,NA,NA,""
"image-keyboard-response",262,254214,"0.0-3.83-2.83","6nb6smtjh5u51jt",191,"129.csv","","null","resources/images/coin2.png","null","",NA,NA,NA,NA,""
"image-keyboard-response",263,254953,"0.0-3.84-0.84","6nb6smtjh5u51jt",191,"129.csv","","738.5","resources/trios/L1T2A2.jpg","38","restless",0.7,0.6,0.6,0.213031961404063,"true"
"image-keyboard-response",264,255358,"0.0-3.84-1.84","6nb6smtjh5u51jt",191,"129.csv","","null","resources/maskTrios/BT2B.jpg","null","",NA,NA,NA,NA,""
"image-keyboard-response",265,256562,"0.0-3.84-2.84","6nb6smtjh5u51jt",191,"129.csv","","null","resources/images/coin2.png","null","",NA,NA,NA,NA,""
"image-keyboard-response",266,258411,"0.0-3.85-0.85","6nb6smtjh5u51jt",191,"129.csv","","1847.5","resources/trios/L2T1A2.jpg","38","restless",0.7,0.6,0.6,0.516520660478948,"true"
"image-keyboard-response",267,258813,"0.0-3.85-1.85","6nb6smtjh5u51jt",191,"129.csv","","null","resources/maskTrios/BT1B.jpg","null","",NA,NA,NA,NA,""
"image-keyboard-response",268,260015,"0.0-3.85-2.85","6nb6smtjh5u51jt",191,"129.csv","","null","resources/images/coin2.png","null","",NA,NA,NA,NA,""
"image-keyboard-response",269,261765,"0.0-3.86-0.86","6nb6smtjh5u51jt",191,"129.csv","","1748.2999999970198","resources/trios/L1T2A2.jpg","37","restless",0.7,0.5,0.6,0.7587032794626,"false"
"image-keyboard-response",270,262167,"0.0-3.86-1.86","6nb6smtjh5u51jt",191,"129.csv","","null","resources/maskTrios/L1BB.jpg","null","",NA,NA,NA,NA,""
"image-keyboard-response",271,263373,"0.0-3.86-2.86","6nb6smtjh5u51jt",191,"129.csv","","null","resources/images/fishbone.png","null","",NA,NA,NA,NA,""
"image-keyboard-response",272,266181,"0.0-3.87-0.87","6nb6smtjh5u51jt",191,"129.csv","","2806.0999999940395","resources/trios/L2T2A2.jpg","37","restless",0.7,0.5,0.6,0.27400256987616,"true"
"image-keyboard-response",273,266583,"0.0-3.87-1.87","6nb6smtjh5u51jt",191,"129.csv","","null","resources/maskTrios/L2BB.jpg","null","",NA,NA,NA,NA,""
"image-keyboard-response",274,267784,"0.0-3.87-2.87","6nb6smtjh5u51jt",191,"129.csv","","null","resources/images/coin2.png","null","",NA,NA,NA,NA,""
"image-keyboard-response",275,273748,"0.0-3.88-0.88","6nb6smtjh5u51jt",191,"129.csv","","5961.899999991059","resources/trios/L2T1A2.jpg","38","restless",0.7,0.4,0.6,0.319640750300175,"true"
"image-keyboard-response",276,274152,"0.0-3.88-1.88","6nb6smtjh5u51jt",191,"129.csv","","null","resources/maskTrios/BT1B.jpg","null","",NA,NA,NA,NA,""
"image-keyboard-response",277,275359,"0.0-3.88-2.88","6nb6smtjh5u51jt",191,"129.csv","","null","resources/images/coin2.png","null","",NA,NA,NA,NA,""
"image-keyboard-response",278,276039,"0.0-3.89-0.89","6nb6smtjh5u51jt",191,"129.csv","","678.8000000119209","resources/trios/L2T2A2.jpg","38","restless",0.7,0.4,0.6,0.280140242538406,"true"
"image-keyboard-response",279,276445,"0.0-3.89-1.89","6nb6smtjh5u51jt",191,"129.csv","","null","resources/maskTrios/BT2B.jpg","null","",NA,NA,NA,NA,""
"image-keyboard-response",280,277649,"0.0-3.89-2.89","6nb6smtjh5u51jt",191,"129.csv","","null","resources/images/coin2.png","null","",NA,NA,NA,NA,""
"image-keyboard-response",281,277846,"0.0-3.90-0.90","6nb6smtjh5u51jt",191,"129.csv","","195.79999999701977","resources/trios/L1T1A3.jpg","37","restless",0.7,0.3,0.6,0.825735548471711,"false"
"image-keyboard-response",282,278252,"0.0-3.90-1.90","6nb6smtjh5u51jt",191,"129.csv","","null","resources/maskTrios/L1BB.jpg","null","",NA,NA,NA,NA,""
"image-keyboard-response",283,279458,"0.0-3.90-2.90","6nb6smtjh5u51jt",191,"129.csv","","null","resources/images/fishbone.png","null","",NA,NA,NA,NA,""
"image-keyboard-response",284,279466,"0.0-3.91-0.91","6nb6smtjh5u51jt",191,"129.csv","","6.799999997019768","resources/trios/L1T2A3.jpg","38","restless",0.7,0.3,0.7,0.1378093923874,"true"
"image-keyboard-response",285,279869,"0.0-3.91-1.91","6nb6smtjh5u51jt",191,"129.csv","","null","resources/maskTrios/BT2B.jpg","null","",NA,NA,NA,NA,""
"image-keyboard-response",286,281076,"0.0-3.91-2.91","6nb6smtjh5u51jt",191,"129.csv","","null","resources/images/coin2.png","null","",NA,NA,NA,NA,""
"image-keyboard-response",287,281706,"0.0-3.92-0.92","6nb6smtjh5u51jt",191,"129.csv","","628.2999999970198","resources/trios/L2T2A2.jpg","38","restless",0.7,0.3,0.7,0.966955947939955,"false"
"image-keyboard-response",288,282108,"0.0-3.92-1.92","6nb6smtjh5u51jt",191,"129.csv","","null","resources/maskTrios/BT2B.jpg","null","",NA,NA,NA,NA,""
"image-keyboard-response",289,283313,"0.0-3.92-2.92","6nb6smtjh5u51jt",191,"129.csv","","null","resources/images/fishbone.png","null","",NA,NA,NA,NA,""
"image-keyboard-response",290,283608,"0.0-3.93-0.93","6nb6smtjh5u51jt",191,"129.csv","","292.90000000596046","resources/trios/L2T1A3.jpg","39","restless",0.7,0.3,0.7,0.755962954290991,"false"
"image-keyboard-response",291,284013,"0.0-3.93-1.93","6nb6smtjh5u51jt",191,"129.csv","","null","resources/maskTrios/BBA3.jpg","null","",NA,NA,NA,NA,""
"image-keyboard-response",292,285219,"0.0-3.93-2.93","6nb6smtjh5u51jt",191,"129.csv","","null","resources/images/fishbone.png","null","",NA,NA,NA,NA,""
"image-keyboard-response",293,285420,"0.0-3.94-0.94","6nb6smtjh5u51jt",191,"129.csv","","199.70000000298023","resources/trios/L1T1A2.jpg","39","restless",0.7,0.3,0.7,0.468515615145551,"true"
"image-keyboard-response",294,285827,"0.0-3.94-1.94","6nb6smtjh5u51jt",191,"129.csv","","null","resources/maskTrios/BBA2.jpg","null","",NA,NA,NA,NA,""
"image-keyboard-response",295,287034,"0.0-3.94-2.94","6nb6smtjh5u51jt",191,"129.csv","","null","resources/images/coin2.png","null","",NA,NA,NA,NA,""
"image-keyboard-response",296,287366,"0.0-3.95-0.95","6nb6smtjh5u51jt",191,"129.csv","","330.5","resources/trios/L2T2A2.jpg","39","restless",0.7,0.3,0.7,0.829614534866786,"false"
"image-keyboard-response",297,287770,"0.0-3.95-1.95","6nb6smtjh5u51jt",191,"129.csv","","null","resources/maskTrios/BBA2.jpg","null","",NA,NA,NA,NA,""
"image-keyboard-response",298,288976,"0.0-3.95-2.95","6nb6smtjh5u51jt",191,"129.csv","","null","resources/images/fishbone.png","null","",NA,NA,NA,NA,""
"image-keyboard-response",299,289302,"0.0-3.96-0.96","6nb6smtjh5u51jt",191,"129.csv","","324.1000000089407","resources/trios/L2T2A2.jpg","37","restless",0.7,0.3,0.7,0.633710248688625,"true"
"image-keyboard-response",300,289707,"0.0-3.96-1.96","6nb6smtjh5u51jt",191,"129.csv","","null","resources/maskTrios/L2BB.jpg","null","",NA,NA,NA,NA,""
"image-keyboard-response",301,290914,"0.0-3.96-2.96","6nb6smtjh5u51jt",191,"129.csv","","null","resources/images/coin2.png","null","",NA,NA,NA,NA,""
"image-keyboard-response",302,291093,"0.0-3.97-0.97","6nb6smtjh5u51jt",191,"129.csv","","178.29999999701977","resources/trios/L1T2A2.jpg","37","restless",0.7,0.3,0.7,0.288317418779369,"true"
"image-keyboard-response",303,291498,"0.0-3.97-1.97","6nb6smtjh5u51jt",191,"129.csv","","null","resources/maskTrios/L1BB.jpg","null","",NA,NA,NA,NA,""
"image-keyboard-response",304,292703,"0.0-3.97-2.97","6nb6smtjh5u51jt",191,"129.csv","","null","resources/images/coin2.png","null","",NA,NA,NA,NA,""
"image-keyboard-response",305,293740,"0.0-3.98-0.98","6nb6smtjh5u51jt",191,"129.csv","","1036","resources/trios/L2T1A2.jpg","38","restless",0.7,0.3,0.7,0.696437246189338,"false"
"image-keyboard-response",306,294144,"0.0-3.98-1.98","6nb6smtjh5u51jt",191,"129.csv","","null","resources/maskTrios/BT1B.jpg","null","",NA,NA,NA,NA,""
"image-keyboard-response",307,295350,"0.0-3.98-2.98","6nb6smtjh5u51jt",191,"129.csv","","null","resources/images/fishbone.png","null","",NA,NA,NA,NA,""
"image-keyboard-response",308,296045,"0.0-3.99-0.99","6nb6smtjh5u51jt",191,"129.csv","","693.7000000029802","resources/trios/L1T2A2.jpg","37","restless",0.7,0.4,0.8,0.646964449657633,"true"
"image-keyboard-response",309,296452,"0.0-3.99-1.99","6nb6smtjh5u51jt",191,"129.csv","","null","resources/maskTrios/L1BB.jpg","null","",NA,NA,NA,NA,""
"image-keyboard-response",310,297658,"0.0-3.99-2.99","6nb6smtjh5u51jt",191,"129.csv","","null","resources/images/coin2.png","null","",NA,NA,NA,NA,""
"image-keyboard-response",311,299179,"0.0-3.100-0.100","6nb6smtjh5u51jt",191,"129.csv","","1519.7000000029802","resources/trios/L1T2A3.jpg","37","restless",0.7,0.4,0.8,0.394950605104224,"true"
"image-keyboard-response",312,299586,"0.0-3.100-1.100","6nb6smtjh5u51jt",191,"129.csv","","null","resources/maskTrios/L1BB.jpg","null","",NA,NA,NA,NA,""
"image-keyboard-response",313,300792,"0.0-3.100-2.100","6nb6smtjh5u51jt",191,"129.csv","","null","resources/images/coin2.png","null","",NA,NA,NA,NA,""
"image-keyboard-response",314,302503,"0.0-3.101-0.101","6nb6smtjh5u51jt",191,"129.csv","","1709.800000011921","resources/trios/L1T1A3.jpg","37","restless",0.8,0.3,0.8,0.666956854635005,"true"
"image-keyboard-response",315,302910,"0.0-3.101-1.101","6nb6smtjh5u51jt",191,"129.csv","","null","resources/maskTrios/L1BB.jpg","null","",NA,NA,NA,NA,""
"image-keyboard-response",316,304114,"0.0-3.101-2.101","6nb6smtjh5u51jt",191,"129.csv","","null","resources/images/coin2.png","null","",NA,NA,NA,NA,""
"image-keyboard-response",317,305124,"0.0-3.102-0.102","6nb6smtjh5u51jt",191,"129.csv","","1008.5","resources/trios/L1T1A3.jpg","37","restless",0.8,0.3,0.8,0.0482180079099839,"true"
"image-keyboard-response",318,305528,"0.0-3.102-1.102","6nb6smtjh5u51jt",191,"129.csv","","null","resources/maskTrios/L1BB.jpg","null","",NA,NA,NA,NA,""
"image-keyboard-response",319,306735,"0.0-3.102-2.102","6nb6smtjh5u51jt",191,"129.csv","","null","resources/images/coin2.png","null","",NA,NA,NA,NA,""
"image-keyboard-response",320,307057,"0.0-3.103-0.103","6nb6smtjh5u51jt",191,"129.csv","","321.29999999701977","resources/trios/L1T2A2.jpg","37","restless",0.7,0.3,0.8,0.149970063803749,"true"
"image-keyboard-response",321,307464,"0.0-3.103-1.103","6nb6smtjh5u51jt",191,"129.csv","","null","resources/maskTrios/L1BB.jpg","null","",NA,NA,NA,NA,""
"image-keyboard-response",322,308670,"0.0-3.103-2.103","6nb6smtjh5u51jt",191,"129.csv","","null","resources/images/coin2.png","null","",NA,NA,NA,NA,""
"image-keyboard-response",323,309389,"0.0-3.104-0.104","6nb6smtjh5u51jt",191,"129.csv","","717.7000000029802","resources/trios/L1T2A2.jpg","39","restless",0.7,0.3,0.8,0.149280333086268,"true"
"image-keyboard-response",324,309793,"0.0-3.104-1.104","6nb6smtjh5u51jt",191,"129.csv","","null","resources/maskTrios/BBA2.jpg","null","",NA,NA,NA,NA,""
"image-keyboard-response",325,311000,"0.0-3.104-2.104","6nb6smtjh5u51jt",191,"129.csv","","null","resources/images/coin2.png","null","",NA,NA,NA,NA,""
"image-keyboard-response",326,311551,"0.0-3.105-0.105","6nb6smtjh5u51jt",191,"129.csv","","550.6000000089407","resources/trios/L2T2A2.jpg","38","restless",0.7,0.3,0.8,0.911552005325728,"false"
"image-keyboard-response",327,311953,"0.0-3.105-1.105","6nb6smtjh5u51jt",191,"129.csv","","null","resources/maskTrios/BT2B.jpg","null","",NA,NA,NA,NA,""
"image-keyboard-response",328,313159,"0.0-3.105-2.105","6nb6smtjh5u51jt",191,"129.csv","","null","resources/images/fishbone.png","null","",NA,NA,NA,NA,""
"image-keyboard-response",329,313799,"0.0-3.106-0.106","6nb6smtjh5u51jt",191,"129.csv","","637.9000000059605","resources/trios/L2T2A2.jpg","37","restless",0.8,0.3,0.8,0.73912250010637,"true"
"image-keyboard-response",330,314202,"0.0-3.106-1.106","6nb6smtjh5u51jt",191,"129.csv","","null","resources/maskTrios/L2BB.jpg","null","",NA,NA,NA,NA,""
"image-keyboard-response",331,315408,"0.0-3.106-2.106","6nb6smtjh5u51jt",191,"129.csv","","null","resources/images/coin2.png","null","",NA,NA,NA,NA,""
"image-keyboard-response",332,321722,"0.0-3.107-0.107","6nb6smtjh5u51jt",191,"129.csv","","6312.70000000298","resources/trios/L2T2A3.jpg","38","restless",0.8,0.3,0.8,0.487299719712637,"false"
"image-keyboard-response",333,322129,"0.0-3.107-1.107","6nb6smtjh5u51jt",191,"129.csv","","null","resources/maskTrios/BT2B.jpg","null","",NA,NA,NA,NA,""
"image-keyboard-response",334,323335,"0.0-3.107-2.107","6nb6smtjh5u51jt",191,"129.csv","","null","resources/images/fishbone.png","null","",NA,NA,NA,NA,""
"image-keyboard-response",335,324006,"0.0-3.108-0.108","6nb6smtjh5u51jt",191,"129.csv","","669.4000000059605","resources/trios/L2T1A2.jpg","37","restless",0.8,0.3,0.8,0.753546280603867,"true"
"image-keyboard-response",336,324410,"0.0-3.108-1.108","6nb6smtjh5u51jt",191,"129.csv","","null","resources/maskTrios/L2BB.jpg","null","",NA,NA,NA,NA,""
"image-keyboard-response",337,325615,"0.0-3.108-2.108","6nb6smtjh5u51jt",191,"129.csv","","null","resources/images/coin2.png","null","",NA,NA,NA,NA,""
"image-keyboard-response",338,326273,"0.0-3.109-0.109","6nb6smtjh5u51jt",191,"129.csv","","656.2999999970198","resources/trios/L1T1A2.jpg","37","restless",0.8,0.3,0.8,0.77032261718745,"true"
"image-keyboard-response",339,326679,"0.0-3.109-1.109","6nb6smtjh5u51jt",191,"129.csv","","null","resources/maskTrios/L1BB.jpg","null","",NA,NA,NA,NA,""
"image-keyboard-response",340,327883,"0.0-3.109-2.109","6nb6smtjh5u51jt",191,"129.csv","","null","resources/images/coin2.png","null","",NA,NA,NA,NA,""
"image-keyboard-response",341,328258,"0.0-3.110-0.110","6nb6smtjh5u51jt",191,"129.csv","","373.69999998807907","resources/trios/L1T2A3.jpg","37","restless",0.8,0.3,0.8,0.873505605927171,"false"
"image-keyboard-response",342,328665,"0.0-3.110-1.110","6nb6smtjh5u51jt",191,"129.csv","","null","resources/maskTrios/L1BB.jpg","null","",NA,NA,NA,NA,""
"image-keyboard-response",343,329871,"0.0-3.110-2.110","6nb6smtjh5u51jt",191,"129.csv","","null","resources/images/fishbone.png","null","",NA,NA,NA,NA,""
"image-keyboard-response",344,330372,"0.0-3.111-0.111","6nb6smtjh5u51jt",191,"129.csv","","500","resources/trios/L1T1A3.jpg","38","restless",0.7,0.3,0.8,0.0130422726454502,"true"
"image-keyboard-response",345,330779,"0.0-3.111-1.111","6nb6smtjh5u51jt",191,"129.csv","","null","resources/maskTrios/BT1B.jpg","null","",NA,NA,NA,NA,""
"image-keyboard-response",346,331985,"0.0-3.111-2.111","6nb6smtjh5u51jt",191,"129.csv","","null","resources/images/coin2.png","null","",NA,NA,NA,NA,""
"image-keyboard-response",347,332982,"0.0-3.112-0.112","6nb6smtjh5u51jt",191,"129.csv","","995.6999999880791","resources/trios/L2T2A3.jpg","37","restless",0.7,0.3,0.7,0.828174872481896,"false"
"image-keyboard-response",348,333389,"0.0-3.112-1.112","6nb6smtjh5u51jt",191,"129.csv","","null","resources/maskTrios/L2BB.jpg","null","",NA,NA,NA,NA,""
"image-keyboard-response",349,334595,"0.0-3.112-2.112","6nb6smtjh5u51jt",191,"129.csv","","null","resources/images/fishbone.png","null","",NA,NA,NA,NA,""
"image-keyboard-response",350,335496,"0.0-3.113-0.113","6nb6smtjh5u51jt",191,"129.csv","","900.2999999970198","resources/trios/L2T1A2.jpg","37","restless",0.8,0.3,0.7,0.931046228123707,"false"
"image-keyboard-response",351,335899,"0.0-3.113-1.113","6nb6smtjh5u51jt",191,"129.csv","","null","resources/maskTrios/L2BB.jpg","null","",NA,NA,NA,NA,""
"image-keyboard-response",352,337105,"0.0-3.113-2.113","6nb6smtjh5u51jt",191,"129.csv","","null","resources/images/fishbone.png","null","",NA,NA,NA,NA,""
"image-keyboard-response",353,339934,"0.0-3.114-0.114","6nb6smtjh5u51jt",191,"129.csv","","2827.2000000029802","resources/trios/L1T1A3.jpg","37","restless",0.8,0.3,0.7,0.451135250058808,"true"
"image-keyboard-response",354,340337,"0.0-3.114-1.114","6nb6smtjh5u51jt",191,"129.csv","","null","resources/maskTrios/L1BB.jpg","null","",NA,NA,NA,NA,""
"image-keyboard-response",355,341539,"0.0-3.114-2.114","6nb6smtjh5u51jt",191,"129.csv","","null","resources/images/coin2.png","null","",NA,NA,NA,NA,""
"image-keyboard-response",356,341814,"0.0-3.115-0.115","6nb6smtjh5u51jt",191,"129.csv","","274","resources/trios/L2T1A3.jpg","38","restless",0.7,0.2,0.7,0.303371180368926,"false"
"image-keyboard-response",357,342217,"0.0-3.115-1.115","6nb6smtjh5u51jt",191,"129.csv","","null","resources/maskTrios/BT1B.jpg","null","",NA,NA,NA,NA,""
"image-keyboard-response",358,343422,"0.0-3.115-2.115","6nb6smtjh5u51jt",191,"129.csv","","null","resources/images/fishbone.png","null","",NA,NA,NA,NA,""
"image-keyboard-response",359,344424,"0.0-3.116-0.116","6nb6smtjh5u51jt",191,"129.csv","","1000.0999999940395","resources/trios/L1T1A3.jpg","37","restless",0.8,0.2,0.6,0.552893560708622,"true"
"image-keyboard-response",360,344830,"0.0-3.116-1.116","6nb6smtjh5u51jt",191,"129.csv","","null","resources/maskTrios/L1BB.jpg","null","",NA,NA,NA,NA,""
"image-keyboard-response",361,346035,"0.0-3.116-2.116","6nb6smtjh5u51jt",191,"129.csv","","null","resources/images/coin2.png","null","",NA,NA,NA,NA,""
"image-keyboard-response",362,346716,"0.0-3.117-0.117","6nb6smtjh5u51jt",191,"129.csv","","679.5","resources/trios/L2T1A2.jpg","39","restless",0.9,0.2,0.6,0.625604371827962,"false"
"image-keyboard-response",363,347118,"0.0-3.117-1.117","6nb6smtjh5u51jt",191,"129.csv","","null","resources/maskTrios/BBA2.jpg","null","",NA,NA,NA,NA,""
"image-keyboard-response",364,348324,"0.0-3.117-2.117","6nb6smtjh5u51jt",191,"129.csv","","null","resources/images/fishbone.png","null","",NA,NA,NA,NA,""
"image-keyboard-response",365,349043,"0.0-3.118-0.118","6nb6smtjh5u51jt",191,"129.csv","","718.2999999970198","resources/trios/L2T1A3.jpg","37","restless",0.9,0.2,0.6,0.45053471219892,"true"
"image-keyboard-response",366,349446,"0.0-3.118-1.118","6nb6smtjh5u51jt",191,"129.csv","","null","resources/maskTrios/L2BB.jpg","null","",NA,NA,NA,NA,""
"image-keyboard-response",367,350651,"0.0-3.118-2.118","6nb6smtjh5u51jt",191,"129.csv","","null","resources/images/coin2.png","null","",NA,NA,NA,NA,""
"image-keyboard-response",368,353105,"0.0-3.119-0.119","6nb6smtjh5u51jt",191,"129.csv","","2452.2000000029802","resources/trios/L2T1A3.jpg","39","restless",0.9,0.2,0.5,0.610262653782487,"false"
"image-keyboard-response",369,353510,"0.0-3.119-1.119","6nb6smtjh5u51jt",191,"129.csv","","null","resources/maskTrios/BBA3.jpg","null","",NA,NA,NA,NA,""
"image-keyboard-response",370,354716,"0.0-3.119-2.119","6nb6smtjh5u51jt",191,"129.csv","","null","resources/images/fishbone.png","null","",NA,NA,NA,NA,""
"image-keyboard-response",371,355226,"0.0-3.120-0.120","6nb6smtjh5u51jt",191,"129.csv","","508.79999999701977","resources/trios/L1T1A3.jpg","37","restless",0.9,0.2,0.5,0.605479037513741,"true"
"image-keyboard-response",372,355628,"0.0-3.120-1.120","6nb6smtjh5u51jt",191,"129.csv","","null","resources/maskTrios/L1BB.jpg","null","",NA,NA,NA,NA,""
"image-keyboard-response",373,356835,"0.0-3.120-2.120","6nb6smtjh5u51jt",191,"129.csv","","null","resources/images/coin2.png","null","",NA,NA,NA,NA,""
"image-keyboard-response",374,358145,"0.0-3.121-0.121","6nb6smtjh5u51jt",191,"129.csv","","1308.7000000029802","resources/trios/L1T1A3.jpg","37","restless",0.9,0.2,0.5,0.148985259362756,"true"
"image-keyboard-response",375,358547,"0.0-3.121-1.121","6nb6smtjh5u51jt",191,"129.csv","","null","resources/maskTrios/L1BB.jpg","null","",NA,NA,NA,NA,""
"image-keyboard-response",376,359754,"0.0-3.121-2.121","6nb6smtjh5u51jt",191,"129.csv","","null","resources/images/coin2.png","null","",NA,NA,NA,NA,""
"image-keyboard-response",377,360187,"0.0-3.122-0.122","6nb6smtjh5u51jt",191,"129.csv","","431.79999999701977","resources/trios/L2T1A2.jpg","38","restless",0.9,0.2,0.5,0.53264347804989,"false"
"image-keyboard-response",378,360593,"0.0-3.122-1.122","6nb6smtjh5u51jt",191,"129.csv","","null","resources/maskTrios/BT1B.jpg","null","",NA,NA,NA,NA,""
"image-keyboard-response",379,361795,"0.0-3.122-2.122","6nb6smtjh5u51jt",191,"129.csv","","null","resources/images/fishbone.png","null","",NA,NA,NA,NA,""
"image-keyboard-response",380,365045,"0.0-3.123-0.123","6nb6smtjh5u51jt",191,"129.csv","","3248","resources/trios/L1T2A3.jpg","37","restless",0.9,0.3,0.5,0.986912535616504,"false"
"image-keyboard-response",381,365448,"0.0-3.123-1.123","6nb6smtjh5u51jt",191,"129.csv","","null","resources/maskTrios/L1BB.jpg","null","",NA,NA,NA,NA,""
"image-keyboard-response",382,366654,"0.0-3.123-2.123","6nb6smtjh5u51jt",191,"129.csv","","null","resources/images/fishbone.png","null","",NA,NA,NA,NA,""
"image-keyboard-response",383,368564,"0.0-3.124-0.124","6nb6smtjh5u51jt",191,"129.csv","","1908.7999999970198","resources/trios/L1T1A2.jpg","38","restless",0.9,0.3,0.5,0.168365446056825,"true"
"image-keyboard-response",384,368967,"0.0-3.124-1.124","6nb6smtjh5u51jt",191,"129.csv","","null","resources/maskTrios/BT1B.jpg","null","",NA,NA,NA,NA,""
"image-keyboard-response",385,370168,"0.0-3.124-2.124","6nb6smtjh5u51jt",191,"129.csv","","null","resources/images/coin2.png","null","",NA,NA,NA,NA,""
"image-keyboard-response",386,372553,"0.0-3.125-0.125","6nb6smtjh5u51jt",191,"129.csv","","2384","resources/trios/L2T1A3.jpg","38","restless",0.9,0.3,0.5,0.0321264146921758,"true"
"image-keyboard-response",387,372968,"0.0-3.125-1.125","6nb6smtjh5u51jt",191,"129.csv","","null","resources/maskTrios/BT1B.jpg","null","",NA,NA,NA,NA,""
"image-keyboard-response",388,374169,"0.0-3.125-2.125","6nb6smtjh5u51jt",191,"129.csv","","null","resources/images/coin2.png","null","",NA,NA,NA,NA,""
"image-keyboard-response",389,376318,"0.0-3.126-0.126","6nb6smtjh5u51jt",191,"129.csv","","2147.6000000089407","resources/trios/L1T1A2.jpg","38","restless",0.9,0.2,0.5,0.412529837195021,"false"
"image-keyboard-response",390,376721,"0.0-3.126-1.126","6nb6smtjh5u51jt",191,"129.csv","","null","resources/maskTrios/BT1B.jpg","null","",NA,NA,NA,NA,""
"image-keyboard-response",391,377927,"0.0-3.126-2.126","6nb6smtjh5u51jt",191,"129.csv","","null","resources/images/fishbone.png","null","",NA,NA,NA,NA,""
"image-keyboard-response",392,378351,"0.0-3.127-0.127","6nb6smtjh5u51jt",191,"129.csv","","422.8999999910593","resources/trios/L1T2A3.jpg","37","restless",0.9,0.2,0.5,0.493689780183801,"true"
"image-keyboard-response",393,378757,"0.0-3.127-1.127","6nb6smtjh5u51jt",191,"129.csv","","null","resources/maskTrios/L1BB.jpg","null","",NA,NA,NA,NA,""
"image-keyboard-response",394,379961,"0.0-3.127-2.127","6nb6smtjh5u51jt",191,"129.csv","","null","resources/images/coin2.png","null","",NA,NA,NA,NA,""
"image-keyboard-response",395,380036,"0.0-3.128-0.128","6nb6smtjh5u51jt",191,"129.csv","","73.70000000298023","resources/trios/L2T1A3.jpg","39","restless",0.9,0.2,0.5,0.705861692047233,"false"
"image-keyboard-response",396,380443,"0.0-3.128-1.128","6nb6smtjh5u51jt",191,"129.csv","","null","resources/maskTrios/BBA3.jpg","null","",NA,NA,NA,NA,""
"image-keyboard-response",397,381648,"0.0-3.128-2.128","6nb6smtjh5u51jt",191,"129.csv","","null","resources/images/fishbone.png","null","",NA,NA,NA,NA,""
"image-keyboard-response",398,381675,"0.0-3.129-0.129","6nb6smtjh5u51jt",191,"129.csv","","25","resources/trios/L1T1A3.jpg","38","restless",0.9,0.2,0.5,0.247851344996569,"false"
"image-keyboard-response",399,382081,"0.0-3.129-1.129","6nb6smtjh5u51jt",191,"129.csv","","null","resources/maskTrios/BT1B.jpg","null","",NA,NA,NA,NA,""
"image-keyboard-response",400,383287,"0.0-3.129-2.129","6nb6smtjh5u51jt",191,"129.csv","","null","resources/images/fishbone.png","null","",NA,NA,NA,NA,""
"image-keyboard-response",401,383612,"0.0-3.130-0.130","6nb6smtjh5u51jt",191,"129.csv","","323.79999999701977","resources/trios/L2T1A2.jpg","37","restless",0.9,0.2,0.5,0.822026261186896,"true"
"image-keyboard-response",402,384018,"0.0-3.130-1.130","6nb6smtjh5u51jt",191,"129.csv","","null","resources/maskTrios/L2BB.jpg","null","",NA,NA,NA,NA,""
"image-keyboard-response",403,385221,"0.0-3.130-2.130","6nb6smtjh5u51jt",191,"129.csv","","null","resources/images/coin2.png","null","",NA,NA,NA,NA,""
"image-keyboard-response",404,385572,"0.0-3.131-0.131","6nb6smtjh5u51jt",191,"129.csv","","349.6000000089407","resources/trios/L1T2A2.jpg","38","restless",0.9,0.3,0.5,0.924220921119157,"false"
"image-keyboard-response",405,385975,"0.0-3.131-1.131","6nb6smtjh5u51jt",191,"129.csv","","null","resources/maskTrios/BT2B.jpg","null","",NA,NA,NA,NA,""
"image-keyboard-response",406,387179,"0.0-3.131-2.131","6nb6smtjh5u51jt",191,"129.csv","","null","resources/images/fishbone.png","null","",NA,NA,NA,NA,""
"image-keyboard-response",407,387365,"0.0-3.132-0.132","6nb6smtjh5u51jt",191,"129.csv","","185.40000000596046","resources/trios/L1T2A2.jpg","39","restless",0.9,0.3,0.5,0.051168419256379,"true"
"image-keyboard-response",408,387769,"0.0-3.132-1.132","6nb6smtjh5u51jt",191,"129.csv","","null","resources/maskTrios/BBA2.jpg","null","",NA,NA,NA,NA,""
"image-keyboard-response",409,388970,"0.0-3.132-2.132","6nb6smtjh5u51jt",191,"129.csv","","null","resources/images/coin2.png","null","",NA,NA,NA,NA,""
"image-keyboard-response",410,389341,"0.0-3.133-0.133","6nb6smtjh5u51jt",191,"129.csv","","369.79999999701977","resources/trios/L2T2A3.jpg","38","restless",0.9,0.3,0.5,0.0603948239832888,"true"
"image-keyboard-response",411,389746,"0.0-3.133-1.133","6nb6smtjh5u51jt",191,"129.csv","","null","resources/maskTrios/BT2B.jpg","null","",NA,NA,NA,NA,""
"image-keyboard-response",412,390953,"0.0-3.133-2.133","6nb6smtjh5u51jt",191,"129.csv","","null","resources/images/coin2.png","null","",NA,NA,NA,NA,""
"image-keyboard-response",413,391309,"0.0-3.134-0.134","6nb6smtjh5u51jt",191,"129.csv","","355","resources/trios/L1T1A2.jpg","38","restless",0.9,0.4,0.5,0.72795388877799,"false"
"image-keyboard-response",414,391716,"0.0-3.134-1.134","6nb6smtjh5u51jt",191,"129.csv","","null","resources/maskTrios/BT1B.jpg","null","",NA,NA,NA,NA,""
"image-keyboard-response",415,392917,"0.0-3.134-2.134","6nb6smtjh5u51jt",191,"129.csv","","null","resources/images/fishbone.png","null","",NA,NA,NA,NA,""
"image-keyboard-response",416,393411,"0.0-3.135-0.135","6nb6smtjh5u51jt",191,"129.csv","","492.29999999701977","resources/trios/L2T2A2.jpg","37","restless",0.9,0.4,0.4,0.707517825031213,"true"
"image-keyboard-response",417,393813,"0.0-3.135-1.135","6nb6smtjh5u51jt",191,"129.csv","","null","resources/maskTrios/L2BB.jpg","null","",NA,NA,NA,NA,""
"image-keyboard-response",418,395018,"0.0-3.135-2.135","6nb6smtjh5u51jt",191,"129.csv","","null","resources/images/coin2.png","null","",NA,NA,NA,NA,""
"image-keyboard-response",419,395414,"0.0-3.136-0.136","6nb6smtjh5u51jt",191,"129.csv","","394.70000000298023","resources/trios/L1T1A2.jpg","37","restless",0.8,0.4,0.4,0.524432815273425,"true"
"image-keyboard-response",420,395820,"0.0-3.136-1.136","6nb6smtjh5u51jt",191,"129.csv","","null","resources/maskTrios/L1BB.jpg","null","",NA,NA,NA,NA,""
"image-keyboard-response",421,397026,"0.0-3.136-2.136","6nb6smtjh5u51jt",191,"129.csv","","null","resources/images/coin2.png","null","",NA,NA,NA,NA,""
"image-keyboard-response",422,397416,"0.0-3.137-0.137","6nb6smtjh5u51jt",191,"129.csv","","388.79999999701977","resources/trios/L2T1A2.jpg","37","restless",0.8,0.4,0.4,0.376489283715163,"true"
"image-keyboard-response",423,397823,"0.0-3.137-1.137","6nb6smtjh5u51jt",191,"129.csv","","null","resources/maskTrios/L2BB.jpg","null","",NA,NA,NA,NA,""
"image-keyboard-response",424,399029,"0.0-3.137-2.137","6nb6smtjh5u51jt",191,"129.csv","","null","resources/images/coin2.png","null","",NA,NA,NA,NA,""
"image-keyboard-response",425,399432,"0.0-3.138-0.138","6nb6smtjh5u51jt",191,"129.csv","","401.40000000596046","resources/trios/L2T2A3.jpg","37","restless",0.8,0.4,0.4,0.906109100468169,"false"
"image-keyboard-response",426,399838,"0.0-3.138-1.138","6nb6smtjh5u51jt",191,"129.csv","","null","resources/maskTrios/L2BB.jpg","null","",NA,NA,NA,NA,""
"image-keyboard-response",427,401042,"0.0-3.138-2.138","6nb6smtjh5u51jt",191,"129.csv","","null","resources/images/fishbone.png","null","",NA,NA,NA,NA,""
"image-keyboard-response",428,401612,"0.0-3.139-0.139","6nb6smtjh5u51jt",191,"129.csv","","568.6000000089407","resources/trios/L2T1A2.jpg","37","restless",0.8,0.4,0.4,0.102658399089951,"true"
"image-keyboard-response",429,402019,"0.0-3.139-1.139","6nb6smtjh5u51jt",191,"129.csv","","null","resources/maskTrios/L2BB.jpg","null","",NA,NA,NA,NA,""
"image-keyboard-response",430,403225,"0.0-3.139-2.139","6nb6smtjh5u51jt",191,"129.csv","","null","resources/images/coin2.png","null","",NA,NA,NA,NA,""
"image-keyboard-response",431,403678,"0.0-3.140-0.140","6nb6smtjh5u51jt",191,"129.csv","","452.20000000298023","resources/trios/L2T1A2.jpg","37","restless",0.8,0.4,0.4,0.111558900656652,"true"
"image-keyboard-response",432,404083,"0.0-3.140-1.140","6nb6smtjh5u51jt",191,"129.csv","","null","resources/maskTrios/L2BB.jpg","null","",NA,NA,NA,NA,""
"image-keyboard-response",433,405284,"0.0-3.140-2.140","6nb6smtjh5u51jt",191,"129.csv","","null","resources/images/coin2.png","null","",NA,NA,NA,NA,""
"image-keyboard-response",434,405855,"0.0-3.141-0.141","6nb6smtjh5u51jt",191,"129.csv","","569","resources/trios/L1T2A2.jpg","37","restless",0.8,0.4,0.4,0.125248909413772,"true"
"image-keyboard-response",435,406261,"0.0-3.141-1.141","6nb6smtjh5u51jt",191,"129.csv","","null","resources/maskTrios/L1BB.jpg","null","",NA,NA,NA,NA,""
"image-keyboard-response",436,407465,"0.0-3.141-2.141","6nb6smtjh5u51jt",191,"129.csv","","null","resources/images/coin2.png","null","",NA,NA,NA,NA,""
"image-keyboard-response",437,407795,"0.0-3.142-0.142","6nb6smtjh5u51jt",191,"129.csv","","329.70000000298023","resources/trios/L1T1A2.jpg","37","restless",0.8,0.4,0.5,0.936845139117638,"false"
"image-keyboard-response",438,408199,"0.0-3.142-1.142","6nb6smtjh5u51jt",191,"129.csv","","null","resources/maskTrios/L1BB.jpg","null","",NA,NA,NA,NA,""
"image-keyboard-response",439,409405,"0.0-3.142-2.142","6nb6smtjh5u51jt",191,"129.csv","","null","resources/images/fishbone.png","null","",NA,NA,NA,NA,""
"image-keyboard-response",440,409874,"0.0-3.143-0.143","6nb6smtjh5u51jt",191,"129.csv","","466.70000000298023","resources/trios/L1T1A2.jpg","37","restless",0.8,0.4,0.5,0.349626879560692,"true"
"image-keyboard-response",441,410278,"0.0-3.143-1.143","6nb6smtjh5u51jt",191,"129.csv","","null","resources/maskTrios/L1BB.jpg","null","",NA,NA,NA,NA,""
"image-keyboard-response",442,411483,"0.0-3.143-2.143","6nb6smtjh5u51jt",191,"129.csv","","null","resources/images/coin2.png","null","",NA,NA,NA,NA,""
"image-keyboard-response",443,412372,"0.0-3.144-0.144","6nb6smtjh5u51jt",191,"129.csv","","887.5","resources/trios/L1T1A3.jpg","37","restless",0.8,0.4,0.5,0.421378895933984,"true"
"image-keyboard-response",444,412775,"0.0-3.144-1.144","6nb6smtjh5u51jt",191,"129.csv","","null","resources/maskTrios/L1BB.jpg","null","",NA,NA,NA,NA,""
"image-keyboard-response",445,413981,"0.0-3.144-2.144","6nb6smtjh5u51jt",191,"129.csv","","null","resources/images/coin2.png","null","",NA,NA,NA,NA,""
"image-keyboard-response",446,414507,"0.0-3.145-0.145","6nb6smtjh5u51jt",191,"129.csv","","524","resources/trios/L1T2A2.jpg","37","restless",0.7,0.4,0.5,0.456283356173003,"true"
"image-keyboard-response",447,414910,"0.0-3.145-1.145","6nb6smtjh5u51jt",191,"129.csv","","null","resources/maskTrios/L1BB.jpg","null","",NA,NA,NA,NA,""
"image-keyboard-response",448,416112,"0.0-3.145-2.145","6nb6smtjh5u51jt",191,"129.csv","","null","resources/images/coin2.png","null","",NA,NA,NA,NA,""
"image-keyboard-response",449,417255,"0.0-3.146-0.146","6nb6smtjh5u51jt",191,"129.csv","","1141.3999999910593","resources/trios/L1T1A2.jpg","37","restless",0.7,0.5,0.5,0.969947575213335,"false"
"image-keyboard-response",450,417661,"0.0-3.146-1.146","6nb6smtjh5u51jt",191,"129.csv","","null","resources/maskTrios/L1BB.jpg","null","",NA,NA,NA,NA,""
"image-keyboard-response",451,418863,"0.0-3.146-2.146","6nb6smtjh5u51jt",191,"129.csv","","null","resources/images/fishbone.png","null","",NA,NA,NA,NA,""
"image-keyboard-response",452,419368,"0.0-3.147-0.147","6nb6smtjh5u51jt",191,"129.csv","","503.09999999403954","resources/trios/L1T2A2.jpg","37","restless",0.7,0.5,0.5,0.524566562823642,"true"
"image-keyboard-response",453,419775,"0.0-3.147-1.147","6nb6smtjh5u51jt",191,"129.csv","","null","resources/maskTrios/L1BB.jpg","null","",NA,NA,NA,NA,""
"image-keyboard-response",454,420981,"0.0-3.147-2.147","6nb6smtjh5u51jt",191,"129.csv","","null","resources/images/coin2.png","null","",NA,NA,NA,NA,""
"image-keyboard-response",455,421345,"0.0-3.148-0.148","6nb6smtjh5u51jt",191,"129.csv","","362.79999999701977","resources/trios/L1T1A3.jpg","37","restless",0.7,0.4,0.5,0.0120543199925425,"true"
"image-keyboard-response",456,421752,"0.0-3.148-1.148","6nb6smtjh5u51jt",191,"129.csv","","null","resources/maskTrios/L1BB.jpg","null","",NA,NA,NA,NA,""
"image-keyboard-response",457,422956,"0.0-3.148-2.148","6nb6smtjh5u51jt",191,"129.csv","","null","resources/images/coin2.png","null","",NA,NA,NA,NA,""
"image-keyboard-response",458,423897,"0.0-3.149-0.149","6nb6smtjh5u51jt",191,"129.csv","","938.5","resources/trios/L2T2A2.jpg","39","restless",0.7,0.4,0.5,0.764747075304573,"false"
"image-keyboard-response",459,424301,"0.0-3.149-1.149","6nb6smtjh5u51jt",191,"129.csv","","null","resources/maskTrios/BBA2.jpg","null","",NA,NA,NA,NA,""
"image-keyboard-response",460,425507,"0.0-3.149-2.149","6nb6smtjh5u51jt",191,"129.csv","","null","resources/images/fishbone.png","null","",NA,NA,NA,NA,""
"image-keyboard-response",461,425987,"0.0-3.150-0.150","6nb6smtjh5u51jt",191,"129.csv","","478.5","resources/trios/L1T1A2.jpg","37","restless",0.7,0.4,0.5,0.302316180808339,"true"
"image-keyboard-response",462,426388,"0.0-3.150-1.150","6nb6smtjh5u51jt",191,"129.csv","","null","resources/maskTrios/L1BB.jpg","null","",NA,NA,NA,NA,""
"image-keyboard-response",463,427594,"0.0-3.150-2.150","6nb6smtjh5u51jt",191,"129.csv","","null","resources/images/coin2.png","null","",NA,NA,NA,NA,""
"image-keyboard-response",464,428152,"0.0-3.151-0.151","6nb6smtjh5u51jt",191,"129.csv","","556.7000000029802","resources/trios/L1T1A3.jpg","37","restless",0.7,0.4,0.5,0.887491451161927,"false"
"image-keyboard-response",465,428558,"0.0-3.151-1.151","6nb6smtjh5u51jt",191,"129.csv","","null","resources/maskTrios/L1BB.jpg","null","",NA,NA,NA,NA,""
"image-keyboard-response",466,429762,"0.0-3.151-2.151","6nb6smtjh5u51jt",191,"129.csv","","null","resources/images/fishbone.png","null","",NA,NA,NA,NA,""
"image-keyboard-response",467,430033,"0.0-3.152-0.152","6nb6smtjh5u51jt",191,"129.csv","","269.79999999701977","resources/trios/L1T1A2.jpg","37","restless",0.7,0.4,0.5,0.398362034801399,"true"
"image-keyboard-response",468,430435,"0.0-3.152-1.152","6nb6smtjh5u51jt",191,"129.csv","","null","resources/maskTrios/L1BB.jpg","null","",NA,NA,NA,NA,""
"image-keyboard-response",469,431636,"0.0-3.152-2.152","6nb6smtjh5u51jt",191,"129.csv","","null","resources/images/coin2.png","null","",NA,NA,NA,NA,""
"image-keyboard-response",470,432081,"0.0-3.153-0.153","6nb6smtjh5u51jt",191,"129.csv","","443.09999999403954","resources/trios/L2T1A2.jpg","37","restless",0.6,0.4,0.6,0.120424935634193,"true"
"image-keyboard-response",471,432483,"0.0-3.153-1.153","6nb6smtjh5u51jt",191,"129.csv","","null","resources/maskTrios/L2BB.jpg","null","",NA,NA,NA,NA,""
"image-keyboard-response",472,433689,"0.0-3.153-2.153","6nb6smtjh5u51jt",191,"129.csv","","null","resources/images/coin2.png","null","",NA,NA,NA,NA,""
"image-keyboard-response",473,433996,"0.0-3.154-0.154","6nb6smtjh5u51jt",191,"129.csv","","305.90000000596046","resources/trios/L1T1A2.jpg","37","restless",0.6,0.4,0.6,0.527932043580329,"true"
"image-keyboard-response",474,434402,"0.0-3.154-1.154","6nb6smtjh5u51jt",191,"129.csv","","null","resources/maskTrios/L1BB.jpg","null","",NA,NA,NA,NA,""
"image-keyboard-response",475,435604,"0.0-3.154-2.154","6nb6smtjh5u51jt",191,"129.csv","","null","resources/images/coin2.png","null","",NA,NA,NA,NA,""
"image-keyboard-response",476,436082,"0.0-3.155-0.155","6nb6smtjh5u51jt",191,"129.csv","","476.90000000596046","resources/trios/L2T2A2.jpg","38","restless",0.6,0.4,0.6,0.0546236317665316,"true"
"image-keyboard-response",477,436483,"0.0-3.155-1.155","6nb6smtjh5u51jt",191,"129.csv","","null","resources/maskTrios/BT2B.jpg","null","",NA,NA,NA,NA,""
"image-keyboard-response",478,437689,"0.0-3.155-2.155","6nb6smtjh5u51jt",191,"129.csv","","null","resources/images/coin2.png","null","",NA,NA,NA,NA,""
"image-keyboard-response",479,438016,"0.0-3.156-0.156","6nb6smtjh5u51jt",191,"129.csv","","325.09999999403954","resources/trios/L1T1A3.jpg","37","restless",0.5,0.4,0.6,0.181681445898484,"true"
"image-keyboard-response",480,438422,"0.0-3.156-1.156","6nb6smtjh5u51jt",191,"129.csv","","null","resources/maskTrios/L1BB.jpg","null","",NA,NA,NA,NA,""
"image-keyboard-response",481,439628,"0.0-3.156-2.156","6nb6smtjh5u51jt",191,"129.csv","","null","resources/images/coin2.png","null","",NA,NA,NA,NA,""
"image-keyboard-response",482,440063,"0.0-3.157-0.157","6nb6smtjh5u51jt",191,"129.csv","","433.90000000596046","resources/trios/L2T2A2.jpg","37","restless",0.5,0.4,0.6,0.836192533235583,"false"
"image-keyboard-response",483,440465,"0.0-3.157-1.157","6nb6smtjh5u51jt",191,"129.csv","","null","resources/maskTrios/L2BB.jpg","null","",NA,NA,NA,NA,""
"image-keyboard-response",484,441672,"0.0-3.157-2.157","6nb6smtjh5u51jt",191,"129.csv","","null","resources/images/fishbone.png","null","",NA,NA,NA,NA,""
"image-keyboard-response",485,442184,"0.0-3.158-0.158","6nb6smtjh5u51jt",191,"129.csv","","511","resources/trios/L2T2A3.jpg","37","restless",0.5,0.5,0.6,0.476548693219234,"true"
"image-keyboard-response",486,442586,"0.0-3.158-1.158","6nb6smtjh5u51jt",191,"129.csv","","null","resources/maskTrios/L2BB.jpg","null","",NA,NA,NA,NA,""
"image-keyboard-response",487,443793,"0.0-3.158-2.158","6nb6smtjh5u51jt",191,"129.csv","","null","resources/images/coin2.png","null","",NA,NA,NA,NA,""
"image-keyboard-response",488,444641,"0.0-3.159-0.159","6nb6smtjh5u51jt",191,"129.csv","","846.5999999940395","resources/trios/L1T2A2.jpg","37","restless",0.5,0.5,0.5,0.234846163656735,"true"
"image-keyboard-response",489,445045,"0.0-3.159-1.159","6nb6smtjh5u51jt",191,"129.csv","","null","resources/maskTrios/L1BB.jpg","null","",NA,NA,NA,NA,""
"image-keyboard-response",490,446251,"0.0-3.159-2.159","6nb6smtjh5u51jt",191,"129.csv","","null","resources/images/coin2.png","null","",NA,NA,NA,NA,""
"image-keyboard-response",491,447148,"0.0-3.160-0.160","6nb6smtjh5u51jt",191,"129.csv","","895.6000000089407","resources/trios/L2T1A3.jpg","37","restless",0.5,0.5,0.5,0.208697419466757,"true"
"image-keyboard-response",492,447555,"0.0-3.160-1.160","6nb6smtjh5u51jt",191,"129.csv","","null","resources/maskTrios/L2BB.jpg","null","",NA,NA,NA,NA,""
"image-keyboard-response",493,448756,"0.0-3.160-2.160","6nb6smtjh5u51jt",191,"129.csv","","null","resources/images/coin2.png","null","",NA,NA,NA,NA,""
"image-keyboard-response",494,449382,"0.0-3.161-0.161","6nb6smtjh5u51jt",191,"129.csv","","624.7000000029802","resources/trios/L1T1A3.jpg","39","restless",0.5,0.5,0.5,0.142269291517045,"true"
"image-keyboard-response",495,449788,"0.0-3.161-1.161","6nb6smtjh5u51jt",191,"129.csv","","null","resources/maskTrios/BBA3.jpg","null","",NA,NA,NA,NA,""
"image-keyboard-response",496,450989,"0.0-3.161-2.161","6nb6smtjh5u51jt",191,"129.csv","","null","resources/images/coin2.png","null","",NA,NA,NA,NA,""
"image-keyboard-response",497,451388,"0.0-3.162-0.162","6nb6smtjh5u51jt",191,"129.csv","","397.70000000298023","resources/trios/L2T2A3.jpg","37","restless",0.5,0.5,0.5,0.462385394487378,"true"
"image-keyboard-response",498,451794,"0.0-3.162-1.162","6nb6smtjh5u51jt",191,"129.csv","","null","resources/maskTrios/L2BB.jpg","null","",NA,NA,NA,NA,""
"image-keyboard-response",499,452996,"0.0-3.162-2.162","6nb6smtjh5u51jt",191,"129.csv","","null","resources/images/coin2.png","null","",NA,NA,NA,NA,""
"image-keyboard-response",500,453350,"0.0-3.163-0.163","6nb6smtjh5u51jt",191,"129.csv","","351.90000000596046","resources/trios/L1T1A3.jpg","37","restless",0.5,0.5,0.5,0.883195968699781,"false"
"image-keyboard-response",501,453753,"0.0-3.163-1.163","6nb6smtjh5u51jt",191,"129.csv","","null","resources/maskTrios/L1BB.jpg","null","",NA,NA,NA,NA,""
"image-keyboard-response",502,454957,"0.0-3.163-2.163","6nb6smtjh5u51jt",191,"129.csv","","null","resources/images/fishbone.png","null","",NA,NA,NA,NA,""
"image-keyboard-response",503,455194,"0.0-3.164-0.164","6nb6smtjh5u51jt",191,"129.csv","","235.3999999910593","resources/trios/L1T2A2.jpg","37","restless",0.5,0.6,0.5,0.641868292535715,"false"
"image-keyboard-response",504,455598,"0.0-3.164-1.164","6nb6smtjh5u51jt",191,"129.csv","","null","resources/maskTrios/L1BB.jpg","null","",NA,NA,NA,NA,""
"image-keyboard-response",505,456802,"0.0-3.164-2.164","6nb6smtjh5u51jt",191,"129.csv","","null","resources/images/fishbone.png","null","",NA,NA,NA,NA,""
"image-keyboard-response",506,457160,"0.0-3.165-0.165","6nb6smtjh5u51jt",191,"129.csv","","356.20000000298023","resources/trios/L2T2A3.jpg","37","restless",0.5,0.6,0.5,0.710030383105956,"false"
"image-keyboard-response",507,457562,"0.0-3.165-1.165","6nb6smtjh5u51jt",191,"129.csv","","null","resources/maskTrios/L2BB.jpg","null","",NA,NA,NA,NA,""
"image-keyboard-response",508,458768,"0.0-3.165-2.165","6nb6smtjh5u51jt",191,"129.csv","","null","resources/images/fishbone.png","null","",NA,NA,NA,NA,""
"image-keyboard-response",509,459142,"0.0-3.166-0.166","6nb6smtjh5u51jt",191,"129.csv","","371.69999998807907","resources/trios/L1T2A3.jpg","37","restless",0.5,0.6,0.5,0.475539065684414,"true"
"image-keyboard-response",510,459548,"0.0-3.166-1.166","6nb6smtjh5u51jt",191,"129.csv","","null","resources/maskTrios/L1BB.jpg","null","",NA,NA,NA,NA,""
"image-keyboard-response",511,460755,"0.0-3.166-2.166","6nb6smtjh5u51jt",191,"129.csv","","null","resources/images/coin2.png","null","",NA,NA,NA,NA,""
"image-keyboard-response",512,461501,"0.0-3.167-0.167","6nb6smtjh5u51jt",191,"129.csv","","744.8999999910593","resources/trios/L2T2A2.jpg","37","restless",0.5,0.6,0.5,0.750762465950101,"false"
"image-keyboard-response",513,461907,"0.0-3.167-1.167","6nb6smtjh5u51jt",191,"129.csv","","null","resources/maskTrios/L2BB.jpg","null","",NA,NA,NA,NA,""
"image-keyboard-response",514,463110,"0.0-3.167-2.167","6nb6smtjh5u51jt",191,"129.csv","","null","resources/images/fishbone.png","null","",NA,NA,NA,NA,""
"image-keyboard-response",515,463665,"0.0-3.168-0.168","6nb6smtjh5u51jt",191,"129.csv","","554","resources/trios/L1T1A3.jpg","37","restless",0.4,0.6,0.5,0.423351165400227,"false"
"image-keyboard-response",516,464069,"0.0-3.168-1.168","6nb6smtjh5u51jt",191,"129.csv","","null","resources/maskTrios/L1BB.jpg","null","",NA,NA,NA,NA,""
"image-keyboard-response",517,465276,"0.0-3.168-2.168","6nb6smtjh5u51jt",191,"129.csv","","null","resources/images/fishbone.png","null","",NA,NA,NA,NA,""
"image-keyboard-response",518,466257,"0.0-3.169-0.169","6nb6smtjh5u51jt",191,"129.csv","","980","resources/trios/L2T2A3.jpg","37","restless",0.4,0.6,0.5,0.129800536767879,"true"
"image-keyboard-response",519,466664,"0.0-3.169-1.169","6nb6smtjh5u51jt",191,"129.csv","","null","resources/maskTrios/L2BB.jpg","null","",NA,NA,NA,NA,""
"image-keyboard-response",520,467866,"0.0-3.169-2.169","6nb6smtjh5u51jt",191,"129.csv","","null","resources/images/coin2.png","null","",NA,NA,NA,NA,""
"image-keyboard-response",521,468420,"0.0-3.170-0.170","6nb6smtjh5u51jt",191,"129.csv","","552.3999999910593","resources/trios/L2T1A3.jpg","37","restless",0.4,0.7,0.5,0.971986184186487,"false"
"image-keyboard-response",522,468825,"0.0-3.170-1.170","6nb6smtjh5u51jt",191,"129.csv","","null","resources/maskTrios/L2BB.jpg","null","",NA,NA,NA,NA,""
"image-keyboard-response",523,470031,"0.0-3.170-2.170","6nb6smtjh5u51jt",191,"129.csv","","null","resources/images/fishbone.png","null","",NA,NA,NA,NA,""
"image-keyboard-response",524,471605,"0.0-3.171-0.171","6nb6smtjh5u51jt",191,"129.csv","","1572.3999999910593","resources/trios/L1T2A3.jpg","37","restless",0.4,0.7,0.5,0.502301262733119,"false"
"image-keyboard-response",525,472008,"0.0-3.171-1.171","6nb6smtjh5u51jt",191,"129.csv","","null","resources/maskTrios/L1BB.jpg","null","",NA,NA,NA,NA,""
"image-keyboard-response",526,473210,"0.0-3.171-2.171","6nb6smtjh5u51jt",191,"129.csv","","null","resources/images/fishbone.png","null","",NA,NA,NA,NA,""
"image-keyboard-response",527,476250,"0.0-3.172-0.172","6nb6smtjh5u51jt",191,"129.csv","","3038.800000011921","resources/trios/L2T1A2.jpg","37","restless",0.4,0.7,0.5,0.935956061853118,"false"
"image-keyboard-response",528,476652,"0.0-3.172-1.172","6nb6smtjh5u51jt",191,"129.csv","","null","resources/maskTrios/L2BB.jpg","null","",NA,NA,NA,NA,""
"image-keyboard-response",529,477856,"0.0-3.172-2.172","6nb6smtjh5u51jt",191,"129.csv","","null","resources/images/fishbone.png","null","",NA,NA,NA,NA,""
"image-keyboard-response",530,478709,"0.0-3.173-0.173","6nb6smtjh5u51jt",191,"129.csv","","851.0999999940395","resources/trios/L1T1A2.jpg","37","restless",0.4,0.7,0.5,0.292320710712361,"true"
"image-keyboard-response",531,479115,"0.0-3.173-1.173","6nb6smtjh5u51jt",191,"129.csv","","null","resources/maskTrios/L1BB.jpg","null","",NA,NA,NA,NA,""
"image-keyboard-response",532,480322,"0.0-3.173-2.173","6nb6smtjh5u51jt",191,"129.csv","","null","resources/images/coin2.png","null","",NA,NA,NA,NA,""
"image-keyboard-response",533,484100,"0.0-3.174-0.174","6nb6smtjh5u51jt",191,"129.csv","","3776.5","resources/trios/L1T2A2.jpg","39","restless",0.4,0.7,0.5,0.281660822308728,"true"
"image-keyboard-response",534,484503,"0.0-3.174-1.174","6nb6smtjh5u51jt",191,"129.csv","","null","resources/maskTrios/BBA2.jpg","null","",NA,NA,NA,NA,""
"image-keyboard-response",535,485709,"0.0-3.174-2.174","6nb6smtjh5u51jt",191,"129.csv","","null","resources/images/coin2.png","null","",NA,NA,NA,NA,""
"image-keyboard-response",536,512225,"0.0-3.175-0.175","6nb6smtjh5u51jt",191,"129.csv","","26513.70000000298","resources/trios/L2T1A3.jpg","39","restless",0.4,0.7,0.5,0.230590299146709,"true"
"image-keyboard-response",537,512633,"0.0-3.175-1.175","6nb6smtjh5u51jt",191,"129.csv","","null","resources/maskTrios/BBA3.jpg","null","",NA,NA,NA,NA,""
"image-keyboard-response",538,513835,"0.0-3.175-2.175","6nb6smtjh5u51jt",191,"129.csv","","null","resources/images/coin2.png","null","",NA,NA,NA,NA,""
"image-keyboard-response",539,515764,"0.0-3.176-0.176","6nb6smtjh5u51jt",191,"129.csv","","1927.1000000089407","resources/trios/L2T2A2.jpg","37","restless",0.4,0.7,0.5,0.468093871215038,"false"
"image-keyboard-response",540,516170,"0.0-3.176-1.176","6nb6smtjh5u51jt",191,"129.csv","","null","resources/maskTrios/L2BB.jpg","null","",NA,NA,NA,NA,""
"image-keyboard-response",541,517371,"0.0-3.176-2.176","6nb6smtjh5u51jt",191,"129.csv","","null","resources/images/fishbone.png","null","",NA,NA,NA,NA,""
"image-keyboard-response",542,518280,"0.0-3.177-0.177","6nb6smtjh5u51jt",191,"129.csv","","907.3999999910593","resources/trios/L2T2A3.jpg","37","restless",0.4,0.7,0.4,0.0547406648447928,"true"
"image-keyboard-response",543,518687,"0.0-3.177-1.177","6nb6smtjh5u51jt",191,"129.csv","","null","resources/maskTrios/L2BB.jpg","null","",NA,NA,NA,NA,""
"image-keyboard-response",544,519888,"0.0-3.177-2.177","6nb6smtjh5u51jt",191,"129.csv","","null","resources/images/coin2.png","null","",NA,NA,NA,NA,""
"image-keyboard-response",545,522301,"0.0-3.178-0.178","6nb6smtjh5u51jt",191,"129.csv","","2411.2999999970198","resources/trios/L1T2A2.jpg","37","restless",0.4,0.7,0.4,0.87940690402792,"false"
"image-keyboard-response",546,522708,"0.0-3.178-1.178","6nb6smtjh5u51jt",191,"129.csv","","null","resources/maskTrios/L1BB.jpg","null","",NA,NA,NA,NA,""
"image-keyboard-response",547,523910,"0.0-3.178-2.178","6nb6smtjh5u51jt",191,"129.csv","","null","resources/images/fishbone.png","null","",NA,NA,NA,NA,""
"image-keyboard-response",548,525313,"0.0-3.179-0.179","6nb6smtjh5u51jt",191,"129.csv","","1401.7999999970198","resources/trios/L2T2A3.jpg","39","restless",0.4,0.7,0.4,0.592747798540113,"false"
"image-keyboard-response",549,525717,"0.0-3.179-1.179","6nb6smtjh5u51jt",191,"129.csv","","null","resources/maskTrios/BBA3.jpg","null","",NA,NA,NA,NA,""
"image-keyboard-response",550,526920,"0.0-3.179-2.179","6nb6smtjh5u51jt",191,"129.csv","","null","resources/images/fishbone.png","null","",NA,NA,NA,NA,""
"image-keyboard-response",551,529853,"0.0-3.180-0.180","6nb6smtjh5u51jt",191,"129.csv","","2930.7000000029802","resources/trios/L2T1A2.jpg","39","restless",0.4,0.7,0.4,0.731197302139013,"false"
"image-keyboard-response",552,530259,"0.0-3.180-1.180","6nb6smtjh5u51jt",191,"129.csv","","null","resources/maskTrios/BBA2.jpg","null","",NA,NA,NA,NA,""
"image-keyboard-response",553,531463,"0.0-3.180-2.180","6nb6smtjh5u51jt",191,"129.csv","","null","resources/images/fishbone.png","null","",NA,NA,NA,NA,""
"image-keyboard-response",554,533592,"0.0-3.181-0.181","6nb6smtjh5u51jt",191,"129.csv","","2128.0999999940395","resources/trios/L2T2A2.jpg","37","restless",0.4,0.7,0.4,0.715010969402588,"false"
"image-keyboard-response",555,533998,"0.0-3.181-1.181","6nb6smtjh5u51jt",191,"129.csv","","null","resources/maskTrios/L2BB.jpg","null","",NA,NA,NA,NA,""
"image-keyboard-response",556,535205,"0.0-3.181-2.181","6nb6smtjh5u51jt",191,"129.csv","","null","resources/images/fishbone.png","null","",NA,NA,NA,NA,""
"image-keyboard-response",557,537840,"0.0-3.182-0.182","6nb6smtjh5u51jt",191,"129.csv","","2634.2999999970198","resources/trios/L1T2A2.jpg","37","restless",0.4,0.7,0.4,0.792390268656636,"false"
"image-keyboard-response",558,538247,"0.0-3.182-1.182","6nb6smtjh5u51jt",191,"129.csv","","null","resources/maskTrios/L1BB.jpg","null","",NA,NA,NA,NA,""
"image-keyboard-response",559,539448,"0.0-3.182-2.182","6nb6smtjh5u51jt",191,"129.csv","","null","resources/images/fishbone.png","null","",NA,NA,NA,NA,""
"image-keyboard-response",560,541429,"0.0-3.183-0.183","6nb6smtjh5u51jt",191,"129.csv","","1979.800000011921","resources/trios/L2T1A3.jpg","38","restless",0.4,0.8,0.4,0.288278499895248,"true"
"image-keyboard-response",561,541834,"0.0-3.183-1.183","6nb6smtjh5u51jt",191,"129.csv","","null","resources/maskTrios/BT1B.jpg","null","",NA,NA,NA,NA,""
"image-keyboard-response",562,543036,"0.0-3.183-2.183","6nb6smtjh5u51jt",191,"129.csv","","null","resources/images/coin2.png","null","",NA,NA,NA,NA,""
"image-keyboard-response",563,544184,"0.0-3.184-0.184","6nb6smtjh5u51jt",191,"129.csv","","1146.7999999970198","resources/trios/L1T2A3.jpg","39","restless",0.4,0.8,0.4,0.0833455726478767,"true"
"image-keyboard-response",564,544591,"0.0-3.184-1.184","6nb6smtjh5u51jt",191,"129.csv","","null","resources/maskTrios/BBA3.jpg","null","",NA,NA,NA,NA,""
"image-keyboard-response",565,545794,"0.0-3.184-2.184","6nb6smtjh5u51jt",191,"129.csv","","null","resources/images/coin2.png","null","",NA,NA,NA,NA,""
"image-keyboard-response",566,546756,"0.0-3.185-0.185","6nb6smtjh5u51jt",191,"129.csv","","960.2000000029802","resources/trios/L2T2A2.jpg","37","restless",0.4,0.8,0.4,0.350323074485374,"true"
"image-keyboard-response",567,547163,"0.0-3.185-1.185","6nb6smtjh5u51jt",191,"129.csv","","null","resources/maskTrios/L2BB.jpg","null","",NA,NA,NA,NA,""
"image-keyboard-response",568,548369,"0.0-3.185-2.185","6nb6smtjh5u51jt",191,"129.csv","","null","resources/images/coin2.png","null","",NA,NA,NA,NA,""
"image-keyboard-response",569,549566,"0.0-3.186-0.186","6nb6smtjh5u51jt",191,"129.csv","","1195.2999999970198","resources/trios/L2T2A2.jpg","37","restless",0.4,0.7,0.4,0.863747498221298,"false"
"image-keyboard-response",570,549968,"0.0-3.186-1.186","6nb6smtjh5u51jt",191,"129.csv","","null","resources/maskTrios/L2BB.jpg","null","",NA,NA,NA,NA,""
"image-keyboard-response",571,551171,"0.0-3.186-2.186","6nb6smtjh5u51jt",191,"129.csv","","null","resources/images/fishbone.png","null","",NA,NA,NA,NA,""
"image-keyboard-response",572,551920,"0.0-3.187-0.187","6nb6smtjh5u51jt",191,"129.csv","","747.2000000029802","resources/trios/L2T2A3.jpg","39","restless",0.4,0.7,0.4,0.359330427135235,"true"
"image-keyboard-response",573,552325,"0.0-3.187-1.187","6nb6smtjh5u51jt",191,"129.csv","","null","resources/maskTrios/BBA3.jpg","null","",NA,NA,NA,NA,""
"image-keyboard-response",574,553530,"0.0-3.187-2.187","6nb6smtjh5u51jt",191,"129.csv","","null","resources/images/coin2.png","null","",NA,NA,NA,NA,""
"image-keyboard-response",575,555130,"0.0-3.188-0.188","6nb6smtjh5u51jt",191,"129.csv","","1598.2000000029802","resources/trios/L1T2A3.jpg","37","restless",0.4,0.7,0.4,0.547268838526257,"false"
"image-keyboard-response",576,555537,"0.0-3.188-1.188","6nb6smtjh5u51jt",191,"129.csv","","null","resources/maskTrios/L1BB.jpg","null","",NA,NA,NA,NA,""
"image-keyboard-response",577,556743,"0.0-3.188-2.188","6nb6smtjh5u51jt",191,"129.csv","","null","resources/images/fishbone.png","null","",NA,NA,NA,NA,""
"image-keyboard-response",578,557442,"0.0-3.189-0.189","6nb6smtjh5u51jt",191,"129.csv","","696.8999999910593","resources/trios/L1T1A3.jpg","37","restless",0.4,0.7,0.4,0.514323265342344,"false"
"image-keyboard-response",579,557846,"0.0-3.189-1.189","6nb6smtjh5u51jt",191,"129.csv","","null","resources/maskTrios/L1BB.jpg","null","",NA,NA,NA,NA,""
"image-keyboard-response",580,559048,"0.0-3.189-2.189","6nb6smtjh5u51jt",191,"129.csv","","null","resources/images/fishbone.png","null","",NA,NA,NA,NA,""
"image-keyboard-response",581,559339,"0.0-3.190-0.190","6nb6smtjh5u51jt",191,"129.csv","","289.90000000596046","resources/trios/L2T1A2.jpg","38","restless",0.4,0.7,0.3,0.606853357547278,"true"
"image-keyboard-response",582,559742,"0.0-3.190-1.190","6nb6smtjh5u51jt",191,"129.csv","","null","resources/maskTrios/BT1B.jpg","null","",NA,NA,NA,NA,""
"image-keyboard-response",583,560949,"0.0-3.190-2.190","6nb6smtjh5u51jt",191,"129.csv","","null","resources/images/coin2.png","null","",NA,NA,NA,NA,""
"image-keyboard-response",584,561432,"0.0-3.191-0.191","6nb6smtjh5u51jt",191,"129.csv","","482.20000000298023","resources/trios/L1T2A2.jpg","37","restless",0.4,0.7,0.3,0.0850914327200829,"true"
"image-keyboard-response",585,561839,"0.0-3.191-1.191","6nb6smtjh5u51jt",191,"129.csv","","null","resources/maskTrios/L1BB.jpg","null","",NA,NA,NA,NA,""
"image-keyboard-response",586,563040,"0.0-3.191-2.191","6nb6smtjh5u51jt",191,"129.csv","","null","resources/images/coin2.png","null","",NA,NA,NA,NA,""
"image-keyboard-response",587,563489,"0.0-3.192-0.192","6nb6smtjh5u51jt",191,"129.csv","","447.5","resources/trios/L1T2A3.jpg","38","restless",0.4,0.7,0.3,0.204592495280297,"true"
"image-keyboard-response",588,563896,"0.0-3.192-1.192","6nb6smtjh5u51jt",191,"129.csv","","null","resources/maskTrios/BT2B.jpg","null","",NA,NA,NA,NA,""
"image-keyboard-response",589,565101,"0.0-3.192-2.192","6nb6smtjh5u51jt",191,"129.csv","","null","resources/images/coin2.png","null","",NA,NA,NA,NA,""
"image-keyboard-response",590,565307,"0.0-3.193-0.193","6nb6smtjh5u51jt",191,"129.csv","","203.8999999910593","resources/trios/L1T1A3.jpg","37","restless",0.4,0.7,0.3,0.841680604476773,"false"
"image-keyboard-response",591,565713,"0.0-3.193-1.193","6nb6smtjh5u51jt",191,"129.csv","","null","resources/maskTrios/L1BB.jpg","null","",NA,NA,NA,NA,""
"image-keyboard-response",592,566914,"0.0-3.193-2.193","6nb6smtjh5u51jt",191,"129.csv","","null","resources/images/fishbone.png","null","",NA,NA,NA,NA,""
"image-keyboard-response",593,569752,"0.0-3.194-0.194","6nb6smtjh5u51jt",191,"129.csv","","2836.300000011921","resources/trios/L1T1A3.jpg","38","restless",0.4,0.7,0.3,0.561245806139144,"true"
"image-keyboard-response",594,570155,"0.0-3.194-1.194","6nb6smtjh5u51jt",191,"129.csv","","null","resources/maskTrios/BT1B.jpg","null","",NA,NA,NA,NA,""
"image-keyboard-response",595,571359,"0.0-3.194-2.194","6nb6smtjh5u51jt",191,"129.csv","","null","resources/images/coin2.png","null","",NA,NA,NA,NA,""
"image-keyboard-response",596,571614,"0.0-3.195-0.195","6nb6smtjh5u51jt",191,"129.csv","","253.5","resources/trios/L1T1A2.jpg","37","restless",0.4,0.7,0.3,0.254293881407056,"true"
"image-keyboard-response",597,572021,"0.0-3.195-1.195","6nb6smtjh5u51jt",191,"129.csv","","null","resources/maskTrios/L1BB.jpg","null","",NA,NA,NA,NA,""
"image-keyboard-response",598,573227,"0.0-3.195-2.195","6nb6smtjh5u51jt",191,"129.csv","","null","resources/images/coin2.png","null","",NA,NA,NA,NA,""
"image-keyboard-response",599,582427,"0.0-3.196-0.196","6nb6smtjh5u51jt",191,"129.csv","","9197.29999999702","resources/trios/L1T1A3.jpg","38","restless",0.4,0.7,0.3,0.0204753952880403,"true"
"image-keyboard-response",600,582834,"0.0-3.196-1.196","6nb6smtjh5u51jt",191,"129.csv","","null","resources/maskTrios/BT1B.jpg","null","",NA,NA,NA,NA,""
"image-keyboard-response",601,584041,"0.0-3.196-2.196","6nb6smtjh5u51jt",191,"129.csv","","null","resources/images/coin2.png","null","",NA,NA,NA,NA,""
"image-keyboard-response",602,585708,"0.0-3.197-0.197","6nb6smtjh5u51jt",191,"129.csv","","1665.7999999970198","resources/trios/L1T2A2.jpg","38","restless",0.4,0.7,0.3,0.603251298236343,"true"
"image-keyboard-response",603,586114,"0.0-3.197-1.197","6nb6smtjh5u51jt",191,"129.csv","","null","resources/maskTrios/BT2B.jpg","null","",NA,NA,NA,NA,""
"image-keyboard-response",604,587321,"0.0-3.197-2.197","6nb6smtjh5u51jt",191,"129.csv","","null","resources/images/coin2.png","null","",NA,NA,NA,NA,""
"image-keyboard-response",605,587423,"0.0-3.198-0.198","6nb6smtjh5u51jt",191,"129.csv","","100.3999999910593","resources/trios/L2T1A2.jpg","37","restless",0.4,0.7,0.3,0.625500782242586,"false"
"image-keyboard-response",606,587828,"0.0-3.198-1.198","6nb6smtjh5u51jt",191,"129.csv","","null","resources/maskTrios/L2BB.jpg","null","",NA,NA,NA,NA,""
