"trial_type","trial_index","time_elapsed","internal_node_id","subject","participantCode","walkNumber","success","rt","stimulus","key_press","test_part","leftProb","midProb","rightProb","generatedNum","correct"
"pavlovia",0,1050,"0.0-0.0","s517gz6lggw555u",140,"152.csv","","","","","",NA,NA,NA,NA,""
"fullscreen",1,4658,"0.0-1.0","s517gz6lggw555u",140,"152.csv","true","","","","",NA,NA,NA,NA,""
"html-keyboard-response",2,7058,"0.0-2.0-0.0","s517gz6lggw555u",140,"152.csv","","2398","<p><font size='6'>Arrrgh!</p></font><p>Can you be the best pirate? Try to find lots of gold! But beware, some islands have more gold than others, and over time, the island with the most gold may change. Can YOU figure it out? </p><font size='6'>GOOD LUCK, CAPTAIN!!!</font><p>Press any key to begin</p>","32","",NA,NA,NA,NA,""
"image-keyboard-response",3,10062,"0.0-2.0-1.0","s517gz6lggw555u",140,"152.csv","","null","resources/image_sets/111.png","null","",NA,NA,NA,NA,""
"image-keyboard-response",4,14230,"0.0-2.0-2.0","s517gz6lggw555u",140,"152.csv","","4166","resources/image_sets/left_highlight.png","37","",NA,NA,NA,NA,""
"image-keyboard-response",5,15772,"0.0-2.0-3.0","s517gz6lggw555u",140,"152.csv","","1541","resources/image_sets/mid_highlight.png","38","",NA,NA,NA,NA,""
"image-keyboard-response",6,16947,"0.0-2.0-4.0","s517gz6lggw555u",140,"152.csv","","1173.5999999046326","resources/image_sets/right_highlight.png","39","",NA,NA,NA,NA,""
"image-keyboard-response",7,19892,"0.0-2.0-5.0","s517gz6lggw555u",140,"152.csv","","2943.7000002861023","resources/image_sets/111.png","13","",NA,NA,NA,NA,""
"image-keyboard-response",8,22057,"0.0-2.0-6.0","s517gz6lggw555u",140,"152.csv","","2164.7000002861023","resources/images/coin2.png","13","",NA,NA,NA,NA,""
"image-keyboard-response",9,23963,"0.0-2.0-7.0","s517gz6lggw555u",140,"152.csv","","1904.7999997138977","resources/images/fishbone.png","13","",NA,NA,NA,NA,""
"html-keyboard-response",10,28175,"0.0-2.0-8.0","s517gz6lggw555u",140,"152.csv","","4210.89999961853","<p>Your first journey will be a long one, but you will get a well deserved break at the end</p><p>After the break you will have four more journeys, but each will be much shorter than the first, and you will have breaks in between each</p><p>Press Enter to begin</p>","13","",NA,NA,NA,NA,""
"image-keyboard-response",11,31792,"0.0-3.0-0.0","s517gz6lggw555u",140,"152.csv","","3615.8999996185303","resources/trios/L2T2A3.jpg","37","restless",0.9,0.3,0.7,0.889785016625343,"true"
"image-keyboard-response",12,32198,"0.0-3.0-1.0","s517gz6lggw555u",140,"152.csv","","null","resources/maskTrios/L2BB.jpg","null","",NA,NA,NA,NA,""
"image-keyboard-response",13,33408,"0.0-3.0-2.0","s517gz6lggw555u",140,"152.csv","","null","resources/images/coin2.png","null","",NA,NA,NA,NA,""
"image-keyboard-response",14,36821,"0.0-3.1-0.1","s517gz6lggw555u",140,"152.csv","","3411.2000002861023","resources/trios/L4T2A3.jpg","38","restless",0.9,0.3,0.7,0.742323200389912,"false"
"image-keyboard-response",15,37226,"0.0-3.1-1.1","s517gz6lggw555u",140,"152.csv","","null","resources/maskTrios/BT2B.jpg","null","",NA,NA,NA,NA,""
"image-keyboard-response",16,38444,"0.0-3.1-2.1","s517gz6lggw555u",140,"152.csv","","null","resources/images/fishbone.png","null","",NA,NA,NA,NA,""
"image-keyboard-response",17,39144,"0.0-3.2-0.2","s517gz6lggw555u",140,"152.csv","","698.5999999046326","resources/trios/L4T4A2.jpg","39","restless",0.9,0.3,0.7,0.931230332104243,"false"
"image-keyboard-response",18,39559,"0.0-3.2-1.2","s517gz6lggw555u",140,"152.csv","","null","resources/maskTrios/BBA2.jpg","null","",NA,NA,NA,NA,""
"image-keyboard-response",19,40768,"0.0-3.2-2.2","s517gz6lggw555u",140,"152.csv","","null","resources/images/fishbone.png","null","",NA,NA,NA,NA,""
"image-keyboard-response",20,42435,"0.0-3.3-0.3","s517gz6lggw555u",140,"152.csv","","1664.6999998092651","resources/trios/L4T4A2.jpg","38","restless",0.9,0.3,0.7,0.467023484458306,"false"
"image-keyboard-response",21,42839,"0.0-3.3-1.3","s517gz6lggw555u",140,"152.csv","","null","resources/maskTrios/BT4B.jpg","null","",NA,NA,NA,NA,""
"image-keyboard-response",22,44045,"0.0-3.3-2.3","s517gz6lggw555u",140,"152.csv","","null","resources/images/fishbone.png","null","",NA,NA,NA,NA,""
"image-keyboard-response",23,44457,"0.0-3.4-0.4","s517gz6lggw555u",140,"152.csv","","409.69999980926514","resources/trios/L2T4A2.jpg","37","restless",0.9,0.3,0.7,0.941067032805867,"false"
"image-keyboard-response",24,44869,"0.0-3.4-1.4","s517gz6lggw555u",140,"152.csv","","null","resources/maskTrios/L2BB.jpg","null","",NA,NA,NA,NA,""
"image-keyboard-response",25,46084,"0.0-3.4-2.4","s517gz6lggw555u",140,"152.csv","","null","resources/images/fishbone.png","null","",NA,NA,NA,NA,""
"image-keyboard-response",26,47469,"0.0-3.5-0.5","s517gz6lggw555u",140,"152.csv","","1383.5","resources/trios/L2T4A3.jpg","39","restless",0.9,0.4,0.7,0.854737400382395,"false"
"image-keyboard-response",27,47886,"0.0-3.5-1.5","s517gz6lggw555u",140,"152.csv","","null","resources/maskTrios/BBA3.jpg","null","",NA,NA,NA,NA,""
"image-keyboard-response",28,49094,"0.0-3.5-2.5","s517gz6lggw555u",140,"152.csv","","null","resources/images/fishbone.png","null","",NA,NA,NA,NA,""
"image-keyboard-response",29,50212,"0.0-3.6-0.6","s517gz6lggw555u",140,"152.csv","","1116.6000003814697","resources/trios/L4T2A3.jpg","38","restless",0.9,0.4,0.7,0.938388965544212,"false"
"image-keyboard-response",30,50630,"0.0-3.6-1.6","s517gz6lggw555u",140,"152.csv","","null","resources/maskTrios/BT2B.jpg","null","",NA,NA,NA,NA,""
"image-keyboard-response",31,51838,"0.0-3.6-2.6","s517gz6lggw555u",140,"152.csv","","null","resources/images/fishbone.png","null","",NA,NA,NA,NA,""
"image-keyboard-response",32,52416,"0.0-3.7-0.7","s517gz6lggw555u",140,"152.csv","","577","resources/trios/L4T2A3.jpg","37","restless",0.8,0.4,0.7,0.996990087940075,"false"
"image-keyboard-response",33,52830,"0.0-3.7-1.7","s517gz6lggw555u",140,"152.csv","","null","resources/maskTrios/L4BB.jpg","null","",NA,NA,NA,NA,""
"image-keyboard-response",34,54042,"0.0-3.7-2.7","s517gz6lggw555u",140,"152.csv","","null","resources/images/fishbone.png","null","",NA,NA,NA,NA,""
"image-keyboard-response",35,54617,"0.0-3.8-0.8","s517gz6lggw555u",140,"152.csv","","574","resources/trios/L2T2A2.jpg","39","restless",0.8,0.4,0.7,0.611034722864253,"true"
"image-keyboard-response",36,55033,"0.0-3.8-1.8","s517gz6lggw555u",140,"152.csv","","null","resources/maskTrios/BBA2.jpg","null","",NA,NA,NA,NA,""
"image-keyboard-response",37,56243,"0.0-3.8-2.8","s517gz6lggw555u",140,"152.csv","","null","resources/images/coin2.png","null","",NA,NA,NA,NA,""
"image-keyboard-response",38,59397,"0.0-3.9-0.9","s517gz6lggw555u",140,"152.csv","","3156","resources/trios/L2T4A2.jpg","37","restless",0.8,0.4,0.7,0.317778371678959,"true"
"image-keyboard-response",39,59802,"0.0-3.9-1.9","s517gz6lggw555u",140,"152.csv","","null","resources/maskTrios/L2BB.jpg","null","",NA,NA,NA,NA,""
"image-keyboard-response",40,61013,"0.0-3.9-2.9","s517gz6lggw555u",140,"152.csv","","null","resources/images/coin2.png","null","",NA,NA,NA,NA,""
"image-keyboard-response",41,61992,"0.0-3.10-0.10","s517gz6lggw555u",140,"152.csv","","973.8000001907349","resources/trios/L4T4A3.jpg","38","restless",0.8,0.4,0.7,0.70976218393116,"false"
"image-keyboard-response",42,62406,"0.0-3.10-1.10","s517gz6lggw555u",140,"152.csv","","null","resources/maskTrios/BT4B.jpg","null","",NA,NA,NA,NA,""
"image-keyboard-response",43,63609,"0.0-3.10-2.10","s517gz6lggw555u",140,"152.csv","","null","resources/images/fishbone.png","null","",NA,NA,NA,NA,""
"image-keyboard-response",44,64049,"0.0-3.11-0.11","s517gz6lggw555u",140,"152.csv","","438.80000019073486","resources/trios/L4T2A2.jpg","39","restless",0.8,0.4,0.7,0.140528398436307,"true"
"image-keyboard-response",45,64463,"0.0-3.11-1.11","s517gz6lggw555u",140,"152.csv","","null","resources/maskTrios/BBA2.jpg","null","",NA,NA,NA,NA,""
"image-keyboard-response",46,65670,"0.0-3.11-2.11","s517gz6lggw555u",140,"152.csv","","null","resources/images/coin2.png","null","",NA,NA,NA,NA,""
"image-keyboard-response",47,66648,"0.0-3.12-0.12","s517gz6lggw555u",140,"152.csv","","976.4000000953674","resources/trios/L4T2A2.jpg","37","restless",0.8,0.4,0.7,0.188520814297124,"true"
"image-keyboard-response",48,67062,"0.0-3.12-1.12","s517gz6lggw555u",140,"152.csv","","null","resources/maskTrios/L4BB.jpg","null","",NA,NA,NA,NA,""
"image-keyboard-response",49,68266,"0.0-3.12-2.12","s517gz6lggw555u",140,"152.csv","","null","resources/images/coin2.png","null","",NA,NA,NA,NA,""
"image-keyboard-response",50,69604,"0.0-3.13-0.13","s517gz6lggw555u",140,"152.csv","","1337.0999999046326","resources/trios/L2T2A2.jpg","38","restless",0.7,0.4,0.7,0.0402551371398185,"true"
"image-keyboard-response",51,70009,"0.0-3.13-1.13","s517gz6lggw555u",140,"152.csv","","null","resources/maskTrios/BT2B.jpg","null","",NA,NA,NA,NA,""
"image-keyboard-response",52,71221,"0.0-3.13-2.13","s517gz6lggw555u",140,"152.csv","","null","resources/images/coin2.png","null","",NA,NA,NA,NA,""
"image-keyboard-response",53,72317,"0.0-3.14-0.14","s517gz6lggw555u",140,"152.csv","","1093.8999996185303","resources/trios/L2T4A3.jpg","39","restless",0.7,0.4,0.7,0.296558440617587,"true"
"image-keyboard-response",54,72725,"0.0-3.14-1.14","s517gz6lggw555u",140,"152.csv","","null","resources/maskTrios/BBA3.jpg","null","",NA,NA,NA,NA,""
"image-keyboard-response",55,73939,"0.0-3.14-2.14","s517gz6lggw555u",140,"152.csv","","null","resources/images/coin2.png","null","",NA,NA,NA,NA,""
"image-keyboard-response",56,74961,"0.0-3.15-0.15","s517gz6lggw555u",140,"152.csv","","1020.7999997138977","resources/trios/L2T2A3.jpg","37","restless",0.7,0.4,0.7,0.189749107603691,"true"
"image-keyboard-response",57,75366,"0.0-3.15-1.15","s517gz6lggw555u",140,"152.csv","","null","resources/maskTrios/L2BB.jpg","null","",NA,NA,NA,NA,""
"image-keyboard-response",58,76579,"0.0-3.15-2.15","s517gz6lggw555u",140,"152.csv","","null","resources/images/coin2.png","null","",NA,NA,NA,NA,""
"image-keyboard-response",59,76904,"0.0-3.16-0.16","s517gz6lggw555u",140,"152.csv","","323.80000019073486","resources/trios/L4T4A2.jpg","38","restless",0.7,0.4,0.7,0.883861978271957,"false"
"image-keyboard-response",60,77319,"0.0-3.16-1.16","s517gz6lggw555u",140,"152.csv","","null","resources/maskTrios/BT4B.jpg","null","",NA,NA,NA,NA,""
"image-keyboard-response",61,78531,"0.0-3.16-2.16","s517gz6lggw555u",140,"152.csv","","null","resources/images/fishbone.png","null","",NA,NA,NA,NA,""
"image-keyboard-response",62,79177,"0.0-3.17-0.17","s517gz6lggw555u",140,"152.csv","","643.7000002861023","resources/trios/L2T4A3.jpg","39","restless",0.7,0.4,0.8,0.44717887944418,"true"
"image-keyboard-response",63,79584,"0.0-3.17-1.17","s517gz6lggw555u",140,"152.csv","","null","resources/maskTrios/BBA3.jpg","null","",NA,NA,NA,NA,""
"image-keyboard-response",64,80797,"0.0-3.17-2.17","s517gz6lggw555u",140,"152.csv","","null","resources/images/coin2.png","null","",NA,NA,NA,NA,""
"image-keyboard-response",65,81234,"0.0-3.18-0.18","s517gz6lggw555u",140,"152.csv","","436","resources/trios/L2T2A3.jpg","38","restless",0.6,0.4,0.8,0.41191513818436,"false"
"image-keyboard-response",66,81651,"0.0-3.18-1.18","s517gz6lggw555u",140,"152.csv","","null","resources/maskTrios/BT2B.jpg","null","",NA,NA,NA,NA,""
"image-keyboard-response",67,82860,"0.0-3.18-2.18","s517gz6lggw555u",140,"152.csv","","null","resources/images/fishbone.png","null","",NA,NA,NA,NA,""
"image-keyboard-response",68,83366,"0.0-3.19-0.19","s517gz6lggw555u",140,"152.csv","","503.5","resources/trios/L2T4A2.jpg","37","restless",0.6,0.4,0.8,0.361453508988795,"true"
"image-keyboard-response",69,83776,"0.0-3.19-1.19","s517gz6lggw555u",140,"152.csv","","null","resources/maskTrios/L2BB.jpg","null","",NA,NA,NA,NA,""
"image-keyboard-response",70,84993,"0.0-3.19-2.19","s517gz6lggw555u",140,"152.csv","","null","resources/images/coin2.png","null","",NA,NA,NA,NA,""
"image-keyboard-response",71,85994,"0.0-3.20-0.20","s517gz6lggw555u",140,"152.csv","","999.5","resources/trios/L2T4A3.jpg","37","restless",0.6,0.4,0.8,0.856378868272663,"false"
"image-keyboard-response",72,86409,"0.0-3.20-1.20","s517gz6lggw555u",140,"152.csv","","null","resources/maskTrios/L2BB.jpg","null","",NA,NA,NA,NA,""
"image-keyboard-response",73,87625,"0.0-3.20-2.20","s517gz6lggw555u",140,"152.csv","","null","resources/images/fishbone.png","null","",NA,NA,NA,NA,""
"image-keyboard-response",74,87992,"0.0-3.21-0.21","s517gz6lggw555u",140,"152.csv","","364.69999980926514","resources/trios/L2T2A3.jpg","39","restless",0.6,0.4,0.8,0.7256184729315,"true"
"image-keyboard-response",75,88407,"0.0-3.21-1.21","s517gz6lggw555u",140,"152.csv","","null","resources/maskTrios/BBA3.jpg","null","",NA,NA,NA,NA,""
"image-keyboard-response",76,89610,"0.0-3.21-2.21","s517gz6lggw555u",140,"152.csv","","null","resources/images/coin2.png","null","",NA,NA,NA,NA,""
"image-keyboard-response",77,90315,"0.0-3.22-0.22","s517gz6lggw555u",140,"152.csv","","703.5","resources/trios/L2T4A3.jpg","38","restless",0.6,0.4,0.8,0.577157371934273,"false"
"image-keyboard-response",78,90722,"0.0-3.22-1.22","s517gz6lggw555u",140,"152.csv","","null","resources/maskTrios/BT4B.jpg","null","",NA,NA,NA,NA,""
"image-keyboard-response",79,91936,"0.0-3.22-2.22","s517gz6lggw555u",140,"152.csv","","null","resources/images/fishbone.png","null","",NA,NA,NA,NA,""
"image-keyboard-response",80,92639,"0.0-3.23-0.23","s517gz6lggw555u",140,"152.csv","","701.4000000953674","resources/trios/L4T2A3.jpg","37","restless",0.6,0.4,0.8,0.135170542914665,"true"
"image-keyboard-response",81,93053,"0.0-3.23-1.23","s517gz6lggw555u",140,"152.csv","","null","resources/maskTrios/L4BB.jpg","null","",NA,NA,NA,NA,""
"image-keyboard-response",82,94263,"0.0-3.23-2.23","s517gz6lggw555u",140,"152.csv","","null","resources/images/coin2.png","null","",NA,NA,NA,NA,""
"image-keyboard-response",83,95781,"0.0-3.24-0.24","s517gz6lggw555u",140,"152.csv","","1516.1999998092651","resources/trios/L2T2A3.jpg","38","restless",0.6,0.4,0.7,0.418706274243879,"false"
"image-keyboard-response",84,96183,"0.0-3.24-1.24","s517gz6lggw555u",140,"152.csv","","null","resources/maskTrios/BT2B.jpg","null","",NA,NA,NA,NA,""
"image-keyboard-response",85,97390,"0.0-3.24-2.24","s517gz6lggw555u",140,"152.csv","","null","resources/images/fishbone.png","null","",NA,NA,NA,NA,""
"image-keyboard-response",86,98995,"0.0-3.25-0.25","s517gz6lggw555u",140,"152.csv","","1604.0999999046326","resources/trios/L2T2A2.jpg","39","restless",0.6,0.4,0.7,0.58157303986334,"true"
"image-keyboard-response",87,99406,"0.0-3.25-1.25","s517gz6lggw555u",140,"152.csv","","null","resources/maskTrios/BBA2.jpg","null","",NA,NA,NA,NA,""
"image-keyboard-response",88,100613,"0.0-3.25-2.25","s517gz6lggw555u",140,"152.csv","","null","resources/images/coin2.png","null","",NA,NA,NA,NA,""
"image-keyboard-response",89,101030,"0.0-3.26-0.26","s517gz6lggw555u",140,"152.csv","","415.59999990463257","resources/trios/L4T4A2.jpg","38","restless",0.6,0.4,0.7,0.655434652335745,"false"
"image-keyboard-response",90,101445,"0.0-3.26-1.26","s517gz6lggw555u",140,"152.csv","","null","resources/maskTrios/BT4B.jpg","null","",NA,NA,NA,NA,""
"image-keyboard-response",91,102654,"0.0-3.26-2.26","s517gz6lggw555u",140,"152.csv","","null","resources/images/fishbone.png","null","",NA,NA,NA,NA,""
"image-keyboard-response",92,102965,"0.0-3.27-0.27","s517gz6lggw555u",140,"152.csv","","309.40000009536743","resources/trios/L4T4A2.jpg","37","restless",0.6,0.4,0.7,0.372524451458905,"true"
"image-keyboard-response",93,103377,"0.0-3.27-1.27","s517gz6lggw555u",140,"152.csv","","null","resources/maskTrios/L4BB.jpg","null","",NA,NA,NA,NA,""
"image-keyboard-response",94,104585,"0.0-3.27-2.27","s517gz6lggw555u",140,"152.csv","","null","resources/images/coin2.png","null","",NA,NA,NA,NA,""
"image-keyboard-response",95,105631,"0.0-3.28-0.28","s517gz6lggw555u",140,"152.csv","","1044.9000000953674","resources/trios/L4T4A2.jpg","38","restless",0.6,0.4,0.7,0.649959750500383,"false"
"image-keyboard-response",96,106045,"0.0-3.28-1.28","s517gz6lggw555u",140,"152.csv","","null","resources/maskTrios/BT4B.jpg","null","",NA,NA,NA,NA,""
"image-keyboard-response",97,107256,"0.0-3.28-2.28","s517gz6lggw555u",140,"152.csv","","null","resources/images/fishbone.png","null","",NA,NA,NA,NA,""
"image-keyboard-response",98,107679,"0.0-3.29-0.29","s517gz6lggw555u",140,"152.csv","","418.5","resources/trios/L4T2A3.jpg","39","restless",0.6,0.4,0.7,0.565992847971247,"true"
"image-keyboard-response",99,108091,"0.0-3.29-1.29","s517gz6lggw555u",140,"152.csv","","null","resources/maskTrios/BBA3.jpg","null","",NA,NA,NA,NA,""
"image-keyboard-response",100,109294,"0.0-3.29-2.29","s517gz6lggw555u",140,"152.csv","","null","resources/images/coin2.png","null","",NA,NA,NA,NA,""
"image-keyboard-response",101,111795,"0.0-3.30-0.30","s517gz6lggw555u",140,"152.csv","","2498.2999997138977","resources/trios/L4T4A3.jpg","37","restless",0.6,0.4,0.7,0.0231016699882058,"true"
"image-keyboard-response",102,112203,"0.0-3.30-1.30","s517gz6lggw555u",140,"152.csv","","null","resources/maskTrios/L4BB.jpg","null","",NA,NA,NA,NA,""
"image-keyboard-response",103,113413,"0.0-3.30-2.30","s517gz6lggw555u",140,"152.csv","","null","resources/images/coin2.png","null","",NA,NA,NA,NA,""
"image-keyboard-response",104,113826,"0.0-3.31-0.31","s517gz6lggw555u",140,"152.csv","","411.40000009536743","resources/trios/L4T4A3.jpg","37","restless",0.6,0.4,0.7,0.693365679937809,"false"
"image-keyboard-response",105,114234,"0.0-3.31-1.31","s517gz6lggw555u",140,"152.csv","","null","resources/maskTrios/L4BB.jpg","null","",NA,NA,NA,NA,""
"image-keyboard-response",106,115437,"0.0-3.31-2.31","s517gz6lggw555u",140,"152.csv","","null","resources/images/fishbone.png","null","",NA,NA,NA,NA,""
"image-keyboard-response",107,115806,"0.0-3.32-0.32","s517gz6lggw555u",140,"152.csv","","366.90000009536743","resources/trios/L2T2A2.jpg","38","restless",0.6,0.4,0.6,0.313662442936606,"true"
"image-keyboard-response",108,116223,"0.0-3.32-1.32","s517gz6lggw555u",140,"152.csv","","null","resources/maskTrios/BT2B.jpg","null","",NA,NA,NA,NA,""
"image-keyboard-response",109,117437,"0.0-3.32-2.32","s517gz6lggw555u",140,"152.csv","","null","resources/images/coin2.png","null","",NA,NA,NA,NA,""
"image-keyboard-response",110,117932,"0.0-3.33-0.33","s517gz6lggw555u",140,"152.csv","","493.09999990463257","resources/trios/L2T4A2.jpg","39","restless",0.6,0.4,0.6,0.218209805303617,"true"
"image-keyboard-response",111,118346,"0.0-3.33-1.33","s517gz6lggw555u",140,"152.csv","","null","resources/maskTrios/BBA2.jpg","null","",NA,NA,NA,NA,""
"image-keyboard-response",112,119557,"0.0-3.33-2.33","s517gz6lggw555u",140,"152.csv","","null","resources/images/coin2.png","null","",NA,NA,NA,NA,""
"image-keyboard-response",113,120664,"0.0-3.34-0.34","s517gz6lggw555u",140,"152.csv","","1105.2999997138977","resources/trios/L2T4A2.jpg","37","restless",0.6,0.4,0.5,0.643383203762179,"false"
"image-keyboard-response",114,121074,"0.0-3.34-1.34","s517gz6lggw555u",140,"152.csv","","null","resources/maskTrios/L2BB.jpg","null","",NA,NA,NA,NA,""
"image-keyboard-response",115,122291,"0.0-3.34-2.34","s517gz6lggw555u",140,"152.csv","","null","resources/images/fishbone.png","null","",NA,NA,NA,NA,""
"image-keyboard-response",116,122632,"0.0-3.35-0.35","s517gz6lggw555u",140,"152.csv","","339.40000009536743","resources/trios/L4T2A3.jpg","38","restless",0.6,0.4,0.5,0.911228091849091,"false"
"image-keyboard-response",117,123037,"0.0-3.35-1.35","s517gz6lggw555u",140,"152.csv","","null","resources/maskTrios/BT2B.jpg","null","",NA,NA,NA,NA,""
"image-keyboard-response",118,124246,"0.0-3.35-2.35","s517gz6lggw555u",140,"152.csv","","null","resources/images/fishbone.png","null","",NA,NA,NA,NA,""
"image-keyboard-response",119,125450,"0.0-3.36-0.36","s517gz6lggw555u",140,"152.csv","","1202.8000001907349","resources/trios/L2T4A2.jpg","39","restless",0.7,0.4,0.5,0.273148812560101,"true"
"image-keyboard-response",120,125866,"0.0-3.36-1.36","s517gz6lggw555u",140,"152.csv","","null","resources/maskTrios/BBA2.jpg","null","",NA,NA,NA,NA,""
"image-keyboard-response",121,127077,"0.0-3.36-2.36","s517gz6lggw555u",140,"152.csv","","null","resources/images/coin2.png","null","",NA,NA,NA,NA,""
"image-keyboard-response",122,128304,"0.0-3.37-0.37","s517gz6lggw555u",140,"152.csv","","1225.5999999046326","resources/trios/L2T4A2.jpg","37","restless",0.7,0.5,0.5,0.565664069060456,"true"
"image-keyboard-response",123,128716,"0.0-3.37-1.37","s517gz6lggw555u",140,"152.csv","","null","resources/maskTrios/L2BB.jpg","null","",NA,NA,NA,NA,""
"image-keyboard-response",124,129920,"0.0-3.37-2.37","s517gz6lggw555u",140,"152.csv","","null","resources/images/coin2.png","null","",NA,NA,NA,NA,""
"image-keyboard-response",125,132090,"0.0-3.38-0.38","s517gz6lggw555u",140,"152.csv","","2167.7000002861023","resources/trios/L2T2A2.jpg","38","restless",0.7,0.4,0.5,0.338120518682715,"true"
"image-keyboard-response",126,132496,"0.0-3.38-1.38","s517gz6lggw555u",140,"152.csv","","null","resources/maskTrios/BT2B.jpg","null","",NA,NA,NA,NA,""
"image-keyboard-response",127,133706,"0.0-3.38-2.38","s517gz6lggw555u",140,"152.csv","","null","resources/images/coin2.png","null","",NA,NA,NA,NA,""
"image-keyboard-response",128,134182,"0.0-3.39-0.39","s517gz6lggw555u",140,"152.csv","","474.1000003814697","resources/trios/L2T4A2.jpg","39","restless",0.7,0.4,0.5,0.323666806714947,"true"
"image-keyboard-response",129,134586,"0.0-3.39-1.39","s517gz6lggw555u",140,"152.csv","","null","resources/maskTrios/BBA2.jpg","null","",NA,NA,NA,NA,""
"image-keyboard-response",130,135795,"0.0-3.39-2.39","s517gz6lggw555u",140,"152.csv","","null","resources/images/coin2.png","null","",NA,NA,NA,NA,""
"image-keyboard-response",131,136755,"0.0-3.40-0.40","s517gz6lggw555u",140,"152.csv","","958","resources/trios/L4T2A3.jpg","37","restless",0.7,0.4,0.5,0.538650020147648,"true"
"image-keyboard-response",132,137157,"0.0-3.40-1.40","s517gz6lggw555u",140,"152.csv","","null","resources/maskTrios/L4BB.jpg","null","",NA,NA,NA,NA,""
"image-keyboard-response",133,138372,"0.0-3.40-2.40","s517gz6lggw555u",140,"152.csv","","null","resources/images/coin2.png","null","",NA,NA,NA,NA,""
"image-keyboard-response",134,138803,"0.0-3.41-0.41","s517gz6lggw555u",140,"152.csv","","428.7000002861023","resources/trios/L2T2A3.jpg","38","restless",0.7,0.4,0.5,0.203149102057755,"true"
"image-keyboard-response",135,139215,"0.0-3.41-1.41","s517gz6lggw555u",140,"152.csv","","null","resources/maskTrios/BT2B.jpg","null","",NA,NA,NA,NA,""
"image-keyboard-response",136,140419,"0.0-3.41-2.41","s517gz6lggw555u",140,"152.csv","","null","resources/images/coin2.png","null","",NA,NA,NA,NA,""
"image-keyboard-response",137,141279,"0.0-3.42-0.42","s517gz6lggw555u",140,"152.csv","","858.3999996185303","resources/trios/L2T4A3.jpg","39","restless",0.7,0.4,0.5,0.873423722875589,"false"
"image-keyboard-response",138,141695,"0.0-3.42-1.42","s517gz6lggw555u",140,"152.csv","","null","resources/maskTrios/BBA3.jpg","null","",NA,NA,NA,NA,""
"image-keyboard-response",139,142910,"0.0-3.42-2.42","s517gz6lggw555u",140,"152.csv","","null","resources/images/fishbone.png","null","",NA,NA,NA,NA,""
"image-keyboard-response",140,143534,"0.0-3.43-0.43","s517gz6lggw555u",140,"152.csv","","621.4000000953674","resources/trios/L2T4A3.jpg","38","restless",0.7,0.4,0.5,0.87932907963356,"false"
"image-keyboard-response",141,143944,"0.0-3.43-1.43","s517gz6lggw555u",140,"152.csv","","null","resources/maskTrios/BT4B.jpg","null","",NA,NA,NA,NA,""
"image-keyboard-response",142,145156,"0.0-3.43-2.43","s517gz6lggw555u",140,"152.csv","","null","resources/images/fishbone.png","null","",NA,NA,NA,NA,""
"image-keyboard-response",143,145995,"0.0-3.44-0.44","s517gz6lggw555u",140,"152.csv","","837.1999998092651","resources/trios/L2T4A3.jpg","37","restless",0.7,0.4,0.5,0.237931737239306,"true"
"image-keyboard-response",144,146408,"0.0-3.44-1.44","s517gz6lggw555u",140,"152.csv","","null","resources/maskTrios/L2BB.jpg","null","",NA,NA,NA,NA,""
"image-keyboard-response",145,147613,"0.0-3.44-2.44","s517gz6lggw555u",140,"152.csv","","null","resources/images/coin2.png","null","",NA,NA,NA,NA,""
"image-keyboard-response",146,148047,"0.0-3.45-0.45","s517gz6lggw555u",140,"152.csv","","432.5","resources/trios/L2T4A2.jpg","38","restless",0.7,0.5,0.5,0.517241394754522,"false"
"image-keyboard-response",147,148456,"0.0-3.45-1.45","s517gz6lggw555u",140,"152.csv","","null","resources/maskTrios/BT4B.jpg","null","",NA,NA,NA,NA,""
"image-keyboard-response",148,149670,"0.0-3.45-2.45","s517gz6lggw555u",140,"152.csv","","null","resources/images/fishbone.png","null","",NA,NA,NA,NA,""
"image-keyboard-response",149,150157,"0.0-3.46-0.46","s517gz6lggw555u",140,"152.csv","","485.2000002861023","resources/trios/L4T2A3.jpg","39","restless",0.7,0.5,0.5,0.310488562019534,"true"
"image-keyboard-response",150,150571,"0.0-3.46-1.46","s517gz6lggw555u",140,"152.csv","","null","resources/maskTrios/BBA3.jpg","null","",NA,NA,NA,NA,""
"image-keyboard-response",151,151775,"0.0-3.46-2.46","s517gz6lggw555u",140,"152.csv","","null","resources/images/coin2.png","null","",NA,NA,NA,NA,""
"image-keyboard-response",152,152506,"0.0-3.47-0.47","s517gz6lggw555u",140,"152.csv","","729","resources/trios/L4T2A2.jpg","37","restless",0.7,0.5,0.5,0.665785402172303,"true"
"image-keyboard-response",153,152918,"0.0-3.47-1.47","s517gz6lggw555u",140,"152.csv","","null","resources/maskTrios/L4BB.jpg","null","",NA,NA,NA,NA,""
"image-keyboard-response",154,154122,"0.0-3.47-2.47","s517gz6lggw555u",140,"152.csv","","null","resources/images/coin2.png","null","",NA,NA,NA,NA,""
"image-keyboard-response",155,154751,"0.0-3.48-0.48","s517gz6lggw555u",140,"152.csv","","626.8000001907349","resources/trios/L4T4A3.jpg","38","restless",0.7,0.5,0.5,0.783442526851444,"false"
"image-keyboard-response",156,155153,"0.0-3.48-1.48","s517gz6lggw555u",140,"152.csv","","null","resources/maskTrios/BT4B.jpg","null","",NA,NA,NA,NA,""
"image-keyboard-response",157,156354,"0.0-3.48-2.48","s517gz6lggw555u",140,"152.csv","","null","resources/images/fishbone.png","null","",NA,NA,NA,NA,""
"image-keyboard-response",158,156689,"0.0-3.49-0.49","s517gz6lggw555u",140,"152.csv","","332.30000019073486","resources/trios/L2T2A3.jpg","39","restless",0.7,0.5,0.5,0.846990771592951,"false"
"image-keyboard-response",159,157098,"0.0-3.49-1.49","s517gz6lggw555u",140,"152.csv","","null","resources/maskTrios/BBA3.jpg","null","",NA,NA,NA,NA,""
"image-keyboard-response",160,158310,"0.0-3.49-2.49","s517gz6lggw555u",140,"152.csv","","null","resources/images/fishbone.png","null","",NA,NA,NA,NA,""
"image-keyboard-response",161,159107,"0.0-3.50-0.50","s517gz6lggw555u",140,"152.csv","","794.9000000953674","resources/trios/L2T2A3.jpg","37","restless",0.7,0.5,0.5,0.282709014569791,"true"
"image-keyboard-response",162,159511,"0.0-3.50-1.50","s517gz6lggw555u",140,"152.csv","","null","resources/maskTrios/L2BB.jpg","null","",NA,NA,NA,NA,""
"image-keyboard-response",163,160722,"0.0-3.50-2.50","s517gz6lggw555u",140,"152.csv","","null","resources/images/coin2.png","null","",NA,NA,NA,NA,""
"image-keyboard-response",164,161078,"0.0-3.51-0.51","s517gz6lggw555u",140,"152.csv","","354.7999997138977","resources/trios/L4T2A3.jpg","38","restless",0.7,0.6,0.5,0.918979601287504,"false"
"image-keyboard-response",165,161493,"0.0-3.51-1.51","s517gz6lggw555u",140,"152.csv","","null","resources/maskTrios/BT2B.jpg","null","",NA,NA,NA,NA,""
"image-keyboard-response",166,162710,"0.0-3.51-2.51","s517gz6lggw555u",140,"152.csv","","null","resources/images/fishbone.png","null","",NA,NA,NA,NA,""
"image-keyboard-response",167,163336,"0.0-3.52-0.52","s517gz6lggw555u",140,"152.csv","","624.4000000953674","resources/trios/L2T4A2.jpg","39","restless",0.7,0.6,0.5,0.767420558465478,"false"
"image-keyboard-response",168,163742,"0.0-3.52-1.52","s517gz6lggw555u",140,"152.csv","","null","resources/maskTrios/BBA2.jpg","null","",NA,NA,NA,NA,""
"image-keyboard-response",169,164945,"0.0-3.52-2.52","s517gz6lggw555u",140,"152.csv","","null","resources/images/fishbone.png","null","",NA,NA,NA,NA,""
"image-keyboard-response",170,165516,"0.0-3.53-0.53","s517gz6lggw555u",140,"152.csv","","569.7999997138977","resources/trios/L4T4A2.jpg","37","restless",0.7,0.6,0.5,0.659650333406039,"true"
"image-keyboard-response",171,165937,"0.0-3.53-1.53","s517gz6lggw555u",140,"152.csv","","null","resources/maskTrios/L4BB.jpg","null","",NA,NA,NA,NA,""
"image-keyboard-response",172,167147,"0.0-3.53-2.53","s517gz6lggw555u",140,"152.csv","","null","resources/images/coin2.png","null","",NA,NA,NA,NA,""
"image-keyboard-response",173,167842,"0.0-3.54-0.54","s517gz6lggw555u",140,"152.csv","","693.5999999046326","resources/trios/L2T4A3.jpg","37","restless",0.6,0.6,0.5,0.616721140762761,"false"
"image-keyboard-response",174,168255,"0.0-3.54-1.54","s517gz6lggw555u",140,"152.csv","","null","resources/maskTrios/L2BB.jpg","null","",NA,NA,NA,NA,""
"image-keyboard-response",175,169461,"0.0-3.54-2.54","s517gz6lggw555u",140,"152.csv","","null","resources/images/fishbone.png","null","",NA,NA,NA,NA,""
"image-keyboard-response",176,169940,"0.0-3.55-0.55","s517gz6lggw555u",140,"152.csv","","477.2000002861023","resources/trios/L4T4A2.jpg","38","restless",0.6,0.6,0.5,0.0859109055345384,"true"
"image-keyboard-response",177,170352,"0.0-3.55-1.55","s517gz6lggw555u",140,"152.csv","","null","resources/maskTrios/BT4B.jpg","null","",NA,NA,NA,NA,""
"image-keyboard-response",178,171555,"0.0-3.55-2.55","s517gz6lggw555u",140,"152.csv","","null","resources/images/coin2.png","null","",NA,NA,NA,NA,""
"image-keyboard-response",179,172031,"0.0-3.56-0.56","s517gz6lggw555u",140,"152.csv","","474.40000009536743","resources/trios/L2T4A2.jpg","38","restless",0.6,0.6,0.5,0.464989019710262,"true"
"image-keyboard-response",180,172434,"0.0-3.56-1.56","s517gz6lggw555u",140,"152.csv","","null","resources/maskTrios/BT4B.jpg","null","",NA,NA,NA,NA,""
"image-keyboard-response",181,173648,"0.0-3.56-2.56","s517gz6lggw555u",140,"152.csv","","null","resources/images/coin2.png","null","",NA,NA,NA,NA,""
"image-keyboard-response",182,174104,"0.0-3.57-0.57","s517gz6lggw555u",140,"152.csv","","454.30000019073486","resources/trios/L4T2A3.jpg","39","restless",0.6,0.6,0.5,0.801121558317651,"false"
"image-keyboard-response",183,174519,"0.0-3.57-1.57","s517gz6lggw555u",140,"152.csv","","null","resources/maskTrios/BBA3.jpg","null","",NA,NA,NA,NA,""
"image-keyboard-response",184,175734,"0.0-3.57-2.57","s517gz6lggw555u",140,"152.csv","","null","resources/images/fishbone.png","null","",NA,NA,NA,NA,""
"image-keyboard-response",185,176240,"0.0-3.58-0.58","s517gz6lggw555u",140,"152.csv","","505.09999990463257","resources/trios/L4T2A2.jpg","38","restless",0.6,0.6,0.5,0.246465896376873,"true"
"image-keyboard-response",186,176653,"0.0-3.58-1.58","s517gz6lggw555u",140,"152.csv","","null","resources/maskTrios/BT2B.jpg","null","",NA,NA,NA,NA,""
"image-keyboard-response",187,177862,"0.0-3.58-2.58","s517gz6lggw555u",140,"152.csv","","null","resources/images/coin2.png","null","",NA,NA,NA,NA,""
"image-keyboard-response",188,178259,"0.0-3.59-0.59","s517gz6lggw555u",140,"152.csv","","395","resources/trios/L2T4A2.jpg","38","restless",0.6,0.6,0.5,0.0113807735287577,"true"
"image-keyboard-response",189,178662,"0.0-3.59-1.59","s517gz6lggw555u",140,"152.csv","","null","resources/maskTrios/BT4B.jpg","null","",NA,NA,NA,NA,""
"image-keyboard-response",190,179871,"0.0-3.59-2.59","s517gz6lggw555u",140,"152.csv","","null","resources/images/coin2.png","null","",NA,NA,NA,NA,""
"image-keyboard-response",191,180543,"0.0-3.60-0.60","s517gz6lggw555u",140,"152.csv","","671","resources/trios/L4T2A2.jpg","38","restless",0.6,0.6,0.5,0.971488450209075,"false"
"image-keyboard-response",192,180949,"0.0-3.60-1.60","s517gz6lggw555u",140,"152.csv","","null","resources/maskTrios/BT2B.jpg","null","",NA,NA,NA,NA,""
"image-keyboard-response",193,182155,"0.0-3.60-2.60","s517gz6lggw555u",140,"152.csv","","null","resources/images/fishbone.png","null","",NA,NA,NA,NA,""
"image-keyboard-response",194,182450,"0.0-3.61-0.61","s517gz6lggw555u",140,"152.csv","","293.2999997138977","resources/trios/L4T4A2.jpg","37","restless",0.5,0.6,0.5,0.947475373421091,"false"
"image-keyboard-response",195,182858,"0.0-3.61-1.61","s517gz6lggw555u",140,"152.csv","","null","resources/maskTrios/L4BB.jpg","null","",NA,NA,NA,NA,""
"image-keyboard-response",196,184067,"0.0-3.61-2.61","s517gz6lggw555u",140,"152.csv","","null","resources/images/fishbone.png","null","",NA,NA,NA,NA,""
"image-keyboard-response",197,184403,"0.0-3.62-0.62","s517gz6lggw555u",140,"152.csv","","334.59999990463257","resources/trios/L4T4A2.jpg","39","restless",0.5,0.6,0.5,0.182080945122516,"true"
"image-keyboard-response",198,184805,"0.0-3.62-1.62","s517gz6lggw555u",140,"152.csv","","null","resources/maskTrios/BBA2.jpg","null","",NA,NA,NA,NA,""
"image-keyboard-response",199,186015,"0.0-3.62-2.62","s517gz6lggw555u",140,"152.csv","","null","resources/images/coin2.png","null","",NA,NA,NA,NA,""
"image-keyboard-response",200,186882,"0.0-3.63-0.63","s517gz6lggw555u",140,"152.csv","","865.6999998092651","resources/trios/L4T2A2.jpg","39","restless",0.5,0.6,0.5,0.838344195454132,"false"
"image-keyboard-response",201,187287,"0.0-3.63-1.63","s517gz6lggw555u",140,"152.csv","","null","resources/maskTrios/BBA2.jpg","null","",NA,NA,NA,NA,""
"image-keyboard-response",202,188498,"0.0-3.63-2.63","s517gz6lggw555u",140,"152.csv","","null","resources/images/fishbone.png","null","",NA,NA,NA,NA,""
"image-keyboard-response",203,189220,"0.0-3.64-0.64","s517gz6lggw555u",140,"152.csv","","719.7999997138977","resources/trios/L2T2A2.jpg","37","restless",0.5,0.6,0.5,0.717303724455661,"false"
"image-keyboard-response",204,189633,"0.0-3.64-1.64","s517gz6lggw555u",140,"152.csv","","null","resources/maskTrios/L2BB.jpg","null","",NA,NA,NA,NA,""
"image-keyboard-response",205,190847,"0.0-3.64-2.64","s517gz6lggw555u",140,"152.csv","","null","resources/images/fishbone.png","null","",NA,NA,NA,NA,""
"image-keyboard-response",206,192141,"0.0-3.65-0.65","s517gz6lggw555u",140,"152.csv","","1293.0999999046326","resources/trios/L2T2A3.jpg","38","restless",0.5,0.6,0.5,0.336380293403099,"true"
"image-keyboard-response",207,192548,"0.0-3.65-1.65","s517gz6lggw555u",140,"152.csv","","null","resources/maskTrios/BT2B.jpg","null","",NA,NA,NA,NA,""
"image-keyboard-response",208,193758,"0.0-3.65-2.65","s517gz6lggw555u",140,"152.csv","","null","resources/images/coin2.png","null","",NA,NA,NA,NA,""
"image-keyboard-response",209,194900,"0.0-3.66-0.66","s517gz6lggw555u",140,"152.csv","","1140.4000000953674","resources/trios/L2T2A3.jpg","38","restless",0.5,0.6,0.5,0.892671608053694,"false"
"image-keyboard-response",210,195311,"0.0-3.66-1.66","s517gz6lggw555u",140,"152.csv","","null","resources/maskTrios/BT2B.jpg","null","",NA,NA,NA,NA,""
"image-keyboard-response",211,196519,"0.0-3.66-2.66","s517gz6lggw555u",140,"152.csv","","null","resources/images/fishbone.png","null","",NA,NA,NA,NA,""
"image-keyboard-response",212,196816,"0.0-3.67-0.67","s517gz6lggw555u",140,"152.csv","","295.7000002861023","resources/trios/L4T2A3.jpg","37","restless",0.5,0.6,0.5,0.0684831022707657,"true"
"image-keyboard-response",213,197229,"0.0-3.67-1.67","s517gz6lggw555u",140,"152.csv","","null","resources/maskTrios/L4BB.jpg","null","",NA,NA,NA,NA,""
"image-keyboard-response",214,198444,"0.0-3.67-2.67","s517gz6lggw555u",140,"152.csv","","null","resources/images/coin2.png","null","",NA,NA,NA,NA,""
"image-keyboard-response",215,198973,"0.0-3.68-0.68","s517gz6lggw555u",140,"152.csv","","527.2000002861023","resources/trios/L2T4A3.jpg","39","restless",0.5,0.6,0.5,0.479072174494206,"true"
"image-keyboard-response",216,199390,"0.0-3.68-1.68","s517gz6lggw555u",140,"152.csv","","null","resources/maskTrios/BBA3.jpg","null","",NA,NA,NA,NA,""
"image-keyboard-response",217,200597,"0.0-3.68-2.68","s517gz6lggw555u",140,"152.csv","","null","resources/images/coin2.png","null","",NA,NA,NA,NA,""
"image-keyboard-response",218,201438,"0.0-3.69-0.69","s517gz6lggw555u",140,"152.csv","","838.7999997138977","resources/trios/L2T4A3.jpg","39","restless",0.5,0.6,0.5,0.396134588393223,"true"
"image-keyboard-response",219,201841,"0.0-3.69-1.69","s517gz6lggw555u",140,"152.csv","","null","resources/maskTrios/BBA3.jpg","null","",NA,NA,NA,NA,""
"image-keyboard-response",220,203044,"0.0-3.69-2.69","s517gz6lggw555u",140,"152.csv","","null","resources/images/coin2.png","null","",NA,NA,NA,NA,""
"image-keyboard-response",221,203509,"0.0-3.70-0.70","s517gz6lggw555u",140,"152.csv","","463.69999980926514","resources/trios/L2T4A2.jpg","39","restless",0.4,0.6,0.5,0.278882715801848,"true"
"image-keyboard-response",222,203914,"0.0-3.70-1.70","s517gz6lggw555u",140,"152.csv","","null","resources/maskTrios/BBA2.jpg","null","",NA,NA,NA,NA,""
"image-keyboard-response",223,205120,"0.0-3.70-2.70","s517gz6lggw555u",140,"152.csv","","null","resources/images/coin2.png","null","",NA,NA,NA,NA,""
"image-keyboard-response",224,205765,"0.0-3.71-0.71","s517gz6lggw555u",140,"152.csv","","643.3000001907349","resources/trios/L2T4A3.jpg","39","restless",0.4,0.6,0.5,0.075500316609864,"true"
"image-keyboard-response",225,206175,"0.0-3.71-1.71","s517gz6lggw555u",140,"152.csv","","null","resources/maskTrios/BBA3.jpg","null","",NA,NA,NA,NA,""
"image-keyboard-response",226,207386,"0.0-3.71-2.71","s517gz6lggw555u",140,"152.csv","","null","resources/images/coin2.png","null","",NA,NA,NA,NA,""
"image-keyboard-response",227,208840,"0.0-3.72-0.72","s517gz6lggw555u",140,"152.csv","","1452","resources/trios/L2T2A3.jpg","39","restless",0.4,0.6,0.5,0.316281536982702,"true"
"image-keyboard-response",228,209268,"0.0-3.72-1.72","s517gz6lggw555u",140,"152.csv","","null","resources/maskTrios/BBA3.jpg","null","",NA,NA,NA,NA,""
"image-keyboard-response",229,210471,"0.0-3.72-2.72","s517gz6lggw555u",140,"152.csv","","null","resources/images/coin2.png","null","",NA,NA,NA,NA,""
"image-keyboard-response",230,211192,"0.0-3.73-0.73","s517gz6lggw555u",140,"152.csv","","719.4000000953674","resources/trios/L4T2A2.jpg","39","restless",0.4,0.6,0.5,0.502570384116717,"false"
"image-keyboard-response",231,211597,"0.0-3.73-1.73","s517gz6lggw555u",140,"152.csv","","null","resources/maskTrios/BBA2.jpg","null","",NA,NA,NA,NA,""
"image-keyboard-response",232,212799,"0.0-3.73-2.73","s517gz6lggw555u",140,"152.csv","","null","resources/images/fishbone.png","null","",NA,NA,NA,NA,""
"image-keyboard-response",233,213117,"0.0-3.74-0.74","s517gz6lggw555u",140,"152.csv","","316.59999990463257","resources/trios/L2T2A3.jpg","38","restless",0.4,0.6,0.5,0.390865252971955,"true"
"image-keyboard-response",234,213530,"0.0-3.74-1.74","s517gz6lggw555u",140,"152.csv","","null","resources/maskTrios/BT2B.jpg","null","",NA,NA,NA,NA,""
"image-keyboard-response",235,214744,"0.0-3.74-2.74","s517gz6lggw555u",140,"152.csv","","null","resources/images/coin2.png","null","",NA,NA,NA,NA,""
"image-keyboard-response",236,215479,"0.0-3.75-0.75","s517gz6lggw555u",140,"152.csv","","734.0999999046326","resources/trios/L4T2A2.jpg","37","restless",0.4,0.6,0.5,0.544219828284528,"false"
"image-keyboard-response",237,215893,"0.0-3.75-1.75","s517gz6lggw555u",140,"152.csv","","null","resources/maskTrios/L4BB.jpg","null","",NA,NA,NA,NA,""
"image-keyboard-response",238,217105,"0.0-3.75-2.75","s517gz6lggw555u",140,"152.csv","","null","resources/images/fishbone.png","null","",NA,NA,NA,NA,""
"image-keyboard-response",239,217429,"0.0-3.76-0.76","s517gz6lggw555u",140,"152.csv","","323","resources/trios/L2T2A2.jpg","38","restless",0.4,0.6,0.5,0.386215840093547,"true"
"image-keyboard-response",240,217841,"0.0-3.76-1.76","s517gz6lggw555u",140,"152.csv","","null","resources/maskTrios/BT2B.jpg","null","",NA,NA,NA,NA,""
"image-keyboard-response",241,219051,"0.0-3.76-2.76","s517gz6lggw555u",140,"152.csv","","null","resources/images/coin2.png","null","",NA,NA,NA,NA,""
"image-keyboard-response",242,219505,"0.0-3.77-0.77","s517gz6lggw555u",140,"152.csv","","452.5","resources/trios/L2T2A3.jpg","38","restless",0.4,0.6,0.5,0.924995554195958,"false"
"image-keyboard-response",243,219919,"0.0-3.77-1.77","s517gz6lggw555u",140,"152.csv","","null","resources/maskTrios/BT2B.jpg","null","",NA,NA,NA,NA,""
"image-keyboard-response",244,221122,"0.0-3.77-2.77","s517gz6lggw555u",140,"152.csv","","null","resources/images/fishbone.png","null","",NA,NA,NA,NA,""
"image-keyboard-response",245,221574,"0.0-3.78-0.78","s517gz6lggw555u",140,"152.csv","","450.2000002861023","resources/trios/L4T2A2.jpg","39","restless",0.4,0.6,0.5,0.717811160701284,"false"
"image-keyboard-response",246,221990,"0.0-3.78-1.78","s517gz6lggw555u",140,"152.csv","","null","resources/maskTrios/BBA2.jpg","null","",NA,NA,NA,NA,""
"image-keyboard-response",247,223204,"0.0-3.78-2.78","s517gz6lggw555u",140,"152.csv","","null","resources/images/fishbone.png","null","",NA,NA,NA,NA,""
"image-keyboard-response",248,223794,"0.0-3.79-0.79","s517gz6lggw555u",140,"152.csv","","587.7999997138977","resources/trios/L4T2A2.jpg","37","restless",0.4,0.6,0.5,0.388975610176065,"true"
"image-keyboard-response",249,224202,"0.0-3.79-1.79","s517gz6lggw555u",140,"152.csv","","null","resources/maskTrios/L4BB.jpg","null","",NA,NA,NA,NA,""
"image-keyboard-response",250,225405,"0.0-3.79-2.79","s517gz6lggw555u",140,"152.csv","","null","resources/images/coin2.png","null","",NA,NA,NA,NA,""
"image-keyboard-response",251,226290,"0.0-3.80-0.80","s517gz6lggw555u",140,"152.csv","","883.2000002861023","resources/trios/L2T4A3.jpg","37","restless",0.5,0.6,0.5,0.341995706307682,"true"
"image-keyboard-response",252,226699,"0.0-3.80-1.80","s517gz6lggw555u",140,"152.csv","","null","resources/maskTrios/L2BB.jpg","null","",NA,NA,NA,NA,""
"image-keyboard-response",253,227916,"0.0-3.80-2.80","s517gz6lggw555u",140,"152.csv","","null","resources/images/coin2.png","null","",NA,NA,NA,NA,""
"image-keyboard-response",254,228616,"0.0-3.81-0.81","s517gz6lggw555u",140,"152.csv","","698.9000000953674","resources/trios/L2T4A2.jpg","37","restless",0.5,0.6,0.6,0.0323663518599615,"true"
"image-keyboard-response",255,229030,"0.0-3.81-1.81","s517gz6lggw555u",140,"152.csv","","null","resources/maskTrios/L2BB.jpg","null","",NA,NA,NA,NA,""
"image-keyboard-response",256,230243,"0.0-3.81-2.81","s517gz6lggw555u",140,"152.csv","","null","resources/images/coin2.png","null","",NA,NA,NA,NA,""
"image-keyboard-response",257,231841,"0.0-3.82-0.82","s517gz6lggw555u",140,"152.csv","","1595.6000003814697","resources/trios/L2T4A3.jpg","37","restless",0.5,0.6,0.6,0.874410875460701,"false"
"image-keyboard-response",258,232244,"0.0-3.82-1.82","s517gz6lggw555u",140,"152.csv","","null","resources/maskTrios/L2BB.jpg","null","",NA,NA,NA,NA,""
"image-keyboard-response",259,233450,"0.0-3.82-2.82","s517gz6lggw555u",140,"152.csv","","null","resources/images/fishbone.png","null","",NA,NA,NA,NA,""
"image-keyboard-response",260,233951,"0.0-3.83-0.83","s517gz6lggw555u",140,"152.csv","","500","resources/trios/L2T2A3.jpg","38","restless",0.5,0.6,0.6,0.650096652573527,"false"
"image-keyboard-response",261,234359,"0.0-3.83-1.83","s517gz6lggw555u",140,"152.csv","","null","resources/maskTrios/BT2B.jpg","null","",NA,NA,NA,NA,""
"image-keyboard-response",262,235571,"0.0-3.83-2.83","s517gz6lggw555u",140,"152.csv","","null","resources/images/fishbone.png","null","",NA,NA,NA,NA,""
"image-keyboard-response",263,236542,"0.0-3.84-0.84","s517gz6lggw555u",140,"152.csv","","969.3000001907349","resources/trios/L2T2A2.jpg","39","restless",0.5,0.6,0.6,0.90388702623694,"false"
"image-keyboard-response",264,236959,"0.0-3.84-1.84","s517gz6lggw555u",140,"152.csv","","null","resources/maskTrios/BBA2.jpg","null","",NA,NA,NA,NA,""
"image-keyboard-response",265,238162,"0.0-3.84-2.84","s517gz6lggw555u",140,"152.csv","","null","resources/images/fishbone.png","null","",NA,NA,NA,NA,""
"image-keyboard-response",266,238988,"0.0-3.85-0.85","s517gz6lggw555u",140,"152.csv","","824.3000001907349","resources/trios/L2T4A3.jpg","37","restless",0.5,0.6,0.6,0.994520045219199,"false"
"image-keyboard-response",267,239403,"0.0-3.85-1.85","s517gz6lggw555u",140,"152.csv","","null","resources/maskTrios/L2BB.jpg","null","",NA,NA,NA,NA,""
"image-keyboard-response",268,240619,"0.0-3.85-2.85","s517gz6lggw555u",140,"152.csv","","null","resources/images/fishbone.png","null","",NA,NA,NA,NA,""
"image-keyboard-response",269,240927,"0.0-3.86-0.86","s517gz6lggw555u",140,"152.csv","","306.40000009536743","resources/trios/L2T2A2.jpg","38","restless",0.5,0.6,0.6,0.773295939809213,"false"
"image-keyboard-response",270,241329,"0.0-3.86-1.86","s517gz6lggw555u",140,"152.csv","","null","resources/maskTrios/BT2B.jpg","null","",NA,NA,NA,NA,""
"image-keyboard-response",271,242533,"0.0-3.86-2.86","s517gz6lggw555u",140,"152.csv","","null","resources/images/fishbone.png","null","",NA,NA,NA,NA,""
"image-keyboard-response",272,242904,"0.0-3.87-0.87","s517gz6lggw555u",140,"152.csv","","369.40000009536743","resources/trios/L2T2A2.jpg","39","restless",0.5,0.6,0.6,0.320544034118954,"true"
"image-keyboard-response",273,243307,"0.0-3.87-1.87","s517gz6lggw555u",140,"152.csv","","null","resources/maskTrios/BBA2.jpg","null","",NA,NA,NA,NA,""
"image-keyboard-response",274,244523,"0.0-3.87-2.87","s517gz6lggw555u",140,"152.csv","","null","resources/images/coin2.png","null","",NA,NA,NA,NA,""
"image-keyboard-response",275,244830,"0.0-3.88-0.88","s517gz6lggw555u",140,"152.csv","","306","resources/trios/L4T4A3.jpg","39","restless",0.5,0.6,0.6,0.0470510866857161,"true"
"image-keyboard-response",276,245238,"0.0-3.88-1.88","s517gz6lggw555u",140,"152.csv","","null","resources/maskTrios/BBA3.jpg","null","",NA,NA,NA,NA,""
"image-keyboard-response",277,246449,"0.0-3.88-2.88","s517gz6lggw555u",140,"152.csv","","null","resources/images/coin2.png","null","",NA,NA,NA,NA,""
"image-keyboard-response",278,246872,"0.0-3.89-0.89","s517gz6lggw555u",140,"152.csv","","421.7000002861023","resources/trios/L4T4A2.jpg","39","restless",0.5,0.6,0.6,0.57322811896575,"true"
"image-keyboard-response",279,247280,"0.0-3.89-1.89","s517gz6lggw555u",140,"152.csv","","null","resources/maskTrios/BBA2.jpg","null","",NA,NA,NA,NA,""
"image-keyboard-response",280,248487,"0.0-3.89-2.89","s517gz6lggw555u",140,"152.csv","","null","resources/images/coin2.png","null","",NA,NA,NA,NA,""
"image-keyboard-response",281,248794,"0.0-3.90-0.90","s517gz6lggw555u",140,"152.csv","","304.90000009536743","resources/trios/L2T2A2.jpg","39","restless",0.6,0.6,0.6,0.717277474877715,"false"
"image-keyboard-response",282,249197,"0.0-3.90-1.90","s517gz6lggw555u",140,"152.csv","","null","resources/maskTrios/BBA2.jpg","null","",NA,NA,NA,NA,""
"image-keyboard-response",283,250411,"0.0-3.90-2.90","s517gz6lggw555u",140,"152.csv","","null","resources/images/fishbone.png","null","",NA,NA,NA,NA,""
"image-keyboard-response",284,250973,"0.0-3.91-0.91","s517gz6lggw555u",140,"152.csv","","560.2000002861023","resources/trios/L2T4A3.jpg","37","restless",0.6,0.6,0.6,0.279033211374511,"true"
"image-keyboard-response",285,251377,"0.0-3.91-1.91","s517gz6lggw555u",140,"152.csv","","null","resources/maskTrios/L2BB.jpg","null","",NA,NA,NA,NA,""
"image-keyboard-response",286,252581,"0.0-3.91-2.91","s517gz6lggw555u",140,"152.csv","","null","resources/images/coin2.png","null","",NA,NA,NA,NA,""
"image-keyboard-response",287,252904,"0.0-3.92-0.92","s517gz6lggw555u",140,"152.csv","","321.19999980926514","resources/trios/L2T2A3.jpg","37","restless",0.5,0.6,0.6,0.687649184434997,"false"
"image-keyboard-response",288,253315,"0.0-3.92-1.92","s517gz6lggw555u",140,"152.csv","","null","resources/maskTrios/L2BB.jpg","null","",NA,NA,NA,NA,""
"image-keyboard-response",289,254519,"0.0-3.92-2.92","s517gz6lggw555u",140,"152.csv","","null","resources/images/fishbone.png","null","",NA,NA,NA,NA,""
"image-keyboard-response",290,255101,"0.0-3.93-0.93","s517gz6lggw555u",140,"152.csv","","580.2000002861023","resources/trios/L2T4A3.jpg","38","restless",0.5,0.6,0.6,0.448395623236834,"true"
"image-keyboard-response",291,255506,"0.0-3.93-1.93","s517gz6lggw555u",140,"152.csv","","null","resources/maskTrios/BT4B.jpg","null","",NA,NA,NA,NA,""
"image-keyboard-response",292,256723,"0.0-3.93-2.93","s517gz6lggw555u",140,"152.csv","","null","resources/images/coin2.png","null","",NA,NA,NA,NA,""
"image-keyboard-response",293,257224,"0.0-3.94-0.94","s517gz6lggw555u",140,"152.csv","","499.5","resources/trios/L4T4A2.jpg","38","restless",0.5,0.6,0.6,0.51957029949633,"true"
"image-keyboard-response",294,257628,"0.0-3.94-1.94","s517gz6lggw555u",140,"152.csv","","null","resources/maskTrios/BT4B.jpg","null","",NA,NA,NA,NA,""
"image-keyboard-response",295,258832,"0.0-3.94-2.94","s517gz6lggw555u",140,"152.csv","","null","resources/images/coin2.png","null","",NA,NA,NA,NA,""
"image-keyboard-response",296,259284,"0.0-3.95-0.95","s517gz6lggw555u",140,"152.csv","","450.7999997138977","resources/trios/L2T4A3.jpg","38","restless",0.5,0.6,0.6,0.402500058020286,"true"
"image-keyboard-response",297,259696,"0.0-3.95-1.95","s517gz6lggw555u",140,"152.csv","","null","resources/maskTrios/BT4B.jpg","null","",NA,NA,NA,NA,""
"image-keyboard-response",298,260908,"0.0-3.95-2.95","s517gz6lggw555u",140,"152.csv","","null","resources/images/coin2.png","null","",NA,NA,NA,NA,""
"image-keyboard-response",299,261411,"0.0-3.96-0.96","s517gz6lggw555u",140,"152.csv","","500.5","resources/trios/L4T2A3.jpg","38","restless",0.5,0.6,0.6,0.784342255597068,"false"
"image-keyboard-response",300,261817,"0.0-3.96-1.96","s517gz6lggw555u",140,"152.csv","","null","resources/maskTrios/BT2B.jpg","null","",NA,NA,NA,NA,""
"image-keyboard-response",301,263030,"0.0-3.96-2.96","s517gz6lggw555u",140,"152.csv","","null","resources/images/fishbone.png","null","",NA,NA,NA,NA,""
"image-keyboard-response",302,263680,"0.0-3.97-0.97","s517gz6lggw555u",140,"152.csv","","647.9000000953674","resources/trios/L2T2A3.jpg","39","restless",0.4,0.6,0.7,0.673523651027023,"true"
"image-keyboard-response",303,264097,"0.0-3.97-1.97","s517gz6lggw555u",140,"152.csv","","null","resources/maskTrios/BBA3.jpg","null","",NA,NA,NA,NA,""
"image-keyboard-response",304,265314,"0.0-3.97-2.97","s517gz6lggw555u",140,"152.csv","","null","resources/images/coin2.png","null","",NA,NA,NA,NA,""
"image-keyboard-response",305,266208,"0.0-3.98-0.98","s517gz6lggw555u",140,"152.csv","","892.7999997138977","resources/trios/L4T4A3.jpg","39","restless",0.4,0.6,0.7,0.23048446830545,"true"
"image-keyboard-response",306,266618,"0.0-3.98-1.98","s517gz6lggw555u",140,"152.csv","","null","resources/maskTrios/BBA3.jpg","null","",NA,NA,NA,NA,""
"image-keyboard-response",307,267829,"0.0-3.98-2.98","s517gz6lggw555u",140,"152.csv","","null","resources/images/coin2.png","null","",NA,NA,NA,NA,""
"image-keyboard-response",308,268550,"0.0-3.99-0.99","s517gz6lggw555u",140,"152.csv","","719.3000001907349","resources/trios/L2T4A2.jpg","39","restless",0.4,0.6,0.7,0.923585206106687,"false"
"image-keyboard-response",309,268963,"0.0-3.99-1.99","s517gz6lggw555u",140,"152.csv","","null","resources/maskTrios/BBA2.jpg","null","",NA,NA,NA,NA,""
"image-keyboard-response",310,270175,"0.0-3.99-2.99","s517gz6lggw555u",140,"152.csv","","null","resources/images/fishbone.png","null","",NA,NA,NA,NA,""
"image-keyboard-response",311,270730,"0.0-3.100-0.100","s517gz6lggw555u",140,"152.csv","","552.9000000953674","resources/trios/L2T2A2.jpg","37","restless",0.4,0.6,0.7,0.00448373199452234,"true"
"image-keyboard-response",312,271136,"0.0-3.100-1.100","s517gz6lggw555u",140,"152.csv","","null","resources/maskTrios/L2BB.jpg","null","",NA,NA,NA,NA,""
"image-keyboard-response",313,272339,"0.0-3.100-2.100","s517gz6lggw555u",140,"152.csv","","null","resources/images/coin2.png","null","",NA,NA,NA,NA,""
"image-keyboard-response",314,273063,"0.0-3.101-0.101","s517gz6lggw555u",140,"152.csv","","722.4000000953674","resources/trios/L4T2A2.jpg","37","restless",0.4,0.6,0.7,0.494559685304473,"false"
"image-keyboard-response",315,273473,"0.0-3.101-1.101","s517gz6lggw555u",140,"152.csv","","null","resources/maskTrios/L4BB.jpg","null","",NA,NA,NA,NA,""
"image-keyboard-response",316,274677,"0.0-3.101-2.101","s517gz6lggw555u",140,"152.csv","","null","resources/images/fishbone.png","null","",NA,NA,NA,NA,""
"image-keyboard-response",317,275051,"0.0-3.102-0.102","s517gz6lggw555u",140,"152.csv","","372.30000019073486","resources/trios/L2T4A3.jpg","38","restless",0.4,0.6,0.8,0.458567957532137,"true"
"image-keyboard-response",318,275454,"0.0-3.102-1.102","s517gz6lggw555u",140,"152.csv","","null","resources/maskTrios/BT4B.jpg","null","",NA,NA,NA,NA,""
"image-keyboard-response",319,276664,"0.0-3.102-2.102","s517gz6lggw555u",140,"152.csv","","null","resources/images/coin2.png","null","",NA,NA,NA,NA,""
"image-keyboard-response",320,277466,"0.0-3.103-0.103","s517gz6lggw555u",140,"152.csv","","800.4000000953674","resources/trios/L4T2A2.jpg","38","restless",0.4,0.6,0.8,0.820376348362658,"false"
"image-keyboard-response",321,277871,"0.0-3.103-1.103","s517gz6lggw555u",140,"152.csv","","null","resources/maskTrios/BT2B.jpg","null","",NA,NA,NA,NA,""
"image-keyboard-response",322,279083,"0.0-3.103-2.103","s517gz6lggw555u",140,"152.csv","","null","resources/images/fishbone.png","null","",NA,NA,NA,NA,""
"image-keyboard-response",323,279625,"0.0-3.104-0.104","s517gz6lggw555u",140,"152.csv","","539.4000000953674","resources/trios/L2T4A3.jpg","39","restless",0.4,0.6,0.8,0.121629123276396,"true"
"image-keyboard-response",324,280036,"0.0-3.104-1.104","s517gz6lggw555u",140,"152.csv","","null","resources/maskTrios/BBA3.jpg","null","",NA,NA,NA,NA,""
"image-keyboard-response",325,281238,"0.0-3.104-2.104","s517gz6lggw555u",140,"152.csv","","null","resources/images/coin2.png","null","",NA,NA,NA,NA,""
"image-keyboard-response",326,282148,"0.0-3.105-0.105","s517gz6lggw555u",140,"152.csv","","908.0999999046326","resources/trios/L4T2A3.jpg","39","restless",0.4,0.6,0.8,0.776503304614222,"true"
"image-keyboard-response",327,282563,"0.0-3.105-1.105","s517gz6lggw555u",140,"152.csv","","null","resources/maskTrios/BBA3.jpg","null","",NA,NA,NA,NA,""
"image-keyboard-response",328,283776,"0.0-3.105-2.105","s517gz6lggw555u",140,"152.csv","","null","resources/images/coin2.png","null","",NA,NA,NA,NA,""
"image-keyboard-response",329,285774,"0.0-3.106-0.106","s517gz6lggw555u",140,"152.csv","","1996.3999996185303","resources/trios/L2T4A2.jpg","39","restless",0.4,0.6,0.9,0.27075594345167,"true"
"image-keyboard-response",330,286177,"0.0-3.106-1.106","s517gz6lggw555u",140,"152.csv","","null","resources/maskTrios/BBA2.jpg","null","",NA,NA,NA,NA,""
"image-keyboard-response",331,287382,"0.0-3.106-2.106","s517gz6lggw555u",140,"152.csv","","null","resources/images/coin2.png","null","",NA,NA,NA,NA,""
"image-keyboard-response",332,287796,"0.0-3.107-0.107","s517gz6lggw555u",140,"152.csv","","412.59999990463257","resources/trios/L4T4A3.jpg","39","restless",0.4,0.6,0.9,0.715467541533065,"true"
"image-keyboard-response",333,288209,"0.0-3.107-1.107","s517gz6lggw555u",140,"152.csv","","null","resources/maskTrios/BBA3.jpg","null","",NA,NA,NA,NA,""
"image-keyboard-response",334,289413,"0.0-3.107-2.107","s517gz6lggw555u",140,"152.csv","","null","resources/images/coin2.png","null","",NA,NA,NA,NA,""
"image-keyboard-response",335,290391,"0.0-3.108-0.108","s517gz6lggw555u",140,"152.csv","","976.9000000953674","resources/trios/L4T4A3.jpg","39","restless",0.4,0.6,0.9,0.173358890689946,"true"
"image-keyboard-response",336,290805,"0.0-3.108-1.108","s517gz6lggw555u",140,"152.csv","","null","resources/maskTrios/BBA3.jpg","null","",NA,NA,NA,NA,""
"image-keyboard-response",337,292019,"0.0-3.108-2.108","s517gz6lggw555u",140,"152.csv","","null","resources/images/coin2.png","null","",NA,NA,NA,NA,""
"image-keyboard-response",338,292685,"0.0-3.109-0.109","s517gz6lggw555u",140,"152.csv","","665","resources/trios/L2T4A2.jpg","39","restless",0.4,0.6,0.9,0.116774769223841,"true"
"image-keyboard-response",339,293095,"0.0-3.109-1.109","s517gz6lggw555u",140,"152.csv","","null","resources/maskTrios/BBA2.jpg","null","",NA,NA,NA,NA,""
"image-keyboard-response",340,294308,"0.0-3.109-2.109","s517gz6lggw555u",140,"152.csv","","null","resources/images/coin2.png","null","",NA,NA,NA,NA,""
"image-keyboard-response",341,294750,"0.0-3.110-0.110","s517gz6lggw555u",140,"152.csv","","440.30000019073486","resources/trios/L2T2A3.jpg","39","restless",0.4,0.6,0.9,0.400081150141335,"true"
"image-keyboard-response",342,295152,"0.0-3.110-1.110","s517gz6lggw555u",140,"152.csv","","null","resources/maskTrios/BBA3.jpg","null","",NA,NA,NA,NA,""
"image-keyboard-response",343,296362,"0.0-3.110-2.110","s517gz6lggw555u",140,"152.csv","","null","resources/images/coin2.png","null","",NA,NA,NA,NA,""
"image-keyboard-response",344,297104,"0.0-3.111-0.111","s517gz6lggw555u",140,"152.csv","","740.4000000953674","resources/trios/L2T4A3.jpg","39","restless",0.4,0.6,0.9,0.238776041922526,"true"
"image-keyboard-response",345,297517,"0.0-3.111-1.111","s517gz6lggw555u",140,"152.csv","","null","resources/maskTrios/BBA3.jpg","null","",NA,NA,NA,NA,""
"image-keyboard-response",346,298725,"0.0-3.111-2.111","s517gz6lggw555u",140,"152.csv","","null","resources/images/coin2.png","null","",NA,NA,NA,NA,""
"image-keyboard-response",347,299093,"0.0-3.112-0.112","s517gz6lggw555u",140,"152.csv","","367","resources/trios/L4T2A2.jpg","39","restless",0.3,0.7,0.9,0.6860826869227,"true"
"image-keyboard-response",348,299498,"0.0-3.112-1.112","s517gz6lggw555u",140,"152.csv","","null","resources/maskTrios/BBA2.jpg","null","",NA,NA,NA,NA,""
"image-keyboard-response",349,300708,"0.0-3.112-2.112","s517gz6lggw555u",140,"152.csv","","null","resources/images/coin2.png","null","",NA,NA,NA,NA,""
"image-keyboard-response",350,301587,"0.0-3.113-0.113","s517gz6lggw555u",140,"152.csv","","878.3000001907349","resources/trios/L2T2A2.jpg","39","restless",0.2,0.7,0.9,0.561578336171159,"true"
"image-keyboard-response",351,301995,"0.0-3.113-1.113","s517gz6lggw555u",140,"152.csv","","null","resources/maskTrios/BBA2.jpg","null","",NA,NA,NA,NA,""
"image-keyboard-response",352,303208,"0.0-3.113-2.113","s517gz6lggw555u",140,"152.csv","","null","resources/images/coin2.png","null","",NA,NA,NA,NA,""
"image-keyboard-response",353,305010,"0.0-3.114-0.114","s517gz6lggw555u",140,"152.csv","","1799.5999999046326","resources/trios/L2T4A2.jpg","39","restless",0.2,0.8,0.8,0.516467797082193,"true"
"image-keyboard-response",354,305420,"0.0-3.114-1.114","s517gz6lggw555u",140,"152.csv","","null","resources/maskTrios/BBA2.jpg","null","",NA,NA,NA,NA,""
"image-keyboard-response",355,306626,"0.0-3.114-2.114","s517gz6lggw555u",140,"152.csv","","null","resources/images/coin2.png","null","",NA,NA,NA,NA,""
"image-keyboard-response",356,308263,"0.0-3.115-0.115","s517gz6lggw555u",140,"152.csv","","1636.7999997138977","resources/trios/L4T2A3.jpg","39","restless",0.2,0.8,0.8,0.0852606994103282,"true"
"image-keyboard-response",357,308675,"0.0-3.115-1.115","s517gz6lggw555u",140,"152.csv","","null","resources/maskTrios/BBA3.jpg","null","",NA,NA,NA,NA,""
"image-keyboard-response",358,309880,"0.0-3.115-2.115","s517gz6lggw555u",140,"152.csv","","null","resources/images/coin2.png","null","",NA,NA,NA,NA,""
"image-keyboard-response",359,313655,"0.0-3.116-0.116","s517gz6lggw555u",140,"152.csv","","3773.2999997138977","resources/trios/L4T4A2.jpg","39","restless",0.3,0.8,0.8,0.564300552615297,"true"
"image-keyboard-response",360,314068,"0.0-3.116-1.116","s517gz6lggw555u",140,"152.csv","","null","resources/maskTrios/BBA2.jpg","null","",NA,NA,NA,NA,""
"image-keyboard-response",361,315281,"0.0-3.116-2.116","s517gz6lggw555u",140,"152.csv","","null","resources/images/coin2.png","null","",NA,NA,NA,NA,""
"image-keyboard-response",362,316524,"0.0-3.117-0.117","s517gz6lggw555u",140,"152.csv","","1240.8999996185303","resources/trios/L2T2A2.jpg","39","restless",0.3,0.7,0.8,0.0231820556392455,"true"
"image-keyboard-response",363,316932,"0.0-3.117-1.117","s517gz6lggw555u",140,"152.csv","","null","resources/maskTrios/BBA2.jpg","null","",NA,NA,NA,NA,""
"image-keyboard-response",364,318144,"0.0-3.117-2.117","s517gz6lggw555u",140,"152.csv","","null","resources/images/coin2.png","null","",NA,NA,NA,NA,""
"image-keyboard-response",365,318940,"0.0-3.118-0.118","s517gz6lggw555u",140,"152.csv","","794.5","resources/trios/L4T4A3.jpg","39","restless",0.3,0.7,0.8,0.623375627221483,"true"
"image-keyboard-response",366,319347,"0.0-3.118-1.118","s517gz6lggw555u",140,"152.csv","","null","resources/maskTrios/BBA3.jpg","null","",NA,NA,NA,NA,""
"image-keyboard-response",367,320557,"0.0-3.118-2.118","s517gz6lggw555u",140,"152.csv","","null","resources/images/coin2.png","null","",NA,NA,NA,NA,""
"image-keyboard-response",368,321220,"0.0-3.119-0.119","s517gz6lggw555u",140,"152.csv","","661.4000000953674","resources/trios/L2T2A3.jpg","39","restless",0.3,0.7,0.8,0.589054180741891,"true"
"image-keyboard-response",369,321630,"0.0-3.119-1.119","s517gz6lggw555u",140,"152.csv","","null","resources/maskTrios/BBA3.jpg","null","",NA,NA,NA,NA,""
"image-keyboard-response",370,322847,"0.0-3.119-2.119","s517gz6lggw555u",140,"152.csv","","null","resources/images/coin2.png","null","",NA,NA,NA,NA,""
"image-keyboard-response",371,323796,"0.0-3.120-0.120","s517gz6lggw555u",140,"152.csv","","947.1000003814697","resources/trios/L2T2A3.jpg","39","restless",0.4,0.7,0.8,0.892419452948395,"false"
"image-keyboard-response",372,324209,"0.0-3.120-1.120","s517gz6lggw555u",140,"152.csv","","null","resources/maskTrios/BBA3.jpg","null","",NA,NA,NA,NA,""
"image-keyboard-response",373,325416,"0.0-3.120-2.120","s517gz6lggw555u",140,"152.csv","","null","resources/images/fishbone.png","null","",NA,NA,NA,NA,""
"image-keyboard-response",374,325737,"0.0-3.121-0.121","s517gz6lggw555u",140,"152.csv","","319.19999980926514","resources/trios/L4T2A3.jpg","38","restless",0.4,0.7,0.8,0.436901038904393,"true"
"image-keyboard-response",375,326142,"0.0-3.121-1.121","s517gz6lggw555u",140,"152.csv","","null","resources/maskTrios/BT2B.jpg","null","",NA,NA,NA,NA,""
"image-keyboard-response",376,327353,"0.0-3.121-2.121","s517gz6lggw555u",140,"152.csv","","null","resources/images/coin2.png","null","",NA,NA,NA,NA,""
"image-keyboard-response",377,328006,"0.0-3.122-0.122","s517gz6lggw555u",140,"152.csv","","651.4000000953674","resources/trios/L4T2A2.jpg","38","restless",0.4,0.7,0.7,0.413938907752189,"true"
"image-keyboard-response",378,328420,"0.0-3.122-1.122","s517gz6lggw555u",140,"152.csv","","null","resources/maskTrios/BT2B.jpg","null","",NA,NA,NA,NA,""
"image-keyboard-response",379,329636,"0.0-3.122-2.122","s517gz6lggw555u",140,"152.csv","","null","resources/images/coin2.png","null","",NA,NA,NA,NA,""
"image-keyboard-response",380,330572,"0.0-3.123-0.123","s517gz6lggw555u",140,"152.csv","","935","resources/trios/L4T4A2.jpg","38","restless",0.5,0.7,0.6,0.0964105133861468,"true"
"image-keyboard-response",381,330979,"0.0-3.123-1.123","s517gz6lggw555u",140,"152.csv","","null","resources/maskTrios/BT4B.jpg","null","",NA,NA,NA,NA,""
"image-keyboard-response",382,332184,"0.0-3.123-2.123","s517gz6lggw555u",140,"152.csv","","null","resources/images/coin2.png","null","",NA,NA,NA,NA,""
"image-keyboard-response",383,332563,"0.0-3.124-0.124","s517gz6lggw555u",140,"152.csv","","377.2000002861023","resources/trios/L2T2A2.jpg","38","restless",0.5,0.7,0.6,0.795076897914058,"false"
"image-keyboard-response",384,332965,"0.0-3.124-1.124","s517gz6lggw555u",140,"152.csv","","null","resources/maskTrios/BT2B.jpg","null","",NA,NA,NA,NA,""
"image-keyboard-response",385,334171,"0.0-3.124-2.124","s517gz6lggw555u",140,"152.csv","","null","resources/images/fishbone.png","null","",NA,NA,NA,NA,""
"image-keyboard-response",386,334682,"0.0-3.125-0.125","s517gz6lggw555u",140,"152.csv","","509.1000003814697","resources/trios/L4T4A2.jpg","37","restless",0.5,0.7,0.6,0.872212816123364,"false"
"image-keyboard-response",387,335097,"0.0-3.125-1.125","s517gz6lggw555u",140,"152.csv","","null","resources/maskTrios/L4BB.jpg","null","",NA,NA,NA,NA,""
"image-keyboard-response",388,336312,"0.0-3.125-2.125","s517gz6lggw555u",140,"152.csv","","null","resources/images/fishbone.png","null","",NA,NA,NA,NA,""
"image-keyboard-response",389,336753,"0.0-3.126-0.126","s517gz6lggw555u",140,"152.csv","","439.80000019073486","resources/trios/L4T4A2.jpg","39","restless",0.5,0.8,0.6,0.481752972453707,"true"
"image-keyboard-response",390,337170,"0.0-3.126-1.126","s517gz6lggw555u",140,"152.csv","","null","resources/maskTrios/BBA2.jpg","null","",NA,NA,NA,NA,""
"image-keyboard-response",391,338373,"0.0-3.126-2.126","s517gz6lggw555u",140,"152.csv","","null","resources/images/coin2.png","null","",NA,NA,NA,NA,""
"image-keyboard-response",392,339135,"0.0-3.127-0.127","s517gz6lggw555u",140,"152.csv","","760.5","resources/trios/L2T2A3.jpg","39","restless",0.5,0.8,0.6,0.986648690277153,"false"
"image-keyboard-response",393,339544,"0.0-3.127-1.127","s517gz6lggw555u",140,"152.csv","","null","resources/maskTrios/BBA3.jpg","null","",NA,NA,NA,NA,""
"image-keyboard-response",394,340754,"0.0-3.127-2.127","s517gz6lggw555u",140,"152.csv","","null","resources/images/fishbone.png","null","",NA,NA,NA,NA,""
"image-keyboard-response",395,342043,"0.0-3.128-0.128","s517gz6lggw555u",140,"152.csv","","1285.5999999046326","resources/trios/L2T2A2.jpg","39","restless",0.5,0.8,0.5,0.155459098823889,"true"
"image-keyboard-response",396,342459,"0.0-3.128-1.128","s517gz6lggw555u",140,"152.csv","","null","resources/maskTrios/BBA2.jpg","null","",NA,NA,NA,NA,""
"image-keyboard-response",397,343673,"0.0-3.128-2.128","s517gz6lggw555u",140,"152.csv","","null","resources/images/coin2.png","null","",NA,NA,NA,NA,""
"image-keyboard-response",398,344405,"0.0-3.129-0.129","s517gz6lggw555u",140,"152.csv","","731.4000000953674","resources/trios/L2T2A3.jpg","39","restless",0.5,0.8,0.5,0.593352933194563,"false"
"image-keyboard-response",399,344819,"0.0-3.129-1.129","s517gz6lggw555u",140,"152.csv","","null","resources/maskTrios/BBA3.jpg","null","",NA,NA,NA,NA,""
"image-keyboard-response",400,346035,"0.0-3.129-2.129","s517gz6lggw555u",140,"152.csv","","null","resources/images/fishbone.png","null","",NA,NA,NA,NA,""
"image-keyboard-response",401,347110,"0.0-3.130-0.130","s517gz6lggw555u",140,"152.csv","","1073.1999998092651","resources/trios/L4T4A2.jpg","38","restless",0.4,0.8,0.5,0.507197312382443,"true"
"image-keyboard-response",402,347528,"0.0-3.130-1.130","s517gz6lggw555u",140,"152.csv","","null","resources/maskTrios/BT4B.jpg","null","",NA,NA,NA,NA,""
"image-keyboard-response",403,348739,"0.0-3.130-2.130","s517gz6lggw555u",140,"152.csv","","null","resources/images/coin2.png","null","",NA,NA,NA,NA,""
"image-keyboard-response",404,349313,"0.0-3.131-0.131","s517gz6lggw555u",140,"152.csv","","572.8000001907349","resources/trios/L4T4A3.jpg","38","restless",0.4,0.8,0.5,0.540506635762504,"true"
"image-keyboard-response",405,349726,"0.0-3.131-1.131","s517gz6lggw555u",140,"152.csv","","null","resources/maskTrios/BT4B.jpg","null","",NA,NA,NA,NA,""
"image-keyboard-response",406,350939,"0.0-3.131-2.131","s517gz6lggw555u",140,"152.csv","","null","resources/images/coin2.png","null","",NA,NA,NA,NA,""
"image-keyboard-response",407,351434,"0.0-3.132-0.132","s517gz6lggw555u",140,"152.csv","","492.59999990463257","resources/trios/L2T2A3.jpg","38","restless",0.4,0.9,0.5,0.450125740532093,"true"
"image-keyboard-response",408,351845,"0.0-3.132-1.132","s517gz6lggw555u",140,"152.csv","","null","resources/maskTrios/BT2B.jpg","null","",NA,NA,NA,NA,""
"image-keyboard-response",409,353057,"0.0-3.132-2.132","s517gz6lggw555u",140,"152.csv","","null","resources/images/coin2.png","null","",NA,NA,NA,NA,""
"image-keyboard-response",410,353503,"0.0-3.133-0.133","s517gz6lggw555u",140,"152.csv","","444.2000002861023","resources/trios/L4T2A3.jpg","38","restless",0.4,0.9,0.5,0.464372286205545,"true"
"image-keyboard-response",411,353918,"0.0-3.133-1.133","s517gz6lggw555u",140,"152.csv","","null","resources/maskTrios/BT2B.jpg","null","",NA,NA,NA,NA,""
"image-keyboard-response",412,355130,"0.0-3.133-2.133","s517gz6lggw555u",140,"152.csv","","null","resources/images/coin2.png","null","",NA,NA,NA,NA,""
"image-keyboard-response",413,355688,"0.0-3.134-0.134","s517gz6lggw555u",140,"152.csv","","555.7999997138977","resources/trios/L4T2A2.jpg","38","restless",0.4,0.9,0.5,0.814615318991213,"true"
"image-keyboard-response",414,356096,"0.0-3.134-1.134","s517gz6lggw555u",140,"152.csv","","null","resources/maskTrios/BT2B.jpg","null","",NA,NA,NA,NA,""
"image-keyboard-response",415,357301,"0.0-3.134-2.134","s517gz6lggw555u",140,"152.csv","","null","resources/images/coin2.png","null","",NA,NA,NA,NA,""
"image-keyboard-response",416,357721,"0.0-3.135-0.135","s517gz6lggw555u",140,"152.csv","","418.09999990463257","resources/trios/L2T4A3.jpg","38","restless",0.4,0.9,0.5,0.63954850603945,"true"
"image-keyboard-response",417,358124,"0.0-3.135-1.135","s517gz6lggw555u",140,"152.csv","","null","resources/maskTrios/BT4B.jpg","null","",NA,NA,NA,NA,""
"image-keyboard-response",418,359331,"0.0-3.135-2.135","s517gz6lggw555u",140,"152.csv","","null","resources/images/coin2.png","null","",NA,NA,NA,NA,""
"image-keyboard-response",419,359931,"0.0-3.136-0.136","s517gz6lggw555u",140,"152.csv","","598.1999998092651","resources/trios/L2T2A2.jpg","38","restless",0.4,0.8,0.5,0.795919868222055,"true"
"image-keyboard-response",420,360341,"0.0-3.136-1.136","s517gz6lggw555u",140,"152.csv","","null","resources/maskTrios/BT2B.jpg","null","",NA,NA,NA,NA,""
"image-keyboard-response",421,361554,"0.0-3.136-2.136","s517gz6lggw555u",140,"152.csv","","null","resources/images/coin2.png","null","",NA,NA,NA,NA,""
"image-keyboard-response",422,362455,"0.0-3.137-0.137","s517gz6lggw555u",140,"152.csv","","900","resources/trios/L4T2A2.jpg","38","restless",0.4,0.8,0.5,0.608128719406525,"true"
"image-keyboard-response",423,362873,"0.0-3.137-1.137","s517gz6lggw555u",140,"152.csv","","null","resources/maskTrios/BT2B.jpg","null","",NA,NA,NA,NA,""
"image-keyboard-response",424,364082,"0.0-3.137-2.137","s517gz6lggw555u",140,"152.csv","","null","resources/images/coin2.png","null","",NA,NA,NA,NA,""
"image-keyboard-response",425,364475,"0.0-3.138-0.138","s517gz6lggw555u",140,"152.csv","","391.40000009536743","resources/trios/L4T2A2.jpg","38","restless",0.4,0.8,0.5,0.297686684973159,"true"
"image-keyboard-response",426,364888,"0.0-3.138-1.138","s517gz6lggw555u",140,"152.csv","","null","resources/maskTrios/BT2B.jpg","null","",NA,NA,NA,NA,""
"image-keyboard-response",427,366099,"0.0-3.138-2.138","s517gz6lggw555u",140,"152.csv","","null","resources/images/coin2.png","null","",NA,NA,NA,NA,""
"image-keyboard-response",428,366519,"0.0-3.139-0.139","s517gz6lggw555u",140,"152.csv","","418.40000009536743","resources/trios/L4T4A2.jpg","38","restless",0.4,0.8,0.5,0.110028051090935,"true"
"image-keyboard-response",429,366934,"0.0-3.139-1.139","s517gz6lggw555u",140,"152.csv","","null","resources/maskTrios/BT4B.jpg","null","",NA,NA,NA,NA,""
"image-keyboard-response",430,368139,"0.0-3.139-2.139","s517gz6lggw555u",140,"152.csv","","null","resources/images/coin2.png","null","",NA,NA,NA,NA,""
"image-keyboard-response",431,368574,"0.0-3.140-0.140","s517gz6lggw555u",140,"152.csv","","433.59999990463257","resources/trios/L4T2A2.jpg","38","restless",0.4,0.8,0.5,0.894719214611659,"false"
"image-keyboard-response",432,368984,"0.0-3.140-1.140","s517gz6lggw555u",140,"152.csv","","null","resources/maskTrios/BT2B.jpg","null","",NA,NA,NA,NA,""
"image-keyboard-response",433,370194,"0.0-3.140-2.140","s517gz6lggw555u",140,"152.csv","","null","resources/images/fishbone.png","null","",NA,NA,NA,NA,""
"image-keyboard-response",434,370582,"0.0-3.141-0.141","s517gz6lggw555u",140,"152.csv","","386.5","resources/trios/L2T4A2.jpg","37","restless",0.4,0.8,0.5,0.899755468409473,"false"
"image-keyboard-response",435,370997,"0.0-3.141-1.141","s517gz6lggw555u",140,"152.csv","","null","resources/maskTrios/L2BB.jpg","null","",NA,NA,NA,NA,""
"image-keyboard-response",436,372207,"0.0-3.141-2.141","s517gz6lggw555u",140,"152.csv","","null","resources/images/fishbone.png","null","",NA,NA,NA,NA,""
"image-keyboard-response",437,372646,"0.0-3.142-0.142","s517gz6lggw555u",140,"152.csv","","437.40000009536743","resources/trios/L2T4A3.jpg","39","restless",0.4,0.8,0.5,0.273153238875201,"true"
"image-keyboard-response",438,373062,"0.0-3.142-1.142","s517gz6lggw555u",140,"152.csv","","null","resources/maskTrios/BBA3.jpg","null","",NA,NA,NA,NA,""
"image-keyboard-response",439,374265,"0.0-3.142-2.142","s517gz6lggw555u",140,"152.csv","","null","resources/images/coin2.png","null","",NA,NA,NA,NA,""
"image-keyboard-response",440,374753,"0.0-3.143-0.143","s517gz6lggw555u",140,"152.csv","","486.09999990463257","resources/trios/L2T4A3.jpg","39","restless",0.4,0.8,0.5,0.266071534130856,"true"
"image-keyboard-response",441,375161,"0.0-3.143-1.143","s517gz6lggw555u",140,"152.csv","","null","resources/maskTrios/BBA3.jpg","null","",NA,NA,NA,NA,""
"image-keyboard-response",442,376365,"0.0-3.143-2.143","s517gz6lggw555u",140,"152.csv","","null","resources/images/coin2.png","null","",NA,NA,NA,NA,""
"image-keyboard-response",443,377003,"0.0-3.144-0.144","s517gz6lggw555u",140,"152.csv","","636.2000002861023","resources/trios/L4T2A2.jpg","39","restless",0.3,0.7,0.5,0.689410659728253,"false"
"image-keyboard-response",444,377409,"0.0-3.144-1.144","s517gz6lggw555u",140,"152.csv","","null","resources/maskTrios/BBA2.jpg","null","",NA,NA,NA,NA,""
"image-keyboard-response",445,378625,"0.0-3.144-2.144","s517gz6lggw555u",140,"152.csv","","null","resources/images/fishbone.png","null","",NA,NA,NA,NA,""
"image-keyboard-response",446,379112,"0.0-3.145-0.145","s517gz6lggw555u",140,"152.csv","","485.59999990463257","resources/trios/L4T2A3.jpg","38","restless",0.3,0.7,0.5,0.987606436293321,"false"
"image-keyboard-response",447,379530,"0.0-3.145-1.145","s517gz6lggw555u",140,"152.csv","","null","resources/maskTrios/BT2B.jpg","null","",NA,NA,NA,NA,""
"image-keyboard-response",448,380738,"0.0-3.145-2.145","s517gz6lggw555u",140,"152.csv","","null","resources/images/fishbone.png","null","",NA,NA,NA,NA,""
"image-keyboard-response",449,381280,"0.0-3.146-0.146","s517gz6lggw555u",140,"152.csv","","540.9000000953674","resources/trios/L4T2A3.jpg","37","restless",0.3,0.7,0.5,0.172486047252648,"true"
"image-keyboard-response",450,381688,"0.0-3.146-1.146","s517gz6lggw555u",140,"152.csv","","null","resources/maskTrios/L4BB.jpg","null","",NA,NA,NA,NA,""
"image-keyboard-response",451,382905,"0.0-3.146-2.146","s517gz6lggw555u",140,"152.csv","","null","resources/images/coin2.png","null","",NA,NA,NA,NA,""
"image-keyboard-response",452,384881,"0.0-3.147-0.147","s517gz6lggw555u",140,"152.csv","","1974.6000003814697","resources/trios/L4T2A3.jpg","37","restless",0.3,0.6,0.5,0.630640461957751,"false"
"image-keyboard-response",453,385285,"0.0-3.147-1.147","s517gz6lggw555u",140,"152.csv","","null","resources/maskTrios/L4BB.jpg","null","",NA,NA,NA,NA,""
"image-keyboard-response",454,386497,"0.0-3.147-2.147","s517gz6lggw555u",140,"152.csv","","null","resources/images/fishbone.png","null","",NA,NA,NA,NA,""
"image-keyboard-response",455,386825,"0.0-3.148-0.148","s517gz6lggw555u",140,"152.csv","","326.2000002861023","resources/trios/L2T4A3.jpg","39","restless",0.3,0.6,0.6,0.860043275158852,"false"
"image-keyboard-response",456,387234,"0.0-3.148-1.148","s517gz6lggw555u",140,"152.csv","","null","resources/maskTrios/BBA3.jpg","null","",NA,NA,NA,NA,""
"image-keyboard-response",457,388450,"0.0-3.148-2.148","s517gz6lggw555u",140,"152.csv","","null","resources/images/fishbone.png","null","",NA,NA,NA,NA,""
"image-keyboard-response",458,388799,"0.0-3.149-0.149","s517gz6lggw555u",140,"152.csv","","347.19999980926514","resources/trios/L2T2A3.jpg","38","restless",0.3,0.6,0.6,0.576170177278257,"true"
"image-keyboard-response",459,389215,"0.0-3.149-1.149","s517gz6lggw555u",140,"152.csv","","null","resources/maskTrios/BT2B.jpg","null","",NA,NA,NA,NA,""
"image-keyboard-response",460,390431,"0.0-3.149-2.149","s517gz6lggw555u",140,"152.csv","","null","resources/images/coin2.png","null","",NA,NA,NA,NA,""
"image-keyboard-response",461,390788,"0.0-3.150-0.150","s517gz6lggw555u",140,"152.csv","","356.09999990463257","resources/trios/L2T2A2.jpg","38","restless",0.3,0.6,0.6,0.22621346854709,"true"
"image-keyboard-response",462,391196,"0.0-3.150-1.150","s517gz6lggw555u",140,"152.csv","","null","resources/maskTrios/BT2B.jpg","null","",NA,NA,NA,NA,""
"image-keyboard-response",463,392402,"0.0-3.150-2.150","s517gz6lggw555u",140,"152.csv","","null","resources/images/coin2.png","null","",NA,NA,NA,NA,""
"image-keyboard-response",464,392744,"0.0-3.151-0.151","s517gz6lggw555u",140,"152.csv","","341.59999990463257","resources/trios/L4T2A3.jpg","38","restless",0.3,0.6,0.6,0.751139631022451,"false"
"image-keyboard-response",465,393160,"0.0-3.151-1.151","s517gz6lggw555u",140,"152.csv","","null","resources/maskTrios/BT2B.jpg","null","",NA,NA,NA,NA,""
"image-keyboard-response",466,394373,"0.0-3.151-2.151","s517gz6lggw555u",140,"152.csv","","null","resources/images/fishbone.png","null","",NA,NA,NA,NA,""
"image-keyboard-response",467,394838,"0.0-3.152-0.152","s517gz6lggw555u",140,"152.csv","","463.09999990463257","resources/trios/L4T4A3.jpg","37","restless",0.3,0.6,0.6,0.08285135084388,"true"
"image-keyboard-response",468,395243,"0.0-3.152-1.152","s517gz6lggw555u",140,"152.csv","","null","resources/maskTrios/L4BB.jpg","null","",NA,NA,NA,NA,""
"image-keyboard-response",469,396445,"0.0-3.152-2.152","s517gz6lggw555u",140,"152.csv","","null","resources/images/coin2.png","null","",NA,NA,NA,NA,""
"image-keyboard-response",470,396980,"0.0-3.153-0.153","s517gz6lggw555u",140,"152.csv","","533.1999998092651","resources/trios/L2T4A3.jpg","37","restless",0.3,0.6,0.6,0.552912984845652,"false"
"image-keyboard-response",471,397391,"0.0-3.153-1.153","s517gz6lggw555u",140,"152.csv","","null","resources/maskTrios/L2BB.jpg","null","",NA,NA,NA,NA,""
"image-keyboard-response",472,398596,"0.0-3.153-2.153","s517gz6lggw555u",140,"152.csv","","null","resources/images/fishbone.png","null","",NA,NA,NA,NA,""
"image-keyboard-response",473,398714,"0.0-3.154-0.154","s517gz6lggw555u",140,"152.csv","","116.40000009536743","resources/trios/L2T2A2.jpg","39","restless",0.3,0.6,0.6,0.617744771034793,"false"
"image-keyboard-response",474,399122,"0.0-3.154-1.154","s517gz6lggw555u",140,"152.csv","","null","resources/maskTrios/BBA2.jpg","null","",NA,NA,NA,NA,""
"image-keyboard-response",475,400332,"0.0-3.154-2.154","s517gz6lggw555u",140,"152.csv","","null","resources/images/fishbone.png","null","",NA,NA,NA,NA,""
"image-keyboard-response",476,400579,"0.0-3.155-0.155","s517gz6lggw555u",140,"152.csv","","246.40000009536743","resources/trios/L2T2A2.jpg","38","restless",0.3,0.5,0.6,0.981830810154254,"false"
"image-keyboard-response",477,400988,"0.0-3.155-1.155","s517gz6lggw555u",140,"152.csv","","null","resources/maskTrios/BT2B.jpg","null","",NA,NA,NA,NA,""
"image-keyboard-response",478,402199,"0.0-3.155-2.155","s517gz6lggw555u",140,"152.csv","","null","resources/images/fishbone.png","null","",NA,NA,NA,NA,""
"image-keyboard-response",479,402507,"0.0-3.156-0.156","s517gz6lggw555u",140,"152.csv","","306.40000009536743","resources/trios/L4T2A3.jpg","37","restless",0.3,0.5,0.6,0.307765092450698,"false"
"image-keyboard-response",480,402919,"0.0-3.156-1.156","s517gz6lggw555u",140,"152.csv","","null","resources/maskTrios/L4BB.jpg","null","",NA,NA,NA,NA,""
"image-keyboard-response",481,404122,"0.0-3.156-2.156","s517gz6lggw555u",140,"152.csv","","null","resources/images/fishbone.png","null","",NA,NA,NA,NA,""
"image-keyboard-response",482,404427,"0.0-3.157-0.157","s517gz6lggw555u",140,"152.csv","","301.80000019073486","resources/trios/L4T2A3.jpg","39","restless",0.3,0.5,0.6,0.0598148465898491,"true"
"image-keyboard-response",483,404834,"0.0-3.157-1.157","s517gz6lggw555u",140,"152.csv","","null","resources/maskTrios/BBA3.jpg","null","",NA,NA,NA,NA,""
"image-keyboard-response",484,406036,"0.0-3.157-2.157","s517gz6lggw555u",140,"152.csv","","null","resources/images/coin2.png","null","",NA,NA,NA,NA,""
"image-keyboard-response",485,406377,"0.0-3.158-0.158","s517gz6lggw555u",140,"152.csv","","339.40000009536743","resources/trios/L2T4A3.jpg","39","restless",0.3,0.5,0.6,0.263404190823336,"true"
"image-keyboard-response",486,406785,"0.0-3.158-1.158","s517gz6lggw555u",140,"152.csv","","null","resources/maskTrios/BBA3.jpg","null","",NA,NA,NA,NA,""
"image-keyboard-response",487,407995,"0.0-3.158-2.158","s517gz6lggw555u",140,"152.csv","","null","resources/images/coin2.png","null","",NA,NA,NA,NA,""
"image-keyboard-response",488,408323,"0.0-3.159-0.159","s517gz6lggw555u",140,"152.csv","","326.19999980926514","resources/trios/L2T4A2.jpg","39","restless",0.3,0.5,0.6,0.727046859197659,"false"
"image-keyboard-response",489,408730,"0.0-3.159-1.159","s517gz6lggw555u",140,"152.csv","","null","resources/maskTrios/BBA2.jpg","null","",NA,NA,NA,NA,""
"image-keyboard-response",490,409933,"0.0-3.159-2.159","s517gz6lggw555u",140,"152.csv","","null","resources/images/fishbone.png","null","",NA,NA,NA,NA,""
"image-keyboard-response",491,410529,"0.0-3.160-0.160","s517gz6lggw555u",140,"152.csv","","594.3000001907349","resources/trios/L4T4A2.jpg","37","restless",0.3,0.5,0.6,0.159794564854268,"true"
"image-keyboard-response",492,410943,"0.0-3.160-1.160","s517gz6lggw555u",140,"152.csv","","null","resources/maskTrios/L4BB.jpg","null","",NA,NA,NA,NA,""
"image-keyboard-response",493,412158,"0.0-3.160-2.160","s517gz6lggw555u",140,"152.csv","","null","resources/images/coin2.png","null","",NA,NA,NA,NA,""
"image-keyboard-response",494,412517,"0.0-3.161-0.161","s517gz6lggw555u",140,"152.csv","","357.80000019073486","resources/trios/L4T2A3.jpg","37","restless",0.3,0.5,0.6,0.145235902455405,"true"
"image-keyboard-response",495,412926,"0.0-3.161-1.161","s517gz6lggw555u",140,"152.csv","","null","resources/maskTrios/L4BB.jpg","null","",NA,NA,NA,NA,""
"image-keyboard-response",496,414131,"0.0-3.161-2.161","s517gz6lggw555u",140,"152.csv","","null","resources/images/coin2.png","null","",NA,NA,NA,NA,""
"image-keyboard-response",497,414414,"0.0-3.162-0.162","s517gz6lggw555u",140,"152.csv","","281.90000009536743","resources/trios/L4T2A3.jpg","37","restless",0.3,0.5,0.6,0.486385018459659,"false"
"image-keyboard-response",498,414824,"0.0-3.162-1.162","s517gz6lggw555u",140,"152.csv","","null","resources/maskTrios/L4BB.jpg","null","",NA,NA,NA,NA,""
"image-keyboard-response",499,416031,"0.0-3.162-2.162","s517gz6lggw555u",140,"152.csv","","null","resources/images/fishbone.png","null","",NA,NA,NA,NA,""
"image-keyboard-response",500,416463,"0.0-3.163-0.163","s517gz6lggw555u",140,"152.csv","","430.30000019073486","resources/trios/L2T4A3.jpg","38","restless",0.3,0.5,0.6,0.00429364224101847,"true"
"image-keyboard-response",501,416872,"0.0-3.163-1.163","s517gz6lggw555u",140,"152.csv","","null","resources/maskTrios/BT4B.jpg","null","",NA,NA,NA,NA,""
"image-keyboard-response",502,418075,"0.0-3.163-2.163","s517gz6lggw555u",140,"152.csv","","null","resources/images/coin2.png","null","",NA,NA,NA,NA,""
"image-keyboard-response",503,418878,"0.0-3.164-0.164","s517gz6lggw555u",140,"152.csv","","801.7000002861023","resources/trios/L4T4A3.jpg","38","restless",0.3,0.5,0.6,0.0842193741240633,"true"
"image-keyboard-response",504,419287,"0.0-3.164-1.164","s517gz6lggw555u",140,"152.csv","","null","resources/maskTrios/BT4B.jpg","null","",NA,NA,NA,NA,""
"image-keyboard-response",505,420499,"0.0-3.164-2.164","s517gz6lggw555u",140,"152.csv","","null","resources/images/coin2.png","null","",NA,NA,NA,NA,""
"image-keyboard-response",506,421014,"0.0-3.165-0.165","s517gz6lggw555u",140,"152.csv","","513.5999999046326","resources/trios/L4T4A3.jpg","38","restless",0.3,0.5,0.6,0.256720433852326,"true"
"image-keyboard-response",507,421422,"0.0-3.165-1.165","s517gz6lggw555u",140,"152.csv","","null","resources/maskTrios/BT4B.jpg","null","",NA,NA,NA,NA,""
"image-keyboard-response",508,422632,"0.0-3.165-2.165","s517gz6lggw555u",140,"152.csv","","null","resources/images/coin2.png","null","",NA,NA,NA,NA,""
"image-keyboard-response",509,423100,"0.0-3.166-0.166","s517gz6lggw555u",140,"152.csv","","466.59999990463257","resources/trios/L4T4A2.jpg","38","restless",0.3,0.5,0.6,0.855630505434313,"false"
"image-keyboard-response",510,423515,"0.0-3.166-1.166","s517gz6lggw555u",140,"152.csv","","null","resources/maskTrios/BT4B.jpg","null","",NA,NA,NA,NA,""
"image-keyboard-response",511,424722,"0.0-3.166-2.166","s517gz6lggw555u",140,"152.csv","","null","resources/images/fishbone.png","null","",NA,NA,NA,NA,""
"image-keyboard-response",512,424911,"0.0-3.167-0.167","s517gz6lggw555u",140,"152.csv","","186.69999980926514","resources/trios/L4T4A2.jpg","39","restless",0.3,0.5,0.6,0.103964056641769,"true"
"image-keyboard-response",513,425316,"0.0-3.167-1.167","s517gz6lggw555u",140,"152.csv","","null","resources/maskTrios/BBA2.jpg","null","",NA,NA,NA,NA,""
"image-keyboard-response",514,426524,"0.0-3.167-2.167","s517gz6lggw555u",140,"152.csv","","null","resources/images/coin2.png","null","",NA,NA,NA,NA,""
"image-keyboard-response",515,427063,"0.0-3.168-0.168","s517gz6lggw555u",140,"152.csv","","537.1999998092651","resources/trios/L4T4A2.jpg","39","restless",0.3,0.5,0.7,0.0502676293171906,"true"
"image-keyboard-response",516,427478,"0.0-3.168-1.168","s517gz6lggw555u",140,"152.csv","","null","resources/maskTrios/BBA2.jpg","null","",NA,NA,NA,NA,""
"image-keyboard-response",517,428682,"0.0-3.168-2.168","s517gz6lggw555u",140,"152.csv","","null","resources/images/coin2.png","null","",NA,NA,NA,NA,""
"image-keyboard-response",518,429047,"0.0-3.169-0.169","s517gz6lggw555u",140,"152.csv","","362.90000009536743","resources/trios/L2T4A3.jpg","39","restless",0.3,0.5,0.7,0.0406977915846607,"true"
"image-keyboard-response",519,429451,"0.0-3.169-1.169","s517gz6lggw555u",140,"152.csv","","null","resources/maskTrios/BBA3.jpg","null","",NA,NA,NA,NA,""
"image-keyboard-response",520,430668,"0.0-3.169-2.169","s517gz6lggw555u",140,"152.csv","","null","resources/images/coin2.png","null","",NA,NA,NA,NA,""
"image-keyboard-response",521,431401,"0.0-3.170-0.170","s517gz6lggw555u",140,"152.csv","","732.5","resources/trios/L4T4A2.jpg","39","restless",0.3,0.5,0.7,0.448712589950441,"true"
"image-keyboard-response",522,431815,"0.0-3.170-1.170","s517gz6lggw555u",140,"152.csv","","null","resources/maskTrios/BBA2.jpg","null","",NA,NA,NA,NA,""
"image-keyboard-response",523,433017,"0.0-3.170-2.170","s517gz6lggw555u",140,"152.csv","","null","resources/images/coin2.png","null","",NA,NA,NA,NA,""
"image-keyboard-response",524,434019,"0.0-3.171-0.171","s517gz6lggw555u",140,"152.csv","","1000.0999999046326","resources/trios/L4T4A2.jpg","39","restless",0.3,0.5,0.7,0.963239544024551,"false"
"image-keyboard-response",525,434424,"0.0-3.171-1.171","s517gz6lggw555u",140,"152.csv","","null","resources/maskTrios/BBA2.jpg","null","",NA,NA,NA,NA,""
"image-keyboard-response",526,435639,"0.0-3.171-2.171","s517gz6lggw555u",140,"152.csv","","null","resources/images/fishbone.png","null","",NA,NA,NA,NA,""
"image-keyboard-response",527,436235,"0.0-3.172-0.172","s517gz6lggw555u",140,"152.csv","","594.1999998092651","resources/trios/L2T2A2.jpg","37","restless",0.3,0.5,0.7,0.489728589665875,"false"
"image-keyboard-response",528,436652,"0.0-3.172-1.172","s517gz6lggw555u",140,"152.csv","","null","resources/maskTrios/L2BB.jpg","null","",NA,NA,NA,NA,""
"image-keyboard-response",529,437855,"0.0-3.172-2.172","s517gz6lggw555u",140,"152.csv","","null","resources/images/fishbone.png","null","",NA,NA,NA,NA,""
"image-keyboard-response",530,438439,"0.0-3.173-0.173","s517gz6lggw555u",140,"152.csv","","582.6999998092651","resources/trios/L2T2A3.jpg","38","restless",0.2,0.5,0.7,0.425072614610891,"true"
"image-keyboard-response",531,438852,"0.0-3.173-1.173","s517gz6lggw555u",140,"152.csv","","null","resources/maskTrios/BT2B.jpg","null","",NA,NA,NA,NA,""
"image-keyboard-response",532,440058,"0.0-3.173-2.173","s517gz6lggw555u",140,"152.csv","","null","resources/images/coin2.png","null","",NA,NA,NA,NA,""
"image-keyboard-response",533,441092,"0.0-3.174-0.174","s517gz6lggw555u",140,"152.csv","","1032.1000003814697","resources/trios/L2T2A3.jpg","38","restless",0.2,0.5,0.7,0.0384646591665194,"true"
"image-keyboard-response",534,441498,"0.0-3.174-1.174","s517gz6lggw555u",140,"152.csv","","null","resources/maskTrios/BT2B.jpg","null","",NA,NA,NA,NA,""
"image-keyboard-response",535,442705,"0.0-3.174-2.174","s517gz6lggw555u",140,"152.csv","","null","resources/images/coin2.png","null","",NA,NA,NA,NA,""
"image-keyboard-response",536,443027,"0.0-3.175-0.175","s517gz6lggw555u",140,"152.csv","","320.5","resources/trios/L2T2A3.jpg","38","restless",0.3,0.5,0.7,0.277799577532626,"true"
"image-keyboard-response",537,443437,"0.0-3.175-1.175","s517gz6lggw555u",140,"152.csv","","null","resources/maskTrios/BT2B.jpg","null","",NA,NA,NA,NA,""
"image-keyboard-response",538,444644,"0.0-3.175-2.175","s517gz6lggw555u",140,"152.csv","","null","resources/images/coin2.png","null","",NA,NA,NA,NA,""
"image-keyboard-response",539,445136,"0.0-3.176-0.176","s517gz6lggw555u",140,"152.csv","","489.69999980926514","resources/trios/L4T2A2.jpg","38","restless",0.3,0.5,0.7,0.83655449709404,"false"
"image-keyboard-response",540,445553,"0.0-3.176-1.176","s517gz6lggw555u",140,"152.csv","","null","resources/maskTrios/BT2B.jpg","null","",NA,NA,NA,NA,""
"image-keyboard-response",541,446760,"0.0-3.176-2.176","s517gz6lggw555u",140,"152.csv","","null","resources/images/fishbone.png","null","",NA,NA,NA,NA,""
"image-keyboard-response",542,447512,"0.0-3.177-0.177","s517gz6lggw555u",140,"152.csv","","750.5","resources/trios/L4T2A2.jpg","39","restless",0.3,0.5,0.7,0.984418044298185,"false"
"image-keyboard-response",543,447917,"0.0-3.177-1.177","s517gz6lggw555u",140,"152.csv","","null","resources/maskTrios/BBA2.jpg","null","",NA,NA,NA,NA,""
"image-keyboard-response",544,449123,"0.0-3.177-2.177","s517gz6lggw555u",140,"152.csv","","null","resources/images/fishbone.png","null","",NA,NA,NA,NA,""
"image-keyboard-response",545,449562,"0.0-3.178-0.178","s517gz6lggw555u",140,"152.csv","","436.80000019073486","resources/trios/L4T4A2.jpg","39","restless",0.3,0.5,0.7,0.240765536785023,"true"
"image-keyboard-response",546,449972,"0.0-3.178-1.178","s517gz6lggw555u",140,"152.csv","","null","resources/maskTrios/BBA2.jpg","null","",NA,NA,NA,NA,""
"image-keyboard-response",547,451180,"0.0-3.178-2.178","s517gz6lggw555u",140,"152.csv","","null","resources/images/coin2.png","null","",NA,NA,NA,NA,""
"image-keyboard-response",548,451629,"0.0-3.179-0.179","s517gz6lggw555u",140,"152.csv","","447.80000019073486","resources/trios/L2T4A2.jpg","39","restless",0.3,0.4,0.7,0.826892975393167,"false"
"image-keyboard-response",549,452039,"0.0-3.179-1.179","s517gz6lggw555u",140,"152.csv","","null","resources/maskTrios/BBA2.jpg","null","",NA,NA,NA,NA,""
"image-keyboard-response",550,453247,"0.0-3.179-2.179","s517gz6lggw555u",140,"152.csv","","null","resources/images/fishbone.png","null","",NA,NA,NA,NA,""
"image-keyboard-response",551,453617,"0.0-3.180-0.180","s517gz6lggw555u",140,"152.csv","","368.40000009536743","resources/trios/L4T2A2.jpg","37","restless",0.3,0.4,0.7,0.670208244864013,"false"
"image-keyboard-response",552,454027,"0.0-3.180-1.180","s517gz6lggw555u",140,"152.csv","","null","resources/maskTrios/L4BB.jpg","null","",NA,NA,NA,NA,""
"image-keyboard-response",553,455240,"0.0-3.180-2.180","s517gz6lggw555u",140,"152.csv","","null","resources/images/fishbone.png","null","",NA,NA,NA,NA,""
"image-keyboard-response",554,455482,"0.0-3.181-0.181","s517gz6lggw555u",140,"152.csv","","241","resources/trios/L2T2A2.jpg","37","restless",0.3,0.4,0.7,0.438568765292253,"false"
"image-keyboard-response",555,455890,"0.0-3.181-1.181","s517gz6lggw555u",140,"152.csv","","null","resources/maskTrios/L2BB.jpg","null","",NA,NA,NA,NA,""
"image-keyboard-response",556,457094,"0.0-3.181-2.181","s517gz6lggw555u",140,"152.csv","","null","resources/images/fishbone.png","null","",NA,NA,NA,NA,""
"image-keyboard-response",557,457221,"0.0-3.182-0.182","s517gz6lggw555u",140,"152.csv","","126","resources/trios/L4T4A2.jpg","38","restless",0.2,0.4,0.7,0.545225924941564,"false"
"image-keyboard-response",558,457635,"0.0-3.182-1.182","s517gz6lggw555u",140,"152.csv","","null","resources/maskTrios/BT4B.jpg","null","",NA,NA,NA,NA,""
"image-keyboard-response",559,458844,"0.0-3.182-2.182","s517gz6lggw555u",140,"152.csv","","null","resources/images/fishbone.png","null","",NA,NA,NA,NA,""
"image-keyboard-response",560,459146,"0.0-3.183-0.183","s517gz6lggw555u",140,"152.csv","","301","resources/trios/L2T4A2.jpg","38","restless",0.1,0.4,0.7,0.792796096224956,"false"
"image-keyboard-response",561,459550,"0.0-3.183-1.183","s517gz6lggw555u",140,"152.csv","","null","resources/maskTrios/BT4B.jpg","null","",NA,NA,NA,NA,""
"image-keyboard-response",562,460762,"0.0-3.183-2.183","s517gz6lggw555u",140,"152.csv","","null","resources/images/fishbone.png","null","",NA,NA,NA,NA,""
"image-keyboard-response",563,461485,"0.0-3.184-0.184","s517gz6lggw555u",140,"152.csv","","721.5","resources/trios/L4T4A2.jpg","39","restless",0.1,0.4,0.7,0.740248450579704,"false"
"image-keyboard-response",564,461899,"0.0-3.184-1.184","s517gz6lggw555u",140,"152.csv","","null","resources/maskTrios/BBA2.jpg","null","",NA,NA,NA,NA,""
"image-keyboard-response",565,463109,"0.0-3.184-2.184","s517gz6lggw555u",140,"152.csv","","null","resources/images/fishbone.png","null","",NA,NA,NA,NA,""
"image-keyboard-response",566,463558,"0.0-3.185-0.185","s517gz6lggw555u",140,"152.csv","","447.40000009536743","resources/trios/L2T4A3.jpg","37","restless",0.1,0.4,0.7,0.200655623601224,"false"
"image-keyboard-response",567,463968,"0.0-3.185-1.185","s517gz6lggw555u",140,"152.csv","","null","resources/maskTrios/L2BB.jpg","null","",NA,NA,NA,NA,""
"image-keyboard-response",568,465175,"0.0-3.185-2.185","s517gz6lggw555u",140,"152.csv","","null","resources/images/fishbone.png","null","",NA,NA,NA,NA,""
"image-keyboard-response",569,465641,"0.0-3.186-0.186","s517gz6lggw555u",140,"152.csv","","464.19999980926514","resources/trios/L2T2A3.jpg","38","restless",0.1,0.4,0.7,0.495084266015441,"false"
"image-keyboard-response",570,466058,"0.0-3.186-1.186","s517gz6lggw555u",140,"152.csv","","null","resources/maskTrios/BT2B.jpg","null","",NA,NA,NA,NA,""
"image-keyboard-response",571,467265,"0.0-3.186-2.186","s517gz6lggw555u",140,"152.csv","","null","resources/images/fishbone.png","null","",NA,NA,NA,NA,""
"image-keyboard-response",572,467771,"0.0-3.187-0.187","s517gz6lggw555u",140,"152.csv","","504.7999997138977","resources/trios/L2T2A3.jpg","39","restless",0.1,0.4,0.7,0.541420632249738,"true"
"image-keyboard-response",573,468174,"0.0-3.187-1.187","s517gz6lggw555u",140,"152.csv","","null","resources/maskTrios/BBA3.jpg","null","",NA,NA,NA,NA,""
"image-keyboard-response",574,469386,"0.0-3.187-2.187","s517gz6lggw555u",140,"152.csv","","null","resources/images/coin2.png","null","",NA,NA,NA,NA,""
"image-keyboard-response",575,470442,"0.0-3.188-0.188","s517gz6lggw555u",140,"152.csv","","1055","resources/trios/L4T2A3.jpg","39","restless",0.1,0.4,0.7,0.674095777996646,"true"
"image-keyboard-response",576,470855,"0.0-3.188-1.188","s517gz6lggw555u",140,"152.csv","","null","resources/maskTrios/BBA3.jpg","null","",NA,NA,NA,NA,""
"image-keyboard-response",577,472058,"0.0-3.188-2.188","s517gz6lggw555u",140,"152.csv","","null","resources/images/coin2.png","null","",NA,NA,NA,NA,""
"image-keyboard-response",578,472610,"0.0-3.189-0.189","s517gz6lggw555u",140,"152.csv","","550.2999997138977","resources/trios/L4T4A3.jpg","39","restless",0.2,0.4,0.7,0.441727817227915,"true"
"image-keyboard-response",579,473028,"0.0-3.189-1.189","s517gz6lggw555u",140,"152.csv","","null","resources/maskTrios/BBA3.jpg","null","",NA,NA,NA,NA,""
"image-keyboard-response",580,474235,"0.0-3.189-2.189","s517gz6lggw555u",140,"152.csv","","null","resources/images/coin2.png","null","",NA,NA,NA,NA,""
"image-keyboard-response",581,475163,"0.0-3.190-0.190","s517gz6lggw555u",140,"152.csv","","925.9000000953674","resources/trios/L2T2A2.jpg","39","restless",0.2,0.5,0.7,0.580293694321634,"true"
"image-keyboard-response",582,475567,"0.0-3.190-1.190","s517gz6lggw555u",140,"152.csv","","null","resources/maskTrios/BBA2.jpg","null","",NA,NA,NA,NA,""
"image-keyboard-response",583,476783,"0.0-3.190-2.190","s517gz6lggw555u",140,"152.csv","","null","resources/images/coin2.png","null","",NA,NA,NA,NA,""
"image-keyboard-response",584,477176,"0.0-3.191-0.191","s517gz6lggw555u",140,"152.csv","","391.40000009536743","resources/trios/L2T4A3.jpg","39","restless",0.3,0.5,0.7,0.467897444764384,"true"
"image-keyboard-response",585,477582,"0.0-3.191-1.191","s517gz6lggw555u",140,"152.csv","","null","resources/maskTrios/BBA3.jpg","null","",NA,NA,NA,NA,""
"image-keyboard-response",586,478792,"0.0-3.191-2.191","s517gz6lggw555u",140,"152.csv","","null","resources/images/coin2.png","null","",NA,NA,NA,NA,""
"image-keyboard-response",587,479127,"0.0-3.192-0.192","s517gz6lggw555u",140,"152.csv","","334.19999980926514","resources/trios/L2T2A2.jpg","39","restless",0.3,0.5,0.7,0.367886374635977,"true"
"image-keyboard-response",588,479530,"0.0-3.192-1.192","s517gz6lggw555u",140,"152.csv","","null","resources/maskTrios/BBA2.jpg","null","",NA,NA,NA,NA,""
"image-keyboard-response",589,480740,"0.0-3.192-2.192","s517gz6lggw555u",140,"152.csv","","null","resources/images/coin2.png","null","",NA,NA,NA,NA,""
"image-keyboard-response",590,481049,"0.0-3.193-0.193","s517gz6lggw555u",140,"152.csv","","307.6000003814697","resources/trios/L4T2A3.jpg","39","restless",0.3,0.5,0.7,0.717022294222225,"false"
"image-keyboard-response",591,481462,"0.0-3.193-1.193","s517gz6lggw555u",140,"152.csv","","null","resources/maskTrios/BBA3.jpg","null","",NA,NA,NA,NA,""
"image-keyboard-response",592,482669,"0.0-3.193-2.193","s517gz6lggw555u",140,"152.csv","","null","resources/images/fishbone.png","null","",NA,NA,NA,NA,""
"image-keyboard-response",593,482891,"0.0-3.194-0.194","s517gz6lggw555u",140,"152.csv","","219.59999990463257","resources/trios/L4T2A3.jpg","38","restless",0.4,0.5,0.7,0.120815122292579,"true"
"image-keyboard-response",594,483299,"0.0-3.194-1.194","s517gz6lggw555u",140,"152.csv","","null","resources/maskTrios/BT2B.jpg","null","",NA,NA,NA,NA,""
"image-keyboard-response",595,484503,"0.0-3.194-2.194","s517gz6lggw555u",140,"152.csv","","null","resources/images/coin2.png","null","",NA,NA,NA,NA,""
"image-keyboard-response",596,484767,"0.0-3.195-0.195","s517gz6lggw555u",140,"152.csv","","262","resources/trios/L4T4A3.jpg","38","restless",0.5,0.4,0.6,0.0872513369098007,"true"
"image-keyboard-response",597,485175,"0.0-3.195-1.195","s517gz6lggw555u",140,"152.csv","","null","resources/maskTrios/BT4B.jpg","null","",NA,NA,NA,NA,""
"image-keyboard-response",598,486378,"0.0-3.195-2.195","s517gz6lggw555u",140,"152.csv","","null","resources/images/coin2.png","null","",NA,NA,NA,NA,""
"image-keyboard-response",599,486806,"0.0-3.196-0.196","s517gz6lggw555u",140,"152.csv","","426.40000009536743","resources/trios/L4T2A3.jpg","38","restless",0.6,0.4,0.6,0.369637054275721,"true"
"image-keyboard-response",600,487219,"0.0-3.196-1.196","s517gz6lggw555u",140,"152.csv","","null","resources/maskTrios/BT2B.jpg","null","",NA,NA,NA,NA,""
"image-keyboard-response",601,488429,"0.0-3.196-2.196","s517gz6lggw555u",140,"152.csv","","null","resources/images/coin2.png","null","",NA,NA,NA,NA,""
"image-keyboard-response",602,488885,"0.0-3.197-0.197","s517gz6lggw555u",140,"152.csv","","454","resources/trios/L4T4A3.jpg","38","restless",0.6,0.4,0.6,0.99542843658852,"false"
"image-keyboard-response",603,489288,"0.0-3.197-1.197","s517gz6lggw555u",140,"152.csv","","null","resources/maskTrios/BT4B.jpg","null","",NA,NA,NA,NA,""
"image-keyboard-response",604,490498,"0.0-3.197-2.197","s517gz6lggw555u",140,"152.csv","","null","resources/images/fishbone.png","null","",NA,NA,NA,NA,""
"image-keyboard-response",605,490880,"0.0-3.198-0.198","s517gz6lggw555u",140,"152.csv","","381.59999990463257","resources/trios/L4T4A2.jpg","37","restless",0.6,0.4,0.6,0.363585097057354,"true"
"image-keyboard-response",606,491286,"0.0-3.198-1.198","s517gz6lggw555u",140,"152.csv","","null","resources/maskTrios/L4BB.jpg","null","",NA,NA,NA,NA,""
