"trial_type","trial_index","time_elapsed","internal_node_id","subject","participantCode","walkNumber","success","rt","stimulus","key_press","test_part","leftProb","midProb","rightProb","generatedNum","correct"
"pavlovia",0,951,"0.0-0.0","ybhrqe06s2bqbz1",116,"115.csv","","","","","",NA,NA,NA,NA,""
"fullscreen",1,4749,"0.0-1.0","ybhrqe06s2bqbz1",116,"115.csv","true","","","","",NA,NA,NA,NA,""
"html-keyboard-response",2,21739,"0.0-2.0-0.0","ybhrqe06s2bqbz1",116,"115.csv","","16988.400000095367","<p><font size='6'>Arrrgh!</p></font><p>Can you be the best pirate? Try to find lots of gold! But beware, some islands have more gold than others, and over time, the island with the most gold may change. Can YOU figure it out? </p><font size='6'>GOOD LUCK, CAPTAIN!!!</font><p>Press any key to begin</p>","75","",NA,NA,NA,NA,""
"image-keyboard-response",3,24746,"0.0-2.0-1.0","ybhrqe06s2bqbz1",116,"115.csv","","null","resources/image_sets/111.png","null","",NA,NA,NA,NA,""
"image-keyboard-response",4,29771,"0.0-2.0-2.0","ybhrqe06s2bqbz1",116,"115.csv","","5024.599999904633","resources/image_sets/left_highlight.png","37","",NA,NA,NA,NA,""
"image-keyboard-response",5,31857,"0.0-2.0-3.0","ybhrqe06s2bqbz1",116,"115.csv","","2084.600000143051","resources/image_sets/mid_highlight.png","38","",NA,NA,NA,NA,""
"image-keyboard-response",6,32899,"0.0-2.0-4.0","ybhrqe06s2bqbz1",116,"115.csv","","1041","resources/image_sets/right_highlight.png","39","",NA,NA,NA,NA,""
"image-keyboard-response",7,37241,"0.0-2.0-5.0","ybhrqe06s2bqbz1",116,"115.csv","","4341.400000095367","resources/image_sets/111.png","13","",NA,NA,NA,NA,""
"image-keyboard-response",8,41007,"0.0-2.0-6.0","ybhrqe06s2bqbz1",116,"115.csv","","3765.399999856949","resources/images/coin2.png","13","",NA,NA,NA,NA,""
"image-keyboard-response",9,43290,"0.0-2.0-7.0","ybhrqe06s2bqbz1",116,"115.csv","","2282.0999999046326","resources/images/fishbone.png","13","",NA,NA,NA,NA,""
"html-keyboard-response",10,48629,"0.0-2.0-8.0","ybhrqe06s2bqbz1",116,"115.csv","","5338.599999904633","<p>Your first journey will be a long one, but you will get a well deserved break at the end</p><p>After the break you will have four more journeys, but each will be much shorter than the first, and you will have breaks in between each</p><p>Press Enter to begin</p>","13","",NA,NA,NA,NA,""
"image-keyboard-response",11,50544,"0.0-3.0-0.0","ybhrqe06s2bqbz1",116,"115.csv","","1914.0999999046326","resources/trios/L2T4A1.jpg","38","restless",0.7,0.9,0.3,0.822924340941975,"true"
"image-keyboard-response",12,50960,"0.0-3.0-1.0","ybhrqe06s2bqbz1",116,"115.csv","","null","resources/maskTrios/BT4B.jpg","null","",NA,NA,NA,NA,""
"image-keyboard-response",13,52170,"0.0-3.0-2.0","ybhrqe06s2bqbz1",116,"115.csv","","null","resources/images/coin2.png","null","",NA,NA,NA,NA,""
"image-keyboard-response",14,54742,"0.0-3.1-0.1","ybhrqe06s2bqbz1",116,"115.csv","","2570.2000000476837","resources/trios/L2T2A1.jpg","37","restless",0.7,0.8,0.3,0.819706883910764,"false"
"image-keyboard-response",15,55154,"0.0-3.1-1.1","ybhrqe06s2bqbz1",116,"115.csv","","null","resources/maskTrios/L2BB.jpg","null","",NA,NA,NA,NA,""
"image-keyboard-response",16,56365,"0.0-3.1-2.1","ybhrqe06s2bqbz1",116,"115.csv","","null","resources/images/fishbone.png","null","",NA,NA,NA,NA,""
"image-keyboard-response",17,58040,"0.0-3.2-0.2","ybhrqe06s2bqbz1",116,"115.csv","","1672.8999998569489","resources/trios/L2T4A2.jpg","37","restless",0.7,0.8,0.3,0.0635464256692244,"true"
"image-keyboard-response",18,58451,"0.0-3.2-1.2","ybhrqe06s2bqbz1",116,"115.csv","","null","resources/maskTrios/L2BB.jpg","null","",NA,NA,NA,NA,""
"image-keyboard-response",19,59665,"0.0-3.2-2.2","ybhrqe06s2bqbz1",116,"115.csv","","null","resources/images/coin2.png","null","",NA,NA,NA,NA,""
"image-keyboard-response",20,61840,"0.0-3.3-0.3","ybhrqe06s2bqbz1",116,"115.csv","","2173.5999999046326","resources/trios/L2T2A2.jpg","39","restless",0.7,0.8,0.3,0.548791534068885,"false"
"image-keyboard-response",21,62245,"0.0-3.3-1.3","ybhrqe06s2bqbz1",116,"115.csv","","null","resources/maskTrios/BBA2.jpg","null","",NA,NA,NA,NA,""
"image-keyboard-response",22,63456,"0.0-3.3-2.3","ybhrqe06s2bqbz1",116,"115.csv","","null","resources/images/fishbone.png","null","",NA,NA,NA,NA,""
"image-keyboard-response",23,64688,"0.0-3.4-0.4","ybhrqe06s2bqbz1",116,"115.csv","","1231","resources/trios/L1T4A2.jpg","38","restless",0.7,0.8,0.2,0.479983404856811,"true"
"image-keyboard-response",24,65103,"0.0-3.4-1.4","ybhrqe06s2bqbz1",116,"115.csv","","null","resources/maskTrios/BT4B.jpg","null","",NA,NA,NA,NA,""
"image-keyboard-response",25,66315,"0.0-3.4-2.4","ybhrqe06s2bqbz1",116,"115.csv","","null","resources/images/coin2.png","null","",NA,NA,NA,NA,""
"image-keyboard-response",26,67863,"0.0-3.5-0.5","ybhrqe06s2bqbz1",116,"115.csv","","1547.2999999523163","resources/trios/L2T4A1.jpg","38","restless",0.7,0.8,0.3,0.0574483315591916,"true"
"image-keyboard-response",27,68276,"0.0-3.5-1.5","ybhrqe06s2bqbz1",116,"115.csv","","null","resources/maskTrios/BT4B.jpg","null","",NA,NA,NA,NA,""
"image-keyboard-response",28,69484,"0.0-3.5-2.5","ybhrqe06s2bqbz1",116,"115.csv","","null","resources/images/coin2.png","null","",NA,NA,NA,NA,""
"image-keyboard-response",29,70713,"0.0-3.6-0.6","ybhrqe06s2bqbz1",116,"115.csv","","1228.0999999046326","resources/trios/L2T4A1.jpg","37","restless",0.7,0.8,0.3,0.222311828109789,"true"
"image-keyboard-response",30,71135,"0.0-3.6-1.6","ybhrqe06s2bqbz1",116,"115.csv","","null","resources/maskTrios/L2BB.jpg","null","",NA,NA,NA,NA,""
"image-keyboard-response",31,72348,"0.0-3.6-2.6","ybhrqe06s2bqbz1",116,"115.csv","","null","resources/images/coin2.png","null","",NA,NA,NA,NA,""
"image-keyboard-response",32,74601,"0.0-3.7-0.7","ybhrqe06s2bqbz1",116,"115.csv","","2252","resources/trios/L2T2A1.jpg","39","restless",0.7,0.8,0.3,0.640429764412642,"false"
"image-keyboard-response",33,75024,"0.0-3.7-1.7","ybhrqe06s2bqbz1",116,"115.csv","","null","resources/maskTrios/BBA1.jpg","null","",NA,NA,NA,NA,""
"image-keyboard-response",34,76235,"0.0-3.7-2.7","ybhrqe06s2bqbz1",116,"115.csv","","null","resources/images/fishbone.png","null","",NA,NA,NA,NA,""
"image-keyboard-response",35,77585,"0.0-3.8-0.8","ybhrqe06s2bqbz1",116,"115.csv","","1349.7999999523163","resources/trios/L2T4A1.jpg","39","restless",0.7,0.8,0.3,0.770637459182163,"false"
"image-keyboard-response",36,78007,"0.0-3.8-1.8","ybhrqe06s2bqbz1",116,"115.csv","","null","resources/maskTrios/BBA1.jpg","null","",NA,NA,NA,NA,""
"image-keyboard-response",37,79217,"0.0-3.8-2.8","ybhrqe06s2bqbz1",116,"115.csv","","null","resources/images/fishbone.png","null","",NA,NA,NA,NA,""
"image-keyboard-response",38,80879,"0.0-3.9-0.9","ybhrqe06s2bqbz1",116,"115.csv","","1660.7999999523163","resources/trios/L1T4A2.jpg","39","restless",0.7,0.8,0.4,0.781901872057496,"false"
"image-keyboard-response",39,81287,"0.0-3.9-1.9","ybhrqe06s2bqbz1",116,"115.csv","","null","resources/maskTrios/BBA2.jpg","null","",NA,NA,NA,NA,""
"image-keyboard-response",40,82498,"0.0-3.9-2.9","ybhrqe06s2bqbz1",116,"115.csv","","null","resources/images/fishbone.png","null","",NA,NA,NA,NA,""
"image-keyboard-response",41,83291,"0.0-3.10-0.10","ybhrqe06s2bqbz1",116,"115.csv","","792.0999999046326","resources/trios/L1T2A2.jpg","38","restless",0.7,0.8,0.4,0.595713766946914,"true"
"image-keyboard-response",42,83713,"0.0-3.10-1.10","ybhrqe06s2bqbz1",116,"115.csv","","null","resources/maskTrios/BT2B.jpg","null","",NA,NA,NA,NA,""
"image-keyboard-response",43,84927,"0.0-3.10-2.10","ybhrqe06s2bqbz1",116,"115.csv","","null","resources/images/coin2.png","null","",NA,NA,NA,NA,""
"image-keyboard-response",44,85612,"0.0-3.11-0.11","ybhrqe06s2bqbz1",116,"115.csv","","683.5","resources/trios/L2T2A1.jpg","37","restless",0.7,0.7,0.5,0.557188349187517,"true"
"image-keyboard-response",45,86029,"0.0-3.11-1.11","ybhrqe06s2bqbz1",116,"115.csv","","null","resources/maskTrios/L2BB.jpg","null","",NA,NA,NA,NA,""
"image-keyboard-response",46,87239,"0.0-3.11-2.11","ybhrqe06s2bqbz1",116,"115.csv","","null","resources/images/coin2.png","null","",NA,NA,NA,NA,""
"image-keyboard-response",47,87938,"0.0-3.12-0.12","ybhrqe06s2bqbz1",116,"115.csv","","697.7999999523163","resources/trios/L1T4A1.jpg","38","restless",0.7,0.7,0.5,0.156582802593409,"true"
"image-keyboard-response",48,88346,"0.0-3.12-1.12","ybhrqe06s2bqbz1",116,"115.csv","","null","resources/maskTrios/BT4B.jpg","null","",NA,NA,NA,NA,""
"image-keyboard-response",49,89563,"0.0-3.12-2.12","ybhrqe06s2bqbz1",116,"115.csv","","null","resources/images/coin2.png","null","",NA,NA,NA,NA,""
"image-keyboard-response",50,91365,"0.0-3.13-0.13","ybhrqe06s2bqbz1",116,"115.csv","","1800.7999999523163","resources/trios/L2T2A1.jpg","37","restless",0.7,0.7,0.5,0.0503088968696355,"true"
"image-keyboard-response",51,91770,"0.0-3.13-1.13","ybhrqe06s2bqbz1",116,"115.csv","","null","resources/maskTrios/L2BB.jpg","null","",NA,NA,NA,NA,""
"image-keyboard-response",52,92987,"0.0-3.13-2.13","ybhrqe06s2bqbz1",116,"115.csv","","null","resources/images/coin2.png","null","",NA,NA,NA,NA,""
"image-keyboard-response",53,95839,"0.0-3.14-0.14","ybhrqe06s2bqbz1",116,"115.csv","","2850.7000000476837","resources/trios/L2T2A2.jpg","37","restless",0.7,0.7,0.5,0.47139202977305,"true"
"image-keyboard-response",54,96248,"0.0-3.14-1.14","ybhrqe06s2bqbz1",116,"115.csv","","null","resources/maskTrios/L2BB.jpg","null","",NA,NA,NA,NA,""
"image-keyboard-response",55,97458,"0.0-3.14-2.14","ybhrqe06s2bqbz1",116,"115.csv","","null","resources/images/coin2.png","null","",NA,NA,NA,NA,""
"image-keyboard-response",56,98099,"0.0-3.15-0.15","ybhrqe06s2bqbz1",116,"115.csv","","640.5999999046326","resources/trios/L1T4A1.jpg","38","restless",0.7,0.7,0.5,0.359055912524098,"true"
"image-keyboard-response",57,98508,"0.0-3.15-1.15","ybhrqe06s2bqbz1",116,"115.csv","","null","resources/maskTrios/BT4B.jpg","null","",NA,NA,NA,NA,""
"image-keyboard-response",58,99715,"0.0-3.15-2.15","ybhrqe06s2bqbz1",116,"115.csv","","null","resources/images/coin2.png","null","",NA,NA,NA,NA,""
"image-keyboard-response",59,100803,"0.0-3.16-0.16","ybhrqe06s2bqbz1",116,"115.csv","","1086.9000000953674","resources/trios/L1T2A1.jpg","37","restless",0.7,0.7,0.5,0.642786597342324,"true"
"image-keyboard-response",60,101212,"0.0-3.16-1.16","ybhrqe06s2bqbz1",116,"115.csv","","null","resources/maskTrios/L1BB.jpg","null","",NA,NA,NA,NA,""
"image-keyboard-response",61,102423,"0.0-3.16-2.16","ybhrqe06s2bqbz1",116,"115.csv","","null","resources/images/coin2.png","null","",NA,NA,NA,NA,""
"image-keyboard-response",62,103368,"0.0-3.17-0.17","ybhrqe06s2bqbz1",116,"115.csv","","943.6000001430511","resources/trios/L1T2A1.jpg","37","restless",0.7,0.7,0.5,0.986712862452755,"false"
"image-keyboard-response",63,103774,"0.0-3.17-1.17","ybhrqe06s2bqbz1",116,"115.csv","","null","resources/maskTrios/L1BB.jpg","null","",NA,NA,NA,NA,""
"image-keyboard-response",64,104986,"0.0-3.17-2.17","ybhrqe06s2bqbz1",116,"115.csv","","null","resources/images/fishbone.png","null","",NA,NA,NA,NA,""
"image-keyboard-response",65,105463,"0.0-3.18-0.18","ybhrqe06s2bqbz1",116,"115.csv","","475.7999999523163","resources/trios/L1T2A2.jpg","38","restless",0.7,0.7,0.5,0.357337549568868,"true"
"image-keyboard-response",66,105875,"0.0-3.18-1.18","ybhrqe06s2bqbz1",116,"115.csv","","null","resources/maskTrios/BT2B.jpg","null","",NA,NA,NA,NA,""
"image-keyboard-response",67,107086,"0.0-3.18-2.18","ybhrqe06s2bqbz1",116,"115.csv","","null","resources/images/coin2.png","null","",NA,NA,NA,NA,""
"image-keyboard-response",68,107762,"0.0-3.19-0.19","ybhrqe06s2bqbz1",116,"115.csv","","675.2999999523163","resources/trios/L2T4A2.jpg","37","restless",0.7,0.7,0.5,0.86145666386566,"false"
"image-keyboard-response",69,108175,"0.0-3.19-1.19","ybhrqe06s2bqbz1",116,"115.csv","","null","resources/maskTrios/L2BB.jpg","null","",NA,NA,NA,NA,""
"image-keyboard-response",70,109389,"0.0-3.19-2.19","ybhrqe06s2bqbz1",116,"115.csv","","null","resources/images/fishbone.png","null","",NA,NA,NA,NA,""
"image-keyboard-response",71,109794,"0.0-3.20-0.20","ybhrqe06s2bqbz1",116,"115.csv","","404.5","resources/trios/L2T4A1.jpg","38","restless",0.7,0.7,0.5,0.67621545609327,"true"
"image-keyboard-response",72,110214,"0.0-3.20-1.20","ybhrqe06s2bqbz1",116,"115.csv","","null","resources/maskTrios/BT4B.jpg","null","",NA,NA,NA,NA,""
"image-keyboard-response",73,111423,"0.0-3.20-2.20","ybhrqe06s2bqbz1",116,"115.csv","","null","resources/images/coin2.png","null","",NA,NA,NA,NA,""
"image-keyboard-response",74,112420,"0.0-3.21-0.21","ybhrqe06s2bqbz1",116,"115.csv","","995.5","resources/trios/L1T2A1.jpg","38","restless",0.7,0.7,0.5,0.94662862468462,"false"
"image-keyboard-response",75,112834,"0.0-3.21-1.21","ybhrqe06s2bqbz1",116,"115.csv","","null","resources/maskTrios/BT2B.jpg","null","",NA,NA,NA,NA,""
"image-keyboard-response",76,114050,"0.0-3.21-2.21","ybhrqe06s2bqbz1",116,"115.csv","","null","resources/images/fishbone.png","null","",NA,NA,NA,NA,""
"image-keyboard-response",77,115981,"0.0-3.22-0.22","ybhrqe06s2bqbz1",116,"115.csv","","1929","resources/trios/L1T2A2.jpg","37","restless",0.7,0.7,0.5,0.7539649216376,"false"
"image-keyboard-response",78,116400,"0.0-3.22-1.22","ybhrqe06s2bqbz1",116,"115.csv","","null","resources/maskTrios/L1BB.jpg","null","",NA,NA,NA,NA,""
"image-keyboard-response",79,117612,"0.0-3.22-2.22","ybhrqe06s2bqbz1",116,"115.csv","","null","resources/images/fishbone.png","null","",NA,NA,NA,NA,""
"image-keyboard-response",80,118919,"0.0-3.23-0.23","ybhrqe06s2bqbz1",116,"115.csv","","1306.4000000953674","resources/trios/L2T2A2.jpg","37","restless",0.7,0.7,0.5,0.637446989659849,"true"
"image-keyboard-response",81,119322,"0.0-3.23-1.23","ybhrqe06s2bqbz1",116,"115.csv","","null","resources/maskTrios/L2BB.jpg","null","",NA,NA,NA,NA,""
"image-keyboard-response",82,120538,"0.0-3.23-2.23","ybhrqe06s2bqbz1",116,"115.csv","","null","resources/images/coin2.png","null","",NA,NA,NA,NA,""
"image-keyboard-response",83,121440,"0.0-3.24-0.24","ybhrqe06s2bqbz1",116,"115.csv","","901.3999998569489","resources/trios/L1T2A1.jpg","38","restless",0.8,0.7,0.5,0.321842761632643,"true"
"image-keyboard-response",84,121857,"0.0-3.24-1.24","ybhrqe06s2bqbz1",116,"115.csv","","null","resources/maskTrios/BT2B.jpg","null","",NA,NA,NA,NA,""
"image-keyboard-response",85,123070,"0.0-3.24-2.24","ybhrqe06s2bqbz1",116,"115.csv","","null","resources/images/coin2.png","null","",NA,NA,NA,NA,""
"image-keyboard-response",86,125071,"0.0-3.25-0.25","ybhrqe06s2bqbz1",116,"115.csv","","1999.5","resources/trios/L2T2A2.jpg","38","restless",0.8,0.7,0.5,0.482050387327637,"true"
"image-keyboard-response",87,125479,"0.0-3.25-1.25","ybhrqe06s2bqbz1",116,"115.csv","","null","resources/maskTrios/BT2B.jpg","null","",NA,NA,NA,NA,""
"image-keyboard-response",88,126692,"0.0-3.25-2.25","ybhrqe06s2bqbz1",116,"115.csv","","null","resources/images/coin2.png","null","",NA,NA,NA,NA,""
"image-keyboard-response",89,127834,"0.0-3.26-0.26","ybhrqe06s2bqbz1",116,"115.csv","","1141.3999998569489","resources/trios/L1T2A1.jpg","38","restless",0.8,0.7,0.5,0.321507819146233,"true"
"image-keyboard-response",90,128251,"0.0-3.26-1.26","ybhrqe06s2bqbz1",116,"115.csv","","null","resources/maskTrios/BT2B.jpg","null","",NA,NA,NA,NA,""
"image-keyboard-response",91,129458,"0.0-3.26-2.26","ybhrqe06s2bqbz1",116,"115.csv","","null","resources/images/coin2.png","null","",NA,NA,NA,NA,""
"image-keyboard-response",92,130848,"0.0-3.27-0.27","ybhrqe06s2bqbz1",116,"115.csv","","1388.2999999523163","resources/trios/L2T4A1.jpg","38","restless",0.8,0.7,0.5,0.372079244295357,"true"
"image-keyboard-response",93,131260,"0.0-3.27-1.27","ybhrqe06s2bqbz1",116,"115.csv","","null","resources/maskTrios/BT4B.jpg","null","",NA,NA,NA,NA,""
"image-keyboard-response",94,132473,"0.0-3.27-2.27","ybhrqe06s2bqbz1",116,"115.csv","","null","resources/images/coin2.png","null","",NA,NA,NA,NA,""
"image-keyboard-response",95,133431,"0.0-3.28-0.28","ybhrqe06s2bqbz1",116,"115.csv","","956.5999999046326","resources/trios/L2T2A2.jpg","37","restless",0.8,0.7,0.5,0.0712066700641343,"true"
"image-keyboard-response",96,133847,"0.0-3.28-1.28","ybhrqe06s2bqbz1",116,"115.csv","","null","resources/maskTrios/L2BB.jpg","null","",NA,NA,NA,NA,""
"image-keyboard-response",97,135060,"0.0-3.28-2.28","ybhrqe06s2bqbz1",116,"115.csv","","null","resources/images/coin2.png","null","",NA,NA,NA,NA,""
"image-keyboard-response",98,135580,"0.0-3.29-0.29","ybhrqe06s2bqbz1",116,"115.csv","","519.4000000953674","resources/trios/L1T4A2.jpg","38","restless",0.9,0.7,0.5,0.422759558746307,"true"
"image-keyboard-response",99,135993,"0.0-3.29-1.29","ybhrqe06s2bqbz1",116,"115.csv","","null","resources/maskTrios/BT4B.jpg","null","",NA,NA,NA,NA,""
"image-keyboard-response",100,137203,"0.0-3.29-2.29","ybhrqe06s2bqbz1",116,"115.csv","","null","resources/images/coin2.png","null","",NA,NA,NA,NA,""
"image-keyboard-response",101,138957,"0.0-3.30-0.30","ybhrqe06s2bqbz1",116,"115.csv","","1753","resources/trios/L2T2A2.jpg","37","restless",0.9,0.7,0.5,0.913354884355219,"false"
"image-keyboard-response",102,139367,"0.0-3.30-1.30","ybhrqe06s2bqbz1",116,"115.csv","","null","resources/maskTrios/L2BB.jpg","null","",NA,NA,NA,NA,""
"image-keyboard-response",103,140581,"0.0-3.30-2.30","ybhrqe06s2bqbz1",116,"115.csv","","null","resources/images/fishbone.png","null","",NA,NA,NA,NA,""
"image-keyboard-response",104,141989,"0.0-3.31-0.31","ybhrqe06s2bqbz1",116,"115.csv","","1406.8999998569489","resources/trios/L1T4A2.jpg","38","restless",0.9,0.7,0.5,0.230907275488901,"true"
"image-keyboard-response",105,142400,"0.0-3.31-1.31","ybhrqe06s2bqbz1",116,"115.csv","","null","resources/maskTrios/BT4B.jpg","null","",NA,NA,NA,NA,""
"image-keyboard-response",106,143615,"0.0-3.31-2.31","ybhrqe06s2bqbz1",116,"115.csv","","null","resources/images/coin2.png","null","",NA,NA,NA,NA,""
"image-keyboard-response",107,144428,"0.0-3.32-0.32","ybhrqe06s2bqbz1",116,"115.csv","","811.8000001907349","resources/trios/L2T4A1.jpg","38","restless",0.9,0.7,0.5,0.410873972445325,"true"
"image-keyboard-response",108,144844,"0.0-3.32-1.32","ybhrqe06s2bqbz1",116,"115.csv","","null","resources/maskTrios/BT4B.jpg","null","",NA,NA,NA,NA,""
"image-keyboard-response",109,146055,"0.0-3.32-2.32","ybhrqe06s2bqbz1",116,"115.csv","","null","resources/images/coin2.png","null","",NA,NA,NA,NA,""
"image-keyboard-response",110,146460,"0.0-3.33-0.33","ybhrqe06s2bqbz1",116,"115.csv","","403.60000014305115","resources/trios/L1T4A2.jpg","38","restless",0.9,0.6,0.5,0.27870398368461,"true"
"image-keyboard-response",111,146877,"0.0-3.33-1.33","ybhrqe06s2bqbz1",116,"115.csv","","null","resources/maskTrios/BT4B.jpg","null","",NA,NA,NA,NA,""
"image-keyboard-response",112,148091,"0.0-3.33-2.33","ybhrqe06s2bqbz1",116,"115.csv","","null","resources/images/coin2.png","null","",NA,NA,NA,NA,""
"image-keyboard-response",113,149428,"0.0-3.34-0.34","ybhrqe06s2bqbz1",116,"115.csv","","1336.5","resources/trios/L1T4A2.jpg","38","restless",0.9,0.6,0.5,0.474825550706232,"true"
"image-keyboard-response",114,149837,"0.0-3.34-1.34","ybhrqe06s2bqbz1",116,"115.csv","","null","resources/maskTrios/BT4B.jpg","null","",NA,NA,NA,NA,""
"image-keyboard-response",115,151044,"0.0-3.34-2.34","ybhrqe06s2bqbz1",116,"115.csv","","null","resources/images/coin2.png","null","",NA,NA,NA,NA,""
"image-keyboard-response",116,151704,"0.0-3.35-0.35","ybhrqe06s2bqbz1",116,"115.csv","","659.3000001907349","resources/trios/L2T4A1.jpg","38","restless",0.9,0.6,0.5,0.848997041002535,"false"
"image-keyboard-response",117,152119,"0.0-3.35-1.35","ybhrqe06s2bqbz1",116,"115.csv","","null","resources/maskTrios/BT4B.jpg","null","",NA,NA,NA,NA,""
"image-keyboard-response",118,153334,"0.0-3.35-2.35","ybhrqe06s2bqbz1",116,"115.csv","","null","resources/images/fishbone.png","null","",NA,NA,NA,NA,""
"image-keyboard-response",119,155027,"0.0-3.36-0.36","ybhrqe06s2bqbz1",116,"115.csv","","1692.2000000476837","resources/trios/L1T4A1.jpg","37","restless",0.9,0.6,0.5,0.721844568501452,"true"
"image-keyboard-response",120,155449,"0.0-3.36-1.36","ybhrqe06s2bqbz1",116,"115.csv","","null","resources/maskTrios/L1BB.jpg","null","",NA,NA,NA,NA,""
"image-keyboard-response",121,156666,"0.0-3.36-2.36","ybhrqe06s2bqbz1",116,"115.csv","","null","resources/images/coin2.png","null","",NA,NA,NA,NA,""
"image-keyboard-response",122,157421,"0.0-3.37-0.37","ybhrqe06s2bqbz1",116,"115.csv","","754.3999998569489","resources/trios/L1T2A2.jpg","37","restless",0.9,0.6,0.5,0.421098093961735,"true"
"image-keyboard-response",123,157834,"0.0-3.37-1.37","ybhrqe06s2bqbz1",116,"115.csv","","null","resources/maskTrios/L1BB.jpg","null","",NA,NA,NA,NA,""
"image-keyboard-response",124,159045,"0.0-3.37-2.37","ybhrqe06s2bqbz1",116,"115.csv","","null","resources/images/coin2.png","null","",NA,NA,NA,NA,""
"image-keyboard-response",125,162010,"0.0-3.38-0.38","ybhrqe06s2bqbz1",116,"115.csv","","2964.2999999523163","resources/trios/L2T2A2.jpg","37","restless",0.9,0.6,0.5,0.74052469426668,"true"
"image-keyboard-response",126,162423,"0.0-3.38-1.38","ybhrqe06s2bqbz1",116,"115.csv","","null","resources/maskTrios/L2BB.jpg","null","",NA,NA,NA,NA,""
"image-keyboard-response",127,163635,"0.0-3.38-2.38","ybhrqe06s2bqbz1",116,"115.csv","","null","resources/images/coin2.png","null","",NA,NA,NA,NA,""
"image-keyboard-response",128,164104,"0.0-3.39-0.39","ybhrqe06s2bqbz1",116,"115.csv","","467.59999990463257","resources/trios/L1T4A2.jpg","38","restless",0.9,0.6,0.6,0.790201451271447,"false"
"image-keyboard-response",129,164524,"0.0-3.39-1.39","ybhrqe06s2bqbz1",116,"115.csv","","null","resources/maskTrios/BT4B.jpg","null","",NA,NA,NA,NA,""
"image-keyboard-response",130,165732,"0.0-3.39-2.39","ybhrqe06s2bqbz1",116,"115.csv","","null","resources/images/fishbone.png","null","",NA,NA,NA,NA,""
"image-keyboard-response",131,166638,"0.0-3.40-0.40","ybhrqe06s2bqbz1",116,"115.csv","","905.2000000476837","resources/trios/L2T2A2.jpg","39","restless",0.9,0.6,0.6,0.0114664154539978,"true"
"image-keyboard-response",132,167053,"0.0-3.40-1.40","ybhrqe06s2bqbz1",116,"115.csv","","null","resources/maskTrios/BBA2.jpg","null","",NA,NA,NA,NA,""
"image-keyboard-response",133,168258,"0.0-3.40-2.40","ybhrqe06s2bqbz1",116,"115.csv","","null","resources/images/coin2.png","null","",NA,NA,NA,NA,""
"image-keyboard-response",134,168913,"0.0-3.41-0.41","ybhrqe06s2bqbz1",116,"115.csv","","653.4000000953674","resources/trios/L1T2A1.jpg","39","restless",0.9,0.6,0.6,0.78658710837704,"false"
"image-keyboard-response",135,169335,"0.0-3.41-1.41","ybhrqe06s2bqbz1",116,"115.csv","","null","resources/maskTrios/BBA1.jpg","null","",NA,NA,NA,NA,""
"image-keyboard-response",136,170546,"0.0-3.41-2.41","ybhrqe06s2bqbz1",116,"115.csv","","null","resources/images/fishbone.png","null","",NA,NA,NA,NA,""
"image-keyboard-response",137,171202,"0.0-3.42-0.42","ybhrqe06s2bqbz1",116,"115.csv","","655.2000000476837","resources/trios/L2T4A2.jpg","37","restless",0.9,0.6,0.6,0.61151165748659,"true"
"image-keyboard-response",138,171621,"0.0-3.42-1.42","ybhrqe06s2bqbz1",116,"115.csv","","null","resources/maskTrios/L2BB.jpg","null","",NA,NA,NA,NA,""
"image-keyboard-response",139,172835,"0.0-3.42-2.42","ybhrqe06s2bqbz1",116,"115.csv","","null","resources/images/coin2.png","null","",NA,NA,NA,NA,""
"image-keyboard-response",140,173393,"0.0-3.43-0.43","ybhrqe06s2bqbz1",116,"115.csv","","556.7000000476837","resources/trios/L2T2A1.jpg","37","restless",0.9,0.6,0.5,0.82197784677368,"true"
"image-keyboard-response",141,173815,"0.0-3.43-1.43","ybhrqe06s2bqbz1",116,"115.csv","","null","resources/maskTrios/L2BB.jpg","null","",NA,NA,NA,NA,""
"image-keyboard-response",142,175026,"0.0-3.43-2.43","ybhrqe06s2bqbz1",116,"115.csv","","null","resources/images/coin2.png","null","",NA,NA,NA,NA,""
"image-keyboard-response",143,175500,"0.0-3.44-0.44","ybhrqe06s2bqbz1",116,"115.csv","","472.90000009536743","resources/trios/L2T2A1.jpg","37","restless",0.9,0.6,0.5,0.572023269725702,"true"
"image-keyboard-response",144,175914,"0.0-3.44-1.44","ybhrqe06s2bqbz1",116,"115.csv","","null","resources/maskTrios/L2BB.jpg","null","",NA,NA,NA,NA,""
"image-keyboard-response",145,177129,"0.0-3.44-2.44","ybhrqe06s2bqbz1",116,"115.csv","","null","resources/images/coin2.png","null","",NA,NA,NA,NA,""
"image-keyboard-response",146,178045,"0.0-3.45-0.45","ybhrqe06s2bqbz1",116,"115.csv","","915.0999999046326","resources/trios/L2T2A1.jpg","37","restless",0.9,0.6,0.6,0.260362313109422,"true"
"image-keyboard-response",147,178452,"0.0-3.45-1.45","ybhrqe06s2bqbz1",116,"115.csv","","null","resources/maskTrios/L2BB.jpg","null","",NA,NA,NA,NA,""
"image-keyboard-response",148,179660,"0.0-3.45-2.45","ybhrqe06s2bqbz1",116,"115.csv","","null","resources/images/coin2.png","null","",NA,NA,NA,NA,""
"image-keyboard-response",149,180328,"0.0-3.46-0.46","ybhrqe06s2bqbz1",116,"115.csv","","666.5999999046326","resources/trios/L1T4A2.jpg","37","restless",0.9,0.6,0.6,0.312318362401248,"true"
"image-keyboard-response",150,180749,"0.0-3.46-1.46","ybhrqe06s2bqbz1",116,"115.csv","","null","resources/maskTrios/L1BB.jpg","null","",NA,NA,NA,NA,""
"image-keyboard-response",151,181956,"0.0-3.46-2.46","ybhrqe06s2bqbz1",116,"115.csv","","null","resources/images/coin2.png","null","",NA,NA,NA,NA,""
"image-keyboard-response",152,182401,"0.0-3.47-0.47","ybhrqe06s2bqbz1",116,"115.csv","","443.7999999523163","resources/trios/L1T2A2.jpg","37","restless",0.8,0.6,0.6,0.40287317452507,"true"
"image-keyboard-response",153,182813,"0.0-3.47-1.47","ybhrqe06s2bqbz1",116,"115.csv","","null","resources/maskTrios/L1BB.jpg","null","",NA,NA,NA,NA,""
"image-keyboard-response",154,184023,"0.0-3.47-2.47","ybhrqe06s2bqbz1",116,"115.csv","","null","resources/images/coin2.png","null","",NA,NA,NA,NA,""
"image-keyboard-response",155,184477,"0.0-3.48-0.48","ybhrqe06s2bqbz1",116,"115.csv","","452.59999990463257","resources/trios/L2T2A1.jpg","37","restless",0.9,0.6,0.6,0.854802857007701,"true"
"image-keyboard-response",156,184892,"0.0-3.48-1.48","ybhrqe06s2bqbz1",116,"115.csv","","null","resources/maskTrios/L2BB.jpg","null","",NA,NA,NA,NA,""
"image-keyboard-response",157,186103,"0.0-3.48-2.48","ybhrqe06s2bqbz1",116,"115.csv","","null","resources/images/coin2.png","null","",NA,NA,NA,NA,""
"image-keyboard-response",158,186436,"0.0-3.49-0.49","ybhrqe06s2bqbz1",116,"115.csv","","331.40000009536743","resources/trios/L2T2A2.jpg","37","restless",0.8,0.6,0.6,0.287198426542285,"true"
"image-keyboard-response",159,186850,"0.0-3.49-1.49","ybhrqe06s2bqbz1",116,"115.csv","","null","resources/maskTrios/L2BB.jpg","null","",NA,NA,NA,NA,""
"image-keyboard-response",160,188061,"0.0-3.49-2.49","ybhrqe06s2bqbz1",116,"115.csv","","null","resources/images/coin2.png","null","",NA,NA,NA,NA,""
"image-keyboard-response",161,188427,"0.0-3.50-0.50","ybhrqe06s2bqbz1",116,"115.csv","","365.2999999523163","resources/trios/L1T2A1.jpg","37","restless",0.8,0.6,0.6,0.842188803886637,"false"
"image-keyboard-response",162,188836,"0.0-3.50-1.50","ybhrqe06s2bqbz1",116,"115.csv","","null","resources/maskTrios/L1BB.jpg","null","",NA,NA,NA,NA,""
"image-keyboard-response",163,190051,"0.0-3.50-2.50","ybhrqe06s2bqbz1",116,"115.csv","","null","resources/images/fishbone.png","null","",NA,NA,NA,NA,""
"image-keyboard-response",164,191298,"0.0-3.51-0.51","ybhrqe06s2bqbz1",116,"115.csv","","1245.5","resources/trios/L2T4A1.jpg","37","restless",0.8,0.6,0.6,0.523739304727026,"true"
"image-keyboard-response",165,191713,"0.0-3.51-1.51","ybhrqe06s2bqbz1",116,"115.csv","","null","resources/maskTrios/L2BB.jpg","null","",NA,NA,NA,NA,""
"image-keyboard-response",166,192929,"0.0-3.51-2.51","ybhrqe06s2bqbz1",116,"115.csv","","null","resources/images/coin2.png","null","",NA,NA,NA,NA,""
"image-keyboard-response",167,193285,"0.0-3.52-0.52","ybhrqe06s2bqbz1",116,"115.csv","","354","resources/trios/L2T4A1.jpg","37","restless",0.8,0.5,0.6,0.847266388366384,"false"
"image-keyboard-response",168,193693,"0.0-3.52-1.52","ybhrqe06s2bqbz1",116,"115.csv","","null","resources/maskTrios/L2BB.jpg","null","",NA,NA,NA,NA,""
"image-keyboard-response",169,194905,"0.0-3.52-2.52","ybhrqe06s2bqbz1",116,"115.csv","","null","resources/images/fishbone.png","null","",NA,NA,NA,NA,""
"image-keyboard-response",170,195355,"0.0-3.53-0.53","ybhrqe06s2bqbz1",116,"115.csv","","448.90000009536743","resources/trios/L2T4A1.jpg","38","restless",0.8,0.5,0.6,0.637353967862892,"false"
"image-keyboard-response",171,195776,"0.0-3.53-1.53","ybhrqe06s2bqbz1",116,"115.csv","","null","resources/maskTrios/BT4B.jpg","null","",NA,NA,NA,NA,""
"image-keyboard-response",172,196988,"0.0-3.53-2.53","ybhrqe06s2bqbz1",116,"115.csv","","null","resources/images/fishbone.png","null","",NA,NA,NA,NA,""
"image-keyboard-response",173,197798,"0.0-3.54-0.54","ybhrqe06s2bqbz1",116,"115.csv","","809.2999999523163","resources/trios/L2T2A1.jpg","37","restless",0.8,0.5,0.6,0.346308267465524,"true"
"image-keyboard-response",174,198215,"0.0-3.54-1.54","ybhrqe06s2bqbz1",116,"115.csv","","null","resources/maskTrios/L2BB.jpg","null","",NA,NA,NA,NA,""
"image-keyboard-response",175,199428,"0.0-3.54-2.54","ybhrqe06s2bqbz1",116,"115.csv","","null","resources/images/coin2.png","null","",NA,NA,NA,NA,""
"image-keyboard-response",176,199891,"0.0-3.55-0.55","ybhrqe06s2bqbz1",116,"115.csv","","461.5","resources/trios/L2T4A2.jpg","37","restless",0.8,0.5,0.6,0.847561394873239,"false"
"image-keyboard-response",177,200303,"0.0-3.55-1.55","ybhrqe06s2bqbz1",116,"115.csv","","null","resources/maskTrios/L2BB.jpg","null","",NA,NA,NA,NA,""
"image-keyboard-response",178,201506,"0.0-3.55-2.55","ybhrqe06s2bqbz1",116,"115.csv","","null","resources/images/fishbone.png","null","",NA,NA,NA,NA,""
"image-keyboard-response",179,201868,"0.0-3.56-0.56","ybhrqe06s2bqbz1",116,"115.csv","","360.5","resources/trios/L1T4A2.jpg","38","restless",0.8,0.5,0.6,0.322002033674483,"true"
"image-keyboard-response",180,202282,"0.0-3.56-1.56","ybhrqe06s2bqbz1",116,"115.csv","","null","resources/maskTrios/BT4B.jpg","null","",NA,NA,NA,NA,""
"image-keyboard-response",181,203505,"0.0-3.56-2.56","ybhrqe06s2bqbz1",116,"115.csv","","null","resources/images/coin2.png","null","",NA,NA,NA,NA,""
"image-keyboard-response",182,203886,"0.0-3.57-0.57","ybhrqe06s2bqbz1",116,"115.csv","","380.39999985694885","resources/trios/L2T4A1.jpg","38","restless",0.8,0.5,0.6,0.493519518184466,"true"
"image-keyboard-response",183,204294,"0.0-3.57-1.57","ybhrqe06s2bqbz1",116,"115.csv","","null","resources/maskTrios/BT4B.jpg","null","",NA,NA,NA,NA,""
"image-keyboard-response",184,205506,"0.0-3.57-2.57","ybhrqe06s2bqbz1",116,"115.csv","","null","resources/images/coin2.png","null","",NA,NA,NA,NA,""
"image-keyboard-response",185,206312,"0.0-3.58-0.58","ybhrqe06s2bqbz1",116,"115.csv","","805.3000001907349","resources/trios/L2T4A2.jpg","38","restless",0.8,0.5,0.6,0.0538789791400784,"true"
"image-keyboard-response",186,206721,"0.0-3.58-1.58","ybhrqe06s2bqbz1",116,"115.csv","","null","resources/maskTrios/BT4B.jpg","null","",NA,NA,NA,NA,""
"image-keyboard-response",187,207935,"0.0-3.58-2.58","ybhrqe06s2bqbz1",116,"115.csv","","null","resources/images/coin2.png","null","",NA,NA,NA,NA,""
"image-keyboard-response",188,209125,"0.0-3.59-0.59","ybhrqe06s2bqbz1",116,"115.csv","","1188.5","resources/trios/L2T2A2.jpg","37","restless",0.8,0.5,0.6,0.440304869410482,"true"
"image-keyboard-response",189,209536,"0.0-3.59-1.59","ybhrqe06s2bqbz1",116,"115.csv","","null","resources/maskTrios/L2BB.jpg","null","",NA,NA,NA,NA,""
"image-keyboard-response",190,210747,"0.0-3.59-2.59","ybhrqe06s2bqbz1",116,"115.csv","","null","resources/images/coin2.png","null","",NA,NA,NA,NA,""
"image-keyboard-response",191,211151,"0.0-3.60-0.60","ybhrqe06s2bqbz1",116,"115.csv","","403.2000000476837","resources/trios/L2T4A2.jpg","38","restless",0.8,0.5,0.6,0.00113674598443469,"true"
"image-keyboard-response",192,211559,"0.0-3.60-1.60","ybhrqe06s2bqbz1",116,"115.csv","","null","resources/maskTrios/BT4B.jpg","null","",NA,NA,NA,NA,""
"image-keyboard-response",193,212769,"0.0-3.60-2.60","ybhrqe06s2bqbz1",116,"115.csv","","null","resources/images/coin2.png","null","",NA,NA,NA,NA,""
"image-keyboard-response",194,213515,"0.0-3.61-0.61","ybhrqe06s2bqbz1",116,"115.csv","","743.5999999046326","resources/trios/L2T2A1.jpg","37","restless",0.7,0.5,0.6,0.147572223532166,"true"
"image-keyboard-response",195,213923,"0.0-3.61-1.61","ybhrqe06s2bqbz1",116,"115.csv","","null","resources/maskTrios/L2BB.jpg","null","",NA,NA,NA,NA,""
"image-keyboard-response",196,215140,"0.0-3.61-2.61","ybhrqe06s2bqbz1",116,"115.csv","","null","resources/images/coin2.png","null","",NA,NA,NA,NA,""
"image-keyboard-response",197,217530,"0.0-3.62-0.62","ybhrqe06s2bqbz1",116,"115.csv","","2389.5999999046326","resources/trios/L1T2A2.jpg","38","restless",0.7,0.5,0.6,0.106479435228542,"true"
"image-keyboard-response",198,217939,"0.0-3.62-1.62","ybhrqe06s2bqbz1",116,"115.csv","","null","resources/maskTrios/BT2B.jpg","null","",NA,NA,NA,NA,""
"image-keyboard-response",199,219152,"0.0-3.62-2.62","ybhrqe06s2bqbz1",116,"115.csv","","null","resources/images/coin2.png","null","",NA,NA,NA,NA,""
"image-keyboard-response",200,220504,"0.0-3.63-0.63","ybhrqe06s2bqbz1",116,"115.csv","","1351.3999998569489","resources/trios/L2T2A2.jpg","38","restless",0.7,0.5,0.6,0.42080687014579,"true"
"image-keyboard-response",201,220911,"0.0-3.63-1.63","ybhrqe06s2bqbz1",116,"115.csv","","null","resources/maskTrios/BT2B.jpg","null","",NA,NA,NA,NA,""
"image-keyboard-response",202,222124,"0.0-3.63-2.63","ybhrqe06s2bqbz1",116,"115.csv","","null","resources/images/coin2.png","null","",NA,NA,NA,NA,""
"image-keyboard-response",203,222770,"0.0-3.64-0.64","ybhrqe06s2bqbz1",116,"115.csv","","645.0999999046326","resources/trios/L2T4A2.jpg","38","restless",0.7,0.4,0.6,0.737157713773952,"false"
"image-keyboard-response",204,223181,"0.0-3.64-1.64","ybhrqe06s2bqbz1",116,"115.csv","","null","resources/maskTrios/BT4B.jpg","null","",NA,NA,NA,NA,""
"image-keyboard-response",205,224394,"0.0-3.64-2.64","ybhrqe06s2bqbz1",116,"115.csv","","null","resources/images/fishbone.png","null","",NA,NA,NA,NA,""
"image-keyboard-response",206,224899,"0.0-3.65-0.65","ybhrqe06s2bqbz1",116,"115.csv","","504.80000019073486","resources/trios/L1T4A1.jpg","38","restless",0.7,0.4,0.6,0.0249178201107374,"true"
"image-keyboard-response",207,225307,"0.0-3.65-1.65","ybhrqe06s2bqbz1",116,"115.csv","","null","resources/maskTrios/BT4B.jpg","null","",NA,NA,NA,NA,""
"image-keyboard-response",208,226521,"0.0-3.65-2.65","ybhrqe06s2bqbz1",116,"115.csv","","null","resources/images/coin2.png","null","",NA,NA,NA,NA,""
"image-keyboard-response",209,227074,"0.0-3.66-0.66","ybhrqe06s2bqbz1",116,"115.csv","","552.1999998092651","resources/trios/L2T2A2.jpg","38","restless",0.7,0.4,0.6,0.74973872257556,"false"
"image-keyboard-response",210,227488,"0.0-3.66-1.66","ybhrqe06s2bqbz1",116,"115.csv","","null","resources/maskTrios/BT2B.jpg","null","",NA,NA,NA,NA,""
"image-keyboard-response",211,228694,"0.0-3.66-2.66","ybhrqe06s2bqbz1",116,"115.csv","","null","resources/images/fishbone.png","null","",NA,NA,NA,NA,""
"image-keyboard-response",212,229595,"0.0-3.67-0.67","ybhrqe06s2bqbz1",116,"115.csv","","899.7999999523163","resources/trios/L1T2A1.jpg","37","restless",0.7,0.4,0.6,0.800202890216414,"false"
"image-keyboard-response",213,230004,"0.0-3.67-1.67","ybhrqe06s2bqbz1",116,"115.csv","","null","resources/maskTrios/L1BB.jpg","null","",NA,NA,NA,NA,""
"image-keyboard-response",214,231214,"0.0-3.67-2.67","ybhrqe06s2bqbz1",116,"115.csv","","null","resources/images/fishbone.png","null","",NA,NA,NA,NA,""
"image-keyboard-response",215,231630,"0.0-3.68-0.68","ybhrqe06s2bqbz1",116,"115.csv","","415.30000019073486","resources/trios/L1T2A1.jpg","38","restless",0.7,0.4,0.7,0.692831790616351,"false"
"image-keyboard-response",216,232038,"0.0-3.68-1.68","ybhrqe06s2bqbz1",116,"115.csv","","null","resources/maskTrios/BT2B.jpg","null","",NA,NA,NA,NA,""
"image-keyboard-response",217,233252,"0.0-3.68-2.68","ybhrqe06s2bqbz1",116,"115.csv","","null","resources/images/fishbone.png","null","",NA,NA,NA,NA,""
"image-keyboard-response",218,233921,"0.0-3.69-0.69","ybhrqe06s2bqbz1",116,"115.csv","","668.2000000476837","resources/trios/L1T2A1.jpg","37","restless",0.7,0.4,0.7,0.826076188138401,"false"
"image-keyboard-response",219,234338,"0.0-3.69-1.69","ybhrqe06s2bqbz1",116,"115.csv","","null","resources/maskTrios/L1BB.jpg","null","",NA,NA,NA,NA,""
"image-keyboard-response",220,235548,"0.0-3.69-2.69","ybhrqe06s2bqbz1",116,"115.csv","","null","resources/images/fishbone.png","null","",NA,NA,NA,NA,""
"image-keyboard-response",221,235872,"0.0-3.70-0.70","ybhrqe06s2bqbz1",116,"115.csv","","322.40000009536743","resources/trios/L1T2A2.jpg","39","restless",0.7,0.4,0.7,0.957983993015018,"false"
"image-keyboard-response",222,236281,"0.0-3.70-1.70","ybhrqe06s2bqbz1",116,"115.csv","","null","resources/maskTrios/BBA2.jpg","null","",NA,NA,NA,NA,""
"image-keyboard-response",223,237491,"0.0-3.70-2.70","ybhrqe06s2bqbz1",116,"115.csv","","null","resources/images/fishbone.png","null","",NA,NA,NA,NA,""
"image-keyboard-response",224,237812,"0.0-3.71-0.71","ybhrqe06s2bqbz1",116,"115.csv","","320.40000009536743","resources/trios/L1T2A1.jpg","38","restless",0.7,0.4,0.6,0.623685510852672,"false"
"image-keyboard-response",225,238222,"0.0-3.71-1.71","ybhrqe06s2bqbz1",116,"115.csv","","null","resources/maskTrios/BT2B.jpg","null","",NA,NA,NA,NA,""
"image-keyboard-response",226,239435,"0.0-3.71-2.71","ybhrqe06s2bqbz1",116,"115.csv","","null","resources/images/fishbone.png","null","",NA,NA,NA,NA,""
"image-keyboard-response",227,240463,"0.0-3.72-0.72","ybhrqe06s2bqbz1",116,"115.csv","","1027.1000001430511","resources/trios/L2T4A1.jpg","38","restless",0.7,0.4,0.6,0.00518851043769719,"true"
"image-keyboard-response",228,240880,"0.0-3.72-1.72","ybhrqe06s2bqbz1",116,"115.csv","","null","resources/maskTrios/BT4B.jpg","null","",NA,NA,NA,NA,""
"image-keyboard-response",229,242091,"0.0-3.72-2.72","ybhrqe06s2bqbz1",116,"115.csv","","null","resources/images/coin2.png","null","",NA,NA,NA,NA,""
"image-keyboard-response",230,242625,"0.0-3.73-0.73","ybhrqe06s2bqbz1",116,"115.csv","","533","resources/trios/L1T4A2.jpg","38","restless",0.7,0.4,0.6,0.320624123098243,"true"
"image-keyboard-response",231,243039,"0.0-3.73-1.73","ybhrqe06s2bqbz1",116,"115.csv","","null","resources/maskTrios/BT4B.jpg","null","",NA,NA,NA,NA,""
"image-keyboard-response",232,244252,"0.0-3.73-2.73","ybhrqe06s2bqbz1",116,"115.csv","","null","resources/images/coin2.png","null","",NA,NA,NA,NA,""
"image-keyboard-response",233,244822,"0.0-3.74-0.74","ybhrqe06s2bqbz1",116,"115.csv","","569.1999998092651","resources/trios/L2T4A2.jpg","38","restless",0.7,0.4,0.6,0.879208849638901,"false"
"image-keyboard-response",234,245234,"0.0-3.74-1.74","ybhrqe06s2bqbz1",116,"115.csv","","null","resources/maskTrios/BT4B.jpg","null","",NA,NA,NA,NA,""
"image-keyboard-response",235,246448,"0.0-3.74-2.74","ybhrqe06s2bqbz1",116,"115.csv","","null","resources/images/fishbone.png","null","",NA,NA,NA,NA,""
"image-keyboard-response",236,246973,"0.0-3.75-0.75","ybhrqe06s2bqbz1",116,"115.csv","","524","resources/trios/L1T2A1.jpg","37","restless",0.7,0.4,0.6,0.291147769383175,"true"
"image-keyboard-response",237,247381,"0.0-3.75-1.75","ybhrqe06s2bqbz1",116,"115.csv","","null","resources/maskTrios/L1BB.jpg","null","",NA,NA,NA,NA,""
"image-keyboard-response",238,248591,"0.0-3.75-2.75","ybhrqe06s2bqbz1",116,"115.csv","","null","resources/images/coin2.png","null","",NA,NA,NA,NA,""
"image-keyboard-response",239,249735,"0.0-3.76-0.76","ybhrqe06s2bqbz1",116,"115.csv","","1142.7000000476837","resources/trios/L1T2A1.jpg","37","restless",0.7,0.4,0.6,0.557497856151669,"true"
"image-keyboard-response",240,250150,"0.0-3.76-1.76","ybhrqe06s2bqbz1",116,"115.csv","","null","resources/maskTrios/L1BB.jpg","null","",NA,NA,NA,NA,""
"image-keyboard-response",241,251360,"0.0-3.76-2.76","ybhrqe06s2bqbz1",116,"115.csv","","null","resources/images/coin2.png","null","",NA,NA,NA,NA,""
"image-keyboard-response",242,251857,"0.0-3.77-0.77","ybhrqe06s2bqbz1",116,"115.csv","","495.7000000476837","resources/trios/L2T4A2.jpg","37","restless",0.6,0.4,0.6,0.844591564309573,"false"
"image-keyboard-response",243,252278,"0.0-3.77-1.77","ybhrqe06s2bqbz1",116,"115.csv","","null","resources/maskTrios/L2BB.jpg","null","",NA,NA,NA,NA,""
"image-keyboard-response",244,253490,"0.0-3.77-2.77","ybhrqe06s2bqbz1",116,"115.csv","","null","resources/images/fishbone.png","null","",NA,NA,NA,NA,""
"image-keyboard-response",245,253823,"0.0-3.78-0.78","ybhrqe06s2bqbz1",116,"115.csv","","331.2999999523163","resources/trios/L1T4A1.jpg","38","restless",0.6,0.4,0.6,0.166078639315904,"true"
"image-keyboard-response",246,254236,"0.0-3.78-1.78","ybhrqe06s2bqbz1",116,"115.csv","","null","resources/maskTrios/BT4B.jpg","null","",NA,NA,NA,NA,""
"image-keyboard-response",247,255452,"0.0-3.78-2.78","ybhrqe06s2bqbz1",116,"115.csv","","null","resources/images/coin2.png","null","",NA,NA,NA,NA,""
"image-keyboard-response",248,255766,"0.0-3.79-0.79","ybhrqe06s2bqbz1",116,"115.csv","","312.09999990463257","resources/trios/L1T2A2.jpg","38","restless",0.5,0.4,0.6,0.130797387803887,"true"
"image-keyboard-response",249,256172,"0.0-3.79-1.79","ybhrqe06s2bqbz1",116,"115.csv","","null","resources/maskTrios/BT2B.jpg","null","",NA,NA,NA,NA,""
"image-keyboard-response",250,257391,"0.0-3.79-2.79","ybhrqe06s2bqbz1",116,"115.csv","","null","resources/images/coin2.png","null","",NA,NA,NA,NA,""
"image-keyboard-response",251,257691,"0.0-3.80-0.80","ybhrqe06s2bqbz1",116,"115.csv","","298.90000009536743","resources/trios/L1T4A1.jpg","38","restless",0.4,0.4,0.6,0.0658555441390569,"true"
"image-keyboard-response",252,258107,"0.0-3.80-1.80","ybhrqe06s2bqbz1",116,"115.csv","","null","resources/maskTrios/BT4B.jpg","null","",NA,NA,NA,NA,""
"image-keyboard-response",253,259326,"0.0-3.80-2.80","ybhrqe06s2bqbz1",116,"115.csv","","null","resources/images/coin2.png","null","",NA,NA,NA,NA,""
"image-keyboard-response",254,259570,"0.0-3.81-0.81","ybhrqe06s2bqbz1",116,"115.csv","","242.5","resources/trios/L1T4A1.jpg","38","restless",0.4,0.4,0.6,0.93329388208775,"false"
"image-keyboard-response",255,259979,"0.0-3.81-1.81","ybhrqe06s2bqbz1",116,"115.csv","","null","resources/maskTrios/BT4B.jpg","null","",NA,NA,NA,NA,""
"image-keyboard-response",256,261191,"0.0-3.81-2.81","ybhrqe06s2bqbz1",116,"115.csv","","null","resources/images/fishbone.png","null","",NA,NA,NA,NA,""
"image-keyboard-response",257,261478,"0.0-3.82-0.82","ybhrqe06s2bqbz1",116,"115.csv","","286.30000019073486","resources/trios/L1T4A1.jpg","37","restless",0.4,0.4,0.6,0.994261795733971,"false"
"image-keyboard-response",258,261888,"0.0-3.82-1.82","ybhrqe06s2bqbz1",116,"115.csv","","null","resources/maskTrios/L1BB.jpg","null","",NA,NA,NA,NA,""
"image-keyboard-response",259,263097,"0.0-3.82-2.82","ybhrqe06s2bqbz1",116,"115.csv","","null","resources/images/fishbone.png","null","",NA,NA,NA,NA,""
"image-keyboard-response",260,263639,"0.0-3.83-0.83","ybhrqe06s2bqbz1",116,"115.csv","","540.7999999523163","resources/trios/L2T4A1.jpg","38","restless",0.4,0.4,0.6,0.165246037462159,"true"
"image-keyboard-response",261,264048,"0.0-3.83-1.83","ybhrqe06s2bqbz1",116,"115.csv","","null","resources/maskTrios/BT4B.jpg","null","",NA,NA,NA,NA,""
"image-keyboard-response",262,265259,"0.0-3.83-2.83","ybhrqe06s2bqbz1",116,"115.csv","","null","resources/images/coin2.png","null","",NA,NA,NA,NA,""
"image-keyboard-response",263,265665,"0.0-3.84-0.84","ybhrqe06s2bqbz1",116,"115.csv","","406","resources/trios/L2T4A2.jpg","38","restless",0.3,0.4,0.5,0.342031890473469,"true"
"image-keyboard-response",264,266080,"0.0-3.84-1.84","ybhrqe06s2bqbz1",116,"115.csv","","null","resources/maskTrios/BT4B.jpg","null","",NA,NA,NA,NA,""
"image-keyboard-response",265,267285,"0.0-3.84-2.84","ybhrqe06s2bqbz1",116,"115.csv","","null","resources/images/coin2.png","null","",NA,NA,NA,NA,""
"image-keyboard-response",266,268597,"0.0-3.85-0.85","ybhrqe06s2bqbz1",116,"115.csv","","1311.1000001430511","resources/trios/L2T2A2.jpg","37","restless",0.3,0.5,0.5,0.555287166923364,"false"
"image-keyboard-response",267,269005,"0.0-3.85-1.85","ybhrqe06s2bqbz1",116,"115.csv","","null","resources/maskTrios/L2BB.jpg","null","",NA,NA,NA,NA,""
"image-keyboard-response",268,270213,"0.0-3.85-2.85","ybhrqe06s2bqbz1",116,"115.csv","","null","resources/images/fishbone.png","null","",NA,NA,NA,NA,""
"image-keyboard-response",269,270599,"0.0-3.86-0.86","ybhrqe06s2bqbz1",116,"115.csv","","384.5","resources/trios/L1T4A1.jpg","38","restless",0.3,0.5,0.5,0.82416811035598,"false"
"image-keyboard-response",270,271015,"0.0-3.86-1.86","ybhrqe06s2bqbz1",116,"115.csv","","null","resources/maskTrios/BT4B.jpg","null","",NA,NA,NA,NA,""
"image-keyboard-response",271,272233,"0.0-3.86-2.86","ybhrqe06s2bqbz1",116,"115.csv","","null","resources/images/fishbone.png","null","",NA,NA,NA,NA,""
"image-keyboard-response",272,272652,"0.0-3.87-0.87","ybhrqe06s2bqbz1",116,"115.csv","","418.39999985694885","resources/trios/L2T4A2.jpg","38","restless",0.3,0.5,0.5,0.54532058392124,"false"
"image-keyboard-response",273,273069,"0.0-3.87-1.87","ybhrqe06s2bqbz1",116,"115.csv","","null","resources/maskTrios/BT4B.jpg","null","",NA,NA,NA,NA,""
"image-keyboard-response",274,274279,"0.0-3.87-2.87","ybhrqe06s2bqbz1",116,"115.csv","","null","resources/images/fishbone.png","null","",NA,NA,NA,NA,""
"image-keyboard-response",275,274816,"0.0-3.88-0.88","ybhrqe06s2bqbz1",116,"115.csv","","535.3000001907349","resources/trios/L2T4A1.jpg","38","restless",0.3,0.5,0.5,0.846159897719009,"false"
"image-keyboard-response",276,275225,"0.0-3.88-1.88","ybhrqe06s2bqbz1",116,"115.csv","","null","resources/maskTrios/BT4B.jpg","null","",NA,NA,NA,NA,""
"image-keyboard-response",277,276438,"0.0-3.88-2.88","ybhrqe06s2bqbz1",116,"115.csv","","null","resources/images/fishbone.png","null","",NA,NA,NA,NA,""
"image-keyboard-response",278,276781,"0.0-3.89-0.89","ybhrqe06s2bqbz1",116,"115.csv","","341.90000009536743","resources/trios/L1T4A1.jpg","38","restless",0.3,0.5,0.5,0.880074297442865,"false"
"image-keyboard-response",279,277186,"0.0-3.89-1.89","ybhrqe06s2bqbz1",116,"115.csv","","null","resources/maskTrios/BT4B.jpg","null","",NA,NA,NA,NA,""
"image-keyboard-response",280,278399,"0.0-3.89-2.89","ybhrqe06s2bqbz1",116,"115.csv","","null","resources/images/fishbone.png","null","",NA,NA,NA,NA,""
"image-keyboard-response",281,279442,"0.0-3.90-0.90","ybhrqe06s2bqbz1",116,"115.csv","","1041.5","resources/trios/L2T4A1.jpg","39","restless",0.3,0.5,0.5,0.0908007757836726,"true"
"image-keyboard-response",282,279861,"0.0-3.90-1.90","ybhrqe06s2bqbz1",116,"115.csv","","null","resources/maskTrios/BBA1.jpg","null","",NA,NA,NA,NA,""
"image-keyboard-response",283,281077,"0.0-3.90-2.90","ybhrqe06s2bqbz1",116,"115.csv","","null","resources/images/coin2.png","null","",NA,NA,NA,NA,""
"image-keyboard-response",284,281433,"0.0-3.91-0.91","ybhrqe06s2bqbz1",116,"115.csv","","355.2000000476837","resources/trios/L2T2A1.jpg","39","restless",0.3,0.5,0.5,0.268976807000531,"true"
"image-keyboard-response",285,281856,"0.0-3.91-1.91","ybhrqe06s2bqbz1",116,"115.csv","","null","resources/maskTrios/BBA1.jpg","null","",NA,NA,NA,NA,""
"image-keyboard-response",286,283064,"0.0-3.91-2.91","ybhrqe06s2bqbz1",116,"115.csv","","null","resources/images/coin2.png","null","",NA,NA,NA,NA,""
"image-keyboard-response",287,283369,"0.0-3.92-0.92","ybhrqe06s2bqbz1",116,"115.csv","","304.2000000476837","resources/trios/L1T2A2.jpg","39","restless",0.3,0.5,0.5,0.114799297851386,"true"
"image-keyboard-response",288,283793,"0.0-3.92-1.92","ybhrqe06s2bqbz1",116,"115.csv","","null","resources/maskTrios/BBA2.jpg","null","",NA,NA,NA,NA,""
"image-keyboard-response",289,285008,"0.0-3.92-2.92","ybhrqe06s2bqbz1",116,"115.csv","","null","resources/images/coin2.png","null","",NA,NA,NA,NA,""
"image-keyboard-response",290,285347,"0.0-3.93-0.93","ybhrqe06s2bqbz1",116,"115.csv","","338.19999980926514","resources/trios/L1T2A1.jpg","39","restless",0.3,0.5,0.5,0.414594442207004,"true"
"image-keyboard-response",291,285768,"0.0-3.93-1.93","ybhrqe06s2bqbz1",116,"115.csv","","null","resources/maskTrios/BBA1.jpg","null","",NA,NA,NA,NA,""
"image-keyboard-response",292,286984,"0.0-3.93-2.93","ybhrqe06s2bqbz1",116,"115.csv","","null","resources/images/coin2.png","null","",NA,NA,NA,NA,""
"image-keyboard-response",293,287339,"0.0-3.94-0.94","ybhrqe06s2bqbz1",116,"115.csv","","353.59999990463257","resources/trios/L1T2A1.jpg","39","restless",0.3,0.5,0.5,0.550138094637593,"false"
"image-keyboard-response",294,287747,"0.0-3.94-1.94","ybhrqe06s2bqbz1",116,"115.csv","","null","resources/maskTrios/BBA1.jpg","null","",NA,NA,NA,NA,""
"image-keyboard-response",295,288962,"0.0-3.94-2.94","ybhrqe06s2bqbz1",116,"115.csv","","null","resources/images/fishbone.png","null","",NA,NA,NA,NA,""
"image-keyboard-response",296,289240,"0.0-3.95-0.95","ybhrqe06s2bqbz1",116,"115.csv","","276.39999985694885","resources/trios/L1T2A1.jpg","38","restless",0.3,0.5,0.5,0.524411461767206,"false"
"image-keyboard-response",297,289645,"0.0-3.95-1.95","ybhrqe06s2bqbz1",116,"115.csv","","null","resources/maskTrios/BT2B.jpg","null","",NA,NA,NA,NA,""
"image-keyboard-response",298,290860,"0.0-3.95-2.95","ybhrqe06s2bqbz1",116,"115.csv","","null","resources/images/fishbone.png","null","",NA,NA,NA,NA,""
"image-keyboard-response",299,291111,"0.0-3.96-0.96","ybhrqe06s2bqbz1",116,"115.csv","","250.70000004768372","resources/trios/L2T4A1.jpg","37","restless",0.3,0.4,0.5,0.429310925855948,"false"
"image-keyboard-response",300,291515,"0.0-3.96-1.96","ybhrqe06s2bqbz1",116,"115.csv","","null","resources/maskTrios/L2BB.jpg","null","",NA,NA,NA,NA,""
"image-keyboard-response",301,292732,"0.0-3.96-2.96","ybhrqe06s2bqbz1",116,"115.csv","","null","resources/images/fishbone.png","null","",NA,NA,NA,NA,""
"image-keyboard-response",302,293072,"0.0-3.97-0.97","ybhrqe06s2bqbz1",116,"115.csv","","339.2999999523163","resources/trios/L1T2A2.jpg","37","restless",0.3,0.4,0.5,0.87544304340635,"false"
"image-keyboard-response",303,293474,"0.0-3.97-1.97","ybhrqe06s2bqbz1",116,"115.csv","","null","resources/maskTrios/L1BB.jpg","null","",NA,NA,NA,NA,""
"image-keyboard-response",304,294684,"0.0-3.97-2.97","ybhrqe06s2bqbz1",116,"115.csv","","null","resources/images/fishbone.png","null","",NA,NA,NA,NA,""
"image-keyboard-response",305,295519,"0.0-3.98-0.98","ybhrqe06s2bqbz1",116,"115.csv","","833.1999998092651","resources/trios/L1T4A2.jpg","39","restless",0.3,0.4,0.5,0.124651748095329,"true"
"image-keyboard-response",306,295933,"0.0-3.98-1.98","ybhrqe06s2bqbz1",116,"115.csv","","null","resources/maskTrios/BBA2.jpg","null","",NA,NA,NA,NA,""
"image-keyboard-response",307,297146,"0.0-3.98-2.98","ybhrqe06s2bqbz1",116,"115.csv","","null","resources/images/coin2.png","null","",NA,NA,NA,NA,""
"image-keyboard-response",308,297408,"0.0-3.99-0.99","ybhrqe06s2bqbz1",116,"115.csv","","261.2000000476837","resources/trios/L1T2A1.jpg","39","restless",0.3,0.4,0.5,0.543904155156929,"false"
"image-keyboard-response",309,297816,"0.0-3.99-1.99","ybhrqe06s2bqbz1",116,"115.csv","","null","resources/maskTrios/BBA1.jpg","null","",NA,NA,NA,NA,""
"image-keyboard-response",310,299031,"0.0-3.99-2.99","ybhrqe06s2bqbz1",116,"115.csv","","null","resources/images/fishbone.png","null","",NA,NA,NA,NA,""
"image-keyboard-response",311,299317,"0.0-3.100-0.100","ybhrqe06s2bqbz1",116,"115.csv","","285.60000014305115","resources/trios/L1T2A2.jpg","39","restless",0.3,0.4,0.5,0.112718888060393,"true"
"image-keyboard-response",312,299731,"0.0-3.100-1.100","ybhrqe06s2bqbz1",116,"115.csv","","null","resources/maskTrios/BBA2.jpg","null","",NA,NA,NA,NA,""
"image-keyboard-response",313,300939,"0.0-3.100-2.100","ybhrqe06s2bqbz1",116,"115.csv","","null","resources/images/coin2.png","null","",NA,NA,NA,NA,""
"image-keyboard-response",314,301208,"0.0-3.101-0.101","ybhrqe06s2bqbz1",116,"115.csv","","268.2999999523163","resources/trios/L1T4A2.jpg","39","restless",0.3,0.4,0.5,0.728498445020593,"false"
"image-keyboard-response",315,301623,"0.0-3.101-1.101","ybhrqe06s2bqbz1",116,"115.csv","","null","resources/maskTrios/BBA2.jpg","null","",NA,NA,NA,NA,""
"image-keyboard-response",316,302837,"0.0-3.101-2.101","ybhrqe06s2bqbz1",116,"115.csv","","null","resources/images/fishbone.png","null","",NA,NA,NA,NA,""
"image-keyboard-response",317,303110,"0.0-3.102-0.102","ybhrqe06s2bqbz1",116,"115.csv","","271.10000014305115","resources/trios/L2T4A1.jpg","38","restless",0.3,0.4,0.5,0.491774336480649,"false"
"image-keyboard-response",318,303519,"0.0-3.102-1.102","ybhrqe06s2bqbz1",116,"115.csv","","null","resources/maskTrios/BT4B.jpg","null","",NA,NA,NA,NA,""
"image-keyboard-response",319,304734,"0.0-3.102-2.102","ybhrqe06s2bqbz1",116,"115.csv","","null","resources/images/fishbone.png","null","",NA,NA,NA,NA,""
"image-keyboard-response",320,305019,"0.0-3.103-0.103","ybhrqe06s2bqbz1",116,"115.csv","","283.2999999523163","resources/trios/L2T2A2.jpg","37","restless",0.3,0.4,0.5,0.00152670934051136,"true"
"image-keyboard-response",321,305434,"0.0-3.103-1.103","ybhrqe06s2bqbz1",116,"115.csv","","null","resources/maskTrios/L2BB.jpg","null","",NA,NA,NA,NA,""
"image-keyboard-response",322,306644,"0.0-3.103-2.103","ybhrqe06s2bqbz1",116,"115.csv","","null","resources/images/coin2.png","null","",NA,NA,NA,NA,""
"image-keyboard-response",323,306950,"0.0-3.104-0.104","ybhrqe06s2bqbz1",116,"115.csv","","305.2000000476837","resources/trios/L2T2A2.jpg","39","restless",0.3,0.4,0.6,0.280324077064026,"true"
"image-keyboard-response",324,307355,"0.0-3.104-1.104","ybhrqe06s2bqbz1",116,"115.csv","","null","resources/maskTrios/BBA2.jpg","null","",NA,NA,NA,NA,""
"image-keyboard-response",325,308571,"0.0-3.104-2.104","ybhrqe06s2bqbz1",116,"115.csv","","null","resources/images/coin2.png","null","",NA,NA,NA,NA,""
"image-keyboard-response",326,309416,"0.0-3.105-0.105","ybhrqe06s2bqbz1",116,"115.csv","","843.5","resources/trios/L2T2A2.jpg","37","restless",0.3,0.4,0.6,0.484894239817633,"false"
"image-keyboard-response",327,309829,"0.0-3.105-1.105","ybhrqe06s2bqbz1",116,"115.csv","","null","resources/maskTrios/L2BB.jpg","null","",NA,NA,NA,NA,""
"image-keyboard-response",328,311039,"0.0-3.105-2.105","ybhrqe06s2bqbz1",116,"115.csv","","null","resources/images/fishbone.png","null","",NA,NA,NA,NA,""
"image-keyboard-response",329,311410,"0.0-3.106-0.106","ybhrqe06s2bqbz1",116,"115.csv","","369.7000000476837","resources/trios/L1T4A2.jpg","39","restless",0.3,0.4,0.7,0.516583168977543,"true"
"image-keyboard-response",330,311833,"0.0-3.106-1.106","ybhrqe06s2bqbz1",116,"115.csv","","null","resources/maskTrios/BBA2.jpg","null","",NA,NA,NA,NA,""
"image-keyboard-response",331,313043,"0.0-3.106-2.106","ybhrqe06s2bqbz1",116,"115.csv","","null","resources/images/coin2.png","null","",NA,NA,NA,NA,""
"image-keyboard-response",332,313626,"0.0-3.107-0.107","ybhrqe06s2bqbz1",116,"115.csv","","582.5","resources/trios/L2T4A1.jpg","39","restless",0.3,0.4,0.7,0.991479820152153,"false"
"image-keyboard-response",333,314050,"0.0-3.107-1.107","ybhrqe06s2bqbz1",116,"115.csv","","null","resources/maskTrios/BBA1.jpg","null","",NA,NA,NA,NA,""
"image-keyboard-response",334,315260,"0.0-3.107-2.107","ybhrqe06s2bqbz1",116,"115.csv","","null","resources/images/fishbone.png","null","",NA,NA,NA,NA,""
"image-keyboard-response",335,315582,"0.0-3.108-0.108","ybhrqe06s2bqbz1",116,"115.csv","","321.19999980926514","resources/trios/L2T4A1.jpg","38","restless",0.3,0.4,0.7,0.497299728055427,"false"
"image-keyboard-response",336,315987,"0.0-3.108-1.108","ybhrqe06s2bqbz1",116,"115.csv","","null","resources/maskTrios/BT4B.jpg","null","",NA,NA,NA,NA,""
"image-keyboard-response",337,317198,"0.0-3.108-2.108","ybhrqe06s2bqbz1",116,"115.csv","","null","resources/images/fishbone.png","null","",NA,NA,NA,NA,""
"image-keyboard-response",338,317561,"0.0-3.109-0.109","ybhrqe06s2bqbz1",116,"115.csv","","361.90000009536743","resources/trios/L1T4A2.jpg","37","restless",0.3,0.4,0.6,0.0342589825289323,"true"
"image-keyboard-response",339,317978,"0.0-3.109-1.109","ybhrqe06s2bqbz1",116,"115.csv","","null","resources/maskTrios/L1BB.jpg","null","",NA,NA,NA,NA,""
"image-keyboard-response",340,319190,"0.0-3.109-2.109","ybhrqe06s2bqbz1",116,"115.csv","","null","resources/images/coin2.png","null","",NA,NA,NA,NA,""
"image-keyboard-response",341,319580,"0.0-3.110-0.110","ybhrqe06s2bqbz1",116,"115.csv","","388.7000000476837","resources/trios/L2T2A2.jpg","37","restless",0.3,0.4,0.6,0.869759000549675,"false"
"image-keyboard-response",342,319995,"0.0-3.110-1.110","ybhrqe06s2bqbz1",116,"115.csv","","null","resources/maskTrios/L2BB.jpg","null","",NA,NA,NA,NA,""
"image-keyboard-response",343,321206,"0.0-3.110-2.110","ybhrqe06s2bqbz1",116,"115.csv","","null","resources/images/fishbone.png","null","",NA,NA,NA,NA,""
"image-keyboard-response",344,321535,"0.0-3.111-0.111","ybhrqe06s2bqbz1",116,"115.csv","","327.7000000476837","resources/trios/L2T2A2.jpg","39","restless",0.3,0.4,0.7,0.535950883884095,"true"
"image-keyboard-response",345,321951,"0.0-3.111-1.111","ybhrqe06s2bqbz1",116,"115.csv","","null","resources/maskTrios/BBA2.jpg","null","",NA,NA,NA,NA,""
"image-keyboard-response",346,323158,"0.0-3.111-2.111","ybhrqe06s2bqbz1",116,"115.csv","","null","resources/images/coin2.png","null","",NA,NA,NA,NA,""
"image-keyboard-response",347,323624,"0.0-3.112-0.112","ybhrqe06s2bqbz1",116,"115.csv","","464.59999990463257","resources/trios/L2T2A1.jpg","39","restless",0.3,0.4,0.7,0.45293978170327,"true"
"image-keyboard-response",348,324028,"0.0-3.112-1.112","ybhrqe06s2bqbz1",116,"115.csv","","null","resources/maskTrios/BBA1.jpg","null","",NA,NA,NA,NA,""
"image-keyboard-response",349,325239,"0.0-3.112-2.112","ybhrqe06s2bqbz1",116,"115.csv","","null","resources/images/coin2.png","null","",NA,NA,NA,NA,""
"image-keyboard-response",350,325615,"0.0-3.113-0.113","ybhrqe06s2bqbz1",116,"115.csv","","374.2999999523163","resources/trios/L1T4A1.jpg","39","restless",0.3,0.4,0.7,0.337859426175278,"true"
"image-keyboard-response",351,326033,"0.0-3.113-1.113","ybhrqe06s2bqbz1",116,"115.csv","","null","resources/maskTrios/BBA1.jpg","null","",NA,NA,NA,NA,""
"image-keyboard-response",352,327257,"0.0-3.113-2.113","ybhrqe06s2bqbz1",116,"115.csv","","null","resources/images/coin2.png","null","",NA,NA,NA,NA,""
"image-keyboard-response",353,327665,"0.0-3.114-0.114","ybhrqe06s2bqbz1",116,"115.csv","","406.2999999523163","resources/trios/L1T4A1.jpg","39","restless",0.3,0.4,0.7,0.526297651302173,"true"
"image-keyboard-response",354,328081,"0.0-3.114-1.114","ybhrqe06s2bqbz1",116,"115.csv","","null","resources/maskTrios/BBA1.jpg","null","",NA,NA,NA,NA,""
"image-keyboard-response",355,329303,"0.0-3.114-2.114","ybhrqe06s2bqbz1",116,"115.csv","","null","resources/images/coin2.png","null","",NA,NA,NA,NA,""
"image-keyboard-response",356,329696,"0.0-3.115-0.115","ybhrqe06s2bqbz1",116,"115.csv","","391.89999985694885","resources/trios/L2T2A2.jpg","39","restless",0.3,0.4,0.7,0.74995191652023,"false"
"image-keyboard-response",357,330111,"0.0-3.115-1.115","ybhrqe06s2bqbz1",116,"115.csv","","null","resources/maskTrios/BBA2.jpg","null","",NA,NA,NA,NA,""
"image-keyboard-response",358,331319,"0.0-3.115-2.115","ybhrqe06s2bqbz1",116,"115.csv","","null","resources/images/fishbone.png","null","",NA,NA,NA,NA,""
"image-keyboard-response",359,331686,"0.0-3.116-0.116","ybhrqe06s2bqbz1",116,"115.csv","","366.09999990463257","resources/trios/L1T2A1.jpg","38","restless",0.3,0.4,0.7,0.134145635807898,"true"
"image-keyboard-response",360,332098,"0.0-3.116-1.116","ybhrqe06s2bqbz1",116,"115.csv","","null","resources/maskTrios/BT2B.jpg","null","",NA,NA,NA,NA,""
"image-keyboard-response",361,333317,"0.0-3.116-2.116","ybhrqe06s2bqbz1",116,"115.csv","","null","resources/images/coin2.png","null","",NA,NA,NA,NA,""
"image-keyboard-response",362,333743,"0.0-3.117-0.117","ybhrqe06s2bqbz1",116,"115.csv","","424.10000014305115","resources/trios/L2T4A1.jpg","38","restless",0.3,0.4,0.7,0.110853412149261,"true"
"image-keyboard-response",363,334154,"0.0-3.117-1.117","ybhrqe06s2bqbz1",116,"115.csv","","null","resources/maskTrios/BT4B.jpg","null","",NA,NA,NA,NA,""
"image-keyboard-response",364,335372,"0.0-3.117-2.117","ybhrqe06s2bqbz1",116,"115.csv","","null","resources/images/coin2.png","null","",NA,NA,NA,NA,""
"image-keyboard-response",365,335753,"0.0-3.118-0.118","ybhrqe06s2bqbz1",116,"115.csv","","379.40000009536743","resources/trios/L2T4A1.jpg","38","restless",0.3,0.4,0.7,0.397581887810823,"true"
"image-keyboard-response",366,336164,"0.0-3.118-1.118","ybhrqe06s2bqbz1",116,"115.csv","","null","resources/maskTrios/BT4B.jpg","null","",NA,NA,NA,NA,""
"image-keyboard-response",367,337373,"0.0-3.118-2.118","ybhrqe06s2bqbz1",116,"115.csv","","null","resources/images/coin2.png","null","",NA,NA,NA,NA,""
"image-keyboard-response",368,338202,"0.0-3.119-0.119","ybhrqe06s2bqbz1",116,"115.csv","","828.4000000953674","resources/trios/L2T2A2.jpg","38","restless",0.4,0.4,0.7,0.279260237556096,"true"
"image-keyboard-response",369,338611,"0.0-3.119-1.119","ybhrqe06s2bqbz1",116,"115.csv","","null","resources/maskTrios/BT2B.jpg","null","",NA,NA,NA,NA,""
"image-keyboard-response",370,339828,"0.0-3.119-2.119","ybhrqe06s2bqbz1",116,"115.csv","","null","resources/images/coin2.png","null","",NA,NA,NA,NA,""
"image-keyboard-response",371,340554,"0.0-3.120-0.120","ybhrqe06s2bqbz1",116,"115.csv","","725.5","resources/trios/L1T2A2.jpg","38","restless",0.3,0.4,0.7,0.65900540057383,"false"
"image-keyboard-response",372,340976,"0.0-3.120-1.120","ybhrqe06s2bqbz1",116,"115.csv","","null","resources/maskTrios/BT2B.jpg","null","",NA,NA,NA,NA,""
"image-keyboard-response",373,342190,"0.0-3.120-2.120","ybhrqe06s2bqbz1",116,"115.csv","","null","resources/images/fishbone.png","null","",NA,NA,NA,NA,""
"image-keyboard-response",374,343041,"0.0-3.121-0.121","ybhrqe06s2bqbz1",116,"115.csv","","850.5","resources/trios/L1T2A2.jpg","39","restless",0.3,0.4,0.7,0.641827112995697,"true"
"image-keyboard-response",375,343465,"0.0-3.121-1.121","ybhrqe06s2bqbz1",116,"115.csv","","null","resources/maskTrios/BBA2.jpg","null","",NA,NA,NA,NA,""
"image-keyboard-response",376,344676,"0.0-3.121-2.121","ybhrqe06s2bqbz1",116,"115.csv","","null","resources/images/coin2.png","null","",NA,NA,NA,NA,""
"image-keyboard-response",377,344946,"0.0-3.122-0.122","ybhrqe06s2bqbz1",116,"115.csv","","269","resources/trios/L1T2A1.jpg","37","restless",0.3,0.4,0.8,0.0221254299594824,"true"
"image-keyboard-response",378,345362,"0.0-3.122-1.122","ybhrqe06s2bqbz1",116,"115.csv","","null","resources/maskTrios/L1BB.jpg","null","",NA,NA,NA,NA,""
"image-keyboard-response",379,346585,"0.0-3.122-2.122","ybhrqe06s2bqbz1",116,"115.csv","","null","resources/images/coin2.png","null","",NA,NA,NA,NA,""
"image-keyboard-response",380,347096,"0.0-3.123-0.123","ybhrqe06s2bqbz1",116,"115.csv","","509.7999999523163","resources/trios/L1T4A2.jpg","38","restless",0.3,0.4,0.8,0.308555617601833,"true"
"image-keyboard-response",381,347518,"0.0-3.123-1.123","ybhrqe06s2bqbz1",116,"115.csv","","null","resources/maskTrios/BT4B.jpg","null","",NA,NA,NA,NA,""
"image-keyboard-response",382,348732,"0.0-3.123-2.123","ybhrqe06s2bqbz1",116,"115.csv","","null","resources/images/coin2.png","null","",NA,NA,NA,NA,""
"image-keyboard-response",383,348967,"0.0-3.124-0.124","ybhrqe06s2bqbz1",116,"115.csv","","233.69999980926514","resources/trios/L2T4A1.jpg","39","restless",0.3,0.4,0.8,0.796254096488249,"true"
"image-keyboard-response",384,349372,"0.0-3.124-1.124","ybhrqe06s2bqbz1",116,"115.csv","","null","resources/maskTrios/BBA1.jpg","null","",NA,NA,NA,NA,""
"image-keyboard-response",385,350579,"0.0-3.124-2.124","ybhrqe06s2bqbz1",116,"115.csv","","null","resources/images/coin2.png","null","",NA,NA,NA,NA,""
"image-keyboard-response",386,350904,"0.0-3.125-0.125","ybhrqe06s2bqbz1",116,"115.csv","","324.59999990463257","resources/trios/L1T2A2.jpg","37","restless",0.3,0.4,0.8,0.754879123886805,"false"
"image-keyboard-response",387,351327,"0.0-3.125-1.125","ybhrqe06s2bqbz1",116,"115.csv","","null","resources/maskTrios/L1BB.jpg","null","",NA,NA,NA,NA,""
"image-keyboard-response",388,352540,"0.0-3.125-2.125","ybhrqe06s2bqbz1",116,"115.csv","","null","resources/images/fishbone.png","null","",NA,NA,NA,NA,""
"image-keyboard-response",389,352782,"0.0-3.126-0.126","ybhrqe06s2bqbz1",116,"115.csv","","240.40000009536743","resources/trios/L1T4A1.jpg","38","restless",0.3,0.4,0.8,0.882277173235937,"false"
"image-keyboard-response",390,353199,"0.0-3.126-1.126","ybhrqe06s2bqbz1",116,"115.csv","","null","resources/maskTrios/BT4B.jpg","null","",NA,NA,NA,NA,""
"image-keyboard-response",391,354408,"0.0-3.126-2.126","ybhrqe06s2bqbz1",116,"115.csv","","null","resources/images/fishbone.png","null","",NA,NA,NA,NA,""
"image-keyboard-response",392,354645,"0.0-3.127-0.127","ybhrqe06s2bqbz1",116,"115.csv","","236","resources/trios/L1T2A1.jpg","38","restless",0.3,0.4,0.7,0.139214034388139,"true"
"image-keyboard-response",393,355050,"0.0-3.127-1.127","ybhrqe06s2bqbz1",116,"115.csv","","null","resources/maskTrios/BT2B.jpg","null","",NA,NA,NA,NA,""
"image-keyboard-response",394,356263,"0.0-3.127-2.127","ybhrqe06s2bqbz1",116,"115.csv","","null","resources/images/coin2.png","null","",NA,NA,NA,NA,""
"image-keyboard-response",395,356548,"0.0-3.128-0.128","ybhrqe06s2bqbz1",116,"115.csv","","284.40000009536743","resources/trios/L1T2A2.jpg","37","restless",0.3,0.4,0.6,0.253286530887697,"true"
"image-keyboard-response",396,356962,"0.0-3.128-1.128","ybhrqe06s2bqbz1",116,"115.csv","","null","resources/maskTrios/L1BB.jpg","null","",NA,NA,NA,NA,""
"image-keyboard-response",397,358173,"0.0-3.128-2.128","ybhrqe06s2bqbz1",116,"115.csv","","null","resources/images/coin2.png","null","",NA,NA,NA,NA,""
"image-keyboard-response",398,358436,"0.0-3.129-0.129","ybhrqe06s2bqbz1",116,"115.csv","","261.7999999523163","resources/trios/L2T2A2.jpg","39","restless",0.3,0.5,0.6,0.586555512348578,"true"
"image-keyboard-response",399,358843,"0.0-3.129-1.129","ybhrqe06s2bqbz1",116,"115.csv","","null","resources/maskTrios/BBA2.jpg","null","",NA,NA,NA,NA,""
"image-keyboard-response",400,360066,"0.0-3.129-2.129","ybhrqe06s2bqbz1",116,"115.csv","","null","resources/images/coin2.png","null","",NA,NA,NA,NA,""
"image-keyboard-response",401,360357,"0.0-3.130-0.130","ybhrqe06s2bqbz1",116,"115.csv","","290.09999990463257","resources/trios/L2T2A2.jpg","38","restless",0.3,0.5,0.6,0.437679110218222,"true"
"image-keyboard-response",402,360764,"0.0-3.130-1.130","ybhrqe06s2bqbz1",116,"115.csv","","null","resources/maskTrios/BT2B.jpg","null","",NA,NA,NA,NA,""
"image-keyboard-response",403,361976,"0.0-3.130-2.130","ybhrqe06s2bqbz1",116,"115.csv","","null","resources/images/coin2.png","null","",NA,NA,NA,NA,""
"image-keyboard-response",404,362264,"0.0-3.131-0.131","ybhrqe06s2bqbz1",116,"115.csv","","287","resources/trios/L1T4A2.jpg","37","restless",0.3,0.5,0.6,0.464461727046396,"false"
"image-keyboard-response",405,362674,"0.0-3.131-1.131","ybhrqe06s2bqbz1",116,"115.csv","","null","resources/maskTrios/L1BB.jpg","null","",NA,NA,NA,NA,""
"image-keyboard-response",406,363883,"0.0-3.131-2.131","ybhrqe06s2bqbz1",116,"115.csv","","null","resources/images/fishbone.png","null","",NA,NA,NA,NA,""
"image-keyboard-response",407,364411,"0.0-3.132-0.132","ybhrqe06s2bqbz1",116,"115.csv","","526.5999999046326","resources/trios/L1T2A1.jpg","38","restless",0.2,0.5,0.6,0.683171743004005,"false"
"image-keyboard-response",408,364832,"0.0-3.132-1.132","ybhrqe06s2bqbz1",116,"115.csv","","null","resources/maskTrios/BT2B.jpg","null","",NA,NA,NA,NA,""
"image-keyboard-response",409,366038,"0.0-3.132-2.132","ybhrqe06s2bqbz1",116,"115.csv","","null","resources/images/fishbone.png","null","",NA,NA,NA,NA,""
"image-keyboard-response",410,366389,"0.0-3.133-0.133","ybhrqe06s2bqbz1",116,"115.csv","","349.39999985694885","resources/trios/L1T4A2.jpg","37","restless",0.2,0.5,0.6,0.254835324419799,"false"
"image-keyboard-response",411,366801,"0.0-3.133-1.133","ybhrqe06s2bqbz1",116,"115.csv","","null","resources/maskTrios/L1BB.jpg","null","",NA,NA,NA,NA,""
"image-keyboard-response",412,368014,"0.0-3.133-2.133","ybhrqe06s2bqbz1",116,"115.csv","","null","resources/images/fishbone.png","null","",NA,NA,NA,NA,""
"image-keyboard-response",413,368326,"0.0-3.134-0.134","ybhrqe06s2bqbz1",116,"115.csv","","311.19999980926514","resources/trios/L1T4A2.jpg","39","restless",0.2,0.5,0.6,0.467515515297001,"true"
"image-keyboard-response",414,368732,"0.0-3.134-1.134","ybhrqe06s2bqbz1",116,"115.csv","","null","resources/maskTrios/BBA2.jpg","null","",NA,NA,NA,NA,""
"image-keyboard-response",415,369941,"0.0-3.134-2.134","ybhrqe06s2bqbz1",116,"115.csv","","null","resources/images/coin2.png","null","",NA,NA,NA,NA,""
"image-keyboard-response",416,370170,"0.0-3.135-0.135","ybhrqe06s2bqbz1",116,"115.csv","","228","resources/trios/L2T4A2.jpg","39","restless",0.2,0.5,0.6,0.444521287412255,"true"
"image-keyboard-response",417,370580,"0.0-3.135-1.135","ybhrqe06s2bqbz1",116,"115.csv","","null","resources/maskTrios/BBA2.jpg","null","",NA,NA,NA,NA,""
"image-keyboard-response",418,371795,"0.0-3.135-2.135","ybhrqe06s2bqbz1",116,"115.csv","","null","resources/images/coin2.png","null","",NA,NA,NA,NA,""
"image-keyboard-response",419,372156,"0.0-3.136-0.136","ybhrqe06s2bqbz1",116,"115.csv","","360","resources/trios/L1T4A2.jpg","39","restless",0.2,0.5,0.6,0.946854329267625,"false"
"image-keyboard-response",420,372573,"0.0-3.136-1.136","ybhrqe06s2bqbz1",116,"115.csv","","null","resources/maskTrios/BBA2.jpg","null","",NA,NA,NA,NA,""
"image-keyboard-response",421,373781,"0.0-3.136-2.136","ybhrqe06s2bqbz1",116,"115.csv","","null","resources/images/fishbone.png","null","",NA,NA,NA,NA,""
"image-keyboard-response",422,374494,"0.0-3.137-0.137","ybhrqe06s2bqbz1",116,"115.csv","","711.3000001907349","resources/trios/L1T4A1.jpg","38","restless",0.2,0.5,0.6,0.790866772557701,"false"
"image-keyboard-response",423,374899,"0.0-3.137-1.137","ybhrqe06s2bqbz1",116,"115.csv","","null","resources/maskTrios/BT4B.jpg","null","",NA,NA,NA,NA,""
"image-keyboard-response",424,376108,"0.0-3.137-2.137","ybhrqe06s2bqbz1",116,"115.csv","","null","resources/images/fishbone.png","null","",NA,NA,NA,NA,""
"image-keyboard-response",425,376357,"0.0-3.138-0.138","ybhrqe06s2bqbz1",116,"115.csv","","247.29999995231628","resources/trios/L1T4A1.jpg","37","restless",0.2,0.5,0.6,0.378481724711873,"false"
"image-keyboard-response",426,376774,"0.0-3.138-1.138","ybhrqe06s2bqbz1",116,"115.csv","","null","resources/maskTrios/L1BB.jpg","null","",NA,NA,NA,NA,""
"image-keyboard-response",427,377988,"0.0-3.138-2.138","ybhrqe06s2bqbz1",116,"115.csv","","null","resources/images/fishbone.png","null","",NA,NA,NA,NA,""
"image-keyboard-response",428,378170,"0.0-3.139-0.139","ybhrqe06s2bqbz1",116,"115.csv","","181.90000009536743","resources/trios/L2T2A2.jpg","39","restless",0.2,0.5,0.6,0.781764412529574,"false"
"image-keyboard-response",429,378582,"0.0-3.139-1.139","ybhrqe06s2bqbz1",116,"115.csv","","null","resources/maskTrios/BBA2.jpg","null","",NA,NA,NA,NA,""
"image-keyboard-response",430,379798,"0.0-3.139-2.139","ybhrqe06s2bqbz1",116,"115.csv","","null","resources/images/fishbone.png","null","",NA,NA,NA,NA,""
"image-keyboard-response",431,380076,"0.0-3.140-0.140","ybhrqe06s2bqbz1",116,"115.csv","","276.90000009536743","resources/trios/L2T2A2.jpg","39","restless",0.2,0.4,0.5,0.192818819303618,"true"
"image-keyboard-response",432,380482,"0.0-3.140-1.140","ybhrqe06s2bqbz1",116,"115.csv","","null","resources/maskTrios/BBA2.jpg","null","",NA,NA,NA,NA,""
"image-keyboard-response",433,381699,"0.0-3.140-2.140","ybhrqe06s2bqbz1",116,"115.csv","","null","resources/images/coin2.png","null","",NA,NA,NA,NA,""
"image-keyboard-response",434,382098,"0.0-3.141-0.141","ybhrqe06s2bqbz1",116,"115.csv","","397.2999999523163","resources/trios/L2T4A1.jpg","39","restless",0.2,0.4,0.5,0.978029987994832,"false"
"image-keyboard-response",435,382512,"0.0-3.141-1.141","ybhrqe06s2bqbz1",116,"115.csv","","null","resources/maskTrios/BBA1.jpg","null","",NA,NA,NA,NA,""
"image-keyboard-response",436,383722,"0.0-3.141-2.141","ybhrqe06s2bqbz1",116,"115.csv","","null","resources/images/fishbone.png","null","",NA,NA,NA,NA,""
"image-keyboard-response",437,383985,"0.0-3.142-0.142","ybhrqe06s2bqbz1",116,"115.csv","","261.7999999523163","resources/trios/L2T4A2.jpg","38","restless",0.2,0.4,0.5,0.977394675849278,"false"
"image-keyboard-response",438,384407,"0.0-3.142-1.142","ybhrqe06s2bqbz1",116,"115.csv","","null","resources/maskTrios/BT4B.jpg","null","",NA,NA,NA,NA,""
"image-keyboard-response",439,385616,"0.0-3.142-2.142","ybhrqe06s2bqbz1",116,"115.csv","","null","resources/images/fishbone.png","null","",NA,NA,NA,NA,""
"image-keyboard-response",440,385809,"0.0-3.143-0.143","ybhrqe06s2bqbz1",116,"115.csv","","191.29999995231628","resources/trios/L2T2A2.jpg","39","restless",0.2,0.4,0.4,0.650436259736251,"false"
"image-keyboard-response",441,386222,"0.0-3.143-1.143","ybhrqe06s2bqbz1",116,"115.csv","","null","resources/maskTrios/BBA2.jpg","null","",NA,NA,NA,NA,""
"image-keyboard-response",442,387435,"0.0-3.143-2.143","ybhrqe06s2bqbz1",116,"115.csv","","null","resources/images/fishbone.png","null","",NA,NA,NA,NA,""
"image-keyboard-response",443,387688,"0.0-3.144-0.144","ybhrqe06s2bqbz1",116,"115.csv","","252.09999990463257","resources/trios/L1T4A2.jpg","38","restless",0.2,0.4,0.4,0.589978153547837,"false"
"image-keyboard-response",444,388102,"0.0-3.144-1.144","ybhrqe06s2bqbz1",116,"115.csv","","null","resources/maskTrios/BT4B.jpg","null","",NA,NA,NA,NA,""
"image-keyboard-response",445,389318,"0.0-3.144-2.144","ybhrqe06s2bqbz1",116,"115.csv","","null","resources/images/fishbone.png","null","",NA,NA,NA,NA,""
"image-keyboard-response",446,391820,"0.0-3.145-0.145","ybhrqe06s2bqbz1",116,"115.csv","","2500.7999999523163","resources/trios/L2T4A2.jpg","37","restless",0.2,0.4,0.4,0.378591445884178,"false"
"image-keyboard-response",447,392228,"0.0-3.145-1.145","ybhrqe06s2bqbz1",116,"115.csv","","null","resources/maskTrios/L2BB.jpg","null","",NA,NA,NA,NA,""
"image-keyboard-response",448,393443,"0.0-3.145-2.145","ybhrqe06s2bqbz1",116,"115.csv","","null","resources/images/fishbone.png","null","",NA,NA,NA,NA,""
"image-keyboard-response",449,393717,"0.0-3.146-0.146","ybhrqe06s2bqbz1",116,"115.csv","","273","resources/trios/L1T4A2.jpg","39","restless",0.3,0.4,0.4,0.949439978463316,"false"
"image-keyboard-response",450,394128,"0.0-3.146-1.146","ybhrqe06s2bqbz1",116,"115.csv","","null","resources/maskTrios/BBA2.jpg","null","",NA,NA,NA,NA,""
"image-keyboard-response",451,395336,"0.0-3.146-2.146","ybhrqe06s2bqbz1",116,"115.csv","","null","resources/images/fishbone.png","null","",NA,NA,NA,NA,""
"image-keyboard-response",452,395845,"0.0-3.147-0.147","ybhrqe06s2bqbz1",116,"115.csv","","507.7999999523163","resources/trios/L2T2A2.jpg","38","restless",0.3,0.4,0.4,0.999866677252049,"false"
"image-keyboard-response",453,396252,"0.0-3.147-1.147","ybhrqe06s2bqbz1",116,"115.csv","","null","resources/maskTrios/BT2B.jpg","null","",NA,NA,NA,NA,""
"image-keyboard-response",454,397462,"0.0-3.147-2.147","ybhrqe06s2bqbz1",116,"115.csv","","null","resources/images/fishbone.png","null","",NA,NA,NA,NA,""
"image-keyboard-response",455,397763,"0.0-3.148-0.148","ybhrqe06s2bqbz1",116,"115.csv","","299.5","resources/trios/L1T4A2.jpg","38","restless",0.3,0.5,0.4,0.0732235744729439,"true"
"image-keyboard-response",456,398179,"0.0-3.148-1.148","ybhrqe06s2bqbz1",116,"115.csv","","null","resources/maskTrios/BT4B.jpg","null","",NA,NA,NA,NA,""
"image-keyboard-response",457,399390,"0.0-3.148-2.148","ybhrqe06s2bqbz1",116,"115.csv","","null","resources/images/coin2.png","null","",NA,NA,NA,NA,""
"image-keyboard-response",458,399702,"0.0-3.149-0.149","ybhrqe06s2bqbz1",116,"115.csv","","310.59999990463257","resources/trios/L1T4A2.jpg","38","restless",0.2,0.5,0.4,0.856283370919212,"false"
"image-keyboard-response",459,400108,"0.0-3.149-1.149","ybhrqe06s2bqbz1",116,"115.csv","","null","resources/maskTrios/BT4B.jpg","null","",NA,NA,NA,NA,""
"image-keyboard-response",460,401325,"0.0-3.149-2.149","ybhrqe06s2bqbz1",116,"115.csv","","null","resources/images/fishbone.png","null","",NA,NA,NA,NA,""
"image-keyboard-response",461,401613,"0.0-3.150-0.150","ybhrqe06s2bqbz1",116,"115.csv","","287.40000009536743","resources/trios/L2T2A2.jpg","37","restless",0.2,0.6,0.4,0.0591855430911661,"true"
"image-keyboard-response",462,402027,"0.0-3.150-1.150","ybhrqe06s2bqbz1",116,"115.csv","","null","resources/maskTrios/L2BB.jpg","null","",NA,NA,NA,NA,""
"image-keyboard-response",463,403241,"0.0-3.150-2.150","ybhrqe06s2bqbz1",116,"115.csv","","null","resources/images/coin2.png","null","",NA,NA,NA,NA,""
"image-keyboard-response",464,403637,"0.0-3.151-0.151","ybhrqe06s2bqbz1",116,"115.csv","","395.5","resources/trios/L2T4A1.jpg","37","restless",0.2,0.6,0.4,0.639157687553822,"false"
"image-keyboard-response",465,404046,"0.0-3.151-1.151","ybhrqe06s2bqbz1",116,"115.csv","","null","resources/maskTrios/L2BB.jpg","null","",NA,NA,NA,NA,""
"image-keyboard-response",466,405259,"0.0-3.151-2.151","ybhrqe06s2bqbz1",116,"115.csv","","null","resources/images/fishbone.png","null","",NA,NA,NA,NA,""
"image-keyboard-response",467,405616,"0.0-3.152-0.152","ybhrqe06s2bqbz1",116,"115.csv","","355.7999999523163","resources/trios/L1T2A2.jpg","38","restless",0.2,0.6,0.4,0.0821559030288828,"true"
"image-keyboard-response",468,406023,"0.0-3.152-1.152","ybhrqe06s2bqbz1",116,"115.csv","","null","resources/maskTrios/BT2B.jpg","null","",NA,NA,NA,NA,""
"image-keyboard-response",469,407237,"0.0-3.152-2.152","ybhrqe06s2bqbz1",116,"115.csv","","null","resources/images/coin2.png","null","",NA,NA,NA,NA,""
"image-keyboard-response",470,407562,"0.0-3.153-0.153","ybhrqe06s2bqbz1",116,"115.csv","","323.30000019073486","resources/trios/L2T2A1.jpg","38","restless",0.2,0.6,0.5,0.910895260732237,"false"
"image-keyboard-response",471,407982,"0.0-3.153-1.153","ybhrqe06s2bqbz1",116,"115.csv","","null","resources/maskTrios/BT2B.jpg","null","",NA,NA,NA,NA,""
"image-keyboard-response",472,409193,"0.0-3.153-2.153","ybhrqe06s2bqbz1",116,"115.csv","","null","resources/images/fishbone.png","null","",NA,NA,NA,NA,""
"image-keyboard-response",473,409450,"0.0-3.154-0.154","ybhrqe06s2bqbz1",116,"115.csv","","254.70000004768372","resources/trios/L2T4A1.jpg","39","restless",0.2,0.6,0.5,0.828494519582625,"false"
"image-keyboard-response",474,409860,"0.0-3.154-1.154","ybhrqe06s2bqbz1",116,"115.csv","","null","resources/maskTrios/BBA1.jpg","null","",NA,NA,NA,NA,""
"image-keyboard-response",475,411075,"0.0-3.154-2.154","ybhrqe06s2bqbz1",116,"115.csv","","null","resources/images/fishbone.png","null","",NA,NA,NA,NA,""
"image-keyboard-response",476,411417,"0.0-3.155-0.155","ybhrqe06s2bqbz1",116,"115.csv","","341.10000014305115","resources/trios/L2T4A2.jpg","37","restless",0.2,0.6,0.5,0.320340437553713,"false"
"image-keyboard-response",477,411837,"0.0-3.155-1.155","ybhrqe06s2bqbz1",116,"115.csv","","null","resources/maskTrios/L2BB.jpg","null","",NA,NA,NA,NA,""
"image-keyboard-response",478,413053,"0.0-3.155-2.155","ybhrqe06s2bqbz1",116,"115.csv","","null","resources/images/fishbone.png","null","",NA,NA,NA,NA,""
"image-keyboard-response",479,413308,"0.0-3.156-0.156","ybhrqe06s2bqbz1",116,"115.csv","","253.70000004768372","resources/trios/L2T2A2.jpg","38","restless",0.2,0.6,0.5,0.0199565735778158,"true"
"image-keyboard-response",480,413722,"0.0-3.156-1.156","ybhrqe06s2bqbz1",116,"115.csv","","null","resources/maskTrios/BT2B.jpg","null","",NA,NA,NA,NA,""
"image-keyboard-response",481,414934,"0.0-3.156-2.156","ybhrqe06s2bqbz1",116,"115.csv","","null","resources/images/coin2.png","null","",NA,NA,NA,NA,""
"image-keyboard-response",482,415325,"0.0-3.157-0.157","ybhrqe06s2bqbz1",116,"115.csv","","390.2000000476837","resources/trios/L1T4A1.jpg","38","restless",0.2,0.6,0.5,0.55306553647441,"true"
"image-keyboard-response",483,415743,"0.0-3.157-1.157","ybhrqe06s2bqbz1",116,"115.csv","","null","resources/maskTrios/BT4B.jpg","null","",NA,NA,NA,NA,""
"image-keyboard-response",484,416956,"0.0-3.157-2.157","ybhrqe06s2bqbz1",116,"115.csv","","null","resources/images/coin2.png","null","",NA,NA,NA,NA,""
"image-keyboard-response",485,417241,"0.0-3.158-0.158","ybhrqe06s2bqbz1",116,"115.csv","","283.7999999523163","resources/trios/L1T4A1.jpg","38","restless",0.2,0.6,0.5,0.846111562887502,"false"
"image-keyboard-response",486,417651,"0.0-3.158-1.158","ybhrqe06s2bqbz1",116,"115.csv","","null","resources/maskTrios/BT4B.jpg","null","",NA,NA,NA,NA,""
"image-keyboard-response",487,418862,"0.0-3.158-2.158","ybhrqe06s2bqbz1",116,"115.csv","","null","resources/images/fishbone.png","null","",NA,NA,NA,NA,""
"image-keyboard-response",488,419169,"0.0-3.159-0.159","ybhrqe06s2bqbz1",116,"115.csv","","306.30000019073486","resources/trios/L2T4A1.jpg","37","restless",0.2,0.6,0.5,0.668411792699283,"false"
"image-keyboard-response",489,419578,"0.0-3.159-1.159","ybhrqe06s2bqbz1",116,"115.csv","","null","resources/maskTrios/L2BB.jpg","null","",NA,NA,NA,NA,""
"image-keyboard-response",490,420787,"0.0-3.159-2.159","ybhrqe06s2bqbz1",116,"115.csv","","null","resources/images/fishbone.png","null","",NA,NA,NA,NA,""
"image-keyboard-response",491,421007,"0.0-3.160-0.160","ybhrqe06s2bqbz1",116,"115.csv","","218.80000019073486","resources/trios/L2T4A2.jpg","37","restless",0.2,0.6,0.5,0.563657996523209,"false"
"image-keyboard-response",492,421423,"0.0-3.160-1.160","ybhrqe06s2bqbz1",116,"115.csv","","null","resources/maskTrios/L2BB.jpg","null","",NA,NA,NA,NA,""
"image-keyboard-response",493,422626,"0.0-3.160-2.160","ybhrqe06s2bqbz1",116,"115.csv","","null","resources/images/fishbone.png","null","",NA,NA,NA,NA,""
"image-keyboard-response",494,422856,"0.0-3.161-0.161","ybhrqe06s2bqbz1",116,"115.csv","","228.79999995231628","resources/trios/L1T4A1.jpg","37","restless",0.2,0.6,0.5,0.897616755440676,"false"
"image-keyboard-response",495,423263,"0.0-3.161-1.161","ybhrqe06s2bqbz1",116,"115.csv","","null","resources/maskTrios/L1BB.jpg","null","",NA,NA,NA,NA,""
"image-keyboard-response",496,424473,"0.0-3.161-2.161","ybhrqe06s2bqbz1",116,"115.csv","","null","resources/images/fishbone.png","null","",NA,NA,NA,NA,""
"image-keyboard-response",497,424774,"0.0-3.162-0.162","ybhrqe06s2bqbz1",116,"115.csv","","299.5","resources/trios/L1T4A1.jpg","37","restless",0.2,0.6,0.5,0.228842221116694,"false"
"image-keyboard-response",498,425190,"0.0-3.162-1.162","ybhrqe06s2bqbz1",116,"115.csv","","null","resources/maskTrios/L1BB.jpg","null","",NA,NA,NA,NA,""
"image-keyboard-response",499,426403,"0.0-3.162-2.162","ybhrqe06s2bqbz1",116,"115.csv","","null","resources/images/fishbone.png","null","",NA,NA,NA,NA,""
"image-keyboard-response",500,426675,"0.0-3.163-0.163","ybhrqe06s2bqbz1",116,"115.csv","","271.2000000476837","resources/trios/L2T2A2.jpg","37","restless",0.2,0.6,0.5,0.132994126698527,"true"
"image-keyboard-response",501,427088,"0.0-3.163-1.163","ybhrqe06s2bqbz1",116,"115.csv","","null","resources/maskTrios/L2BB.jpg","null","",NA,NA,NA,NA,""
"image-keyboard-response",502,428303,"0.0-3.163-2.163","ybhrqe06s2bqbz1",116,"115.csv","","null","resources/images/coin2.png","null","",NA,NA,NA,NA,""
"image-keyboard-response",503,428632,"0.0-3.164-0.164","ybhrqe06s2bqbz1",116,"115.csv","","327.60000014305115","resources/trios/L1T4A1.jpg","37","restless",0.2,0.6,0.5,0.891635495968927,"false"
"image-keyboard-response",504,429049,"0.0-3.164-1.164","ybhrqe06s2bqbz1",116,"115.csv","","null","resources/maskTrios/L1BB.jpg","null","",NA,NA,NA,NA,""
"image-keyboard-response",505,430256,"0.0-3.164-2.164","ybhrqe06s2bqbz1",116,"115.csv","","null","resources/images/fishbone.png","null","",NA,NA,NA,NA,""
"image-keyboard-response",506,430779,"0.0-3.165-0.165","ybhrqe06s2bqbz1",116,"115.csv","","522.5999999046326","resources/trios/L2T2A2.jpg","38","restless",0.2,0.6,0.6,0.398371343925312,"true"
"image-keyboard-response",507,431195,"0.0-3.165-1.165","ybhrqe06s2bqbz1",116,"115.csv","","null","resources/maskTrios/BT2B.jpg","null","",NA,NA,NA,NA,""
"image-keyboard-response",508,432408,"0.0-3.165-2.165","ybhrqe06s2bqbz1",116,"115.csv","","null","resources/images/coin2.png","null","",NA,NA,NA,NA,""
"image-keyboard-response",509,432723,"0.0-3.166-0.166","ybhrqe06s2bqbz1",116,"115.csv","","314","resources/trios/L1T2A2.jpg","38","restless",0.2,0.6,0.6,0.286667251373561,"true"
"image-keyboard-response",510,433134,"0.0-3.166-1.166","ybhrqe06s2bqbz1",116,"115.csv","","null","resources/maskTrios/BT2B.jpg","null","",NA,NA,NA,NA,""
"image-keyboard-response",511,434343,"0.0-3.166-2.166","ybhrqe06s2bqbz1",116,"115.csv","","null","resources/images/coin2.png","null","",NA,NA,NA,NA,""
"image-keyboard-response",512,434659,"0.0-3.167-0.167","ybhrqe06s2bqbz1",116,"115.csv","","315.39999985694885","resources/trios/L2T4A1.jpg","39","restless",0.2,0.6,0.6,0.663746122203663,"false"
"image-keyboard-response",513,435069,"0.0-3.167-1.167","ybhrqe06s2bqbz1",116,"115.csv","","null","resources/maskTrios/BBA1.jpg","null","",NA,NA,NA,NA,""
"image-keyboard-response",514,436283,"0.0-3.167-2.167","ybhrqe06s2bqbz1",116,"115.csv","","null","resources/images/fishbone.png","null","",NA,NA,NA,NA,""
"image-keyboard-response",515,436791,"0.0-3.168-0.168","ybhrqe06s2bqbz1",116,"115.csv","","507","resources/trios/L2T2A2.jpg","38","restless",0.2,0.6,0.6,0.268543054359513,"true"
"image-keyboard-response",516,437200,"0.0-3.168-1.168","ybhrqe06s2bqbz1",116,"115.csv","","null","resources/maskTrios/BT2B.jpg","null","",NA,NA,NA,NA,""
"image-keyboard-response",517,438412,"0.0-3.168-2.168","ybhrqe06s2bqbz1",116,"115.csv","","null","resources/images/coin2.png","null","",NA,NA,NA,NA,""
"image-keyboard-response",518,438945,"0.0-3.169-0.169","ybhrqe06s2bqbz1",116,"115.csv","","532.7999999523163","resources/trios/L2T2A1.jpg","38","restless",0.2,0.6,0.6,0.0521699130141597,"true"
"image-keyboard-response",519,439359,"0.0-3.169-1.169","ybhrqe06s2bqbz1",116,"115.csv","","null","resources/maskTrios/BT2B.jpg","null","",NA,NA,NA,NA,""
"image-keyboard-response",520,440570,"0.0-3.169-2.169","ybhrqe06s2bqbz1",116,"115.csv","","null","resources/images/coin2.png","null","",NA,NA,NA,NA,""
"image-keyboard-response",521,441060,"0.0-3.170-0.170","ybhrqe06s2bqbz1",116,"115.csv","","488.7000000476837","resources/trios/L1T4A2.jpg","38","restless",0.2,0.6,0.6,0.0283418069675936,"true"
"image-keyboard-response",522,441473,"0.0-3.170-1.170","ybhrqe06s2bqbz1",116,"115.csv","","null","resources/maskTrios/BT4B.jpg","null","",NA,NA,NA,NA,""
"image-keyboard-response",523,442687,"0.0-3.170-2.170","ybhrqe06s2bqbz1",116,"115.csv","","null","resources/images/coin2.png","null","",NA,NA,NA,NA,""
"image-keyboard-response",524,443501,"0.0-3.171-0.171","ybhrqe06s2bqbz1",116,"115.csv","","812.7999999523163","resources/trios/L2T2A2.jpg","38","restless",0.3,0.6,0.7,0.746524119544382,"false"
"image-keyboard-response",525,443915,"0.0-3.171-1.171","ybhrqe06s2bqbz1",116,"115.csv","","null","resources/maskTrios/BT2B.jpg","null","",NA,NA,NA,NA,""
"image-keyboard-response",526,445129,"0.0-3.171-2.171","ybhrqe06s2bqbz1",116,"115.csv","","null","resources/images/fishbone.png","null","",NA,NA,NA,NA,""
"image-keyboard-response",527,445428,"0.0-3.172-0.172","ybhrqe06s2bqbz1",116,"115.csv","","298","resources/trios/L1T4A2.jpg","38","restless",0.3,0.6,0.7,0.826467422092252,"false"
"image-keyboard-response",528,445842,"0.0-3.172-1.172","ybhrqe06s2bqbz1",116,"115.csv","","null","resources/maskTrios/BT4B.jpg","null","",NA,NA,NA,NA,""
"image-keyboard-response",529,447053,"0.0-3.172-2.172","ybhrqe06s2bqbz1",116,"115.csv","","null","resources/images/fishbone.png","null","",NA,NA,NA,NA,""
"image-keyboard-response",530,447299,"0.0-3.173-0.173","ybhrqe06s2bqbz1",116,"115.csv","","244.89999985694885","resources/trios/L1T4A2.jpg","37","restless",0.4,0.6,0.7,0.463423723675043,"false"
"image-keyboard-response",531,447720,"0.0-3.173-1.173","ybhrqe06s2bqbz1",116,"115.csv","","null","resources/maskTrios/L1BB.jpg","null","",NA,NA,NA,NA,""
"image-keyboard-response",532,448935,"0.0-3.173-2.173","ybhrqe06s2bqbz1",116,"115.csv","","null","resources/images/fishbone.png","null","",NA,NA,NA,NA,""
"image-keyboard-response",533,449209,"0.0-3.174-0.174","ybhrqe06s2bqbz1",116,"115.csv","","272.30000019073486","resources/trios/L1T2A2.jpg","39","restless",0.4,0.6,0.7,0.655988556733708,"true"
"image-keyboard-response",534,449624,"0.0-3.174-1.174","ybhrqe06s2bqbz1",116,"115.csv","","null","resources/maskTrios/BBA2.jpg","null","",NA,NA,NA,NA,""
"image-keyboard-response",535,450833,"0.0-3.174-2.174","ybhrqe06s2bqbz1",116,"115.csv","","null","resources/images/coin2.png","null","",NA,NA,NA,NA,""
"image-keyboard-response",536,451114,"0.0-3.175-0.175","ybhrqe06s2bqbz1",116,"115.csv","","280.2000000476837","resources/trios/L1T4A2.jpg","39","restless",0.4,0.6,0.7,0.242413982517924,"true"
"image-keyboard-response",537,451532,"0.0-3.175-1.175","ybhrqe06s2bqbz1",116,"115.csv","","null","resources/maskTrios/BBA2.jpg","null","",NA,NA,NA,NA,""
"image-keyboard-response",538,452746,"0.0-3.175-2.175","ybhrqe06s2bqbz1",116,"115.csv","","null","resources/images/coin2.png","null","",NA,NA,NA,NA,""
"image-keyboard-response",539,453037,"0.0-3.176-0.176","ybhrqe06s2bqbz1",116,"115.csv","","290.40000009536743","resources/trios/L2T4A2.jpg","39","restless",0.4,0.6,0.7,0.346485338461084,"true"
"image-keyboard-response",540,453447,"0.0-3.176-1.176","ybhrqe06s2bqbz1",116,"115.csv","","null","resources/maskTrios/BBA2.jpg","null","",NA,NA,NA,NA,""
"image-keyboard-response",541,454663,"0.0-3.176-2.176","ybhrqe06s2bqbz1",116,"115.csv","","null","resources/images/coin2.png","null","",NA,NA,NA,NA,""
"image-keyboard-response",542,455075,"0.0-3.177-0.177","ybhrqe06s2bqbz1",116,"115.csv","","410.09999990463257","resources/trios/L1T2A2.jpg","38","restless",0.4,0.6,0.7,0.925733169370721,"false"
"image-keyboard-response",543,455486,"0.0-3.177-1.177","ybhrqe06s2bqbz1",116,"115.csv","","null","resources/maskTrios/BT2B.jpg","null","",NA,NA,NA,NA,""
"image-keyboard-response",544,456698,"0.0-3.177-2.177","ybhrqe06s2bqbz1",116,"115.csv","","null","resources/images/fishbone.png","null","",NA,NA,NA,NA,""
"image-keyboard-response",545,457007,"0.0-3.178-0.178","ybhrqe06s2bqbz1",116,"115.csv","","308.2999999523163","resources/trios/L1T2A1.jpg","39","restless",0.4,0.6,0.7,0.297651240035766,"true"
"image-keyboard-response",546,457414,"0.0-3.178-1.178","ybhrqe06s2bqbz1",116,"115.csv","","null","resources/maskTrios/BBA1.jpg","null","",NA,NA,NA,NA,""
"image-keyboard-response",547,458623,"0.0-3.178-2.178","ybhrqe06s2bqbz1",116,"115.csv","","null","resources/images/coin2.png","null","",NA,NA,NA,NA,""
"image-keyboard-response",548,458970,"0.0-3.179-0.179","ybhrqe06s2bqbz1",116,"115.csv","","346.5","resources/trios/L2T4A1.jpg","39","restless",0.4,0.6,0.7,0.247054398268763,"true"
"image-keyboard-response",549,459388,"0.0-3.179-1.179","ybhrqe06s2bqbz1",116,"115.csv","","null","resources/maskTrios/BBA1.jpg","null","",NA,NA,NA,NA,""
"image-keyboard-response",550,460597,"0.0-3.179-2.179","ybhrqe06s2bqbz1",116,"115.csv","","null","resources/images/coin2.png","null","",NA,NA,NA,NA,""
"image-keyboard-response",551,460822,"0.0-3.180-0.180","ybhrqe06s2bqbz1",116,"115.csv","","223.10000014305115","resources/trios/L1T4A1.jpg","39","restless",0.4,0.6,0.7,0.04348446509413,"true"
"image-keyboard-response",552,461232,"0.0-3.180-1.180","ybhrqe06s2bqbz1",116,"115.csv","","null","resources/maskTrios/BBA1.jpg","null","",NA,NA,NA,NA,""
"image-keyboard-response",553,462442,"0.0-3.180-2.180","ybhrqe06s2bqbz1",116,"115.csv","","null","resources/images/coin2.png","null","",NA,NA,NA,NA,""
"image-keyboard-response",554,462873,"0.0-3.181-0.181","ybhrqe06s2bqbz1",116,"115.csv","","429.59999990463257","resources/trios/L1T2A1.jpg","39","restless",0.4,0.6,0.7,0.815874089908732,"false"
"image-keyboard-response",555,463282,"0.0-3.181-1.181","ybhrqe06s2bqbz1",116,"115.csv","","null","resources/maskTrios/BBA1.jpg","null","",NA,NA,NA,NA,""
"image-keyboard-response",556,464494,"0.0-3.181-2.181","ybhrqe06s2bqbz1",116,"115.csv","","null","resources/images/fishbone.png","null","",NA,NA,NA,NA,""
"image-keyboard-response",557,465819,"0.0-3.182-0.182","ybhrqe06s2bqbz1",116,"115.csv","","1324.2000000476837","resources/trios/L2T4A2.jpg","38","restless",0.4,0.6,0.7,0.134390739361446,"true"
"image-keyboard-response",558,466234,"0.0-3.182-1.182","ybhrqe06s2bqbz1",116,"115.csv","","null","resources/maskTrios/BT4B.jpg","null","",NA,NA,NA,NA,""
"image-keyboard-response",559,467449,"0.0-3.182-2.182","ybhrqe06s2bqbz1",116,"115.csv","","null","resources/images/coin2.png","null","",NA,NA,NA,NA,""
"image-keyboard-response",560,467817,"0.0-3.183-0.183","ybhrqe06s2bqbz1",116,"115.csv","","367.80000019073486","resources/trios/L1T2A1.jpg","38","restless",0.4,0.6,0.7,0.384233642118373,"true"
"image-keyboard-response",561,468238,"0.0-3.183-1.183","ybhrqe06s2bqbz1",116,"115.csv","","null","resources/maskTrios/BT2B.jpg","null","",NA,NA,NA,NA,""
"image-keyboard-response",562,469447,"0.0-3.183-2.183","ybhrqe06s2bqbz1",116,"115.csv","","null","resources/images/coin2.png","null","",NA,NA,NA,NA,""
"image-keyboard-response",563,469844,"0.0-3.184-0.184","ybhrqe06s2bqbz1",116,"115.csv","","395.10000014305115","resources/trios/L2T2A1.jpg","38","restless",0.4,0.6,0.7,0.752626074450522,"false"
"image-keyboard-response",564,470254,"0.0-3.184-1.184","ybhrqe06s2bqbz1",116,"115.csv","","null","resources/maskTrios/BT2B.jpg","null","",NA,NA,NA,NA,""
"image-keyboard-response",565,471469,"0.0-3.184-2.184","ybhrqe06s2bqbz1",116,"115.csv","","null","resources/images/fishbone.png","null","",NA,NA,NA,NA,""
"image-keyboard-response",566,471817,"0.0-3.185-0.185","ybhrqe06s2bqbz1",116,"115.csv","","346.2999999523163","resources/trios/L1T2A1.jpg","37","restless",0.4,0.6,0.6,0.624362160546273,"false"
"image-keyboard-response",567,472241,"0.0-3.185-1.185","ybhrqe06s2bqbz1",116,"115.csv","","null","resources/maskTrios/L1BB.jpg","null","",NA,NA,NA,NA,""
"image-keyboard-response",568,473458,"0.0-3.185-2.185","ybhrqe06s2bqbz1",116,"115.csv","","null","resources/images/fishbone.png","null","",NA,NA,NA,NA,""
"image-keyboard-response",569,473698,"0.0-3.186-0.186","ybhrqe06s2bqbz1",116,"115.csv","","239.59999990463257","resources/trios/L1T2A1.jpg","39","restless",0.4,0.6,0.6,0.964085735974469,"false"
"image-keyboard-response",570,474110,"0.0-3.186-1.186","ybhrqe06s2bqbz1",116,"115.csv","","null","resources/maskTrios/BBA1.jpg","null","",NA,NA,NA,NA,""
"image-keyboard-response",571,475324,"0.0-3.186-2.186","ybhrqe06s2bqbz1",116,"115.csv","","null","resources/images/fishbone.png","null","",NA,NA,NA,NA,""
"image-keyboard-response",572,475706,"0.0-3.187-0.187","ybhrqe06s2bqbz1",116,"115.csv","","381.2999999523163","resources/trios/L2T2A2.jpg","38","restless",0.5,0.6,0.6,0.369895477573094,"true"
"image-keyboard-response",573,476118,"0.0-3.187-1.187","ybhrqe06s2bqbz1",116,"115.csv","","null","resources/maskTrios/BT2B.jpg","null","",NA,NA,NA,NA,""
"image-keyboard-response",574,477331,"0.0-3.187-2.187","ybhrqe06s2bqbz1",116,"115.csv","","null","resources/images/coin2.png","null","",NA,NA,NA,NA,""
"image-keyboard-response",575,477636,"0.0-3.188-0.188","ybhrqe06s2bqbz1",116,"115.csv","","303.90000009536743","resources/trios/L1T4A1.jpg","38","restless",0.5,0.5,0.6,0.459158461012479,"true"
"image-keyboard-response",576,478044,"0.0-3.188-1.188","ybhrqe06s2bqbz1",116,"115.csv","","null","resources/maskTrios/BT4B.jpg","null","",NA,NA,NA,NA,""
"image-keyboard-response",577,479257,"0.0-3.188-2.188","ybhrqe06s2bqbz1",116,"115.csv","","null","resources/images/coin2.png","null","",NA,NA,NA,NA,""
"image-keyboard-response",578,479638,"0.0-3.189-0.189","ybhrqe06s2bqbz1",116,"115.csv","","380.2999999523163","resources/trios/L1T2A2.jpg","38","restless",0.5,0.5,0.6,0.0839040765959636,"true"
"image-keyboard-response",579,480055,"0.0-3.189-1.189","ybhrqe06s2bqbz1",116,"115.csv","","null","resources/maskTrios/BT2B.jpg","null","",NA,NA,NA,NA,""
"image-keyboard-response",580,481271,"0.0-3.189-2.189","ybhrqe06s2bqbz1",116,"115.csv","","null","resources/images/coin2.png","null","",NA,NA,NA,NA,""
"image-keyboard-response",581,481626,"0.0-3.190-0.190","ybhrqe06s2bqbz1",116,"115.csv","","353.09999990463257","resources/trios/L2T2A1.jpg","38","restless",0.5,0.5,0.6,0.657201888100599,"false"
"image-keyboard-response",582,482035,"0.0-3.190-1.190","ybhrqe06s2bqbz1",116,"115.csv","","null","resources/maskTrios/BT2B.jpg","null","",NA,NA,NA,NA,""
"image-keyboard-response",583,483250,"0.0-3.190-2.190","ybhrqe06s2bqbz1",116,"115.csv","","null","resources/images/fishbone.png","null","",NA,NA,NA,NA,""
"image-keyboard-response",584,483551,"0.0-3.191-0.191","ybhrqe06s2bqbz1",116,"115.csv","","299.5","resources/trios/L1T4A1.jpg","37","restless",0.5,0.5,0.6,0.600925727074319,"false"
"image-keyboard-response",585,483962,"0.0-3.191-1.191","ybhrqe06s2bqbz1",116,"115.csv","","null","resources/maskTrios/L1BB.jpg","null","",NA,NA,NA,NA,""
"image-keyboard-response",586,485174,"0.0-3.191-2.191","ybhrqe06s2bqbz1",116,"115.csv","","null","resources/images/fishbone.png","null","",NA,NA,NA,NA,""
"image-keyboard-response",587,485448,"0.0-3.192-0.192","ybhrqe06s2bqbz1",116,"115.csv","","273","resources/trios/L2T2A2.jpg","39","restless",0.5,0.5,0.6,0.467204625247441,"true"
"image-keyboard-response",588,485858,"0.0-3.192-1.192","ybhrqe06s2bqbz1",116,"115.csv","","null","resources/maskTrios/BBA2.jpg","null","",NA,NA,NA,NA,""
"image-keyboard-response",589,487070,"0.0-3.192-2.192","ybhrqe06s2bqbz1",116,"115.csv","","null","resources/images/coin2.png","null","",NA,NA,NA,NA,""
"image-keyboard-response",590,487356,"0.0-3.193-0.193","ybhrqe06s2bqbz1",116,"115.csv","","285.39999985694885","resources/trios/L1T4A1.jpg","39","restless",0.5,0.5,0.6,0.493854818522192,"true"
"image-keyboard-response",591,487773,"0.0-3.193-1.193","ybhrqe06s2bqbz1",116,"115.csv","","null","resources/maskTrios/BBA1.jpg","null","",NA,NA,NA,NA,""
"image-keyboard-response",592,488985,"0.0-3.193-2.193","ybhrqe06s2bqbz1",116,"115.csv","","null","resources/images/coin2.png","null","",NA,NA,NA,NA,""
"image-keyboard-response",593,489411,"0.0-3.194-0.194","ybhrqe06s2bqbz1",116,"115.csv","","425.2000000476837","resources/trios/L2T4A2.jpg","39","restless",0.5,0.5,0.6,0.428441854643909,"true"
"image-keyboard-response",594,489823,"0.0-3.194-1.194","ybhrqe06s2bqbz1",116,"115.csv","","null","resources/maskTrios/BBA2.jpg","null","",NA,NA,NA,NA,""
"image-keyboard-response",595,491037,"0.0-3.194-2.194","ybhrqe06s2bqbz1",116,"115.csv","","null","resources/images/coin2.png","null","",NA,NA,NA,NA,""
"image-keyboard-response",596,491585,"0.0-3.195-0.195","ybhrqe06s2bqbz1",116,"115.csv","","546.2999999523163","resources/trios/L2T4A1.jpg","39","restless",0.5,0.5,0.6,0.842613374059307,"false"
"image-keyboard-response",597,492004,"0.0-3.195-1.195","ybhrqe06s2bqbz1",116,"115.csv","","null","resources/maskTrios/BBA1.jpg","null","",NA,NA,NA,NA,""
"image-keyboard-response",598,493212,"0.0-3.195-2.195","ybhrqe06s2bqbz1",116,"115.csv","","null","resources/images/fishbone.png","null","",NA,NA,NA,NA,""
"image-keyboard-response",599,493651,"0.0-3.196-0.196","ybhrqe06s2bqbz1",116,"115.csv","","437.60000014305115","resources/trios/L2T4A2.jpg","38","restless",0.5,0.5,0.7,0.0738672018245841,"true"
"image-keyboard-response",600,494066,"0.0-3.196-1.196","ybhrqe06s2bqbz1",116,"115.csv","","null","resources/maskTrios/BT4B.jpg","null","",NA,NA,NA,NA,""
"image-keyboard-response",601,495280,"0.0-3.196-2.196","ybhrqe06s2bqbz1",116,"115.csv","","null","resources/images/coin2.png","null","",NA,NA,NA,NA,""
"image-keyboard-response",602,495696,"0.0-3.197-0.197","ybhrqe06s2bqbz1",116,"115.csv","","414.2999999523163","resources/trios/L1T4A1.jpg","38","restless",0.5,0.5,0.7,0.869711362564357,"false"
"image-keyboard-response",603,496104,"0.0-3.197-1.197","ybhrqe06s2bqbz1",116,"115.csv","","null","resources/maskTrios/BT4B.jpg","null","",NA,NA,NA,NA,""
"image-keyboard-response",604,497319,"0.0-3.197-2.197","ybhrqe06s2bqbz1",116,"115.csv","","null","resources/images/fishbone.png","null","",NA,NA,NA,NA,""
"image-keyboard-response",605,497759,"0.0-3.198-0.198","ybhrqe06s2bqbz1",116,"115.csv","","439.19999980926514","resources/trios/L2T2A2.jpg","37","restless",0.5,0.5,0.7,0.209128081703944,"true"
