"trial_type","trial_index","time_elapsed","internal_node_id","subject","participantCode","walkNumber","success","rt","stimulus","key_press","test_part","leftProb","midProb","rightProb","generatedNum","correct"
"pavlovia",0,1245,"0.0-0.0","1jtlf5uls6rlhb6",404,"192.csv","","","","","",NA,NA,NA,NA,""
"fullscreen",1,5725,"0.0-1.0","1jtlf5uls6rlhb6",404,"192.csv","true","","","","",NA,NA,NA,NA,""
"html-keyboard-response",2,15911,"0.0-2.0-0.0","1jtlf5uls6rlhb6",404,"192.csv","","10184.60000000894","<p><font size='6'>Arrrgh!</p></font><p>Can you be the best pirate? Try to find lots of gold! But beware, some islands have more gold than others, and over time, the island with the most gold may change. Can YOU figure it out? </p><font size='6'>GOOD LUCK, CAPTAIN!!!</font><p>Press any key to begin</p>","89","",NA,NA,NA,NA,""
"image-keyboard-response",3,18919,"0.0-2.0-1.0","1jtlf5uls6rlhb6",404,"192.csv","","null","resources/image_sets/111.png","null","",NA,NA,NA,NA,""
"image-keyboard-response",4,20304,"0.0-2.0-2.0","1jtlf5uls6rlhb6",404,"192.csv","","1383","resources/image_sets/left_highlight.png","37","",NA,NA,NA,NA,""
"image-keyboard-response",5,21729,"0.0-2.0-3.0","1jtlf5uls6rlhb6",404,"192.csv","","1423","resources/image_sets/mid_highlight.png","38","",NA,NA,NA,NA,""
"image-keyboard-response",6,23723,"0.0-2.0-4.0","1jtlf5uls6rlhb6",404,"192.csv","","1991.6000000089407","resources/image_sets/right_highlight.png","39","",NA,NA,NA,NA,""
"image-keyboard-response",7,27614,"0.0-2.0-5.0","1jtlf5uls6rlhb6",404,"192.csv","","3890","resources/image_sets/111.png","13","",NA,NA,NA,NA,""
"image-keyboard-response",8,31181,"0.0-2.0-6.0","1jtlf5uls6rlhb6",404,"192.csv","","3564.5999999940395","resources/images/coin2.png","13","",NA,NA,NA,NA,""
"image-keyboard-response",9,33242,"0.0-2.0-7.0","1jtlf5uls6rlhb6",404,"192.csv","","2058.7999999970198","resources/images/fishbone.png","13","",NA,NA,NA,NA,""
"html-keyboard-response",10,46478,"0.0-2.0-8.0","1jtlf5uls6rlhb6",404,"192.csv","","13235.79999999702","<p>Your first journey will be a long one, but you will get a well deserved break at the end</p><p>After the break you will have four more journeys, but each will be much shorter than the first, and you will have breaks in between each</p><p>Press Enter to begin</p>","13","",NA,NA,NA,NA,""
"image-keyboard-response",11,52714,"0.0-3.0-0.0","1jtlf5uls6rlhb6",404,"192.csv","","6232.5","resources/trios/L2T4A3.jpg","38","restless",0.9,0.7,0.3,0.445410415392868,"true"
"image-keyboard-response",12,53119,"0.0-3.0-1.0","1jtlf5uls6rlhb6",404,"192.csv","","null","resources/maskTrios/BT4B.jpg","null","",NA,NA,NA,NA,""
"image-keyboard-response",13,54324,"0.0-3.0-2.0","1jtlf5uls6rlhb6",404,"192.csv","","null","resources/images/coin2.png","null","",NA,NA,NA,NA,""
"image-keyboard-response",14,60936,"0.0-3.1-0.1","1jtlf5uls6rlhb6",404,"192.csv","","6608.9000000059605","resources/trios/L1T2A2.jpg","37","restless",0.8,0.7,0.3,0.718887328364866,"true"
"image-keyboard-response",15,61340,"0.0-3.1-1.1","1jtlf5uls6rlhb6",404,"192.csv","","null","resources/maskTrios/L1BB.jpg","null","",NA,NA,NA,NA,""
"image-keyboard-response",16,62547,"0.0-3.1-2.1","1jtlf5uls6rlhb6",404,"192.csv","","null","resources/images/coin2.png","null","",NA,NA,NA,NA,""
"image-keyboard-response",17,65174,"0.0-3.2-0.2","1jtlf5uls6rlhb6",404,"192.csv","","2624.7000000029802","resources/trios/L2T2A2.jpg","37","restless",0.8,0.7,0.3,0.748405300455072,"true"
"image-keyboard-response",18,65582,"0.0-3.2-1.2","1jtlf5uls6rlhb6",404,"192.csv","","null","resources/maskTrios/L2BB.jpg","null","",NA,NA,NA,NA,""
"image-keyboard-response",19,66790,"0.0-3.2-2.2","1jtlf5uls6rlhb6",404,"192.csv","","null","resources/images/coin2.png","null","",NA,NA,NA,NA,""
"image-keyboard-response",20,68213,"0.0-3.3-0.3","1jtlf5uls6rlhb6",404,"192.csv","","1421.5","resources/trios/L2T4A3.jpg","38","restless",0.8,0.7,0.3,0.981524411000643,"false"
"image-keyboard-response",21,68621,"0.0-3.3-1.3","1jtlf5uls6rlhb6",404,"192.csv","","null","resources/maskTrios/BT4B.jpg","null","",NA,NA,NA,NA,""
"image-keyboard-response",22,69828,"0.0-3.3-2.3","1jtlf5uls6rlhb6",404,"192.csv","","null","resources/images/fishbone.png","null","",NA,NA,NA,NA,""
"image-keyboard-response",23,71636,"0.0-3.4-0.4","1jtlf5uls6rlhb6",404,"192.csv","","1805.5","resources/trios/L1T4A3.jpg","38","restless",0.8,0.7,0.2,0.237245504297904,"true"
"image-keyboard-response",24,72043,"0.0-3.4-1.4","1jtlf5uls6rlhb6",404,"192.csv","","null","resources/maskTrios/BT4B.jpg","null","",NA,NA,NA,NA,""
"image-keyboard-response",25,73250,"0.0-3.4-2.4","1jtlf5uls6rlhb6",404,"192.csv","","null","resources/images/coin2.png","null","",NA,NA,NA,NA,""
"image-keyboard-response",26,74983,"0.0-3.5-0.5","1jtlf5uls6rlhb6",404,"192.csv","","1730.2000000029802","resources/trios/L1T2A2.jpg","37","restless",0.8,0.7,0.2,0.879623403098119,"false"
"image-keyboard-response",27,75390,"0.0-3.5-1.5","1jtlf5uls6rlhb6",404,"192.csv","","null","resources/maskTrios/L1BB.jpg","null","",NA,NA,NA,NA,""
"image-keyboard-response",28,76595,"0.0-3.5-2.5","1jtlf5uls6rlhb6",404,"192.csv","","null","resources/images/fishbone.png","null","",NA,NA,NA,NA,""
"image-keyboard-response",29,77240,"0.0-3.6-0.6","1jtlf5uls6rlhb6",404,"192.csv","","642.9000000059605","resources/trios/L1T2A3.jpg","38","restless",0.8,0.7,0.2,0.184859256521627,"true"
"image-keyboard-response",30,77646,"0.0-3.6-1.6","1jtlf5uls6rlhb6",404,"192.csv","","null","resources/maskTrios/BT2B.jpg","null","",NA,NA,NA,NA,""
"image-keyboard-response",31,78853,"0.0-3.6-2.6","1jtlf5uls6rlhb6",404,"192.csv","","null","resources/images/coin2.png","null","",NA,NA,NA,NA,""
"image-keyboard-response",32,79843,"0.0-3.7-0.7","1jtlf5uls6rlhb6",404,"192.csv","","986.8999999910593","resources/trios/L1T2A2.jpg","38","restless",0.8,0.7,0.2,0.236599102906708,"true"
"image-keyboard-response",33,80250,"0.0-3.7-1.7","1jtlf5uls6rlhb6",404,"192.csv","","null","resources/maskTrios/BT2B.jpg","null","",NA,NA,NA,NA,""
"image-keyboard-response",34,81457,"0.0-3.7-2.7","1jtlf5uls6rlhb6",404,"192.csv","","null","resources/images/coin2.png","null","",NA,NA,NA,NA,""
"image-keyboard-response",35,82386,"0.0-3.8-0.8","1jtlf5uls6rlhb6",404,"192.csv","","926.3999999910593","resources/trios/L2T4A3.jpg","38","restless",0.8,0.7,0.2,0.204905493946559,"true"
"image-keyboard-response",36,82794,"0.0-3.8-1.8","1jtlf5uls6rlhb6",404,"192.csv","","null","resources/maskTrios/BT4B.jpg","null","",NA,NA,NA,NA,""
"image-keyboard-response",37,84001,"0.0-3.8-2.8","1jtlf5uls6rlhb6",404,"192.csv","","null","resources/images/coin2.png","null","",NA,NA,NA,NA,""
"image-keyboard-response",38,84672,"0.0-3.9-0.9","1jtlf5uls6rlhb6",404,"192.csv","","668.7999999970198","resources/trios/L1T4A3.jpg","38","restless",0.8,0.6,0.2,0.365322724926525,"true"
"image-keyboard-response",39,85080,"0.0-3.9-1.9","1jtlf5uls6rlhb6",404,"192.csv","","null","resources/maskTrios/BT4B.jpg","null","",NA,NA,NA,NA,""
"image-keyboard-response",40,86287,"0.0-3.9-2.9","1jtlf5uls6rlhb6",404,"192.csv","","null","resources/images/coin2.png","null","",NA,NA,NA,NA,""
"image-keyboard-response",41,87075,"0.0-3.10-0.10","1jtlf5uls6rlhb6",404,"192.csv","","785.5","resources/trios/L1T2A2.jpg","38","restless",0.8,0.6,0.2,0.307934066634028,"true"
"image-keyboard-response",42,87480,"0.0-3.10-1.10","1jtlf5uls6rlhb6",404,"192.csv","","null","resources/maskTrios/BT2B.jpg","null","",NA,NA,NA,NA,""
"image-keyboard-response",43,88684,"0.0-3.10-2.10","1jtlf5uls6rlhb6",404,"192.csv","","null","resources/images/coin2.png","null","",NA,NA,NA,NA,""
"image-keyboard-response",44,89578,"0.0-3.11-0.11","1jtlf5uls6rlhb6",404,"192.csv","","891.4000000059605","resources/trios/L2T2A2.jpg","38","restless",0.8,0.6,0.2,0.953884721567399,"false"
"image-keyboard-response",45,89985,"0.0-3.11-1.11","1jtlf5uls6rlhb6",404,"192.csv","","null","resources/maskTrios/BT2B.jpg","null","",NA,NA,NA,NA,""
"image-keyboard-response",46,91192,"0.0-3.11-2.11","1jtlf5uls6rlhb6",404,"192.csv","","null","resources/images/fishbone.png","null","",NA,NA,NA,NA,""
"image-keyboard-response",47,93114,"0.0-3.12-0.12","1jtlf5uls6rlhb6",404,"192.csv","","1920","resources/trios/L2T2A2.jpg","37","restless",0.7,0.6,0.2,0.436232949985234,"true"
"image-keyboard-response",48,93518,"0.0-3.12-1.12","1jtlf5uls6rlhb6",404,"192.csv","","null","resources/maskTrios/L2BB.jpg","null","",NA,NA,NA,NA,""
"image-keyboard-response",49,94726,"0.0-3.12-2.12","1jtlf5uls6rlhb6",404,"192.csv","","null","resources/images/coin2.png","null","",NA,NA,NA,NA,""
"image-keyboard-response",50,96101,"0.0-3.13-0.13","1jtlf5uls6rlhb6",404,"192.csv","","1373.3999999910593","resources/trios/L1T2A3.jpg","38","restless",0.6,0.6,0.2,0.188000357720002,"true"
"image-keyboard-response",51,96509,"0.0-3.13-1.13","1jtlf5uls6rlhb6",404,"192.csv","","null","resources/maskTrios/BT2B.jpg","null","",NA,NA,NA,NA,""
"image-keyboard-response",52,97716,"0.0-3.13-2.13","1jtlf5uls6rlhb6",404,"192.csv","","null","resources/images/coin2.png","null","",NA,NA,NA,NA,""
"image-keyboard-response",53,99183,"0.0-3.14-0.14","1jtlf5uls6rlhb6",404,"192.csv","","1465.199999988079","resources/trios/L2T2A2.jpg","37","restless",0.6,0.6,0.2,0.789269372728199,"false"
"image-keyboard-response",54,99588,"0.0-3.14-1.14","1jtlf5uls6rlhb6",404,"192.csv","","null","resources/maskTrios/L2BB.jpg","null","",NA,NA,NA,NA,""
"image-keyboard-response",55,100794,"0.0-3.14-2.14","1jtlf5uls6rlhb6",404,"192.csv","","null","resources/images/fishbone.png","null","",NA,NA,NA,NA,""
"image-keyboard-response",56,101476,"0.0-3.15-0.15","1jtlf5uls6rlhb6",404,"192.csv","","678.9000000059605","resources/trios/L1T4A3.jpg","38","restless",0.6,0.5,0.2,0.206235251366799,"true"
"image-keyboard-response",57,101883,"0.0-3.15-1.15","1jtlf5uls6rlhb6",404,"192.csv","","null","resources/maskTrios/BT4B.jpg","null","",NA,NA,NA,NA,""
"image-keyboard-response",58,103089,"0.0-3.15-2.15","1jtlf5uls6rlhb6",404,"192.csv","","null","resources/images/coin2.png","null","",NA,NA,NA,NA,""
"image-keyboard-response",59,103616,"0.0-3.16-0.16","1jtlf5uls6rlhb6",404,"192.csv","","524.5","resources/trios/L2T4A3.jpg","38","restless",0.7,0.5,0.2,0.563642201219693,"false"
"image-keyboard-response",60,104023,"0.0-3.16-1.16","1jtlf5uls6rlhb6",404,"192.csv","","null","resources/maskTrios/BT4B.jpg","null","",NA,NA,NA,NA,""
"image-keyboard-response",61,105225,"0.0-3.16-2.16","1jtlf5uls6rlhb6",404,"192.csv","","null","resources/images/fishbone.png","null","",NA,NA,NA,NA,""
"image-keyboard-response",62,106636,"0.0-3.17-0.17","1jtlf5uls6rlhb6",404,"192.csv","","1408.7999999970198","resources/trios/L1T4A3.jpg","38","restless",0.7,0.5,0.2,0.320685208510641,"true"
"image-keyboard-response",63,107040,"0.0-3.17-1.17","1jtlf5uls6rlhb6",404,"192.csv","","null","resources/maskTrios/BT4B.jpg","null","",NA,NA,NA,NA,""
"image-keyboard-response",64,108243,"0.0-3.17-2.17","1jtlf5uls6rlhb6",404,"192.csv","","null","resources/images/coin2.png","null","",NA,NA,NA,NA,""
"image-keyboard-response",65,109960,"0.0-3.18-0.18","1jtlf5uls6rlhb6",404,"192.csv","","1714.9000000059605","resources/trios/L2T2A2.jpg","38","restless",0.7,0.5,0.2,0.25150414064228,"true"
"image-keyboard-response",66,110368,"0.0-3.18-1.18","1jtlf5uls6rlhb6",404,"192.csv","","null","resources/maskTrios/BT2B.jpg","null","",NA,NA,NA,NA,""
"image-keyboard-response",67,111575,"0.0-3.18-2.18","1jtlf5uls6rlhb6",404,"192.csv","","null","resources/images/coin2.png","null","",NA,NA,NA,NA,""
"image-keyboard-response",68,114449,"0.0-3.19-0.19","1jtlf5uls6rlhb6",404,"192.csv","","2872.5","resources/trios/L1T2A3.jpg","38","restless",0.7,0.5,0.2,0.384836936643509,"true"
"image-keyboard-response",69,114856,"0.0-3.19-1.19","1jtlf5uls6rlhb6",404,"192.csv","","null","resources/maskTrios/BT2B.jpg","null","",NA,NA,NA,NA,""
"image-keyboard-response",70,116063,"0.0-3.19-2.19","1jtlf5uls6rlhb6",404,"192.csv","","null","resources/images/coin2.png","null","",NA,NA,NA,NA,""
"image-keyboard-response",71,117348,"0.0-3.20-0.20","1jtlf5uls6rlhb6",404,"192.csv","","1282.7999999970198","resources/trios/L2T2A3.jpg","37","restless",0.7,0.5,0.2,0.31433775093459,"true"
"image-keyboard-response",72,117756,"0.0-3.20-1.20","1jtlf5uls6rlhb6",404,"192.csv","","null","resources/maskTrios/L2BB.jpg","null","",NA,NA,NA,NA,""
"image-keyboard-response",73,118961,"0.0-3.20-2.20","1jtlf5uls6rlhb6",404,"192.csv","","null","resources/images/coin2.png","null","",NA,NA,NA,NA,""
"image-keyboard-response",74,120173,"0.0-3.21-0.21","1jtlf5uls6rlhb6",404,"192.csv","","1209.300000011921","resources/trios/L1T4A3.jpg","38","restless",0.7,0.5,0.2,0.230756186324448,"true"
"image-keyboard-response",75,120581,"0.0-3.21-1.21","1jtlf5uls6rlhb6",404,"192.csv","","null","resources/maskTrios/BT4B.jpg","null","",NA,NA,NA,NA,""
"image-keyboard-response",76,121788,"0.0-3.21-2.21","1jtlf5uls6rlhb6",404,"192.csv","","null","resources/images/coin2.png","null","",NA,NA,NA,NA,""
"image-keyboard-response",77,123131,"0.0-3.22-0.22","1jtlf5uls6rlhb6",404,"192.csv","","1341.2999999970198","resources/trios/L2T2A3.jpg","38","restless",0.7,0.5,0.2,0.81126098971676,"false"
"image-keyboard-response",78,123539,"0.0-3.22-1.22","1jtlf5uls6rlhb6",404,"192.csv","","null","resources/maskTrios/BT2B.jpg","null","",NA,NA,NA,NA,""
"image-keyboard-response",79,124746,"0.0-3.22-2.22","1jtlf5uls6rlhb6",404,"192.csv","","null","resources/images/fishbone.png","null","",NA,NA,NA,NA,""
"image-keyboard-response",80,126783,"0.0-3.23-0.23","1jtlf5uls6rlhb6",404,"192.csv","","2034.6000000089407","resources/trios/L1T4A2.jpg","38","restless",0.7,0.5,0.2,0.0192231805865037,"true"
"image-keyboard-response",81,127190,"0.0-3.23-1.23","1jtlf5uls6rlhb6",404,"192.csv","","null","resources/maskTrios/BT4B.jpg","null","",NA,NA,NA,NA,""
"image-keyboard-response",82,128398,"0.0-3.23-2.23","1jtlf5uls6rlhb6",404,"192.csv","","null","resources/images/coin2.png","null","",NA,NA,NA,NA,""
"image-keyboard-response",83,134183,"0.0-3.24-0.24","1jtlf5uls6rlhb6",404,"192.csv","","5782.9000000059605","resources/trios/L1T2A3.jpg","37","restless",0.7,0.5,0.2,0.939128875331973,"false"
"image-keyboard-response",84,134590,"0.0-3.24-1.24","1jtlf5uls6rlhb6",404,"192.csv","","null","resources/maskTrios/L1BB.jpg","null","",NA,NA,NA,NA,""
"image-keyboard-response",85,135797,"0.0-3.24-2.24","1jtlf5uls6rlhb6",404,"192.csv","","null","resources/images/fishbone.png","null","",NA,NA,NA,NA,""
"image-keyboard-response",86,137368,"0.0-3.25-0.25","1jtlf5uls6rlhb6",404,"192.csv","","1568.0999999940395","resources/trios/L1T4A3.jpg","38","restless",0.6,0.5,0.2,0.352130881493058,"true"
"image-keyboard-response",87,137774,"0.0-3.25-1.25","1jtlf5uls6rlhb6",404,"192.csv","","null","resources/maskTrios/BT4B.jpg","null","",NA,NA,NA,NA,""
"image-keyboard-response",88,138981,"0.0-3.25-2.25","1jtlf5uls6rlhb6",404,"192.csv","","null","resources/images/coin2.png","null","",NA,NA,NA,NA,""
"image-keyboard-response",89,140178,"0.0-3.26-0.26","1jtlf5uls6rlhb6",404,"192.csv","","1194.2999999970198","resources/trios/L1T2A2.jpg","38","restless",0.7,0.5,0.2,0.0530869295588381,"true"
"image-keyboard-response",90,140585,"0.0-3.26-1.26","1jtlf5uls6rlhb6",404,"192.csv","","null","resources/maskTrios/BT2B.jpg","null","",NA,NA,NA,NA,""
"image-keyboard-response",91,141792,"0.0-3.26-2.26","1jtlf5uls6rlhb6",404,"192.csv","","null","resources/images/coin2.png","null","",NA,NA,NA,NA,""
"image-keyboard-response",92,142336,"0.0-3.27-0.27","1jtlf5uls6rlhb6",404,"192.csv","","541.8999999910593","resources/trios/L1T4A3.jpg","38","restless",0.7,0.5,0.2,0.645399808813412,"false"
"image-keyboard-response",93,142744,"0.0-3.27-1.27","1jtlf5uls6rlhb6",404,"192.csv","","null","resources/maskTrios/BT4B.jpg","null","",NA,NA,NA,NA,""
"image-keyboard-response",94,143951,"0.0-3.27-2.27","1jtlf5uls6rlhb6",404,"192.csv","","null","resources/images/fishbone.png","null","",NA,NA,NA,NA,""
"image-keyboard-response",95,144699,"0.0-3.28-0.28","1jtlf5uls6rlhb6",404,"192.csv","","746","resources/trios/L2T4A3.jpg","38","restless",0.7,0.5,0.2,0.256195572503717,"true"
"image-keyboard-response",96,145102,"0.0-3.28-1.28","1jtlf5uls6rlhb6",404,"192.csv","","null","resources/maskTrios/BT4B.jpg","null","",NA,NA,NA,NA,""
"image-keyboard-response",97,146310,"0.0-3.28-2.28","1jtlf5uls6rlhb6",404,"192.csv","","null","resources/images/coin2.png","null","",NA,NA,NA,NA,""
"image-keyboard-response",98,148130,"0.0-3.29-0.29","1jtlf5uls6rlhb6",404,"192.csv","","1818.4000000059605","resources/trios/L2T2A3.jpg","37","restless",0.7,0.5,0.2,0.802005292308051,"false"
"image-keyboard-response",99,148538,"0.0-3.29-1.29","1jtlf5uls6rlhb6",404,"192.csv","","null","resources/maskTrios/L2BB.jpg","null","",NA,NA,NA,NA,""
"image-keyboard-response",100,149743,"0.0-3.29-2.29","1jtlf5uls6rlhb6",404,"192.csv","","null","resources/images/fishbone.png","null","",NA,NA,NA,NA,""
"image-keyboard-response",101,150364,"0.0-3.30-0.30","1jtlf5uls6rlhb6",404,"192.csv","","618.2000000029802","resources/trios/L2T2A3.jpg","38","restless",0.6,0.5,0.2,0.472519659433099,"true"
"image-keyboard-response",102,150771,"0.0-3.30-1.30","1jtlf5uls6rlhb6",404,"192.csv","","null","resources/maskTrios/BT2B.jpg","null","",NA,NA,NA,NA,""
"image-keyboard-response",103,151977,"0.0-3.30-2.30","1jtlf5uls6rlhb6",404,"192.csv","","null","resources/images/coin2.png","null","",NA,NA,NA,NA,""
"image-keyboard-response",104,152505,"0.0-3.31-0.31","1jtlf5uls6rlhb6",404,"192.csv","","526","resources/trios/L2T4A2.jpg","38","restless",0.5,0.5,0.3,0.305547806858496,"true"
"image-keyboard-response",105,152910,"0.0-3.31-1.31","1jtlf5uls6rlhb6",404,"192.csv","","null","resources/maskTrios/BT4B.jpg","null","",NA,NA,NA,NA,""
"image-keyboard-response",106,154117,"0.0-3.31-2.31","1jtlf5uls6rlhb6",404,"192.csv","","null","resources/images/coin2.png","null","",NA,NA,NA,NA,""
"image-keyboard-response",107,156604,"0.0-3.32-0.32","1jtlf5uls6rlhb6",404,"192.csv","","2485.0999999940395","resources/trios/L2T4A2.jpg","38","restless",0.5,0.4,0.3,0.505456585698167,"false"
"image-keyboard-response",108,157012,"0.0-3.32-1.32","1jtlf5uls6rlhb6",404,"192.csv","","null","resources/maskTrios/BT4B.jpg","null","",NA,NA,NA,NA,""
"image-keyboard-response",109,158219,"0.0-3.32-2.32","1jtlf5uls6rlhb6",404,"192.csv","","null","resources/images/fishbone.png","null","",NA,NA,NA,NA,""
"image-keyboard-response",110,159703,"0.0-3.33-0.33","1jtlf5uls6rlhb6",404,"192.csv","","1482.7000000029802","resources/trios/L2T4A2.jpg","37","restless",0.5,0.4,0.3,0.660486314667226,"false"
"image-keyboard-response",111,160110,"0.0-3.33-1.33","1jtlf5uls6rlhb6",404,"192.csv","","null","resources/maskTrios/L2BB.jpg","null","",NA,NA,NA,NA,""
"image-keyboard-response",112,161317,"0.0-3.33-2.33","1jtlf5uls6rlhb6",404,"192.csv","","null","resources/images/fishbone.png","null","",NA,NA,NA,NA,""
"image-keyboard-response",113,163797,"0.0-3.34-0.34","1jtlf5uls6rlhb6",404,"192.csv","","2478.2999999970198","resources/trios/L1T2A3.jpg","38","restless",0.4,0.4,0.3,0.141496847975628,"true"
"image-keyboard-response",114,164203,"0.0-3.34-1.34","1jtlf5uls6rlhb6",404,"192.csv","","null","resources/maskTrios/BT2B.jpg","null","",NA,NA,NA,NA,""
"image-keyboard-response",115,165410,"0.0-3.34-2.34","1jtlf5uls6rlhb6",404,"192.csv","","null","resources/images/coin2.png","null","",NA,NA,NA,NA,""
"image-keyboard-response",116,167373,"0.0-3.35-0.35","1jtlf5uls6rlhb6",404,"192.csv","","1960.2999999970198","resources/trios/L2T4A2.jpg","37","restless",0.4,0.4,0.3,0.684635092275436,"false"
"image-keyboard-response",117,167776,"0.0-3.35-1.35","1jtlf5uls6rlhb6",404,"192.csv","","null","resources/maskTrios/L2BB.jpg","null","",NA,NA,NA,NA,""
"image-keyboard-response",118,168982,"0.0-3.35-2.35","1jtlf5uls6rlhb6",404,"192.csv","","null","resources/images/fishbone.png","null","",NA,NA,NA,NA,""
"image-keyboard-response",119,169671,"0.0-3.36-0.36","1jtlf5uls6rlhb6",404,"192.csv","","686.1000000089407","resources/trios/L2T4A2.jpg","38","restless",0.4,0.4,0.3,0.0858337088392667,"true"
"image-keyboard-response",120,170078,"0.0-3.36-1.36","1jtlf5uls6rlhb6",404,"192.csv","","null","resources/maskTrios/BT4B.jpg","null","",NA,NA,NA,NA,""
"image-keyboard-response",121,171280,"0.0-3.36-2.36","1jtlf5uls6rlhb6",404,"192.csv","","null","resources/images/coin2.png","null","",NA,NA,NA,NA,""
"image-keyboard-response",122,173587,"0.0-3.37-0.37","1jtlf5uls6rlhb6",404,"192.csv","","2305.0999999940395","resources/trios/L2T2A3.jpg","38","restless",0.4,0.4,0.2,0.207102024322615,"true"
"image-keyboard-response",123,173995,"0.0-3.37-1.37","1jtlf5uls6rlhb6",404,"192.csv","","null","resources/maskTrios/BT2B.jpg","null","",NA,NA,NA,NA,""
"image-keyboard-response",124,175201,"0.0-3.37-2.37","1jtlf5uls6rlhb6",404,"192.csv","","null","resources/images/coin2.png","null","",NA,NA,NA,NA,""
"image-keyboard-response",125,176684,"0.0-3.38-0.38","1jtlf5uls6rlhb6",404,"192.csv","","1481.199999988079","resources/trios/L1T4A3.jpg","38","restless",0.4,0.4,0.2,0.627504568412594,"false"
"image-keyboard-response",126,177091,"0.0-3.38-1.38","1jtlf5uls6rlhb6",404,"192.csv","","null","resources/maskTrios/BT4B.jpg","null","",NA,NA,NA,NA,""
"image-keyboard-response",127,178298,"0.0-3.38-2.38","1jtlf5uls6rlhb6",404,"192.csv","","null","resources/images/fishbone.png","null","",NA,NA,NA,NA,""
"image-keyboard-response",128,180410,"0.0-3.39-0.39","1jtlf5uls6rlhb6",404,"192.csv","","2110.5","resources/trios/L1T4A2.jpg","38","restless",0.4,0.4,0.2,0.385466413944547,"true"
"image-keyboard-response",129,180818,"0.0-3.39-1.39","1jtlf5uls6rlhb6",404,"192.csv","","null","resources/maskTrios/BT4B.jpg","null","",NA,NA,NA,NA,""
"image-keyboard-response",130,182023,"0.0-3.39-2.39","1jtlf5uls6rlhb6",404,"192.csv","","null","resources/images/coin2.png","null","",NA,NA,NA,NA,""
"image-keyboard-response",131,183486,"0.0-3.40-0.40","1jtlf5uls6rlhb6",404,"192.csv","","1460.5999999940395","resources/trios/L1T2A2.jpg","38","restless",0.4,0.4,0.2,0.215063143771276,"true"
"image-keyboard-response",132,183893,"0.0-3.40-1.40","1jtlf5uls6rlhb6",404,"192.csv","","null","resources/maskTrios/BT2B.jpg","null","",NA,NA,NA,NA,""
"image-keyboard-response",133,185101,"0.0-3.40-2.40","1jtlf5uls6rlhb6",404,"192.csv","","null","resources/images/coin2.png","null","",NA,NA,NA,NA,""
"image-keyboard-response",134,185844,"0.0-3.41-0.41","1jtlf5uls6rlhb6",404,"192.csv","","740.5999999940395","resources/trios/L1T4A3.jpg","39","restless",0.4,0.4,0.2,0.16204099068455,"true"
"image-keyboard-response",135,186251,"0.0-3.41-1.41","1jtlf5uls6rlhb6",404,"192.csv","","null","resources/maskTrios/BBA3.jpg","null","",NA,NA,NA,NA,""
"image-keyboard-response",136,187459,"0.0-3.41-2.41","1jtlf5uls6rlhb6",404,"192.csv","","null","resources/images/coin2.png","null","",NA,NA,NA,NA,""
"image-keyboard-response",137,188108,"0.0-3.42-0.42","1jtlf5uls6rlhb6",404,"192.csv","","647.2999999970198","resources/trios/L1T2A2.jpg","38","restless",0.4,0.4,0.2,0.824473722524834,"false"
"image-keyboard-response",138,188511,"0.0-3.42-1.42","1jtlf5uls6rlhb6",404,"192.csv","","null","resources/maskTrios/BT2B.jpg","null","",NA,NA,NA,NA,""
"image-keyboard-response",139,189718,"0.0-3.42-2.42","1jtlf5uls6rlhb6",404,"192.csv","","null","resources/images/fishbone.png","null","",NA,NA,NA,NA,""
"image-keyboard-response",140,191017,"0.0-3.43-0.43","1jtlf5uls6rlhb6",404,"192.csv","","1296.7999999970198","resources/trios/L2T2A2.jpg","38","restless",0.4,0.4,0.2,0.238825473918942,"true"
"image-keyboard-response",141,191424,"0.0-3.43-1.43","1jtlf5uls6rlhb6",404,"192.csv","","null","resources/maskTrios/BT2B.jpg","null","",NA,NA,NA,NA,""
"image-keyboard-response",142,192628,"0.0-3.43-2.43","1jtlf5uls6rlhb6",404,"192.csv","","null","resources/images/coin2.png","null","",NA,NA,NA,NA,""
"image-keyboard-response",143,195486,"0.0-3.44-0.44","1jtlf5uls6rlhb6",404,"192.csv","","2857.6000000089407","resources/trios/L2T2A2.jpg","38","restless",0.4,0.4,0.1,0.531781319168825,"false"
"image-keyboard-response",144,195894,"0.0-3.44-1.44","1jtlf5uls6rlhb6",404,"192.csv","","null","resources/maskTrios/BT2B.jpg","null","",NA,NA,NA,NA,""
"image-keyboard-response",145,197100,"0.0-3.44-2.44","1jtlf5uls6rlhb6",404,"192.csv","","null","resources/images/fishbone.png","null","",NA,NA,NA,NA,""
"image-keyboard-response",146,198514,"0.0-3.45-0.45","1jtlf5uls6rlhb6",404,"192.csv","","1412.3999999910593","resources/trios/L2T2A2.jpg","37","restless",0.4,0.4,0.2,0.0394245667763924,"true"
"image-keyboard-response",147,198921,"0.0-3.45-1.45","1jtlf5uls6rlhb6",404,"192.csv","","null","resources/maskTrios/L2BB.jpg","null","",NA,NA,NA,NA,""
"image-keyboard-response",148,200125,"0.0-3.45-2.45","1jtlf5uls6rlhb6",404,"192.csv","","null","resources/images/coin2.png","null","",NA,NA,NA,NA,""
"image-keyboard-response",149,202270,"0.0-3.46-0.46","1jtlf5uls6rlhb6",404,"192.csv","","2143.3999999910593","resources/trios/L1T4A2.jpg","38","restless",0.4,0.4,0.2,0.129565157492133,"true"
"image-keyboard-response",150,202678,"0.0-3.46-1.46","1jtlf5uls6rlhb6",404,"192.csv","","null","resources/maskTrios/BT4B.jpg","null","",NA,NA,NA,NA,""
"image-keyboard-response",151,203880,"0.0-3.46-2.46","1jtlf5uls6rlhb6",404,"192.csv","","null","resources/images/coin2.png","null","",NA,NA,NA,NA,""
"image-keyboard-response",152,204979,"0.0-3.47-0.47","1jtlf5uls6rlhb6",404,"192.csv","","1097","resources/trios/L2T2A3.jpg","39","restless",0.3,0.4,0.2,0.810220288632428,"false"
"image-keyboard-response",153,205382,"0.0-3.47-1.47","1jtlf5uls6rlhb6",404,"192.csv","","null","resources/maskTrios/BBA3.jpg","null","",NA,NA,NA,NA,""
"image-keyboard-response",154,206589,"0.0-3.47-2.47","1jtlf5uls6rlhb6",404,"192.csv","","null","resources/images/fishbone.png","null","",NA,NA,NA,NA,""
"image-keyboard-response",155,208041,"0.0-3.48-0.48","1jtlf5uls6rlhb6",404,"192.csv","","1449.7999999970198","resources/trios/L2T4A3.jpg","39","restless",0.3,0.5,0.2,0.250204712486786,"false"
"image-keyboard-response",156,208448,"0.0-3.48-1.48","1jtlf5uls6rlhb6",404,"192.csv","","null","resources/maskTrios/BBA3.jpg","null","",NA,NA,NA,NA,""
"image-keyboard-response",157,209651,"0.0-3.48-2.48","1jtlf5uls6rlhb6",404,"192.csv","","null","resources/images/fishbone.png","null","",NA,NA,NA,NA,""
"image-keyboard-response",158,211475,"0.0-3.49-0.49","1jtlf5uls6rlhb6",404,"192.csv","","1821.699999988079","resources/trios/L2T2A2.jpg","38","restless",0.2,0.5,0.2,0.316509330862368,"true"
"image-keyboard-response",159,211879,"0.0-3.49-1.49","1jtlf5uls6rlhb6",404,"192.csv","","null","resources/maskTrios/BT2B.jpg","null","",NA,NA,NA,NA,""
"image-keyboard-response",160,213086,"0.0-3.49-2.49","1jtlf5uls6rlhb6",404,"192.csv","","null","resources/images/coin2.png","null","",NA,NA,NA,NA,""
"image-keyboard-response",161,217566,"0.0-3.50-0.50","1jtlf5uls6rlhb6",404,"192.csv","","4477.5999999940395","resources/trios/L1T4A2.jpg","38","restless",0.2,0.5,0.2,0.205654036559241,"true"
"image-keyboard-response",162,217973,"0.0-3.50-1.50","1jtlf5uls6rlhb6",404,"192.csv","","null","resources/maskTrios/BT4B.jpg","null","",NA,NA,NA,NA,""
"image-keyboard-response",163,219181,"0.0-3.50-2.50","1jtlf5uls6rlhb6",404,"192.csv","","null","resources/images/coin2.png","null","",NA,NA,NA,NA,""
"image-keyboard-response",164,219786,"0.0-3.51-0.51","1jtlf5uls6rlhb6",404,"192.csv","","602.7000000029802","resources/trios/L2T2A2.jpg","38","restless",0.2,0.5,0.2,0.330757006909493,"true"
"image-keyboard-response",165,220194,"0.0-3.51-1.51","1jtlf5uls6rlhb6",404,"192.csv","","null","resources/maskTrios/BT2B.jpg","null","",NA,NA,NA,NA,""
"image-keyboard-response",166,221401,"0.0-3.51-2.51","1jtlf5uls6rlhb6",404,"192.csv","","null","resources/images/coin2.png","null","",NA,NA,NA,NA,""
"image-keyboard-response",167,221718,"0.0-3.52-0.52","1jtlf5uls6rlhb6",404,"192.csv","","315.20000000298023","resources/trios/L1T4A3.jpg","38","restless",0.2,0.5,0.2,0.709411407775504,"false"
"image-keyboard-response",168,222126,"0.0-3.52-1.52","1jtlf5uls6rlhb6",404,"192.csv","","null","resources/maskTrios/BT4B.jpg","null","",NA,NA,NA,NA,""
"image-keyboard-response",169,223333,"0.0-3.52-2.52","1jtlf5uls6rlhb6",404,"192.csv","","null","resources/images/fishbone.png","null","",NA,NA,NA,NA,""
"image-keyboard-response",170,224580,"0.0-3.53-0.53","1jtlf5uls6rlhb6",404,"192.csv","","1245","resources/trios/L2T2A2.jpg","37","restless",0.2,0.5,0.2,0.570608443386463,"false"
"image-keyboard-response",171,224987,"0.0-3.53-1.53","1jtlf5uls6rlhb6",404,"192.csv","","null","resources/maskTrios/L2BB.jpg","null","",NA,NA,NA,NA,""
"image-keyboard-response",172,226194,"0.0-3.53-2.53","1jtlf5uls6rlhb6",404,"192.csv","","null","resources/images/fishbone.png","null","",NA,NA,NA,NA,""
"image-keyboard-response",173,226552,"0.0-3.54-0.54","1jtlf5uls6rlhb6",404,"192.csv","","355.6000000089407","resources/trios/L2T4A3.jpg","38","restless",0.2,0.5,0.2,0.45919635861712,"true"
"image-keyboard-response",174,226960,"0.0-3.54-1.54","1jtlf5uls6rlhb6",404,"192.csv","","null","resources/maskTrios/BT4B.jpg","null","",NA,NA,NA,NA,""
"image-keyboard-response",175,228167,"0.0-3.54-2.54","1jtlf5uls6rlhb6",404,"192.csv","","null","resources/images/coin2.png","null","",NA,NA,NA,NA,""
"image-keyboard-response",176,228614,"0.0-3.55-0.55","1jtlf5uls6rlhb6",404,"192.csv","","444.59999999403954","resources/trios/L1T4A3.jpg","38","restless",0.2,0.5,0.2,0.59222754646604,"false"
"image-keyboard-response",177,229018,"0.0-3.55-1.55","1jtlf5uls6rlhb6",404,"192.csv","","null","resources/maskTrios/BT4B.jpg","null","",NA,NA,NA,NA,""
"image-keyboard-response",178,230225,"0.0-3.55-2.55","1jtlf5uls6rlhb6",404,"192.csv","","null","resources/images/fishbone.png","null","",NA,NA,NA,NA,""
"image-keyboard-response",179,230852,"0.0-3.56-0.56","1jtlf5uls6rlhb6",404,"192.csv","","624.5","resources/trios/L2T4A3.jpg","38","restless",0.2,0.5,0.2,0.887176833344416,"false"
"image-keyboard-response",180,231259,"0.0-3.56-1.56","1jtlf5uls6rlhb6",404,"192.csv","","null","resources/maskTrios/BT4B.jpg","null","",NA,NA,NA,NA,""
"image-keyboard-response",181,232466,"0.0-3.56-2.56","1jtlf5uls6rlhb6",404,"192.csv","","null","resources/images/fishbone.png","null","",NA,NA,NA,NA,""
"image-keyboard-response",182,232948,"0.0-3.57-0.57","1jtlf5uls6rlhb6",404,"192.csv","","479.40000000596046","resources/trios/L2T2A3.jpg","37","restless",0.2,0.5,0.2,0.173795142690417,"true"
"image-keyboard-response",183,233355,"0.0-3.57-1.57","1jtlf5uls6rlhb6",404,"192.csv","","null","resources/maskTrios/L2BB.jpg","null","",NA,NA,NA,NA,""
"image-keyboard-response",184,234562,"0.0-3.57-2.57","1jtlf5uls6rlhb6",404,"192.csv","","null","resources/images/coin2.png","null","",NA,NA,NA,NA,""
"image-keyboard-response",185,235204,"0.0-3.58-0.58","1jtlf5uls6rlhb6",404,"192.csv","","639.2999999970198","resources/trios/L2T2A3.jpg","37","restless",0.2,0.5,0.2,0.440114945552575,"false"
"image-keyboard-response",186,235610,"0.0-3.58-1.58","1jtlf5uls6rlhb6",404,"192.csv","","null","resources/maskTrios/L2BB.jpg","null","",NA,NA,NA,NA,""
"image-keyboard-response",187,236816,"0.0-3.58-2.58","1jtlf5uls6rlhb6",404,"192.csv","","null","resources/images/fishbone.png","null","",NA,NA,NA,NA,""
"image-keyboard-response",188,237389,"0.0-3.59-0.59","1jtlf5uls6rlhb6",404,"192.csv","","570.9000000059605","resources/trios/L2T4A3.jpg","38","restless",0.2,0.5,0.2,0.283393971473768,"true"
"image-keyboard-response",189,237796,"0.0-3.59-1.59","1jtlf5uls6rlhb6",404,"192.csv","","null","resources/maskTrios/BT4B.jpg","null","",NA,NA,NA,NA,""
"image-keyboard-response",190,239003,"0.0-3.59-2.59","1jtlf5uls6rlhb6",404,"192.csv","","null","resources/images/coin2.png","null","",NA,NA,NA,NA,""
"image-keyboard-response",191,240602,"0.0-3.60-0.60","1jtlf5uls6rlhb6",404,"192.csv","","1596.7000000029802","resources/trios/L2T2A3.jpg","37","restless",0.2,0.5,0.2,0.866829040078326,"false"
"image-keyboard-response",192,241009,"0.0-3.60-1.60","1jtlf5uls6rlhb6",404,"192.csv","","null","resources/maskTrios/L2BB.jpg","null","",NA,NA,NA,NA,""
"image-keyboard-response",193,242212,"0.0-3.60-2.60","1jtlf5uls6rlhb6",404,"192.csv","","null","resources/images/fishbone.png","null","",NA,NA,NA,NA,""
"image-keyboard-response",194,242733,"0.0-3.61-0.61","1jtlf5uls6rlhb6",404,"192.csv","","519.1999999880791","resources/trios/L2T2A3.jpg","38","restless",0.2,0.5,0.2,0.935791451693469,"false"
"image-keyboard-response",195,243140,"0.0-3.61-1.61","1jtlf5uls6rlhb6",404,"192.csv","","null","resources/maskTrios/BT2B.jpg","null","",NA,NA,NA,NA,""
"image-keyboard-response",196,244347,"0.0-3.61-2.61","1jtlf5uls6rlhb6",404,"192.csv","","null","resources/images/fishbone.png","null","",NA,NA,NA,NA,""
"image-keyboard-response",197,244680,"0.0-3.62-0.62","1jtlf5uls6rlhb6",404,"192.csv","","331.19999998807907","resources/trios/L1T2A3.jpg","39","restless",0.2,0.5,0.2,0.55533688290167,"false"
"image-keyboard-response",198,245083,"0.0-3.62-1.62","1jtlf5uls6rlhb6",404,"192.csv","","null","resources/maskTrios/BBA3.jpg","null","",NA,NA,NA,NA,""
"image-keyboard-response",199,246290,"0.0-3.62-2.62","1jtlf5uls6rlhb6",404,"192.csv","","null","resources/images/fishbone.png","null","",NA,NA,NA,NA,""
"image-keyboard-response",200,246536,"0.0-3.63-0.63","1jtlf5uls6rlhb6",404,"192.csv","","243.8999999910593","resources/trios/L1T2A2.jpg","38","restless",0.2,0.5,0.2,0.612689639810007,"false"
"image-keyboard-response",201,246944,"0.0-3.63-1.63","1jtlf5uls6rlhb6",404,"192.csv","","null","resources/maskTrios/BT2B.jpg","null","",NA,NA,NA,NA,""
"image-keyboard-response",202,248151,"0.0-3.63-2.63","1jtlf5uls6rlhb6",404,"192.csv","","null","resources/images/fishbone.png","null","",NA,NA,NA,NA,""
"image-keyboard-response",203,248414,"0.0-3.64-0.64","1jtlf5uls6rlhb6",404,"192.csv","","260.70000000298023","resources/trios/L1T2A2.jpg","38","restless",0.2,0.5,0.2,0.497150874575394,"true"
"image-keyboard-response",204,248818,"0.0-3.64-1.64","1jtlf5uls6rlhb6",404,"192.csv","","null","resources/maskTrios/BT2B.jpg","null","",NA,NA,NA,NA,""
"image-keyboard-response",205,250026,"0.0-3.64-2.64","1jtlf5uls6rlhb6",404,"192.csv","","null","resources/images/coin2.png","null","",NA,NA,NA,NA,""
"image-keyboard-response",206,250593,"0.0-3.65-0.65","1jtlf5uls6rlhb6",404,"192.csv","","565","resources/trios/L2T2A2.jpg","37","restless",0.2,0.5,0.2,0.423214636551668,"false"
"image-keyboard-response",207,251000,"0.0-3.65-1.65","1jtlf5uls6rlhb6",404,"192.csv","","null","resources/maskTrios/L2BB.jpg","null","",NA,NA,NA,NA,""
"image-keyboard-response",208,252207,"0.0-3.65-2.65","1jtlf5uls6rlhb6",404,"192.csv","","null","resources/images/fishbone.png","null","",NA,NA,NA,NA,""
"image-keyboard-response",209,252448,"0.0-3.66-0.66","1jtlf5uls6rlhb6",404,"192.csv","","238.20000000298023","resources/trios/L1T4A3.jpg","38","restless",0.2,0.5,0.2,0.748594225466516,"false"
"image-keyboard-response",210,252855,"0.0-3.66-1.66","1jtlf5uls6rlhb6",404,"192.csv","","null","resources/maskTrios/BT4B.jpg","null","",NA,NA,NA,NA,""
"image-keyboard-response",211,254061,"0.0-3.66-2.66","1jtlf5uls6rlhb6",404,"192.csv","","null","resources/images/fishbone.png","null","",NA,NA,NA,NA,""
"image-keyboard-response",212,254362,"0.0-3.67-0.67","1jtlf5uls6rlhb6",404,"192.csv","","298.40000000596046","resources/trios/L1T2A2.jpg","38","restless",0.2,0.5,0.2,0.812423619840108,"false"
"image-keyboard-response",213,254769,"0.0-3.67-1.67","1jtlf5uls6rlhb6",404,"192.csv","","null","resources/maskTrios/BT2B.jpg","null","",NA,NA,NA,NA,""
"image-keyboard-response",214,255975,"0.0-3.67-2.67","1jtlf5uls6rlhb6",404,"192.csv","","null","resources/images/fishbone.png","null","",NA,NA,NA,NA,""
"image-keyboard-response",215,258008,"0.0-3.68-0.68","1jtlf5uls6rlhb6",404,"192.csv","","2030.2999999970198","resources/trios/L2T2A2.jpg","37","restless",0.3,0.5,0.2,0.554200166668401,"false"
"image-keyboard-response",216,258413,"0.0-3.68-1.68","1jtlf5uls6rlhb6",404,"192.csv","","null","resources/maskTrios/L2BB.jpg","null","",NA,NA,NA,NA,""
"image-keyboard-response",217,259620,"0.0-3.68-2.68","1jtlf5uls6rlhb6",404,"192.csv","","null","resources/images/fishbone.png","null","",NA,NA,NA,NA,""
"image-keyboard-response",218,259790,"0.0-3.69-0.69","1jtlf5uls6rlhb6",404,"192.csv","","166.8999999910593","resources/trios/L2T2A2.jpg","39","restless",0.3,0.5,0.2,0.307263430077944,"false"
"image-keyboard-response",219,260197,"0.0-3.69-1.69","1jtlf5uls6rlhb6",404,"192.csv","","null","resources/maskTrios/BBA2.jpg","null","",NA,NA,NA,NA,""
"image-keyboard-response",220,261404,"0.0-3.69-2.69","1jtlf5uls6rlhb6",404,"192.csv","","null","resources/images/fishbone.png","null","",NA,NA,NA,NA,""
"image-keyboard-response",221,261801,"0.0-3.70-0.70","1jtlf5uls6rlhb6",404,"192.csv","","394.79999999701977","resources/trios/L2T4A3.jpg","38","restless",0.3,0.5,0.2,0.46722089916674,"true"
"image-keyboard-response",222,262209,"0.0-3.70-1.70","1jtlf5uls6rlhb6",404,"192.csv","","null","resources/maskTrios/BT4B.jpg","null","",NA,NA,NA,NA,""
"image-keyboard-response",223,263414,"0.0-3.70-2.70","1jtlf5uls6rlhb6",404,"192.csv","","null","resources/images/coin2.png","null","",NA,NA,NA,NA,""
"image-keyboard-response",224,264858,"0.0-3.71-0.71","1jtlf5uls6rlhb6",404,"192.csv","","1441.2000000029802","resources/trios/L2T4A3.jpg","38","restless",0.4,0.5,0.2,0.358672376438141,"true"
"image-keyboard-response",225,265265,"0.0-3.71-1.71","1jtlf5uls6rlhb6",404,"192.csv","","null","resources/maskTrios/BT4B.jpg","null","",NA,NA,NA,NA,""
"image-keyboard-response",226,266473,"0.0-3.71-2.71","1jtlf5uls6rlhb6",404,"192.csv","","null","resources/images/coin2.png","null","",NA,NA,NA,NA,""
"image-keyboard-response",227,268168,"0.0-3.72-0.72","1jtlf5uls6rlhb6",404,"192.csv","","1693.2000000029802","resources/trios/L2T2A2.jpg","38","restless",0.4,0.5,0.2,0.341690022298072,"true"
"image-keyboard-response",228,268576,"0.0-3.72-1.72","1jtlf5uls6rlhb6",404,"192.csv","","null","resources/maskTrios/BT2B.jpg","null","",NA,NA,NA,NA,""
"image-keyboard-response",229,269783,"0.0-3.72-2.72","1jtlf5uls6rlhb6",404,"192.csv","","null","resources/images/coin2.png","null","",NA,NA,NA,NA,""
"image-keyboard-response",230,271362,"0.0-3.73-0.73","1jtlf5uls6rlhb6",404,"192.csv","","1576.9000000059605","resources/trios/L2T4A2.jpg","38","restless",0.4,0.5,0.2,0.467290371899248,"true"
"image-keyboard-response",231,271770,"0.0-3.73-1.73","1jtlf5uls6rlhb6",404,"192.csv","","null","resources/maskTrios/BT4B.jpg","null","",NA,NA,NA,NA,""
"image-keyboard-response",232,272977,"0.0-3.73-2.73","1jtlf5uls6rlhb6",404,"192.csv","","null","resources/images/coin2.png","null","",NA,NA,NA,NA,""
"image-keyboard-response",233,275108,"0.0-3.74-0.74","1jtlf5uls6rlhb6",404,"192.csv","","2128.7000000029802","resources/trios/L2T2A2.jpg","37","restless",0.4,0.5,0.1,0.251231977610439,"true"
"image-keyboard-response",234,275516,"0.0-3.74-1.74","1jtlf5uls6rlhb6",404,"192.csv","","null","resources/maskTrios/L2BB.jpg","null","",NA,NA,NA,NA,""
"image-keyboard-response",235,276723,"0.0-3.74-2.74","1jtlf5uls6rlhb6",404,"192.csv","","null","resources/images/coin2.png","null","",NA,NA,NA,NA,""
"image-keyboard-response",236,277444,"0.0-3.75-0.75","1jtlf5uls6rlhb6",404,"192.csv","","719","resources/trios/L1T4A3.jpg","37","restless",0.4,0.5,0.1,0.540248465379981,"false"
"image-keyboard-response",237,277852,"0.0-3.75-1.75","1jtlf5uls6rlhb6",404,"192.csv","","null","resources/maskTrios/L1BB.jpg","null","",NA,NA,NA,NA,""
"image-keyboard-response",238,279058,"0.0-3.75-2.75","1jtlf5uls6rlhb6",404,"192.csv","","null","resources/images/fishbone.png","null","",NA,NA,NA,NA,""
"image-keyboard-response",239,279397,"0.0-3.76-0.76","1jtlf5uls6rlhb6",404,"192.csv","","336","resources/trios/L2T2A2.jpg","38","restless",0.3,0.5,0.1,0.781643500168568,"false"
"image-keyboard-response",240,279801,"0.0-3.76-1.76","1jtlf5uls6rlhb6",404,"192.csv","","null","resources/maskTrios/BT2B.jpg","null","",NA,NA,NA,NA,""
"image-keyboard-response",241,281008,"0.0-3.76-2.76","1jtlf5uls6rlhb6",404,"192.csv","","null","resources/images/fishbone.png","null","",NA,NA,NA,NA,""
"image-keyboard-response",242,281752,"0.0-3.77-0.77","1jtlf5uls6rlhb6",404,"192.csv","","741.7000000029802","resources/trios/L1T4A2.jpg","37","restless",0.3,0.5,0.1,0.300763240753247,"false"
"image-keyboard-response",243,282156,"0.0-3.77-1.77","1jtlf5uls6rlhb6",404,"192.csv","","null","resources/maskTrios/L1BB.jpg","null","",NA,NA,NA,NA,""
"image-keyboard-response",244,283363,"0.0-3.77-2.77","1jtlf5uls6rlhb6",404,"192.csv","","null","resources/images/fishbone.png","null","",NA,NA,NA,NA,""
"image-keyboard-response",245,283754,"0.0-3.78-0.78","1jtlf5uls6rlhb6",404,"192.csv","","388.80000001192093","resources/trios/L1T4A3.jpg","38","restless",0.3,0.5,0.1,0.161960032524329,"true"
"image-keyboard-response",246,284158,"0.0-3.78-1.78","1jtlf5uls6rlhb6",404,"192.csv","","null","resources/maskTrios/BT4B.jpg","null","",NA,NA,NA,NA,""
"image-keyboard-response",247,285366,"0.0-3.78-2.78","1jtlf5uls6rlhb6",404,"192.csv","","null","resources/images/coin2.png","null","",NA,NA,NA,NA,""
"image-keyboard-response",248,285711,"0.0-3.79-0.79","1jtlf5uls6rlhb6",404,"192.csv","","343","resources/trios/L1T4A3.jpg","38","restless",0.3,0.5,0.1,0.53949618053217,"false"
"image-keyboard-response",249,286118,"0.0-3.79-1.79","1jtlf5uls6rlhb6",404,"192.csv","","null","resources/maskTrios/BT4B.jpg","null","",NA,NA,NA,NA,""
"image-keyboard-response",250,287323,"0.0-3.79-2.79","1jtlf5uls6rlhb6",404,"192.csv","","null","resources/images/fishbone.png","null","",NA,NA,NA,NA,""
"image-keyboard-response",251,287894,"0.0-3.80-0.80","1jtlf5uls6rlhb6",404,"192.csv","","569.0999999940395","resources/trios/L2T2A3.jpg","39","restless",0.3,0.5,0.1,0.472984849215959,"false"
"image-keyboard-response",252,288302,"0.0-3.80-1.80","1jtlf5uls6rlhb6",404,"192.csv","","null","resources/maskTrios/BBA3.jpg","null","",NA,NA,NA,NA,""
"image-keyboard-response",253,289507,"0.0-3.80-2.80","1jtlf5uls6rlhb6",404,"192.csv","","null","resources/images/fishbone.png","null","",NA,NA,NA,NA,""
"image-keyboard-response",254,290499,"0.0-3.81-0.81","1jtlf5uls6rlhb6",404,"192.csv","","989.2000000029802","resources/trios/L1T2A3.jpg","37","restless",0.3,0.5,0.1,0.867975919807194,"false"
"image-keyboard-response",255,290907,"0.0-3.81-1.81","1jtlf5uls6rlhb6",404,"192.csv","","null","resources/maskTrios/L1BB.jpg","null","",NA,NA,NA,NA,""
"image-keyboard-response",256,292114,"0.0-3.81-2.81","1jtlf5uls6rlhb6",404,"192.csv","","null","resources/images/fishbone.png","null","",NA,NA,NA,NA,""
"image-keyboard-response",257,292633,"0.0-3.82-0.82","1jtlf5uls6rlhb6",404,"192.csv","","517.1999999880791","resources/trios/L1T2A2.jpg","38","restless",0.3,0.5,0.1,0.758378883383772,"false"
"image-keyboard-response",258,293040,"0.0-3.82-1.82","1jtlf5uls6rlhb6",404,"192.csv","","null","resources/maskTrios/BT2B.jpg","null","",NA,NA,NA,NA,""
"image-keyboard-response",259,294246,"0.0-3.82-2.82","1jtlf5uls6rlhb6",404,"192.csv","","null","resources/images/fishbone.png","null","",NA,NA,NA,NA,""
"image-keyboard-response",260,294525,"0.0-3.83-0.83","1jtlf5uls6rlhb6",404,"192.csv","","276.29999999701977","resources/trios/L2T4A3.jpg","38","restless",0.3,0.5,0.2,0.90841316214359,"false"
"image-keyboard-response",261,294932,"0.0-3.83-1.83","1jtlf5uls6rlhb6",404,"192.csv","","null","resources/maskTrios/BT4B.jpg","null","",NA,NA,NA,NA,""
"image-keyboard-response",262,296139,"0.0-3.83-2.83","1jtlf5uls6rlhb6",404,"192.csv","","null","resources/images/fishbone.png","null","",NA,NA,NA,NA,""
"image-keyboard-response",263,296415,"0.0-3.84-0.84","1jtlf5uls6rlhb6",404,"192.csv","","272.69999998807907","resources/trios/L2T2A2.jpg","38","restless",0.2,0.6,0.2,0.344204996189382,"true"
"image-keyboard-response",264,296822,"0.0-3.84-1.84","1jtlf5uls6rlhb6",404,"192.csv","","null","resources/maskTrios/BT2B.jpg","null","",NA,NA,NA,NA,""
"image-keyboard-response",265,298030,"0.0-3.84-2.84","1jtlf5uls6rlhb6",404,"192.csv","","null","resources/images/coin2.png","null","",NA,NA,NA,NA,""
"image-keyboard-response",266,298227,"0.0-3.85-0.85","1jtlf5uls6rlhb6",404,"192.csv","","195.1000000089407","resources/trios/L2T2A2.jpg","38","restless",0.2,0.6,0.2,0.160332658222522,"true"
"image-keyboard-response",267,298635,"0.0-3.85-1.85","1jtlf5uls6rlhb6",404,"192.csv","","null","resources/maskTrios/BT2B.jpg","null","",NA,NA,NA,NA,""
"image-keyboard-response",268,299842,"0.0-3.85-2.85","1jtlf5uls6rlhb6",404,"192.csv","","null","resources/images/coin2.png","null","",NA,NA,NA,NA,""
"image-keyboard-response",269,301509,"0.0-3.86-0.86","1jtlf5uls6rlhb6",404,"192.csv","","1664.2999999970198","resources/trios/L2T2A3.jpg","38","restless",0.2,0.6,0.2,0.815606526611365,"false"
"image-keyboard-response",270,301917,"0.0-3.86-1.86","1jtlf5uls6rlhb6",404,"192.csv","","null","resources/maskTrios/BT2B.jpg","null","",NA,NA,NA,NA,""
"image-keyboard-response",271,303123,"0.0-3.86-2.86","1jtlf5uls6rlhb6",404,"192.csv","","null","resources/images/fishbone.png","null","",NA,NA,NA,NA,""
"image-keyboard-response",272,304425,"0.0-3.87-0.87","1jtlf5uls6rlhb6",404,"192.csv","","1300","resources/trios/L2T4A3.jpg","38","restless",0.2,0.6,0.3,0.623471091222068,"false"
"image-keyboard-response",273,304831,"0.0-3.87-1.87","1jtlf5uls6rlhb6",404,"192.csv","","null","resources/maskTrios/BT4B.jpg","null","",NA,NA,NA,NA,""
"image-keyboard-response",274,306038,"0.0-3.87-2.87","1jtlf5uls6rlhb6",404,"192.csv","","null","resources/images/fishbone.png","null","",NA,NA,NA,NA,""
"image-keyboard-response",275,306762,"0.0-3.88-0.88","1jtlf5uls6rlhb6",404,"192.csv","","721.7999999970198","resources/trios/L1T2A2.jpg","37","restless",0.2,0.6,0.3,0.302620763635247,"false"
"image-keyboard-response",276,307168,"0.0-3.88-1.88","1jtlf5uls6rlhb6",404,"192.csv","","null","resources/maskTrios/L1BB.jpg","null","",NA,NA,NA,NA,""
"image-keyboard-response",277,308375,"0.0-3.88-2.88","1jtlf5uls6rlhb6",404,"192.csv","","null","resources/images/fishbone.png","null","",NA,NA,NA,NA,""
"image-keyboard-response",278,309154,"0.0-3.89-0.89","1jtlf5uls6rlhb6",404,"192.csv","","776.5","resources/trios/L2T2A2.jpg","37","restless",0.2,0.6,0.3,0.0189162453531688,"true"
"image-keyboard-response",279,309558,"0.0-3.89-1.89","1jtlf5uls6rlhb6",404,"192.csv","","null","resources/maskTrios/L2BB.jpg","null","",NA,NA,NA,NA,""
"image-keyboard-response",280,310766,"0.0-3.89-2.89","1jtlf5uls6rlhb6",404,"192.csv","","null","resources/images/coin2.png","null","",NA,NA,NA,NA,""
"image-keyboard-response",281,311609,"0.0-3.90-0.90","1jtlf5uls6rlhb6",404,"192.csv","","840.7000000029802","resources/trios/L2T2A3.jpg","37","restless",0.3,0.6,0.3,0.732199565969061,"false"
"image-keyboard-response",282,312017,"0.0-3.90-1.90","1jtlf5uls6rlhb6",404,"192.csv","","null","resources/maskTrios/L2BB.jpg","null","",NA,NA,NA,NA,""
"image-keyboard-response",283,313224,"0.0-3.90-2.90","1jtlf5uls6rlhb6",404,"192.csv","","null","resources/images/fishbone.png","null","",NA,NA,NA,NA,""
"image-keyboard-response",284,314103,"0.0-3.91-0.91","1jtlf5uls6rlhb6",404,"192.csv","","876.8000000119209","resources/trios/L1T4A3.jpg","38","restless",0.4,0.6,0.3,0.444609823961899,"true"
"image-keyboard-response",285,314507,"0.0-3.91-1.91","1jtlf5uls6rlhb6",404,"192.csv","","null","resources/maskTrios/BT4B.jpg","null","",NA,NA,NA,NA,""
"image-keyboard-response",286,315711,"0.0-3.91-2.91","1jtlf5uls6rlhb6",404,"192.csv","","null","resources/images/coin2.png","null","",NA,NA,NA,NA,""
"image-keyboard-response",287,316163,"0.0-3.92-0.92","1jtlf5uls6rlhb6",404,"192.csv","","449.29999999701977","resources/trios/L2T4A2.jpg","38","restless",0.4,0.6,0.3,0.154882276616874,"true"
"image-keyboard-response",288,316569,"0.0-3.92-1.92","1jtlf5uls6rlhb6",404,"192.csv","","null","resources/maskTrios/BT4B.jpg","null","",NA,NA,NA,NA,""
"image-keyboard-response",289,317774,"0.0-3.92-2.92","1jtlf5uls6rlhb6",404,"192.csv","","null","resources/images/coin2.png","null","",NA,NA,NA,NA,""
"image-keyboard-response",290,318429,"0.0-3.93-0.93","1jtlf5uls6rlhb6",404,"192.csv","","652.2999999970198","resources/trios/L2T4A2.jpg","38","restless",0.4,0.6,0.3,0.694863961928156,"false"
"image-keyboard-response",291,318835,"0.0-3.93-1.93","1jtlf5uls6rlhb6",404,"192.csv","","null","resources/maskTrios/BT4B.jpg","null","",NA,NA,NA,NA,""
"image-keyboard-response",292,320042,"0.0-3.93-2.93","1jtlf5uls6rlhb6",404,"192.csv","","null","resources/images/fishbone.png","null","",NA,NA,NA,NA,""
"image-keyboard-response",293,320971,"0.0-3.94-0.94","1jtlf5uls6rlhb6",404,"192.csv","","926.6999999880791","resources/trios/L2T4A3.jpg","38","restless",0.4,0.6,0.3,0.570660226986392,"true"
"image-keyboard-response",294,321379,"0.0-3.94-1.94","1jtlf5uls6rlhb6",404,"192.csv","","null","resources/maskTrios/BT4B.jpg","null","",NA,NA,NA,NA,""
"image-keyboard-response",295,322585,"0.0-3.94-2.94","1jtlf5uls6rlhb6",404,"192.csv","","null","resources/images/coin2.png","null","",NA,NA,NA,NA,""
"image-keyboard-response",296,323590,"0.0-3.95-0.95","1jtlf5uls6rlhb6",404,"192.csv","","1002.7000000029802","resources/trios/L2T2A3.jpg","37","restless",0.4,0.5,0.3,0.329071804307288,"true"
"image-keyboard-response",297,323997,"0.0-3.95-1.95","1jtlf5uls6rlhb6",404,"192.csv","","null","resources/maskTrios/L2BB.jpg","null","",NA,NA,NA,NA,""
"image-keyboard-response",298,325205,"0.0-3.95-2.95","1jtlf5uls6rlhb6",404,"192.csv","","null","resources/images/coin2.png","null","",NA,NA,NA,NA,""
"image-keyboard-response",299,325518,"0.0-3.96-0.96","1jtlf5uls6rlhb6",404,"192.csv","","310.29999999701977","resources/trios/L2T4A3.jpg","38","restless",0.4,0.5,0.3,0.148194395204053,"true"
"image-keyboard-response",300,325925,"0.0-3.96-1.96","1jtlf5uls6rlhb6",404,"192.csv","","null","resources/maskTrios/BT4B.jpg","null","",NA,NA,NA,NA,""
"image-keyboard-response",301,327133,"0.0-3.96-2.96","1jtlf5uls6rlhb6",404,"192.csv","","null","resources/images/coin2.png","null","",NA,NA,NA,NA,""
"image-keyboard-response",302,327399,"0.0-3.97-0.97","1jtlf5uls6rlhb6",404,"192.csv","","263.79999999701977","resources/trios/L1T2A2.jpg","38","restless",0.4,0.5,0.3,0.263687286613814,"true"
"image-keyboard-response",303,327802,"0.0-3.97-1.97","1jtlf5uls6rlhb6",404,"192.csv","","null","resources/maskTrios/BT2B.jpg","null","",NA,NA,NA,NA,""
"image-keyboard-response",304,329007,"0.0-3.97-2.97","1jtlf5uls6rlhb6",404,"192.csv","","null","resources/images/coin2.png","null","",NA,NA,NA,NA,""
"image-keyboard-response",305,329700,"0.0-3.98-0.98","1jtlf5uls6rlhb6",404,"192.csv","","690.7999999970198","resources/trios/L2T2A3.jpg","37","restless",0.4,0.5,0.3,0.895906354713425,"false"
"image-keyboard-response",306,330105,"0.0-3.98-1.98","1jtlf5uls6rlhb6",404,"192.csv","","null","resources/maskTrios/L2BB.jpg","null","",NA,NA,NA,NA,""
"image-keyboard-response",307,331312,"0.0-3.98-2.98","1jtlf5uls6rlhb6",404,"192.csv","","null","resources/images/fishbone.png","null","",NA,NA,NA,NA,""
"image-keyboard-response",308,331599,"0.0-3.99-0.99","1jtlf5uls6rlhb6",404,"192.csv","","284.1000000089407","resources/trios/L2T2A2.jpg","38","restless",0.4,0.5,0.3,0.434340503847842,"true"
"image-keyboard-response",309,332007,"0.0-3.99-1.99","1jtlf5uls6rlhb6",404,"192.csv","","null","resources/maskTrios/BT2B.jpg","null","",NA,NA,NA,NA,""
"image-keyboard-response",310,333214,"0.0-3.99-2.99","1jtlf5uls6rlhb6",404,"192.csv","","null","resources/images/coin2.png","null","",NA,NA,NA,NA,""
"image-keyboard-response",311,333557,"0.0-3.100-0.100","1jtlf5uls6rlhb6",404,"192.csv","","340.79999999701977","resources/trios/L2T4A2.jpg","38","restless",0.4,0.5,0.3,0.732129600632697,"false"
"image-keyboard-response",312,333962,"0.0-3.100-1.100","1jtlf5uls6rlhb6",404,"192.csv","","null","resources/maskTrios/BT4B.jpg","null","",NA,NA,NA,NA,""
"image-keyboard-response",313,335165,"0.0-3.100-2.100","1jtlf5uls6rlhb6",404,"192.csv","","null","resources/images/fishbone.png","null","",NA,NA,NA,NA,""
"image-keyboard-response",314,335487,"0.0-3.101-0.101","1jtlf5uls6rlhb6",404,"192.csv","","319.90000000596046","resources/trios/L2T4A3.jpg","38","restless",0.4,0.5,0.3,0.203795586483545,"true"
"image-keyboard-response",315,335895,"0.0-3.101-1.101","1jtlf5uls6rlhb6",404,"192.csv","","null","resources/maskTrios/BT4B.jpg","null","",NA,NA,NA,NA,""
"image-keyboard-response",316,337099,"0.0-3.101-2.101","1jtlf5uls6rlhb6",404,"192.csv","","null","resources/images/coin2.png","null","",NA,NA,NA,NA,""
"image-keyboard-response",317,337495,"0.0-3.102-0.102","1jtlf5uls6rlhb6",404,"192.csv","","394.29999999701977","resources/trios/L1T2A2.jpg","38","restless",0.4,0.5,0.3,0.55228012937877,"false"
"image-keyboard-response",318,337903,"0.0-3.102-1.102","1jtlf5uls6rlhb6",404,"192.csv","","null","resources/maskTrios/BT2B.jpg","null","",NA,NA,NA,NA,""
"image-keyboard-response",319,339105,"0.0-3.102-2.102","1jtlf5uls6rlhb6",404,"192.csv","","null","resources/images/fishbone.png","null","",NA,NA,NA,NA,""
"image-keyboard-response",320,339348,"0.0-3.103-0.103","1jtlf5uls6rlhb6",404,"192.csv","","240.59999999403954","resources/trios/L2T4A3.jpg","38","restless",0.4,0.5,0.3,0.78336996927184,"false"
"image-keyboard-response",321,339756,"0.0-3.103-1.103","1jtlf5uls6rlhb6",404,"192.csv","","null","resources/maskTrios/BT4B.jpg","null","",NA,NA,NA,NA,""
"image-keyboard-response",322,340963,"0.0-3.103-2.103","1jtlf5uls6rlhb6",404,"192.csv","","null","resources/images/fishbone.png","null","",NA,NA,NA,NA,""
"image-keyboard-response",323,341273,"0.0-3.104-0.104","1jtlf5uls6rlhb6",404,"192.csv","","308.09999999403954","resources/trios/L2T2A2.jpg","38","restless",0.4,0.5,0.3,0.25218096263895,"true"
"image-keyboard-response",324,341680,"0.0-3.104-1.104","1jtlf5uls6rlhb6",404,"192.csv","","null","resources/maskTrios/BT2B.jpg","null","",NA,NA,NA,NA,""
"image-keyboard-response",325,342888,"0.0-3.104-2.104","1jtlf5uls6rlhb6",404,"192.csv","","null","resources/images/coin2.png","null","",NA,NA,NA,NA,""
"image-keyboard-response",326,343299,"0.0-3.105-0.105","1jtlf5uls6rlhb6",404,"192.csv","","409.5","resources/trios/L2T4A3.jpg","38","restless",0.4,0.5,0.3,0.0997846737390535,"true"
"image-keyboard-response",327,343706,"0.0-3.105-1.105","1jtlf5uls6rlhb6",404,"192.csv","","null","resources/maskTrios/BT4B.jpg","null","",NA,NA,NA,NA,""
"image-keyboard-response",328,344910,"0.0-3.105-2.105","1jtlf5uls6rlhb6",404,"192.csv","","null","resources/images/coin2.png","null","",NA,NA,NA,NA,""
"image-keyboard-response",329,345140,"0.0-3.106-0.106","1jtlf5uls6rlhb6",404,"192.csv","","227.70000000298023","resources/trios/L1T4A2.jpg","38","restless",0.4,0.6,0.4,0.703792066117551,"false"
"image-keyboard-response",330,345547,"0.0-3.106-1.106","1jtlf5uls6rlhb6",404,"192.csv","","null","resources/maskTrios/BT4B.jpg","null","",NA,NA,NA,NA,""
"image-keyboard-response",331,346752,"0.0-3.106-2.106","1jtlf5uls6rlhb6",404,"192.csv","","null","resources/images/fishbone.png","null","",NA,NA,NA,NA,""
"image-keyboard-response",332,347109,"0.0-3.107-0.107","1jtlf5uls6rlhb6",404,"192.csv","","354.79999999701977","resources/trios/L1T4A2.jpg","38","restless",0.4,0.6,0.4,0.2960153302807,"true"
"image-keyboard-response",333,347514,"0.0-3.107-1.107","1jtlf5uls6rlhb6",404,"192.csv","","null","resources/maskTrios/BT4B.jpg","null","",NA,NA,NA,NA,""
"image-keyboard-response",334,348721,"0.0-3.107-2.107","1jtlf5uls6rlhb6",404,"192.csv","","null","resources/images/coin2.png","null","",NA,NA,NA,NA,""
"image-keyboard-response",335,349006,"0.0-3.108-0.108","1jtlf5uls6rlhb6",404,"192.csv","","283","resources/trios/L1T2A3.jpg","38","restless",0.4,0.6,0.4,0.420911566526867,"true"
"image-keyboard-response",336,349413,"0.0-3.108-1.108","1jtlf5uls6rlhb6",404,"192.csv","","null","resources/maskTrios/BT2B.jpg","null","",NA,NA,NA,NA,""
"image-keyboard-response",337,350620,"0.0-3.108-2.108","1jtlf5uls6rlhb6",404,"192.csv","","null","resources/images/coin2.png","null","",NA,NA,NA,NA,""
"image-keyboard-response",338,350984,"0.0-3.109-0.109","1jtlf5uls6rlhb6",404,"192.csv","","361.6000000089407","resources/trios/L2T4A2.jpg","38","restless",0.4,0.6,0.4,0.628360894979414,"false"
"image-keyboard-response",339,351391,"0.0-3.109-1.109","1jtlf5uls6rlhb6",404,"192.csv","","null","resources/maskTrios/BT4B.jpg","null","",NA,NA,NA,NA,""
"image-keyboard-response",340,352598,"0.0-3.109-2.109","1jtlf5uls6rlhb6",404,"192.csv","","null","resources/images/fishbone.png","null","",NA,NA,NA,NA,""
"image-keyboard-response",341,353346,"0.0-3.110-0.110","1jtlf5uls6rlhb6",404,"192.csv","","745.4000000059605","resources/trios/L2T4A2.jpg","37","restless",0.4,0.6,0.4,0.539226146903397,"false"
"image-keyboard-response",342,353753,"0.0-3.110-1.110","1jtlf5uls6rlhb6",404,"192.csv","","null","resources/maskTrios/L2BB.jpg","null","",NA,NA,NA,NA,""
"image-keyboard-response",343,354956,"0.0-3.110-2.110","1jtlf5uls6rlhb6",404,"192.csv","","null","resources/images/fishbone.png","null","",NA,NA,NA,NA,""
"image-keyboard-response",344,355685,"0.0-3.111-0.111","1jtlf5uls6rlhb6",404,"192.csv","","727.0999999940395","resources/trios/L2T2A3.jpg","37","restless",0.4,0.6,0.4,0.533519460781916,"false"
"image-keyboard-response",345,356089,"0.0-3.111-1.111","1jtlf5uls6rlhb6",404,"192.csv","","null","resources/maskTrios/L2BB.jpg","null","",NA,NA,NA,NA,""
"image-keyboard-response",346,357295,"0.0-3.111-2.111","1jtlf5uls6rlhb6",404,"192.csv","","null","resources/images/fishbone.png","null","",NA,NA,NA,NA,""
"image-keyboard-response",347,357549,"0.0-3.112-0.112","1jtlf5uls6rlhb6",404,"192.csv","","252.1000000089407","resources/trios/L2T2A2.jpg","38","restless",0.4,0.6,0.4,0.413075961000529,"true"
"image-keyboard-response",348,357956,"0.0-3.112-1.112","1jtlf5uls6rlhb6",404,"192.csv","","null","resources/maskTrios/BT2B.jpg","null","",NA,NA,NA,NA,""
"image-keyboard-response",349,359163,"0.0-3.112-2.112","1jtlf5uls6rlhb6",404,"192.csv","","null","resources/images/coin2.png","null","",NA,NA,NA,NA,""
"image-keyboard-response",350,359425,"0.0-3.113-0.113","1jtlf5uls6rlhb6",404,"192.csv","","259.59999999403954","resources/trios/L1T2A3.jpg","38","restless",0.4,0.6,0.4,0.489254359037705,"true"
"image-keyboard-response",351,359832,"0.0-3.113-1.113","1jtlf5uls6rlhb6",404,"192.csv","","null","resources/maskTrios/BT2B.jpg","null","",NA,NA,NA,NA,""
"image-keyboard-response",352,361036,"0.0-3.113-2.113","1jtlf5uls6rlhb6",404,"192.csv","","null","resources/images/coin2.png","null","",NA,NA,NA,NA,""
"image-keyboard-response",353,361356,"0.0-3.114-0.114","1jtlf5uls6rlhb6",404,"192.csv","","317.40000000596046","resources/trios/L2T2A3.jpg","38","restless",0.4,0.6,0.4,0.562124906576787,"true"
"image-keyboard-response",354,361763,"0.0-3.114-1.114","1jtlf5uls6rlhb6",404,"192.csv","","null","resources/maskTrios/BT2B.jpg","null","",NA,NA,NA,NA,""
"image-keyboard-response",355,362970,"0.0-3.114-2.114","1jtlf5uls6rlhb6",404,"192.csv","","null","resources/images/coin2.png","null","",NA,NA,NA,NA,""
"image-keyboard-response",356,363291,"0.0-3.115-0.115","1jtlf5uls6rlhb6",404,"192.csv","","318.5","resources/trios/L1T2A3.jpg","38","restless",0.3,0.6,0.4,0.788278137533266,"false"
"image-keyboard-response",357,363698,"0.0-3.115-1.115","1jtlf5uls6rlhb6",404,"192.csv","","null","resources/maskTrios/BT2B.jpg","null","",NA,NA,NA,NA,""
"image-keyboard-response",358,364905,"0.0-3.115-2.115","1jtlf5uls6rlhb6",404,"192.csv","","null","resources/images/fishbone.png","null","",NA,NA,NA,NA,""
"image-keyboard-response",359,365675,"0.0-3.116-0.116","1jtlf5uls6rlhb6",404,"192.csv","","767.8999999910593","resources/trios/L1T2A3.jpg","37","restless",0.4,0.6,0.4,0.319474364968661,"true"
"image-keyboard-response",360,366083,"0.0-3.116-1.116","1jtlf5uls6rlhb6",404,"192.csv","","null","resources/maskTrios/L1BB.jpg","null","",NA,NA,NA,NA,""
"image-keyboard-response",361,367290,"0.0-3.116-2.116","1jtlf5uls6rlhb6",404,"192.csv","","null","resources/images/coin2.png","null","",NA,NA,NA,NA,""
"image-keyboard-response",362,367562,"0.0-3.117-0.117","1jtlf5uls6rlhb6",404,"192.csv","","269.6000000089407","resources/trios/L1T2A2.jpg","38","restless",0.4,0.6,0.4,0.88034911321611,"false"
"image-keyboard-response",363,367969,"0.0-3.117-1.117","1jtlf5uls6rlhb6",404,"192.csv","","null","resources/maskTrios/BT2B.jpg","null","",NA,NA,NA,NA,""
"image-keyboard-response",364,369176,"0.0-3.117-2.117","1jtlf5uls6rlhb6",404,"192.csv","","null","resources/images/fishbone.png","null","",NA,NA,NA,NA,""
"image-keyboard-response",365,369257,"0.0-3.118-0.118","1jtlf5uls6rlhb6",404,"192.csv","","78.90000000596046","resources/trios/L1T4A3.jpg","39","restless",0.4,0.6,0.4,0.722889313766791,"false"
"image-keyboard-response",366,369664,"0.0-3.118-1.118","1jtlf5uls6rlhb6",404,"192.csv","","null","resources/maskTrios/BBA3.jpg","null","",NA,NA,NA,NA,""
"image-keyboard-response",367,370871,"0.0-3.118-2.118","1jtlf5uls6rlhb6",404,"192.csv","","null","resources/images/fishbone.png","null","",NA,NA,NA,NA,""
"image-keyboard-response",368,371131,"0.0-3.119-0.119","1jtlf5uls6rlhb6",404,"192.csv","","258","resources/trios/L1T4A3.jpg","39","restless",0.4,0.7,0.4,0.476287676020244,"false"
"image-keyboard-response",369,371538,"0.0-3.119-1.119","1jtlf5uls6rlhb6",404,"192.csv","","null","resources/maskTrios/BBA3.jpg","null","",NA,NA,NA,NA,""
"image-keyboard-response",370,372745,"0.0-3.119-2.119","1jtlf5uls6rlhb6",404,"192.csv","","null","resources/images/fishbone.png","null","",NA,NA,NA,NA,""
"image-keyboard-response",371,373115,"0.0-3.120-0.120","1jtlf5uls6rlhb6",404,"192.csv","","368","resources/trios/L1T2A3.jpg","37","restless",0.4,0.8,0.4,0.229337725325032,"true"
"image-keyboard-response",372,373522,"0.0-3.120-1.120","1jtlf5uls6rlhb6",404,"192.csv","","null","resources/maskTrios/L1BB.jpg","null","",NA,NA,NA,NA,""
"image-keyboard-response",373,374726,"0.0-3.120-2.120","1jtlf5uls6rlhb6",404,"192.csv","","null","resources/images/coin2.png","null","",NA,NA,NA,NA,""
"image-keyboard-response",374,375125,"0.0-3.121-0.121","1jtlf5uls6rlhb6",404,"192.csv","","397.29999999701977","resources/trios/L2T2A2.jpg","37","restless",0.4,0.8,0.4,0.458433735059474,"false"
"image-keyboard-response",375,375533,"0.0-3.121-1.121","1jtlf5uls6rlhb6",404,"192.csv","","null","resources/maskTrios/L2BB.jpg","null","",NA,NA,NA,NA,""
"image-keyboard-response",376,376740,"0.0-3.121-2.121","1jtlf5uls6rlhb6",404,"192.csv","","null","resources/images/fishbone.png","null","",NA,NA,NA,NA,""
"image-keyboard-response",377,376951,"0.0-3.122-0.122","1jtlf5uls6rlhb6",404,"192.csv","","210.5","resources/trios/L2T2A2.jpg","38","restless",0.4,0.8,0.4,0.0212758625365796,"true"
"image-keyboard-response",378,377354,"0.0-3.122-1.122","1jtlf5uls6rlhb6",404,"192.csv","","null","resources/maskTrios/BT2B.jpg","null","",NA,NA,NA,NA,""
"image-keyboard-response",379,378561,"0.0-3.122-2.122","1jtlf5uls6rlhb6",404,"192.csv","","null","resources/images/coin2.png","null","",NA,NA,NA,NA,""
"image-keyboard-response",380,379230,"0.0-3.123-0.123","1jtlf5uls6rlhb6",404,"192.csv","","666.7000000029802","resources/trios/L2T4A3.jpg","37","restless",0.4,0.8,0.4,0.122293687000505,"true"
"image-keyboard-response",381,379637,"0.0-3.123-1.123","1jtlf5uls6rlhb6",404,"192.csv","","null","resources/maskTrios/L2BB.jpg","null","",NA,NA,NA,NA,""
"image-keyboard-response",382,380845,"0.0-3.123-2.123","1jtlf5uls6rlhb6",404,"192.csv","","null","resources/images/coin2.png","null","",NA,NA,NA,NA,""
"image-keyboard-response",383,381070,"0.0-3.124-0.124","1jtlf5uls6rlhb6",404,"192.csv","","222.5","resources/trios/L1T4A3.jpg","38","restless",0.4,0.8,0.5,0.839988779124168,"false"
"image-keyboard-response",384,381477,"0.0-3.124-1.124","1jtlf5uls6rlhb6",404,"192.csv","","null","resources/maskTrios/BT4B.jpg","null","",NA,NA,NA,NA,""
"image-keyboard-response",385,382684,"0.0-3.124-2.124","1jtlf5uls6rlhb6",404,"192.csv","","null","resources/images/fishbone.png","null","",NA,NA,NA,NA,""
"image-keyboard-response",386,383427,"0.0-3.125-0.125","1jtlf5uls6rlhb6",404,"192.csv","","740.9000000059605","resources/trios/L2T4A2.jpg","37","restless",0.4,0.8,0.5,0.701614327881893,"false"
"image-keyboard-response",387,383834,"0.0-3.125-1.125","1jtlf5uls6rlhb6",404,"192.csv","","null","resources/maskTrios/L2BB.jpg","null","",NA,NA,NA,NA,""
"image-keyboard-response",388,385041,"0.0-3.125-2.125","1jtlf5uls6rlhb6",404,"192.csv","","null","resources/images/fishbone.png","null","",NA,NA,NA,NA,""
"image-keyboard-response",389,385947,"0.0-3.126-0.126","1jtlf5uls6rlhb6",404,"192.csv","","904.5","resources/trios/L1T2A3.jpg","37","restless",0.4,0.7,0.5,0.681918630938585,"false"
"image-keyboard-response",390,386355,"0.0-3.126-1.126","1jtlf5uls6rlhb6",404,"192.csv","","null","resources/maskTrios/L1BB.jpg","null","",NA,NA,NA,NA,""
"image-keyboard-response",391,387562,"0.0-3.126-2.126","1jtlf5uls6rlhb6",404,"192.csv","","null","resources/images/fishbone.png","null","",NA,NA,NA,NA,""
"image-keyboard-response",392,388111,"0.0-3.127-0.127","1jtlf5uls6rlhb6",404,"192.csv","","546.6000000089407","resources/trios/L2T4A2.jpg","38","restless",0.5,0.7,0.5,0.120777047495679,"true"
"image-keyboard-response",393,388515,"0.0-3.127-1.127","1jtlf5uls6rlhb6",404,"192.csv","","null","resources/maskTrios/BT4B.jpg","null","",NA,NA,NA,NA,""
"image-keyboard-response",394,389722,"0.0-3.127-2.127","1jtlf5uls6rlhb6",404,"192.csv","","null","resources/images/coin2.png","null","",NA,NA,NA,NA,""
"image-keyboard-response",395,391186,"0.0-3.128-0.128","1jtlf5uls6rlhb6",404,"192.csv","","1461.300000011921","resources/trios/L1T2A3.jpg","38","restless",0.5,0.6,0.5,0.640251601492435,"false"
"image-keyboard-response",396,391593,"0.0-3.128-1.128","1jtlf5uls6rlhb6",404,"192.csv","","null","resources/maskTrios/BT2B.jpg","null","",NA,NA,NA,NA,""
"image-keyboard-response",397,392798,"0.0-3.128-2.128","1jtlf5uls6rlhb6",404,"192.csv","","null","resources/images/fishbone.png","null","",NA,NA,NA,NA,""
"image-keyboard-response",398,393228,"0.0-3.129-0.129","1jtlf5uls6rlhb6",404,"192.csv","","428.5","resources/trios/L1T2A2.jpg","37","restless",0.5,0.6,0.5,0.570868742811842,"false"
"image-keyboard-response",399,393633,"0.0-3.129-1.129","1jtlf5uls6rlhb6",404,"192.csv","","null","resources/maskTrios/L1BB.jpg","null","",NA,NA,NA,NA,""
"image-keyboard-response",400,394840,"0.0-3.129-2.129","1jtlf5uls6rlhb6",404,"192.csv","","null","resources/images/fishbone.png","null","",NA,NA,NA,NA,""
"image-keyboard-response",401,395412,"0.0-3.130-0.130","1jtlf5uls6rlhb6",404,"192.csv","","570.2999999970198","resources/trios/L1T2A3.jpg","37","restless",0.5,0.6,0.4,0.623092777711272,"false"
"image-keyboard-response",402,395818,"0.0-3.130-1.130","1jtlf5uls6rlhb6",404,"192.csv","","null","resources/maskTrios/L1BB.jpg","null","",NA,NA,NA,NA,""
"image-keyboard-response",403,397025,"0.0-3.130-2.130","1jtlf5uls6rlhb6",404,"192.csv","","null","resources/images/fishbone.png","null","",NA,NA,NA,NA,""
"image-keyboard-response",404,397997,"0.0-3.131-0.131","1jtlf5uls6rlhb6",404,"192.csv","","969.5999999940395","resources/trios/L1T2A3.jpg","37","restless",0.5,0.6,0.4,0.275408955271176,"true"
"image-keyboard-response",405,398404,"0.0-3.131-1.131","1jtlf5uls6rlhb6",404,"192.csv","","null","resources/maskTrios/L1BB.jpg","null","",NA,NA,NA,NA,""
"image-keyboard-response",406,399611,"0.0-3.131-2.131","1jtlf5uls6rlhb6",404,"192.csv","","null","resources/images/coin2.png","null","",NA,NA,NA,NA,""
"image-keyboard-response",407,399891,"0.0-3.132-0.132","1jtlf5uls6rlhb6",404,"192.csv","","277.70000000298023","resources/trios/L1T2A3.jpg","38","restless",0.5,0.6,0.4,0.548365337240866,"true"
"image-keyboard-response",408,400297,"0.0-3.132-1.132","1jtlf5uls6rlhb6",404,"192.csv","","null","resources/maskTrios/BT2B.jpg","null","",NA,NA,NA,NA,""
"image-keyboard-response",409,401504,"0.0-3.132-2.132","1jtlf5uls6rlhb6",404,"192.csv","","null","resources/images/coin2.png","null","",NA,NA,NA,NA,""
"image-keyboard-response",410,402063,"0.0-3.133-0.133","1jtlf5uls6rlhb6",404,"192.csv","","556.2999999970198","resources/trios/L1T2A2.jpg","38","restless",0.5,0.6,0.5,0.38221797405813,"true"
"image-keyboard-response",411,402470,"0.0-3.133-1.133","1jtlf5uls6rlhb6",404,"192.csv","","null","resources/maskTrios/BT2B.jpg","null","",NA,NA,NA,NA,""
"image-keyboard-response",412,403677,"0.0-3.133-2.133","1jtlf5uls6rlhb6",404,"192.csv","","null","resources/images/coin2.png","null","",NA,NA,NA,NA,""
"image-keyboard-response",413,404220,"0.0-3.134-0.134","1jtlf5uls6rlhb6",404,"192.csv","","540.5","resources/trios/L1T2A3.jpg","39","restless",0.5,0.6,0.5,0.0824561683312475,"true"
"image-keyboard-response",414,404628,"0.0-3.134-1.134","1jtlf5uls6rlhb6",404,"192.csv","","null","resources/maskTrios/BBA3.jpg","null","",NA,NA,NA,NA,""
"image-keyboard-response",415,405835,"0.0-3.134-2.134","1jtlf5uls6rlhb6",404,"192.csv","","null","resources/images/coin2.png","null","",NA,NA,NA,NA,""
"image-keyboard-response",416,406602,"0.0-3.135-0.135","1jtlf5uls6rlhb6",404,"192.csv","","764.5","resources/trios/L2T4A2.jpg","38","restless",0.5,0.6,0.5,0.906888260604674,"false"
"image-keyboard-response",417,407009,"0.0-3.135-1.135","1jtlf5uls6rlhb6",404,"192.csv","","null","resources/maskTrios/BT4B.jpg","null","",NA,NA,NA,NA,""
"image-keyboard-response",418,408216,"0.0-3.135-2.135","1jtlf5uls6rlhb6",404,"192.csv","","null","resources/images/fishbone.png","null","",NA,NA,NA,NA,""
"image-keyboard-response",419,409030,"0.0-3.136-0.136","1jtlf5uls6rlhb6",404,"192.csv","","812.0999999940395","resources/trios/L1T4A2.jpg","39","restless",0.5,0.6,0.5,0.960786516674901,"false"
"image-keyboard-response",420,409438,"0.0-3.136-1.136","1jtlf5uls6rlhb6",404,"192.csv","","null","resources/maskTrios/BBA2.jpg","null","",NA,NA,NA,NA,""
"image-keyboard-response",421,410645,"0.0-3.136-2.136","1jtlf5uls6rlhb6",404,"192.csv","","null","resources/images/fishbone.png","null","",NA,NA,NA,NA,""
"image-keyboard-response",422,411390,"0.0-3.137-0.137","1jtlf5uls6rlhb6",404,"192.csv","","742.8999999910593","resources/trios/L2T4A2.jpg","37","restless",0.5,0.6,0.5,0.217410940150649,"true"
"image-keyboard-response",423,411797,"0.0-3.137-1.137","1jtlf5uls6rlhb6",404,"192.csv","","null","resources/maskTrios/L2BB.jpg","null","",NA,NA,NA,NA,""
"image-keyboard-response",424,413005,"0.0-3.137-2.137","1jtlf5uls6rlhb6",404,"192.csv","","null","resources/images/coin2.png","null","",NA,NA,NA,NA,""
"image-keyboard-response",425,413301,"0.0-3.138-0.138","1jtlf5uls6rlhb6",404,"192.csv","","293.79999999701977","resources/trios/L1T2A3.jpg","38","restless",0.5,0.6,0.5,0.816268085510368,"false"
"image-keyboard-response",426,413704,"0.0-3.138-1.138","1jtlf5uls6rlhb6",404,"192.csv","","null","resources/maskTrios/BT2B.jpg","null","",NA,NA,NA,NA,""
"image-keyboard-response",427,414911,"0.0-3.138-2.138","1jtlf5uls6rlhb6",404,"192.csv","","null","resources/images/fishbone.png","null","",NA,NA,NA,NA,""
"image-keyboard-response",428,415516,"0.0-3.139-0.139","1jtlf5uls6rlhb6",404,"192.csv","","602.2000000029802","resources/trios/L1T2A2.jpg","37","restless",0.5,0.6,0.5,0.604373393275665,"false"
"image-keyboard-response",429,415923,"0.0-3.139-1.139","1jtlf5uls6rlhb6",404,"192.csv","","null","resources/maskTrios/L1BB.jpg","null","",NA,NA,NA,NA,""
"image-keyboard-response",430,417130,"0.0-3.139-2.139","1jtlf5uls6rlhb6",404,"192.csv","","null","resources/images/fishbone.png","null","",NA,NA,NA,NA,""
"image-keyboard-response",431,418003,"0.0-3.140-0.140","1jtlf5uls6rlhb6",404,"192.csv","","870.9000000059605","resources/trios/L2T4A3.jpg","37","restless",0.5,0.6,0.6,0.0137801545253859,"true"
"image-keyboard-response",432,418408,"0.0-3.140-1.140","1jtlf5uls6rlhb6",404,"192.csv","","null","resources/maskTrios/L2BB.jpg","null","",NA,NA,NA,NA,""
"image-keyboard-response",433,419615,"0.0-3.140-2.140","1jtlf5uls6rlhb6",404,"192.csv","","null","resources/images/coin2.png","null","",NA,NA,NA,NA,""
"image-keyboard-response",434,419952,"0.0-3.141-0.141","1jtlf5uls6rlhb6",404,"192.csv","","335","resources/trios/L1T4A2.jpg","37","restless",0.5,0.5,0.7,0.820025764783779,"false"
"image-keyboard-response",435,420360,"0.0-3.141-1.141","1jtlf5uls6rlhb6",404,"192.csv","","null","resources/maskTrios/L1BB.jpg","null","",NA,NA,NA,NA,""
"image-keyboard-response",436,421564,"0.0-3.141-2.141","1jtlf5uls6rlhb6",404,"192.csv","","null","resources/images/fishbone.png","null","",NA,NA,NA,NA,""
"image-keyboard-response",437,422081,"0.0-3.142-0.142","1jtlf5uls6rlhb6",404,"192.csv","","514.7000000029802","resources/trios/L1T2A2.jpg","37","restless",0.5,0.5,0.7,0.398910110441988,"true"
"image-keyboard-response",438,422488,"0.0-3.142-1.142","1jtlf5uls6rlhb6",404,"192.csv","","null","resources/maskTrios/L1BB.jpg","null","",NA,NA,NA,NA,""
"image-keyboard-response",439,423695,"0.0-3.142-2.142","1jtlf5uls6rlhb6",404,"192.csv","","null","resources/images/coin2.png","null","",NA,NA,NA,NA,""
"image-keyboard-response",440,424025,"0.0-3.143-0.143","1jtlf5uls6rlhb6",404,"192.csv","","327.40000000596046","resources/trios/L1T2A2.jpg","39","restless",0.5,0.5,0.8,0.63083147921658,"true"
"image-keyboard-response",441,424432,"0.0-3.143-1.143","1jtlf5uls6rlhb6",404,"192.csv","","null","resources/maskTrios/BBA2.jpg","null","",NA,NA,NA,NA,""
"image-keyboard-response",442,425639,"0.0-3.143-2.143","1jtlf5uls6rlhb6",404,"192.csv","","null","resources/images/coin2.png","null","",NA,NA,NA,NA,""
"image-keyboard-response",443,426322,"0.0-3.144-0.144","1jtlf5uls6rlhb6",404,"192.csv","","680.5","resources/trios/L1T2A3.jpg","38","restless",0.4,0.5,0.8,0.687679414193954,"false"
"image-keyboard-response",444,426729,"0.0-3.144-1.144","1jtlf5uls6rlhb6",404,"192.csv","","null","resources/maskTrios/BT2B.jpg","null","",NA,NA,NA,NA,""
"image-keyboard-response",445,427936,"0.0-3.144-2.144","1jtlf5uls6rlhb6",404,"192.csv","","null","resources/images/fishbone.png","null","",NA,NA,NA,NA,""
"image-keyboard-response",446,429269,"0.0-3.145-0.145","1jtlf5uls6rlhb6",404,"192.csv","","1330.8999999910593","resources/trios/L2T4A3.jpg","38","restless",0.4,0.4,0.8,0.744755955853636,"false"
"image-keyboard-response",447,429672,"0.0-3.145-1.145","1jtlf5uls6rlhb6",404,"192.csv","","null","resources/maskTrios/BT4B.jpg","null","",NA,NA,NA,NA,""
"image-keyboard-response",448,430879,"0.0-3.145-2.145","1jtlf5uls6rlhb6",404,"192.csv","","null","resources/images/fishbone.png","null","",NA,NA,NA,NA,""
"image-keyboard-response",449,431626,"0.0-3.146-0.146","1jtlf5uls6rlhb6",404,"192.csv","","744.5999999940395","resources/trios/L2T4A3.jpg","37","restless",0.4,0.3,0.7,0.212150254762299,"true"
"image-keyboard-response",450,432034,"0.0-3.146-1.146","1jtlf5uls6rlhb6",404,"192.csv","","null","resources/maskTrios/L2BB.jpg","null","",NA,NA,NA,NA,""
"image-keyboard-response",451,433241,"0.0-3.146-2.146","1jtlf5uls6rlhb6",404,"192.csv","","null","resources/images/coin2.png","null","",NA,NA,NA,NA,""
"image-keyboard-response",452,434597,"0.0-3.147-0.147","1jtlf5uls6rlhb6",404,"192.csv","","1353.2000000029802","resources/trios/L2T4A2.jpg","37","restless",0.4,0.3,0.7,0.171870704947073,"true"
"image-keyboard-response",453,435003,"0.0-3.147-1.147","1jtlf5uls6rlhb6",404,"192.csv","","null","resources/maskTrios/L2BB.jpg","null","",NA,NA,NA,NA,""
"image-keyboard-response",454,436210,"0.0-3.147-2.147","1jtlf5uls6rlhb6",404,"192.csv","","null","resources/images/coin2.png","null","",NA,NA,NA,NA,""
"image-keyboard-response",455,436810,"0.0-3.148-0.148","1jtlf5uls6rlhb6",404,"192.csv","","597.5","resources/trios/L2T4A3.jpg","37","restless",0.4,0.3,0.7,0.734007114753793,"false"
"image-keyboard-response",456,437215,"0.0-3.148-1.148","1jtlf5uls6rlhb6",404,"192.csv","","null","resources/maskTrios/L2BB.jpg","null","",NA,NA,NA,NA,""
"image-keyboard-response",457,438422,"0.0-3.148-2.148","1jtlf5uls6rlhb6",404,"192.csv","","null","resources/images/fishbone.png","null","",NA,NA,NA,NA,""
"image-keyboard-response",458,438819,"0.0-3.149-0.149","1jtlf5uls6rlhb6",404,"192.csv","","395","resources/trios/L2T4A2.jpg","37","restless",0.3,0.3,0.7,0.40051761065763,"false"
"image-keyboard-response",459,439226,"0.0-3.149-1.149","1jtlf5uls6rlhb6",404,"192.csv","","null","resources/maskTrios/L2BB.jpg","null","",NA,NA,NA,NA,""
"image-keyboard-response",460,440430,"0.0-3.149-2.149","1jtlf5uls6rlhb6",404,"192.csv","","null","resources/images/fishbone.png","null","",NA,NA,NA,NA,""
"image-keyboard-response",461,440836,"0.0-3.150-0.150","1jtlf5uls6rlhb6",404,"192.csv","","404.5","resources/trios/L1T2A3.jpg","37","restless",0.3,0.3,0.7,0.609986649531729,"false"
"image-keyboard-response",462,441244,"0.0-3.150-1.150","1jtlf5uls6rlhb6",404,"192.csv","","null","resources/maskTrios/L1BB.jpg","null","",NA,NA,NA,NA,""
"image-keyboard-response",463,442450,"0.0-3.150-2.150","1jtlf5uls6rlhb6",404,"192.csv","","null","resources/images/fishbone.png","null","",NA,NA,NA,NA,""
"image-keyboard-response",464,442981,"0.0-3.151-0.151","1jtlf5uls6rlhb6",404,"192.csv","","528.5","resources/trios/L1T4A3.jpg","37","restless",0.3,0.3,0.7,0.806985273190634,"false"
"image-keyboard-response",465,443389,"0.0-3.151-1.151","1jtlf5uls6rlhb6",404,"192.csv","","null","resources/maskTrios/L1BB.jpg","null","",NA,NA,NA,NA,""
"image-keyboard-response",466,444596,"0.0-3.151-2.151","1jtlf5uls6rlhb6",404,"192.csv","","null","resources/images/fishbone.png","null","",NA,NA,NA,NA,""
"image-keyboard-response",467,444820,"0.0-3.152-0.152","1jtlf5uls6rlhb6",404,"192.csv","","222","resources/trios/L2T4A2.jpg","38","restless",0.3,0.3,0.7,0.746787501884442,"false"
"image-keyboard-response",468,445227,"0.0-3.152-1.152","1jtlf5uls6rlhb6",404,"192.csv","","null","resources/maskTrios/BT4B.jpg","null","",NA,NA,NA,NA,""
"image-keyboard-response",469,446430,"0.0-3.152-2.152","1jtlf5uls6rlhb6",404,"192.csv","","null","resources/images/fishbone.png","null","",NA,NA,NA,NA,""
"image-keyboard-response",470,446750,"0.0-3.153-0.153","1jtlf5uls6rlhb6",404,"192.csv","","317.6000000089407","resources/trios/L1T2A2.jpg","39","restless",0.3,0.3,0.7,0.416841260902932,"true"
"image-keyboard-response",471,447158,"0.0-3.153-1.153","1jtlf5uls6rlhb6",404,"192.csv","","null","resources/maskTrios/BBA2.jpg","null","",NA,NA,NA,NA,""
"image-keyboard-response",472,448365,"0.0-3.153-2.153","1jtlf5uls6rlhb6",404,"192.csv","","null","resources/images/coin2.png","null","",NA,NA,NA,NA,""
"image-keyboard-response",473,448663,"0.0-3.154-0.154","1jtlf5uls6rlhb6",404,"192.csv","","295.70000000298023","resources/trios/L2T4A2.jpg","39","restless",0.4,0.3,0.7,0.0935198750256307,"true"
"image-keyboard-response",474,449069,"0.0-3.154-1.154","1jtlf5uls6rlhb6",404,"192.csv","","null","resources/maskTrios/BBA2.jpg","null","",NA,NA,NA,NA,""
"image-keyboard-response",475,450277,"0.0-3.154-2.154","1jtlf5uls6rlhb6",404,"192.csv","","null","resources/images/coin2.png","null","",NA,NA,NA,NA,""
"image-keyboard-response",476,451469,"0.0-3.155-0.155","1jtlf5uls6rlhb6",404,"192.csv","","1190.2999999970198","resources/trios/L1T4A3.jpg","38","restless",0.4,0.2,0.7,0.180261312834115,"true"
"image-keyboard-response",477,451877,"0.0-3.155-1.155","1jtlf5uls6rlhb6",404,"192.csv","","null","resources/maskTrios/BT4B.jpg","null","",NA,NA,NA,NA,""
"image-keyboard-response",478,453084,"0.0-3.155-2.155","1jtlf5uls6rlhb6",404,"192.csv","","null","resources/images/coin2.png","null","",NA,NA,NA,NA,""
"image-keyboard-response",479,454103,"0.0-3.156-0.156","1jtlf5uls6rlhb6",404,"192.csv","","1016.9000000059605","resources/trios/L1T4A2.jpg","39","restless",0.4,0.2,0.6,0.744328616950856,"false"
"image-keyboard-response",480,454511,"0.0-3.156-1.156","1jtlf5uls6rlhb6",404,"192.csv","","null","resources/maskTrios/BBA2.jpg","null","",NA,NA,NA,NA,""
"image-keyboard-response",481,455714,"0.0-3.156-2.156","1jtlf5uls6rlhb6",404,"192.csv","","null","resources/images/fishbone.png","null","",NA,NA,NA,NA,""
"image-keyboard-response",482,456112,"0.0-3.157-0.157","1jtlf5uls6rlhb6",404,"192.csv","","396","resources/trios/L2T4A2.jpg","38","restless",0.4,0.2,0.6,0.681833735680385,"false"
"image-keyboard-response",483,456518,"0.0-3.157-1.157","1jtlf5uls6rlhb6",404,"192.csv","","null","resources/maskTrios/BT4B.jpg","null","",NA,NA,NA,NA,""
"image-keyboard-response",484,457722,"0.0-3.157-2.157","1jtlf5uls6rlhb6",404,"192.csv","","null","resources/images/fishbone.png","null","",NA,NA,NA,NA,""
"image-keyboard-response",485,458227,"0.0-3.158-0.158","1jtlf5uls6rlhb6",404,"192.csv","","503.29999999701977","resources/trios/L2T4A3.jpg","38","restless",0.4,0.1,0.6,0.812684968777411,"false"
"image-keyboard-response",486,458635,"0.0-3.158-1.158","1jtlf5uls6rlhb6",404,"192.csv","","null","resources/maskTrios/BT4B.jpg","null","",NA,NA,NA,NA,""
"image-keyboard-response",487,459842,"0.0-3.158-2.158","1jtlf5uls6rlhb6",404,"192.csv","","null","resources/images/fishbone.png","null","",NA,NA,NA,NA,""
"image-keyboard-response",488,460148,"0.0-3.159-0.159","1jtlf5uls6rlhb6",404,"192.csv","","303.90000000596046","resources/trios/L2T4A3.jpg","37","restless",0.4,0.1,0.6,0.442411829695291,"false"
"image-keyboard-response",489,460556,"0.0-3.159-1.159","1jtlf5uls6rlhb6",404,"192.csv","","null","resources/maskTrios/L2BB.jpg","null","",NA,NA,NA,NA,""
"image-keyboard-response",490,461760,"0.0-3.159-2.159","1jtlf5uls6rlhb6",404,"192.csv","","null","resources/images/fishbone.png","null","",NA,NA,NA,NA,""
"image-keyboard-response",491,468014,"0.0-3.160-0.160","1jtlf5uls6rlhb6",404,"192.csv","","6252.70000000298","resources/trios/L2T4A2.jpg","38","restless",0.4,0.1,0.6,0.275336722422681,"false"
"image-keyboard-response",492,468420,"0.0-3.160-1.160","1jtlf5uls6rlhb6",404,"192.csv","","null","resources/maskTrios/BT4B.jpg","null","",NA,NA,NA,NA,""
"image-keyboard-response",493,469627,"0.0-3.160-2.160","1jtlf5uls6rlhb6",404,"192.csv","","null","resources/images/fishbone.png","null","",NA,NA,NA,NA,""
"image-keyboard-response",494,471221,"0.0-3.161-0.161","1jtlf5uls6rlhb6",404,"192.csv","","1592.3999999910593","resources/trios/L2T4A2.jpg","37","restless",0.4,0.1,0.6,0.698344116801803,"false"
"image-keyboard-response",495,471628,"0.0-3.161-1.161","1jtlf5uls6rlhb6",404,"192.csv","","null","resources/maskTrios/L2BB.jpg","null","",NA,NA,NA,NA,""
"image-keyboard-response",496,472832,"0.0-3.161-2.161","1jtlf5uls6rlhb6",404,"192.csv","","null","resources/images/fishbone.png","null","",NA,NA,NA,NA,""
"image-keyboard-response",497,473282,"0.0-3.162-0.162","1jtlf5uls6rlhb6",404,"192.csv","","447.3999999910593","resources/trios/L2T4A3.jpg","38","restless",0.4,0.2,0.7,0.53711961429683,"false"
"image-keyboard-response",498,473689,"0.0-3.162-1.162","1jtlf5uls6rlhb6",404,"192.csv","","null","resources/maskTrios/BT4B.jpg","null","",NA,NA,NA,NA,""
"image-keyboard-response",499,474893,"0.0-3.162-2.162","1jtlf5uls6rlhb6",404,"192.csv","","null","resources/images/fishbone.png","null","",NA,NA,NA,NA,""
"image-keyboard-response",500,475237,"0.0-3.163-0.163","1jtlf5uls6rlhb6",404,"192.csv","","341.59999999403954","resources/trios/L2T2A3.jpg","38","restless",0.4,0.2,0.7,0.862185449556567,"false"
"image-keyboard-response",501,475644,"0.0-3.163-1.163","1jtlf5uls6rlhb6",404,"192.csv","","null","resources/maskTrios/BT2B.jpg","null","",NA,NA,NA,NA,""
"image-keyboard-response",502,476851,"0.0-3.163-2.163","1jtlf5uls6rlhb6",404,"192.csv","","null","resources/images/fishbone.png","null","",NA,NA,NA,NA,""
"image-keyboard-response",503,477181,"0.0-3.164-0.164","1jtlf5uls6rlhb6",404,"192.csv","","326.70000000298023","resources/trios/L1T4A2.jpg","39","restless",0.4,0.2,0.7,0.490215510633494,"true"
"image-keyboard-response",504,477588,"0.0-3.164-1.164","1jtlf5uls6rlhb6",404,"192.csv","","null","resources/maskTrios/BBA2.jpg","null","",NA,NA,NA,NA,""
"image-keyboard-response",505,478796,"0.0-3.164-2.164","1jtlf5uls6rlhb6",404,"192.csv","","null","resources/images/coin2.png","null","",NA,NA,NA,NA,""
"image-keyboard-response",506,479319,"0.0-3.165-0.165","1jtlf5uls6rlhb6",404,"192.csv","","521.3999999910593","resources/trios/L2T4A2.jpg","39","restless",0.4,0.2,0.7,0.608608968758884,"true"
"image-keyboard-response",507,479725,"0.0-3.165-1.165","1jtlf5uls6rlhb6",404,"192.csv","","null","resources/maskTrios/BBA2.jpg","null","",NA,NA,NA,NA,""
"image-keyboard-response",508,480932,"0.0-3.165-2.165","1jtlf5uls6rlhb6",404,"192.csv","","null","resources/images/coin2.png","null","",NA,NA,NA,NA,""
"image-keyboard-response",509,481327,"0.0-3.166-0.166","1jtlf5uls6rlhb6",404,"192.csv","","393","resources/trios/L2T2A2.jpg","39","restless",0.4,0.2,0.6,0.956448293303235,"false"
"image-keyboard-response",510,481732,"0.0-3.166-1.166","1jtlf5uls6rlhb6",404,"192.csv","","null","resources/maskTrios/BBA2.jpg","null","",NA,NA,NA,NA,""
"image-keyboard-response",511,482939,"0.0-3.166-2.166","1jtlf5uls6rlhb6",404,"192.csv","","null","resources/images/fishbone.png","null","",NA,NA,NA,NA,""
"image-keyboard-response",512,483680,"0.0-3.167-0.167","1jtlf5uls6rlhb6",404,"192.csv","","738.5","resources/trios/L2T4A3.jpg","37","restless",0.4,0.2,0.6,0.906741483326848,"false"
"image-keyboard-response",513,484088,"0.0-3.167-1.167","1jtlf5uls6rlhb6",404,"192.csv","","null","resources/maskTrios/L2BB.jpg","null","",NA,NA,NA,NA,""
"image-keyboard-response",514,485291,"0.0-3.167-2.167","1jtlf5uls6rlhb6",404,"192.csv","","null","resources/images/fishbone.png","null","",NA,NA,NA,NA,""
"image-keyboard-response",515,485385,"0.0-3.168-0.168","1jtlf5uls6rlhb6",404,"192.csv","","91.20000000298023","resources/trios/L1T4A2.jpg","38","restless",0.4,0.2,0.6,0.421870817773228,"false"
"image-keyboard-response",516,485788,"0.0-3.168-1.168","1jtlf5uls6rlhb6",404,"192.csv","","null","resources/maskTrios/BT4B.jpg","null","",NA,NA,NA,NA,""
"image-keyboard-response",517,486995,"0.0-3.168-2.168","1jtlf5uls6rlhb6",404,"192.csv","","null","resources/images/fishbone.png","null","",NA,NA,NA,NA,""
"image-keyboard-response",518,487694,"0.0-3.169-0.169","1jtlf5uls6rlhb6",404,"192.csv","","696.5999999940395","resources/trios/L2T4A3.jpg","37","restless",0.4,0.2,0.6,0.903610740915073,"false"
"image-keyboard-response",519,488102,"0.0-3.169-1.169","1jtlf5uls6rlhb6",404,"192.csv","","null","resources/maskTrios/L2BB.jpg","null","",NA,NA,NA,NA,""
"image-keyboard-response",520,489309,"0.0-3.169-2.169","1jtlf5uls6rlhb6",404,"192.csv","","null","resources/images/fishbone.png","null","",NA,NA,NA,NA,""
"image-keyboard-response",521,489616,"0.0-3.170-0.170","1jtlf5uls6rlhb6",404,"192.csv","","304.5","resources/trios/L2T2A2.jpg","38","restless",0.4,0.2,0.6,0.821209855070564,"false"
"image-keyboard-response",522,490022,"0.0-3.170-1.170","1jtlf5uls6rlhb6",404,"192.csv","","null","resources/maskTrios/BT2B.jpg","null","",NA,NA,NA,NA,""
"image-keyboard-response",523,491229,"0.0-3.170-2.170","1jtlf5uls6rlhb6",404,"192.csv","","null","resources/images/fishbone.png","null","",NA,NA,NA,NA,""
"image-keyboard-response",524,491263,"0.0-3.171-0.171","1jtlf5uls6rlhb6",404,"192.csv","","32.099999994039536","resources/trios/L1T2A3.jpg","39","restless",0.5,0.2,0.6,0.179222461979677,"true"
"image-keyboard-response",525,491669,"0.0-3.171-1.171","1jtlf5uls6rlhb6",404,"192.csv","","null","resources/maskTrios/BBA3.jpg","null","",NA,NA,NA,NA,""
"image-keyboard-response",526,492877,"0.0-3.171-2.171","1jtlf5uls6rlhb6",404,"192.csv","","null","resources/images/coin2.png","null","",NA,NA,NA,NA,""
"image-keyboard-response",527,493250,"0.0-3.172-0.172","1jtlf5uls6rlhb6",404,"192.csv","","370.79999999701977","resources/trios/L1T2A3.jpg","39","restless",0.5,0.3,0.6,0.575358829728545,"true"
"image-keyboard-response",528,493657,"0.0-3.172-1.172","1jtlf5uls6rlhb6",404,"192.csv","","null","resources/maskTrios/BBA3.jpg","null","",NA,NA,NA,NA,""
"image-keyboard-response",529,494865,"0.0-3.172-2.172","1jtlf5uls6rlhb6",404,"192.csv","","null","resources/images/coin2.png","null","",NA,NA,NA,NA,""
"image-keyboard-response",530,495123,"0.0-3.173-0.173","1jtlf5uls6rlhb6",404,"192.csv","","255.70000000298023","resources/trios/L1T2A3.jpg","39","restless",0.5,0.3,0.6,0.947496578803716,"false"
"image-keyboard-response",531,495531,"0.0-3.173-1.173","1jtlf5uls6rlhb6",404,"192.csv","","null","resources/maskTrios/BBA3.jpg","null","",NA,NA,NA,NA,""
"image-keyboard-response",532,496738,"0.0-3.173-2.173","1jtlf5uls6rlhb6",404,"192.csv","","null","resources/images/fishbone.png","null","",NA,NA,NA,NA,""
"image-keyboard-response",533,497095,"0.0-3.174-0.174","1jtlf5uls6rlhb6",404,"192.csv","","355.20000000298023","resources/trios/L1T2A3.jpg","38","restless",0.5,0.4,0.6,0.430347269578144,"false"
"image-keyboard-response",534,497503,"0.0-3.174-1.174","1jtlf5uls6rlhb6",404,"192.csv","","null","resources/maskTrios/BT2B.jpg","null","",NA,NA,NA,NA,""
"image-keyboard-response",535,498708,"0.0-3.174-2.174","1jtlf5uls6rlhb6",404,"192.csv","","null","resources/images/fishbone.png","null","",NA,NA,NA,NA,""
"image-keyboard-response",536,498867,"0.0-3.175-0.175","1jtlf5uls6rlhb6",404,"192.csv","","157","resources/trios/L1T4A3.jpg","38","restless",0.5,0.4,0.6,0.571246349626878,"false"
"image-keyboard-response",537,499273,"0.0-3.175-1.175","1jtlf5uls6rlhb6",404,"192.csv","","null","resources/maskTrios/BT4B.jpg","null","",NA,NA,NA,NA,""
"image-keyboard-response",538,500480,"0.0-3.175-2.175","1jtlf5uls6rlhb6",404,"192.csv","","null","resources/images/fishbone.png","null","",NA,NA,NA,NA,""
"image-keyboard-response",539,501548,"0.0-3.176-0.176","1jtlf5uls6rlhb6",404,"192.csv","","1066.199999988079","resources/trios/L2T4A3.jpg","37","restless",0.6,0.4,0.6,0.730248448008036,"false"
"image-keyboard-response",540,501956,"0.0-3.176-1.176","1jtlf5uls6rlhb6",404,"192.csv","","null","resources/maskTrios/L2BB.jpg","null","",NA,NA,NA,NA,""
"image-keyboard-response",541,503160,"0.0-3.176-2.176","1jtlf5uls6rlhb6",404,"192.csv","","null","resources/images/fishbone.png","null","",NA,NA,NA,NA,""
"image-keyboard-response",542,503234,"0.0-3.177-0.177","1jtlf5uls6rlhb6",404,"192.csv","","71.6000000089407","resources/trios/L2T2A3.jpg","38","restless",0.6,0.4,0.6,0.718707747485065,"false"
"image-keyboard-response",543,503642,"0.0-3.177-1.177","1jtlf5uls6rlhb6",404,"192.csv","","null","resources/maskTrios/BT2B.jpg","null","",NA,NA,NA,NA,""
"image-keyboard-response",544,504845,"0.0-3.177-2.177","1jtlf5uls6rlhb6",404,"192.csv","","null","resources/images/fishbone.png","null","",NA,NA,NA,NA,""
"image-keyboard-response",545,505162,"0.0-3.178-0.178","1jtlf5uls6rlhb6",404,"192.csv","","314.6000000089407","resources/trios/L1T4A2.jpg","39","restless",0.6,0.4,0.6,0.674665858001944,"false"
"image-keyboard-response",546,505569,"0.0-3.178-1.178","1jtlf5uls6rlhb6",404,"192.csv","","null","resources/maskTrios/BBA2.jpg","null","",NA,NA,NA,NA,""
"image-keyboard-response",547,506776,"0.0-3.178-2.178","1jtlf5uls6rlhb6",404,"192.csv","","null","resources/images/fishbone.png","null","",NA,NA,NA,NA,""
"image-keyboard-response",548,507178,"0.0-3.179-0.179","1jtlf5uls6rlhb6",404,"192.csv","","399.40000000596046","resources/trios/L1T4A2.jpg","38","restless",0.6,0.4,0.6,0.482159818360513,"false"
"image-keyboard-response",549,507582,"0.0-3.179-1.179","1jtlf5uls6rlhb6",404,"192.csv","","null","resources/maskTrios/BT4B.jpg","null","",NA,NA,NA,NA,""
"image-keyboard-response",550,508789,"0.0-3.179-2.179","1jtlf5uls6rlhb6",404,"192.csv","","null","resources/images/fishbone.png","null","",NA,NA,NA,NA,""
"image-keyboard-response",551,509433,"0.0-3.180-0.180","1jtlf5uls6rlhb6",404,"192.csv","","641.4000000059605","resources/trios/L2T2A2.jpg","37","restless",0.6,0.4,0.6,0.0528451324345787,"true"
"image-keyboard-response",552,509841,"0.0-3.180-1.180","1jtlf5uls6rlhb6",404,"192.csv","","null","resources/maskTrios/L2BB.jpg","null","",NA,NA,NA,NA,""
"image-keyboard-response",553,511048,"0.0-3.180-2.180","1jtlf5uls6rlhb6",404,"192.csv","","null","resources/images/coin2.png","null","",NA,NA,NA,NA,""
"image-keyboard-response",554,511301,"0.0-3.181-0.181","1jtlf5uls6rlhb6",404,"192.csv","","250.5","resources/trios/L2T4A2.jpg","37","restless",0.6,0.4,0.6,0.14926669487442,"true"
"image-keyboard-response",555,511709,"0.0-3.181-1.181","1jtlf5uls6rlhb6",404,"192.csv","","null","resources/maskTrios/L2BB.jpg","null","",NA,NA,NA,NA,""
"image-keyboard-response",556,512913,"0.0-3.181-2.181","1jtlf5uls6rlhb6",404,"192.csv","","null","resources/images/coin2.png","null","",NA,NA,NA,NA,""
"image-keyboard-response",557,513209,"0.0-3.182-0.182","1jtlf5uls6rlhb6",404,"192.csv","","293.29999999701977","resources/trios/L1T4A2.jpg","38","restless",0.6,0.4,0.6,0.809289286404157,"false"
"image-keyboard-response",558,513617,"0.0-3.182-1.182","1jtlf5uls6rlhb6",404,"192.csv","","null","resources/maskTrios/BT4B.jpg","null","",NA,NA,NA,NA,""
"image-keyboard-response",559,514819,"0.0-3.182-2.182","1jtlf5uls6rlhb6",404,"192.csv","","null","resources/images/fishbone.png","null","",NA,NA,NA,NA,""
"image-keyboard-response",560,515494,"0.0-3.183-0.183","1jtlf5uls6rlhb6",404,"192.csv","","672.7999999970198","resources/trios/L2T4A3.jpg","37","restless",0.6,0.4,0.6,0.884405732018626,"false"
"image-keyboard-response",561,515901,"0.0-3.183-1.183","1jtlf5uls6rlhb6",404,"192.csv","","null","resources/maskTrios/L2BB.jpg","null","",NA,NA,NA,NA,""
"image-keyboard-response",562,517108,"0.0-3.183-2.183","1jtlf5uls6rlhb6",404,"192.csv","","null","resources/images/fishbone.png","null","",NA,NA,NA,NA,""
"image-keyboard-response",563,517202,"0.0-3.184-0.184","1jtlf5uls6rlhb6",404,"192.csv","","91.1000000089407","resources/trios/L2T4A2.jpg","38","restless",0.7,0.4,0.6,0.986213318094518,"false"
"image-keyboard-response",564,517605,"0.0-3.184-1.184","1jtlf5uls6rlhb6",404,"192.csv","","null","resources/maskTrios/BT4B.jpg","null","",NA,NA,NA,NA,""
"image-keyboard-response",565,518810,"0.0-3.184-2.184","1jtlf5uls6rlhb6",404,"192.csv","","null","resources/images/fishbone.png","null","",NA,NA,NA,NA,""
"image-keyboard-response",566,518987,"0.0-3.185-0.185","1jtlf5uls6rlhb6",404,"192.csv","","174.70000000298023","resources/trios/L2T2A3.jpg","39","restless",0.7,0.4,0.6,0.0652112250780563,"true"
"image-keyboard-response",567,519395,"0.0-3.185-1.185","1jtlf5uls6rlhb6",404,"192.csv","","null","resources/maskTrios/BBA3.jpg","null","",NA,NA,NA,NA,""
"image-keyboard-response",568,520601,"0.0-3.185-2.185","1jtlf5uls6rlhb6",404,"192.csv","","null","resources/images/coin2.png","null","",NA,NA,NA,NA,""
"image-keyboard-response",569,520615,"0.0-3.186-0.186","1jtlf5uls6rlhb6",404,"192.csv","","11.700000002980232","resources/trios/L1T4A2.jpg","39","restless",0.7,0.4,0.6,0.848951536423299,"false"
"image-keyboard-response",570,521020,"0.0-3.186-1.186","1jtlf5uls6rlhb6",404,"192.csv","","null","resources/maskTrios/BBA2.jpg","null","",NA,NA,NA,NA,""
"image-keyboard-response",571,522223,"0.0-3.186-2.186","1jtlf5uls6rlhb6",404,"192.csv","","null","resources/images/fishbone.png","null","",NA,NA,NA,NA,""
"image-keyboard-response",572,522336,"0.0-3.187-0.187","1jtlf5uls6rlhb6",404,"192.csv","","109.90000000596046","resources/trios/L2T2A2.jpg","38","restless",0.7,0.4,0.6,0.219452656496177,"true"
"image-keyboard-response",573,522741,"0.0-3.187-1.187","1jtlf5uls6rlhb6",404,"192.csv","","null","resources/maskTrios/BT2B.jpg","null","",NA,NA,NA,NA,""
"image-keyboard-response",574,523946,"0.0-3.187-2.187","1jtlf5uls6rlhb6",404,"192.csv","","null","resources/images/coin2.png","null","",NA,NA,NA,NA,""
"image-keyboard-response",575,524117,"0.0-3.188-0.188","1jtlf5uls6rlhb6",404,"192.csv","","167.79999999701977","resources/trios/L1T4A2.jpg","38","restless",0.7,0.4,0.7,0.127555305761002,"true"
"image-keyboard-response",576,524520,"0.0-3.188-1.188","1jtlf5uls6rlhb6",404,"192.csv","","null","resources/maskTrios/BT4B.jpg","null","",NA,NA,NA,NA,""
"image-keyboard-response",577,525728,"0.0-3.188-2.188","1jtlf5uls6rlhb6",404,"192.csv","","null","resources/images/coin2.png","null","",NA,NA,NA,NA,""
"image-keyboard-response",578,525787,"0.0-3.189-0.189","1jtlf5uls6rlhb6",404,"192.csv","","57.29999999701977","resources/trios/L1T4A3.jpg","38","restless",0.7,0.4,0.7,0.306210294535316,"true"
"image-keyboard-response",579,526195,"0.0-3.189-1.189","1jtlf5uls6rlhb6",404,"192.csv","","null","resources/maskTrios/BT4B.jpg","null","",NA,NA,NA,NA,""
"image-keyboard-response",580,527402,"0.0-3.189-2.189","1jtlf5uls6rlhb6",404,"192.csv","","null","resources/images/coin2.png","null","",NA,NA,NA,NA,""
"image-keyboard-response",581,527638,"0.0-3.190-0.190","1jtlf5uls6rlhb6",404,"192.csv","","233.5","resources/trios/L2T4A2.jpg","37","restless",0.7,0.4,0.7,0.451788641663285,"true"
"image-keyboard-response",582,528046,"0.0-3.190-1.190","1jtlf5uls6rlhb6",404,"192.csv","","null","resources/maskTrios/L2BB.jpg","null","",NA,NA,NA,NA,""
"image-keyboard-response",583,529253,"0.0-3.190-2.190","1jtlf5uls6rlhb6",404,"192.csv","","null","resources/images/coin2.png","null","",NA,NA,NA,NA,""
"image-keyboard-response",584,529491,"0.0-3.191-0.191","1jtlf5uls6rlhb6",404,"192.csv","","236.59999999403954","resources/trios/L1T4A3.jpg","39","restless",0.7,0.4,0.7,0.914801928412839,"false"
"image-keyboard-response",585,529898,"0.0-3.191-1.191","1jtlf5uls6rlhb6",404,"192.csv","","null","resources/maskTrios/BBA3.jpg","null","",NA,NA,NA,NA,""
"image-keyboard-response",586,531101,"0.0-3.191-2.191","1jtlf5uls6rlhb6",404,"192.csv","","null","resources/images/fishbone.png","null","",NA,NA,NA,NA,""
"image-keyboard-response",587,531495,"0.0-3.192-0.192","1jtlf5uls6rlhb6",404,"192.csv","","392.1000000089407","resources/trios/L2T4A3.jpg","38","restless",0.6,0.4,0.6,0.496670999127068,"false"
"image-keyboard-response",588,531902,"0.0-3.192-1.192","1jtlf5uls6rlhb6",404,"192.csv","","null","resources/maskTrios/BT4B.jpg","null","",NA,NA,NA,NA,""
"image-keyboard-response",589,533109,"0.0-3.192-2.192","1jtlf5uls6rlhb6",404,"192.csv","","null","resources/images/fishbone.png","null","",NA,NA,NA,NA,""
"image-keyboard-response",590,533856,"0.0-3.193-0.193","1jtlf5uls6rlhb6",404,"192.csv","","745.4000000059605","resources/trios/L1T4A3.jpg","37","restless",0.6,0.4,0.6,0.826603282230143,"false"
"image-keyboard-response",591,534264,"0.0-3.193-1.193","1jtlf5uls6rlhb6",404,"192.csv","","null","resources/maskTrios/L1BB.jpg","null","",NA,NA,NA,NA,""
"image-keyboard-response",592,535469,"0.0-3.193-2.193","1jtlf5uls6rlhb6",404,"192.csv","","null","resources/images/fishbone.png","null","",NA,NA,NA,NA,""
"image-keyboard-response",593,535729,"0.0-3.194-0.194","1jtlf5uls6rlhb6",404,"192.csv","","258.30000001192093","resources/trios/L1T2A3.jpg","38","restless",0.6,0.5,0.6,0.864428176421218,"false"
"image-keyboard-response",594,536137,"0.0-3.194-1.194","1jtlf5uls6rlhb6",404,"192.csv","","null","resources/maskTrios/BT2B.jpg","null","",NA,NA,NA,NA,""
"image-keyboard-response",595,537344,"0.0-3.194-2.194","1jtlf5uls6rlhb6",404,"192.csv","","null","resources/images/fishbone.png","null","",NA,NA,NA,NA,""
"image-keyboard-response",596,537979,"0.0-3.195-0.195","1jtlf5uls6rlhb6",404,"192.csv","","633","resources/trios/L2T4A2.jpg","37","restless",0.6,0.5,0.6,0.789084545516115,"false"
"image-keyboard-response",597,538386,"0.0-3.195-1.195","1jtlf5uls6rlhb6",404,"192.csv","","null","resources/maskTrios/L2BB.jpg","null","",NA,NA,NA,NA,""
"image-keyboard-response",598,539593,"0.0-3.195-2.195","1jtlf5uls6rlhb6",404,"192.csv","","null","resources/images/fishbone.png","null","",NA,NA,NA,NA,""
"image-keyboard-response",599,540088,"0.0-3.196-0.196","1jtlf5uls6rlhb6",404,"192.csv","","492.19999998807907","resources/trios/L1T4A3.jpg","37","restless",0.6,0.5,0.6,0.181001262588116,"true"
"image-keyboard-response",600,540495,"0.0-3.196-1.196","1jtlf5uls6rlhb6",404,"192.csv","","null","resources/maskTrios/L1BB.jpg","null","",NA,NA,NA,NA,""
"image-keyboard-response",601,541702,"0.0-3.196-2.196","1jtlf5uls6rlhb6",404,"192.csv","","null","resources/images/coin2.png","null","",NA,NA,NA,NA,""
"image-keyboard-response",602,541815,"0.0-3.197-0.197","1jtlf5uls6rlhb6",404,"192.csv","","110.09999999403954","resources/trios/L1T2A3.jpg","38","restless",0.6,0.5,0.6,0.554989057869709,"false"
"image-keyboard-response",603,542219,"0.0-3.197-1.197","1jtlf5uls6rlhb6",404,"192.csv","","null","resources/maskTrios/BT2B.jpg","null","",NA,NA,NA,NA,""
"image-keyboard-response",604,543426,"0.0-3.197-2.197","1jtlf5uls6rlhb6",404,"192.csv","","null","resources/images/fishbone.png","null","",NA,NA,NA,NA,""
"image-keyboard-response",605,543441,"0.0-3.198-0.198","1jtlf5uls6rlhb6",404,"192.csv","","13.099999994039536","resources/trios/L1T2A2.jpg","37","restless",0.6,0.5,0.6,0.392475819485639,"true"
"image-keyboard-response",606,543848,"0.0-3.198-1.198","1jtlf5uls6rlhb6",404,"192.csv","","null","resources/maskTrios/L1BB.jpg","null","",NA,NA,NA,NA,""
