"trial_type","trial_index","time_elapsed","internal_node_id","subject","participantCode","walkNumber","success","rt","stimulus","key_press","test_part","leftProb","midProb","rightProb","generatedNum","correct"
"pavlovia",0,939,"0.0-0.0","ml4pf17pja54pmy",373,"19.csv","","","","","",NA,NA,NA,NA,""
"fullscreen",1,3356,"0.0-1.0","ml4pf17pja54pmy",373,"19.csv","true","","","","",NA,NA,NA,NA,""
"html-keyboard-response",2,7908,"0.0-2.0-0.0","ml4pf17pja54pmy",373,"19.csv","","4549.70000000298","<p><font size='6'>Arrrgh!</p></font><p>Can you be the best pirate? Try to find lots of gold! But beware, some islands have more gold than others, and over time, the island with the most gold may change. Can YOU figure it out? </p><font size='6'>GOOD LUCK, CAPTAIN!!!</font><p>Press any key to begin</p>","39","",NA,NA,NA,NA,""
"image-keyboard-response",3,10913,"0.0-2.0-1.0","ml4pf17pja54pmy",373,"19.csv","","null","resources/image_sets/111.png","null","",NA,NA,NA,NA,""
"image-keyboard-response",4,28376,"0.0-2.0-2.0","ml4pf17pja54pmy",373,"19.csv","","17460.79999999702","resources/image_sets/left_highlight.png","37","",NA,NA,NA,NA,""
"image-keyboard-response",5,31635,"0.0-2.0-3.0","ml4pf17pja54pmy",373,"19.csv","","3256.2000000029802","resources/image_sets/mid_highlight.png","38","",NA,NA,NA,NA,""
"image-keyboard-response",6,33480,"0.0-2.0-4.0","ml4pf17pja54pmy",373,"19.csv","","1842.699999988079","resources/image_sets/right_highlight.png","39","",NA,NA,NA,NA,""
"image-keyboard-response",7,35322,"0.0-2.0-5.0","ml4pf17pja54pmy",373,"19.csv","","1839.3999999910593","resources/image_sets/111.png","13","",NA,NA,NA,NA,""
"image-keyboard-response",8,36975,"0.0-2.0-6.0","ml4pf17pja54pmy",373,"19.csv","","1650.800000011921","resources/images/coin2.png","13","",NA,NA,NA,NA,""
"image-keyboard-response",9,40150,"0.0-2.0-7.0","ml4pf17pja54pmy",373,"19.csv","","3172.2999999970198","resources/images/fishbone.png","13","",NA,NA,NA,NA,""
"html-keyboard-response",10,43639,"0.0-2.0-8.0","ml4pf17pja54pmy",373,"19.csv","","3487.2999999970198","<p>Your first journey will be a long one, but you will get a well deserved break at the end</p><p>After the break you will have four more journeys, but each will be much shorter than the first, and you will have breaks in between each</p><p>Press Enter to begin</p>","13","",NA,NA,NA,NA,""
"image-keyboard-response",11,45311,"0.0-3.0-0.0","ml4pf17pja54pmy",373,"19.csv","","1668.8999999910593","resources/trios/L4T1A2.jpg","39","restless",0.3,0.7,0.9,0.950073436966893,"false"
"image-keyboard-response",12,45719,"0.0-3.0-1.0","ml4pf17pja54pmy",373,"19.csv","","null","resources/maskTrios/BBA2.jpg","null","",NA,NA,NA,NA,""
"image-keyboard-response",13,46927,"0.0-3.0-2.0","ml4pf17pja54pmy",373,"19.csv","","null","resources/images/fishbone.png","null","",NA,NA,NA,NA,""
"image-keyboard-response",14,48034,"0.0-3.1-0.1","ml4pf17pja54pmy",373,"19.csv","","1104","resources/trios/L2T4A1.jpg","38","restless",0.3,0.7,0.9,0.120983641088115,"true"
"image-keyboard-response",15,48442,"0.0-3.1-1.1","ml4pf17pja54pmy",373,"19.csv","","null","resources/maskTrios/BT4B.jpg","null","",NA,NA,NA,NA,""
"image-keyboard-response",16,49650,"0.0-3.1-2.1","ml4pf17pja54pmy",373,"19.csv","","null","resources/images/coin2.png","null","",NA,NA,NA,NA,""
"image-keyboard-response",17,50182,"0.0-3.2-0.2","ml4pf17pja54pmy",373,"19.csv","","529.7999999970198","resources/trios/L2T1A2.jpg","37","restless",0.3,0.7,0.9,0.578216585999978,"false"
"image-keyboard-response",18,50590,"0.0-3.2-1.2","ml4pf17pja54pmy",373,"19.csv","","null","resources/maskTrios/L2BB.jpg","null","",NA,NA,NA,NA,""
"image-keyboard-response",19,51797,"0.0-3.2-2.2","ml4pf17pja54pmy",373,"19.csv","","null","resources/images/fishbone.png","null","",NA,NA,NA,NA,""
"image-keyboard-response",20,52353,"0.0-3.3-0.3","ml4pf17pja54pmy",373,"19.csv","","553","resources/trios/L2T1A1.jpg","39","restless",0.3,0.7,0.9,0.295277144598356,"true"
"image-keyboard-response",21,52760,"0.0-3.3-1.3","ml4pf17pja54pmy",373,"19.csv","","null","resources/maskTrios/BBA1.jpg","null","",NA,NA,NA,NA,""
"image-keyboard-response",22,53968,"0.0-3.3-2.3","ml4pf17pja54pmy",373,"19.csv","","null","resources/images/coin2.png","null","",NA,NA,NA,NA,""
"image-keyboard-response",23,54409,"0.0-3.4-0.4","ml4pf17pja54pmy",373,"19.csv","","438.29999999701977","resources/trios/L2T4A1.jpg","38","restless",0.3,0.7,0.9,0.889405263189801,"false"
"image-keyboard-response",24,54817,"0.0-3.4-1.4","ml4pf17pja54pmy",373,"19.csv","","null","resources/maskTrios/BT4B.jpg","null","",NA,NA,NA,NA,""
"image-keyboard-response",25,56024,"0.0-3.4-2.4","ml4pf17pja54pmy",373,"19.csv","","null","resources/images/fishbone.png","null","",NA,NA,NA,NA,""
"image-keyboard-response",26,57216,"0.0-3.5-0.5","ml4pf17pja54pmy",373,"19.csv","","1189.300000011921","resources/trios/L2T1A2.jpg","39","restless",0.3,0.7,0.9,0.757086983645214,"true"
"image-keyboard-response",27,57624,"0.0-3.5-1.5","ml4pf17pja54pmy",373,"19.csv","","null","resources/maskTrios/BBA2.jpg","null","",NA,NA,NA,NA,""
"image-keyboard-response",28,58832,"0.0-3.5-2.5","ml4pf17pja54pmy",373,"19.csv","","null","resources/images/coin2.png","null","",NA,NA,NA,NA,""
"image-keyboard-response",29,61569,"0.0-3.6-0.6","ml4pf17pja54pmy",373,"19.csv","","2734.9000000059605","resources/trios/L4T1A1.jpg","39","restless",0.4,0.7,0.9,0.171668601851851,"true"
"image-keyboard-response",30,61977,"0.0-3.6-1.6","ml4pf17pja54pmy",373,"19.csv","","null","resources/maskTrios/BBA1.jpg","null","",NA,NA,NA,NA,""
"image-keyboard-response",31,63184,"0.0-3.6-2.6","ml4pf17pja54pmy",373,"19.csv","","null","resources/images/coin2.png","null","",NA,NA,NA,NA,""
"image-keyboard-response",32,63833,"0.0-3.7-0.7","ml4pf17pja54pmy",373,"19.csv","","646.5","resources/trios/L2T1A2.jpg","39","restless",0.4,0.7,0.9,0.33135446673514,"true"
"image-keyboard-response",33,64241,"0.0-3.7-1.7","ml4pf17pja54pmy",373,"19.csv","","null","resources/maskTrios/BBA2.jpg","null","",NA,NA,NA,NA,""
"image-keyboard-response",34,65446,"0.0-3.7-2.7","ml4pf17pja54pmy",373,"19.csv","","null","resources/images/coin2.png","null","",NA,NA,NA,NA,""
"image-keyboard-response",35,66542,"0.0-3.8-0.8","ml4pf17pja54pmy",373,"19.csv","","1093.7000000029802","resources/trios/L2T4A1.jpg","39","restless",0.4,0.7,0.9,0.583500193815305,"true"
"image-keyboard-response",36,66950,"0.0-3.8-1.8","ml4pf17pja54pmy",373,"19.csv","","null","resources/maskTrios/BBA1.jpg","null","",NA,NA,NA,NA,""
"image-keyboard-response",37,68158,"0.0-3.8-2.8","ml4pf17pja54pmy",373,"19.csv","","null","resources/images/coin2.png","null","",NA,NA,NA,NA,""
"image-keyboard-response",38,68934,"0.0-3.9-0.9","ml4pf17pja54pmy",373,"19.csv","","773.4000000059605","resources/trios/L4T1A1.jpg","39","restless",0.4,0.7,0.9,0.804294615612132,"true"
"image-keyboard-response",39,69342,"0.0-3.9-1.9","ml4pf17pja54pmy",373,"19.csv","","null","resources/maskTrios/BBA1.jpg","null","",NA,NA,NA,NA,""
"image-keyboard-response",40,70550,"0.0-3.9-2.9","ml4pf17pja54pmy",373,"19.csv","","null","resources/images/coin2.png","null","",NA,NA,NA,NA,""
"image-keyboard-response",41,71219,"0.0-3.10-0.10","ml4pf17pja54pmy",373,"19.csv","","666.7999999970198","resources/trios/L2T4A2.jpg","39","restless",0.4,0.7,0.9,0.3925771941851,"true"
"image-keyboard-response",42,71623,"0.0-3.10-1.10","ml4pf17pja54pmy",373,"19.csv","","null","resources/maskTrios/BBA2.jpg","null","",NA,NA,NA,NA,""
"image-keyboard-response",43,72828,"0.0-3.10-2.10","ml4pf17pja54pmy",373,"19.csv","","null","resources/images/coin2.png","null","",NA,NA,NA,NA,""
"image-keyboard-response",44,74248,"0.0-3.11-0.11","ml4pf17pja54pmy",373,"19.csv","","1418.1000000089407","resources/trios/L2T4A1.jpg","39","restless",0.4,0.7,0.9,0.268317406272051,"true"
"image-keyboard-response",45,74655,"0.0-3.11-1.11","ml4pf17pja54pmy",373,"19.csv","","null","resources/maskTrios/BBA1.jpg","null","",NA,NA,NA,NA,""
"image-keyboard-response",46,75863,"0.0-3.11-2.11","ml4pf17pja54pmy",373,"19.csv","","null","resources/images/coin2.png","null","",NA,NA,NA,NA,""
"image-keyboard-response",47,76625,"0.0-3.12-0.12","ml4pf17pja54pmy",373,"19.csv","","759.5","resources/trios/L4T1A1.jpg","39","restless",0.4,0.7,0.9,0.431224501393651,"true"
"image-keyboard-response",48,77031,"0.0-3.12-1.12","ml4pf17pja54pmy",373,"19.csv","","null","resources/maskTrios/BBA1.jpg","null","",NA,NA,NA,NA,""
"image-keyboard-response",49,78239,"0.0-3.12-2.12","ml4pf17pja54pmy",373,"19.csv","","null","resources/images/coin2.png","null","",NA,NA,NA,NA,""
"image-keyboard-response",50,78945,"0.0-3.13-0.13","ml4pf17pja54pmy",373,"19.csv","","703.7999999970198","resources/trios/L2T1A2.jpg","39","restless",0.4,0.6,0.8,0.0108563518528089,"true"
"image-keyboard-response",51,79348,"0.0-3.13-1.13","ml4pf17pja54pmy",373,"19.csv","","null","resources/maskTrios/BBA2.jpg","null","",NA,NA,NA,NA,""
"image-keyboard-response",52,80556,"0.0-3.13-2.13","ml4pf17pja54pmy",373,"19.csv","","null","resources/images/coin2.png","null","",NA,NA,NA,NA,""
"image-keyboard-response",53,81256,"0.0-3.14-0.14","ml4pf17pja54pmy",373,"19.csv","","697.6999999880791","resources/trios/L4T4A1.jpg","39","restless",0.4,0.6,0.8,0.0307663913243774,"true"
"image-keyboard-response",54,81659,"0.0-3.14-1.14","ml4pf17pja54pmy",373,"19.csv","","null","resources/maskTrios/BBA1.jpg","null","",NA,NA,NA,NA,""
"image-keyboard-response",55,82866,"0.0-3.14-2.14","ml4pf17pja54pmy",373,"19.csv","","null","resources/images/coin2.png","null","",NA,NA,NA,NA,""
"image-keyboard-response",56,83750,"0.0-3.15-0.15","ml4pf17pja54pmy",373,"19.csv","","880.7000000029802","resources/trios/L2T1A2.jpg","37","restless",0.4,0.6,0.8,0.975943351405884,"false"
"image-keyboard-response",57,84158,"0.0-3.15-1.15","ml4pf17pja54pmy",373,"19.csv","","null","resources/maskTrios/L2BB.jpg","null","",NA,NA,NA,NA,""
"image-keyboard-response",58,85365,"0.0-3.15-2.15","ml4pf17pja54pmy",373,"19.csv","","null","resources/images/fishbone.png","null","",NA,NA,NA,NA,""
"image-keyboard-response",59,85841,"0.0-3.16-0.16","ml4pf17pja54pmy",373,"19.csv","","473.09999999403954","resources/trios/L4T1A1.jpg","39","restless",0.4,0.6,0.8,0.645579712888608,"true"
"image-keyboard-response",60,86244,"0.0-3.16-1.16","ml4pf17pja54pmy",373,"19.csv","","null","resources/maskTrios/BBA1.jpg","null","",NA,NA,NA,NA,""
"image-keyboard-response",61,87450,"0.0-3.16-2.16","ml4pf17pja54pmy",373,"19.csv","","null","resources/images/coin2.png","null","",NA,NA,NA,NA,""
"image-keyboard-response",62,88078,"0.0-3.17-0.17","ml4pf17pja54pmy",373,"19.csv","","625.2000000029802","resources/trios/L2T1A2.jpg","39","restless",0.4,0.6,0.8,0.0398135744017372,"true"
"image-keyboard-response",63,88485,"0.0-3.17-1.17","ml4pf17pja54pmy",373,"19.csv","","null","resources/maskTrios/BBA2.jpg","null","",NA,NA,NA,NA,""
"image-keyboard-response",64,89693,"0.0-3.17-2.17","ml4pf17pja54pmy",373,"19.csv","","null","resources/images/coin2.png","null","",NA,NA,NA,NA,""
"image-keyboard-response",65,90236,"0.0-3.18-0.18","ml4pf17pja54pmy",373,"19.csv","","541","resources/trios/L2T1A1.jpg","39","restless",0.5,0.6,0.8,0.824449201535403,"false"
"image-keyboard-response",66,90644,"0.0-3.18-1.18","ml4pf17pja54pmy",373,"19.csv","","null","resources/maskTrios/BBA1.jpg","null","",NA,NA,NA,NA,""
"image-keyboard-response",67,91851,"0.0-3.18-2.18","ml4pf17pja54pmy",373,"19.csv","","null","resources/images/fishbone.png","null","",NA,NA,NA,NA,""
"image-keyboard-response",68,92522,"0.0-3.19-0.19","ml4pf17pja54pmy",373,"19.csv","","668","resources/trios/L4T1A2.jpg","39","restless",0.5,0.6,0.8,0.151833494383295,"true"
"image-keyboard-response",69,92926,"0.0-3.19-1.19","ml4pf17pja54pmy",373,"19.csv","","null","resources/maskTrios/BBA2.jpg","null","",NA,NA,NA,NA,""
"image-keyboard-response",70,94134,"0.0-3.19-2.19","ml4pf17pja54pmy",373,"19.csv","","null","resources/images/coin2.png","null","",NA,NA,NA,NA,""
"image-keyboard-response",71,94736,"0.0-3.20-0.20","ml4pf17pja54pmy",373,"19.csv","","599.9000000059605","resources/trios/L2T4A2.jpg","39","restless",0.6,0.6,0.8,0.39733758420916,"true"
"image-keyboard-response",72,95141,"0.0-3.20-1.20","ml4pf17pja54pmy",373,"19.csv","","null","resources/maskTrios/BBA2.jpg","null","",NA,NA,NA,NA,""
"image-keyboard-response",73,96348,"0.0-3.20-2.20","ml4pf17pja54pmy",373,"19.csv","","null","resources/images/coin2.png","null","",NA,NA,NA,NA,""
"image-keyboard-response",74,96772,"0.0-3.21-0.21","ml4pf17pja54pmy",373,"19.csv","","421.5","resources/trios/L2T4A1.jpg","39","restless",0.6,0.6,0.8,0.540988608633883,"true"
"image-keyboard-response",75,97179,"0.0-3.21-1.21","ml4pf17pja54pmy",373,"19.csv","","null","resources/maskTrios/BBA1.jpg","null","",NA,NA,NA,NA,""
"image-keyboard-response",76,98387,"0.0-3.21-2.21","ml4pf17pja54pmy",373,"19.csv","","null","resources/images/coin2.png","null","",NA,NA,NA,NA,""
"image-keyboard-response",77,99001,"0.0-3.22-0.22","ml4pf17pja54pmy",373,"19.csv","","610.9000000059605","resources/trios/L2T1A2.jpg","39","restless",0.6,0.6,0.8,0.924542751228816,"false"
"image-keyboard-response",78,99408,"0.0-3.22-1.22","ml4pf17pja54pmy",373,"19.csv","","null","resources/maskTrios/BBA2.jpg","null","",NA,NA,NA,NA,""
"image-keyboard-response",79,100616,"0.0-3.22-2.22","ml4pf17pja54pmy",373,"19.csv","","null","resources/images/fishbone.png","null","",NA,NA,NA,NA,""
"image-keyboard-response",80,101442,"0.0-3.23-0.23","ml4pf17pja54pmy",373,"19.csv","","824.1000000089407","resources/trios/L4T4A2.jpg","39","restless",0.6,0.6,0.8,0.956160668465809,"false"
"image-keyboard-response",81,101850,"0.0-3.23-1.23","ml4pf17pja54pmy",373,"19.csv","","null","resources/maskTrios/BBA2.jpg","null","",NA,NA,NA,NA,""
"image-keyboard-response",82,103057,"0.0-3.23-2.23","ml4pf17pja54pmy",373,"19.csv","","null","resources/images/fishbone.png","null","",NA,NA,NA,NA,""
"image-keyboard-response",83,103630,"0.0-3.24-0.24","ml4pf17pja54pmy",373,"19.csv","","570.4000000059605","resources/trios/L4T4A2.jpg","39","restless",0.6,0.6,0.8,0.838071843236159,"false"
"image-keyboard-response",84,104038,"0.0-3.24-1.24","ml4pf17pja54pmy",373,"19.csv","","null","resources/maskTrios/BBA2.jpg","null","",NA,NA,NA,NA,""
"image-keyboard-response",85,105243,"0.0-3.24-2.24","ml4pf17pja54pmy",373,"19.csv","","null","resources/images/fishbone.png","null","",NA,NA,NA,NA,""
"image-keyboard-response",86,105831,"0.0-3.25-0.25","ml4pf17pja54pmy",373,"19.csv","","585.5999999940395","resources/trios/L2T1A1.jpg","39","restless",0.6,0.6,0.8,0.0854593699852828,"true"
"image-keyboard-response",87,106239,"0.0-3.25-1.25","ml4pf17pja54pmy",373,"19.csv","","null","resources/maskTrios/BBA1.jpg","null","",NA,NA,NA,NA,""
"image-keyboard-response",88,107442,"0.0-3.25-2.25","ml4pf17pja54pmy",373,"19.csv","","null","resources/images/coin2.png","null","",NA,NA,NA,NA,""
"image-keyboard-response",89,107973,"0.0-3.26-0.26","ml4pf17pja54pmy",373,"19.csv","","528.6000000089407","resources/trios/L4T1A2.jpg","39","restless",0.6,0.5,0.8,0.346422800907216,"true"
"image-keyboard-response",90,108381,"0.0-3.26-1.26","ml4pf17pja54pmy",373,"19.csv","","null","resources/maskTrios/BBA2.jpg","null","",NA,NA,NA,NA,""
"image-keyboard-response",91,109587,"0.0-3.26-2.26","ml4pf17pja54pmy",373,"19.csv","","null","resources/images/coin2.png","null","",NA,NA,NA,NA,""
"image-keyboard-response",92,110193,"0.0-3.27-0.27","ml4pf17pja54pmy",373,"19.csv","","604.0999999940395","resources/trios/L4T4A2.jpg","39","restless",0.6,0.5,0.8,0.353440655596779,"true"
"image-keyboard-response",93,110595,"0.0-3.27-1.27","ml4pf17pja54pmy",373,"19.csv","","null","resources/maskTrios/BBA2.jpg","null","",NA,NA,NA,NA,""
"image-keyboard-response",94,111803,"0.0-3.27-2.27","ml4pf17pja54pmy",373,"19.csv","","null","resources/images/coin2.png","null","",NA,NA,NA,NA,""
"image-keyboard-response",95,112576,"0.0-3.28-0.28","ml4pf17pja54pmy",373,"19.csv","","771","resources/trios/L4T1A2.jpg","39","restless",0.6,0.5,0.8,0.587929318276486,"true"
"image-keyboard-response",96,112981,"0.0-3.28-1.28","ml4pf17pja54pmy",373,"19.csv","","null","resources/maskTrios/BBA2.jpg","null","",NA,NA,NA,NA,""
"image-keyboard-response",97,114187,"0.0-3.28-2.28","ml4pf17pja54pmy",373,"19.csv","","null","resources/images/coin2.png","null","",NA,NA,NA,NA,""
"image-keyboard-response",98,114598,"0.0-3.29-0.29","ml4pf17pja54pmy",373,"19.csv","","409.29999999701977","resources/trios/L2T4A2.jpg","39","restless",0.6,0.5,0.8,0.227535990005806,"true"
"image-keyboard-response",99,115006,"0.0-3.29-1.29","ml4pf17pja54pmy",373,"19.csv","","null","resources/maskTrios/BBA2.jpg","null","",NA,NA,NA,NA,""
"image-keyboard-response",100,116209,"0.0-3.29-2.29","ml4pf17pja54pmy",373,"19.csv","","null","resources/images/coin2.png","null","",NA,NA,NA,NA,""
"image-keyboard-response",101,117063,"0.0-3.30-0.30","ml4pf17pja54pmy",373,"19.csv","","851.8999999910593","resources/trios/L4T4A1.jpg","39","restless",0.6,0.5,0.8,0.440807637653103,"true"
"image-keyboard-response",102,117471,"0.0-3.30-1.30","ml4pf17pja54pmy",373,"19.csv","","null","resources/maskTrios/BBA1.jpg","null","",NA,NA,NA,NA,""
"image-keyboard-response",103,118677,"0.0-3.30-2.30","ml4pf17pja54pmy",373,"19.csv","","null","resources/images/coin2.png","null","",NA,NA,NA,NA,""
"image-keyboard-response",104,119576,"0.0-3.31-0.31","ml4pf17pja54pmy",373,"19.csv","","896","resources/trios/L2T1A2.jpg","39","restless",0.6,0.5,0.8,0.989124693184863,"false"
"image-keyboard-response",105,119983,"0.0-3.31-1.31","ml4pf17pja54pmy",373,"19.csv","","null","resources/maskTrios/BBA2.jpg","null","",NA,NA,NA,NA,""
"image-keyboard-response",106,121186,"0.0-3.31-2.31","ml4pf17pja54pmy",373,"19.csv","","null","resources/images/fishbone.png","null","",NA,NA,NA,NA,""
"image-keyboard-response",107,121954,"0.0-3.32-0.32","ml4pf17pja54pmy",373,"19.csv","","766.2999999970198","resources/trios/L4T4A2.jpg","39","restless",0.6,0.5,0.8,0.953679205269605,"false"
"image-keyboard-response",108,122362,"0.0-3.32-1.32","ml4pf17pja54pmy",373,"19.csv","","null","resources/maskTrios/BBA2.jpg","null","",NA,NA,NA,NA,""
"image-keyboard-response",109,123569,"0.0-3.32-2.32","ml4pf17pja54pmy",373,"19.csv","","null","resources/images/fishbone.png","null","",NA,NA,NA,NA,""
"image-keyboard-response",110,124218,"0.0-3.33-0.33","ml4pf17pja54pmy",373,"19.csv","","647.7999999970198","resources/trios/L2T4A1.jpg","39","restless",0.6,0.5,0.8,0.996439890987533,"false"
"image-keyboard-response",111,124623,"0.0-3.33-1.33","ml4pf17pja54pmy",373,"19.csv","","null","resources/maskTrios/BBA1.jpg","null","",NA,NA,NA,NA,""
"image-keyboard-response",112,125829,"0.0-3.33-2.33","ml4pf17pja54pmy",373,"19.csv","","null","resources/images/fishbone.png","null","",NA,NA,NA,NA,""
"image-keyboard-response",113,126274,"0.0-3.34-0.34","ml4pf17pja54pmy",373,"19.csv","","442.40000000596046","resources/trios/L2T4A1.jpg","37","restless",0.6,0.5,0.8,0.430352465377615,"true"
"image-keyboard-response",114,126681,"0.0-3.34-1.34","ml4pf17pja54pmy",373,"19.csv","","null","resources/maskTrios/L2BB.jpg","null","",NA,NA,NA,NA,""
"image-keyboard-response",115,127889,"0.0-3.34-2.34","ml4pf17pja54pmy",373,"19.csv","","null","resources/images/coin2.png","null","",NA,NA,NA,NA,""
"image-keyboard-response",116,128476,"0.0-3.35-0.35","ml4pf17pja54pmy",373,"19.csv","","584.8999999910593","resources/trios/L4T1A2.jpg","39","restless",0.6,0.6,0.8,0.292638832351779,"true"
"image-keyboard-response",117,128883,"0.0-3.35-1.35","ml4pf17pja54pmy",373,"19.csv","","null","resources/maskTrios/BBA2.jpg","null","",NA,NA,NA,NA,""
"image-keyboard-response",118,130089,"0.0-3.35-2.35","ml4pf17pja54pmy",373,"19.csv","","null","resources/images/coin2.png","null","",NA,NA,NA,NA,""
"image-keyboard-response",119,130246,"0.0-3.36-0.36","ml4pf17pja54pmy",373,"19.csv","","153.79999999701977","resources/trios/L4T1A1.jpg","38","restless",0.5,0.6,0.8,0.916873197562348,"false"
"image-keyboard-response",120,130653,"0.0-3.36-1.36","ml4pf17pja54pmy",373,"19.csv","","null","resources/maskTrios/BT1B.jpg","null","",NA,NA,NA,NA,""
"image-keyboard-response",121,131861,"0.0-3.36-2.36","ml4pf17pja54pmy",373,"19.csv","","null","resources/images/fishbone.png","null","",NA,NA,NA,NA,""
"image-keyboard-response",122,132339,"0.0-3.37-0.37","ml4pf17pja54pmy",373,"19.csv","","476.09999999403954","resources/trios/L4T1A1.jpg","39","restless",0.5,0.6,0.8,0.517070425000193,"true"
"image-keyboard-response",123,132747,"0.0-3.37-1.37","ml4pf17pja54pmy",373,"19.csv","","null","resources/maskTrios/BBA1.jpg","null","",NA,NA,NA,NA,""
"image-keyboard-response",124,133951,"0.0-3.37-2.37","ml4pf17pja54pmy",373,"19.csv","","null","resources/images/coin2.png","null","",NA,NA,NA,NA,""
"image-keyboard-response",125,134922,"0.0-3.38-0.38","ml4pf17pja54pmy",373,"19.csv","","968.7000000029802","resources/trios/L2T4A1.jpg","39","restless",0.5,0.6,0.7,0.626954140075143,"true"
"image-keyboard-response",126,135330,"0.0-3.38-1.38","ml4pf17pja54pmy",373,"19.csv","","null","resources/maskTrios/BBA1.jpg","null","",NA,NA,NA,NA,""
"image-keyboard-response",127,136537,"0.0-3.38-2.38","ml4pf17pja54pmy",373,"19.csv","","null","resources/images/coin2.png","null","",NA,NA,NA,NA,""
"image-keyboard-response",128,136979,"0.0-3.39-0.39","ml4pf17pja54pmy",373,"19.csv","","438.8999999910593","resources/trios/L2T1A1.jpg","37","restless",0.5,0.6,0.7,0.412170668062363,"true"
"image-keyboard-response",129,137386,"0.0-3.39-1.39","ml4pf17pja54pmy",373,"19.csv","","null","resources/maskTrios/L2BB.jpg","null","",NA,NA,NA,NA,""
"image-keyboard-response",130,138594,"0.0-3.39-2.39","ml4pf17pja54pmy",373,"19.csv","","null","resources/images/coin2.png","null","",NA,NA,NA,NA,""
"image-keyboard-response",131,138962,"0.0-3.40-0.40","ml4pf17pja54pmy",373,"19.csv","","365.5","resources/trios/L2T4A1.jpg","39","restless",0.5,0.5,0.7,0.285972060991553,"true"
"image-keyboard-response",132,139369,"0.0-3.40-1.40","ml4pf17pja54pmy",373,"19.csv","","null","resources/maskTrios/BBA1.jpg","null","",NA,NA,NA,NA,""
"image-keyboard-response",133,140577,"0.0-3.40-2.40","ml4pf17pja54pmy",373,"19.csv","","null","resources/images/coin2.png","null","",NA,NA,NA,NA,""
"image-keyboard-response",134,141014,"0.0-3.41-0.41","ml4pf17pja54pmy",373,"19.csv","","434.1000000089407","resources/trios/L4T1A1.jpg","39","restless",0.5,0.5,0.7,0.510097115468761,"true"
"image-keyboard-response",135,141421,"0.0-3.41-1.41","ml4pf17pja54pmy",373,"19.csv","","null","resources/maskTrios/BBA1.jpg","null","",NA,NA,NA,NA,""
"image-keyboard-response",136,142629,"0.0-3.41-2.41","ml4pf17pja54pmy",373,"19.csv","","null","resources/images/coin2.png","null","",NA,NA,NA,NA,""
"image-keyboard-response",137,143527,"0.0-3.42-0.42","ml4pf17pja54pmy",373,"19.csv","","895.8999999910593","resources/trios/L4T1A2.jpg","39","restless",0.5,0.5,0.7,0.699359589161116,"true"
"image-keyboard-response",138,143935,"0.0-3.42-1.42","ml4pf17pja54pmy",373,"19.csv","","null","resources/maskTrios/BBA2.jpg","null","",NA,NA,NA,NA,""
"image-keyboard-response",139,145143,"0.0-3.42-2.42","ml4pf17pja54pmy",373,"19.csv","","null","resources/images/coin2.png","null","",NA,NA,NA,NA,""
"image-keyboard-response",140,145451,"0.0-3.43-0.43","ml4pf17pja54pmy",373,"19.csv","","305.6000000089407","resources/trios/L4T4A2.jpg","39","restless",0.5,0.5,0.7,0.179839563463175,"true"
"image-keyboard-response",141,145857,"0.0-3.43-1.43","ml4pf17pja54pmy",373,"19.csv","","null","resources/maskTrios/BBA2.jpg","null","",NA,NA,NA,NA,""
"image-keyboard-response",142,147065,"0.0-3.43-2.43","ml4pf17pja54pmy",373,"19.csv","","null","resources/images/coin2.png","null","",NA,NA,NA,NA,""
"image-keyboard-response",143,147688,"0.0-3.44-0.44","ml4pf17pja54pmy",373,"19.csv","","620.7999999970198","resources/trios/L4T4A1.jpg","38","restless",0.5,0.5,0.6,0.933200941813886,"false"
"image-keyboard-response",144,148096,"0.0-3.44-1.44","ml4pf17pja54pmy",373,"19.csv","","null","resources/maskTrios/BT4B.jpg","null","",NA,NA,NA,NA,""
"image-keyboard-response",145,149300,"0.0-3.44-2.44","ml4pf17pja54pmy",373,"19.csv","","null","resources/images/fishbone.png","null","",NA,NA,NA,NA,""
"image-keyboard-response",146,149648,"0.0-3.45-0.45","ml4pf17pja54pmy",373,"19.csv","","344.5","resources/trios/L2T4A1.jpg","37","restless",0.5,0.5,0.6,0.506201959015774,"false"
"image-keyboard-response",147,150056,"0.0-3.45-1.45","ml4pf17pja54pmy",373,"19.csv","","null","resources/maskTrios/L2BB.jpg","null","",NA,NA,NA,NA,""
"image-keyboard-response",148,151260,"0.0-3.45-2.45","ml4pf17pja54pmy",373,"19.csv","","null","resources/images/fishbone.png","null","",NA,NA,NA,NA,""
"image-keyboard-response",149,151773,"0.0-3.46-0.46","ml4pf17pja54pmy",373,"19.csv","","510","resources/trios/L4T4A1.jpg","39","restless",0.4,0.5,0.6,0.247640679700567,"true"
"image-keyboard-response",150,152181,"0.0-3.46-1.46","ml4pf17pja54pmy",373,"19.csv","","null","resources/maskTrios/BBA1.jpg","null","",NA,NA,NA,NA,""
"image-keyboard-response",151,153388,"0.0-3.46-2.46","ml4pf17pja54pmy",373,"19.csv","","null","resources/images/coin2.png","null","",NA,NA,NA,NA,""
"image-keyboard-response",152,153489,"0.0-3.47-0.47","ml4pf17pja54pmy",373,"19.csv","","97.5","resources/trios/L4T4A1.jpg","39","restless",0.4,0.5,0.6,0.552958674789684,"true"
"image-keyboard-response",153,153897,"0.0-3.47-1.47","ml4pf17pja54pmy",373,"19.csv","","null","resources/maskTrios/BBA1.jpg","null","",NA,NA,NA,NA,""
"image-keyboard-response",154,155104,"0.0-3.47-2.47","ml4pf17pja54pmy",373,"19.csv","","null","resources/images/coin2.png","null","",NA,NA,NA,NA,""
"image-keyboard-response",155,155643,"0.0-3.48-0.48","ml4pf17pja54pmy",373,"19.csv","","536.2999999970198","resources/trios/L2T4A2.jpg","39","restless",0.4,0.5,0.5,0.160740999613563,"true"
"image-keyboard-response",156,156050,"0.0-3.48-1.48","ml4pf17pja54pmy",373,"19.csv","","null","resources/maskTrios/BBA2.jpg","null","",NA,NA,NA,NA,""
"image-keyboard-response",157,157256,"0.0-3.48-2.48","ml4pf17pja54pmy",373,"19.csv","","null","resources/images/coin2.png","null","",NA,NA,NA,NA,""
"image-keyboard-response",158,158595,"0.0-3.49-0.49","ml4pf17pja54pmy",373,"19.csv","","1336.7999999970198","resources/trios/L2T4A2.jpg","39","restless",0.4,0.5,0.5,0.367682215140949,"true"
"image-keyboard-response",159,159003,"0.0-3.49-1.49","ml4pf17pja54pmy",373,"19.csv","","null","resources/maskTrios/BBA2.jpg","null","",NA,NA,NA,NA,""
"image-keyboard-response",160,160206,"0.0-3.49-2.49","ml4pf17pja54pmy",373,"19.csv","","null","resources/images/coin2.png","null","",NA,NA,NA,NA,""
"image-keyboard-response",161,160853,"0.0-3.50-0.50","ml4pf17pja54pmy",373,"19.csv","","645.1000000089407","resources/trios/L4T4A1.jpg","39","restless",0.4,0.5,0.5,0.0794287226086794,"true"
"image-keyboard-response",162,161260,"0.0-3.50-1.50","ml4pf17pja54pmy",373,"19.csv","","null","resources/maskTrios/BBA1.jpg","null","",NA,NA,NA,NA,""
"image-keyboard-response",163,162467,"0.0-3.50-2.50","ml4pf17pja54pmy",373,"19.csv","","null","resources/images/coin2.png","null","",NA,NA,NA,NA,""
"image-keyboard-response",164,163172,"0.0-3.51-0.51","ml4pf17pja54pmy",373,"19.csv","","702.3999999910593","resources/trios/L2T1A1.jpg","39","restless",0.4,0.6,0.5,0.371346911352265,"true"
"image-keyboard-response",165,163579,"0.0-3.51-1.51","ml4pf17pja54pmy",373,"19.csv","","null","resources/maskTrios/BBA1.jpg","null","",NA,NA,NA,NA,""
"image-keyboard-response",166,164784,"0.0-3.51-2.51","ml4pf17pja54pmy",373,"19.csv","","null","resources/images/coin2.png","null","",NA,NA,NA,NA,""
"image-keyboard-response",167,165497,"0.0-3.52-0.52","ml4pf17pja54pmy",373,"19.csv","","710.5","resources/trios/L4T1A1.jpg","39","restless",0.4,0.6,0.5,0.0812552327540612,"true"
"image-keyboard-response",168,165900,"0.0-3.52-1.52","ml4pf17pja54pmy",373,"19.csv","","null","resources/maskTrios/BBA1.jpg","null","",NA,NA,NA,NA,""
"image-keyboard-response",169,167107,"0.0-3.52-2.52","ml4pf17pja54pmy",373,"19.csv","","null","resources/images/coin2.png","null","",NA,NA,NA,NA,""
"image-keyboard-response",170,167805,"0.0-3.53-0.53","ml4pf17pja54pmy",373,"19.csv","","695.8999999910593","resources/trios/L4T1A1.jpg","39","restless",0.4,0.6,0.5,0.992074559584228,"false"
"image-keyboard-response",171,168209,"0.0-3.53-1.53","ml4pf17pja54pmy",373,"19.csv","","null","resources/maskTrios/BBA1.jpg","null","",NA,NA,NA,NA,""
"image-keyboard-response",172,169416,"0.0-3.53-2.53","ml4pf17pja54pmy",373,"19.csv","","null","resources/images/fishbone.png","null","",NA,NA,NA,NA,""
"image-keyboard-response",173,170080,"0.0-3.54-0.54","ml4pf17pja54pmy",373,"19.csv","","662.2000000029802","resources/trios/L4T1A1.jpg","39","restless",0.4,0.6,0.5,0.568785681427394,"false"
"image-keyboard-response",174,170485,"0.0-3.54-1.54","ml4pf17pja54pmy",373,"19.csv","","null","resources/maskTrios/BBA1.jpg","null","",NA,NA,NA,NA,""
"image-keyboard-response",175,171692,"0.0-3.54-2.54","ml4pf17pja54pmy",373,"19.csv","","null","resources/images/fishbone.png","null","",NA,NA,NA,NA,""
"image-keyboard-response",176,171972,"0.0-3.55-0.55","ml4pf17pja54pmy",373,"19.csv","","278.20000000298023","resources/trios/L4T1A2.jpg","39","restless",0.4,0.6,0.5,0.041622257381313,"true"
"image-keyboard-response",177,172379,"0.0-3.55-1.55","ml4pf17pja54pmy",373,"19.csv","","null","resources/maskTrios/BBA2.jpg","null","",NA,NA,NA,NA,""
"image-keyboard-response",178,173586,"0.0-3.55-2.55","ml4pf17pja54pmy",373,"19.csv","","null","resources/images/coin2.png","null","",NA,NA,NA,NA,""
"image-keyboard-response",179,174033,"0.0-3.56-0.56","ml4pf17pja54pmy",373,"19.csv","","444.5","resources/trios/L4T4A2.jpg","39","restless",0.4,0.6,0.5,0.141644024245406,"true"
"image-keyboard-response",180,174440,"0.0-3.56-1.56","ml4pf17pja54pmy",373,"19.csv","","null","resources/maskTrios/BBA2.jpg","null","",NA,NA,NA,NA,""
"image-keyboard-response",181,175643,"0.0-3.56-2.56","ml4pf17pja54pmy",373,"19.csv","","null","resources/images/coin2.png","null","",NA,NA,NA,NA,""
"image-keyboard-response",182,176447,"0.0-3.57-0.57","ml4pf17pja54pmy",373,"19.csv","","801","resources/trios/L4T1A1.jpg","39","restless",0.4,0.6,0.5,0.477868464826305,"true"
"image-keyboard-response",183,176851,"0.0-3.57-1.57","ml4pf17pja54pmy",373,"19.csv","","null","resources/maskTrios/BBA1.jpg","null","",NA,NA,NA,NA,""
"image-keyboard-response",184,178058,"0.0-3.57-2.57","ml4pf17pja54pmy",373,"19.csv","","null","resources/images/coin2.png","null","",NA,NA,NA,NA,""
"image-keyboard-response",185,178574,"0.0-3.58-0.58","ml4pf17pja54pmy",373,"19.csv","","513.6999999880791","resources/trios/L4T4A1.jpg","39","restless",0.4,0.6,0.5,0.558772186276772,"false"
"image-keyboard-response",186,178981,"0.0-3.58-1.58","ml4pf17pja54pmy",373,"19.csv","","null","resources/maskTrios/BBA1.jpg","null","",NA,NA,NA,NA,""
"image-keyboard-response",187,180183,"0.0-3.58-2.58","ml4pf17pja54pmy",373,"19.csv","","null","resources/images/fishbone.png","null","",NA,NA,NA,NA,""
"image-keyboard-response",188,180659,"0.0-3.59-0.59","ml4pf17pja54pmy",373,"19.csv","","473.20000000298023","resources/trios/L4T4A1.jpg","39","restless",0.4,0.6,0.5,0.226549219064444,"true"
"image-keyboard-response",189,181066,"0.0-3.59-1.59","ml4pf17pja54pmy",373,"19.csv","","null","resources/maskTrios/BBA1.jpg","null","",NA,NA,NA,NA,""
"image-keyboard-response",190,182273,"0.0-3.59-2.59","ml4pf17pja54pmy",373,"19.csv","","null","resources/images/coin2.png","null","",NA,NA,NA,NA,""
"image-keyboard-response",191,185281,"0.0-3.60-0.60","ml4pf17pja54pmy",373,"19.csv","","3005.7999999970198","resources/trios/L4T1A2.jpg","39","restless",0.4,0.6,0.5,0.317994619719758,"true"
"image-keyboard-response",192,185685,"0.0-3.60-1.60","ml4pf17pja54pmy",373,"19.csv","","null","resources/maskTrios/BBA2.jpg","null","",NA,NA,NA,NA,""
"image-keyboard-response",193,186892,"0.0-3.60-2.60","ml4pf17pja54pmy",373,"19.csv","","null","resources/images/coin2.png","null","",NA,NA,NA,NA,""
"image-keyboard-response",194,187334,"0.0-3.61-0.61","ml4pf17pja54pmy",373,"19.csv","","440.59999999403954","resources/trios/L4T4A1.jpg","37","restless",0.4,0.6,0.5,0.838184324771373,"false"
"image-keyboard-response",195,187742,"0.0-3.61-1.61","ml4pf17pja54pmy",373,"19.csv","","null","resources/maskTrios/L4BB.jpg","null","",NA,NA,NA,NA,""
"image-keyboard-response",196,188948,"0.0-3.61-2.61","ml4pf17pja54pmy",373,"19.csv","","null","resources/images/fishbone.png","null","",NA,NA,NA,NA,""
"image-keyboard-response",197,189835,"0.0-3.62-0.62","ml4pf17pja54pmy",373,"19.csv","","884.6999999880791","resources/trios/L4T4A2.jpg","38","restless",0.4,0.7,0.5,0.603329576490942,"true"
"image-keyboard-response",198,190242,"0.0-3.62-1.62","ml4pf17pja54pmy",373,"19.csv","","null","resources/maskTrios/BT4B.jpg","null","",NA,NA,NA,NA,""
"image-keyboard-response",199,191449,"0.0-3.62-2.62","ml4pf17pja54pmy",373,"19.csv","","null","resources/images/coin2.png","null","",NA,NA,NA,NA,""
"image-keyboard-response",200,191942,"0.0-3.63-0.63","ml4pf17pja54pmy",373,"19.csv","","491.30000001192093","resources/trios/L2T4A1.jpg","38","restless",0.4,0.7,0.5,0.152487648572436,"true"
"image-keyboard-response",201,192346,"0.0-3.63-1.63","ml4pf17pja54pmy",373,"19.csv","","null","resources/maskTrios/BT4B.jpg","null","",NA,NA,NA,NA,""
"image-keyboard-response",202,193554,"0.0-3.63-2.63","ml4pf17pja54pmy",373,"19.csv","","null","resources/images/coin2.png","null","",NA,NA,NA,NA,""
"image-keyboard-response",203,193939,"0.0-3.64-0.64","ml4pf17pja54pmy",373,"19.csv","","382.59999999403954","resources/trios/L2T1A1.jpg","38","restless",0.4,0.7,0.5,0.171129102852035,"true"
"image-keyboard-response",204,194346,"0.0-3.64-1.64","ml4pf17pja54pmy",373,"19.csv","","null","resources/maskTrios/BT1B.jpg","null","",NA,NA,NA,NA,""
"image-keyboard-response",205,195553,"0.0-3.64-2.64","ml4pf17pja54pmy",373,"19.csv","","null","resources/images/coin2.png","null","",NA,NA,NA,NA,""
"image-keyboard-response",206,195853,"0.0-3.65-0.65","ml4pf17pja54pmy",373,"19.csv","","297.19999998807907","resources/trios/L2T4A1.jpg","37","restless",0.4,0.7,0.5,0.782310766915375,"false"
"image-keyboard-response",207,196260,"0.0-3.65-1.65","ml4pf17pja54pmy",373,"19.csv","","null","resources/maskTrios/L2BB.jpg","null","",NA,NA,NA,NA,""
"image-keyboard-response",208,197467,"0.0-3.65-2.65","ml4pf17pja54pmy",373,"19.csv","","null","resources/images/fishbone.png","null","",NA,NA,NA,NA,""
"image-keyboard-response",209,197847,"0.0-3.66-0.66","ml4pf17pja54pmy",373,"19.csv","","377.40000000596046","resources/trios/L4T4A1.jpg","39","restless",0.4,0.7,0.4,0.0170261805586431,"true"
"image-keyboard-response",210,198254,"0.0-3.66-1.66","ml4pf17pja54pmy",373,"19.csv","","null","resources/maskTrios/BBA1.jpg","null","",NA,NA,NA,NA,""
"image-keyboard-response",211,199461,"0.0-3.66-2.66","ml4pf17pja54pmy",373,"19.csv","","null","resources/images/coin2.png","null","",NA,NA,NA,NA,""
"image-keyboard-response",212,208805,"0.0-3.67-0.67","ml4pf17pja54pmy",373,"19.csv","","9342.5","resources/trios/L4T4A1.jpg","39","restless",0.4,0.7,0.4,0.995721801167931,"false"
"image-keyboard-response",213,209208,"0.0-3.67-1.67","ml4pf17pja54pmy",373,"19.csv","","null","resources/maskTrios/BBA1.jpg","null","",NA,NA,NA,NA,""
"image-keyboard-response",214,210413,"0.0-3.67-2.67","ml4pf17pja54pmy",373,"19.csv","","null","resources/images/fishbone.png","null","",NA,NA,NA,NA,""
"image-keyboard-response",215,210535,"0.0-3.68-0.68","ml4pf17pja54pmy",373,"19.csv","","119.59999999403954","resources/trios/L4T1A2.jpg","39","restless",0.4,0.7,0.4,0.281280741266083,"true"
"image-keyboard-response",216,210938,"0.0-3.68-1.68","ml4pf17pja54pmy",373,"19.csv","","null","resources/maskTrios/BBA2.jpg","null","",NA,NA,NA,NA,""
"image-keyboard-response",217,212141,"0.0-3.68-2.68","ml4pf17pja54pmy",373,"19.csv","","null","resources/images/coin2.png","null","",NA,NA,NA,NA,""
"image-keyboard-response",218,1155985,"0.0-3.69-0.69","ml4pf17pja54pmy",373,"19.csv","","182389.59999999404","resources/trios/L4T1A2.jpg","39","restless",0.4,0.7,0.4,0.38749103320152,"true"
"image-keyboard-response",219,1156387,"0.0-3.69-1.69","ml4pf17pja54pmy",373,"19.csv","","null","resources/maskTrios/BBA2.jpg","null","",NA,NA,NA,NA,""
"image-keyboard-response",220,1157592,"0.0-3.69-2.69","ml4pf17pja54pmy",373,"19.csv","","null","resources/images/coin2.png","null","",NA,NA,NA,NA,""
"image-keyboard-response",221,1158096,"0.0-3.70-0.70","ml4pf17pja54pmy",373,"19.csv","","502.5","resources/trios/L2T1A2.jpg","39","restless",0.4,0.7,0.4,0.109816516415925,"true"
"image-keyboard-response",222,1158500,"0.0-3.70-1.70","ml4pf17pja54pmy",373,"19.csv","","null","resources/maskTrios/BBA2.jpg","null","",NA,NA,NA,NA,""
"image-keyboard-response",223,1159703,"0.0-3.70-2.70","ml4pf17pja54pmy",373,"19.csv","","null","resources/images/coin2.png","null","",NA,NA,NA,NA,""
"image-keyboard-response",224,1159878,"0.0-3.71-0.71","ml4pf17pja54pmy",373,"19.csv","","174.20000000298023","resources/trios/L2T1A2.jpg","39","restless",0.4,0.7,0.4,0.24102221603948,"true"
"image-keyboard-response",225,1160283,"0.0-3.71-1.71","ml4pf17pja54pmy",373,"19.csv","","null","resources/maskTrios/BBA2.jpg","null","",NA,NA,NA,NA,""
"image-keyboard-response",226,1161485,"0.0-3.71-2.71","ml4pf17pja54pmy",373,"19.csv","","null","resources/images/coin2.png","null","",NA,NA,NA,NA,""
"image-keyboard-response",227,1161911,"0.0-3.72-0.72","ml4pf17pja54pmy",373,"19.csv","","424.80000001192093","resources/trios/L2T1A2.jpg","39","restless",0.4,0.7,0.3,0.829461126713417,"false"
"image-keyboard-response",228,1162315,"0.0-3.72-1.72","ml4pf17pja54pmy",373,"19.csv","","null","resources/maskTrios/BBA2.jpg","null","",NA,NA,NA,NA,""
"image-keyboard-response",229,1163521,"0.0-3.72-2.72","ml4pf17pja54pmy",373,"19.csv","","null","resources/images/fishbone.png","null","",NA,NA,NA,NA,""
"image-keyboard-response",230,1164532,"0.0-3.73-0.73","ml4pf17pja54pmy",373,"19.csv","","1010.4000000059605","resources/trios/L2T1A1.jpg","37","restless",0.4,0.7,0.3,0.188712600975619,"true"
"image-keyboard-response",231,1164939,"0.0-3.73-1.73","ml4pf17pja54pmy",373,"19.csv","","null","resources/maskTrios/L2BB.jpg","null","",NA,NA,NA,NA,""
"image-keyboard-response",232,1166146,"0.0-3.73-2.73","ml4pf17pja54pmy",373,"19.csv","","null","resources/images/coin2.png","null","",NA,NA,NA,NA,""
"image-keyboard-response",233,1166521,"0.0-3.74-0.74","ml4pf17pja54pmy",373,"19.csv","","373.1000000089407","resources/trios/L4T4A1.jpg","38","restless",0.4,0.7,0.4,0.982269276213286,"false"
"image-keyboard-response",234,1166926,"0.0-3.74-1.74","ml4pf17pja54pmy",373,"19.csv","","null","resources/maskTrios/BT4B.jpg","null","",NA,NA,NA,NA,""
"image-keyboard-response",235,1168132,"0.0-3.74-2.74","ml4pf17pja54pmy",373,"19.csv","","null","resources/images/fishbone.png","null","",NA,NA,NA,NA,""
"image-keyboard-response",236,1169157,"0.0-3.75-0.75","ml4pf17pja54pmy",373,"19.csv","","1022.5","resources/trios/L2T4A2.jpg","39","restless",0.4,0.7,0.4,0.402132989768062,"false"
"image-keyboard-response",237,1169562,"0.0-3.75-1.75","ml4pf17pja54pmy",373,"19.csv","","null","resources/maskTrios/BBA2.jpg","null","",NA,NA,NA,NA,""
"image-keyboard-response",238,1170768,"0.0-3.75-2.75","ml4pf17pja54pmy",373,"19.csv","","null","resources/images/fishbone.png","null","",NA,NA,NA,NA,""
"image-keyboard-response",239,1172715,"0.0-3.76-0.76","ml4pf17pja54pmy",373,"19.csv","","1944.5","resources/trios/L2T4A1.jpg","38","restless",0.4,0.8,0.4,0.378070202564965,"true"
"image-keyboard-response",240,1173122,"0.0-3.76-1.76","ml4pf17pja54pmy",373,"19.csv","","null","resources/maskTrios/BT4B.jpg","null","",NA,NA,NA,NA,""
"image-keyboard-response",241,1174327,"0.0-3.76-2.76","ml4pf17pja54pmy",373,"19.csv","","null","resources/images/coin2.png","null","",NA,NA,NA,NA,""
"image-keyboard-response",242,1175097,"0.0-3.77-0.77","ml4pf17pja54pmy",373,"19.csv","","768.5999999940395","resources/trios/L4T1A1.jpg","39","restless",0.4,0.8,0.4,0.635462242928979,"false"
"image-keyboard-response",243,1175505,"0.0-3.77-1.77","ml4pf17pja54pmy",373,"19.csv","","null","resources/maskTrios/BBA1.jpg","null","",NA,NA,NA,NA,""
"image-keyboard-response",244,1176711,"0.0-3.77-2.77","ml4pf17pja54pmy",373,"19.csv","","null","resources/images/fishbone.png","null","",NA,NA,NA,NA,""
"image-keyboard-response",245,1177173,"0.0-3.78-0.78","ml4pf17pja54pmy",373,"19.csv","","459.90000000596046","resources/trios/L4T4A2.jpg","38","restless",0.4,0.8,0.4,0.0134863495338897,"true"
"image-keyboard-response",246,1177580,"0.0-3.78-1.78","ml4pf17pja54pmy",373,"19.csv","","null","resources/maskTrios/BT4B.jpg","null","",NA,NA,NA,NA,""
"image-keyboard-response",247,1178787,"0.0-3.78-2.78","ml4pf17pja54pmy",373,"19.csv","","null","resources/images/coin2.png","null","",NA,NA,NA,NA,""
"image-keyboard-response",248,1180381,"0.0-3.79-0.79","ml4pf17pja54pmy",373,"19.csv","","1592.3999999910593","resources/trios/L4T1A2.jpg","38","restless",0.4,0.8,0.4,0.210534741422553,"true"
"image-keyboard-response",249,1180788,"0.0-3.79-1.79","ml4pf17pja54pmy",373,"19.csv","","null","resources/maskTrios/BT1B.jpg","null","",NA,NA,NA,NA,""
"image-keyboard-response",250,1181996,"0.0-3.79-2.79","ml4pf17pja54pmy",373,"19.csv","","null","resources/images/coin2.png","null","",NA,NA,NA,NA,""
"image-keyboard-response",251,1214221,"0.0-3.80-0.80","ml4pf17pja54pmy",373,"19.csv","","32225.20000000298","resources/trios/L4T1A1.jpg","39","restless",0.4,0.8,0.4,0.376734279557318,"true"
"image-keyboard-response",252,1214628,"0.0-3.80-1.80","ml4pf17pja54pmy",373,"19.csv","","null","resources/maskTrios/BBA1.jpg","null","",NA,NA,NA,NA,""
"image-keyboard-response",253,1215834,"0.0-3.80-2.80","ml4pf17pja54pmy",373,"19.csv","","null","resources/images/coin2.png","null","",NA,NA,NA,NA,""
"image-keyboard-response",254,1216471,"0.0-3.81-0.81","ml4pf17pja54pmy",373,"19.csv","","635.2999999970198","resources/trios/L4T1A2.jpg","39","restless",0.4,0.8,0.4,0.0501772354678465,"true"
"image-keyboard-response",255,1216878,"0.0-3.81-1.81","ml4pf17pja54pmy",373,"19.csv","","null","resources/maskTrios/BBA2.jpg","null","",NA,NA,NA,NA,""
"image-keyboard-response",256,1218086,"0.0-3.81-2.81","ml4pf17pja54pmy",373,"19.csv","","null","resources/images/coin2.png","null","",NA,NA,NA,NA,""
"image-keyboard-response",257,1218773,"0.0-3.82-0.82","ml4pf17pja54pmy",373,"19.csv","","684.7000000029802","resources/trios/L4T1A1.jpg","39","restless",0.4,0.8,0.4,0.572931759238006,"false"
"image-keyboard-response",258,1219181,"0.0-3.82-1.82","ml4pf17pja54pmy",373,"19.csv","","null","resources/maskTrios/BBA1.jpg","null","",NA,NA,NA,NA,""
"image-keyboard-response",259,1220388,"0.0-3.82-2.82","ml4pf17pja54pmy",373,"19.csv","","null","resources/images/fishbone.png","null","",NA,NA,NA,NA,""
"image-keyboard-response",260,1222139,"0.0-3.83-0.83","ml4pf17pja54pmy",373,"19.csv","","1749.2000000029802","resources/trios/L2T1A2.jpg","39","restless",0.4,0.8,0.4,0.809170672310149,"false"
"image-keyboard-response",261,1222546,"0.0-3.83-1.83","ml4pf17pja54pmy",373,"19.csv","","null","resources/maskTrios/BBA2.jpg","null","",NA,NA,NA,NA,""
"image-keyboard-response",262,1223753,"0.0-3.83-2.83","ml4pf17pja54pmy",373,"19.csv","","null","resources/images/fishbone.png","null","",NA,NA,NA,NA,""
"image-keyboard-response",263,1224699,"0.0-3.84-0.84","ml4pf17pja54pmy",373,"19.csv","","943.0999999940395","resources/trios/L2T1A2.jpg","37","restless",0.4,0.8,0.4,0.174216815304813,"true"
"image-keyboard-response",264,1225106,"0.0-3.84-1.84","ml4pf17pja54pmy",373,"19.csv","","null","resources/maskTrios/L2BB.jpg","null","",NA,NA,NA,NA,""
"image-keyboard-response",265,1226311,"0.0-3.84-2.84","ml4pf17pja54pmy",373,"19.csv","","null","resources/images/coin2.png","null","",NA,NA,NA,NA,""
"image-keyboard-response",266,1227478,"0.0-3.85-0.85","ml4pf17pja54pmy",373,"19.csv","","1164.2999999970198","resources/trios/L4T4A1.jpg","39","restless",0.4,0.8,0.4,0.312493485604499,"true"
"image-keyboard-response",267,1227884,"0.0-3.85-1.85","ml4pf17pja54pmy",373,"19.csv","","null","resources/maskTrios/BBA1.jpg","null","",NA,NA,NA,NA,""
"image-keyboard-response",268,1229092,"0.0-3.85-2.85","ml4pf17pja54pmy",373,"19.csv","","null","resources/images/coin2.png","null","",NA,NA,NA,NA,""
"image-keyboard-response",269,1231753,"0.0-3.86-0.86","ml4pf17pja54pmy",373,"19.csv","","2659.0999999940395","resources/trios/L4T4A1.jpg","39","restless",0.4,0.8,0.4,0.119771535747282,"true"
"image-keyboard-response",270,1232161,"0.0-3.86-1.86","ml4pf17pja54pmy",373,"19.csv","","null","resources/maskTrios/BBA1.jpg","null","",NA,NA,NA,NA,""
"image-keyboard-response",271,1233364,"0.0-3.86-2.86","ml4pf17pja54pmy",373,"19.csv","","null","resources/images/coin2.png","null","",NA,NA,NA,NA,""
"image-keyboard-response",272,1233977,"0.0-3.87-0.87","ml4pf17pja54pmy",373,"19.csv","","610.6999999880791","resources/trios/L4T4A2.jpg","39","restless",0.4,0.8,0.4,0.771662575079169,"false"
"image-keyboard-response",273,1234385,"0.0-3.87-1.87","ml4pf17pja54pmy",373,"19.csv","","null","resources/maskTrios/BBA2.jpg","null","",NA,NA,NA,NA,""
"image-keyboard-response",274,1235592,"0.0-3.87-2.87","ml4pf17pja54pmy",373,"19.csv","","null","resources/images/fishbone.png","null","",NA,NA,NA,NA,""
"image-keyboard-response",275,1239167,"0.0-3.88-0.88","ml4pf17pja54pmy",373,"19.csv","","3573.0999999940395","resources/trios/L2T1A2.jpg","39","restless",0.4,0.9,0.5,0.872030593741427,"false"
"image-keyboard-response",276,1239575,"0.0-3.88-1.88","ml4pf17pja54pmy",373,"19.csv","","null","resources/maskTrios/BBA2.jpg","null","",NA,NA,NA,NA,""
"image-keyboard-response",277,1240781,"0.0-3.88-2.88","ml4pf17pja54pmy",373,"19.csv","","null","resources/images/fishbone.png","null","",NA,NA,NA,NA,""
"image-keyboard-response",278,1241546,"0.0-3.89-0.89","ml4pf17pja54pmy",373,"19.csv","","762.2000000029802","resources/trios/L2T1A1.jpg","39","restless",0.4,0.9,0.5,0.270287082994936,"true"
"image-keyboard-response",279,1241953,"0.0-3.89-1.89","ml4pf17pja54pmy",373,"19.csv","","null","resources/maskTrios/BBA1.jpg","null","",NA,NA,NA,NA,""
"image-keyboard-response",280,1243156,"0.0-3.89-2.89","ml4pf17pja54pmy",373,"19.csv","","null","resources/images/coin2.png","null","",NA,NA,NA,NA,""
"image-keyboard-response",281,1243700,"0.0-3.90-0.90","ml4pf17pja54pmy",373,"19.csv","","542.5","resources/trios/L2T1A2.jpg","37","restless",0.4,0.9,0.5,0.109687393481186,"true"
"image-keyboard-response",282,1244105,"0.0-3.90-1.90","ml4pf17pja54pmy",373,"19.csv","","null","resources/maskTrios/L2BB.jpg","null","",NA,NA,NA,NA,""
"image-keyboard-response",283,1245312,"0.0-3.90-2.90","ml4pf17pja54pmy",373,"19.csv","","null","resources/images/coin2.png","null","",NA,NA,NA,NA,""
"image-keyboard-response",284,1249353,"0.0-3.91-0.91","ml4pf17pja54pmy",373,"19.csv","","4038.199999988079","resources/trios/L4T1A1.jpg","38","restless",0.4,0.9,0.5,0.628610582198778,"true"
"image-keyboard-response",285,1249760,"0.0-3.91-1.91","ml4pf17pja54pmy",373,"19.csv","","null","resources/maskTrios/BT1B.jpg","null","",NA,NA,NA,NA,""
"image-keyboard-response",286,1250968,"0.0-3.91-2.91","ml4pf17pja54pmy",373,"19.csv","","null","resources/images/coin2.png","null","",NA,NA,NA,NA,""
"image-keyboard-response",287,1258200,"0.0-3.92-0.92","ml4pf17pja54pmy",373,"19.csv","","7230.29999999702","resources/trios/L4T4A2.jpg","38","restless",0.4,0.9,0.5,0.944299847661288,"false"
"image-keyboard-response",288,1258604,"0.0-3.92-1.92","ml4pf17pja54pmy",373,"19.csv","","null","resources/maskTrios/BT4B.jpg","null","",NA,NA,NA,NA,""
"image-keyboard-response",289,1259809,"0.0-3.92-2.92","ml4pf17pja54pmy",373,"19.csv","","null","resources/images/fishbone.png","null","",NA,NA,NA,NA,""
"image-keyboard-response",290,1260544,"0.0-3.93-0.93","ml4pf17pja54pmy",373,"19.csv","","733.2999999970198","resources/trios/L4T1A1.jpg","39","restless",0.4,0.8,0.5,0.215964992751895,"true"
"image-keyboard-response",291,1260952,"0.0-3.93-1.93","ml4pf17pja54pmy",373,"19.csv","","null","resources/maskTrios/BBA1.jpg","null","",NA,NA,NA,NA,""
"image-keyboard-response",292,1262156,"0.0-3.93-2.93","ml4pf17pja54pmy",373,"19.csv","","null","resources/images/coin2.png","null","",NA,NA,NA,NA,""
"image-keyboard-response",293,1263780,"0.0-3.94-0.94","ml4pf17pja54pmy",373,"19.csv","","1621.8999999910593","resources/trios/L4T1A2.jpg","37","restless",0.4,0.8,0.5,0.987618155421995,"false"
"image-keyboard-response",294,1264187,"0.0-3.94-1.94","ml4pf17pja54pmy",373,"19.csv","","null","resources/maskTrios/L4BB.jpg","null","",NA,NA,NA,NA,""
"image-keyboard-response",295,1265394,"0.0-3.94-2.94","ml4pf17pja54pmy",373,"19.csv","","null","resources/images/fishbone.png","null","",NA,NA,NA,NA,""
"image-keyboard-response",296,1266924,"0.0-3.95-0.95","ml4pf17pja54pmy",373,"19.csv","","1528","resources/trios/L4T4A1.jpg","37","restless",0.4,0.8,0.5,0.0741365975537442,"true"
"image-keyboard-response",297,1267328,"0.0-3.95-1.95","ml4pf17pja54pmy",373,"19.csv","","null","resources/maskTrios/L4BB.jpg","null","",NA,NA,NA,NA,""
"image-keyboard-response",298,1268531,"0.0-3.95-2.95","ml4pf17pja54pmy",373,"19.csv","","null","resources/images/coin2.png","null","",NA,NA,NA,NA,""
"image-keyboard-response",299,1270210,"0.0-3.96-0.96","ml4pf17pja54pmy",373,"19.csv","","1676.5999999940395","resources/trios/L2T1A2.jpg","38","restless",0.4,0.8,0.5,0.894502302292181,"false"
"image-keyboard-response",300,1270617,"0.0-3.96-1.96","ml4pf17pja54pmy",373,"19.csv","","null","resources/maskTrios/BT1B.jpg","null","",NA,NA,NA,NA,""
"image-keyboard-response",301,1271822,"0.0-3.96-2.96","ml4pf17pja54pmy",373,"19.csv","","null","resources/images/fishbone.png","null","",NA,NA,NA,NA,""
"image-keyboard-response",302,1272604,"0.0-3.97-0.97","ml4pf17pja54pmy",373,"19.csv","","780.3999999910593","resources/trios/L4T4A1.jpg","39","restless",0.4,0.7,0.5,0.488347490857606,"true"
"image-keyboard-response",303,1273012,"0.0-3.97-1.97","ml4pf17pja54pmy",373,"19.csv","","null","resources/maskTrios/BBA1.jpg","null","",NA,NA,NA,NA,""
"image-keyboard-response",304,1274219,"0.0-3.97-2.97","ml4pf17pja54pmy",373,"19.csv","","null","resources/images/coin2.png","null","",NA,NA,NA,NA,""
"image-keyboard-response",305,1275408,"0.0-3.98-0.98","ml4pf17pja54pmy",373,"19.csv","","1186.2000000029802","resources/trios/L4T1A2.jpg","37","restless",0.4,0.7,0.5,0.899782270494722,"false"
"image-keyboard-response",306,1275813,"0.0-3.98-1.98","ml4pf17pja54pmy",373,"19.csv","","null","resources/maskTrios/L4BB.jpg","null","",NA,NA,NA,NA,""
"image-keyboard-response",307,1277021,"0.0-3.98-2.98","ml4pf17pja54pmy",373,"19.csv","","null","resources/images/fishbone.png","null","",NA,NA,NA,NA,""
"image-keyboard-response",308,1280096,"0.0-3.99-0.99","ml4pf17pja54pmy",373,"19.csv","","3072.800000011921","resources/trios/L2T4A2.jpg","38","restless",0.4,0.7,0.5,0.342682032560651,"true"
"image-keyboard-response",309,1280503,"0.0-3.99-1.99","ml4pf17pja54pmy",373,"19.csv","","null","resources/maskTrios/BT4B.jpg","null","",NA,NA,NA,NA,""
"image-keyboard-response",310,1281708,"0.0-3.99-2.99","ml4pf17pja54pmy",373,"19.csv","","null","resources/images/coin2.png","null","",NA,NA,NA,NA,""
"image-keyboard-response",311,1282678,"0.0-3.100-0.100","ml4pf17pja54pmy",373,"19.csv","","968.2000000029802","resources/trios/L2T1A2.jpg","39","restless",0.4,0.7,0.5,0.777631315428538,"false"
"image-keyboard-response",312,1283086,"0.0-3.100-1.100","ml4pf17pja54pmy",373,"19.csv","","null","resources/maskTrios/BBA2.jpg","null","",NA,NA,NA,NA,""
"image-keyboard-response",313,1284293,"0.0-3.100-2.100","ml4pf17pja54pmy",373,"19.csv","","null","resources/images/fishbone.png","null","",NA,NA,NA,NA,""
"image-keyboard-response",314,1284809,"0.0-3.101-0.101","ml4pf17pja54pmy",373,"19.csv","","514.2000000029802","resources/trios/L2T1A2.jpg","37","restless",0.5,0.7,0.5,0.0885801333453571,"true"
"image-keyboard-response",315,1285217,"0.0-3.101-1.101","ml4pf17pja54pmy",373,"19.csv","","null","resources/maskTrios/L2BB.jpg","null","",NA,NA,NA,NA,""
"image-keyboard-response",316,1286424,"0.0-3.101-2.101","ml4pf17pja54pmy",373,"19.csv","","null","resources/images/coin2.png","null","",NA,NA,NA,NA,""
"image-keyboard-response",317,1286555,"0.0-3.102-0.102","ml4pf17pja54pmy",373,"19.csv","","128.09999999403954","resources/trios/L2T1A2.jpg","38","restless",0.5,0.7,0.5,0.642040311991418,"true"
"image-keyboard-response",318,1286962,"0.0-3.102-1.102","ml4pf17pja54pmy",373,"19.csv","","null","resources/maskTrios/BT1B.jpg","null","",NA,NA,NA,NA,""
"image-keyboard-response",319,1288169,"0.0-3.102-2.102","ml4pf17pja54pmy",373,"19.csv","","null","resources/images/coin2.png","null","",NA,NA,NA,NA,""
"image-keyboard-response",320,1288505,"0.0-3.103-0.103","ml4pf17pja54pmy",373,"19.csv","","333.6000000089407","resources/trios/L2T1A1.jpg","39","restless",0.5,0.7,0.5,0.810902300768408,"false"
"image-keyboard-response",321,1288913,"0.0-3.103-1.103","ml4pf17pja54pmy",373,"19.csv","","null","resources/maskTrios/BBA1.jpg","null","",NA,NA,NA,NA,""
"image-keyboard-response",322,1290115,"0.0-3.103-2.103","ml4pf17pja54pmy",373,"19.csv","","null","resources/images/fishbone.png","null","",NA,NA,NA,NA,""
"image-keyboard-response",323,1290808,"0.0-3.104-0.104","ml4pf17pja54pmy",373,"19.csv","","691.1000000089407","resources/trios/L2T1A2.jpg","37","restless",0.5,0.7,0.5,0.791360952300141,"false"
"image-keyboard-response",324,1291215,"0.0-3.104-1.104","ml4pf17pja54pmy",373,"19.csv","","null","resources/maskTrios/L2BB.jpg","null","",NA,NA,NA,NA,""
"image-keyboard-response",325,1292423,"0.0-3.104-2.104","ml4pf17pja54pmy",373,"19.csv","","null","resources/images/fishbone.png","null","",NA,NA,NA,NA,""
"image-keyboard-response",326,1293158,"0.0-3.105-0.105","ml4pf17pja54pmy",373,"19.csv","","732.8999999910593","resources/trios/L2T1A1.jpg","38","restless",0.5,0.7,0.5,0.997671346206569,"false"
"image-keyboard-response",327,1293561,"0.0-3.105-1.105","ml4pf17pja54pmy",373,"19.csv","","null","resources/maskTrios/BT1B.jpg","null","",NA,NA,NA,NA,""
"image-keyboard-response",328,1294768,"0.0-3.105-2.105","ml4pf17pja54pmy",373,"19.csv","","null","resources/images/fishbone.png","null","",NA,NA,NA,NA,""
"image-keyboard-response",329,1295218,"0.0-3.106-0.106","ml4pf17pja54pmy",373,"19.csv","","448.09999999403954","resources/trios/L4T1A2.jpg","39","restless",0.5,0.7,0.5,0.88243953176744,"false"
"image-keyboard-response",330,1295625,"0.0-3.106-1.106","ml4pf17pja54pmy",373,"19.csv","","null","resources/maskTrios/BBA2.jpg","null","",NA,NA,NA,NA,""
"image-keyboard-response",331,1296832,"0.0-3.106-2.106","ml4pf17pja54pmy",373,"19.csv","","null","resources/images/fishbone.png","null","",NA,NA,NA,NA,""
"image-keyboard-response",332,1297366,"0.0-3.107-0.107","ml4pf17pja54pmy",373,"19.csv","","530.9000000059605","resources/trios/L2T4A2.jpg","37","restless",0.4,0.7,0.5,0.830952607568402,"false"
"image-keyboard-response",333,1297773,"0.0-3.107-1.107","ml4pf17pja54pmy",373,"19.csv","","null","resources/maskTrios/L2BB.jpg","null","",NA,NA,NA,NA,""
"image-keyboard-response",334,1298980,"0.0-3.107-2.107","ml4pf17pja54pmy",373,"19.csv","","null","resources/images/fishbone.png","null","",NA,NA,NA,NA,""
"image-keyboard-response",335,1300123,"0.0-3.108-0.108","ml4pf17pja54pmy",373,"19.csv","","1140.0999999940395","resources/trios/L4T1A2.jpg","39","restless",0.4,0.6,0.5,0.291835402482938,"true"
"image-keyboard-response",336,1300530,"0.0-3.108-1.108","ml4pf17pja54pmy",373,"19.csv","","null","resources/maskTrios/BBA2.jpg","null","",NA,NA,NA,NA,""
"image-keyboard-response",337,1301738,"0.0-3.108-2.108","ml4pf17pja54pmy",373,"19.csv","","null","resources/images/coin2.png","null","",NA,NA,NA,NA,""
"image-keyboard-response",338,1302282,"0.0-3.109-0.109","ml4pf17pja54pmy",373,"19.csv","","541.7999999970198","resources/trios/L2T4A1.jpg","39","restless",0.4,0.5,0.5,0.924725655210986,"false"
"image-keyboard-response",339,1302685,"0.0-3.109-1.109","ml4pf17pja54pmy",373,"19.csv","","null","resources/maskTrios/BBA1.jpg","null","",NA,NA,NA,NA,""
"image-keyboard-response",340,1303888,"0.0-3.109-2.109","ml4pf17pja54pmy",373,"19.csv","","null","resources/images/fishbone.png","null","",NA,NA,NA,NA,""
"image-keyboard-response",341,1304370,"0.0-3.110-0.110","ml4pf17pja54pmy",373,"19.csv","","479.1000000089407","resources/trios/L2T1A2.jpg","37","restless",0.4,0.4,0.5,0.318251540090062,"true"
"image-keyboard-response",342,1304774,"0.0-3.110-1.110","ml4pf17pja54pmy",373,"19.csv","","null","resources/maskTrios/L2BB.jpg","null","",NA,NA,NA,NA,""
"image-keyboard-response",343,1305981,"0.0-3.110-2.110","ml4pf17pja54pmy",373,"19.csv","","null","resources/images/coin2.png","null","",NA,NA,NA,NA,""
"image-keyboard-response",344,1306332,"0.0-3.111-0.111","ml4pf17pja54pmy",373,"19.csv","","348.20000000298023","resources/trios/L2T1A2.jpg","37","restless",0.4,0.4,0.5,0.968803940578134,"false"
"image-keyboard-response",345,1306737,"0.0-3.111-1.111","ml4pf17pja54pmy",373,"19.csv","","null","resources/maskTrios/L2BB.jpg","null","",NA,NA,NA,NA,""
"image-keyboard-response",346,1307942,"0.0-3.111-2.111","ml4pf17pja54pmy",373,"19.csv","","null","resources/images/fishbone.png","null","",NA,NA,NA,NA,""
"image-keyboard-response",347,1308139,"0.0-3.112-0.112","ml4pf17pja54pmy",373,"19.csv","","194.6000000089407","resources/trios/L4T4A2.jpg","37","restless",0.5,0.4,0.5,0.753268503221507,"false"
"image-keyboard-response",348,1308546,"0.0-3.112-1.112","ml4pf17pja54pmy",373,"19.csv","","null","resources/maskTrios/L4BB.jpg","null","",NA,NA,NA,NA,""
"image-keyboard-response",349,1309753,"0.0-3.112-2.112","ml4pf17pja54pmy",373,"19.csv","","null","resources/images/fishbone.png","null","",NA,NA,NA,NA,""
"image-keyboard-response",350,1310302,"0.0-3.113-0.113","ml4pf17pja54pmy",373,"19.csv","","547.4000000059605","resources/trios/L4T1A2.jpg","37","restless",0.5,0.4,0.4,0.366183858096688,"true"
"image-keyboard-response",351,1310710,"0.0-3.113-1.113","ml4pf17pja54pmy",373,"19.csv","","null","resources/maskTrios/L4BB.jpg","null","",NA,NA,NA,NA,""
"image-keyboard-response",352,1311917,"0.0-3.113-2.113","ml4pf17pja54pmy",373,"19.csv","","null","resources/images/coin2.png","null","",NA,NA,NA,NA,""
"image-keyboard-response",353,1313108,"0.0-3.114-0.114","ml4pf17pja54pmy",373,"19.csv","","1188.0999999940395","resources/trios/L4T1A1.jpg","38","restless",0.5,0.4,0.4,0.930224984961612,"false"
"image-keyboard-response",354,1313512,"0.0-3.114-1.114","ml4pf17pja54pmy",373,"19.csv","","null","resources/maskTrios/BT1B.jpg","null","",NA,NA,NA,NA,""
"image-keyboard-response",355,1314719,"0.0-3.114-2.114","ml4pf17pja54pmy",373,"19.csv","","null","resources/images/fishbone.png","null","",NA,NA,NA,NA,""
"image-keyboard-response",356,1314884,"0.0-3.115-0.115","ml4pf17pja54pmy",373,"19.csv","","162.40000000596046","resources/trios/L2T1A2.jpg","39","restless",0.4,0.4,0.5,0.220791110451492,"true"
"image-keyboard-response",357,1315291,"0.0-3.115-1.115","ml4pf17pja54pmy",373,"19.csv","","null","resources/maskTrios/BBA2.jpg","null","",NA,NA,NA,NA,""
"image-keyboard-response",358,1316495,"0.0-3.115-2.115","ml4pf17pja54pmy",373,"19.csv","","null","resources/images/coin2.png","null","",NA,NA,NA,NA,""
"image-keyboard-response",359,1316864,"0.0-3.116-0.116","ml4pf17pja54pmy",373,"19.csv","","366.79999999701977","resources/trios/L4T1A1.jpg","39","restless",0.4,0.4,0.5,0.635196710849076,"false"
"image-keyboard-response",360,1317271,"0.0-3.116-1.116","ml4pf17pja54pmy",373,"19.csv","","null","resources/maskTrios/BBA1.jpg","null","",NA,NA,NA,NA,""
"image-keyboard-response",361,1318474,"0.0-3.116-2.116","ml4pf17pja54pmy",373,"19.csv","","null","resources/images/fishbone.png","null","",NA,NA,NA,NA,""
"image-keyboard-response",362,1319089,"0.0-3.117-0.117","ml4pf17pja54pmy",373,"19.csv","","613.0999999940395","resources/trios/L2T4A2.jpg","39","restless",0.4,0.4,0.5,0.23875249138922,"true"
"image-keyboard-response",363,1319496,"0.0-3.117-1.117","ml4pf17pja54pmy",373,"19.csv","","null","resources/maskTrios/BBA2.jpg","null","",NA,NA,NA,NA,""
"image-keyboard-response",364,1320699,"0.0-3.117-2.117","ml4pf17pja54pmy",373,"19.csv","","null","resources/images/coin2.png","null","",NA,NA,NA,NA,""
"image-keyboard-response",365,1331295,"0.0-3.118-0.118","ml4pf17pja54pmy",373,"19.csv","","10593.20000000298","resources/trios/L2T1A2.jpg","39","restless",0.5,0.4,0.5,0.977657801406133,"false"
"image-keyboard-response",366,1331702,"0.0-3.118-1.118","ml4pf17pja54pmy",373,"19.csv","","null","resources/maskTrios/BBA2.jpg","null","",NA,NA,NA,NA,""
"image-keyboard-response",367,1332905,"0.0-3.118-2.118","ml4pf17pja54pmy",373,"19.csv","","null","resources/images/fishbone.png","null","",NA,NA,NA,NA,""
"image-keyboard-response",368,1334605,"0.0-3.119-0.119","ml4pf17pja54pmy",373,"19.csv","","1697","resources/trios/L4T4A2.jpg","39","restless",0.5,0.4,0.5,0.907019625375701,"false"
"image-keyboard-response",369,1335011,"0.0-3.119-1.119","ml4pf17pja54pmy",373,"19.csv","","null","resources/maskTrios/BBA2.jpg","null","",NA,NA,NA,NA,""
"image-keyboard-response",370,1336218,"0.0-3.119-2.119","ml4pf17pja54pmy",373,"19.csv","","null","resources/images/fishbone.png","null","",NA,NA,NA,NA,""
"image-keyboard-response",371,1337765,"0.0-3.120-0.120","ml4pf17pja54pmy",373,"19.csv","","1544.3999999910593","resources/trios/L4T4A2.jpg","39","restless",0.5,0.4,0.5,0.806238312696159,"false"
"image-keyboard-response",372,1338172,"0.0-3.120-1.120","ml4pf17pja54pmy",373,"19.csv","","null","resources/maskTrios/BBA2.jpg","null","",NA,NA,NA,NA,""
"image-keyboard-response",373,1339379,"0.0-3.120-2.120","ml4pf17pja54pmy",373,"19.csv","","null","resources/images/fishbone.png","null","",NA,NA,NA,NA,""
"image-keyboard-response",374,1343550,"0.0-3.121-0.121","ml4pf17pja54pmy",373,"19.csv","","4168.800000011921","resources/trios/L4T4A2.jpg","39","restless",0.5,0.4,0.5,0.153204436251267,"true"
"image-keyboard-response",375,1343957,"0.0-3.121-1.121","ml4pf17pja54pmy",373,"19.csv","","null","resources/maskTrios/BBA2.jpg","null","",NA,NA,NA,NA,""
"image-keyboard-response",376,1345165,"0.0-3.121-2.121","ml4pf17pja54pmy",373,"19.csv","","null","resources/images/coin2.png","null","",NA,NA,NA,NA,""
"image-keyboard-response",377,1381144,"0.0-3.122-0.122","ml4pf17pja54pmy",373,"19.csv","","35977.79999999702","resources/trios/L4T1A1.jpg","39","restless",0.5,0.4,0.6,0.353540788849807,"true"
"image-keyboard-response",378,1381548,"0.0-3.122-1.122","ml4pf17pja54pmy",373,"19.csv","","null","resources/maskTrios/BBA1.jpg","null","",NA,NA,NA,NA,""
"image-keyboard-response",379,1382755,"0.0-3.122-2.122","ml4pf17pja54pmy",373,"19.csv","","null","resources/images/coin2.png","null","",NA,NA,NA,NA,""
"image-keyboard-response",380,1386290,"0.0-3.123-0.123","ml4pf17pja54pmy",373,"19.csv","","3533","resources/trios/L2T1A2.jpg","37","restless",0.5,0.4,0.6,0.81476787353655,"false"
"image-keyboard-response",381,1386697,"0.0-3.123-1.123","ml4pf17pja54pmy",373,"19.csv","","null","resources/maskTrios/L2BB.jpg","null","",NA,NA,NA,NA,""
"image-keyboard-response",382,1387904,"0.0-3.123-2.123","ml4pf17pja54pmy",373,"19.csv","","null","resources/images/fishbone.png","null","",NA,NA,NA,NA,""
"image-keyboard-response",383,1388708,"0.0-3.124-0.124","ml4pf17pja54pmy",373,"19.csv","","801.9000000059605","resources/trios/L4T1A1.jpg","38","restless",0.5,0.4,0.6,0.792615584634848,"false"
"image-keyboard-response",384,1389116,"0.0-3.124-1.124","ml4pf17pja54pmy",373,"19.csv","","null","resources/maskTrios/BT1B.jpg","null","",NA,NA,NA,NA,""
"image-keyboard-response",385,1390320,"0.0-3.124-2.124","ml4pf17pja54pmy",373,"19.csv","","null","resources/images/fishbone.png","null","",NA,NA,NA,NA,""
"image-keyboard-response",386,1392021,"0.0-3.125-0.125","ml4pf17pja54pmy",373,"19.csv","","1699.300000011921","resources/trios/L2T1A1.jpg","39","restless",0.6,0.4,0.6,0.634937829216787,"false"
"image-keyboard-response",387,1392428,"0.0-3.125-1.125","ml4pf17pja54pmy",373,"19.csv","","null","resources/maskTrios/BBA1.jpg","null","",NA,NA,NA,NA,""
"image-keyboard-response",388,1393635,"0.0-3.125-2.125","ml4pf17pja54pmy",373,"19.csv","","null","resources/images/fishbone.png","null","",NA,NA,NA,NA,""
"image-keyboard-response",389,1396164,"0.0-3.126-0.126","ml4pf17pja54pmy",373,"19.csv","","2526.8999999910593","resources/trios/L2T4A1.jpg","39","restless",0.5,0.3,0.6,0.724917253350075,"false"
"image-keyboard-response",390,1396572,"0.0-3.126-1.126","ml4pf17pja54pmy",373,"19.csv","","null","resources/maskTrios/BBA1.jpg","null","",NA,NA,NA,NA,""
"image-keyboard-response",391,1397779,"0.0-3.126-2.126","ml4pf17pja54pmy",373,"19.csv","","null","resources/images/fishbone.png","null","",NA,NA,NA,NA,""
"image-keyboard-response",392,1399775,"0.0-3.127-0.127","ml4pf17pja54pmy",373,"19.csv","","1993.2999999970198","resources/trios/L2T4A2.jpg","37","restless",0.5,0.3,0.6,0.490348856255532,"true"
"image-keyboard-response",393,1400182,"0.0-3.127-1.127","ml4pf17pja54pmy",373,"19.csv","","null","resources/maskTrios/L2BB.jpg","null","",NA,NA,NA,NA,""
"image-keyboard-response",394,1401389,"0.0-3.127-2.127","ml4pf17pja54pmy",373,"19.csv","","null","resources/images/coin2.png","null","",NA,NA,NA,NA,""
"image-keyboard-response",395,1402246,"0.0-3.128-0.128","ml4pf17pja54pmy",373,"19.csv","","853.8000000119209","resources/trios/L2T1A2.jpg","38","restless",0.5,0.3,0.6,0.92075398626728,"false"
"image-keyboard-response",396,1402650,"0.0-3.128-1.128","ml4pf17pja54pmy",373,"19.csv","","null","resources/maskTrios/BT1B.jpg","null","",NA,NA,NA,NA,""
"image-keyboard-response",397,1403856,"0.0-3.128-2.128","ml4pf17pja54pmy",373,"19.csv","","null","resources/images/fishbone.png","null","",NA,NA,NA,NA,""
"image-keyboard-response",398,1404241,"0.0-3.129-0.129","ml4pf17pja54pmy",373,"19.csv","","385.1000000089407","resources/trios/L4T1A2.jpg","39","restless",0.5,0.3,0.6,0.871530699284262,"false"
"image-keyboard-response",399,1404643,"0.0-3.129-1.129","ml4pf17pja54pmy",373,"19.csv","","null","resources/maskTrios/BBA2.jpg","null","",NA,NA,NA,NA,""
"image-keyboard-response",400,1405847,"0.0-3.129-2.129","ml4pf17pja54pmy",373,"19.csv","","null","resources/images/fishbone.png","null","",NA,NA,NA,NA,""
"image-keyboard-response",401,1406298,"0.0-3.130-0.130","ml4pf17pja54pmy",373,"19.csv","","450.09999999403954","resources/trios/L4T1A1.jpg","37","restless",0.5,0.3,0.6,0.617418556100608,"false"
"image-keyboard-response",402,1406704,"0.0-3.130-1.130","ml4pf17pja54pmy",373,"19.csv","","null","resources/maskTrios/L4BB.jpg","null","",NA,NA,NA,NA,""
"image-keyboard-response",403,1407911,"0.0-3.130-2.130","ml4pf17pja54pmy",373,"19.csv","","null","resources/images/fishbone.png","null","",NA,NA,NA,NA,""
"image-keyboard-response",404,1409534,"0.0-3.131-0.131","ml4pf17pja54pmy",373,"19.csv","","1622.7999999970198","resources/trios/L4T4A1.jpg","39","restless",0.6,0.3,0.6,0.190175831982117,"true"
"image-keyboard-response",405,1409939,"0.0-3.131-1.131","ml4pf17pja54pmy",373,"19.csv","","null","resources/maskTrios/BBA1.jpg","null","",NA,NA,NA,NA,""
"image-keyboard-response",406,1411145,"0.0-3.131-2.131","ml4pf17pja54pmy",373,"19.csv","","null","resources/images/coin2.png","null","",NA,NA,NA,NA,""
"image-keyboard-response",407,1411858,"0.0-3.132-0.132","ml4pf17pja54pmy",373,"19.csv","","710.9000000059605","resources/trios/L4T1A2.jpg","39","restless",0.6,0.3,0.6,0.0802828541758442,"true"
"image-keyboard-response",408,1412265,"0.0-3.132-1.132","ml4pf17pja54pmy",373,"19.csv","","null","resources/maskTrios/BBA2.jpg","null","",NA,NA,NA,NA,""
"image-keyboard-response",409,1413468,"0.0-3.132-2.132","ml4pf17pja54pmy",373,"19.csv","","null","resources/images/coin2.png","null","",NA,NA,NA,NA,""
"image-keyboard-response",410,1414197,"0.0-3.133-0.133","ml4pf17pja54pmy",373,"19.csv","","725.9000000059605","resources/trios/L2T1A2.jpg","39","restless",0.6,0.2,0.6,0.303533615869472,"true"
"image-keyboard-response",411,1414600,"0.0-3.133-1.133","ml4pf17pja54pmy",373,"19.csv","","null","resources/maskTrios/BBA2.jpg","null","",NA,NA,NA,NA,""
"image-keyboard-response",412,1415807,"0.0-3.133-2.133","ml4pf17pja54pmy",373,"19.csv","","null","resources/images/coin2.png","null","",NA,NA,NA,NA,""
"image-keyboard-response",413,1415842,"0.0-3.134-0.134","ml4pf17pja54pmy",373,"19.csv","","32.70000000298023","resources/trios/L2T1A2.jpg","39","restless",0.6,0.2,0.6,0.787010945508538,"false"
"image-keyboard-response",414,1416249,"0.0-3.134-1.134","ml4pf17pja54pmy",373,"19.csv","","null","resources/maskTrios/BBA2.jpg","null","",NA,NA,NA,NA,""
"image-keyboard-response",415,1417457,"0.0-3.134-2.134","ml4pf17pja54pmy",373,"19.csv","","null","resources/images/fishbone.png","null","",NA,NA,NA,NA,""
"image-keyboard-response",416,1417509,"0.0-3.135-0.135","ml4pf17pja54pmy",373,"19.csv","","49.5","resources/trios/L4T1A1.jpg","38","restless",0.6,0.2,0.6,0.629277123858956,"false"
"image-keyboard-response",417,1417916,"0.0-3.135-1.135","ml4pf17pja54pmy",373,"19.csv","","null","resources/maskTrios/BT1B.jpg","null","",NA,NA,NA,NA,""
"image-keyboard-response",418,1419120,"0.0-3.135-2.135","ml4pf17pja54pmy",373,"19.csv","","null","resources/images/fishbone.png","null","",NA,NA,NA,NA,""
"image-keyboard-response",419,1419203,"0.0-3.136-0.136","ml4pf17pja54pmy",373,"19.csv","","79.70000000298023","resources/trios/L4T1A2.jpg","38","restless",0.6,0.2,0.6,0.72650865513654,"false"
"image-keyboard-response",420,1419610,"0.0-3.136-1.136","ml4pf17pja54pmy",373,"19.csv","","null","resources/maskTrios/BT1B.jpg","null","",NA,NA,NA,NA,""
"image-keyboard-response",421,1420817,"0.0-3.136-2.136","ml4pf17pja54pmy",373,"19.csv","","null","resources/images/fishbone.png","null","",NA,NA,NA,NA,""
"image-keyboard-response",422,1421675,"0.0-3.137-0.137","ml4pf17pja54pmy",373,"19.csv","","856","resources/trios/L4T1A2.jpg","38","restless",0.6,0.2,0.6,0.968079338244822,"false"
"image-keyboard-response",423,1422083,"0.0-3.137-1.137","ml4pf17pja54pmy",373,"19.csv","","null","resources/maskTrios/BT1B.jpg","null","",NA,NA,NA,NA,""
"image-keyboard-response",424,1423288,"0.0-3.137-2.137","ml4pf17pja54pmy",373,"19.csv","","null","resources/images/fishbone.png","null","",NA,NA,NA,NA,""
"image-keyboard-response",425,1424369,"0.0-3.138-0.138","ml4pf17pja54pmy",373,"19.csv","","1080.1000000089407","resources/trios/L2T4A1.jpg","37","restless",0.6,0.2,0.6,0.608783097282946,"false"
"image-keyboard-response",426,1424777,"0.0-3.138-1.138","ml4pf17pja54pmy",373,"19.csv","","null","resources/maskTrios/L2BB.jpg","null","",NA,NA,NA,NA,""
"image-keyboard-response",427,1425984,"0.0-3.138-2.138","ml4pf17pja54pmy",373,"19.csv","","null","resources/images/fishbone.png","null","",NA,NA,NA,NA,""
"image-keyboard-response",428,1426156,"0.0-3.139-0.139","ml4pf17pja54pmy",373,"19.csv","","169.6000000089407","resources/trios/L2T1A2.jpg","39","restless",0.6,0.2,0.6,0.895013540528326,"false"
"image-keyboard-response",429,1426560,"0.0-3.139-1.139","ml4pf17pja54pmy",373,"19.csv","","null","resources/maskTrios/BBA2.jpg","null","",NA,NA,NA,NA,""
"image-keyboard-response",430,1427767,"0.0-3.139-2.139","ml4pf17pja54pmy",373,"19.csv","","null","resources/images/fishbone.png","null","",NA,NA,NA,NA,""
"image-keyboard-response",431,1428474,"0.0-3.140-0.140","ml4pf17pja54pmy",373,"19.csv","","704.5999999940395","resources/trios/L2T4A2.jpg","39","restless",0.5,0.2,0.7,0.468893293408783,"true"
"image-keyboard-response",432,1428880,"0.0-3.140-1.140","ml4pf17pja54pmy",373,"19.csv","","null","resources/maskTrios/BBA2.jpg","null","",NA,NA,NA,NA,""
"image-keyboard-response",433,1430088,"0.0-3.140-2.140","ml4pf17pja54pmy",373,"19.csv","","null","resources/images/coin2.png","null","",NA,NA,NA,NA,""
"image-keyboard-response",434,1430725,"0.0-3.141-0.141","ml4pf17pja54pmy",373,"19.csv","","634.3999999910593","resources/trios/L2T1A2.jpg","39","restless",0.5,0.2,0.7,0.876201303777101,"false"
"image-keyboard-response",435,1431132,"0.0-3.141-1.141","ml4pf17pja54pmy",373,"19.csv","","null","resources/maskTrios/BBA2.jpg","null","",NA,NA,NA,NA,""
"image-keyboard-response",436,1432336,"0.0-3.141-2.141","ml4pf17pja54pmy",373,"19.csv","","null","resources/images/fishbone.png","null","",NA,NA,NA,NA,""
"image-keyboard-response",437,1437648,"0.0-3.142-0.142","ml4pf17pja54pmy",373,"19.csv","","5309.29999999702","resources/trios/L2T1A1.jpg","39","restless",0.5,0.2,0.7,0.461307690222386,"true"
"image-keyboard-response",438,1438055,"0.0-3.142-1.142","ml4pf17pja54pmy",373,"19.csv","","null","resources/maskTrios/BBA1.jpg","null","",NA,NA,NA,NA,""
"image-keyboard-response",439,1439260,"0.0-3.142-2.142","ml4pf17pja54pmy",373,"19.csv","","null","resources/images/coin2.png","null","",NA,NA,NA,NA,""
"image-keyboard-response",440,1444222,"0.0-3.143-0.143","ml4pf17pja54pmy",373,"19.csv","","4959.100000008941","resources/trios/L4T4A1.jpg","39","restless",0.5,0.2,0.7,0.053401268766637,"true"
"image-keyboard-response",441,1444629,"0.0-3.143-1.143","ml4pf17pja54pmy",373,"19.csv","","null","resources/maskTrios/BBA1.jpg","null","",NA,NA,NA,NA,""
"image-keyboard-response",442,1445837,"0.0-3.143-2.143","ml4pf17pja54pmy",373,"19.csv","","null","resources/images/coin2.png","null","",NA,NA,NA,NA,""
"image-keyboard-response",443,1446628,"0.0-3.144-0.144","ml4pf17pja54pmy",373,"19.csv","","789","resources/trios/L2T4A1.jpg","39","restless",0.5,0.2,0.7,0.423854214739221,"true"
"image-keyboard-response",444,1447036,"0.0-3.144-1.144","ml4pf17pja54pmy",373,"19.csv","","null","resources/maskTrios/BBA1.jpg","null","",NA,NA,NA,NA,""
"image-keyboard-response",445,1448238,"0.0-3.144-2.144","ml4pf17pja54pmy",373,"19.csv","","null","resources/images/coin2.png","null","",NA,NA,NA,NA,""
"image-keyboard-response",446,1448875,"0.0-3.145-0.145","ml4pf17pja54pmy",373,"19.csv","","634.5","resources/trios/L2T1A1.jpg","39","restless",0.5,0.2,0.7,0.59538818417044,"true"
"image-keyboard-response",447,1449280,"0.0-3.145-1.145","ml4pf17pja54pmy",373,"19.csv","","null","resources/maskTrios/BBA1.jpg","null","",NA,NA,NA,NA,""
"image-keyboard-response",448,1450488,"0.0-3.145-2.145","ml4pf17pja54pmy",373,"19.csv","","null","resources/images/coin2.png","null","",NA,NA,NA,NA,""
"image-keyboard-response",449,1451292,"0.0-3.146-0.146","ml4pf17pja54pmy",373,"19.csv","","801.6000000089407","resources/trios/L2T4A1.jpg","37","restless",0.4,0.2,0.7,0.336872385254147,"true"
"image-keyboard-response",450,1451699,"0.0-3.146-1.146","ml4pf17pja54pmy",373,"19.csv","","null","resources/maskTrios/L2BB.jpg","null","",NA,NA,NA,NA,""
"image-keyboard-response",451,1452906,"0.0-3.146-2.146","ml4pf17pja54pmy",373,"19.csv","","null","resources/images/coin2.png","null","",NA,NA,NA,NA,""
"image-keyboard-response",452,1453411,"0.0-3.147-0.147","ml4pf17pja54pmy",373,"19.csv","","502.40000000596046","resources/trios/L2T1A1.jpg","38","restless",0.4,0.2,0.8,0.478605484057038,"false"
"image-keyboard-response",453,1453816,"0.0-3.147-1.147","ml4pf17pja54pmy",373,"19.csv","","null","resources/maskTrios/BT1B.jpg","null","",NA,NA,NA,NA,""
"image-keyboard-response",454,1455022,"0.0-3.147-2.147","ml4pf17pja54pmy",373,"19.csv","","null","resources/images/fishbone.png","null","",NA,NA,NA,NA,""
"image-keyboard-response",455,1456226,"0.0-3.148-0.148","ml4pf17pja54pmy",373,"19.csv","","1201.7999999970198","resources/trios/L2T1A1.jpg","39","restless",0.4,0.3,0.7,0.34960395100164,"true"
"image-keyboard-response",456,1456634,"0.0-3.148-1.148","ml4pf17pja54pmy",373,"19.csv","","null","resources/maskTrios/BBA1.jpg","null","",NA,NA,NA,NA,""
"image-keyboard-response",457,1457837,"0.0-3.148-2.148","ml4pf17pja54pmy",373,"19.csv","","null","resources/images/coin2.png","null","",NA,NA,NA,NA,""
"image-keyboard-response",458,1458626,"0.0-3.149-0.149","ml4pf17pja54pmy",373,"19.csv","","786.6999999880791","resources/trios/L2T4A1.jpg","39","restless",0.4,0.3,0.7,0.0774801927494793,"true"
"image-keyboard-response",459,1459034,"0.0-3.149-1.149","ml4pf17pja54pmy",373,"19.csv","","null","resources/maskTrios/BBA1.jpg","null","",NA,NA,NA,NA,""
"image-keyboard-response",460,1460241,"0.0-3.149-2.149","ml4pf17pja54pmy",373,"19.csv","","null","resources/images/coin2.png","null","",NA,NA,NA,NA,""
"image-keyboard-response",461,1461043,"0.0-3.150-0.150","ml4pf17pja54pmy",373,"19.csv","","799.9000000059605","resources/trios/L4T1A2.jpg","39","restless",0.4,0.3,0.7,0.324050069480478,"true"
"image-keyboard-response",462,1461449,"0.0-3.150-1.150","ml4pf17pja54pmy",373,"19.csv","","null","resources/maskTrios/BBA2.jpg","null","",NA,NA,NA,NA,""
"image-keyboard-response",463,1462653,"0.0-3.150-2.150","ml4pf17pja54pmy",373,"19.csv","","null","resources/images/coin2.png","null","",NA,NA,NA,NA,""
"image-keyboard-response",464,1463299,"0.0-3.151-0.151","ml4pf17pja54pmy",373,"19.csv","","643.7000000029802","resources/trios/L4T1A1.jpg","39","restless",0.4,0.3,0.7,0.440585058180289,"true"
"image-keyboard-response",465,1463707,"0.0-3.151-1.151","ml4pf17pja54pmy",373,"19.csv","","null","resources/maskTrios/BBA1.jpg","null","",NA,NA,NA,NA,""
"image-keyboard-response",466,1464914,"0.0-3.151-2.151","ml4pf17pja54pmy",373,"19.csv","","null","resources/images/coin2.png","null","",NA,NA,NA,NA,""
"image-keyboard-response",467,1466514,"0.0-3.152-0.152","ml4pf17pja54pmy",373,"19.csv","","1597.7000000029802","resources/trios/L4T1A2.jpg","39","restless",0.4,0.3,0.7,0.766554592906538,"false"
"image-keyboard-response",468,1466920,"0.0-3.152-1.152","ml4pf17pja54pmy",373,"19.csv","","null","resources/maskTrios/BBA2.jpg","null","",NA,NA,NA,NA,""
"image-keyboard-response",469,1468123,"0.0-3.152-2.152","ml4pf17pja54pmy",373,"19.csv","","null","resources/images/fishbone.png","null","",NA,NA,NA,NA,""
"image-keyboard-response",470,1468184,"0.0-3.153-0.153","ml4pf17pja54pmy",373,"19.csv","","59","resources/trios/L2T4A2.jpg","39","restless",0.4,0.3,0.7,0.280848747885037,"true"
"image-keyboard-response",471,1468591,"0.0-3.153-1.153","ml4pf17pja54pmy",373,"19.csv","","null","resources/maskTrios/BBA2.jpg","null","",NA,NA,NA,NA,""
"image-keyboard-response",472,1469799,"0.0-3.153-2.153","ml4pf17pja54pmy",373,"19.csv","","null","resources/images/coin2.png","null","",NA,NA,NA,NA,""
"image-keyboard-response",473,1469854,"0.0-3.154-0.154","ml4pf17pja54pmy",373,"19.csv","","53.599999994039536","resources/trios/L4T1A1.jpg","39","restless",0.4,0.3,0.7,0.186681637547797,"true"
"image-keyboard-response",474,1470262,"0.0-3.154-1.154","ml4pf17pja54pmy",373,"19.csv","","null","resources/maskTrios/BBA1.jpg","null","",NA,NA,NA,NA,""
"image-keyboard-response",475,1471469,"0.0-3.154-2.154","ml4pf17pja54pmy",373,"19.csv","","null","resources/images/coin2.png","null","",NA,NA,NA,NA,""
"image-keyboard-response",476,1472338,"0.0-3.155-0.155","ml4pf17pja54pmy",373,"19.csv","","867.7000000029802","resources/trios/L4T1A1.jpg","39","restless",0.4,0.4,0.7,0.933889465172109,"false"
"image-keyboard-response",477,1472745,"0.0-3.155-1.155","ml4pf17pja54pmy",373,"19.csv","","null","resources/maskTrios/BBA1.jpg","null","",NA,NA,NA,NA,""
"image-keyboard-response",478,1473952,"0.0-3.155-2.155","ml4pf17pja54pmy",373,"19.csv","","null","resources/images/fishbone.png","null","",NA,NA,NA,NA,""
"image-keyboard-response",479,1475007,"0.0-3.156-0.156","ml4pf17pja54pmy",373,"19.csv","","1052.0999999940395","resources/trios/L4T4A1.jpg","39","restless",0.5,0.4,0.7,0.413930731468264,"true"
"image-keyboard-response",480,1475414,"0.0-3.156-1.156","ml4pf17pja54pmy",373,"19.csv","","null","resources/maskTrios/BBA1.jpg","null","",NA,NA,NA,NA,""
"image-keyboard-response",481,1476619,"0.0-3.156-2.156","ml4pf17pja54pmy",373,"19.csv","","null","resources/images/coin2.png","null","",NA,NA,NA,NA,""
"image-keyboard-response",482,1477007,"0.0-3.157-0.157","ml4pf17pja54pmy",373,"19.csv","","385.59999999403954","resources/trios/L2T1A2.jpg","39","restless",0.5,0.4,0.7,0.122441250497424,"true"
"image-keyboard-response",483,1477414,"0.0-3.157-1.157","ml4pf17pja54pmy",373,"19.csv","","null","resources/maskTrios/BBA2.jpg","null","",NA,NA,NA,NA,""
"image-keyboard-response",484,1478622,"0.0-3.157-2.157","ml4pf17pja54pmy",373,"19.csv","","null","resources/images/coin2.png","null","",NA,NA,NA,NA,""
"image-keyboard-response",485,1479017,"0.0-3.158-0.158","ml4pf17pja54pmy",373,"19.csv","","392.69999998807907","resources/trios/L4T4A2.jpg","38","restless",0.4,0.4,0.7,0.348400634763435,"true"
"image-keyboard-response",486,1479424,"0.0-3.158-1.158","ml4pf17pja54pmy",373,"19.csv","","null","resources/maskTrios/BT4B.jpg","null","",NA,NA,NA,NA,""
"image-keyboard-response",487,1480630,"0.0-3.158-2.158","ml4pf17pja54pmy",373,"19.csv","","null","resources/images/coin2.png","null","",NA,NA,NA,NA,""
"image-keyboard-response",488,1481053,"0.0-3.159-0.159","ml4pf17pja54pmy",373,"19.csv","","420.79999999701977","resources/trios/L4T1A1.jpg","39","restless",0.4,0.5,0.7,0.313292800201087,"true"
"image-keyboard-response",489,1481460,"0.0-3.159-1.159","ml4pf17pja54pmy",373,"19.csv","","null","resources/maskTrios/BBA1.jpg","null","",NA,NA,NA,NA,""
"image-keyboard-response",490,1482664,"0.0-3.159-2.159","ml4pf17pja54pmy",373,"19.csv","","null","resources/images/coin2.png","null","",NA,NA,NA,NA,""
"image-keyboard-response",491,1482851,"0.0-3.160-0.160","ml4pf17pja54pmy",373,"19.csv","","184.3999999910593","resources/trios/L4T1A1.jpg","39","restless",0.4,0.5,0.7,0.110036638662899,"true"
"image-keyboard-response",492,1483258,"0.0-3.160-1.160","ml4pf17pja54pmy",373,"19.csv","","null","resources/maskTrios/BBA1.jpg","null","",NA,NA,NA,NA,""
"image-keyboard-response",493,1484465,"0.0-3.160-2.160","ml4pf17pja54pmy",373,"19.csv","","null","resources/images/coin2.png","null","",NA,NA,NA,NA,""
"image-keyboard-response",494,1484736,"0.0-3.161-0.161","ml4pf17pja54pmy",373,"19.csv","","269","resources/trios/L4T1A2.jpg","39","restless",0.4,0.6,0.7,0.316350817691744,"true"
"image-keyboard-response",495,1485143,"0.0-3.161-1.161","ml4pf17pja54pmy",373,"19.csv","","null","resources/maskTrios/BBA2.jpg","null","",NA,NA,NA,NA,""
"image-keyboard-response",496,1486351,"0.0-3.161-2.161","ml4pf17pja54pmy",373,"19.csv","","null","resources/images/coin2.png","null","",NA,NA,NA,NA,""
"image-keyboard-response",497,1487681,"0.0-3.162-0.162","ml4pf17pja54pmy",373,"19.csv","","1328.0999999940395","resources/trios/L2T1A2.jpg","39","restless",0.4,0.6,0.7,0.658157246400847,"true"
"image-keyboard-response",498,1488087,"0.0-3.162-1.162","ml4pf17pja54pmy",373,"19.csv","","null","resources/maskTrios/BBA2.jpg","null","",NA,NA,NA,NA,""
"image-keyboard-response",499,1489294,"0.0-3.162-2.162","ml4pf17pja54pmy",373,"19.csv","","null","resources/images/coin2.png","null","",NA,NA,NA,NA,""
"image-keyboard-response",500,1490236,"0.0-3.163-0.163","ml4pf17pja54pmy",373,"19.csv","","940","resources/trios/L2T4A1.jpg","39","restless",0.4,0.6,0.7,0.198268085675644,"true"
"image-keyboard-response",501,1490638,"0.0-3.163-1.163","ml4pf17pja54pmy",373,"19.csv","","null","resources/maskTrios/BBA1.jpg","null","",NA,NA,NA,NA,""
"image-keyboard-response",502,1491846,"0.0-3.163-2.163","ml4pf17pja54pmy",373,"19.csv","","null","resources/images/coin2.png","null","",NA,NA,NA,NA,""
"image-keyboard-response",503,1492880,"0.0-3.164-0.164","ml4pf17pja54pmy",373,"19.csv","","1032.4000000059605","resources/trios/L4T1A1.jpg","38","restless",0.4,0.6,0.7,0.507999152591336,"true"
"image-keyboard-response",504,1493287,"0.0-3.164-1.164","ml4pf17pja54pmy",373,"19.csv","","null","resources/maskTrios/BT1B.jpg","null","",NA,NA,NA,NA,""
"image-keyboard-response",505,1494493,"0.0-3.164-2.164","ml4pf17pja54pmy",373,"19.csv","","null","resources/images/coin2.png","null","",NA,NA,NA,NA,""
"image-keyboard-response",506,1496501,"0.0-3.165-0.165","ml4pf17pja54pmy",373,"19.csv","","2006.7999999970198","resources/trios/L4T1A2.jpg","38","restless",0.4,0.6,0.7,0.725842403939398,"false"
"image-keyboard-response",507,1496905,"0.0-3.165-1.165","ml4pf17pja54pmy",373,"19.csv","","null","resources/maskTrios/BT1B.jpg","null","",NA,NA,NA,NA,""
"image-keyboard-response",508,1498112,"0.0-3.165-2.165","ml4pf17pja54pmy",373,"19.csv","","null","resources/images/fishbone.png","null","",NA,NA,NA,NA,""
"image-keyboard-response",509,1498135,"0.0-3.166-0.166","ml4pf17pja54pmy",373,"19.csv","","20.700000002980232","resources/trios/L2T4A2.jpg","39","restless",0.4,0.6,0.7,0.394814773667201,"true"
"image-keyboard-response",510,1498539,"0.0-3.166-1.166","ml4pf17pja54pmy",373,"19.csv","","null","resources/maskTrios/BBA2.jpg","null","",NA,NA,NA,NA,""
"image-keyboard-response",511,1499745,"0.0-3.166-2.166","ml4pf17pja54pmy",373,"19.csv","","null","resources/images/coin2.png","null","",NA,NA,NA,NA,""
"image-keyboard-response",512,1500037,"0.0-3.167-0.167","ml4pf17pja54pmy",373,"19.csv","","290.40000000596046","resources/trios/L4T1A2.jpg","39","restless",0.4,0.6,0.7,0.189921870302533,"true"
"image-keyboard-response",513,1500444,"0.0-3.167-1.167","ml4pf17pja54pmy",373,"19.csv","","null","resources/maskTrios/BBA2.jpg","null","",NA,NA,NA,NA,""
"image-keyboard-response",514,1501648,"0.0-3.167-2.167","ml4pf17pja54pmy",373,"19.csv","","null","resources/images/coin2.png","null","",NA,NA,NA,NA,""
"image-keyboard-response",515,1503989,"0.0-3.168-0.168","ml4pf17pja54pmy",373,"19.csv","","2338.7999999970198","resources/trios/L4T1A1.jpg","39","restless",0.5,0.5,0.7,0.227670358479771,"true"
"image-keyboard-response",516,1504397,"0.0-3.168-1.168","ml4pf17pja54pmy",373,"19.csv","","null","resources/maskTrios/BBA1.jpg","null","",NA,NA,NA,NA,""
"image-keyboard-response",517,1505604,"0.0-3.168-2.168","ml4pf17pja54pmy",373,"19.csv","","null","resources/images/coin2.png","null","",NA,NA,NA,NA,""
"image-keyboard-response",518,1506383,"0.0-3.169-0.169","ml4pf17pja54pmy",373,"19.csv","","776.8999999910593","resources/trios/L2T1A1.jpg","39","restless",0.5,0.5,0.7,0.622627177394403,"true"
"image-keyboard-response",519,1506790,"0.0-3.169-1.169","ml4pf17pja54pmy",373,"19.csv","","null","resources/maskTrios/BBA1.jpg","null","",NA,NA,NA,NA,""
"image-keyboard-response",520,1507998,"0.0-3.169-2.169","ml4pf17pja54pmy",373,"19.csv","","null","resources/images/coin2.png","null","",NA,NA,NA,NA,""
"image-keyboard-response",521,1508540,"0.0-3.170-0.170","ml4pf17pja54pmy",373,"19.csv","","539.7000000029802","resources/trios/L4T1A2.jpg","39","restless",0.5,0.5,0.8,0.566119829764223,"true"
"image-keyboard-response",522,1508943,"0.0-3.170-1.170","ml4pf17pja54pmy",373,"19.csv","","null","resources/maskTrios/BBA2.jpg","null","",NA,NA,NA,NA,""
"image-keyboard-response",523,1510151,"0.0-3.170-2.170","ml4pf17pja54pmy",373,"19.csv","","null","resources/images/coin2.png","null","",NA,NA,NA,NA,""
"image-keyboard-response",524,1510446,"0.0-3.171-0.171","ml4pf17pja54pmy",373,"19.csv","","292.70000000298023","resources/trios/L2T4A2.jpg","39","restless",0.5,0.5,0.8,0.354464451288149,"true"
"image-keyboard-response",525,1510850,"0.0-3.171-1.171","ml4pf17pja54pmy",373,"19.csv","","null","resources/maskTrios/BBA2.jpg","null","",NA,NA,NA,NA,""
"image-keyboard-response",526,1512053,"0.0-3.171-2.171","ml4pf17pja54pmy",373,"19.csv","","null","resources/images/coin2.png","null","",NA,NA,NA,NA,""
"image-keyboard-response",527,1512345,"0.0-3.172-0.172","ml4pf17pja54pmy",373,"19.csv","","290.1000000089407","resources/trios/L4T1A2.jpg","39","restless",0.5,0.5,0.8,0.279023332467953,"true"
"image-keyboard-response",528,1512752,"0.0-3.172-1.172","ml4pf17pja54pmy",373,"19.csv","","null","resources/maskTrios/BBA2.jpg","null","",NA,NA,NA,NA,""
"image-keyboard-response",529,1513960,"0.0-3.172-2.172","ml4pf17pja54pmy",373,"19.csv","","null","resources/images/coin2.png","null","",NA,NA,NA,NA,""
"image-keyboard-response",530,1514897,"0.0-3.173-0.173","ml4pf17pja54pmy",373,"19.csv","","934.7999999970198","resources/trios/L4T4A2.jpg","39","restless",0.5,0.5,0.8,0.290925030353273,"true"
"image-keyboard-response",531,1515300,"0.0-3.173-1.173","ml4pf17pja54pmy",373,"19.csv","","null","resources/maskTrios/BBA2.jpg","null","",NA,NA,NA,NA,""
"image-keyboard-response",532,1516503,"0.0-3.173-2.173","ml4pf17pja54pmy",373,"19.csv","","null","resources/images/coin2.png","null","",NA,NA,NA,NA,""
"image-keyboard-response",533,1516531,"0.0-3.174-0.174","ml4pf17pja54pmy",373,"19.csv","","25.599999994039536","resources/trios/L2T1A2.jpg","39","restless",0.5,0.5,0.8,0.347843146399273,"true"
"image-keyboard-response",534,1516937,"0.0-3.174-1.174","ml4pf17pja54pmy",373,"19.csv","","null","resources/maskTrios/BBA2.jpg","null","",NA,NA,NA,NA,""
"image-keyboard-response",535,1518140,"0.0-3.174-2.174","ml4pf17pja54pmy",373,"19.csv","","null","resources/images/coin2.png","null","",NA,NA,NA,NA,""
"image-keyboard-response",536,1518424,"0.0-3.175-0.175","ml4pf17pja54pmy",373,"19.csv","","281.29999999701977","resources/trios/L2T1A1.jpg","39","restless",0.5,0.5,0.8,0.901685747139271,"false"
"image-keyboard-response",537,1518832,"0.0-3.175-1.175","ml4pf17pja54pmy",373,"19.csv","","null","resources/maskTrios/BBA1.jpg","null","",NA,NA,NA,NA,""
"image-keyboard-response",538,1520039,"0.0-3.175-2.175","ml4pf17pja54pmy",373,"19.csv","","null","resources/images/fishbone.png","null","",NA,NA,NA,NA,""
"image-keyboard-response",539,1520289,"0.0-3.176-0.176","ml4pf17pja54pmy",373,"19.csv","","248.09999999403954","resources/trios/L2T1A2.jpg","39","restless",0.5,0.5,0.8,0.564402541087728,"true"
"image-keyboard-response",540,1520696,"0.0-3.176-1.176","ml4pf17pja54pmy",373,"19.csv","","null","resources/maskTrios/BBA2.jpg","null","",NA,NA,NA,NA,""
"image-keyboard-response",541,1521904,"0.0-3.176-2.176","ml4pf17pja54pmy",373,"19.csv","","null","resources/images/coin2.png","null","",NA,NA,NA,NA,""
"image-keyboard-response",542,1522652,"0.0-3.177-0.177","ml4pf17pja54pmy",373,"19.csv","","746","resources/trios/L2T1A2.jpg","39","restless",0.5,0.5,0.8,0.0344736896837134,"true"
"image-keyboard-response",543,1523057,"0.0-3.177-1.177","ml4pf17pja54pmy",373,"19.csv","","null","resources/maskTrios/BBA2.jpg","null","",NA,NA,NA,NA,""
"image-keyboard-response",544,1524264,"0.0-3.177-2.177","ml4pf17pja54pmy",373,"19.csv","","null","resources/images/coin2.png","null","",NA,NA,NA,NA,""
"image-keyboard-response",545,1524747,"0.0-3.178-0.178","ml4pf17pja54pmy",373,"19.csv","","480","resources/trios/L4T1A2.jpg","39","restless",0.5,0.5,0.8,0.799345562384223,"true"
"image-keyboard-response",546,1525154,"0.0-3.178-1.178","ml4pf17pja54pmy",373,"19.csv","","null","resources/maskTrios/BBA2.jpg","null","",NA,NA,NA,NA,""
"image-keyboard-response",547,1526359,"0.0-3.178-2.178","ml4pf17pja54pmy",373,"19.csv","","null","resources/images/coin2.png","null","",NA,NA,NA,NA,""
"image-keyboard-response",548,1531081,"0.0-3.179-0.179","ml4pf17pja54pmy",373,"19.csv","","4720.0999999940395","resources/trios/L4T1A1.jpg","39","restless",0.5,0.5,0.8,0.939870152050029,"false"
"image-keyboard-response",549,1531489,"0.0-3.179-1.179","ml4pf17pja54pmy",373,"19.csv","","null","resources/maskTrios/BBA1.jpg","null","",NA,NA,NA,NA,""
"image-keyboard-response",550,1532696,"0.0-3.179-2.179","ml4pf17pja54pmy",373,"19.csv","","null","resources/images/fishbone.png","null","",NA,NA,NA,NA,""
"image-keyboard-response",551,1533441,"0.0-3.180-0.180","ml4pf17pja54pmy",373,"19.csv","","743.5","resources/trios/L2T4A1.jpg","38","restless",0.5,0.5,0.8,0.684137441876439,"false"
"image-keyboard-response",552,1533849,"0.0-3.180-1.180","ml4pf17pja54pmy",373,"19.csv","","null","resources/maskTrios/BT4B.jpg","null","",NA,NA,NA,NA,""
"image-keyboard-response",553,1535052,"0.0-3.180-2.180","ml4pf17pja54pmy",373,"19.csv","","null","resources/images/fishbone.png","null","",NA,NA,NA,NA,""
"image-keyboard-response",554,1535497,"0.0-3.181-0.181","ml4pf17pja54pmy",373,"19.csv","","442","resources/trios/L4T4A2.jpg","37","restless",0.5,0.5,0.8,0.794103907083705,"false"
"image-keyboard-response",555,1535904,"0.0-3.181-1.181","ml4pf17pja54pmy",373,"19.csv","","null","resources/maskTrios/L4BB.jpg","null","",NA,NA,NA,NA,""
"image-keyboard-response",556,1537111,"0.0-3.181-2.181","ml4pf17pja54pmy",373,"19.csv","","null","resources/images/fishbone.png","null","",NA,NA,NA,NA,""
"image-keyboard-response",557,1537298,"0.0-3.182-0.182","ml4pf17pja54pmy",373,"19.csv","","185.29999999701977","resources/trios/L4T4A1.jpg","39","restless",0.5,0.5,0.8,0.350223856601333,"true"
"image-keyboard-response",558,1537703,"0.0-3.182-1.182","ml4pf17pja54pmy",373,"19.csv","","null","resources/maskTrios/BBA1.jpg","null","",NA,NA,NA,NA,""
"image-keyboard-response",559,1538911,"0.0-3.182-2.182","ml4pf17pja54pmy",373,"19.csv","","null","resources/images/coin2.png","null","",NA,NA,NA,NA,""
"image-keyboard-response",560,1539738,"0.0-3.183-0.183","ml4pf17pja54pmy",373,"19.csv","","825","resources/trios/L2T4A1.jpg","39","restless",0.5,0.5,0.8,0.589404521570311,"true"
"image-keyboard-response",561,1540143,"0.0-3.183-1.183","ml4pf17pja54pmy",373,"19.csv","","null","resources/maskTrios/BBA1.jpg","null","",NA,NA,NA,NA,""
"image-keyboard-response",562,1541351,"0.0-3.183-2.183","ml4pf17pja54pmy",373,"19.csv","","null","resources/images/coin2.png","null","",NA,NA,NA,NA,""
"image-keyboard-response",563,1541749,"0.0-3.184-0.184","ml4pf17pja54pmy",373,"19.csv","","396.20000000298023","resources/trios/L4T1A2.jpg","38","restless",0.5,0.4,0.8,0.277257034760071,"true"
"image-keyboard-response",564,1542153,"0.0-3.184-1.184","ml4pf17pja54pmy",373,"19.csv","","null","resources/maskTrios/BT1B.jpg","null","",NA,NA,NA,NA,""
"image-keyboard-response",565,1543357,"0.0-3.184-2.184","ml4pf17pja54pmy",373,"19.csv","","null","resources/images/coin2.png","null","",NA,NA,NA,NA,""
"image-keyboard-response",566,1543886,"0.0-3.185-0.185","ml4pf17pja54pmy",373,"19.csv","","526.7000000029802","resources/trios/L2T4A1.jpg","38","restless",0.5,0.4,0.8,0.64293030886526,"false"
"image-keyboard-response",567,1544293,"0.0-3.185-1.185","ml4pf17pja54pmy",373,"19.csv","","null","resources/maskTrios/BT4B.jpg","null","",NA,NA,NA,NA,""
"image-keyboard-response",568,1545500,"0.0-3.185-2.185","ml4pf17pja54pmy",373,"19.csv","","null","resources/images/fishbone.png","null","",NA,NA,NA,NA,""
"image-keyboard-response",569,1545637,"0.0-3.186-0.186","ml4pf17pja54pmy",373,"19.csv","","134.09999999403954","resources/trios/L4T1A1.jpg","39","restless",0.5,0.4,0.8,0.651755268135244,"true"
"image-keyboard-response",570,1546044,"0.0-3.186-1.186","ml4pf17pja54pmy",373,"19.csv","","null","resources/maskTrios/BBA1.jpg","null","",NA,NA,NA,NA,""
"image-keyboard-response",571,1547252,"0.0-3.186-2.186","ml4pf17pja54pmy",373,"19.csv","","null","resources/images/coin2.png","null","",NA,NA,NA,NA,""
"image-keyboard-response",572,1548239,"0.0-3.187-0.187","ml4pf17pja54pmy",373,"19.csv","","985.1000000089407","resources/trios/L2T4A1.jpg","37","restless",0.5,0.4,0.8,0.651160679999666,"false"
"image-keyboard-response",573,1548643,"0.0-3.187-1.187","ml4pf17pja54pmy",373,"19.csv","","null","resources/maskTrios/L2BB.jpg","null","",NA,NA,NA,NA,""
"image-keyboard-response",574,1549850,"0.0-3.187-2.187","ml4pf17pja54pmy",373,"19.csv","","null","resources/images/fishbone.png","null","",NA,NA,NA,NA,""
"image-keyboard-response",575,1550438,"0.0-3.188-0.188","ml4pf17pja54pmy",373,"19.csv","","585.2999999970198","resources/trios/L2T4A2.jpg","39","restless",0.5,0.5,0.8,0.105107574678311,"true"
"image-keyboard-response",576,1550846,"0.0-3.188-1.188","ml4pf17pja54pmy",373,"19.csv","","null","resources/maskTrios/BBA2.jpg","null","",NA,NA,NA,NA,""
"image-keyboard-response",577,1552053,"0.0-3.188-2.188","ml4pf17pja54pmy",373,"19.csv","","null","resources/images/coin2.png","null","",NA,NA,NA,NA,""
"image-keyboard-response",578,1552888,"0.0-3.189-0.189","ml4pf17pja54pmy",373,"19.csv","","832.6000000089407","resources/trios/L2T4A1.jpg","39","restless",0.5,0.5,0.8,0.742159135560422,"true"
"image-keyboard-response",579,1553291,"0.0-3.189-1.189","ml4pf17pja54pmy",373,"19.csv","","null","resources/maskTrios/BBA1.jpg","null","",NA,NA,NA,NA,""
"image-keyboard-response",580,1554493,"0.0-3.189-2.189","ml4pf17pja54pmy",373,"19.csv","","null","resources/images/coin2.png","null","",NA,NA,NA,NA,""
"image-keyboard-response",581,1556421,"0.0-3.190-0.190","ml4pf17pja54pmy",373,"19.csv","","1925.2999999970198","resources/trios/L2T1A2.jpg","39","restless",0.5,0.5,0.8,0.764826613480097,"true"
"image-keyboard-response",582,1556828,"0.0-3.190-1.190","ml4pf17pja54pmy",373,"19.csv","","null","resources/maskTrios/BBA2.jpg","null","",NA,NA,NA,NA,""
"image-keyboard-response",583,1558035,"0.0-3.190-2.190","ml4pf17pja54pmy",373,"19.csv","","null","resources/images/coin2.png","null","",NA,NA,NA,NA,""
"image-keyboard-response",584,1558555,"0.0-3.191-0.191","ml4pf17pja54pmy",373,"19.csv","","518.7000000029802","resources/trios/L2T1A2.jpg","39","restless",0.5,0.5,0.8,0.731275877537518,"true"
"image-keyboard-response",585,1558962,"0.0-3.191-1.191","ml4pf17pja54pmy",373,"19.csv","","null","resources/maskTrios/BBA2.jpg","null","",NA,NA,NA,NA,""
"image-keyboard-response",586,1560169,"0.0-3.191-2.191","ml4pf17pja54pmy",373,"19.csv","","null","resources/images/coin2.png","null","",NA,NA,NA,NA,""
"image-keyboard-response",587,1561074,"0.0-3.192-0.192","ml4pf17pja54pmy",373,"19.csv","","902","resources/trios/L4T1A2.jpg","39","restless",0.5,0.4,0.8,0.458660904286896,"true"
"image-keyboard-response",588,1561481,"0.0-3.192-1.192","ml4pf17pja54pmy",373,"19.csv","","null","resources/maskTrios/BBA2.jpg","null","",NA,NA,NA,NA,""
"image-keyboard-response",589,1562689,"0.0-3.192-2.192","ml4pf17pja54pmy",373,"19.csv","","null","resources/images/coin2.png","null","",NA,NA,NA,NA,""
"image-keyboard-response",590,1563120,"0.0-3.193-0.193","ml4pf17pja54pmy",373,"19.csv","","428.5","resources/trios/L4T4A2.jpg","39","restless",0.5,0.4,0.7,0.193095013161531,"true"
"image-keyboard-response",591,1563524,"0.0-3.193-1.193","ml4pf17pja54pmy",373,"19.csv","","null","resources/maskTrios/BBA2.jpg","null","",NA,NA,NA,NA,""
"image-keyboard-response",592,1564732,"0.0-3.193-2.193","ml4pf17pja54pmy",373,"19.csv","","null","resources/images/coin2.png","null","",NA,NA,NA,NA,""
"image-keyboard-response",593,1564878,"0.0-3.194-0.194","ml4pf17pja54pmy",373,"19.csv","","144.29999999701977","resources/trios/L2T4A1.jpg","39","restless",0.5,0.4,0.7,0.429434056715051,"true"
"image-keyboard-response",594,1565285,"0.0-3.194-1.194","ml4pf17pja54pmy",373,"19.csv","","null","resources/maskTrios/BBA1.jpg","null","",NA,NA,NA,NA,""
"image-keyboard-response",595,1566491,"0.0-3.194-2.194","ml4pf17pja54pmy",373,"19.csv","","null","resources/images/coin2.png","null","",NA,NA,NA,NA,""
"image-keyboard-response",596,1567924,"0.0-3.195-0.195","ml4pf17pja54pmy",373,"19.csv","","1430.5","resources/trios/L2T1A2.jpg","39","restless",0.5,0.4,0.7,0.704812656695383,"false"
"image-keyboard-response",597,1568328,"0.0-3.195-1.195","ml4pf17pja54pmy",373,"19.csv","","null","resources/maskTrios/BBA2.jpg","null","",NA,NA,NA,NA,""
"image-keyboard-response",598,1569530,"0.0-3.195-2.195","ml4pf17pja54pmy",373,"19.csv","","null","resources/images/fishbone.png","null","",NA,NA,NA,NA,""
"image-keyboard-response",599,1569910,"0.0-3.196-0.196","ml4pf17pja54pmy",373,"19.csv","","376.90000000596046","resources/trios/L2T4A2.jpg","37","restless",0.5,0.4,0.7,0.0891312513237816,"true"
"image-keyboard-response",600,1570317,"0.0-3.196-1.196","ml4pf17pja54pmy",373,"19.csv","","null","resources/maskTrios/L2BB.jpg","null","",NA,NA,NA,NA,""
"image-keyboard-response",601,1571522,"0.0-3.196-2.196","ml4pf17pja54pmy",373,"19.csv","","null","resources/images/coin2.png","null","",NA,NA,NA,NA,""
"image-keyboard-response",602,1571548,"0.0-3.197-0.197","ml4pf17pja54pmy",373,"19.csv","","23.400000005960464","resources/trios/L4T4A1.jpg","38","restless",0.5,0.4,0.7,0.190685762334816,"true"
"image-keyboard-response",603,1571954,"0.0-3.197-1.197","ml4pf17pja54pmy",373,"19.csv","","null","resources/maskTrios/BT4B.jpg","null","",NA,NA,NA,NA,""
"image-keyboard-response",604,1573162,"0.0-3.197-2.197","ml4pf17pja54pmy",373,"19.csv","","null","resources/images/coin2.png","null","",NA,NA,NA,NA,""
"image-keyboard-response",605,1573532,"0.0-3.198-0.198","ml4pf17pja54pmy",373,"19.csv","","367.6000000089407","resources/trios/L4T4A2.jpg","39","restless",0.5,0.4,0.7,0.134798295081186,"true"
"image-keyboard-response",606,1573939,"0.0-3.198-1.198","ml4pf17pja54pmy",373,"19.csv","","null","resources/maskTrios/BBA2.jpg","null","",NA,NA,NA,NA,""
"image-keyboard-response",607,1575147,"0.0-3.198-2.198","ml4pf17pja54pmy",373,"19.csv","","null","resources/images/coin2.png","null","",NA,NA,NA,NA,""
