"trial_type","trial_index","time_elapsed","internal_node_id","subject","participantCode","walkNumber","success","rt","stimulus","key_press","test_part","leftProb","midProb","rightProb","generatedNum","correct"
"pavlovia",0,1228,"0.0-0.0","91596uzp4j4gs0b",298,"197.csv","","","","","",NA,NA,NA,NA,""
"fullscreen",1,5175,"0.0-1.0","91596uzp4j4gs0b",298,"197.csv","true","","","","",NA,NA,NA,NA,""
"html-keyboard-response",2,37539,"0.0-2.0-0.0","91596uzp4j4gs0b",298,"197.csv","","32363","<p><font size='6'>Arrrgh!</p></font><p>Can you be the best pirate? Try to find lots of gold! But beware, some islands have more gold than others, and over time, the island with the most gold may change. Can YOU figure it out? </p><font size='6'>GOOD LUCK, CAPTAIN!!!</font><p>Press any key to begin</p>","32","",NA,NA,NA,NA,""
"image-keyboard-response",3,40542,"0.0-2.0-1.0","91596uzp4j4gs0b",298,"197.csv","","null","resources/image_sets/111.png","null","",NA,NA,NA,NA,""
"image-keyboard-response",4,69657,"0.0-2.0-2.0","91596uzp4j4gs0b",298,"197.csv","","29114.000000000015","resources/image_sets/left_highlight.png","37","",NA,NA,NA,NA,""
"image-keyboard-response",5,73546,"0.0-2.0-3.0","91596uzp4j4gs0b",298,"197.csv","","3887","resources/image_sets/mid_highlight.png","38","",NA,NA,NA,NA,""
"image-keyboard-response",6,74595,"0.0-2.0-4.0","91596uzp4j4gs0b",298,"197.csv","","1047","resources/image_sets/right_highlight.png","39","",NA,NA,NA,NA,""
"image-keyboard-response",7,79273,"0.0-2.0-5.0","91596uzp4j4gs0b",298,"197.csv","","4676.000000000015","resources/image_sets/111.png","13","",NA,NA,NA,NA,""
"image-keyboard-response",8,82690,"0.0-2.0-6.0","91596uzp4j4gs0b",298,"197.csv","","3415","resources/images/coin2.png","13","",NA,NA,NA,NA,""
"image-keyboard-response",9,84890,"0.0-2.0-7.0","91596uzp4j4gs0b",298,"197.csv","","2198","resources/images/fishbone.png","13","",NA,NA,NA,NA,""
"html-keyboard-response",10,93122,"0.0-2.0-8.0","91596uzp4j4gs0b",298,"197.csv","","8230","<p>Your first journey will be a long one, but you will get a well deserved break at the end</p><p>After the break you will have four more journeys, but each will be much shorter than the first, and you will have breaks in between each</p><p>Press Enter to begin</p>","13","",NA,NA,NA,NA,""
"image-keyboard-response",11,99723,"0.0-3.0-0.0","91596uzp4j4gs0b",298,"197.csv","","6599","resources/trios/L4T1A2.jpg","37","restless",0.3,0.7,0.9,0.391676781932963,"false"
"image-keyboard-response",12,100128,"0.0-3.0-1.0","91596uzp4j4gs0b",298,"197.csv","","null","resources/maskTrios/L4BB.jpg","null","",NA,NA,NA,NA,""
"image-keyboard-response",13,101332,"0.0-3.0-2.0","91596uzp4j4gs0b",298,"197.csv","","null","resources/images/fishbone.png","null","",NA,NA,NA,NA,""
"image-keyboard-response",14,108316,"0.0-3.1-0.1","91596uzp4j4gs0b",298,"197.csv","","6981","resources/trios/L4T1A3.jpg","38","restless",0.3,0.7,0.8,0.479642520209831,"true"
"image-keyboard-response",15,108720,"0.0-3.1-1.1","91596uzp4j4gs0b",298,"197.csv","","null","resources/maskTrios/BT1B.jpg","null","",NA,NA,NA,NA,""
"image-keyboard-response",16,109924,"0.0-3.1-2.1","91596uzp4j4gs0b",298,"197.csv","","null","resources/images/coin2.png","null","",NA,NA,NA,NA,""
"image-keyboard-response",17,117254,"0.0-3.2-0.2","91596uzp4j4gs0b",298,"197.csv","","7328","resources/trios/L2T2A3.jpg","37","restless",0.3,0.8,0.8,0.992782417562645,"false"
"image-keyboard-response",18,117657,"0.0-3.2-1.2","91596uzp4j4gs0b",298,"197.csv","","null","resources/maskTrios/L2BB.jpg","null","",NA,NA,NA,NA,""
"image-keyboard-response",19,118869,"0.0-3.2-2.2","91596uzp4j4gs0b",298,"197.csv","","null","resources/images/fishbone.png","null","",NA,NA,NA,NA,""
"image-keyboard-response",20,122751,"0.0-3.3-0.3","91596uzp4j4gs0b",298,"197.csv","","3881","resources/trios/L4T2A2.jpg","38","restless",0.3,0.8,0.8,0.210707827424481,"true"
"image-keyboard-response",21,123154,"0.0-3.3-1.3","91596uzp4j4gs0b",298,"197.csv","","null","resources/maskTrios/BT2B.jpg","null","",NA,NA,NA,NA,""
"image-keyboard-response",22,124357,"0.0-3.3-2.3","91596uzp4j4gs0b",298,"197.csv","","null","resources/images/coin2.png","null","",NA,NA,NA,NA,""
"image-keyboard-response",23,129521,"0.0-3.4-0.4","91596uzp4j4gs0b",298,"197.csv","","5161","resources/trios/L2T1A3.jpg","38","restless",0.3,0.8,0.8,0.868796415122583,"false"
"image-keyboard-response",24,129925,"0.0-3.4-1.4","91596uzp4j4gs0b",298,"197.csv","","null","resources/maskTrios/BT1B.jpg","null","",NA,NA,NA,NA,""
"image-keyboard-response",25,131127,"0.0-3.4-2.4","91596uzp4j4gs0b",298,"197.csv","","null","resources/images/fishbone.png","null","",NA,NA,NA,NA,""
"image-keyboard-response",26,132728,"0.0-3.5-0.5","91596uzp4j4gs0b",298,"197.csv","","1598","resources/trios/L4T1A3.jpg","39","restless",0.3,0.7,0.8,0.0204661984599845,"true"
"image-keyboard-response",27,133131,"0.0-3.5-1.5","91596uzp4j4gs0b",298,"197.csv","","null","resources/maskTrios/BBA3.jpg","null","",NA,NA,NA,NA,""
"image-keyboard-response",28,134334,"0.0-3.5-2.5","91596uzp4j4gs0b",298,"197.csv","","null","resources/images/coin2.png","null","",NA,NA,NA,NA,""
"image-keyboard-response",29,138542,"0.0-3.6-0.6","91596uzp4j4gs0b",298,"197.csv","","4206","resources/trios/L2T2A2.jpg","38","restless",0.3,0.7,0.8,0.532242959738634,"true"
"image-keyboard-response",30,138945,"0.0-3.6-1.6","91596uzp4j4gs0b",298,"197.csv","","null","resources/maskTrios/BT2B.jpg","null","",NA,NA,NA,NA,""
"image-keyboard-response",31,140149,"0.0-3.6-2.6","91596uzp4j4gs0b",298,"197.csv","","null","resources/images/coin2.png","null","",NA,NA,NA,NA,""
"image-keyboard-response",32,142023,"0.0-3.7-0.7","91596uzp4j4gs0b",298,"197.csv","","1871","resources/trios/L2T1A3.jpg","37","restless",0.2,0.7,0.8,0.894156261769232,"false"
"image-keyboard-response",33,142426,"0.0-3.7-1.7","91596uzp4j4gs0b",298,"197.csv","","null","resources/maskTrios/L2BB.jpg","null","",NA,NA,NA,NA,""
"image-keyboard-response",34,143630,"0.0-3.7-2.7","91596uzp4j4gs0b",298,"197.csv","","null","resources/images/fishbone.png","null","",NA,NA,NA,NA,""
"image-keyboard-response",35,156184,"0.0-3.8-0.8","91596uzp4j4gs0b",298,"197.csv","","12552","resources/trios/L2T1A3.jpg","39","restless",0.2,0.7,0.8,0.359712592985643,"true"
"image-keyboard-response",36,156588,"0.0-3.8-1.8","91596uzp4j4gs0b",298,"197.csv","","null","resources/maskTrios/BBA3.jpg","null","",NA,NA,NA,NA,""
"image-keyboard-response",37,157792,"0.0-3.8-2.8","91596uzp4j4gs0b",298,"197.csv","","null","resources/images/coin2.png","null","",NA,NA,NA,NA,""
"image-keyboard-response",38,162244,"0.0-3.9-0.9","91596uzp4j4gs0b",298,"197.csv","","4450","resources/trios/L2T2A3.jpg","38","restless",0.2,0.7,0.8,0.278452080526421,"true"
"image-keyboard-response",39,162647,"0.0-3.9-1.9","91596uzp4j4gs0b",298,"197.csv","","null","resources/maskTrios/BT2B.jpg","null","",NA,NA,NA,NA,""
"image-keyboard-response",40,163850,"0.0-3.9-2.9","91596uzp4j4gs0b",298,"197.csv","","null","resources/images/coin2.png","null","",NA,NA,NA,NA,""
"image-keyboard-response",41,165047,"0.0-3.10-0.10","91596uzp4j4gs0b",298,"197.csv","","1195","resources/trios/L4T1A2.jpg","37","restless",0.2,0.7,0.8,0.187895853524484,"true"
"image-keyboard-response",42,165451,"0.0-3.10-1.10","91596uzp4j4gs0b",298,"197.csv","","null","resources/maskTrios/L4BB.jpg","null","",NA,NA,NA,NA,""
"image-keyboard-response",43,166654,"0.0-3.10-2.10","91596uzp4j4gs0b",298,"197.csv","","null","resources/images/coin2.png","null","",NA,NA,NA,NA,""
"image-keyboard-response",44,168119,"0.0-3.11-0.11","91596uzp4j4gs0b",298,"197.csv","","1462","resources/trios/L2T1A2.jpg","38","restless",0.1,0.7,0.8,0.463840268068234,"true"
"image-keyboard-response",45,168522,"0.0-3.11-1.11","91596uzp4j4gs0b",298,"197.csv","","null","resources/maskTrios/BT1B.jpg","null","",NA,NA,NA,NA,""
"image-keyboard-response",46,169725,"0.0-3.11-2.11","91596uzp4j4gs0b",298,"197.csv","","null","resources/images/coin2.png","null","",NA,NA,NA,NA,""
"image-keyboard-response",47,170899,"0.0-3.12-0.12","91596uzp4j4gs0b",298,"197.csv","","1171","resources/trios/L2T2A3.jpg","39","restless",0.1,0.7,0.8,0.211658763434397,"true"
"image-keyboard-response",48,171302,"0.0-3.12-1.12","91596uzp4j4gs0b",298,"197.csv","","null","resources/maskTrios/BBA3.jpg","null","",NA,NA,NA,NA,""
"image-keyboard-response",49,172505,"0.0-3.12-2.12","91596uzp4j4gs0b",298,"197.csv","","null","resources/images/coin2.png","null","",NA,NA,NA,NA,""
"image-keyboard-response",50,173746,"0.0-3.13-0.13","91596uzp4j4gs0b",298,"197.csv","","1239","resources/trios/L4T1A3.jpg","38","restless",0.1,0.7,0.8,0.816926434782369,"false"
"image-keyboard-response",51,174150,"0.0-3.13-1.13","91596uzp4j4gs0b",298,"197.csv","","null","resources/maskTrios/BT1B.jpg","null","",NA,NA,NA,NA,""
"image-keyboard-response",52,175352,"0.0-3.13-2.13","91596uzp4j4gs0b",298,"197.csv","","null","resources/images/fishbone.png","null","",NA,NA,NA,NA,""
"image-keyboard-response",53,176195,"0.0-3.14-0.14","91596uzp4j4gs0b",298,"197.csv","","840","resources/trios/L4T1A2.jpg","37","restless",0.1,0.7,0.8,0.484451291080448,"false"
"image-keyboard-response",54,176598,"0.0-3.14-1.14","91596uzp4j4gs0b",298,"197.csv","","null","resources/maskTrios/L4BB.jpg","null","",NA,NA,NA,NA,""
"image-keyboard-response",55,177800,"0.0-3.14-2.14","91596uzp4j4gs0b",298,"197.csv","","null","resources/images/fishbone.png","null","",NA,NA,NA,NA,""
"image-keyboard-response",56,178705,"0.0-3.15-0.15","91596uzp4j4gs0b",298,"197.csv","","903","resources/trios/L2T2A3.jpg","38","restless",0.1,0.7,0.8,0.507145514709555,"true"
"image-keyboard-response",57,179109,"0.0-3.15-1.15","91596uzp4j4gs0b",298,"197.csv","","null","resources/maskTrios/BT2B.jpg","null","",NA,NA,NA,NA,""
"image-keyboard-response",58,180312,"0.0-3.15-2.15","91596uzp4j4gs0b",298,"197.csv","","null","resources/images/coin2.png","null","",NA,NA,NA,NA,""
"image-keyboard-response",59,182480,"0.0-3.16-0.16","91596uzp4j4gs0b",298,"197.csv","","2166.000000000029","resources/trios/L2T1A3.jpg","38","restless",0.1,0.7,0.8,0.183681412193642,"true"
"image-keyboard-response",60,182883,"0.0-3.16-1.16","91596uzp4j4gs0b",298,"197.csv","","null","resources/maskTrios/BT1B.jpg","null","",NA,NA,NA,NA,""
"image-keyboard-response",61,184086,"0.0-3.16-2.16","91596uzp4j4gs0b",298,"197.csv","","null","resources/images/coin2.png","null","",NA,NA,NA,NA,""
"image-keyboard-response",62,186803,"0.0-3.17-0.17","91596uzp4j4gs0b",298,"197.csv","","2715","resources/trios/L2T2A3.jpg","37","restless",0.1,0.7,0.8,0.796400693944726,"false"
"image-keyboard-response",63,187206,"0.0-3.17-1.17","91596uzp4j4gs0b",298,"197.csv","","null","resources/maskTrios/L2BB.jpg","null","",NA,NA,NA,NA,""
"image-keyboard-response",64,188409,"0.0-3.17-2.17","91596uzp4j4gs0b",298,"197.csv","","null","resources/images/fishbone.png","null","",NA,NA,NA,NA,""
"image-keyboard-response",65,189481,"0.0-3.18-0.18","91596uzp4j4gs0b",298,"197.csv","","1070","resources/trios/L2T1A2.jpg","38","restless",0.1,0.6,0.8,0.195840897282597,"true"
"image-keyboard-response",66,189884,"0.0-3.18-1.18","91596uzp4j4gs0b",298,"197.csv","","null","resources/maskTrios/BT1B.jpg","null","",NA,NA,NA,NA,""
"image-keyboard-response",67,191087,"0.0-3.18-2.18","91596uzp4j4gs0b",298,"197.csv","","null","resources/images/coin2.png","null","",NA,NA,NA,NA,""
"image-keyboard-response",68,193105,"0.0-3.19-0.19","91596uzp4j4gs0b",298,"197.csv","","2015.000000000029","resources/trios/L4T1A2.jpg","38","restless",0.1,0.6,0.7,0.833375609171951,"false"
"image-keyboard-response",69,193508,"0.0-3.19-1.19","91596uzp4j4gs0b",298,"197.csv","","null","resources/maskTrios/BT1B.jpg","null","",NA,NA,NA,NA,""
"image-keyboard-response",70,194711,"0.0-3.19-2.19","91596uzp4j4gs0b",298,"197.csv","","null","resources/images/fishbone.png","null","",NA,NA,NA,NA,""
"image-keyboard-response",71,195438,"0.0-3.20-0.20","91596uzp4j4gs0b",298,"197.csv","","725","resources/trios/L4T2A3.jpg","39","restless",0.1,0.6,0.7,0.0690396879519691,"true"
"image-keyboard-response",72,195841,"0.0-3.20-1.20","91596uzp4j4gs0b",298,"197.csv","","null","resources/maskTrios/BBA3.jpg","null","",NA,NA,NA,NA,""
"image-keyboard-response",73,197044,"0.0-3.20-2.20","91596uzp4j4gs0b",298,"197.csv","","null","resources/images/coin2.png","null","",NA,NA,NA,NA,""
"image-keyboard-response",74,201482,"0.0-3.21-0.21","91596uzp4j4gs0b",298,"197.csv","","4436","resources/trios/L2T1A2.jpg","38","restless",0.1,0.6,0.7,0.89777355966422,"false"
"image-keyboard-response",75,201886,"0.0-3.21-1.21","91596uzp4j4gs0b",298,"197.csv","","null","resources/maskTrios/BT1B.jpg","null","",NA,NA,NA,NA,""
"image-keyboard-response",76,203089,"0.0-3.21-2.21","91596uzp4j4gs0b",298,"197.csv","","null","resources/images/fishbone.png","null","",NA,NA,NA,NA,""
"image-keyboard-response",77,205465,"0.0-3.22-0.22","91596uzp4j4gs0b",298,"197.csv","","2375","resources/trios/L2T1A2.jpg","37","restless",0.1,0.6,0.7,0.617823230802738,"false"
"image-keyboard-response",78,205868,"0.0-3.22-1.22","91596uzp4j4gs0b",298,"197.csv","","null","resources/maskTrios/L2BB.jpg","null","",NA,NA,NA,NA,""
"image-keyboard-response",79,207070,"0.0-3.22-2.22","91596uzp4j4gs0b",298,"197.csv","","null","resources/images/fishbone.png","null","",NA,NA,NA,NA,""
"image-keyboard-response",80,208109,"0.0-3.23-0.23","91596uzp4j4gs0b",298,"197.csv","","1037","resources/trios/L4T2A3.jpg","39","restless",0.1,0.6,0.7,0.368578007915577,"true"
"image-keyboard-response",81,208512,"0.0-3.23-1.23","91596uzp4j4gs0b",298,"197.csv","","null","resources/maskTrios/BBA3.jpg","null","",NA,NA,NA,NA,""
"image-keyboard-response",82,209715,"0.0-3.23-2.23","91596uzp4j4gs0b",298,"197.csv","","null","resources/images/coin2.png","null","",NA,NA,NA,NA,""
"image-keyboard-response",83,214662,"0.0-3.24-0.24","91596uzp4j4gs0b",298,"197.csv","","4944.999999999971","resources/trios/L2T2A2.jpg","38","restless",0.1,0.6,0.7,0.726118943828669,"false"
"image-keyboard-response",84,215065,"0.0-3.24-1.24","91596uzp4j4gs0b",298,"197.csv","","null","resources/maskTrios/BT2B.jpg","null","",NA,NA,NA,NA,""
"image-keyboard-response",85,216267,"0.0-3.24-2.24","91596uzp4j4gs0b",298,"197.csv","","null","resources/images/fishbone.png","null","",NA,NA,NA,NA,""
"image-keyboard-response",86,216901,"0.0-3.25-0.25","91596uzp4j4gs0b",298,"197.csv","","632","resources/trios/L4T2A3.jpg","37","restless",0.2,0.6,0.7,0.0287907599774482,"true"
"image-keyboard-response",87,217304,"0.0-3.25-1.25","91596uzp4j4gs0b",298,"197.csv","","null","resources/maskTrios/L4BB.jpg","null","",NA,NA,NA,NA,""
"image-keyboard-response",88,218507,"0.0-3.25-2.25","91596uzp4j4gs0b",298,"197.csv","","null","resources/images/coin2.png","null","",NA,NA,NA,NA,""
"image-keyboard-response",89,220829,"0.0-3.26-0.26","91596uzp4j4gs0b",298,"197.csv","","2319.999999999971","resources/trios/L2T2A2.jpg","38","restless",0.2,0.6,0.7,0.131807205439109,"true"
"image-keyboard-response",90,221232,"0.0-3.26-1.26","91596uzp4j4gs0b",298,"197.csv","","null","resources/maskTrios/BT2B.jpg","null","",NA,NA,NA,NA,""
"image-keyboard-response",91,222435,"0.0-3.26-2.26","91596uzp4j4gs0b",298,"197.csv","","null","resources/images/coin2.png","null","",NA,NA,NA,NA,""
"image-keyboard-response",92,225307,"0.0-3.27-0.27","91596uzp4j4gs0b",298,"197.csv","","2869.999999999971","resources/trios/L2T2A2.jpg","38","restless",0.2,0.6,0.7,0.243515502690501,"true"
"image-keyboard-response",93,225710,"0.0-3.27-1.27","91596uzp4j4gs0b",298,"197.csv","","null","resources/maskTrios/BT2B.jpg","null","",NA,NA,NA,NA,""
"image-keyboard-response",94,226913,"0.0-3.27-2.27","91596uzp4j4gs0b",298,"197.csv","","null","resources/images/coin2.png","null","",NA,NA,NA,NA,""
"image-keyboard-response",95,234819,"0.0-3.28-0.28","91596uzp4j4gs0b",298,"197.csv","","7903.000000000029","resources/trios/L2T2A2.jpg","39","restless",0.2,0.6,0.7,0.00284931818497836,"true"
"image-keyboard-response",96,235222,"0.0-3.28-1.28","91596uzp4j4gs0b",298,"197.csv","","null","resources/maskTrios/BBA2.jpg","null","",NA,NA,NA,NA,""
"image-keyboard-response",97,236425,"0.0-3.28-2.28","91596uzp4j4gs0b",298,"197.csv","","null","resources/images/coin2.png","null","",NA,NA,NA,NA,""
"image-keyboard-response",98,239662,"0.0-3.29-0.29","91596uzp4j4gs0b",298,"197.csv","","3235","resources/trios/L4T1A2.jpg","38","restless",0.2,0.6,0.6,0.368980890381193,"true"
"image-keyboard-response",99,240065,"0.0-3.29-1.29","91596uzp4j4gs0b",298,"197.csv","","null","resources/maskTrios/BT1B.jpg","null","",NA,NA,NA,NA,""
"image-keyboard-response",100,241268,"0.0-3.29-2.29","91596uzp4j4gs0b",298,"197.csv","","null","resources/images/coin2.png","null","",NA,NA,NA,NA,""
"image-keyboard-response",101,245618,"0.0-3.30-0.30","91596uzp4j4gs0b",298,"197.csv","","4344","resources/trios/L4T1A2.jpg","39","restless",0.2,0.6,0.5,0.179639792406061,"true"
"image-keyboard-response",102,246021,"0.0-3.30-1.30","91596uzp4j4gs0b",298,"197.csv","","null","resources/maskTrios/BBA2.jpg","null","",NA,NA,NA,NA,""
"image-keyboard-response",103,247224,"0.0-3.30-2.30","91596uzp4j4gs0b",298,"197.csv","","null","resources/images/coin2.png","null","",NA,NA,NA,NA,""
"image-keyboard-response",104,250281,"0.0-3.31-0.31","91596uzp4j4gs0b",298,"197.csv","","3055","resources/trios/L4T2A3.jpg","37","restless",0.2,0.6,0.5,0.373923313003663,"false"
"image-keyboard-response",105,250684,"0.0-3.31-1.31","91596uzp4j4gs0b",298,"197.csv","","null","resources/maskTrios/L4BB.jpg","null","",NA,NA,NA,NA,""
"image-keyboard-response",106,251887,"0.0-3.31-2.31","91596uzp4j4gs0b",298,"197.csv","","null","resources/images/fishbone.png","null","",NA,NA,NA,NA,""
"image-keyboard-response",107,255672,"0.0-3.32-0.32","91596uzp4j4gs0b",298,"197.csv","","3782.000000000029","resources/trios/L2T1A3.jpg","38","restless",0.2,0.6,0.5,0.264178691999501,"true"
"image-keyboard-response",108,256075,"0.0-3.32-1.32","91596uzp4j4gs0b",298,"197.csv","","null","resources/maskTrios/BT1B.jpg","null","",NA,NA,NA,NA,""
"image-keyboard-response",109,257278,"0.0-3.32-2.32","91596uzp4j4gs0b",298,"197.csv","","null","resources/images/coin2.png","null","",NA,NA,NA,NA,""
"image-keyboard-response",110,258724,"0.0-3.33-0.33","91596uzp4j4gs0b",298,"197.csv","","1445.0000000000582","resources/trios/L4T1A3.jpg","38","restless",0.2,0.5,0.5,0.61992444430317,"false"
"image-keyboard-response",111,259128,"0.0-3.33-1.33","91596uzp4j4gs0b",298,"197.csv","","null","resources/maskTrios/BT1B.jpg","null","",NA,NA,NA,NA,""
"image-keyboard-response",112,260330,"0.0-3.33-2.33","91596uzp4j4gs0b",298,"197.csv","","null","resources/images/fishbone.png","null","",NA,NA,NA,NA,""
"image-keyboard-response",113,262711,"0.0-3.34-0.34","91596uzp4j4gs0b",298,"197.csv","","2377.999999999942","resources/trios/L2T1A2.jpg","37","restless",0.2,0.5,0.5,0.52072962057028,"false"
"image-keyboard-response",114,263115,"0.0-3.34-1.34","91596uzp4j4gs0b",298,"197.csv","","null","resources/maskTrios/L2BB.jpg","null","",NA,NA,NA,NA,""
"image-keyboard-response",115,264318,"0.0-3.34-2.34","91596uzp4j4gs0b",298,"197.csv","","null","resources/images/fishbone.png","null","",NA,NA,NA,NA,""
"image-keyboard-response",116,268338,"0.0-3.35-0.35","91596uzp4j4gs0b",298,"197.csv","","4016.999999999942","resources/trios/L4T2A3.jpg","38","restless",0.2,0.5,0.4,0.027102138233532,"true"
"image-keyboard-response",117,268741,"0.0-3.35-1.35","91596uzp4j4gs0b",298,"197.csv","","null","resources/maskTrios/BT2B.jpg","null","",NA,NA,NA,NA,""
"image-keyboard-response",118,269944,"0.0-3.35-2.35","91596uzp4j4gs0b",298,"197.csv","","null","resources/images/coin2.png","null","",NA,NA,NA,NA,""
"image-keyboard-response",119,275039,"0.0-3.36-0.36","91596uzp4j4gs0b",298,"197.csv","","5093","resources/trios/L4T2A3.jpg","38","restless",0.2,0.5,0.4,0.585560270255036,"false"
"image-keyboard-response",120,275442,"0.0-3.36-1.36","91596uzp4j4gs0b",298,"197.csv","","null","resources/maskTrios/BT2B.jpg","null","",NA,NA,NA,NA,""
"image-keyboard-response",121,276645,"0.0-3.36-2.36","91596uzp4j4gs0b",298,"197.csv","","null","resources/images/fishbone.png","null","",NA,NA,NA,NA,""
"image-keyboard-response",122,282168,"0.0-3.37-0.37","91596uzp4j4gs0b",298,"197.csv","","5520.999999999942","resources/trios/L2T1A2.jpg","38","restless",0.2,0.5,0.4,0.624318535204872,"false"
"image-keyboard-response",123,282571,"0.0-3.37-1.37","91596uzp4j4gs0b",298,"197.csv","","null","resources/maskTrios/BT1B.jpg","null","",NA,NA,NA,NA,""
"image-keyboard-response",124,283773,"0.0-3.37-2.37","91596uzp4j4gs0b",298,"197.csv","","null","resources/images/fishbone.png","null","",NA,NA,NA,NA,""
"image-keyboard-response",125,284543,"0.0-3.38-0.38","91596uzp4j4gs0b",298,"197.csv","","768","resources/trios/L2T2A2.jpg","37","restless",0.2,0.5,0.4,0.954131190232129,"false"
"image-keyboard-response",126,284946,"0.0-3.38-1.38","91596uzp4j4gs0b",298,"197.csv","","null","resources/maskTrios/L2BB.jpg","null","",NA,NA,NA,NA,""
"image-keyboard-response",127,286148,"0.0-3.38-2.38","91596uzp4j4gs0b",298,"197.csv","","null","resources/images/fishbone.png","null","",NA,NA,NA,NA,""
"image-keyboard-response",128,286991,"0.0-3.39-0.39","91596uzp4j4gs0b",298,"197.csv","","841","resources/trios/L4T1A2.jpg","38","restless",0.2,0.5,0.4,0.44232156110637,"true"
"image-keyboard-response",129,287394,"0.0-3.39-1.39","91596uzp4j4gs0b",298,"197.csv","","null","resources/maskTrios/BT1B.jpg","null","",NA,NA,NA,NA,""
"image-keyboard-response",130,288597,"0.0-3.39-2.39","91596uzp4j4gs0b",298,"197.csv","","null","resources/images/coin2.png","null","",NA,NA,NA,NA,""
"image-keyboard-response",131,291342,"0.0-3.40-0.40","91596uzp4j4gs0b",298,"197.csv","","2742.999999999942","resources/trios/L4T1A3.jpg","39","restless",0.2,0.5,0.3,0.504815306009513,"false"
"image-keyboard-response",132,291745,"0.0-3.40-1.40","91596uzp4j4gs0b",298,"197.csv","","null","resources/maskTrios/BBA3.jpg","null","",NA,NA,NA,NA,""
"image-keyboard-response",133,292952,"0.0-3.40-2.40","91596uzp4j4gs0b",298,"197.csv","","null","resources/images/fishbone.png","null","",NA,NA,NA,NA,""
"image-keyboard-response",134,298297,"0.0-3.41-0.41","91596uzp4j4gs0b",298,"197.csv","","5343","resources/trios/L4T2A3.jpg","38","restless",0.2,0.5,0.3,0.840460007418793,"false"
"image-keyboard-response",135,298701,"0.0-3.41-1.41","91596uzp4j4gs0b",298,"197.csv","","null","resources/maskTrios/BT2B.jpg","null","",NA,NA,NA,NA,""
"image-keyboard-response",136,299904,"0.0-3.41-2.41","91596uzp4j4gs0b",298,"197.csv","","null","resources/images/fishbone.png","null","",NA,NA,NA,NA,""
"image-keyboard-response",137,304182,"0.0-3.42-0.42","91596uzp4j4gs0b",298,"197.csv","","4277.000000000058","resources/trios/L2T1A2.jpg","37","restless",0.2,0.5,0.3,0.590230610685264,"false"
"image-keyboard-response",138,304586,"0.0-3.42-1.42","91596uzp4j4gs0b",298,"197.csv","","null","resources/maskTrios/L2BB.jpg","null","",NA,NA,NA,NA,""
"image-keyboard-response",139,305788,"0.0-3.42-2.42","91596uzp4j4gs0b",298,"197.csv","","null","resources/images/fishbone.png","null","",NA,NA,NA,NA,""
"image-keyboard-response",140,307507,"0.0-3.43-0.43","91596uzp4j4gs0b",298,"197.csv","","1717","resources/trios/L4T1A2.jpg","39","restless",0.2,0.4,0.3,0.0685173018352926,"true"
"image-keyboard-response",141,307910,"0.0-3.43-1.43","91596uzp4j4gs0b",298,"197.csv","","null","resources/maskTrios/BBA2.jpg","null","",NA,NA,NA,NA,""
"image-keyboard-response",142,309113,"0.0-3.43-2.43","91596uzp4j4gs0b",298,"197.csv","","null","resources/images/coin2.png","null","",NA,NA,NA,NA,""
"image-keyboard-response",143,310709,"0.0-3.44-0.44","91596uzp4j4gs0b",298,"197.csv","","1594","resources/trios/L4T1A3.jpg","37","restless",0.2,0.4,0.3,0.624120312751522,"false"
"image-keyboard-response",144,311112,"0.0-3.44-1.44","91596uzp4j4gs0b",298,"197.csv","","null","resources/maskTrios/L4BB.jpg","null","",NA,NA,NA,NA,""
"image-keyboard-response",145,312314,"0.0-3.44-2.44","91596uzp4j4gs0b",298,"197.csv","","null","resources/images/fishbone.png","null","",NA,NA,NA,NA,""
"image-keyboard-response",146,313537,"0.0-3.45-0.45","91596uzp4j4gs0b",298,"197.csv","","1221","resources/trios/L4T2A3.jpg","38","restless",0.2,0.4,0.3,0.712871686565497,"false"
"image-keyboard-response",147,313940,"0.0-3.45-1.45","91596uzp4j4gs0b",298,"197.csv","","null","resources/maskTrios/BT2B.jpg","null","",NA,NA,NA,NA,""
"image-keyboard-response",148,315142,"0.0-3.45-2.45","91596uzp4j4gs0b",298,"197.csv","","null","resources/images/fishbone.png","null","",NA,NA,NA,NA,""
"image-keyboard-response",149,322105,"0.0-3.46-0.46","91596uzp4j4gs0b",298,"197.csv","","6960.000000000058","resources/trios/L4T2A2.jpg","39","restless",0.2,0.4,0.3,0.128516797341144,"true"
"image-keyboard-response",150,322509,"0.0-3.46-1.46","91596uzp4j4gs0b",298,"197.csv","","null","resources/maskTrios/BBA2.jpg","null","",NA,NA,NA,NA,""
"image-keyboard-response",151,323712,"0.0-3.46-2.46","91596uzp4j4gs0b",298,"197.csv","","null","resources/images/coin2.png","null","",NA,NA,NA,NA,""
"image-keyboard-response",152,325954,"0.0-3.47-0.47","91596uzp4j4gs0b",298,"197.csv","","2239","resources/trios/L4T1A3.jpg","38","restless",0.2,0.4,0.2,0.166229007516036,"true"
"image-keyboard-response",153,326357,"0.0-3.47-1.47","91596uzp4j4gs0b",298,"197.csv","","null","resources/maskTrios/BT1B.jpg","null","",NA,NA,NA,NA,""
"image-keyboard-response",154,327561,"0.0-3.47-2.47","91596uzp4j4gs0b",298,"197.csv","","null","resources/images/coin2.png","null","",NA,NA,NA,NA,""
"image-keyboard-response",155,328829,"0.0-3.48-0.48","91596uzp4j4gs0b",298,"197.csv","","1266","resources/trios/L4T2A2.jpg","39","restless",0.3,0.4,0.2,0.846250953824026,"false"
"image-keyboard-response",156,329233,"0.0-3.48-1.48","91596uzp4j4gs0b",298,"197.csv","","null","resources/maskTrios/BBA2.jpg","null","",NA,NA,NA,NA,""
"image-keyboard-response",157,330435,"0.0-3.48-2.48","91596uzp4j4gs0b",298,"197.csv","","null","resources/images/fishbone.png","null","",NA,NA,NA,NA,""
"image-keyboard-response",158,332192,"0.0-3.49-0.49","91596uzp4j4gs0b",298,"197.csv","","1755","resources/trios/L4T1A2.jpg","39","restless",0.3,0.4,0.2,0.0904028599947098,"true"
"image-keyboard-response",159,332595,"0.0-3.49-1.49","91596uzp4j4gs0b",298,"197.csv","","null","resources/maskTrios/BBA2.jpg","null","",NA,NA,NA,NA,""
"image-keyboard-response",160,333798,"0.0-3.49-2.49","91596uzp4j4gs0b",298,"197.csv","","null","resources/images/coin2.png","null","",NA,NA,NA,NA,""
"image-keyboard-response",161,335403,"0.0-3.50-0.50","91596uzp4j4gs0b",298,"197.csv","","1603","resources/trios/L2T1A2.jpg","39","restless",0.3,0.4,0.2,0.682326422737418,"false"
"image-keyboard-response",162,335808,"0.0-3.50-1.50","91596uzp4j4gs0b",298,"197.csv","","null","resources/maskTrios/BBA2.jpg","null","",NA,NA,NA,NA,""
"image-keyboard-response",163,337011,"0.0-3.50-2.50","91596uzp4j4gs0b",298,"197.csv","","null","resources/images/fishbone.png","null","",NA,NA,NA,NA,""
"image-keyboard-response",164,340143,"0.0-3.51-0.51","91596uzp4j4gs0b",298,"197.csv","","3130","resources/trios/L4T1A2.jpg","38","restless",0.2,0.4,0.2,0.699670713378939,"false"
"image-keyboard-response",165,340546,"0.0-3.51-1.51","91596uzp4j4gs0b",298,"197.csv","","null","resources/maskTrios/BT1B.jpg","null","",NA,NA,NA,NA,""
"image-keyboard-response",166,341749,"0.0-3.51-2.51","91596uzp4j4gs0b",298,"197.csv","","null","resources/images/fishbone.png","null","",NA,NA,NA,NA,""
"image-keyboard-response",167,343784,"0.0-3.52-0.52","91596uzp4j4gs0b",298,"197.csv","","2033","resources/trios/L2T1A2.jpg","39","restless",0.2,0.4,0.2,0.99848359093056,"false"
"image-keyboard-response",168,344187,"0.0-3.52-1.52","91596uzp4j4gs0b",298,"197.csv","","null","resources/maskTrios/BBA2.jpg","null","",NA,NA,NA,NA,""
"image-keyboard-response",169,345390,"0.0-3.52-2.52","91596uzp4j4gs0b",298,"197.csv","","null","resources/images/fishbone.png","null","",NA,NA,NA,NA,""
"image-keyboard-response",170,346203,"0.0-3.53-0.53","91596uzp4j4gs0b",298,"197.csv","","811","resources/trios/L2T1A2.jpg","37","restless",0.2,0.4,0.2,0.140395636405696,"true"
"image-keyboard-response",171,346606,"0.0-3.53-1.53","91596uzp4j4gs0b",298,"197.csv","","null","resources/maskTrios/L2BB.jpg","null","",NA,NA,NA,NA,""
"image-keyboard-response",172,347809,"0.0-3.53-2.53","91596uzp4j4gs0b",298,"197.csv","","null","resources/images/coin2.png","null","",NA,NA,NA,NA,""
"image-keyboard-response",173,350217,"0.0-3.54-0.54","91596uzp4j4gs0b",298,"197.csv","","2406.000000000058","resources/trios/L2T1A2.jpg","37","restless",0.2,0.4,0.2,0.795177534896246,"false"
"image-keyboard-response",174,350620,"0.0-3.54-1.54","91596uzp4j4gs0b",298,"197.csv","","null","resources/maskTrios/L2BB.jpg","null","",NA,NA,NA,NA,""
"image-keyboard-response",175,351823,"0.0-3.54-2.54","91596uzp4j4gs0b",298,"197.csv","","null","resources/images/fishbone.png","null","",NA,NA,NA,NA,""
"image-keyboard-response",176,352731,"0.0-3.55-0.55","91596uzp4j4gs0b",298,"197.csv","","904","resources/trios/L2T2A2.jpg","37","restless",0.2,0.4,0.2,0.658015595239267,"false"
"image-keyboard-response",177,353135,"0.0-3.55-1.55","91596uzp4j4gs0b",298,"197.csv","","null","resources/maskTrios/L2BB.jpg","null","",NA,NA,NA,NA,""
"image-keyboard-response",178,354337,"0.0-3.55-2.55","91596uzp4j4gs0b",298,"197.csv","","null","resources/images/fishbone.png","null","",NA,NA,NA,NA,""
"image-keyboard-response",179,376156,"0.0-3.56-0.56","91596uzp4j4gs0b",298,"197.csv","","21817","resources/trios/L4T2A2.jpg","39","restless",0.2,0.4,0.3,0.283713876302845,"true"
"image-keyboard-response",180,376559,"0.0-3.56-1.56","91596uzp4j4gs0b",298,"197.csv","","null","resources/maskTrios/BBA2.jpg","null","",NA,NA,NA,NA,""
"image-keyboard-response",181,377762,"0.0-3.56-2.56","91596uzp4j4gs0b",298,"197.csv","","null","resources/images/coin2.png","null","",NA,NA,NA,NA,""
"image-keyboard-response",182,402292,"0.0-3.57-0.57","91596uzp4j4gs0b",298,"197.csv","","24527","resources/trios/L2T1A3.jpg","38","restless",0.2,0.4,0.3,0.969352256035475,"false"
"image-keyboard-response",183,402694,"0.0-3.57-1.57","91596uzp4j4gs0b",298,"197.csv","","null","resources/maskTrios/BT1B.jpg","null","",NA,NA,NA,NA,""
"image-keyboard-response",184,403897,"0.0-3.57-2.57","91596uzp4j4gs0b",298,"197.csv","","null","resources/images/fishbone.png","null","",NA,NA,NA,NA,""
"image-keyboard-response",185,404952,"0.0-3.58-0.58","91596uzp4j4gs0b",298,"197.csv","","1053","resources/trios/L4T1A2.jpg","37","restless",0.2,0.4,0.3,0.360682950885055,"false"
"image-keyboard-response",186,405355,"0.0-3.58-1.58","91596uzp4j4gs0b",298,"197.csv","","null","resources/maskTrios/L4BB.jpg","null","",NA,NA,NA,NA,""
"image-keyboard-response",187,406558,"0.0-3.58-2.58","91596uzp4j4gs0b",298,"197.csv","","null","resources/images/fishbone.png","null","",NA,NA,NA,NA,""
"image-keyboard-response",188,407821,"0.0-3.59-0.59","91596uzp4j4gs0b",298,"197.csv","","1261","resources/trios/L2T2A3.jpg","39","restless",0.2,0.4,0.3,0.360948053572305,"false"
"image-keyboard-response",189,408224,"0.0-3.59-1.59","91596uzp4j4gs0b",298,"197.csv","","null","resources/maskTrios/BBA3.jpg","null","",NA,NA,NA,NA,""
"image-keyboard-response",190,409426,"0.0-3.59-2.59","91596uzp4j4gs0b",298,"197.csv","","null","resources/images/fishbone.png","null","",NA,NA,NA,NA,""
"image-keyboard-response",191,410957,"0.0-3.60-0.60","91596uzp4j4gs0b",298,"197.csv","","1529","resources/trios/L4T1A3.jpg","38","restless",0.2,0.5,0.3,0.218637853659133,"true"
"image-keyboard-response",192,411362,"0.0-3.60-1.60","91596uzp4j4gs0b",298,"197.csv","","null","resources/maskTrios/BT1B.jpg","null","",NA,NA,NA,NA,""
"image-keyboard-response",193,412565,"0.0-3.60-2.60","91596uzp4j4gs0b",298,"197.csv","","null","resources/images/coin2.png","null","",NA,NA,NA,NA,""
"image-keyboard-response",194,414631,"0.0-3.61-0.61","91596uzp4j4gs0b",298,"197.csv","","2064.000000000058","resources/trios/L2T2A2.jpg","37","restless",0.2,0.6,0.4,0.171939165305156,"true"
"image-keyboard-response",195,415034,"0.0-3.61-1.61","91596uzp4j4gs0b",298,"197.csv","","null","resources/maskTrios/L2BB.jpg","null","",NA,NA,NA,NA,""
"image-keyboard-response",196,416237,"0.0-3.61-2.61","91596uzp4j4gs0b",298,"197.csv","","null","resources/images/coin2.png","null","",NA,NA,NA,NA,""
"image-keyboard-response",197,417226,"0.0-3.62-0.62","91596uzp4j4gs0b",298,"197.csv","","986.9999999999418","resources/trios/L2T1A3.jpg","38","restless",0.2,0.7,0.4,0.325180275730177,"true"
"image-keyboard-response",198,417629,"0.0-3.62-1.62","91596uzp4j4gs0b",298,"197.csv","","null","resources/maskTrios/BT1B.jpg","null","",NA,NA,NA,NA,""
"image-keyboard-response",199,418832,"0.0-3.62-2.62","91596uzp4j4gs0b",298,"197.csv","","null","resources/images/coin2.png","null","",NA,NA,NA,NA,""
"image-keyboard-response",200,419952,"0.0-3.63-0.63","91596uzp4j4gs0b",298,"197.csv","","1118","resources/trios/L4T2A3.jpg","37","restless",0.3,0.7,0.3,0.0795447743180624,"true"
"image-keyboard-response",201,420355,"0.0-3.63-1.63","91596uzp4j4gs0b",298,"197.csv","","null","resources/maskTrios/L4BB.jpg","null","",NA,NA,NA,NA,""
"image-keyboard-response",202,421558,"0.0-3.63-2.63","91596uzp4j4gs0b",298,"197.csv","","null","resources/images/coin2.png","null","",NA,NA,NA,NA,""
"image-keyboard-response",203,422217,"0.0-3.64-0.64","91596uzp4j4gs0b",298,"197.csv","","656","resources/trios/L4T2A3.jpg","37","restless",0.3,0.7,0.3,0.91595602700729,"false"
"image-keyboard-response",204,422620,"0.0-3.64-1.64","91596uzp4j4gs0b",298,"197.csv","","null","resources/maskTrios/L4BB.jpg","null","",NA,NA,NA,NA,""
"image-keyboard-response",205,423823,"0.0-3.64-2.64","91596uzp4j4gs0b",298,"197.csv","","null","resources/images/fishbone.png","null","",NA,NA,NA,NA,""
"image-keyboard-response",206,425432,"0.0-3.65-0.65","91596uzp4j4gs0b",298,"197.csv","","1605","resources/trios/L4T1A2.jpg","39","restless",0.3,0.7,0.3,0.713492568143087,"false"
"image-keyboard-response",207,425835,"0.0-3.65-1.65","91596uzp4j4gs0b",298,"197.csv","","null","resources/maskTrios/BBA2.jpg","null","",NA,NA,NA,NA,""
"image-keyboard-response",208,427037,"0.0-3.65-2.65","91596uzp4j4gs0b",298,"197.csv","","null","resources/images/fishbone.png","null","",NA,NA,NA,NA,""
"image-keyboard-response",209,428039,"0.0-3.66-0.66","91596uzp4j4gs0b",298,"197.csv","","999","resources/trios/L2T1A2.jpg","37","restless",0.3,0.7,0.3,0.7600523998998,"false"
"image-keyboard-response",210,428442,"0.0-3.66-1.66","91596uzp4j4gs0b",298,"197.csv","","null","resources/maskTrios/L2BB.jpg","null","",NA,NA,NA,NA,""
"image-keyboard-response",211,429645,"0.0-3.66-2.66","91596uzp4j4gs0b",298,"197.csv","","null","resources/images/fishbone.png","null","",NA,NA,NA,NA,""
"image-keyboard-response",212,431522,"0.0-3.67-0.67","91596uzp4j4gs0b",298,"197.csv","","1874","resources/trios/L4T2A2.jpg","37","restless",0.3,0.7,0.3,0.950331297519807,"false"
"image-keyboard-response",213,431925,"0.0-3.67-1.67","91596uzp4j4gs0b",298,"197.csv","","null","resources/maskTrios/L4BB.jpg","null","",NA,NA,NA,NA,""
"image-keyboard-response",214,433127,"0.0-3.67-2.67","91596uzp4j4gs0b",298,"197.csv","","null","resources/images/fishbone.png","null","",NA,NA,NA,NA,""
"image-keyboard-response",215,434323,"0.0-3.68-0.68","91596uzp4j4gs0b",298,"197.csv","","1194","resources/trios/L4T2A3.jpg","37","restless",0.3,0.7,0.3,0.393539563359954,"false"
"image-keyboard-response",216,434726,"0.0-3.68-1.68","91596uzp4j4gs0b",298,"197.csv","","null","resources/maskTrios/L4BB.jpg","null","",NA,NA,NA,NA,""
"image-keyboard-response",217,435929,"0.0-3.68-2.68","91596uzp4j4gs0b",298,"197.csv","","null","resources/images/fishbone.png","null","",NA,NA,NA,NA,""
"image-keyboard-response",218,436940,"0.0-3.69-0.69","91596uzp4j4gs0b",298,"197.csv","","1009.0000000000582","resources/trios/L4T1A3.jpg","38","restless",0.3,0.7,0.4,0.331336200302738,"true"
"image-keyboard-response",219,437343,"0.0-3.69-1.69","91596uzp4j4gs0b",298,"197.csv","","null","resources/maskTrios/BT1B.jpg","null","",NA,NA,NA,NA,""
"image-keyboard-response",220,438546,"0.0-3.69-2.69","91596uzp4j4gs0b",298,"197.csv","","null","resources/images/coin2.png","null","",NA,NA,NA,NA,""
"image-keyboard-response",221,439771,"0.0-3.70-0.70","91596uzp4j4gs0b",298,"197.csv","","1221","resources/trios/L2T1A2.jpg","39","restless",0.4,0.7,0.4,0.134652200313964,"true"
"image-keyboard-response",222,440174,"0.0-3.70-1.70","91596uzp4j4gs0b",298,"197.csv","","null","resources/maskTrios/BBA2.jpg","null","",NA,NA,NA,NA,""
"image-keyboard-response",223,441376,"0.0-3.70-2.70","91596uzp4j4gs0b",298,"197.csv","","null","resources/images/coin2.png","null","",NA,NA,NA,NA,""
"image-keyboard-response",224,443100,"0.0-3.71-0.71","91596uzp4j4gs0b",298,"197.csv","","1722","resources/trios/L2T1A3.jpg","38","restless",0.4,0.7,0.4,0.0904752015344709,"true"
"image-keyboard-response",225,443503,"0.0-3.71-1.71","91596uzp4j4gs0b",298,"197.csv","","null","resources/maskTrios/BT1B.jpg","null","",NA,NA,NA,NA,""
"image-keyboard-response",226,444706,"0.0-3.71-2.71","91596uzp4j4gs0b",298,"197.csv","","null","resources/images/coin2.png","null","",NA,NA,NA,NA,""
"image-keyboard-response",227,448910,"0.0-3.72-0.72","91596uzp4j4gs0b",298,"197.csv","","4201","resources/trios/L2T1A2.jpg","39","restless",0.4,0.7,0.4,0.897547709415845,"false"
"image-keyboard-response",228,449314,"0.0-3.72-1.72","91596uzp4j4gs0b",298,"197.csv","","null","resources/maskTrios/BBA2.jpg","null","",NA,NA,NA,NA,""
"image-keyboard-response",229,450517,"0.0-3.72-2.72","91596uzp4j4gs0b",298,"197.csv","","null","resources/images/fishbone.png","null","",NA,NA,NA,NA,""
"image-keyboard-response",230,454257,"0.0-3.73-0.73","91596uzp4j4gs0b",298,"197.csv","","3739","resources/trios/L2T2A3.jpg","39","restless",0.4,0.7,0.4,0.52069400256012,"false"
"image-keyboard-response",231,454661,"0.0-3.73-1.73","91596uzp4j4gs0b",298,"197.csv","","null","resources/maskTrios/BBA3.jpg","null","",NA,NA,NA,NA,""
"image-keyboard-response",232,455863,"0.0-3.73-2.73","91596uzp4j4gs0b",298,"197.csv","","null","resources/images/fishbone.png","null","",NA,NA,NA,NA,""
"image-keyboard-response",233,459404,"0.0-3.74-0.74","91596uzp4j4gs0b",298,"197.csv","","3538.000000000058","resources/trios/L2T1A2.jpg","38","restless",0.4,0.7,0.4,0.731949882477634,"false"
"image-keyboard-response",234,459807,"0.0-3.74-1.74","91596uzp4j4gs0b",298,"197.csv","","null","resources/maskTrios/BT1B.jpg","null","",NA,NA,NA,NA,""
"image-keyboard-response",235,461009,"0.0-3.74-2.74","91596uzp4j4gs0b",298,"197.csv","","null","resources/images/fishbone.png","null","",NA,NA,NA,NA,""
"image-keyboard-response",236,465361,"0.0-3.75-0.75","91596uzp4j4gs0b",298,"197.csv","","4349.999999999942","resources/trios/L4T1A2.jpg","37","restless",0.4,0.7,0.4,0.127831785156478,"true"
"image-keyboard-response",237,465764,"0.0-3.75-1.75","91596uzp4j4gs0b",298,"197.csv","","null","resources/maskTrios/L4BB.jpg","null","",NA,NA,NA,NA,""
"image-keyboard-response",238,466967,"0.0-3.75-2.75","91596uzp4j4gs0b",298,"197.csv","","null","resources/images/coin2.png","null","",NA,NA,NA,NA,""
"image-keyboard-response",239,480553,"0.0-3.76-0.76","91596uzp4j4gs0b",298,"197.csv","","13583.000000000058","resources/trios/L2T2A3.jpg","37","restless",0.4,0.7,0.4,0.0795579899467131,"true"
"image-keyboard-response",240,480956,"0.0-3.76-1.76","91596uzp4j4gs0b",298,"197.csv","","null","resources/maskTrios/L2BB.jpg","null","",NA,NA,NA,NA,""
"image-keyboard-response",241,482159,"0.0-3.76-2.76","91596uzp4j4gs0b",298,"197.csv","","null","resources/images/coin2.png","null","",NA,NA,NA,NA,""
"image-keyboard-response",242,482788,"0.0-3.77-0.77","91596uzp4j4gs0b",298,"197.csv","","626","resources/trios/L4T2A3.jpg","37","restless",0.4,0.7,0.5,0.911830542019334,"false"
"image-keyboard-response",243,483191,"0.0-3.77-1.77","91596uzp4j4gs0b",298,"197.csv","","null","resources/maskTrios/L4BB.jpg","null","",NA,NA,NA,NA,""
"image-keyboard-response",244,484394,"0.0-3.77-2.77","91596uzp4j4gs0b",298,"197.csv","","null","resources/images/fishbone.png","null","",NA,NA,NA,NA,""
"image-keyboard-response",245,506726,"0.0-3.78-0.78","91596uzp4j4gs0b",298,"197.csv","","22330","resources/trios/L2T2A2.jpg","39","restless",0.4,0.7,0.5,0.853075422565375,"false"
"image-keyboard-response",246,507130,"0.0-3.78-1.78","91596uzp4j4gs0b",298,"197.csv","","null","resources/maskTrios/BBA2.jpg","null","",NA,NA,NA,NA,""
"image-keyboard-response",247,508332,"0.0-3.78-2.78","91596uzp4j4gs0b",298,"197.csv","","null","resources/images/fishbone.png","null","",NA,NA,NA,NA,""
"image-keyboard-response",248,510636,"0.0-3.79-0.79","91596uzp4j4gs0b",298,"197.csv","","2301.999999999942","resources/trios/L4T2A2.jpg","38","restless",0.4,0.6,0.5,0.271245059231999,"true"
"image-keyboard-response",249,511038,"0.0-3.79-1.79","91596uzp4j4gs0b",298,"197.csv","","null","resources/maskTrios/BT2B.jpg","null","",NA,NA,NA,NA,""
"image-keyboard-response",250,512241,"0.0-3.79-2.79","91596uzp4j4gs0b",298,"197.csv","","null","resources/images/coin2.png","null","",NA,NA,NA,NA,""
"image-keyboard-response",251,515855,"0.0-3.80-0.80","91596uzp4j4gs0b",298,"197.csv","","3611.999999999942","resources/trios/L4T1A2.jpg","38","restless",0.4,0.5,0.5,0.0145396583924536,"true"
"image-keyboard-response",252,516258,"0.0-3.80-1.80","91596uzp4j4gs0b",298,"197.csv","","null","resources/maskTrios/BT1B.jpg","null","",NA,NA,NA,NA,""
"image-keyboard-response",253,517461,"0.0-3.80-2.80","91596uzp4j4gs0b",298,"197.csv","","null","resources/images/coin2.png","null","",NA,NA,NA,NA,""
"image-keyboard-response",254,518629,"0.0-3.81-0.81","91596uzp4j4gs0b",298,"197.csv","","1165.9999999999418","resources/trios/L2T2A3.jpg","37","restless",0.4,0.5,0.5,0.670088054702278,"false"
"image-keyboard-response",255,519032,"0.0-3.81-1.81","91596uzp4j4gs0b",298,"197.csv","","null","resources/maskTrios/L2BB.jpg","null","",NA,NA,NA,NA,""
"image-keyboard-response",256,520234,"0.0-3.81-2.81","91596uzp4j4gs0b",298,"197.csv","","null","resources/images/fishbone.png","null","",NA,NA,NA,NA,""
"image-keyboard-response",257,525980,"0.0-3.82-0.82","91596uzp4j4gs0b",298,"197.csv","","5743.000000000058","resources/trios/L2T1A3.jpg","38","restless",0.4,0.5,0.5,0.123764882844994,"true"
"image-keyboard-response",258,526385,"0.0-3.82-1.82","91596uzp4j4gs0b",298,"197.csv","","null","resources/maskTrios/BT1B.jpg","null","",NA,NA,NA,NA,""
"image-keyboard-response",259,527588,"0.0-3.82-2.82","91596uzp4j4gs0b",298,"197.csv","","null","resources/images/coin2.png","null","",NA,NA,NA,NA,""
"image-keyboard-response",260,533502,"0.0-3.83-0.83","91596uzp4j4gs0b",298,"197.csv","","5911","resources/trios/L4T2A2.jpg","37","restless",0.4,0.5,0.5,0.731772648381051,"false"
"image-keyboard-response",261,533905,"0.0-3.83-1.83","91596uzp4j4gs0b",298,"197.csv","","null","resources/maskTrios/L4BB.jpg","null","",NA,NA,NA,NA,""
"image-keyboard-response",262,535107,"0.0-3.83-2.83","91596uzp4j4gs0b",298,"197.csv","","null","resources/images/fishbone.png","null","",NA,NA,NA,NA,""
"image-keyboard-response",263,557335,"0.0-3.84-0.84","91596uzp4j4gs0b",298,"197.csv","","22226","resources/trios/L2T2A3.jpg","37","restless",0.4,0.5,0.5,0.727249615977822,"false"
"image-keyboard-response",264,557738,"0.0-3.84-1.84","91596uzp4j4gs0b",298,"197.csv","","null","resources/maskTrios/L2BB.jpg","null","",NA,NA,NA,NA,""
"image-keyboard-response",265,558941,"0.0-3.84-2.84","91596uzp4j4gs0b",298,"197.csv","","null","resources/images/fishbone.png","null","",NA,NA,NA,NA,""
"image-keyboard-response",266,560200,"0.0-3.85-0.85","91596uzp4j4gs0b",298,"197.csv","","1257.9999999998836","resources/trios/L2T1A3.jpg","39","restless",0.4,0.5,0.5,0.829626744109459,"false"
"image-keyboard-response",267,560603,"0.0-3.85-1.85","91596uzp4j4gs0b",298,"197.csv","","null","resources/maskTrios/BBA3.jpg","null","",NA,NA,NA,NA,""
"image-keyboard-response",268,561806,"0.0-3.85-2.85","91596uzp4j4gs0b",298,"197.csv","","null","resources/images/fishbone.png","null","",NA,NA,NA,NA,""
"image-keyboard-response",269,563301,"0.0-3.86-0.86","91596uzp4j4gs0b",298,"197.csv","","1492","resources/trios/L4T1A2.jpg","38","restless",0.4,0.5,0.5,0.157745011944886,"true"
"image-keyboard-response",270,563704,"0.0-3.86-1.86","91596uzp4j4gs0b",298,"197.csv","","null","resources/maskTrios/BT1B.jpg","null","",NA,NA,NA,NA,""
"image-keyboard-response",271,564907,"0.0-3.86-2.86","91596uzp4j4gs0b",298,"197.csv","","null","resources/images/coin2.png","null","",NA,NA,NA,NA,""
"image-keyboard-response",272,599955,"0.0-3.87-0.87","91596uzp4j4gs0b",298,"197.csv","","35046","resources/trios/L2T1A3.jpg","39","restless",0.4,0.5,0.5,0.41866182536788,"true"
"image-keyboard-response",273,600359,"0.0-3.87-1.87","91596uzp4j4gs0b",298,"197.csv","","null","resources/maskTrios/BBA3.jpg","null","",NA,NA,NA,NA,""
"image-keyboard-response",274,601562,"0.0-3.87-2.87","91596uzp4j4gs0b",298,"197.csv","","null","resources/images/coin2.png","null","",NA,NA,NA,NA,""
"image-keyboard-response",275,606121,"0.0-3.88-0.88","91596uzp4j4gs0b",298,"197.csv","","4556","resources/trios/L4T1A2.jpg","37","restless",0.4,0.5,0.5,0.0691903921040515,"true"
"image-keyboard-response",276,606524,"0.0-3.88-1.88","91596uzp4j4gs0b",298,"197.csv","","null","resources/maskTrios/L4BB.jpg","null","",NA,NA,NA,NA,""
"image-keyboard-response",277,607727,"0.0-3.88-2.88","91596uzp4j4gs0b",298,"197.csv","","null","resources/images/coin2.png","null","",NA,NA,NA,NA,""
"image-keyboard-response",278,611810,"0.0-3.89-0.89","91596uzp4j4gs0b",298,"197.csv","","4081","resources/trios/L2T2A2.jpg","39","restless",0.4,0.5,0.5,0.28242421242916,"true"
"image-keyboard-response",279,612213,"0.0-3.89-1.89","91596uzp4j4gs0b",298,"197.csv","","null","resources/maskTrios/BBA2.jpg","null","",NA,NA,NA,NA,""
"image-keyboard-response",280,613416,"0.0-3.89-2.89","91596uzp4j4gs0b",298,"197.csv","","null","resources/images/coin2.png","null","",NA,NA,NA,NA,""
"image-keyboard-response",281,617993,"0.0-3.90-0.90","91596uzp4j4gs0b",298,"197.csv","","4575","resources/trios/L2T1A2.jpg","39","restless",0.4,0.5,0.5,0.999978418242008,"false"
"image-keyboard-response",282,618397,"0.0-3.90-1.90","91596uzp4j4gs0b",298,"197.csv","","null","resources/maskTrios/BBA2.jpg","null","",NA,NA,NA,NA,""
"image-keyboard-response",283,619600,"0.0-3.90-2.90","91596uzp4j4gs0b",298,"197.csv","","null","resources/images/fishbone.png","null","",NA,NA,NA,NA,""
"image-keyboard-response",284,626802,"0.0-3.91-0.91","91596uzp4j4gs0b",298,"197.csv","","7199","resources/trios/L2T1A2.jpg","37","restless",0.4,0.5,0.5,0.487088021957586,"false"
"image-keyboard-response",285,627205,"0.0-3.91-1.91","91596uzp4j4gs0b",298,"197.csv","","null","resources/maskTrios/L2BB.jpg","null","",NA,NA,NA,NA,""
"image-keyboard-response",286,628408,"0.0-3.91-2.91","91596uzp4j4gs0b",298,"197.csv","","null","resources/images/fishbone.png","null","",NA,NA,NA,NA,""
"image-keyboard-response",287,632262,"0.0-3.92-0.92","91596uzp4j4gs0b",298,"197.csv","","3851","resources/trios/L2T2A3.jpg","38","restless",0.4,0.5,0.5,0.98497963395673,"false"
"image-keyboard-response",288,632665,"0.0-3.92-1.92","91596uzp4j4gs0b",298,"197.csv","","null","resources/maskTrios/BT2B.jpg","null","",NA,NA,NA,NA,""
"image-keyboard-response",289,633868,"0.0-3.92-2.92","91596uzp4j4gs0b",298,"197.csv","","null","resources/images/fishbone.png","null","",NA,NA,NA,NA,""
"image-keyboard-response",290,643274,"0.0-3.93-0.93","91596uzp4j4gs0b",298,"197.csv","","9404","resources/trios/L2T1A2.jpg","39","restless",0.4,0.5,0.5,0.00431758927359871,"true"
"image-keyboard-response",291,643677,"0.0-3.93-1.93","91596uzp4j4gs0b",298,"197.csv","","null","resources/maskTrios/BBA2.jpg","null","",NA,NA,NA,NA,""
"image-keyboard-response",292,644880,"0.0-3.93-2.93","91596uzp4j4gs0b",298,"197.csv","","null","resources/images/coin2.png","null","",NA,NA,NA,NA,""
"image-keyboard-response",293,653594,"0.0-3.94-0.94","91596uzp4j4gs0b",298,"197.csv","","8711.999999999884","resources/trios/L2T1A2.jpg","38","restless",0.4,0.5,0.5,0.793829145087361,"false"
"image-keyboard-response",294,653997,"0.0-3.94-1.94","91596uzp4j4gs0b",298,"197.csv","","null","resources/maskTrios/BT1B.jpg","null","",NA,NA,NA,NA,""
"image-keyboard-response",295,655200,"0.0-3.94-2.94","91596uzp4j4gs0b",298,"197.csv","","null","resources/images/fishbone.png","null","",NA,NA,NA,NA,""
"image-keyboard-response",296,677399,"0.0-3.95-0.95","91596uzp4j4gs0b",298,"197.csv","","22196","resources/trios/L4T2A3.jpg","39","restless",0.4,0.5,0.5,0.812904742696172,"false"
"image-keyboard-response",297,677802,"0.0-3.95-1.95","91596uzp4j4gs0b",298,"197.csv","","null","resources/maskTrios/BBA3.jpg","null","",NA,NA,NA,NA,""
"image-keyboard-response",298,679004,"0.0-3.95-2.95","91596uzp4j4gs0b",298,"197.csv","","null","resources/images/fishbone.png","null","",NA,NA,NA,NA,""
"image-keyboard-response",299,683111,"0.0-3.96-0.96","91596uzp4j4gs0b",298,"197.csv","","4104.999999999884","resources/trios/L2T1A3.jpg","38","restless",0.4,0.5,0.5,0.805637634182285,"false"
"image-keyboard-response",300,683514,"0.0-3.96-1.96","91596uzp4j4gs0b",298,"197.csv","","null","resources/maskTrios/BT1B.jpg","null","",NA,NA,NA,NA,""
"image-keyboard-response",301,684717,"0.0-3.96-2.96","91596uzp4j4gs0b",298,"197.csv","","null","resources/images/fishbone.png","null","",NA,NA,NA,NA,""
"image-keyboard-response",302,685760,"0.0-3.97-0.97","91596uzp4j4gs0b",298,"197.csv","","1041","resources/trios/L4T2A2.jpg","37","restless",0.5,0.5,0.5,0.374134459669048,"true"
"image-keyboard-response",303,686163,"0.0-3.97-1.97","91596uzp4j4gs0b",298,"197.csv","","null","resources/maskTrios/L4BB.jpg","null","",NA,NA,NA,NA,""
"image-keyboard-response",304,687367,"0.0-3.97-2.97","91596uzp4j4gs0b",298,"197.csv","","null","resources/images/coin2.png","null","",NA,NA,NA,NA,""
"image-keyboard-response",305,688398,"0.0-3.98-0.98","91596uzp4j4gs0b",298,"197.csv","","1027","resources/trios/L2T1A2.jpg","39","restless",0.5,0.5,0.5,0.25213074843746,"true"
"image-keyboard-response",306,688801,"0.0-3.98-1.98","91596uzp4j4gs0b",298,"197.csv","","null","resources/maskTrios/BBA2.jpg","null","",NA,NA,NA,NA,""
"image-keyboard-response",307,690004,"0.0-3.98-2.98","91596uzp4j4gs0b",298,"197.csv","","null","resources/images/coin2.png","null","",NA,NA,NA,NA,""
"image-keyboard-response",308,692243,"0.0-3.99-0.99","91596uzp4j4gs0b",298,"197.csv","","2236","resources/trios/L4T1A3.jpg","37","restless",0.5,0.5,0.5,0.111728643569581,"true"
"image-keyboard-response",309,692646,"0.0-3.99-1.99","91596uzp4j4gs0b",298,"197.csv","","null","resources/maskTrios/L4BB.jpg","null","",NA,NA,NA,NA,""
"image-keyboard-response",310,693848,"0.0-3.99-2.99","91596uzp4j4gs0b",298,"197.csv","","null","resources/images/coin2.png","null","",NA,NA,NA,NA,""
"image-keyboard-response",311,694849,"0.0-3.100-0.100","91596uzp4j4gs0b",298,"197.csv","","998","resources/trios/L4T1A2.jpg","37","restless",0.5,0.5,0.5,0.228057739799241,"true"
"image-keyboard-response",312,695252,"0.0-3.100-1.100","91596uzp4j4gs0b",298,"197.csv","","null","resources/maskTrios/L4BB.jpg","null","",NA,NA,NA,NA,""
"image-keyboard-response",313,696455,"0.0-3.100-2.100","91596uzp4j4gs0b",298,"197.csv","","null","resources/images/coin2.png","null","",NA,NA,NA,NA,""
"image-keyboard-response",314,697611,"0.0-3.101-0.101","91596uzp4j4gs0b",298,"197.csv","","1152.9999999998836","resources/trios/L2T1A2.jpg","39","restless",0.5,0.5,0.5,0.385867865795703,"true"
"image-keyboard-response",315,698014,"0.0-3.101-1.101","91596uzp4j4gs0b",298,"197.csv","","null","resources/maskTrios/BBA2.jpg","null","",NA,NA,NA,NA,""
"image-keyboard-response",316,699216,"0.0-3.101-2.101","91596uzp4j4gs0b",298,"197.csv","","null","resources/images/coin2.png","null","",NA,NA,NA,NA,""
"image-keyboard-response",317,700130,"0.0-3.102-0.102","91596uzp4j4gs0b",298,"197.csv","","911","resources/trios/L2T2A3.jpg","39","restless",0.5,0.5,0.5,0.923626158177827,"false"
"image-keyboard-response",318,700533,"0.0-3.102-1.102","91596uzp4j4gs0b",298,"197.csv","","null","resources/maskTrios/BBA3.jpg","null","",NA,NA,NA,NA,""
"image-keyboard-response",319,701736,"0.0-3.102-2.102","91596uzp4j4gs0b",298,"197.csv","","null","resources/images/fishbone.png","null","",NA,NA,NA,NA,""
"image-keyboard-response",320,702921,"0.0-3.103-0.103","91596uzp4j4gs0b",298,"197.csv","","1182","resources/trios/L2T1A2.jpg","37","restless",0.5,0.5,0.5,0.620974503048526,"false"
"image-keyboard-response",321,703324,"0.0-3.103-1.103","91596uzp4j4gs0b",298,"197.csv","","null","resources/maskTrios/L2BB.jpg","null","",NA,NA,NA,NA,""
"image-keyboard-response",322,704530,"0.0-3.103-2.103","91596uzp4j4gs0b",298,"197.csv","","null","resources/images/fishbone.png","null","",NA,NA,NA,NA,""
"image-keyboard-response",323,705352,"0.0-3.104-0.104","91596uzp4j4gs0b",298,"197.csv","","819","resources/trios/L2T1A3.jpg","39","restless",0.5,0.5,0.5,0.929521639406204,"false"
"image-keyboard-response",324,705755,"0.0-3.104-1.104","91596uzp4j4gs0b",298,"197.csv","","null","resources/maskTrios/BBA3.jpg","null","",NA,NA,NA,NA,""
"image-keyboard-response",325,706958,"0.0-3.104-2.104","91596uzp4j4gs0b",298,"197.csv","","null","resources/images/fishbone.png","null","",NA,NA,NA,NA,""
"image-keyboard-response",326,709414,"0.0-3.105-0.105","91596uzp4j4gs0b",298,"197.csv","","2453","resources/trios/L2T2A2.jpg","37","restless",0.5,0.5,0.5,0.0753926164836438,"true"
"image-keyboard-response",327,709817,"0.0-3.105-1.105","91596uzp4j4gs0b",298,"197.csv","","null","resources/maskTrios/L2BB.jpg","null","",NA,NA,NA,NA,""
"image-keyboard-response",328,711020,"0.0-3.105-2.105","91596uzp4j4gs0b",298,"197.csv","","null","resources/images/coin2.png","null","",NA,NA,NA,NA,""
"image-keyboard-response",329,711954,"0.0-3.106-0.106","91596uzp4j4gs0b",298,"197.csv","","931","resources/trios/L2T2A3.jpg","39","restless",0.5,0.5,0.6,0.535394352756349,"true"
"image-keyboard-response",330,712357,"0.0-3.106-1.106","91596uzp4j4gs0b",298,"197.csv","","null","resources/maskTrios/BBA3.jpg","null","",NA,NA,NA,NA,""
"image-keyboard-response",331,713560,"0.0-3.106-2.106","91596uzp4j4gs0b",298,"197.csv","","null","resources/images/coin2.png","null","",NA,NA,NA,NA,""
"image-keyboard-response",332,714657,"0.0-3.107-0.107","91596uzp4j4gs0b",298,"197.csv","","1095","resources/trios/L4T1A2.jpg","37","restless",0.5,0.5,0.6,0.728054046800183,"false"
"image-keyboard-response",333,715061,"0.0-3.107-1.107","91596uzp4j4gs0b",298,"197.csv","","null","resources/maskTrios/L4BB.jpg","null","",NA,NA,NA,NA,""
"image-keyboard-response",334,716263,"0.0-3.107-2.107","91596uzp4j4gs0b",298,"197.csv","","null","resources/images/fishbone.png","null","",NA,NA,NA,NA,""
"image-keyboard-response",335,718596,"0.0-3.108-0.108","91596uzp4j4gs0b",298,"197.csv","","2329","resources/trios/L2T2A2.jpg","39","restless",0.5,0.5,0.6,0.973006623791457,"false"
"image-keyboard-response",336,718999,"0.0-3.108-1.108","91596uzp4j4gs0b",298,"197.csv","","null","resources/maskTrios/BBA2.jpg","null","",NA,NA,NA,NA,""
"image-keyboard-response",337,720202,"0.0-3.108-2.108","91596uzp4j4gs0b",298,"197.csv","","null","resources/images/fishbone.png","null","",NA,NA,NA,NA,""
"image-keyboard-response",338,721861,"0.0-3.109-0.109","91596uzp4j4gs0b",298,"197.csv","","1657.0000000001164","resources/trios/L4T2A3.jpg","39","restless",0.5,0.5,0.6,0.234445694899191,"true"
"image-keyboard-response",339,722264,"0.0-3.109-1.109","91596uzp4j4gs0b",298,"197.csv","","null","resources/maskTrios/BBA3.jpg","null","",NA,NA,NA,NA,""
"image-keyboard-response",340,723467,"0.0-3.109-2.109","91596uzp4j4gs0b",298,"197.csv","","null","resources/images/coin2.png","null","",NA,NA,NA,NA,""
"image-keyboard-response",341,725922,"0.0-3.110-0.110","91596uzp4j4gs0b",298,"197.csv","","2449","resources/trios/L4T1A2.jpg","39","restless",0.5,0.5,0.6,0.331391760205617,"true"
"image-keyboard-response",342,726326,"0.0-3.110-1.110","91596uzp4j4gs0b",298,"197.csv","","null","resources/maskTrios/BBA2.jpg","null","",NA,NA,NA,NA,""
"image-keyboard-response",343,727529,"0.0-3.110-2.110","91596uzp4j4gs0b",298,"197.csv","","null","resources/images/coin2.png","null","",NA,NA,NA,NA,""
"image-keyboard-response",344,729094,"0.0-3.111-0.111","91596uzp4j4gs0b",298,"197.csv","","1563","resources/trios/L2T1A2.jpg","39","restless",0.5,0.5,0.7,0.216550645197034,"true"
"image-keyboard-response",345,729497,"0.0-3.111-1.111","91596uzp4j4gs0b",298,"197.csv","","null","resources/maskTrios/BBA2.jpg","null","",NA,NA,NA,NA,""
"image-keyboard-response",346,730699,"0.0-3.111-2.111","91596uzp4j4gs0b",298,"197.csv","","null","resources/images/coin2.png","null","",NA,NA,NA,NA,""
"image-keyboard-response",347,732158,"0.0-3.112-0.112","91596uzp4j4gs0b",298,"197.csv","","1455.9999999998836","resources/trios/L2T1A3.jpg","39","restless",0.5,0.5,0.7,0.632698589113346,"true"
"image-keyboard-response",348,732561,"0.0-3.112-1.112","91596uzp4j4gs0b",298,"197.csv","","null","resources/maskTrios/BBA3.jpg","null","",NA,NA,NA,NA,""
"image-keyboard-response",349,733764,"0.0-3.112-2.112","91596uzp4j4gs0b",298,"197.csv","","null","resources/images/coin2.png","null","",NA,NA,NA,NA,""
"image-keyboard-response",350,734700,"0.0-3.113-0.113","91596uzp4j4gs0b",298,"197.csv","","933","resources/trios/L2T2A3.jpg","39","restless",0.5,0.5,0.7,0.305890912644915,"true"
"image-keyboard-response",351,735102,"0.0-3.113-1.113","91596uzp4j4gs0b",298,"197.csv","","null","resources/maskTrios/BBA3.jpg","null","",NA,NA,NA,NA,""
"image-keyboard-response",352,736305,"0.0-3.113-2.113","91596uzp4j4gs0b",298,"197.csv","","null","resources/images/coin2.png","null","",NA,NA,NA,NA,""
"image-keyboard-response",353,739158,"0.0-3.114-0.114","91596uzp4j4gs0b",298,"197.csv","","2851","resources/trios/L4T2A2.jpg","38","restless",0.5,0.5,0.7,0.736011017817364,"false"
"image-keyboard-response",354,739563,"0.0-3.114-1.114","91596uzp4j4gs0b",298,"197.csv","","null","resources/maskTrios/BT2B.jpg","null","",NA,NA,NA,NA,""
"image-keyboard-response",355,740766,"0.0-3.114-2.114","91596uzp4j4gs0b",298,"197.csv","","null","resources/images/fishbone.png","null","",NA,NA,NA,NA,""
"image-keyboard-response",356,741537,"0.0-3.115-0.115","91596uzp4j4gs0b",298,"197.csv","","769","resources/trios/L2T1A3.jpg","39","restless",0.5,0.5,0.7,0.797258047181913,"false"
"image-keyboard-response",357,741941,"0.0-3.115-1.115","91596uzp4j4gs0b",298,"197.csv","","null","resources/maskTrios/BBA3.jpg","null","",NA,NA,NA,NA,""
"image-keyboard-response",358,743143,"0.0-3.115-2.115","91596uzp4j4gs0b",298,"197.csv","","null","resources/images/fishbone.png","null","",NA,NA,NA,NA,""
"image-keyboard-response",359,744986,"0.0-3.116-0.116","91596uzp4j4gs0b",298,"197.csv","","1840.0000000001164","resources/trios/L2T2A2.jpg","39","restless",0.5,0.5,0.7,0.852012094744856,"false"
"image-keyboard-response",360,745389,"0.0-3.116-1.116","91596uzp4j4gs0b",298,"197.csv","","null","resources/maskTrios/BBA2.jpg","null","",NA,NA,NA,NA,""
"image-keyboard-response",361,746592,"0.0-3.116-2.116","91596uzp4j4gs0b",298,"197.csv","","null","resources/images/fishbone.png","null","",NA,NA,NA,NA,""
"image-keyboard-response",362,748260,"0.0-3.117-0.117","91596uzp4j4gs0b",298,"197.csv","","1665.0000000001164","resources/trios/L4T2A2.jpg","37","restless",0.5,0.5,0.7,0.857164439319085,"false"
"image-keyboard-response",363,748663,"0.0-3.117-1.117","91596uzp4j4gs0b",298,"197.csv","","null","resources/maskTrios/L4BB.jpg","null","",NA,NA,NA,NA,""
"image-keyboard-response",364,749866,"0.0-3.117-2.117","91596uzp4j4gs0b",298,"197.csv","","null","resources/images/fishbone.png","null","",NA,NA,NA,NA,""
"image-keyboard-response",365,750994,"0.0-3.118-0.118","91596uzp4j4gs0b",298,"197.csv","","1126","resources/trios/L4T1A2.jpg","37","restless",0.5,0.5,0.7,0.386690473123473,"true"
"image-keyboard-response",366,751397,"0.0-3.118-1.118","91596uzp4j4gs0b",298,"197.csv","","null","resources/maskTrios/L4BB.jpg","null","",NA,NA,NA,NA,""
"image-keyboard-response",367,752600,"0.0-3.118-2.118","91596uzp4j4gs0b",298,"197.csv","","null","resources/images/coin2.png","null","",NA,NA,NA,NA,""
"image-keyboard-response",368,753518,"0.0-3.119-0.119","91596uzp4j4gs0b",298,"197.csv","","915","resources/trios/L2T1A3.jpg","39","restless",0.6,0.5,0.7,0.179381683947722,"true"
"image-keyboard-response",369,753921,"0.0-3.119-1.119","91596uzp4j4gs0b",298,"197.csv","","null","resources/maskTrios/BBA3.jpg","null","",NA,NA,NA,NA,""
"image-keyboard-response",370,755125,"0.0-3.119-2.119","91596uzp4j4gs0b",298,"197.csv","","null","resources/images/coin2.png","null","",NA,NA,NA,NA,""
"image-keyboard-response",371,756198,"0.0-3.120-0.120","91596uzp4j4gs0b",298,"197.csv","","1071","resources/trios/L2T2A3.jpg","39","restless",0.6,0.5,0.7,0.206383999026942,"true"
"image-keyboard-response",372,756602,"0.0-3.120-1.120","91596uzp4j4gs0b",298,"197.csv","","null","resources/maskTrios/BBA3.jpg","null","",NA,NA,NA,NA,""
"image-keyboard-response",373,757805,"0.0-3.120-2.120","91596uzp4j4gs0b",298,"197.csv","","null","resources/images/coin2.png","null","",NA,NA,NA,NA,""
"image-keyboard-response",374,759400,"0.0-3.121-0.121","91596uzp4j4gs0b",298,"197.csv","","1592","resources/trios/L4T2A3.jpg","39","restless",0.6,0.5,0.7,0.275515197047655,"true"
"image-keyboard-response",375,759804,"0.0-3.121-1.121","91596uzp4j4gs0b",298,"197.csv","","null","resources/maskTrios/BBA3.jpg","null","",NA,NA,NA,NA,""
"image-keyboard-response",376,761007,"0.0-3.121-2.121","91596uzp4j4gs0b",298,"197.csv","","null","resources/images/coin2.png","null","",NA,NA,NA,NA,""
"image-keyboard-response",377,762874,"0.0-3.122-0.122","91596uzp4j4gs0b",298,"197.csv","","1863.9999999998836","resources/trios/L2T2A2.jpg","38","restless",0.6,0.4,0.7,0.35676043395549,"true"
"image-keyboard-response",378,763276,"0.0-3.122-1.122","91596uzp4j4gs0b",298,"197.csv","","null","resources/maskTrios/BT2B.jpg","null","",NA,NA,NA,NA,""
"image-keyboard-response",379,764479,"0.0-3.122-2.122","91596uzp4j4gs0b",298,"197.csv","","null","resources/images/coin2.png","null","",NA,NA,NA,NA,""
"image-keyboard-response",380,765692,"0.0-3.123-0.123","91596uzp4j4gs0b",298,"197.csv","","1208","resources/trios/L4T1A3.jpg","39","restless",0.6,0.4,0.7,0.451332056088652,"true"
"image-keyboard-response",381,766095,"0.0-3.123-1.123","91596uzp4j4gs0b",298,"197.csv","","null","resources/maskTrios/BBA3.jpg","null","",NA,NA,NA,NA,""
"image-keyboard-response",382,767297,"0.0-3.123-2.123","91596uzp4j4gs0b",298,"197.csv","","null","resources/images/coin2.png","null","",NA,NA,NA,NA,""
"image-keyboard-response",383,768340,"0.0-3.124-0.124","91596uzp4j4gs0b",298,"197.csv","","1040","resources/trios/L2T1A2.jpg","37","restless",0.7,0.4,0.7,0.699791090115627,"true"
"image-keyboard-response",384,768743,"0.0-3.124-1.124","91596uzp4j4gs0b",298,"197.csv","","null","resources/maskTrios/L2BB.jpg","null","",NA,NA,NA,NA,""
"image-keyboard-response",385,769946,"0.0-3.124-2.124","91596uzp4j4gs0b",298,"197.csv","","null","resources/images/coin2.png","null","",NA,NA,NA,NA,""
"image-keyboard-response",386,770462,"0.0-3.125-0.125","91596uzp4j4gs0b",298,"197.csv","","513","resources/trios/L2T2A3.jpg","39","restless",0.8,0.4,0.7,0.00187329119860491,"true"
"image-keyboard-response",387,770865,"0.0-3.125-1.125","91596uzp4j4gs0b",298,"197.csv","","null","resources/maskTrios/BBA3.jpg","null","",NA,NA,NA,NA,""
"image-keyboard-response",388,772068,"0.0-3.125-2.125","91596uzp4j4gs0b",298,"197.csv","","null","resources/images/coin2.png","null","",NA,NA,NA,NA,""
"image-keyboard-response",389,774231,"0.0-3.126-0.126","91596uzp4j4gs0b",298,"197.csv","","2160","resources/trios/L4T2A2.jpg","38","restless",0.8,0.4,0.7,0.968485640041288,"false"
"image-keyboard-response",390,774634,"0.0-3.126-1.126","91596uzp4j4gs0b",298,"197.csv","","null","resources/maskTrios/BT2B.jpg","null","",NA,NA,NA,NA,""
"image-keyboard-response",391,775837,"0.0-3.126-2.126","91596uzp4j4gs0b",298,"197.csv","","null","resources/images/fishbone.png","null","",NA,NA,NA,NA,""
"image-keyboard-response",392,777084,"0.0-3.127-0.127","91596uzp4j4gs0b",298,"197.csv","","1244","resources/trios/L4T1A2.jpg","37","restless",0.9,0.4,0.7,0.873935028441493,"true"
"image-keyboard-response",393,777487,"0.0-3.127-1.127","91596uzp4j4gs0b",298,"197.csv","","null","resources/maskTrios/L4BB.jpg","null","",NA,NA,NA,NA,""
"image-keyboard-response",394,778691,"0.0-3.127-2.127","91596uzp4j4gs0b",298,"197.csv","","null","resources/images/coin2.png","null","",NA,NA,NA,NA,""
"image-keyboard-response",395,779556,"0.0-3.128-0.128","91596uzp4j4gs0b",298,"197.csv","","862.0000000001164","resources/trios/L2T2A2.jpg","37","restless",0.9,0.4,0.8,0.666291562902761,"true"
"image-keyboard-response",396,779960,"0.0-3.128-1.128","91596uzp4j4gs0b",298,"197.csv","","null","resources/maskTrios/L2BB.jpg","null","",NA,NA,NA,NA,""
"image-keyboard-response",397,781163,"0.0-3.128-2.128","91596uzp4j4gs0b",298,"197.csv","","null","resources/images/coin2.png","null","",NA,NA,NA,NA,""
"image-keyboard-response",398,781982,"0.0-3.129-0.129","91596uzp4j4gs0b",298,"197.csv","","817","resources/trios/L4T2A2.jpg","37","restless",0.8,0.5,0.8,0.144785191404611,"true"
"image-keyboard-response",399,782386,"0.0-3.129-1.129","91596uzp4j4gs0b",298,"197.csv","","null","resources/maskTrios/L4BB.jpg","null","",NA,NA,NA,NA,""
"image-keyboard-response",400,783589,"0.0-3.129-2.129","91596uzp4j4gs0b",298,"197.csv","","null","resources/images/coin2.png","null","",NA,NA,NA,NA,""
"image-keyboard-response",401,784116,"0.0-3.130-0.130","91596uzp4j4gs0b",298,"197.csv","","525","resources/trios/L4T2A3.jpg","39","restless",0.8,0.5,0.8,0.0428091670155758,"true"
"image-keyboard-response",402,784519,"0.0-3.130-1.130","91596uzp4j4gs0b",298,"197.csv","","null","resources/maskTrios/BBA3.jpg","null","",NA,NA,NA,NA,""
"image-keyboard-response",403,785722,"0.0-3.130-2.130","91596uzp4j4gs0b",298,"197.csv","","null","resources/images/coin2.png","null","",NA,NA,NA,NA,""
"image-keyboard-response",404,787702,"0.0-3.131-0.131","91596uzp4j4gs0b",298,"197.csv","","1977","resources/trios/L2T1A2.jpg","37","restless",0.8,0.5,0.8,0.0446315643903623,"true"
"image-keyboard-response",405,788105,"0.0-3.131-1.131","91596uzp4j4gs0b",298,"197.csv","","null","resources/maskTrios/L2BB.jpg","null","",NA,NA,NA,NA,""
"image-keyboard-response",406,789308,"0.0-3.131-2.131","91596uzp4j4gs0b",298,"197.csv","","null","resources/images/coin2.png","null","",NA,NA,NA,NA,""
"image-keyboard-response",407,789846,"0.0-3.132-0.132","91596uzp4j4gs0b",298,"197.csv","","534.9999999998836","resources/trios/L2T1A3.jpg","39","restless",0.8,0.5,0.8,0.142713538924889,"true"
"image-keyboard-response",408,790249,"0.0-3.132-1.132","91596uzp4j4gs0b",298,"197.csv","","null","resources/maskTrios/BBA3.jpg","null","",NA,NA,NA,NA,""
"image-keyboard-response",409,791452,"0.0-3.132-2.132","91596uzp4j4gs0b",298,"197.csv","","null","resources/images/coin2.png","null","",NA,NA,NA,NA,""
"image-keyboard-response",410,792843,"0.0-3.133-0.133","91596uzp4j4gs0b",298,"197.csv","","1387.9999999998836","resources/trios/L4T2A2.jpg","37","restless",0.9,0.5,0.7,0.93902383714239,"false"
"image-keyboard-response",411,793246,"0.0-3.133-1.133","91596uzp4j4gs0b",298,"197.csv","","null","resources/maskTrios/L4BB.jpg","null","",NA,NA,NA,NA,""
"image-keyboard-response",412,794449,"0.0-3.133-2.133","91596uzp4j4gs0b",298,"197.csv","","null","resources/images/fishbone.png","null","",NA,NA,NA,NA,""
"image-keyboard-response",413,801905,"0.0-3.134-0.134","91596uzp4j4gs0b",298,"197.csv","","7453","resources/trios/L4T2A2.jpg","38","restless",0.9,0.5,0.7,0.799209567411339,"false"
"image-keyboard-response",414,802308,"0.0-3.134-1.134","91596uzp4j4gs0b",298,"197.csv","","null","resources/maskTrios/BT2B.jpg","null","",NA,NA,NA,NA,""
"image-keyboard-response",415,803511,"0.0-3.134-2.134","91596uzp4j4gs0b",298,"197.csv","","null","resources/images/fishbone.png","null","",NA,NA,NA,NA,""
"image-keyboard-response",416,812388,"0.0-3.135-0.135","91596uzp4j4gs0b",298,"197.csv","","8874.000000000116","resources/trios/L2T2A2.jpg","37","restless",0.9,0.5,0.7,0.220955578071624,"true"
"image-keyboard-response",417,812791,"0.0-3.135-1.135","91596uzp4j4gs0b",298,"197.csv","","null","resources/maskTrios/L2BB.jpg","null","",NA,NA,NA,NA,""
"image-keyboard-response",418,813994,"0.0-3.135-2.135","91596uzp4j4gs0b",298,"197.csv","","null","resources/images/coin2.png","null","",NA,NA,NA,NA,""
"image-keyboard-response",419,857444,"0.0-3.136-0.136","91596uzp4j4gs0b",298,"197.csv","","43449","resources/trios/L2T1A3.jpg","39","restless",0.9,0.5,0.7,0.398397107437326,"true"
"image-keyboard-response",420,857849,"0.0-3.136-1.136","91596uzp4j4gs0b",298,"197.csv","","null","resources/maskTrios/BBA3.jpg","null","",NA,NA,NA,NA,""
"image-keyboard-response",421,859051,"0.0-3.136-2.136","91596uzp4j4gs0b",298,"197.csv","","null","resources/images/coin2.png","null","",NA,NA,NA,NA,""
"image-keyboard-response",422,865804,"0.0-3.137-0.137","91596uzp4j4gs0b",298,"197.csv","","6750.999999999884","resources/trios/L2T1A3.jpg","39","restless",0.8,0.5,0.7,0.281390948745748,"true"
"image-keyboard-response",423,866207,"0.0-3.137-1.137","91596uzp4j4gs0b",298,"197.csv","","null","resources/maskTrios/BBA3.jpg","null","",NA,NA,NA,NA,""
"image-keyboard-response",424,867410,"0.0-3.137-2.137","91596uzp4j4gs0b",298,"197.csv","","null","resources/images/coin2.png","null","",NA,NA,NA,NA,""
"image-keyboard-response",425,892004,"0.0-3.138-0.138","91596uzp4j4gs0b",298,"197.csv","","24592","resources/trios/L4T1A2.jpg","38","restless",0.8,0.5,0.7,0.0157725051103029,"true"
"image-keyboard-response",426,892407,"0.0-3.138-1.138","91596uzp4j4gs0b",298,"197.csv","","null","resources/maskTrios/BT1B.jpg","null","",NA,NA,NA,NA,""
"image-keyboard-response",427,893610,"0.0-3.138-2.138","91596uzp4j4gs0b",298,"197.csv","","null","resources/images/coin2.png","null","",NA,NA,NA,NA,""
"image-keyboard-response",428,976662,"0.0-3.139-0.139","91596uzp4j4gs0b",298,"197.csv","","83051","resources/trios/L4T2A2.jpg","38","restless",0.8,0.4,0.7,0.328506810841843,"true"
"image-keyboard-response",429,977066,"0.0-3.139-1.139","91596uzp4j4gs0b",298,"197.csv","","null","resources/maskTrios/BT2B.jpg","null","",NA,NA,NA,NA,""
"image-keyboard-response",430,978269,"0.0-3.139-2.139","91596uzp4j4gs0b",298,"197.csv","","null","resources/images/coin2.png","null","",NA,NA,NA,NA,""
"image-keyboard-response",431,989561,"0.0-3.140-0.140","91596uzp4j4gs0b",298,"197.csv","","11288.999999999884","resources/trios/L4T1A2.jpg","38","restless",0.8,0.4,0.7,0.948171297588205,"false"
"image-keyboard-response",432,989964,"0.0-3.140-1.140","91596uzp4j4gs0b",298,"197.csv","","null","resources/maskTrios/BT1B.jpg","null","",NA,NA,NA,NA,""
"image-keyboard-response",433,991167,"0.0-3.140-2.140","91596uzp4j4gs0b",298,"197.csv","","null","resources/images/fishbone.png","null","",NA,NA,NA,NA,""
"image-keyboard-response",434,993026,"0.0-3.141-0.141","91596uzp4j4gs0b",298,"197.csv","","1856","resources/trios/L4T2A3.jpg","39","restless",0.8,0.4,0.7,0.180871030176209,"true"
"image-keyboard-response",435,993429,"0.0-3.141-1.141","91596uzp4j4gs0b",298,"197.csv","","null","resources/maskTrios/BBA3.jpg","null","",NA,NA,NA,NA,""
"image-keyboard-response",436,994632,"0.0-3.141-2.141","91596uzp4j4gs0b",298,"197.csv","","null","resources/images/coin2.png","null","",NA,NA,NA,NA,""
"image-keyboard-response",437,995677,"0.0-3.142-0.142","91596uzp4j4gs0b",298,"197.csv","","1043","resources/trios/L4T1A3.jpg","39","restless",0.8,0.4,0.7,0.0946020162446634,"true"
"image-keyboard-response",438,996080,"0.0-3.142-1.142","91596uzp4j4gs0b",298,"197.csv","","null","resources/maskTrios/BBA3.jpg","null","",NA,NA,NA,NA,""
"image-keyboard-response",439,997282,"0.0-3.142-2.142","91596uzp4j4gs0b",298,"197.csv","","null","resources/images/coin2.png","null","",NA,NA,NA,NA,""
"image-keyboard-response",440,999189,"0.0-3.143-0.143","91596uzp4j4gs0b",298,"197.csv","","1904.0000000001164","resources/trios/L4T1A2.jpg","38","restless",0.8,0.4,0.6,0.65373353913924,"false"
"image-keyboard-response",441,999592,"0.0-3.143-1.143","91596uzp4j4gs0b",298,"197.csv","","null","resources/maskTrios/BT1B.jpg","null","",NA,NA,NA,NA,""
"image-keyboard-response",442,1000795,"0.0-3.143-2.143","91596uzp4j4gs0b",298,"197.csv","","null","resources/images/fishbone.png","null","",NA,NA,NA,NA,""
"image-keyboard-response",443,1001857,"0.0-3.144-0.144","91596uzp4j4gs0b",298,"197.csv","","1058","resources/trios/L4T2A3.jpg","39","restless",0.8,0.4,0.5,0.0301948590396314,"true"
"image-keyboard-response",444,1002260,"0.0-3.144-1.144","91596uzp4j4gs0b",298,"197.csv","","null","resources/maskTrios/BBA3.jpg","null","",NA,NA,NA,NA,""
"image-keyboard-response",445,1003464,"0.0-3.144-2.144","91596uzp4j4gs0b",298,"197.csv","","null","resources/images/coin2.png","null","",NA,NA,NA,NA,""
"image-keyboard-response",446,1005044,"0.0-3.145-0.145","91596uzp4j4gs0b",298,"197.csv","","1579.0000000001164","resources/trios/L4T2A2.jpg","37","restless",0.8,0.4,0.5,0.0679356378661241,"true"
"image-keyboard-response",447,1005447,"0.0-3.145-1.145","91596uzp4j4gs0b",298,"197.csv","","null","resources/maskTrios/L4BB.jpg","null","",NA,NA,NA,NA,""
"image-keyboard-response",448,1006650,"0.0-3.145-2.145","91596uzp4j4gs0b",298,"197.csv","","null","resources/images/coin2.png","null","",NA,NA,NA,NA,""
"image-keyboard-response",449,1023093,"0.0-3.146-0.146","91596uzp4j4gs0b",298,"197.csv","","16441","resources/trios/L2T1A2.jpg","38","restless",0.8,0.4,0.5,0.33397137348831,"true"
"image-keyboard-response",450,1023496,"0.0-3.146-1.146","91596uzp4j4gs0b",298,"197.csv","","null","resources/maskTrios/BT1B.jpg","null","",NA,NA,NA,NA,""
"image-keyboard-response",451,1024699,"0.0-3.146-2.146","91596uzp4j4gs0b",298,"197.csv","","null","resources/images/coin2.png","null","",NA,NA,NA,NA,""
"image-keyboard-response",452,1027699,"0.0-3.147-0.147","91596uzp4j4gs0b",298,"197.csv","","2997","resources/trios/L4T1A3.jpg","39","restless",0.8,0.4,0.5,0.0745833607127742,"true"
"image-keyboard-response",453,1028104,"0.0-3.147-1.147","91596uzp4j4gs0b",298,"197.csv","","null","resources/maskTrios/BBA3.jpg","null","",NA,NA,NA,NA,""
"image-keyboard-response",454,1029307,"0.0-3.147-2.147","91596uzp4j4gs0b",298,"197.csv","","null","resources/images/coin2.png","null","",NA,NA,NA,NA,""
"image-keyboard-response",455,1034844,"0.0-3.148-0.148","91596uzp4j4gs0b",298,"197.csv","","5534.000000000116","resources/trios/L2T2A2.jpg","38","restless",0.8,0.4,0.5,0.0563184665702893,"true"
"image-keyboard-response",456,1035248,"0.0-3.148-1.148","91596uzp4j4gs0b",298,"197.csv","","null","resources/maskTrios/BT2B.jpg","null","",NA,NA,NA,NA,""
"image-keyboard-response",457,1036451,"0.0-3.148-2.148","91596uzp4j4gs0b",298,"197.csv","","null","resources/images/coin2.png","null","",NA,NA,NA,NA,""
"image-keyboard-response",458,1037932,"0.0-3.149-0.149","91596uzp4j4gs0b",298,"197.csv","","1478.0000000001164","resources/trios/L2T2A2.jpg","37","restless",0.8,0.4,0.5,0.213663846140924,"true"
"image-keyboard-response",459,1038335,"0.0-3.149-1.149","91596uzp4j4gs0b",298,"197.csv","","null","resources/maskTrios/L2BB.jpg","null","",NA,NA,NA,NA,""
"image-keyboard-response",460,1039539,"0.0-3.149-2.149","91596uzp4j4gs0b",298,"197.csv","","null","resources/images/coin2.png","null","",NA,NA,NA,NA,""
"image-keyboard-response",461,1041016,"0.0-3.150-0.150","91596uzp4j4gs0b",298,"197.csv","","1471.9999999998836","resources/trios/L4T1A2.jpg","38","restless",0.8,0.4,0.5,0.48524914102273,"false"
"image-keyboard-response",462,1041419,"0.0-3.150-1.150","91596uzp4j4gs0b",298,"197.csv","","null","resources/maskTrios/BT1B.jpg","null","",NA,NA,NA,NA,""
"image-keyboard-response",463,1042622,"0.0-3.150-2.150","91596uzp4j4gs0b",298,"197.csv","","null","resources/images/fishbone.png","null","",NA,NA,NA,NA,""
"image-keyboard-response",464,1043479,"0.0-3.151-0.151","91596uzp4j4gs0b",298,"197.csv","","854","resources/trios/L2T1A2.jpg","37","restless",0.8,0.4,0.5,0.309913870722513,"true"
"image-keyboard-response",465,1043882,"0.0-3.151-1.151","91596uzp4j4gs0b",298,"197.csv","","null","resources/maskTrios/L2BB.jpg","null","",NA,NA,NA,NA,""
"image-keyboard-response",466,1045084,"0.0-3.151-2.151","91596uzp4j4gs0b",298,"197.csv","","null","resources/images/coin2.png","null","",NA,NA,NA,NA,""
"image-keyboard-response",467,1046203,"0.0-3.152-0.152","91596uzp4j4gs0b",298,"197.csv","","1112.9999999998836","resources/trios/L4T1A2.jpg","38","restless",0.8,0.4,0.5,0.215384569980372,"true"
"image-keyboard-response",468,1046606,"0.0-3.152-1.152","91596uzp4j4gs0b",298,"197.csv","","null","resources/maskTrios/BT1B.jpg","null","",NA,NA,NA,NA,""
"image-keyboard-response",469,1047809,"0.0-3.152-2.152","91596uzp4j4gs0b",298,"197.csv","","null","resources/images/coin2.png","null","",NA,NA,NA,NA,""
"image-keyboard-response",470,1049355,"0.0-3.153-0.153","91596uzp4j4gs0b",298,"197.csv","","1544","resources/trios/L4T1A2.jpg","38","restless",0.8,0.4,0.5,0.343660077919234,"true"
"image-keyboard-response",471,1049758,"0.0-3.153-1.153","91596uzp4j4gs0b",298,"197.csv","","null","resources/maskTrios/BT1B.jpg","null","",NA,NA,NA,NA,""
"image-keyboard-response",472,1050961,"0.0-3.153-2.153","91596uzp4j4gs0b",298,"197.csv","","null","resources/images/coin2.png","null","",NA,NA,NA,NA,""
"image-keyboard-response",473,1051722,"0.0-3.154-0.154","91596uzp4j4gs0b",298,"197.csv","","758","resources/trios/L4T1A3.jpg","39","restless",0.8,0.4,0.5,0.597795849679196,"false"
"image-keyboard-response",474,1052125,"0.0-3.154-1.154","91596uzp4j4gs0b",298,"197.csv","","null","resources/maskTrios/BBA3.jpg","null","",NA,NA,NA,NA,""
"image-keyboard-response",475,1053328,"0.0-3.154-2.154","91596uzp4j4gs0b",298,"197.csv","","null","resources/images/fishbone.png","null","",NA,NA,NA,NA,""
"image-keyboard-response",476,1053945,"0.0-3.155-0.155","91596uzp4j4gs0b",298,"197.csv","","615","resources/trios/L4T2A2.jpg","38","restless",0.8,0.4,0.5,0.656798576135191,"false"
"image-keyboard-response",477,1054349,"0.0-3.155-1.155","91596uzp4j4gs0b",298,"197.csv","","null","resources/maskTrios/BT2B.jpg","null","",NA,NA,NA,NA,""
"image-keyboard-response",478,1055552,"0.0-3.155-2.155","91596uzp4j4gs0b",298,"197.csv","","null","resources/images/fishbone.png","null","",NA,NA,NA,NA,""
"image-keyboard-response",479,1056632,"0.0-3.156-0.156","91596uzp4j4gs0b",298,"197.csv","","1078","resources/trios/L4T2A2.jpg","38","restless",0.9,0.4,0.5,0.759710282127345,"false"
"image-keyboard-response",480,1057035,"0.0-3.156-1.156","91596uzp4j4gs0b",298,"197.csv","","null","resources/maskTrios/BT2B.jpg","null","",NA,NA,NA,NA,""
"image-keyboard-response",481,1058241,"0.0-3.156-2.156","91596uzp4j4gs0b",298,"197.csv","","null","resources/images/fishbone.png","null","",NA,NA,NA,NA,""
"image-keyboard-response",482,1059516,"0.0-3.157-0.157","91596uzp4j4gs0b",298,"197.csv","","1272","resources/trios/L4T1A3.jpg","39","restless",0.9,0.4,0.5,0.841552777016592,"false"
"image-keyboard-response",483,1059920,"0.0-3.157-1.157","91596uzp4j4gs0b",298,"197.csv","","null","resources/maskTrios/BBA3.jpg","null","",NA,NA,NA,NA,""
"image-keyboard-response",484,1061123,"0.0-3.157-2.157","91596uzp4j4gs0b",298,"197.csv","","null","resources/images/fishbone.png","null","",NA,NA,NA,NA,""
"image-keyboard-response",485,1065247,"0.0-3.158-0.158","91596uzp4j4gs0b",298,"197.csv","","4122","resources/trios/L2T1A3.jpg","39","restless",0.9,0.4,0.5,0.345520956321242,"true"
"image-keyboard-response",486,1065652,"0.0-3.158-1.158","91596uzp4j4gs0b",298,"197.csv","","null","resources/maskTrios/BBA3.jpg","null","",NA,NA,NA,NA,""
"image-keyboard-response",487,1066855,"0.0-3.158-2.158","91596uzp4j4gs0b",298,"197.csv","","null","resources/images/coin2.png","null","",NA,NA,NA,NA,""
"image-keyboard-response",488,1077889,"0.0-3.159-0.159","91596uzp4j4gs0b",298,"197.csv","","11030.999999999767","resources/trios/L2T1A2.jpg","39","restless",0.9,0.4,0.5,0.557432692496736,"false"
"image-keyboard-response",489,1078292,"0.0-3.159-1.159","91596uzp4j4gs0b",298,"197.csv","","null","resources/maskTrios/BBA2.jpg","null","",NA,NA,NA,NA,""
"image-keyboard-response",490,1079495,"0.0-3.159-2.159","91596uzp4j4gs0b",298,"197.csv","","null","resources/images/fishbone.png","null","",NA,NA,NA,NA,""
"image-keyboard-response",491,1084200,"0.0-3.160-0.160","91596uzp4j4gs0b",298,"197.csv","","4703","resources/trios/L4T2A3.jpg","39","restless",0.9,0.4,0.5,0.179984124287462,"true"
"image-keyboard-response",492,1084603,"0.0-3.160-1.160","91596uzp4j4gs0b",298,"197.csv","","null","resources/maskTrios/BBA3.jpg","null","",NA,NA,NA,NA,""
"image-keyboard-response",493,1085806,"0.0-3.160-2.160","91596uzp4j4gs0b",298,"197.csv","","null","resources/images/coin2.png","null","",NA,NA,NA,NA,""
"image-keyboard-response",494,1089512,"0.0-3.161-0.161","91596uzp4j4gs0b",298,"197.csv","","3702","resources/trios/L2T1A2.jpg","38","restless",0.9,0.4,0.5,0.419874242261847,"false"
"image-keyboard-response",495,1089915,"0.0-3.161-1.161","91596uzp4j4gs0b",298,"197.csv","","null","resources/maskTrios/BT1B.jpg","null","",NA,NA,NA,NA,""
"image-keyboard-response",496,1091117,"0.0-3.161-2.161","91596uzp4j4gs0b",298,"197.csv","","null","resources/images/fishbone.png","null","",NA,NA,NA,NA,""
"image-keyboard-response",497,1091976,"0.0-3.162-0.162","91596uzp4j4gs0b",298,"197.csv","","856","resources/trios/L4T2A3.jpg","39","restless",0.9,0.3,0.5,0.354551819529987,"true"
"image-keyboard-response",498,1092379,"0.0-3.162-1.162","91596uzp4j4gs0b",298,"197.csv","","null","resources/maskTrios/BBA3.jpg","null","",NA,NA,NA,NA,""
"image-keyboard-response",499,1093582,"0.0-3.162-2.162","91596uzp4j4gs0b",298,"197.csv","","null","resources/images/coin2.png","null","",NA,NA,NA,NA,""
"image-keyboard-response",500,1095031,"0.0-3.163-0.163","91596uzp4j4gs0b",298,"197.csv","","1447","resources/trios/L2T2A2.jpg","37","restless",0.9,0.3,0.5,0.842086246610459,"true"
"image-keyboard-response",501,1095434,"0.0-3.163-1.163","91596uzp4j4gs0b",298,"197.csv","","null","resources/maskTrios/L2BB.jpg","null","",NA,NA,NA,NA,""
"image-keyboard-response",502,1096637,"0.0-3.163-2.163","91596uzp4j4gs0b",298,"197.csv","","null","resources/images/coin2.png","null","",NA,NA,NA,NA,""
"image-keyboard-response",503,1097499,"0.0-3.164-0.164","91596uzp4j4gs0b",298,"197.csv","","858","resources/trios/L4T2A2.jpg","38","restless",0.8,0.3,0.5,0.922973603397156,"false"
"image-keyboard-response",504,1097901,"0.0-3.164-1.164","91596uzp4j4gs0b",298,"197.csv","","null","resources/maskTrios/BT2B.jpg","null","",NA,NA,NA,NA,""
"image-keyboard-response",505,1099104,"0.0-3.164-2.164","91596uzp4j4gs0b",298,"197.csv","","null","resources/images/fishbone.png","null","",NA,NA,NA,NA,""
"image-keyboard-response",506,1099878,"0.0-3.165-0.165","91596uzp4j4gs0b",298,"197.csv","","770.9999999997672","resources/trios/L2T1A3.jpg","39","restless",0.8,0.3,0.5,0.638984571649152,"false"
"image-keyboard-response",507,1100281,"0.0-3.165-1.165","91596uzp4j4gs0b",298,"197.csv","","null","resources/maskTrios/BBA3.jpg","null","",NA,NA,NA,NA,""
"image-keyboard-response",508,1101484,"0.0-3.165-2.165","91596uzp4j4gs0b",298,"197.csv","","null","resources/images/fishbone.png","null","",NA,NA,NA,NA,""
"image-keyboard-response",509,1102455,"0.0-3.166-0.166","91596uzp4j4gs0b",298,"197.csv","","968","resources/trios/L2T2A2.jpg","38","restless",0.8,0.3,0.4,0.347291297688568,"false"
"image-keyboard-response",510,1102859,"0.0-3.166-1.166","91596uzp4j4gs0b",298,"197.csv","","null","resources/maskTrios/BT2B.jpg","null","",NA,NA,NA,NA,""
"image-keyboard-response",511,1104061,"0.0-3.166-2.166","91596uzp4j4gs0b",298,"197.csv","","null","resources/images/fishbone.png","null","",NA,NA,NA,NA,""
"image-keyboard-response",512,1106340,"0.0-3.167-0.167","91596uzp4j4gs0b",298,"197.csv","","2273","resources/trios/L2T1A3.jpg","37","restless",0.8,0.3,0.4,0.785423825988302,"true"
"image-keyboard-response",513,1106743,"0.0-3.167-1.167","91596uzp4j4gs0b",298,"197.csv","","null","resources/maskTrios/L2BB.jpg","null","",NA,NA,NA,NA,""
"image-keyboard-response",514,1107946,"0.0-3.167-2.167","91596uzp4j4gs0b",298,"197.csv","","null","resources/images/coin2.png","null","",NA,NA,NA,NA,""
"image-keyboard-response",515,1212131,"0.0-3.168-0.168","91596uzp4j4gs0b",298,"197.csv","","104185","resources/trios/L2T2A2.jpg","38","restless",0.9,0.3,0.5,0.636254504784973,"false"
"image-keyboard-response",516,1212533,"0.0-3.168-1.168","91596uzp4j4gs0b",298,"197.csv","","null","resources/maskTrios/BT2B.jpg","null","",NA,NA,NA,NA,""
"image-keyboard-response",517,1213736,"0.0-3.168-2.168","91596uzp4j4gs0b",298,"197.csv","","null","resources/images/fishbone.png","null","",NA,NA,NA,NA,""
"image-keyboard-response",518,1221622,"0.0-3.169-0.169","91596uzp4j4gs0b",298,"197.csv","","7883","resources/trios/L2T1A2.jpg","37","restless",0.9,0.3,0.5,0.281883235612539,"true"
"image-keyboard-response",519,1222025,"0.0-3.169-1.169","91596uzp4j4gs0b",298,"197.csv","","null","resources/maskTrios/L2BB.jpg","null","",NA,NA,NA,NA,""
"image-keyboard-response",520,1223228,"0.0-3.169-2.169","91596uzp4j4gs0b",298,"197.csv","","null","resources/images/coin2.png","null","",NA,NA,NA,NA,""
"image-keyboard-response",521,1228273,"0.0-3.170-0.170","91596uzp4j4gs0b",298,"197.csv","","5043","resources/trios/L2T1A2.jpg","37","restless",0.8,0.3,0.5,0.66115797993009,"true"
"image-keyboard-response",522,1228678,"0.0-3.170-1.170","91596uzp4j4gs0b",298,"197.csv","","null","resources/maskTrios/L2BB.jpg","null","",NA,NA,NA,NA,""
"image-keyboard-response",523,1229881,"0.0-3.170-2.170","91596uzp4j4gs0b",298,"197.csv","","null","resources/images/coin2.png","null","",NA,NA,NA,NA,""
"image-keyboard-response",524,1230397,"0.0-3.171-0.171","91596uzp4j4gs0b",298,"197.csv","","513","resources/trios/L4T1A2.jpg","39","restless",0.8,0.3,0.5,0.0703767203100041,"true"
"image-keyboard-response",525,1230801,"0.0-3.171-1.171","91596uzp4j4gs0b",298,"197.csv","","null","resources/maskTrios/BBA2.jpg","null","",NA,NA,NA,NA,""
"image-keyboard-response",526,1232004,"0.0-3.171-2.171","91596uzp4j4gs0b",298,"197.csv","","null","resources/images/coin2.png","null","",NA,NA,NA,NA,""
"image-keyboard-response",527,1232859,"0.0-3.172-0.172","91596uzp4j4gs0b",298,"197.csv","","853","resources/trios/L2T1A3.jpg","39","restless",0.8,0.3,0.5,0.693500576265251,"false"
"image-keyboard-response",528,1233261,"0.0-3.172-1.172","91596uzp4j4gs0b",298,"197.csv","","null","resources/maskTrios/BBA3.jpg","null","",NA,NA,NA,NA,""
"image-keyboard-response",529,1234464,"0.0-3.172-2.172","91596uzp4j4gs0b",298,"197.csv","","null","resources/images/fishbone.png","null","",NA,NA,NA,NA,""
"image-keyboard-response",530,1235343,"0.0-3.173-0.173","91596uzp4j4gs0b",298,"197.csv","","876.0000000002328","resources/trios/L4T1A3.jpg","39","restless",0.8,0.3,0.5,0.212511058827318,"true"
"image-keyboard-response",531,1235745,"0.0-3.173-1.173","91596uzp4j4gs0b",298,"197.csv","","null","resources/maskTrios/BBA3.jpg","null","",NA,NA,NA,NA,""
"image-keyboard-response",532,1236948,"0.0-3.173-2.173","91596uzp4j4gs0b",298,"197.csv","","null","resources/images/coin2.png","null","",NA,NA,NA,NA,""
"image-keyboard-response",533,1237779,"0.0-3.174-0.174","91596uzp4j4gs0b",298,"197.csv","","828","resources/trios/L2T2A2.jpg","38","restless",0.8,0.3,0.5,0.54801283677077,"false"
"image-keyboard-response",534,1238184,"0.0-3.174-1.174","91596uzp4j4gs0b",298,"197.csv","","null","resources/maskTrios/BT2B.jpg","null","",NA,NA,NA,NA,""
"image-keyboard-response",535,1239387,"0.0-3.174-2.174","91596uzp4j4gs0b",298,"197.csv","","null","resources/images/fishbone.png","null","",NA,NA,NA,NA,""
"image-keyboard-response",536,1239989,"0.0-3.175-0.175","91596uzp4j4gs0b",298,"197.csv","","599","resources/trios/L2T2A3.jpg","39","restless",0.8,0.3,0.4,0.818266212847888,"false"
"image-keyboard-response",537,1240392,"0.0-3.175-1.175","91596uzp4j4gs0b",298,"197.csv","","null","resources/maskTrios/BBA3.jpg","null","",NA,NA,NA,NA,""
"image-keyboard-response",538,1241595,"0.0-3.175-2.175","91596uzp4j4gs0b",298,"197.csv","","null","resources/images/fishbone.png","null","",NA,NA,NA,NA,""
"image-keyboard-response",539,1242181,"0.0-3.176-0.176","91596uzp4j4gs0b",298,"197.csv","","584","resources/trios/L2T1A2.jpg","37","restless",0.8,0.3,0.4,0.63057878366359,"true"
"image-keyboard-response",540,1242585,"0.0-3.176-1.176","91596uzp4j4gs0b",298,"197.csv","","null","resources/maskTrios/L2BB.jpg","null","",NA,NA,NA,NA,""
"image-keyboard-response",541,1243790,"0.0-3.176-2.176","91596uzp4j4gs0b",298,"197.csv","","null","resources/images/coin2.png","null","",NA,NA,NA,NA,""
"image-keyboard-response",542,1244675,"0.0-3.177-0.177","91596uzp4j4gs0b",298,"197.csv","","883","resources/trios/L2T1A2.jpg","38","restless",0.8,0.3,0.4,0.564248675812872,"false"
"image-keyboard-response",543,1245079,"0.0-3.177-1.177","91596uzp4j4gs0b",298,"197.csv","","null","resources/maskTrios/BT1B.jpg","null","",NA,NA,NA,NA,""
"image-keyboard-response",544,1246282,"0.0-3.177-2.177","91596uzp4j4gs0b",298,"197.csv","","null","resources/images/fishbone.png","null","",NA,NA,NA,NA,""
"image-keyboard-response",545,1249505,"0.0-3.178-0.178","91596uzp4j4gs0b",298,"197.csv","","3221","resources/trios/L2T2A2.jpg","38","restless",0.8,0.3,0.4,0.319738878509755,"false"
"image-keyboard-response",546,1249908,"0.0-3.178-1.178","91596uzp4j4gs0b",298,"197.csv","","null","resources/maskTrios/BT2B.jpg","null","",NA,NA,NA,NA,""
"image-keyboard-response",547,1251111,"0.0-3.178-2.178","91596uzp4j4gs0b",298,"197.csv","","null","resources/images/fishbone.png","null","",NA,NA,NA,NA,""
"image-keyboard-response",548,1253318,"0.0-3.179-0.179","91596uzp4j4gs0b",298,"197.csv","","2204","resources/trios/L2T2A2.jpg","37","restless",0.8,0.3,0.4,0.47682300025467,"true"
"image-keyboard-response",549,1253721,"0.0-3.179-1.179","91596uzp4j4gs0b",298,"197.csv","","null","resources/maskTrios/L2BB.jpg","null","",NA,NA,NA,NA,""
"image-keyboard-response",550,1254924,"0.0-3.179-2.179","91596uzp4j4gs0b",298,"197.csv","","null","resources/images/coin2.png","null","",NA,NA,NA,NA,""
"image-keyboard-response",551,1255618,"0.0-3.180-0.180","91596uzp4j4gs0b",298,"197.csv","","691","resources/trios/L2T1A3.jpg","39","restless",0.8,0.2,0.4,0.764764929874626,"false"
"image-keyboard-response",552,1256021,"0.0-3.180-1.180","91596uzp4j4gs0b",298,"197.csv","","null","resources/maskTrios/BBA3.jpg","null","",NA,NA,NA,NA,""
"image-keyboard-response",553,1257223,"0.0-3.180-2.180","91596uzp4j4gs0b",298,"197.csv","","null","resources/images/fishbone.png","null","",NA,NA,NA,NA,""
"image-keyboard-response",554,1259934,"0.0-3.181-0.181","91596uzp4j4gs0b",298,"197.csv","","2708","resources/trios/L2T1A3.jpg","38","restless",0.8,0.2,0.4,0.290534026361452,"false"
"image-keyboard-response",555,1260338,"0.0-3.181-1.181","91596uzp4j4gs0b",298,"197.csv","","null","resources/maskTrios/BT1B.jpg","null","",NA,NA,NA,NA,""
"image-keyboard-response",556,1261540,"0.0-3.181-2.181","91596uzp4j4gs0b",298,"197.csv","","null","resources/images/fishbone.png","null","",NA,NA,NA,NA,""
"image-keyboard-response",557,1262277,"0.0-3.182-0.182","91596uzp4j4gs0b",298,"197.csv","","734","resources/trios/L2T2A2.jpg","37","restless",0.8,0.2,0.4,0.374195417077681,"true"
"image-keyboard-response",558,1262680,"0.0-3.182-1.182","91596uzp4j4gs0b",298,"197.csv","","null","resources/maskTrios/L2BB.jpg","null","",NA,NA,NA,NA,""
"image-keyboard-response",559,1263883,"0.0-3.182-2.182","91596uzp4j4gs0b",298,"197.csv","","null","resources/images/coin2.png","null","",NA,NA,NA,NA,""
"image-keyboard-response",560,1276182,"0.0-3.183-0.183","91596uzp4j4gs0b",298,"197.csv","","12296","resources/trios/L4T1A3.jpg","39","restless",0.8,0.2,0.4,0.786637124183534,"false"
"image-keyboard-response",561,1276586,"0.0-3.183-1.183","91596uzp4j4gs0b",298,"197.csv","","null","resources/maskTrios/BBA3.jpg","null","",NA,NA,NA,NA,""
"image-keyboard-response",562,1277789,"0.0-3.183-2.183","91596uzp4j4gs0b",298,"197.csv","","null","resources/images/fishbone.png","null","",NA,NA,NA,NA,""
"image-keyboard-response",563,1278481,"0.0-3.184-0.184","91596uzp4j4gs0b",298,"197.csv","","690","resources/trios/L4T1A2.jpg","37","restless",0.8,0.1,0.4,0.703189388044922,"true"
"image-keyboard-response",564,1278884,"0.0-3.184-1.184","91596uzp4j4gs0b",298,"197.csv","","null","resources/maskTrios/L4BB.jpg","null","",NA,NA,NA,NA,""
"image-keyboard-response",565,1280088,"0.0-3.184-2.184","91596uzp4j4gs0b",298,"197.csv","","null","resources/images/coin2.png","null","",NA,NA,NA,NA,""
"image-keyboard-response",566,1281747,"0.0-3.185-0.185","91596uzp4j4gs0b",298,"197.csv","","1657","resources/trios/L4T2A3.jpg","39","restless",0.8,0.1,0.4,0.504399858317811,"false"
"image-keyboard-response",567,1282151,"0.0-3.185-1.185","91596uzp4j4gs0b",298,"197.csv","","null","resources/maskTrios/BBA3.jpg","null","",NA,NA,NA,NA,""
"image-keyboard-response",568,1283353,"0.0-3.185-2.185","91596uzp4j4gs0b",298,"197.csv","","null","resources/images/fishbone.png","null","",NA,NA,NA,NA,""
"image-keyboard-response",569,1284761,"0.0-3.186-0.186","91596uzp4j4gs0b",298,"197.csv","","1405","resources/trios/L2T1A3.jpg","37","restless",0.8,0.1,0.4,0.939029380021873,"false"
"image-keyboard-response",570,1285164,"0.0-3.186-1.186","91596uzp4j4gs0b",298,"197.csv","","null","resources/maskTrios/L2BB.jpg","null","",NA,NA,NA,NA,""
"image-keyboard-response",571,1286368,"0.0-3.186-2.186","91596uzp4j4gs0b",298,"197.csv","","null","resources/images/fishbone.png","null","",NA,NA,NA,NA,""
"image-keyboard-response",572,1290221,"0.0-3.187-0.187","91596uzp4j4gs0b",298,"197.csv","","3849.999999999767","resources/trios/L4T1A3.jpg","39","restless",0.7,0.1,0.4,0.861990816076744,"false"
"image-keyboard-response",573,1290623,"0.0-3.187-1.187","91596uzp4j4gs0b",298,"197.csv","","null","resources/maskTrios/BBA3.jpg","null","",NA,NA,NA,NA,""
"image-keyboard-response",574,1291826,"0.0-3.187-2.187","91596uzp4j4gs0b",298,"197.csv","","null","resources/images/fishbone.png","null","",NA,NA,NA,NA,""
"image-keyboard-response",575,1309715,"0.0-3.188-0.188","91596uzp4j4gs0b",298,"197.csv","","17896","resources/trios/L2T2A3.jpg","39","restless",0.7,0.1,0.4,0.593108187181614,"false"
"image-keyboard-response",576,1310121,"0.0-3.188-1.188","91596uzp4j4gs0b",298,"197.csv","","null","resources/maskTrios/BBA3.jpg","null","",NA,NA,NA,NA,""
"image-keyboard-response",577,1311323,"0.0-3.188-2.188","91596uzp4j4gs0b",298,"197.csv","","null","resources/images/fishbone.png","null","",NA,NA,NA,NA,""
"image-keyboard-response",578,1311830,"0.0-3.189-0.189","91596uzp4j4gs0b",298,"197.csv","","504","resources/trios/L4T1A2.jpg","38","restless",0.7,0.1,0.4,0.00630334106868791,"true"
"image-keyboard-response",579,1312233,"0.0-3.189-1.189","91596uzp4j4gs0b",298,"197.csv","","null","resources/maskTrios/BT1B.jpg","null","",NA,NA,NA,NA,""
"image-keyboard-response",580,1313436,"0.0-3.189-2.189","91596uzp4j4gs0b",298,"197.csv","","null","resources/images/coin2.png","null","",NA,NA,NA,NA,""
"image-keyboard-response",581,1314166,"0.0-3.190-0.190","91596uzp4j4gs0b",298,"197.csv","","727","resources/trios/L2T2A3.jpg","39","restless",0.7,0.1,0.4,0.753683179043035,"false"
"image-keyboard-response",582,1314571,"0.0-3.190-1.190","91596uzp4j4gs0b",298,"197.csv","","null","resources/maskTrios/BBA3.jpg","null","",NA,NA,NA,NA,""
"image-keyboard-response",583,1315773,"0.0-3.190-2.190","91596uzp4j4gs0b",298,"197.csv","","null","resources/images/fishbone.png","null","",NA,NA,NA,NA,""
"image-keyboard-response",584,1404214,"0.0-3.191-0.191","91596uzp4j4gs0b",298,"197.csv","","88442","resources/trios/L2T2A2.jpg","39","restless",0.7,0.1,0.4,0.797734727187843,"false"
"image-keyboard-response",585,1404618,"0.0-3.191-1.191","91596uzp4j4gs0b",298,"197.csv","","null","resources/maskTrios/BBA2.jpg","null","",NA,NA,NA,NA,""
"image-keyboard-response",586,1405821,"0.0-3.191-2.191","91596uzp4j4gs0b",298,"197.csv","","null","resources/images/fishbone.png","null","",NA,NA,NA,NA,""
"image-keyboard-response",587,1406829,"0.0-3.192-0.192","91596uzp4j4gs0b",298,"197.csv","","1005","resources/trios/L2T1A3.jpg","39","restless",0.7,0.1,0.4,0.532545195441388,"false"
"image-keyboard-response",588,1407232,"0.0-3.192-1.192","91596uzp4j4gs0b",298,"197.csv","","null","resources/maskTrios/BBA3.jpg","null","",NA,NA,NA,NA,""
"image-keyboard-response",589,1408435,"0.0-3.192-2.192","91596uzp4j4gs0b",298,"197.csv","","null","resources/images/fishbone.png","null","",NA,NA,NA,NA,""
"image-keyboard-response",590,1409416,"0.0-3.193-0.193","91596uzp4j4gs0b",298,"197.csv","","979","resources/trios/L4T2A2.jpg","38","restless",0.7,0.1,0.4,0.798615767742734,"false"
"image-keyboard-response",591,1409820,"0.0-3.193-1.193","91596uzp4j4gs0b",298,"197.csv","","null","resources/maskTrios/BT2B.jpg","null","",NA,NA,NA,NA,""
"image-keyboard-response",592,1411022,"0.0-3.193-2.193","91596uzp4j4gs0b",298,"197.csv","","null","resources/images/fishbone.png","null","",NA,NA,NA,NA,""
"image-keyboard-response",593,1412069,"0.0-3.194-0.194","91596uzp4j4gs0b",298,"197.csv","","1043.9999999997672","resources/trios/L4T2A3.jpg","39","restless",0.7,0.1,0.4,0.922406339410814,"false"
"image-keyboard-response",594,1412472,"0.0-3.194-1.194","91596uzp4j4gs0b",298,"197.csv","","null","resources/maskTrios/BBA3.jpg","null","",NA,NA,NA,NA,""
"image-keyboard-response",595,1413675,"0.0-3.194-2.194","91596uzp4j4gs0b",298,"197.csv","","null","resources/images/fishbone.png","null","",NA,NA,NA,NA,""
"image-keyboard-response",596,1415325,"0.0-3.195-0.195","91596uzp4j4gs0b",298,"197.csv","","1648","resources/trios/L2T1A2.jpg","38","restless",0.7,0.1,0.4,0.234927262011238,"false"
"image-keyboard-response",597,1415728,"0.0-3.195-1.195","91596uzp4j4gs0b",298,"197.csv","","null","resources/maskTrios/BT1B.jpg","null","",NA,NA,NA,NA,""
"image-keyboard-response",598,1416931,"0.0-3.195-2.195","91596uzp4j4gs0b",298,"197.csv","","null","resources/images/fishbone.png","null","",NA,NA,NA,NA,""
"image-keyboard-response",599,1417517,"0.0-3.196-0.196","91596uzp4j4gs0b",298,"197.csv","","583","resources/trios/L4T2A2.jpg","37","restless",0.7,0.1,0.4,0.247009947192213,"true"
"image-keyboard-response",600,1417921,"0.0-3.196-1.196","91596uzp4j4gs0b",298,"197.csv","","null","resources/maskTrios/L4BB.jpg","null","",NA,NA,NA,NA,""
"image-keyboard-response",601,1419124,"0.0-3.196-2.196","91596uzp4j4gs0b",298,"197.csv","","null","resources/images/coin2.png","null","",NA,NA,NA,NA,""
"image-keyboard-response",602,1441521,"0.0-3.197-0.197","91596uzp4j4gs0b",298,"197.csv","","22395","resources/trios/L2T1A2.jpg","38","restless",0.7,0.1,0.5,0.87214338413,"false"
"image-keyboard-response",603,1441924,"0.0-3.197-1.197","91596uzp4j4gs0b",298,"197.csv","","null","resources/maskTrios/BT1B.jpg","null","",NA,NA,NA,NA,""
"image-keyboard-response",604,1443127,"0.0-3.197-2.197","91596uzp4j4gs0b",298,"197.csv","","null","resources/images/fishbone.png","null","",NA,NA,NA,NA,""
"image-keyboard-response",605,1444196,"0.0-3.198-0.198","91596uzp4j4gs0b",298,"197.csv","","1066.0000000002328","resources/trios/L2T1A2.jpg","38","restless",0.7,0.1,0.5,0.221495717892664,"false"
"image-keyboard-response",606,1444600,"0.0-3.198-1.198","91596uzp4j4gs0b",298,"197.csv","","null","resources/maskTrios/BT1B.jpg","null","",NA,NA,NA,NA,""
"image-keyboard-response",607,1445802,"0.0-3.198-2.198","91596uzp4j4gs0b",298,"197.csv","","null","resources/images/fishbone.png","null","",NA,NA,NA,NA,""
"image-keyboard-response",608,1457607,"0.0-3.199-0.199","91596uzp4j4gs0b",298,"197.csv","","11802","resources/trios/L4T2A2.jpg","39","restless",0.7,0.1,0.5,0.052062615338603,"true"
"image-keyboard-response",609,1458010,"0.0-3.199-1.199","91596uzp4j4gs0b",298,"197.csv","","null","resources/maskTrios/BBA2.jpg","null","",NA,NA,NA,NA,""
"image-keyboard-response",610,1459213,"0.0-3.199-2.199","91596uzp4j4gs0b",298,"197.csv","","null","resources/images/coin2.png","null","",NA,NA,NA,NA,""
"image-keyboard-response",611,1463028,"0.0-3.200-0.200","91596uzp4j4gs0b",298,"197.csv","","3813","resources/trios/L2T2A2.jpg","38","restless",0.7,0.1,0.5,0.310898971612074,"false"
"image-keyboard-response",612,1463432,"0.0-3.200-1.200","91596uzp4j4gs0b",298,"197.csv","","null","resources/maskTrios/BT2B.jpg","null","",NA,NA,NA,NA,""
"image-keyboard-response",613,1464635,"0.0-3.200-2.200","91596uzp4j4gs0b",298,"197.csv","","null","resources/images/fishbone.png","null","",NA,NA,NA,NA,""
