"trial_type","trial_index","time_elapsed","internal_node_id","subject","walkNumber","success","rt","stimulus","key_press","test_part","leftProb","midProb","rightProb","generatedNum","correct"
"pavlovia",0,2094,"0.0-0.0","ofca0dfs75s67qc","19.csv","","","","","",NA,NA,NA,NA,""
"fullscreen",1,5612,"0.0-1.0","ofca0dfs75s67qc","19.csv","true","","","","",NA,NA,NA,NA,""
"html-keyboard-response",2,22443,"0.0-2.0-0.0","ofca0dfs75s67qc","19.csv","","16828.69999998808","<p><font size='6'>Arrrgh!</p></font><p>Can you be the best pirate? Try to find lots of gold! But beware, some islands have more gold than others, and over time, the island with the most gold may change. Can YOU figure it out? </p><font size='6'>GOOD LUCK, CAPTAIN!!!</font><p>Press any key to begin</p>","32","",NA,NA,NA,NA,""
"image-keyboard-response",3,25447,"0.0-2.0-1.0","ofca0dfs75s67qc","19.csv","","null","resources/image_sets/111.png","null","",NA,NA,NA,NA,""
"image-keyboard-response",4,40794,"0.0-2.0-2.0","ofca0dfs75s67qc","19.csv","","15346.099999964237","resources/image_sets/left_highlight.png","37","",NA,NA,NA,NA,""
"image-keyboard-response",5,44129,"0.0-2.0-3.0","ofca0dfs75s67qc","19.csv","","3333.5","resources/image_sets/mid_highlight.png","38","",NA,NA,NA,NA,""
"image-keyboard-response",6,47536,"0.0-2.0-4.0","ofca0dfs75s67qc","19.csv","","3405.5","resources/image_sets/right_highlight.png","39","",NA,NA,NA,NA,""
"image-keyboard-response",7,53240,"0.0-2.0-5.0","ofca0dfs75s67qc","19.csv","","5702.399999976158","resources/image_sets/111.png","13","",NA,NA,NA,NA,""
"image-keyboard-response",8,59624,"0.0-2.0-6.0","ofca0dfs75s67qc","19.csv","","6383.5","resources/images/coin2.png","13","",NA,NA,NA,NA,""
"image-keyboard-response",9,63050,"0.0-2.0-7.0","ofca0dfs75s67qc","19.csv","","3425.100000023842","resources/images/fishbone.png","13","",NA,NA,NA,NA,""
"html-keyboard-response",10,75093,"0.0-2.0-8.0","ofca0dfs75s67qc","19.csv","","12041.900000035763","<p>Your first journey will be a long one, but you will get a well deserved break at the end</p><p>After the break you will have four more journeys, but each will be much shorter than the first, and you will have breaks in between each</p><p>Press Enter to begin</p>","13","",NA,NA,NA,NA,""
"image-keyboard-response",11,76632,"0.0-3.0-0.0","ofca0dfs75s67qc","19.csv","","1537.199999988079","resources/trios/L2T1A3.jpg","38","restless",0.3,0.7,0.9,0.91482546202695,"false"
"image-keyboard-response",12,77038,"0.0-3.0-1.0","ofca0dfs75s67qc","19.csv","","null","resources/maskTrios/BT1B.jpg","null","",NA,NA,NA,NA,""
"image-keyboard-response",13,78243,"0.0-3.0-2.0","ofca0dfs75s67qc","19.csv","","null","resources/images/fishbone.png","null","",NA,NA,NA,NA,""
"image-keyboard-response",14,82145,"0.0-3.1-0.1","ofca0dfs75s67qc","19.csv","","3900.100000023842","resources/trios/L4T1A1.jpg","37","restless",0.3,0.7,0.9,0.538000710057869,"false"
"image-keyboard-response",15,82551,"0.0-3.1-1.1","ofca0dfs75s67qc","19.csv","","null","resources/maskTrios/L4BB.jpg","null","",NA,NA,NA,NA,""
"image-keyboard-response",16,83755,"0.0-3.1-2.1","ofca0dfs75s67qc","19.csv","","null","resources/images/fishbone.png","null","",NA,NA,NA,NA,""
"image-keyboard-response",17,88675,"0.0-3.2-0.2","ofca0dfs75s67qc","19.csv","","4918.5","resources/trios/L2T2A3.jpg","38","restless",0.3,0.7,0.9,0.969736096589373,"false"
"image-keyboard-response",18,89079,"0.0-3.2-1.2","ofca0dfs75s67qc","19.csv","","null","resources/maskTrios/BT2B.jpg","null","",NA,NA,NA,NA,""
"image-keyboard-response",19,90286,"0.0-3.2-2.2","ofca0dfs75s67qc","19.csv","","null","resources/images/fishbone.png","null","",NA,NA,NA,NA,""
"image-keyboard-response",20,92671,"0.0-3.3-0.3","ofca0dfs75s67qc","19.csv","","2383","resources/trios/L4T2A3.jpg","39","restless",0.3,0.7,0.9,0.863148947823793,"true"
"image-keyboard-response",21,93077,"0.0-3.3-1.3","ofca0dfs75s67qc","19.csv","","null","resources/maskTrios/BBA3.jpg","null","",NA,NA,NA,NA,""
"image-keyboard-response",22,94283,"0.0-3.3-2.3","ofca0dfs75s67qc","19.csv","","null","resources/images/coin2.png","null","",NA,NA,NA,NA,""
"image-keyboard-response",23,96691,"0.0-3.4-0.4","ofca0dfs75s67qc","19.csv","","2406.399999976158","resources/trios/L2T2A1.jpg","39","restless",0.3,0.7,0.9,0.861855235803442,"true"
"image-keyboard-response",24,97097,"0.0-3.4-1.4","ofca0dfs75s67qc","19.csv","","null","resources/maskTrios/BBA1.jpg","null","",NA,NA,NA,NA,""
"image-keyboard-response",25,98302,"0.0-3.4-2.4","ofca0dfs75s67qc","19.csv","","null","resources/images/coin2.png","null","",NA,NA,NA,NA,""
"image-keyboard-response",26,99282,"0.0-3.5-0.5","ofca0dfs75s67qc","19.csv","","977.6999999880791","resources/trios/L4T2A3.jpg","39","restless",0.3,0.7,0.9,0.943537966703405,"false"
"image-keyboard-response",27,99685,"0.0-3.5-1.5","ofca0dfs75s67qc","19.csv","","null","resources/maskTrios/BBA3.jpg","null","",NA,NA,NA,NA,""
"image-keyboard-response",28,100887,"0.0-3.5-2.5","ofca0dfs75s67qc","19.csv","","null","resources/images/fishbone.png","null","",NA,NA,NA,NA,""
"image-keyboard-response",29,102742,"0.0-3.6-0.6","ofca0dfs75s67qc","19.csv","","1852.5999999642372","resources/trios/L4T2A1.jpg","38","restless",0.4,0.7,0.9,0.716752101248446,"false"
"image-keyboard-response",30,103147,"0.0-3.6-1.6","ofca0dfs75s67qc","19.csv","","null","resources/maskTrios/BT2B.jpg","null","",NA,NA,NA,NA,""
"image-keyboard-response",31,104354,"0.0-3.6-2.6","ofca0dfs75s67qc","19.csv","","null","resources/images/fishbone.png","null","",NA,NA,NA,NA,""
"image-keyboard-response",32,105757,"0.0-3.7-0.7","ofca0dfs75s67qc","19.csv","","1401","resources/trios/L2T2A1.jpg","37","restless",0.4,0.7,0.9,0.652822217608764,"false"
"image-keyboard-response",33,106162,"0.0-3.7-1.7","ofca0dfs75s67qc","19.csv","","null","resources/maskTrios/L2BB.jpg","null","",NA,NA,NA,NA,""
"image-keyboard-response",34,107367,"0.0-3.7-2.7","ofca0dfs75s67qc","19.csv","","null","resources/images/fishbone.png","null","",NA,NA,NA,NA,""
"image-keyboard-response",35,108902,"0.0-3.8-0.8","ofca0dfs75s67qc","19.csv","","1533.0999999642372","resources/trios/L4T1A1.jpg","39","restless",0.4,0.7,0.9,0.175583000449458,"true"
"image-keyboard-response",36,109307,"0.0-3.8-1.8","ofca0dfs75s67qc","19.csv","","null","resources/maskTrios/BBA1.jpg","null","",NA,NA,NA,NA,""
"image-keyboard-response",37,110510,"0.0-3.8-2.8","ofca0dfs75s67qc","19.csv","","null","resources/images/coin2.png","null","",NA,NA,NA,NA,""
"image-keyboard-response",38,112812,"0.0-3.9-0.9","ofca0dfs75s67qc","19.csv","","2300.800000011921","resources/trios/L2T1A3.jpg","39","restless",0.4,0.7,0.9,0.697426716180639,"true"
"image-keyboard-response",39,113218,"0.0-3.9-1.9","ofca0dfs75s67qc","19.csv","","null","resources/maskTrios/BBA3.jpg","null","",NA,NA,NA,NA,""
"image-keyboard-response",40,114425,"0.0-3.9-2.9","ofca0dfs75s67qc","19.csv","","null","resources/images/coin2.png","null","",NA,NA,NA,NA,""
"image-keyboard-response",41,116663,"0.0-3.10-0.10","ofca0dfs75s67qc","19.csv","","2236.099999964237","resources/trios/L4T2A3.jpg","38","restless",0.4,0.7,0.9,0.234287930847461,"true"
"image-keyboard-response",42,117072,"0.0-3.10-1.10","ofca0dfs75s67qc","19.csv","","null","resources/maskTrios/BT2B.jpg","null","",NA,NA,NA,NA,""
"image-keyboard-response",43,118277,"0.0-3.10-2.10","ofca0dfs75s67qc","19.csv","","null","resources/images/coin2.png","null","",NA,NA,NA,NA,""
"image-keyboard-response",44,119417,"0.0-3.11-0.11","ofca0dfs75s67qc","19.csv","","1137.4000000357628","resources/trios/L2T2A1.jpg","39","restless",0.4,0.7,0.9,0.702425741382139,"true"
"image-keyboard-response",45,119819,"0.0-3.11-1.11","ofca0dfs75s67qc","19.csv","","null","resources/maskTrios/BBA1.jpg","null","",NA,NA,NA,NA,""
"image-keyboard-response",46,121022,"0.0-3.11-2.11","ofca0dfs75s67qc","19.csv","","null","resources/images/coin2.png","null","",NA,NA,NA,NA,""
"image-keyboard-response",47,122461,"0.0-3.12-0.12","ofca0dfs75s67qc","19.csv","","1437.0999999642372","resources/trios/L2T1A3.jpg","37","restless",0.4,0.7,0.9,0.348689221868186,"true"
"image-keyboard-response",48,122871,"0.0-3.12-1.12","ofca0dfs75s67qc","19.csv","","null","resources/maskTrios/L2BB.jpg","null","",NA,NA,NA,NA,""
"image-keyboard-response",49,124075,"0.0-3.12-2.12","ofca0dfs75s67qc","19.csv","","null","resources/images/coin2.png","null","",NA,NA,NA,NA,""
"image-keyboard-response",50,125995,"0.0-3.13-0.13","ofca0dfs75s67qc","19.csv","","1918","resources/trios/L4T2A1.jpg","39","restless",0.4,0.6,0.8,0.528488868861071,"true"
"image-keyboard-response",51,126400,"0.0-3.13-1.13","ofca0dfs75s67qc","19.csv","","null","resources/maskTrios/BBA1.jpg","null","",NA,NA,NA,NA,""
"image-keyboard-response",52,127605,"0.0-3.13-2.13","ofca0dfs75s67qc","19.csv","","null","resources/images/coin2.png","null","",NA,NA,NA,NA,""
"image-keyboard-response",53,132972,"0.0-3.14-0.14","ofca0dfs75s67qc","19.csv","","5364.600000023842","resources/trios/L4T2A3.jpg","38","restless",0.4,0.6,0.8,0.913650204541138,"false"
"image-keyboard-response",54,133374,"0.0-3.14-1.14","ofca0dfs75s67qc","19.csv","","null","resources/maskTrios/BT2B.jpg","null","",NA,NA,NA,NA,""
"image-keyboard-response",55,134583,"0.0-3.14-2.14","ofca0dfs75s67qc","19.csv","","null","resources/images/fishbone.png","null","",NA,NA,NA,NA,""
"image-keyboard-response",56,135590,"0.0-3.15-0.15","ofca0dfs75s67qc","19.csv","","1004.6000000238419","resources/trios/L4T1A3.jpg","39","restless",0.4,0.6,0.8,0.209288184041313,"true"
"image-keyboard-response",57,135992,"0.0-3.15-1.15","ofca0dfs75s67qc","19.csv","","null","resources/maskTrios/BBA3.jpg","null","",NA,NA,NA,NA,""
"image-keyboard-response",58,137196,"0.0-3.15-2.15","ofca0dfs75s67qc","19.csv","","null","resources/images/coin2.png","null","",NA,NA,NA,NA,""
"image-keyboard-response",59,138905,"0.0-3.16-0.16","ofca0dfs75s67qc","19.csv","","1707.800000011921","resources/trios/L4T2A1.jpg","39","restless",0.4,0.6,0.8,0.719065273663676,"true"
"image-keyboard-response",60,139308,"0.0-3.16-1.16","ofca0dfs75s67qc","19.csv","","null","resources/maskTrios/BBA1.jpg","null","",NA,NA,NA,NA,""
"image-keyboard-response",61,140511,"0.0-3.16-2.16","ofca0dfs75s67qc","19.csv","","null","resources/images/coin2.png","null","",NA,NA,NA,NA,""
"image-keyboard-response",62,141828,"0.0-3.17-0.17","ofca0dfs75s67qc","19.csv","","1315.5","resources/trios/L2T2A3.jpg","37","restless",0.4,0.6,0.8,0.722536744288032,"false"
"image-keyboard-response",63,142230,"0.0-3.17-1.17","ofca0dfs75s67qc","19.csv","","null","resources/maskTrios/L2BB.jpg","null","",NA,NA,NA,NA,""
"image-keyboard-response",64,143435,"0.0-3.17-2.17","ofca0dfs75s67qc","19.csv","","null","resources/images/fishbone.png","null","",NA,NA,NA,NA,""
"image-keyboard-response",65,144356,"0.0-3.18-0.18","ofca0dfs75s67qc","19.csv","","918.9000000357628","resources/trios/L4T1A3.jpg","39","restless",0.5,0.6,0.8,0.195724222153886,"true"
"image-keyboard-response",66,144763,"0.0-3.18-1.18","ofca0dfs75s67qc","19.csv","","null","resources/maskTrios/BBA3.jpg","null","",NA,NA,NA,NA,""
"image-keyboard-response",67,145967,"0.0-3.18-2.18","ofca0dfs75s67qc","19.csv","","null","resources/images/coin2.png","null","",NA,NA,NA,NA,""
"image-keyboard-response",68,146912,"0.0-3.19-0.19","ofca0dfs75s67qc","19.csv","","942.6000000238419","resources/trios/L2T1A3.jpg","38","restless",0.5,0.6,0.8,0.172678455032398,"true"
"image-keyboard-response",69,147316,"0.0-3.19-1.19","ofca0dfs75s67qc","19.csv","","null","resources/maskTrios/BT1B.jpg","null","",NA,NA,NA,NA,""
"image-keyboard-response",70,148521,"0.0-3.19-2.19","ofca0dfs75s67qc","19.csv","","null","resources/images/coin2.png","null","",NA,NA,NA,NA,""
"image-keyboard-response",71,149463,"0.0-3.20-0.20","ofca0dfs75s67qc","19.csv","","940.5999999642372","resources/trios/L4T2A1.jpg","39","restless",0.6,0.6,0.8,0.761616702787825,"true"
"image-keyboard-response",72,149870,"0.0-3.20-1.20","ofca0dfs75s67qc","19.csv","","null","resources/maskTrios/BBA1.jpg","null","",NA,NA,NA,NA,""
"image-keyboard-response",73,151079,"0.0-3.20-2.20","ofca0dfs75s67qc","19.csv","","null","resources/images/coin2.png","null","",NA,NA,NA,NA,""
"image-keyboard-response",74,152647,"0.0-3.21-0.21","ofca0dfs75s67qc","19.csv","","1565.5","resources/trios/L4T2A3.jpg","37","restless",0.6,0.6,0.8,0.248725163478506,"true"
"image-keyboard-response",75,153051,"0.0-3.21-1.21","ofca0dfs75s67qc","19.csv","","null","resources/maskTrios/L4BB.jpg","null","",NA,NA,NA,NA,""
"image-keyboard-response",76,154254,"0.0-3.21-2.21","ofca0dfs75s67qc","19.csv","","null","resources/images/coin2.png","null","",NA,NA,NA,NA,""
"image-keyboard-response",77,155657,"0.0-3.22-0.22","ofca0dfs75s67qc","19.csv","","1400.699999988079","resources/trios/L4T1A3.jpg","39","restless",0.6,0.6,0.8,0.999506185742781,"false"
"image-keyboard-response",78,156064,"0.0-3.22-1.22","ofca0dfs75s67qc","19.csv","","null","resources/maskTrios/BBA3.jpg","null","",NA,NA,NA,NA,""
"image-keyboard-response",79,157271,"0.0-3.22-2.22","ofca0dfs75s67qc","19.csv","","null","resources/images/fishbone.png","null","",NA,NA,NA,NA,""
"image-keyboard-response",80,157849,"0.0-3.23-0.23","ofca0dfs75s67qc","19.csv","","575.8999999761581","resources/trios/L2T2A3.jpg","38","restless",0.6,0.6,0.8,0.352979446595078,"true"
"image-keyboard-response",81,158254,"0.0-3.23-1.23","ofca0dfs75s67qc","19.csv","","null","resources/maskTrios/BT2B.jpg","null","",NA,NA,NA,NA,""
"image-keyboard-response",82,159463,"0.0-3.23-2.23","ofca0dfs75s67qc","19.csv","","null","resources/images/coin2.png","null","",NA,NA,NA,NA,""
"image-keyboard-response",83,160665,"0.0-3.24-0.24","ofca0dfs75s67qc","19.csv","","1199.7999999523163","resources/trios/L4T2A1.jpg","39","restless",0.6,0.6,0.8,0.125605983789521,"true"
"image-keyboard-response",84,161070,"0.0-3.24-1.24","ofca0dfs75s67qc","19.csv","","null","resources/maskTrios/BBA1.jpg","null","",NA,NA,NA,NA,""
"image-keyboard-response",85,162273,"0.0-3.24-2.24","ofca0dfs75s67qc","19.csv","","null","resources/images/coin2.png","null","",NA,NA,NA,NA,""
"image-keyboard-response",86,163597,"0.0-3.25-0.25","ofca0dfs75s67qc","19.csv","","1322.5999999642372","resources/trios/L4T2A3.jpg","37","restless",0.6,0.6,0.8,0.0286749819815819,"true"
"image-keyboard-response",87,164003,"0.0-3.25-1.25","ofca0dfs75s67qc","19.csv","","null","resources/maskTrios/L4BB.jpg","null","",NA,NA,NA,NA,""
"image-keyboard-response",88,165207,"0.0-3.25-2.25","ofca0dfs75s67qc","19.csv","","null","resources/images/coin2.png","null","",NA,NA,NA,NA,""
"image-keyboard-response",89,167229,"0.0-3.26-0.26","ofca0dfs75s67qc","19.csv","","2020.2000000476837","resources/trios/L2T1A3.jpg","39","restless",0.6,0.5,0.8,0.634886078567763,"true"
"image-keyboard-response",90,167636,"0.0-3.26-1.26","ofca0dfs75s67qc","19.csv","","null","resources/maskTrios/BBA3.jpg","null","",NA,NA,NA,NA,""
"image-keyboard-response",91,168839,"0.0-3.26-2.26","ofca0dfs75s67qc","19.csv","","null","resources/images/coin2.png","null","",NA,NA,NA,NA,""
"image-keyboard-response",92,171424,"0.0-3.27-0.27","ofca0dfs75s67qc","19.csv","","2582.699999988079","resources/trios/L2T2A3.jpg","38","restless",0.6,0.5,0.8,0.230691080152977,"true"
"image-keyboard-response",93,171828,"0.0-3.27-1.27","ofca0dfs75s67qc","19.csv","","null","resources/maskTrios/BT2B.jpg","null","",NA,NA,NA,NA,""
"image-keyboard-response",94,173031,"0.0-3.27-2.27","ofca0dfs75s67qc","19.csv","","null","resources/images/coin2.png","null","",NA,NA,NA,NA,""
"image-keyboard-response",95,174467,"0.0-3.28-0.28","ofca0dfs75s67qc","19.csv","","1433.3999999761581","resources/trios/L2T1A1.jpg","37","restless",0.6,0.5,0.8,0.596841971086384,"true"
"image-keyboard-response",96,174869,"0.0-3.28-1.28","ofca0dfs75s67qc","19.csv","","null","resources/maskTrios/L2BB.jpg","null","",NA,NA,NA,NA,""
"image-keyboard-response",97,176072,"0.0-3.28-2.28","ofca0dfs75s67qc","19.csv","","null","resources/images/coin2.png","null","",NA,NA,NA,NA,""
"image-keyboard-response",98,177997,"0.0-3.29-0.29","ofca0dfs75s67qc","19.csv","","1923.2999999523163","resources/trios/L4T1A3.jpg","39","restless",0.6,0.5,0.8,0.910993605312636,"false"
"image-keyboard-response",99,178402,"0.0-3.29-1.29","ofca0dfs75s67qc","19.csv","","null","resources/maskTrios/BBA3.jpg","null","",NA,NA,NA,NA,""
"image-keyboard-response",100,179604,"0.0-3.29-2.29","ofca0dfs75s67qc","19.csv","","null","resources/images/fishbone.png","null","",NA,NA,NA,NA,""
"image-keyboard-response",101,181030,"0.0-3.30-0.30","ofca0dfs75s67qc","19.csv","","1424.199999988079","resources/trios/L4T1A3.jpg","37","restless",0.6,0.5,0.8,0.0864837992187801,"true"
"image-keyboard-response",102,181437,"0.0-3.30-1.30","ofca0dfs75s67qc","19.csv","","null","resources/maskTrios/L4BB.jpg","null","",NA,NA,NA,NA,""
"image-keyboard-response",103,182643,"0.0-3.30-2.30","ofca0dfs75s67qc","19.csv","","null","resources/images/coin2.png","null","",NA,NA,NA,NA,""
"image-keyboard-response",104,183962,"0.0-3.31-0.31","ofca0dfs75s67qc","19.csv","","1316","resources/trios/L2T2A1.jpg","39","restless",0.6,0.5,0.8,0.550115485224183,"true"
"image-keyboard-response",105,184368,"0.0-3.31-1.31","ofca0dfs75s67qc","19.csv","","null","resources/maskTrios/BBA1.jpg","null","",NA,NA,NA,NA,""
"image-keyboard-response",106,185575,"0.0-3.31-2.31","ofca0dfs75s67qc","19.csv","","null","resources/images/coin2.png","null","",NA,NA,NA,NA,""
"image-keyboard-response",107,186898,"0.0-3.32-0.32","ofca0dfs75s67qc","19.csv","","1320.4000000357628","resources/trios/L2T1A1.jpg","38","restless",0.6,0.5,0.8,0.331804889911612,"true"
"image-keyboard-response",108,187302,"0.0-3.32-1.32","ofca0dfs75s67qc","19.csv","","null","resources/maskTrios/BT1B.jpg","null","",NA,NA,NA,NA,""
"image-keyboard-response",109,188510,"0.0-3.32-2.32","ofca0dfs75s67qc","19.csv","","null","resources/images/coin2.png","null","",NA,NA,NA,NA,""
"image-keyboard-response",110,189709,"0.0-3.33-0.33","ofca0dfs75s67qc","19.csv","","1197.2999999523163","resources/trios/L4T1A3.jpg","37","restless",0.6,0.5,0.8,0.897781596592278,"false"
"image-keyboard-response",111,190116,"0.0-3.33-1.33","ofca0dfs75s67qc","19.csv","","null","resources/maskTrios/L4BB.jpg","null","",NA,NA,NA,NA,""
"image-keyboard-response",112,191323,"0.0-3.33-2.33","ofca0dfs75s67qc","19.csv","","null","resources/images/fishbone.png","null","",NA,NA,NA,NA,""
"image-keyboard-response",113,192295,"0.0-3.34-0.34","ofca0dfs75s67qc","19.csv","","972.3000000119209","resources/trios/L4T2A3.jpg","39","restless",0.6,0.5,0.8,0.328093844291735,"true"
"image-keyboard-response",114,192700,"0.0-3.34-1.34","ofca0dfs75s67qc","19.csv","","null","resources/maskTrios/BBA3.jpg","null","",NA,NA,NA,NA,""
"image-keyboard-response",115,193903,"0.0-3.34-2.34","ofca0dfs75s67qc","19.csv","","null","resources/images/coin2.png","null","",NA,NA,NA,NA,""
"image-keyboard-response",116,195006,"0.0-3.35-0.35","ofca0dfs75s67qc","19.csv","","1101","resources/trios/L2T2A3.jpg","38","restless",0.6,0.6,0.8,0.200376028498659,"true"
"image-keyboard-response",117,195411,"0.0-3.35-1.35","ofca0dfs75s67qc","19.csv","","null","resources/maskTrios/BT2B.jpg","null","",NA,NA,NA,NA,""
"image-keyboard-response",118,196616,"0.0-3.35-2.35","ofca0dfs75s67qc","19.csv","","null","resources/images/coin2.png","null","",NA,NA,NA,NA,""
"image-keyboard-response",119,198240,"0.0-3.36-0.36","ofca0dfs75s67qc","19.csv","","1621.800000011921","resources/trios/L2T2A3.jpg","39","restless",0.5,0.6,0.8,0.757567694467934,"true"
"image-keyboard-response",120,198647,"0.0-3.36-1.36","ofca0dfs75s67qc","19.csv","","null","resources/maskTrios/BBA3.jpg","null","",NA,NA,NA,NA,""
"image-keyboard-response",121,199851,"0.0-3.36-2.36","ofca0dfs75s67qc","19.csv","","null","resources/images/coin2.png","null","",NA,NA,NA,NA,""
"image-keyboard-response",122,201034,"0.0-3.37-0.37","ofca0dfs75s67qc","19.csv","","1181.1000000238419","resources/trios/L2T2A1.jpg","39","restless",0.5,0.6,0.8,0.454689028380398,"true"
"image-keyboard-response",123,201439,"0.0-3.37-1.37","ofca0dfs75s67qc","19.csv","","null","resources/maskTrios/BBA1.jpg","null","",NA,NA,NA,NA,""
"image-keyboard-response",124,202645,"0.0-3.37-2.37","ofca0dfs75s67qc","19.csv","","null","resources/images/coin2.png","null","",NA,NA,NA,NA,""
"image-keyboard-response",125,203488,"0.0-3.38-0.38","ofca0dfs75s67qc","19.csv","","840.1999999880791","resources/trios/L2T2A1.jpg","37","restless",0.5,0.6,0.7,0.196926950609162,"true"
"image-keyboard-response",126,203890,"0.0-3.38-1.38","ofca0dfs75s67qc","19.csv","","null","resources/maskTrios/L2BB.jpg","null","",NA,NA,NA,NA,""
"image-keyboard-response",127,205093,"0.0-3.38-2.38","ofca0dfs75s67qc","19.csv","","null","resources/images/coin2.png","null","",NA,NA,NA,NA,""
"image-keyboard-response",128,205775,"0.0-3.39-0.39","ofca0dfs75s67qc","19.csv","","680.2000000476837","resources/trios/L2T2A1.jpg","39","restless",0.5,0.6,0.7,0.756467622725146,"false"
"image-keyboard-response",129,206182,"0.0-3.39-1.39","ofca0dfs75s67qc","19.csv","","null","resources/maskTrios/BBA1.jpg","null","",NA,NA,NA,NA,""
"image-keyboard-response",130,207384,"0.0-3.39-2.39","ofca0dfs75s67qc","19.csv","","null","resources/images/fishbone.png","null","",NA,NA,NA,NA,""
"image-keyboard-response",131,208293,"0.0-3.40-0.40","ofca0dfs75s67qc","19.csv","","905.8000000119209","resources/trios/L2T1A3.jpg","39","restless",0.5,0.5,0.7,0.717171865452624,"false"
"image-keyboard-response",132,208695,"0.0-3.40-1.40","ofca0dfs75s67qc","19.csv","","null","resources/maskTrios/BBA3.jpg","null","",NA,NA,NA,NA,""
"image-keyboard-response",133,209900,"0.0-3.40-2.40","ofca0dfs75s67qc","19.csv","","null","resources/images/fishbone.png","null","",NA,NA,NA,NA,""
"image-keyboard-response",134,210707,"0.0-3.41-0.41","ofca0dfs75s67qc","19.csv","","805.1999999880791","resources/trios/L2T1A3.jpg","38","restless",0.5,0.5,0.7,0.479742052185127,"true"
"image-keyboard-response",135,211111,"0.0-3.41-1.41","ofca0dfs75s67qc","19.csv","","null","resources/maskTrios/BT1B.jpg","null","",NA,NA,NA,NA,""
"image-keyboard-response",136,212313,"0.0-3.41-2.41","ofca0dfs75s67qc","19.csv","","null","resources/images/coin2.png","null","",NA,NA,NA,NA,""
"image-keyboard-response",137,213315,"0.0-3.42-0.42","ofca0dfs75s67qc","19.csv","","1000.0999999642372","resources/trios/L2T1A3.jpg","37","restless",0.5,0.5,0.7,0.381422617823822,"true"
"image-keyboard-response",138,213719,"0.0-3.42-1.42","ofca0dfs75s67qc","19.csv","","null","resources/maskTrios/L2BB.jpg","null","",NA,NA,NA,NA,""
"image-keyboard-response",139,214926,"0.0-3.42-2.42","ofca0dfs75s67qc","19.csv","","null","resources/images/coin2.png","null","",NA,NA,NA,NA,""
"image-keyboard-response",140,216048,"0.0-3.43-0.43","ofca0dfs75s67qc","19.csv","","1119.9000000357628","resources/trios/L2T1A1.jpg","39","restless",0.5,0.5,0.7,0.844568772753214,"false"
"image-keyboard-response",141,216457,"0.0-3.43-1.43","ofca0dfs75s67qc","19.csv","","null","resources/maskTrios/BBA1.jpg","null","",NA,NA,NA,NA,""
"image-keyboard-response",142,217662,"0.0-3.43-2.43","ofca0dfs75s67qc","19.csv","","null","resources/images/fishbone.png","null","",NA,NA,NA,NA,""
"image-keyboard-response",143,218158,"0.0-3.44-0.44","ofca0dfs75s67qc","19.csv","","494.0999999642372","resources/trios/L2T2A3.jpg","38","restless",0.5,0.5,0.6,0.607989172633641,"false"
"image-keyboard-response",144,218563,"0.0-3.44-1.44","ofca0dfs75s67qc","19.csv","","null","resources/maskTrios/BT2B.jpg","null","",NA,NA,NA,NA,""
"image-keyboard-response",145,219767,"0.0-3.44-2.44","ofca0dfs75s67qc","19.csv","","null","resources/images/fishbone.png","null","",NA,NA,NA,NA,""
"image-keyboard-response",146,220504,"0.0-3.45-0.45","ofca0dfs75s67qc","19.csv","","734.3999999761581","resources/trios/L2T1A1.jpg","39","restless",0.5,0.5,0.6,0.473600987546212,"true"
"image-keyboard-response",147,220909,"0.0-3.45-1.45","ofca0dfs75s67qc","19.csv","","null","resources/maskTrios/BBA1.jpg","null","",NA,NA,NA,NA,""
"image-keyboard-response",148,222116,"0.0-3.45-2.45","ofca0dfs75s67qc","19.csv","","null","resources/images/coin2.png","null","",NA,NA,NA,NA,""
"image-keyboard-response",149,223463,"0.0-3.46-0.46","ofca0dfs75s67qc","19.csv","","1344.6000000238419","resources/trios/L4T2A3.jpg","37","restless",0.4,0.5,0.6,0.710627409069362,"false"
"image-keyboard-response",150,223866,"0.0-3.46-1.46","ofca0dfs75s67qc","19.csv","","null","resources/maskTrios/L4BB.jpg","null","",NA,NA,NA,NA,""
"image-keyboard-response",151,225072,"0.0-3.46-2.46","ofca0dfs75s67qc","19.csv","","null","resources/images/fishbone.png","null","",NA,NA,NA,NA,""
"image-keyboard-response",152,225571,"0.0-3.47-0.47","ofca0dfs75s67qc","19.csv","","497.89999997615814","resources/trios/L2T2A1.jpg","39","restless",0.4,0.5,0.6,0.651488620278008,"false"
"image-keyboard-response",153,225975,"0.0-3.47-1.47","ofca0dfs75s67qc","19.csv","","null","resources/maskTrios/BBA1.jpg","null","",NA,NA,NA,NA,""
"image-keyboard-response",154,227178,"0.0-3.47-2.47","ofca0dfs75s67qc","19.csv","","null","resources/images/fishbone.png","null","",NA,NA,NA,NA,""
"image-keyboard-response",155,227660,"0.0-3.48-0.48","ofca0dfs75s67qc","19.csv","","480.19999998807907","resources/trios/L4T2A1.jpg","38","restless",0.4,0.5,0.5,0.777272742201484,"false"
"image-keyboard-response",156,228066,"0.0-3.48-1.48","ofca0dfs75s67qc","19.csv","","null","resources/maskTrios/BT2B.jpg","null","",NA,NA,NA,NA,""
"image-keyboard-response",157,229272,"0.0-3.48-2.48","ofca0dfs75s67qc","19.csv","","null","resources/images/fishbone.png","null","",NA,NA,NA,NA,""
"image-keyboard-response",158,229760,"0.0-3.49-0.49","ofca0dfs75s67qc","19.csv","","485.89999997615814","resources/trios/L2T2A3.jpg","37","restless",0.4,0.5,0.5,0.841935825475505,"false"
"image-keyboard-response",159,230165,"0.0-3.49-1.49","ofca0dfs75s67qc","19.csv","","null","resources/maskTrios/L2BB.jpg","null","",NA,NA,NA,NA,""
"image-keyboard-response",160,231367,"0.0-3.49-2.49","ofca0dfs75s67qc","19.csv","","null","resources/images/fishbone.png","null","",NA,NA,NA,NA,""
"image-keyboard-response",161,231692,"0.0-3.50-0.50","ofca0dfs75s67qc","19.csv","","323.39999997615814","resources/trios/L4T1A3.jpg","39","restless",0.4,0.5,0.5,0.580962905681668,"false"
"image-keyboard-response",162,232097,"0.0-3.50-1.50","ofca0dfs75s67qc","19.csv","","null","resources/maskTrios/BBA3.jpg","null","",NA,NA,NA,NA,""
"image-keyboard-response",163,233301,"0.0-3.50-2.50","ofca0dfs75s67qc","19.csv","","null","resources/images/fishbone.png","null","",NA,NA,NA,NA,""
"image-keyboard-response",164,233934,"0.0-3.51-0.51","ofca0dfs75s67qc","19.csv","","631.6000000238419","resources/trios/L2T1A1.jpg","38","restless",0.4,0.6,0.5,0.575499415279196,"true"
"image-keyboard-response",165,234338,"0.0-3.51-1.51","ofca0dfs75s67qc","19.csv","","null","resources/maskTrios/BT1B.jpg","null","",NA,NA,NA,NA,""
"image-keyboard-response",166,235543,"0.0-3.51-2.51","ofca0dfs75s67qc","19.csv","","null","resources/images/coin2.png","null","",NA,NA,NA,NA,""
"image-keyboard-response",167,236181,"0.0-3.52-0.52","ofca0dfs75s67qc","19.csv","","635.2000000476837","resources/trios/L4T1A1.jpg","38","restless",0.4,0.6,0.5,0.737205032246456,"false"
"image-keyboard-response",168,236585,"0.0-3.52-1.52","ofca0dfs75s67qc","19.csv","","null","resources/maskTrios/BT1B.jpg","null","",NA,NA,NA,NA,""
"image-keyboard-response",169,237791,"0.0-3.52-2.52","ofca0dfs75s67qc","19.csv","","null","resources/images/fishbone.png","null","",NA,NA,NA,NA,""
"image-keyboard-response",170,238175,"0.0-3.53-0.53","ofca0dfs75s67qc","19.csv","","382.10000002384186","resources/trios/L2T2A1.jpg","39","restless",0.4,0.6,0.5,0.899176951345486,"false"
"image-keyboard-response",171,238580,"0.0-3.53-1.53","ofca0dfs75s67qc","19.csv","","null","resources/maskTrios/BBA1.jpg","null","",NA,NA,NA,NA,""
"image-keyboard-response",172,239787,"0.0-3.53-2.53","ofca0dfs75s67qc","19.csv","","null","resources/images/fishbone.png","null","",NA,NA,NA,NA,""
"image-keyboard-response",173,241177,"0.0-3.54-0.54","ofca0dfs75s67qc","19.csv","","1388.1000000238419","resources/trios/L4T1A3.jpg","37","restless",0.4,0.6,0.5,0.869942007581839,"false"
"image-keyboard-response",174,241581,"0.0-3.54-1.54","ofca0dfs75s67qc","19.csv","","null","resources/maskTrios/L4BB.jpg","null","",NA,NA,NA,NA,""
"image-keyboard-response",175,242788,"0.0-3.54-2.54","ofca0dfs75s67qc","19.csv","","null","resources/images/fishbone.png","null","",NA,NA,NA,NA,""
"image-keyboard-response",176,243828,"0.0-3.55-0.55","ofca0dfs75s67qc","19.csv","","1037.8999999761581","resources/trios/L4T2A1.jpg","38","restless",0.4,0.6,0.5,0.133822304054446,"true"
"image-keyboard-response",177,244231,"0.0-3.55-1.55","ofca0dfs75s67qc","19.csv","","null","resources/maskTrios/BT2B.jpg","null","",NA,NA,NA,NA,""
"image-keyboard-response",178,245435,"0.0-3.55-2.55","ofca0dfs75s67qc","19.csv","","null","resources/images/coin2.png","null","",NA,NA,NA,NA,""
"image-keyboard-response",179,246424,"0.0-3.56-0.56","ofca0dfs75s67qc","19.csv","","986.2000000476837","resources/trios/L4T2A1.jpg","39","restless",0.4,0.6,0.5,0.387356932357247,"true"
"image-keyboard-response",180,246837,"0.0-3.56-1.56","ofca0dfs75s67qc","19.csv","","null","resources/maskTrios/BBA1.jpg","null","",NA,NA,NA,NA,""
"image-keyboard-response",181,248044,"0.0-3.56-2.56","ofca0dfs75s67qc","19.csv","","null","resources/images/coin2.png","null","",NA,NA,NA,NA,""
"image-keyboard-response",182,248587,"0.0-3.57-0.57","ofca0dfs75s67qc","19.csv","","540.3000000119209","resources/trios/L4T2A3.jpg","39","restless",0.4,0.6,0.5,0.0834935159619625,"true"
"image-keyboard-response",183,248990,"0.0-3.57-1.57","ofca0dfs75s67qc","19.csv","","null","resources/maskTrios/BBA3.jpg","null","",NA,NA,NA,NA,""
"image-keyboard-response",184,250199,"0.0-3.57-2.57","ofca0dfs75s67qc","19.csv","","null","resources/images/coin2.png","null","",NA,NA,NA,NA,""
"image-keyboard-response",185,251648,"0.0-3.58-0.58","ofca0dfs75s67qc","19.csv","","1447","resources/trios/L2T1A1.jpg","37","restless",0.4,0.6,0.5,0.904246818075033,"false"
"image-keyboard-response",186,252057,"0.0-3.58-1.58","ofca0dfs75s67qc","19.csv","","null","resources/maskTrios/L2BB.jpg","null","",NA,NA,NA,NA,""
"image-keyboard-response",187,253263,"0.0-3.58-2.58","ofca0dfs75s67qc","19.csv","","null","resources/images/fishbone.png","null","",NA,NA,NA,NA,""
"image-keyboard-response",188,253637,"0.0-3.59-0.59","ofca0dfs75s67qc","19.csv","","371.5999999642372","resources/trios/L2T1A3.jpg","39","restless",0.4,0.6,0.5,0.109917668504068,"true"
"image-keyboard-response",189,254046,"0.0-3.59-1.59","ofca0dfs75s67qc","19.csv","","null","resources/maskTrios/BBA3.jpg","null","",NA,NA,NA,NA,""
"image-keyboard-response",190,255249,"0.0-3.59-2.59","ofca0dfs75s67qc","19.csv","","null","resources/images/coin2.png","null","",NA,NA,NA,NA,""
"image-keyboard-response",191,255840,"0.0-3.60-0.60","ofca0dfs75s67qc","19.csv","","588.5999999642372","resources/trios/L4T2A3.jpg","38","restless",0.4,0.6,0.5,0.608063996127991,"false"
"image-keyboard-response",192,256247,"0.0-3.60-1.60","ofca0dfs75s67qc","19.csv","","null","resources/maskTrios/BT2B.jpg","null","",NA,NA,NA,NA,""
"image-keyboard-response",193,257449,"0.0-3.60-2.60","ofca0dfs75s67qc","19.csv","","null","resources/images/fishbone.png","null","",NA,NA,NA,NA,""
"image-keyboard-response",194,257811,"0.0-3.61-0.61","ofca0dfs75s67qc","19.csv","","360.30000001192093","resources/trios/L2T1A3.jpg","39","restless",0.4,0.6,0.5,0.785438717727013,"false"
"image-keyboard-response",195,258216,"0.0-3.61-1.61","ofca0dfs75s67qc","19.csv","","null","resources/maskTrios/BBA3.jpg","null","",NA,NA,NA,NA,""
"image-keyboard-response",196,259420,"0.0-3.61-2.61","ofca0dfs75s67qc","19.csv","","null","resources/images/fishbone.png","null","",NA,NA,NA,NA,""
"image-keyboard-response",197,260336,"0.0-3.62-0.62","ofca0dfs75s67qc","19.csv","","913.8000000119209","resources/trios/L4T1A1.jpg","39","restless",0.4,0.7,0.5,0.62315191382921,"false"
"image-keyboard-response",198,260743,"0.0-3.62-1.62","ofca0dfs75s67qc","19.csv","","null","resources/maskTrios/BBA1.jpg","null","",NA,NA,NA,NA,""
"image-keyboard-response",199,261947,"0.0-3.62-2.62","ofca0dfs75s67qc","19.csv","","null","resources/images/fishbone.png","null","",NA,NA,NA,NA,""
"image-keyboard-response",200,262350,"0.0-3.63-0.63","ofca0dfs75s67qc","19.csv","","400.89999997615814","resources/trios/L2T2A3.jpg","37","restless",0.4,0.7,0.5,0.939029918885955,"false"
"image-keyboard-response",201,262758,"0.0-3.63-1.63","ofca0dfs75s67qc","19.csv","","null","resources/maskTrios/L2BB.jpg","null","",NA,NA,NA,NA,""
"image-keyboard-response",202,263963,"0.0-3.63-2.63","ofca0dfs75s67qc","19.csv","","null","resources/images/fishbone.png","null","",NA,NA,NA,NA,""
"image-keyboard-response",203,264603,"0.0-3.64-0.64","ofca0dfs75s67qc","19.csv","","638.5","resources/trios/L4T2A3.jpg","39","restless",0.4,0.7,0.5,0.567290841126657,"false"
"image-keyboard-response",204,265007,"0.0-3.64-1.64","ofca0dfs75s67qc","19.csv","","null","resources/maskTrios/BBA3.jpg","null","",NA,NA,NA,NA,""
"image-keyboard-response",205,266213,"0.0-3.64-2.64","ofca0dfs75s67qc","19.csv","","null","resources/images/fishbone.png","null","",NA,NA,NA,NA,""
"image-keyboard-response",206,266923,"0.0-3.65-0.65","ofca0dfs75s67qc","19.csv","","708","resources/trios/L4T1A1.jpg","38","restless",0.4,0.7,0.5,0.708791650580257,"false"
"image-keyboard-response",207,267329,"0.0-3.65-1.65","ofca0dfs75s67qc","19.csv","","null","resources/maskTrios/BT1B.jpg","null","",NA,NA,NA,NA,""
"image-keyboard-response",208,268533,"0.0-3.65-2.65","ofca0dfs75s67qc","19.csv","","null","resources/images/fishbone.png","null","",NA,NA,NA,NA,""
"image-keyboard-response",209,270635,"0.0-3.66-0.66","ofca0dfs75s67qc","19.csv","","2099.800000011921","resources/trios/L2T1A3.jpg","39","restless",0.4,0.7,0.4,0.755069690461624,"false"
"image-keyboard-response",210,271044,"0.0-3.66-1.66","ofca0dfs75s67qc","19.csv","","null","resources/maskTrios/BBA3.jpg","null","",NA,NA,NA,NA,""
"image-keyboard-response",211,272247,"0.0-3.66-2.66","ofca0dfs75s67qc","19.csv","","null","resources/images/fishbone.png","null","",NA,NA,NA,NA,""
"image-keyboard-response",212,272879,"0.0-3.67-0.67","ofca0dfs75s67qc","19.csv","","629.5","resources/trios/L2T1A1.jpg","37","restless",0.4,0.7,0.4,0.563613733134375,"false"
"image-keyboard-response",213,273283,"0.0-3.67-1.67","ofca0dfs75s67qc","19.csv","","null","resources/maskTrios/L2BB.jpg","null","",NA,NA,NA,NA,""
"image-keyboard-response",214,274490,"0.0-3.67-2.67","ofca0dfs75s67qc","19.csv","","null","resources/images/fishbone.png","null","",NA,NA,NA,NA,""
"image-keyboard-response",215,275169,"0.0-3.68-0.68","ofca0dfs75s67qc","19.csv","","676.9000000357628","resources/trios/L4T2A3.jpg","39","restless",0.4,0.7,0.4,0.764419706724573,"false"
"image-keyboard-response",216,275570,"0.0-3.68-1.68","ofca0dfs75s67qc","19.csv","","null","resources/maskTrios/BBA3.jpg","null","",NA,NA,NA,NA,""
"image-keyboard-response",217,276775,"0.0-3.68-2.68","ofca0dfs75s67qc","19.csv","","null","resources/images/fishbone.png","null","",NA,NA,NA,NA,""
"image-keyboard-response",218,278005,"0.0-3.69-0.69","ofca0dfs75s67qc","19.csv","","1228.800000011921","resources/trios/L2T2A3.jpg","39","restless",0.4,0.7,0.4,0.0497924509960219,"true"
"image-keyboard-response",219,278411,"0.0-3.69-1.69","ofca0dfs75s67qc","19.csv","","null","resources/maskTrios/BBA3.jpg","null","",NA,NA,NA,NA,""
"image-keyboard-response",220,279616,"0.0-3.69-2.69","ofca0dfs75s67qc","19.csv","","null","resources/images/coin2.png","null","",NA,NA,NA,NA,""
"image-keyboard-response",221,280834,"0.0-3.70-0.70","ofca0dfs75s67qc","19.csv","","1216.699999988079","resources/trios/L4T2A3.jpg","39","restless",0.4,0.7,0.4,0.458088563318386,"false"
"image-keyboard-response",222,281241,"0.0-3.70-1.70","ofca0dfs75s67qc","19.csv","","null","resources/maskTrios/BBA3.jpg","null","",NA,NA,NA,NA,""
"image-keyboard-response",223,282445,"0.0-3.70-2.70","ofca0dfs75s67qc","19.csv","","null","resources/images/fishbone.png","null","",NA,NA,NA,NA,""
"image-keyboard-response",224,282977,"0.0-3.71-0.71","ofca0dfs75s67qc","19.csv","","530.3000000119209","resources/trios/L2T2A1.jpg","39","restless",0.4,0.7,0.4,0.294488381168623,"true"
"image-keyboard-response",225,283382,"0.0-3.71-1.71","ofca0dfs75s67qc","19.csv","","null","resources/maskTrios/BBA1.jpg","null","",NA,NA,NA,NA,""
"image-keyboard-response",226,284585,"0.0-3.71-2.71","ofca0dfs75s67qc","19.csv","","null","resources/images/coin2.png","null","",NA,NA,NA,NA,""
"image-keyboard-response",227,284918,"0.0-3.72-0.72","ofca0dfs75s67qc","19.csv","","330.30000001192093","resources/trios/L2T2A3.jpg","39","restless",0.4,0.7,0.3,0.912560607245039,"false"
"image-keyboard-response",228,285322,"0.0-3.72-1.72","ofca0dfs75s67qc","19.csv","","null","resources/maskTrios/BBA3.jpg","null","",NA,NA,NA,NA,""
"image-keyboard-response",229,286528,"0.0-3.72-2.72","ofca0dfs75s67qc","19.csv","","null","resources/images/fishbone.png","null","",NA,NA,NA,NA,""
"image-keyboard-response",230,286964,"0.0-3.73-0.73","ofca0dfs75s67qc","19.csv","","433.9000000357628","resources/trios/L4T1A1.jpg","38","restless",0.4,0.7,0.3,0.324238273633634,"true"
"image-keyboard-response",231,287373,"0.0-3.73-1.73","ofca0dfs75s67qc","19.csv","","null","resources/maskTrios/BT1B.jpg","null","",NA,NA,NA,NA,""
"image-keyboard-response",232,288579,"0.0-3.73-2.73","ofca0dfs75s67qc","19.csv","","null","resources/images/coin2.png","null","",NA,NA,NA,NA,""
"image-keyboard-response",233,289432,"0.0-3.74-0.74","ofca0dfs75s67qc","19.csv","","851.0999999642372","resources/trios/L2T2A3.jpg","37","restless",0.4,0.7,0.4,0.928901100266841,"false"
"image-keyboard-response",234,289839,"0.0-3.74-1.74","ofca0dfs75s67qc","19.csv","","null","resources/maskTrios/L2BB.jpg","null","",NA,NA,NA,NA,""
"image-keyboard-response",235,291044,"0.0-3.74-2.74","ofca0dfs75s67qc","19.csv","","null","resources/images/fishbone.png","null","",NA,NA,NA,NA,""
"image-keyboard-response",236,291498,"0.0-3.75-0.75","ofca0dfs75s67qc","19.csv","","452.7000000476837","resources/trios/L4T2A1.jpg","39","restless",0.4,0.7,0.4,0.719169661508488,"false"
"image-keyboard-response",237,291901,"0.0-3.75-1.75","ofca0dfs75s67qc","19.csv","","null","resources/maskTrios/BBA1.jpg","null","",NA,NA,NA,NA,""
"image-keyboard-response",238,293105,"0.0-3.75-2.75","ofca0dfs75s67qc","19.csv","","null","resources/images/fishbone.png","null","",NA,NA,NA,NA,""
"image-keyboard-response",239,294383,"0.0-3.76-0.76","ofca0dfs75s67qc","19.csv","","1276.3999999761581","resources/trios/L2T1A3.jpg","39","restless",0.4,0.8,0.4,0.714698174762427,"false"
"image-keyboard-response",240,294786,"0.0-3.76-1.76","ofca0dfs75s67qc","19.csv","","null","resources/maskTrios/BBA3.jpg","null","",NA,NA,NA,NA,""
"image-keyboard-response",241,295990,"0.0-3.76-2.76","ofca0dfs75s67qc","19.csv","","null","resources/images/fishbone.png","null","",NA,NA,NA,NA,""
"image-keyboard-response",242,296302,"0.0-3.77-0.77","ofca0dfs75s67qc","19.csv","","309.39999997615814","resources/trios/L2T1A3.jpg","37","restless",0.4,0.8,0.4,0.305629993369217,"true"
"image-keyboard-response",243,296708,"0.0-3.77-1.77","ofca0dfs75s67qc","19.csv","","null","resources/maskTrios/L2BB.jpg","null","",NA,NA,NA,NA,""
"image-keyboard-response",244,297912,"0.0-3.77-2.77","ofca0dfs75s67qc","19.csv","","null","resources/images/coin2.png","null","",NA,NA,NA,NA,""
"image-keyboard-response",245,299161,"0.0-3.78-0.78","ofca0dfs75s67qc","19.csv","","1247.300000011921","resources/trios/L2T2A1.jpg","39","restless",0.4,0.8,0.4,0.992530822762995,"false"
"image-keyboard-response",246,299565,"0.0-3.78-1.78","ofca0dfs75s67qc","19.csv","","null","resources/maskTrios/BBA1.jpg","null","",NA,NA,NA,NA,""
"image-keyboard-response",247,300768,"0.0-3.78-2.78","ofca0dfs75s67qc","19.csv","","null","resources/images/fishbone.png","null","",NA,NA,NA,NA,""
"image-keyboard-response",248,301416,"0.0-3.79-0.79","ofca0dfs75s67qc","19.csv","","645.5","resources/trios/L2T2A1.jpg","38","restless",0.4,0.8,0.4,0.909905513659219,"false"
"image-keyboard-response",249,301823,"0.0-3.79-1.79","ofca0dfs75s67qc","19.csv","","null","resources/maskTrios/BT2B.jpg","null","",NA,NA,NA,NA,""
"image-keyboard-response",250,303026,"0.0-3.79-2.79","ofca0dfs75s67qc","19.csv","","null","resources/images/fishbone.png","null","",NA,NA,NA,NA,""
"image-keyboard-response",251,303970,"0.0-3.80-0.80","ofca0dfs75s67qc","19.csv","","941.5999999642372","resources/trios/L4T1A3.jpg","37","restless",0.4,0.8,0.4,0.433877924157548,"false"
"image-keyboard-response",252,304375,"0.0-3.80-1.80","ofca0dfs75s67qc","19.csv","","null","resources/maskTrios/L4BB.jpg","null","",NA,NA,NA,NA,""
"image-keyboard-response",253,305581,"0.0-3.80-2.80","ofca0dfs75s67qc","19.csv","","null","resources/images/fishbone.png","null","",NA,NA,NA,NA,""
"image-keyboard-response",254,306084,"0.0-3.81-0.81","ofca0dfs75s67qc","19.csv","","501.30000001192093","resources/trios/L4T2A3.jpg","39","restless",0.4,0.8,0.4,0.993928854035597,"false"
"image-keyboard-response",255,306493,"0.0-3.81-1.81","ofca0dfs75s67qc","19.csv","","null","resources/maskTrios/BBA3.jpg","null","",NA,NA,NA,NA,""
"image-keyboard-response",256,307698,"0.0-3.81-2.81","ofca0dfs75s67qc","19.csv","","null","resources/images/fishbone.png","null","",NA,NA,NA,NA,""
"image-keyboard-response",257,308138,"0.0-3.82-0.82","ofca0dfs75s67qc","19.csv","","437.7999999523163","resources/trios/L2T1A1.jpg","38","restless",0.4,0.8,0.4,0.196601409389343,"true"
"image-keyboard-response",258,308543,"0.0-3.82-1.82","ofca0dfs75s67qc","19.csv","","null","resources/maskTrios/BT1B.jpg","null","",NA,NA,NA,NA,""
"image-keyboard-response",259,309747,"0.0-3.82-2.82","ofca0dfs75s67qc","19.csv","","null","resources/images/coin2.png","null","",NA,NA,NA,NA,""
"image-keyboard-response",260,310727,"0.0-3.83-0.83","ofca0dfs75s67qc","19.csv","","977.6999999880791","resources/trios/L2T2A1.jpg","39","restless",0.4,0.8,0.4,0.91049378929987,"false"
"image-keyboard-response",261,311132,"0.0-3.83-1.83","ofca0dfs75s67qc","19.csv","","null","resources/maskTrios/BBA1.jpg","null","",NA,NA,NA,NA,""
"image-keyboard-response",262,312335,"0.0-3.83-2.83","ofca0dfs75s67qc","19.csv","","null","resources/images/fishbone.png","null","",NA,NA,NA,NA,""
"image-keyboard-response",263,313042,"0.0-3.84-0.84","ofca0dfs75s67qc","19.csv","","702.1999999880791","resources/trios/L2T1A3.jpg","37","restless",0.4,0.8,0.4,0.0212587800765056,"true"
"image-keyboard-response",264,313445,"0.0-3.84-1.84","ofca0dfs75s67qc","19.csv","","null","resources/maskTrios/L2BB.jpg","null","",NA,NA,NA,NA,""
"image-keyboard-response",265,314648,"0.0-3.84-2.84","ofca0dfs75s67qc","19.csv","","null","resources/images/coin2.png","null","",NA,NA,NA,NA,""
"image-keyboard-response",266,315223,"0.0-3.85-0.85","ofca0dfs75s67qc","19.csv","","572.5","resources/trios/L4T2A3.jpg","38","restless",0.4,0.8,0.4,0.156945608550547,"true"
"image-keyboard-response",267,315629,"0.0-3.85-1.85","ofca0dfs75s67qc","19.csv","","null","resources/maskTrios/BT2B.jpg","null","",NA,NA,NA,NA,""
"image-keyboard-response",268,316839,"0.0-3.85-2.85","ofca0dfs75s67qc","19.csv","","null","resources/images/coin2.png","null","",NA,NA,NA,NA,""
"image-keyboard-response",269,317931,"0.0-3.86-0.86","ofca0dfs75s67qc","19.csv","","1090.300000011921","resources/trios/L4T2A1.jpg","39","restless",0.4,0.8,0.4,0.712796057584136,"false"
"image-keyboard-response",270,318337,"0.0-3.86-1.86","ofca0dfs75s67qc","19.csv","","null","resources/maskTrios/BBA1.jpg","null","",NA,NA,NA,NA,""
"image-keyboard-response",271,319543,"0.0-3.86-2.86","ofca0dfs75s67qc","19.csv","","null","resources/images/fishbone.png","null","",NA,NA,NA,NA,""
"image-keyboard-response",272,319982,"0.0-3.87-0.87","ofca0dfs75s67qc","19.csv","","437.30000001192093","resources/trios/L4T2A3.jpg","38","restless",0.4,0.8,0.4,0.582278516321201,"true"
"image-keyboard-response",273,320386,"0.0-3.87-1.87","ofca0dfs75s67qc","19.csv","","null","resources/maskTrios/BT2B.jpg","null","",NA,NA,NA,NA,""
"image-keyboard-response",274,321590,"0.0-3.87-2.87","ofca0dfs75s67qc","19.csv","","null","resources/images/coin2.png","null","",NA,NA,NA,NA,""
"image-keyboard-response",275,322323,"0.0-3.88-0.88","ofca0dfs75s67qc","19.csv","","731.5","resources/trios/L4T1A1.jpg","39","restless",0.4,0.9,0.5,0.485156245097167,"true"
"image-keyboard-response",276,322726,"0.0-3.88-1.88","ofca0dfs75s67qc","19.csv","","null","resources/maskTrios/BBA1.jpg","null","",NA,NA,NA,NA,""
"image-keyboard-response",277,323930,"0.0-3.88-2.88","ofca0dfs75s67qc","19.csv","","null","resources/images/coin2.png","null","",NA,NA,NA,NA,""
"image-keyboard-response",278,324979,"0.0-3.89-0.89","ofca0dfs75s67qc","19.csv","","1047.5","resources/trios/L2T2A3.jpg","37","restless",0.4,0.9,0.5,0.400289838678912,"false"
"image-keyboard-response",279,325383,"0.0-3.89-1.89","ofca0dfs75s67qc","19.csv","","null","resources/maskTrios/L2BB.jpg","null","",NA,NA,NA,NA,""
"image-keyboard-response",280,326590,"0.0-3.89-2.89","ofca0dfs75s67qc","19.csv","","null","resources/images/fishbone.png","null","",NA,NA,NA,NA,""
"image-keyboard-response",281,327136,"0.0-3.90-0.90","ofca0dfs75s67qc","19.csv","","543.7000000476837","resources/trios/L2T2A1.jpg","39","restless",0.4,0.9,0.5,0.741643957609584,"false"
"image-keyboard-response",282,327541,"0.0-3.90-1.90","ofca0dfs75s67qc","19.csv","","null","resources/maskTrios/BBA1.jpg","null","",NA,NA,NA,NA,""
"image-keyboard-response",283,328743,"0.0-3.90-2.90","ofca0dfs75s67qc","19.csv","","null","resources/images/fishbone.png","null","",NA,NA,NA,NA,""
"image-keyboard-response",284,329130,"0.0-3.91-0.91","ofca0dfs75s67qc","19.csv","","384.69999998807907","resources/trios/L4T2A3.jpg","38","restless",0.4,0.9,0.5,0.514383575820656,"true"
"image-keyboard-response",285,329533,"0.0-3.91-1.91","ofca0dfs75s67qc","19.csv","","null","resources/maskTrios/BT2B.jpg","null","",NA,NA,NA,NA,""
"image-keyboard-response",286,330737,"0.0-3.91-2.91","ofca0dfs75s67qc","19.csv","","null","resources/images/coin2.png","null","",NA,NA,NA,NA,""
"image-keyboard-response",287,331561,"0.0-3.92-0.92","ofca0dfs75s67qc","19.csv","","822.7999999523163","resources/trios/L2T2A1.jpg","38","restless",0.4,0.9,0.5,0.556530431120722,"true"
"image-keyboard-response",288,331963,"0.0-3.92-1.92","ofca0dfs75s67qc","19.csv","","null","resources/maskTrios/BT2B.jpg","null","",NA,NA,NA,NA,""
"image-keyboard-response",289,333169,"0.0-3.92-2.92","ofca0dfs75s67qc","19.csv","","null","resources/images/coin2.png","null","",NA,NA,NA,NA,""
"image-keyboard-response",290,334107,"0.0-3.93-0.93","ofca0dfs75s67qc","19.csv","","936.5999999642372","resources/trios/L2T1A3.jpg","37","restless",0.4,0.8,0.5,0.920164910756054,"false"
"image-keyboard-response",291,334512,"0.0-3.93-1.93","ofca0dfs75s67qc","19.csv","","null","resources/maskTrios/L2BB.jpg","null","",NA,NA,NA,NA,""
"image-keyboard-response",292,335719,"0.0-3.93-2.93","ofca0dfs75s67qc","19.csv","","null","resources/images/fishbone.png","null","",NA,NA,NA,NA,""
"image-keyboard-response",293,336191,"0.0-3.94-0.94","ofca0dfs75s67qc","19.csv","","470.80000001192093","resources/trios/L4T2A3.jpg","38","restless",0.4,0.8,0.5,0.574345515881431,"true"
"image-keyboard-response",294,336593,"0.0-3.94-1.94","ofca0dfs75s67qc","19.csv","","null","resources/maskTrios/BT2B.jpg","null","",NA,NA,NA,NA,""
"image-keyboard-response",295,337796,"0.0-3.94-2.94","ofca0dfs75s67qc","19.csv","","null","resources/images/coin2.png","null","",NA,NA,NA,NA,""
"image-keyboard-response",296,338740,"0.0-3.95-0.95","ofca0dfs75s67qc","19.csv","","943.1000000238419","resources/trios/L4T1A3.jpg","37","restless",0.4,0.8,0.5,0.279144115511403,"true"
"image-keyboard-response",297,339143,"0.0-3.95-1.95","ofca0dfs75s67qc","19.csv","","null","resources/maskTrios/L4BB.jpg","null","",NA,NA,NA,NA,""
"image-keyboard-response",298,340351,"0.0-3.95-2.95","ofca0dfs75s67qc","19.csv","","null","resources/images/coin2.png","null","",NA,NA,NA,NA,""
"image-keyboard-response",299,341538,"0.0-3.96-0.96","ofca0dfs75s67qc","19.csv","","1185.6000000238419","resources/trios/L4T1A1.jpg","37","restless",0.4,0.8,0.5,0.876338221041733,"false"
"image-keyboard-response",300,341941,"0.0-3.96-1.96","ofca0dfs75s67qc","19.csv","","null","resources/maskTrios/L4BB.jpg","null","",NA,NA,NA,NA,""
"image-keyboard-response",301,343145,"0.0-3.96-2.96","ofca0dfs75s67qc","19.csv","","null","resources/images/fishbone.png","null","",NA,NA,NA,NA,""
"image-keyboard-response",302,344048,"0.0-3.97-0.97","ofca0dfs75s67qc","19.csv","","901.0999999642372","resources/trios/L2T2A3.jpg","38","restless",0.4,0.7,0.5,0.567524787516692,"true"
"image-keyboard-response",303,344454,"0.0-3.97-1.97","ofca0dfs75s67qc","19.csv","","null","resources/maskTrios/BT2B.jpg","null","",NA,NA,NA,NA,""
"image-keyboard-response",304,345659,"0.0-3.97-2.97","ofca0dfs75s67qc","19.csv","","null","resources/images/coin2.png","null","",NA,NA,NA,NA,""
"image-keyboard-response",305,346501,"0.0-3.98-0.98","ofca0dfs75s67qc","19.csv","","841","resources/trios/L4T2A1.jpg","38","restless",0.4,0.7,0.5,0.526271122405194,"true"
"image-keyboard-response",306,346905,"0.0-3.98-1.98","ofca0dfs75s67qc","19.csv","","null","resources/maskTrios/BT2B.jpg","null","",NA,NA,NA,NA,""
"image-keyboard-response",307,348107,"0.0-3.98-2.98","ofca0dfs75s67qc","19.csv","","null","resources/images/coin2.png","null","",NA,NA,NA,NA,""
"image-keyboard-response",308,350480,"0.0-3.99-0.99","ofca0dfs75s67qc","19.csv","","2370.400000035763","resources/trios/L4T2A3.jpg","37","restless",0.4,0.7,0.5,0.242203086463125,"true"
"image-keyboard-response",309,350881,"0.0-3.99-1.99","ofca0dfs75s67qc","19.csv","","null","resources/maskTrios/L4BB.jpg","null","",NA,NA,NA,NA,""
"image-keyboard-response",310,352088,"0.0-3.99-2.99","ofca0dfs75s67qc","19.csv","","null","resources/images/coin2.png","null","",NA,NA,NA,NA,""
"image-keyboard-response",311,353760,"0.0-3.100-0.100","ofca0dfs75s67qc","19.csv","","1670","resources/trios/L4T1A3.jpg","39","restless",0.4,0.7,0.5,0.764156785534408,"false"
"image-keyboard-response",312,354163,"0.0-3.100-1.100","ofca0dfs75s67qc","19.csv","","null","resources/maskTrios/BBA3.jpg","null","",NA,NA,NA,NA,""
"image-keyboard-response",313,355369,"0.0-3.100-2.100","ofca0dfs75s67qc","19.csv","","null","resources/images/fishbone.png","null","",NA,NA,NA,NA,""
"image-keyboard-response",314,357055,"0.0-3.101-0.101","ofca0dfs75s67qc","19.csv","","1684.199999988079","resources/trios/L4T2A1.jpg","38","restless",0.5,0.7,0.5,0.986696961032485,"false"
"image-keyboard-response",315,357457,"0.0-3.101-1.101","ofca0dfs75s67qc","19.csv","","null","resources/maskTrios/BT2B.jpg","null","",NA,NA,NA,NA,""
"image-keyboard-response",316,358663,"0.0-3.101-2.101","ofca0dfs75s67qc","19.csv","","null","resources/images/fishbone.png","null","",NA,NA,NA,NA,""
"image-keyboard-response",317,359079,"0.0-3.102-0.102","ofca0dfs75s67qc","19.csv","","413.39999997615814","resources/trios/L4T1A3.jpg","37","restless",0.5,0.7,0.5,0.438756555384179,"true"
"image-keyboard-response",318,359484,"0.0-3.102-1.102","ofca0dfs75s67qc","19.csv","","null","resources/maskTrios/L4BB.jpg","null","",NA,NA,NA,NA,""
"image-keyboard-response",319,360692,"0.0-3.102-2.102","ofca0dfs75s67qc","19.csv","","null","resources/images/coin2.png","null","",NA,NA,NA,NA,""
"image-keyboard-response",320,362527,"0.0-3.103-0.103","ofca0dfs75s67qc","19.csv","","1832.5","resources/trios/L2T2A1.jpg","38","restless",0.5,0.7,0.5,0.884861128212922,"false"
"image-keyboard-response",321,362930,"0.0-3.103-1.103","ofca0dfs75s67qc","19.csv","","null","resources/maskTrios/BT2B.jpg","null","",NA,NA,NA,NA,""
"image-keyboard-response",322,364137,"0.0-3.103-2.103","ofca0dfs75s67qc","19.csv","","null","resources/images/fishbone.png","null","",NA,NA,NA,NA,""
"image-keyboard-response",323,364555,"0.0-3.104-0.104","ofca0dfs75s67qc","19.csv","","416.10000002384186","resources/trios/L4T2A1.jpg","39","restless",0.5,0.7,0.5,0.660860822672048,"false"
"image-keyboard-response",324,364959,"0.0-3.104-1.104","ofca0dfs75s67qc","19.csv","","null","resources/maskTrios/BBA1.jpg","null","",NA,NA,NA,NA,""
"image-keyboard-response",325,366165,"0.0-3.104-2.104","ofca0dfs75s67qc","19.csv","","null","resources/images/fishbone.png","null","",NA,NA,NA,NA,""
"image-keyboard-response",326,366684,"0.0-3.105-0.105","ofca0dfs75s67qc","19.csv","","517.3000000119209","resources/trios/L4T2A1.jpg","37","restless",0.5,0.7,0.5,0.288317421837522,"true"
"image-keyboard-response",327,367089,"0.0-3.105-1.105","ofca0dfs75s67qc","19.csv","","null","resources/maskTrios/L4BB.jpg","null","",NA,NA,NA,NA,""
"image-keyboard-response",328,368294,"0.0-3.105-2.105","ofca0dfs75s67qc","19.csv","","null","resources/images/coin2.png","null","",NA,NA,NA,NA,""
"image-keyboard-response",329,369276,"0.0-3.106-0.106","ofca0dfs75s67qc","19.csv","","980.4000000357628","resources/trios/L2T1A1.jpg","37","restless",0.5,0.7,0.5,0.990888392065839,"false"
"image-keyboard-response",330,369681,"0.0-3.106-1.106","ofca0dfs75s67qc","19.csv","","null","resources/maskTrios/L2BB.jpg","null","",NA,NA,NA,NA,""
"image-keyboard-response",331,370883,"0.0-3.106-2.106","ofca0dfs75s67qc","19.csv","","null","resources/images/fishbone.png","null","",NA,NA,NA,NA,""
"image-keyboard-response",332,371332,"0.0-3.107-0.107","ofca0dfs75s67qc","19.csv","","446.69999998807907","resources/trios/L2T2A1.jpg","38","restless",0.4,0.7,0.5,0.717143044750153,"false"
"image-keyboard-response",333,371737,"0.0-3.107-1.107","ofca0dfs75s67qc","19.csv","","null","resources/maskTrios/BT2B.jpg","null","",NA,NA,NA,NA,""
"image-keyboard-response",334,372939,"0.0-3.107-2.107","ofca0dfs75s67qc","19.csv","","null","resources/images/fishbone.png","null","",NA,NA,NA,NA,""
"image-keyboard-response",335,373091,"0.0-3.108-0.108","ofca0dfs75s67qc","19.csv","","149.69999998807907","resources/trios/L2T1A3.jpg","39","restless",0.4,0.6,0.5,0.576599826664433,"false"
"image-keyboard-response",336,373496,"0.0-3.108-1.108","ofca0dfs75s67qc","19.csv","","null","resources/maskTrios/BBA3.jpg","null","",NA,NA,NA,NA,""
"image-keyboard-response",337,374701,"0.0-3.108-2.108","ofca0dfs75s67qc","19.csv","","null","resources/images/fishbone.png","null","",NA,NA,NA,NA,""
"image-keyboard-response",338,374993,"0.0-3.109-0.109","ofca0dfs75s67qc","19.csv","","291.0999999642372","resources/trios/L4T1A3.jpg","37","restless",0.4,0.5,0.5,0.749870228204914,"false"
"image-keyboard-response",339,375400,"0.0-3.109-1.109","ofca0dfs75s67qc","19.csv","","null","resources/maskTrios/L4BB.jpg","null","",NA,NA,NA,NA,""
"image-keyboard-response",340,376605,"0.0-3.109-2.109","ofca0dfs75s67qc","19.csv","","null","resources/images/fishbone.png","null","",NA,NA,NA,NA,""
"image-keyboard-response",341,376907,"0.0-3.110-0.110","ofca0dfs75s67qc","19.csv","","299.5","resources/trios/L2T1A1.jpg","38","restless",0.4,0.4,0.5,0.00383654403044753,"true"
"image-keyboard-response",342,377313,"0.0-3.110-1.110","ofca0dfs75s67qc","19.csv","","null","resources/maskTrios/BT1B.jpg","null","",NA,NA,NA,NA,""
"image-keyboard-response",343,378518,"0.0-3.110-2.110","ofca0dfs75s67qc","19.csv","","null","resources/images/coin2.png","null","",NA,NA,NA,NA,""
"image-keyboard-response",344,378996,"0.0-3.111-0.111","ofca0dfs75s67qc","19.csv","","475.69999998807907","resources/trios/L4T1A1.jpg","38","restless",0.4,0.4,0.5,0.0350960948863557,"true"
"image-keyboard-response",345,379401,"0.0-3.111-1.111","ofca0dfs75s67qc","19.csv","","null","resources/maskTrios/BT1B.jpg","null","",NA,NA,NA,NA,""
"image-keyboard-response",346,380605,"0.0-3.111-2.111","ofca0dfs75s67qc","19.csv","","null","resources/images/coin2.png","null","",NA,NA,NA,NA,""
"image-keyboard-response",347,380952,"0.0-3.112-0.112","ofca0dfs75s67qc","19.csv","","345.7000000476837","resources/trios/L2T1A1.jpg","37","restless",0.5,0.4,0.5,0.32230147582248,"true"
"image-keyboard-response",348,381355,"0.0-3.112-1.112","ofca0dfs75s67qc","19.csv","","null","resources/maskTrios/L2BB.jpg","null","",NA,NA,NA,NA,""
"image-keyboard-response",349,382559,"0.0-3.112-2.112","ofca0dfs75s67qc","19.csv","","null","resources/images/coin2.png","null","",NA,NA,NA,NA,""
"image-keyboard-response",350,382942,"0.0-3.113-0.113","ofca0dfs75s67qc","19.csv","","381","resources/trios/L2T2A3.jpg","39","restless",0.5,0.4,0.4,0.27988857237851,"true"
"image-keyboard-response",351,383350,"0.0-3.113-1.113","ofca0dfs75s67qc","19.csv","","null","resources/maskTrios/BBA3.jpg","null","",NA,NA,NA,NA,""
"image-keyboard-response",352,384555,"0.0-3.113-2.113","ofca0dfs75s67qc","19.csv","","null","resources/images/coin2.png","null","",NA,NA,NA,NA,""
"image-keyboard-response",353,385000,"0.0-3.114-0.114","ofca0dfs75s67qc","19.csv","","443.80000001192093","resources/trios/L4T2A3.jpg","39","restless",0.5,0.4,0.4,0.38691713980144,"true"
"image-keyboard-response",354,385405,"0.0-3.114-1.114","ofca0dfs75s67qc","19.csv","","null","resources/maskTrios/BBA3.jpg","null","",NA,NA,NA,NA,""
"image-keyboard-response",355,386610,"0.0-3.114-2.114","ofca0dfs75s67qc","19.csv","","null","resources/images/coin2.png","null","",NA,NA,NA,NA,""
"image-keyboard-response",356,386960,"0.0-3.115-0.115","ofca0dfs75s67qc","19.csv","","346.39999997615814","resources/trios/L4T1A3.jpg","38","restless",0.4,0.4,0.5,0.44213656820913,"false"
"image-keyboard-response",357,387367,"0.0-3.115-1.115","ofca0dfs75s67qc","19.csv","","null","resources/maskTrios/BT1B.jpg","null","",NA,NA,NA,NA,""
"image-keyboard-response",358,388571,"0.0-3.115-2.115","ofca0dfs75s67qc","19.csv","","null","resources/images/fishbone.png","null","",NA,NA,NA,NA,""
"image-keyboard-response",359,389072,"0.0-3.116-0.116","ofca0dfs75s67qc","19.csv","","498.4000000357628","resources/trios/L2T1A3.jpg","38","restless",0.4,0.4,0.5,0.382205489694722,"true"
"image-keyboard-response",360,389481,"0.0-3.116-1.116","ofca0dfs75s67qc","19.csv","","null","resources/maskTrios/BT1B.jpg","null","",NA,NA,NA,NA,""
"image-keyboard-response",361,390688,"0.0-3.116-2.116","ofca0dfs75s67qc","19.csv","","null","resources/images/coin2.png","null","",NA,NA,NA,NA,""
"image-keyboard-response",362,391033,"0.0-3.117-0.117","ofca0dfs75s67qc","19.csv","","343.19999998807907","resources/trios/L2T1A1.jpg","38","restless",0.4,0.4,0.5,0.727015281886381,"false"
"image-keyboard-response",363,391437,"0.0-3.117-1.117","ofca0dfs75s67qc","19.csv","","null","resources/maskTrios/BT1B.jpg","null","",NA,NA,NA,NA,""
"image-keyboard-response",364,392643,"0.0-3.117-2.117","ofca0dfs75s67qc","19.csv","","null","resources/images/fishbone.png","null","",NA,NA,NA,NA,""
"image-keyboard-response",365,393127,"0.0-3.118-0.118","ofca0dfs75s67qc","19.csv","","482.10000002384186","resources/trios/L2T1A3.jpg","39","restless",0.5,0.4,0.5,0.845589713607889,"false"
"image-keyboard-response",366,393532,"0.0-3.118-1.118","ofca0dfs75s67qc","19.csv","","null","resources/maskTrios/BBA3.jpg","null","",NA,NA,NA,NA,""
"image-keyboard-response",367,394738,"0.0-3.118-2.118","ofca0dfs75s67qc","19.csv","","null","resources/images/fishbone.png","null","",NA,NA,NA,NA,""
"image-keyboard-response",368,395051,"0.0-3.119-0.119","ofca0dfs75s67qc","19.csv","","311.30000001192093","resources/trios/L4T1A1.jpg","37","restless",0.5,0.4,0.5,0.803732450310367,"false"
"image-keyboard-response",369,395456,"0.0-3.119-1.119","ofca0dfs75s67qc","19.csv","","null","resources/maskTrios/L4BB.jpg","null","",NA,NA,NA,NA,""
"image-keyboard-response",370,396663,"0.0-3.119-2.119","ofca0dfs75s67qc","19.csv","","null","resources/images/fishbone.png","null","",NA,NA,NA,NA,""
"image-keyboard-response",371,396954,"0.0-3.120-0.120","ofca0dfs75s67qc","19.csv","","288.80000001192093","resources/trios/L2T2A1.jpg","39","restless",0.5,0.4,0.5,0.285549184088494,"true"
"image-keyboard-response",372,397361,"0.0-3.120-1.120","ofca0dfs75s67qc","19.csv","","null","resources/maskTrios/BBA1.jpg","null","",NA,NA,NA,NA,""
"image-keyboard-response",373,398570,"0.0-3.120-2.120","ofca0dfs75s67qc","19.csv","","null","resources/images/coin2.png","null","",NA,NA,NA,NA,""
"image-keyboard-response",374,398865,"0.0-3.121-0.121","ofca0dfs75s67qc","19.csv","","293.10000002384186","resources/trios/L2T2A1.jpg","38","restless",0.5,0.4,0.5,0.662620350301063,"false"
"image-keyboard-response",375,399268,"0.0-3.121-1.121","ofca0dfs75s67qc","19.csv","","null","resources/maskTrios/BT2B.jpg","null","",NA,NA,NA,NA,""
"image-keyboard-response",376,400475,"0.0-3.121-2.121","ofca0dfs75s67qc","19.csv","","null","resources/images/fishbone.png","null","",NA,NA,NA,NA,""
"image-keyboard-response",377,400585,"0.0-3.122-0.122","ofca0dfs75s67qc","19.csv","","107.70000004768372","resources/trios/L2T1A1.jpg","39","restless",0.5,0.4,0.6,0.899484723555976,"false"
"image-keyboard-response",378,400992,"0.0-3.122-1.122","ofca0dfs75s67qc","19.csv","","null","resources/maskTrios/BBA1.jpg","null","",NA,NA,NA,NA,""
"image-keyboard-response",379,402195,"0.0-3.122-2.122","ofca0dfs75s67qc","19.csv","","null","resources/images/fishbone.png","null","",NA,NA,NA,NA,""
"image-keyboard-response",380,402488,"0.0-3.123-0.123","ofca0dfs75s67qc","19.csv","","289.9000000357628","resources/trios/L2T1A1.jpg","38","restless",0.5,0.4,0.6,0.468344030427721,"false"
"image-keyboard-response",381,402891,"0.0-3.123-1.123","ofca0dfs75s67qc","19.csv","","null","resources/maskTrios/BT1B.jpg","null","",NA,NA,NA,NA,""
"image-keyboard-response",382,404094,"0.0-3.123-2.123","ofca0dfs75s67qc","19.csv","","null","resources/images/fishbone.png","null","",NA,NA,NA,NA,""
"image-keyboard-response",383,404688,"0.0-3.124-0.124","ofca0dfs75s67qc","19.csv","","592.2999999523163","resources/trios/L2T2A3.jpg","37","restless",0.5,0.4,0.6,0.0488042810857856,"true"
"image-keyboard-response",384,405094,"0.0-3.124-1.124","ofca0dfs75s67qc","19.csv","","null","resources/maskTrios/L2BB.jpg","null","",NA,NA,NA,NA,""
"image-keyboard-response",385,406298,"0.0-3.124-2.124","ofca0dfs75s67qc","19.csv","","null","resources/images/coin2.png","null","",NA,NA,NA,NA,""
"image-keyboard-response",386,406657,"0.0-3.125-0.125","ofca0dfs75s67qc","19.csv","","356.80000001192093","resources/trios/L2T1A1.jpg","37","restless",0.6,0.4,0.6,0.0439309947843129,"true"
"image-keyboard-response",387,407063,"0.0-3.125-1.125","ofca0dfs75s67qc","19.csv","","null","resources/maskTrios/L2BB.jpg","null","",NA,NA,NA,NA,""
"image-keyboard-response",388,408270,"0.0-3.125-2.125","ofca0dfs75s67qc","19.csv","","null","resources/images/coin2.png","null","",NA,NA,NA,NA,""
"image-keyboard-response",389,408715,"0.0-3.126-0.126","ofca0dfs75s67qc","19.csv","","442.89999997615814","resources/trios/L2T1A3.jpg","37","restless",0.5,0.3,0.6,0.65178088927292,"false"
"image-keyboard-response",390,409118,"0.0-3.126-1.126","ofca0dfs75s67qc","19.csv","","null","resources/maskTrios/L2BB.jpg","null","",NA,NA,NA,NA,""
"image-keyboard-response",391,410325,"0.0-3.126-2.126","ofca0dfs75s67qc","19.csv","","null","resources/images/fishbone.png","null","",NA,NA,NA,NA,""
"image-keyboard-response",392,410711,"0.0-3.127-0.127","ofca0dfs75s67qc","19.csv","","383.5","resources/trios/L2T2A3.jpg","38","restless",0.5,0.3,0.6,0.323235329575673,"false"
"image-keyboard-response",393,411118,"0.0-3.127-1.127","ofca0dfs75s67qc","19.csv","","null","resources/maskTrios/BT2B.jpg","null","",NA,NA,NA,NA,""
"image-keyboard-response",394,412325,"0.0-3.127-2.127","ofca0dfs75s67qc","19.csv","","null","resources/images/fishbone.png","null","",NA,NA,NA,NA,""
"image-keyboard-response",395,412748,"0.0-3.128-0.128","ofca0dfs75s67qc","19.csv","","421.5","resources/trios/L4T1A1.jpg","38","restless",0.5,0.3,0.6,0.537797648398906,"false"
"image-keyboard-response",396,413153,"0.0-3.128-1.128","ofca0dfs75s67qc","19.csv","","null","resources/maskTrios/BT1B.jpg","null","",NA,NA,NA,NA,""
"image-keyboard-response",397,414360,"0.0-3.128-2.128","ofca0dfs75s67qc","19.csv","","null","resources/images/fishbone.png","null","",NA,NA,NA,NA,""
"image-keyboard-response",398,414634,"0.0-3.129-0.129","ofca0dfs75s67qc","19.csv","","272.5","resources/trios/L4T1A3.jpg","39","restless",0.5,0.3,0.6,0.983345297123502,"false"
"image-keyboard-response",399,415040,"0.0-3.129-1.129","ofca0dfs75s67qc","19.csv","","null","resources/maskTrios/BBA3.jpg","null","",NA,NA,NA,NA,""
"image-keyboard-response",400,416246,"0.0-3.129-2.129","ofca0dfs75s67qc","19.csv","","null","resources/images/fishbone.png","null","",NA,NA,NA,NA,""
"image-keyboard-response",401,416534,"0.0-3.130-0.130","ofca0dfs75s67qc","19.csv","","285.80000001192093","resources/trios/L4T1A1.jpg","38","restless",0.5,0.3,0.6,0.688751485837508,"false"
"image-keyboard-response",402,416936,"0.0-3.130-1.130","ofca0dfs75s67qc","19.csv","","null","resources/maskTrios/BT1B.jpg","null","",NA,NA,NA,NA,""
"image-keyboard-response",403,418142,"0.0-3.130-2.130","ofca0dfs75s67qc","19.csv","","null","resources/images/fishbone.png","null","",NA,NA,NA,NA,""
"image-keyboard-response",404,418605,"0.0-3.131-0.131","ofca0dfs75s67qc","19.csv","","460.89999997615814","resources/trios/L4T1A3.jpg","38","restless",0.6,0.3,0.6,0.280006015355073,"true"
"image-keyboard-response",405,419010,"0.0-3.131-1.131","ofca0dfs75s67qc","19.csv","","null","resources/maskTrios/BT1B.jpg","null","",NA,NA,NA,NA,""
"image-keyboard-response",406,420217,"0.0-3.131-2.131","ofca0dfs75s67qc","19.csv","","null","resources/images/coin2.png","null","",NA,NA,NA,NA,""
"image-keyboard-response",407,420575,"0.0-3.132-0.132","ofca0dfs75s67qc","19.csv","","356.39999997615814","resources/trios/L2T1A3.jpg","38","restless",0.6,0.3,0.6,0.886070300504228,"false"
"image-keyboard-response",408,420978,"0.0-3.132-1.132","ofca0dfs75s67qc","19.csv","","null","resources/maskTrios/BT1B.jpg","null","",NA,NA,NA,NA,""
"image-keyboard-response",409,422182,"0.0-3.132-2.132","ofca0dfs75s67qc","19.csv","","null","resources/images/fishbone.png","null","",NA,NA,NA,NA,""
"image-keyboard-response",410,422248,"0.0-3.133-0.133","ofca0dfs75s67qc","19.csv","","63.90000003576279","resources/trios/L4T1A1.jpg","37","restless",0.6,0.2,0.6,0.219203436619103,"true"
"image-keyboard-response",411,422652,"0.0-3.133-1.133","ofca0dfs75s67qc","19.csv","","null","resources/maskTrios/L4BB.jpg","null","",NA,NA,NA,NA,""
"image-keyboard-response",412,423857,"0.0-3.133-2.133","ofca0dfs75s67qc","19.csv","","null","resources/images/coin2.png","null","",NA,NA,NA,NA,""
"image-keyboard-response",413,424115,"0.0-3.134-0.134","ofca0dfs75s67qc","19.csv","","256.19999998807907","resources/trios/L2T2A1.jpg","37","restless",0.6,0.2,0.6,0.15652211695451,"true"
"image-keyboard-response",414,424518,"0.0-3.134-1.134","ofca0dfs75s67qc","19.csv","","null","resources/maskTrios/L2BB.jpg","null","",NA,NA,NA,NA,""
"image-keyboard-response",415,425728,"0.0-3.134-2.134","ofca0dfs75s67qc","19.csv","","null","resources/images/coin2.png","null","",NA,NA,NA,NA,""
"image-keyboard-response",416,426142,"0.0-3.135-0.135","ofca0dfs75s67qc","19.csv","","412.69999998807907","resources/trios/L2T2A1.jpg","37","restless",0.6,0.2,0.6,0.990642955889579,"false"
"image-keyboard-response",417,426549,"0.0-3.135-1.135","ofca0dfs75s67qc","19.csv","","null","resources/maskTrios/L2BB.jpg","null","",NA,NA,NA,NA,""
"image-keyboard-response",418,427753,"0.0-3.135-2.135","ofca0dfs75s67qc","19.csv","","null","resources/images/fishbone.png","null","",NA,NA,NA,NA,""
"image-keyboard-response",419,427796,"0.0-3.136-0.136","ofca0dfs75s67qc","19.csv","","41.19999998807907","resources/trios/L4T1A1.jpg","39","restless",0.6,0.2,0.6,0.982665346007654,"false"
"image-keyboard-response",420,428200,"0.0-3.136-1.136","ofca0dfs75s67qc","19.csv","","null","resources/maskTrios/BBA1.jpg","null","",NA,NA,NA,NA,""
"image-keyboard-response",421,429405,"0.0-3.136-2.136","ofca0dfs75s67qc","19.csv","","null","resources/images/fishbone.png","null","",NA,NA,NA,NA,""
"image-keyboard-response",422,429764,"0.0-3.137-0.137","ofca0dfs75s67qc","19.csv","","356.89999997615814","resources/trios/L2T2A1.jpg","38","restless",0.6,0.2,0.6,0.0516383991086433,"true"
"image-keyboard-response",423,430169,"0.0-3.137-1.137","ofca0dfs75s67qc","19.csv","","null","resources/maskTrios/BT2B.jpg","null","",NA,NA,NA,NA,""
"image-keyboard-response",424,431371,"0.0-3.137-2.137","ofca0dfs75s67qc","19.csv","","null","resources/images/coin2.png","null","",NA,NA,NA,NA,""
"image-keyboard-response",425,431685,"0.0-3.138-0.138","ofca0dfs75s67qc","19.csv","","311.60000002384186","resources/trios/L2T1A1.jpg","38","restless",0.6,0.2,0.6,0.395373653048458,"false"
"image-keyboard-response",426,432094,"0.0-3.138-1.138","ofca0dfs75s67qc","19.csv","","null","resources/maskTrios/BT1B.jpg","null","",NA,NA,NA,NA,""
"image-keyboard-response",427,433297,"0.0-3.138-2.138","ofca0dfs75s67qc","19.csv","","null","resources/images/fishbone.png","null","",NA,NA,NA,NA,""
"image-keyboard-response",428,433629,"0.0-3.139-0.139","ofca0dfs75s67qc","19.csv","","330.30000001192093","resources/trios/L4T1A3.jpg","39","restless",0.6,0.2,0.6,0.67476243447485,"false"
"image-keyboard-response",429,434035,"0.0-3.139-1.139","ofca0dfs75s67qc","19.csv","","null","resources/maskTrios/BBA3.jpg","null","",NA,NA,NA,NA,""
"image-keyboard-response",430,435243,"0.0-3.139-2.139","ofca0dfs75s67qc","19.csv","","null","resources/images/fishbone.png","null","",NA,NA,NA,NA,""
"image-keyboard-response",431,435843,"0.0-3.140-0.140","ofca0dfs75s67qc","19.csv","","597.8000000119209","resources/trios/L2T1A3.jpg","39","restless",0.5,0.2,0.7,0.968819679537173,"false"
"image-keyboard-response",432,436247,"0.0-3.140-1.140","ofca0dfs75s67qc","19.csv","","null","resources/maskTrios/BBA3.jpg","null","",NA,NA,NA,NA,""
"image-keyboard-response",433,437451,"0.0-3.140-2.140","ofca0dfs75s67qc","19.csv","","null","resources/images/fishbone.png","null","",NA,NA,NA,NA,""
"image-keyboard-response",434,437789,"0.0-3.141-0.141","ofca0dfs75s67qc","19.csv","","335.89999997615814","resources/trios/L4T1A1.jpg","37","restless",0.5,0.2,0.7,0.451534747776408,"true"
"image-keyboard-response",435,438197,"0.0-3.141-1.141","ofca0dfs75s67qc","19.csv","","null","resources/maskTrios/L4BB.jpg","null","",NA,NA,NA,NA,""
"image-keyboard-response",436,439402,"0.0-3.141-2.141","ofca0dfs75s67qc","19.csv","","null","resources/images/coin2.png","null","",NA,NA,NA,NA,""
"image-keyboard-response",437,439766,"0.0-3.142-0.142","ofca0dfs75s67qc","19.csv","","361.39999997615814","resources/trios/L4T1A1.jpg","37","restless",0.5,0.2,0.7,0.554302517305978,"false"
"image-keyboard-response",438,440173,"0.0-3.142-1.142","ofca0dfs75s67qc","19.csv","","null","resources/maskTrios/L4BB.jpg","null","",NA,NA,NA,NA,""
"image-keyboard-response",439,441377,"0.0-3.142-2.142","ofca0dfs75s67qc","19.csv","","null","resources/images/fishbone.png","null","",NA,NA,NA,NA,""
"image-keyboard-response",440,441678,"0.0-3.143-0.143","ofca0dfs75s67qc","19.csv","","299.5999999642372","resources/trios/L2T1A3.jpg","38","restless",0.5,0.2,0.7,0.968691544917786,"false"
"image-keyboard-response",441,442084,"0.0-3.143-1.143","ofca0dfs75s67qc","19.csv","","null","resources/maskTrios/BT1B.jpg","null","",NA,NA,NA,NA,""
"image-keyboard-response",442,443290,"0.0-3.143-2.143","ofca0dfs75s67qc","19.csv","","null","resources/images/fishbone.png","null","",NA,NA,NA,NA,""
"image-keyboard-response",443,443607,"0.0-3.144-0.144","ofca0dfs75s67qc","19.csv","","315.30000001192093","resources/trios/L2T2A1.jpg","38","restless",0.5,0.2,0.7,0.422821312143931,"false"
"image-keyboard-response",444,444016,"0.0-3.144-1.144","ofca0dfs75s67qc","19.csv","","null","resources/maskTrios/BT2B.jpg","null","",NA,NA,NA,NA,""
"image-keyboard-response",445,445222,"0.0-3.144-2.144","ofca0dfs75s67qc","19.csv","","null","resources/images/fishbone.png","null","",NA,NA,NA,NA,""
"image-keyboard-response",446,445508,"0.0-3.145-0.145","ofca0dfs75s67qc","19.csv","","281.89999997615814","resources/trios/L4T2A1.jpg","38","restless",0.5,0.2,0.7,0.988713588124752,"false"
"image-keyboard-response",447,445914,"0.0-3.145-1.145","ofca0dfs75s67qc","19.csv","","null","resources/maskTrios/BT2B.jpg","null","",NA,NA,NA,NA,""
"image-keyboard-response",448,447117,"0.0-3.145-2.145","ofca0dfs75s67qc","19.csv","","null","resources/images/fishbone.png","null","",NA,NA,NA,NA,""
"image-keyboard-response",449,447416,"0.0-3.146-0.146","ofca0dfs75s67qc","19.csv","","298","resources/trios/L4T2A1.jpg","38","restless",0.4,0.2,0.7,0.779074320765198,"false"
"image-keyboard-response",450,447822,"0.0-3.146-1.146","ofca0dfs75s67qc","19.csv","","null","resources/maskTrios/BT2B.jpg","null","",NA,NA,NA,NA,""
"image-keyboard-response",451,449028,"0.0-3.146-2.146","ofca0dfs75s67qc","19.csv","","null","resources/images/fishbone.png","null","",NA,NA,NA,NA,""
"image-keyboard-response",452,449517,"0.0-3.147-0.147","ofca0dfs75s67qc","19.csv","","486.7000000476837","resources/trios/L4T2A3.jpg","39","restless",0.4,0.2,0.8,0.924618987678724,"false"
"image-keyboard-response",453,449923,"0.0-3.147-1.147","ofca0dfs75s67qc","19.csv","","null","resources/maskTrios/BBA3.jpg","null","",NA,NA,NA,NA,""
"image-keyboard-response",454,451127,"0.0-3.147-2.147","ofca0dfs75s67qc","19.csv","","null","resources/images/fishbone.png","null","",NA,NA,NA,NA,""
"image-keyboard-response",455,451713,"0.0-3.148-0.148","ofca0dfs75s67qc","19.csv","","583.8000000119209","resources/trios/L4T1A1.jpg","38","restless",0.4,0.3,0.7,0.355788726804076,"false"
"image-keyboard-response",456,452116,"0.0-3.148-1.148","ofca0dfs75s67qc","19.csv","","null","resources/maskTrios/BT1B.jpg","null","",NA,NA,NA,NA,""
"image-keyboard-response",457,453321,"0.0-3.148-2.148","ofca0dfs75s67qc","19.csv","","null","resources/images/fishbone.png","null","",NA,NA,NA,NA,""
"image-keyboard-response",458,453783,"0.0-3.149-0.149","ofca0dfs75s67qc","19.csv","","459.89999997615814","resources/trios/L2T1A1.jpg","37","restless",0.4,0.3,0.7,0.218772353156055,"true"
"image-keyboard-response",459,454189,"0.0-3.149-1.149","ofca0dfs75s67qc","19.csv","","null","resources/maskTrios/L2BB.jpg","null","",NA,NA,NA,NA,""
"image-keyboard-response",460,455398,"0.0-3.149-2.149","ofca0dfs75s67qc","19.csv","","null","resources/images/coin2.png","null","",NA,NA,NA,NA,""
"image-keyboard-response",461,455793,"0.0-3.150-0.150","ofca0dfs75s67qc","19.csv","","392.30000001192093","resources/trios/L2T1A3.jpg","37","restless",0.4,0.3,0.7,0.790552158713414,"false"
"image-keyboard-response",462,456199,"0.0-3.150-1.150","ofca0dfs75s67qc","19.csv","","null","resources/maskTrios/L2BB.jpg","null","",NA,NA,NA,NA,""
"image-keyboard-response",463,457403,"0.0-3.150-2.150","ofca0dfs75s67qc","19.csv","","null","resources/images/fishbone.png","null","",NA,NA,NA,NA,""
"image-keyboard-response",464,457703,"0.0-3.151-0.151","ofca0dfs75s67qc","19.csv","","297.69999998807907","resources/trios/L2T2A3.jpg","39","restless",0.4,0.3,0.7,0.0999606049614488,"true"
"image-keyboard-response",465,458110,"0.0-3.151-1.151","ofca0dfs75s67qc","19.csv","","null","resources/maskTrios/BBA3.jpg","null","",NA,NA,NA,NA,""
"image-keyboard-response",466,459318,"0.0-3.151-2.151","ofca0dfs75s67qc","19.csv","","null","resources/images/coin2.png","null","",NA,NA,NA,NA,""
"image-keyboard-response",467,459594,"0.0-3.152-0.152","ofca0dfs75s67qc","19.csv","","273.5","resources/trios/L4T2A3.jpg","39","restless",0.4,0.3,0.7,0.713962272563715,"false"
"image-keyboard-response",468,459997,"0.0-3.152-1.152","ofca0dfs75s67qc","19.csv","","null","resources/maskTrios/BBA3.jpg","null","",NA,NA,NA,NA,""
"image-keyboard-response",469,461204,"0.0-3.152-2.152","ofca0dfs75s67qc","19.csv","","null","resources/images/fishbone.png","null","",NA,NA,NA,NA,""
"image-keyboard-response",470,461747,"0.0-3.153-0.153","ofca0dfs75s67qc","19.csv","","541.6999999880791","resources/trios/L4T2A1.jpg","38","restless",0.4,0.3,0.7,0.966540510361409,"false"
"image-keyboard-response",471,462149,"0.0-3.153-1.153","ofca0dfs75s67qc","19.csv","","null","resources/maskTrios/BT2B.jpg","null","",NA,NA,NA,NA,""
"image-keyboard-response",472,463352,"0.0-3.153-2.153","ofca0dfs75s67qc","19.csv","","null","resources/images/fishbone.png","null","",NA,NA,NA,NA,""
"image-keyboard-response",473,463725,"0.0-3.154-0.154","ofca0dfs75s67qc","19.csv","","370.5999999642372","resources/trios/L4T2A1.jpg","37","restless",0.4,0.3,0.7,0.914952061849529,"false"
"image-keyboard-response",474,464132,"0.0-3.154-1.154","ofca0dfs75s67qc","19.csv","","null","resources/maskTrios/L4BB.jpg","null","",NA,NA,NA,NA,""
"image-keyboard-response",475,465339,"0.0-3.154-2.154","ofca0dfs75s67qc","19.csv","","null","resources/images/fishbone.png","null","",NA,NA,NA,NA,""
"image-keyboard-response",476,465699,"0.0-3.155-0.155","ofca0dfs75s67qc","19.csv","","357.89999997615814","resources/trios/L2T2A1.jpg","38","restless",0.4,0.4,0.7,0.655298935164249,"false"
"image-keyboard-response",477,466107,"0.0-3.155-1.155","ofca0dfs75s67qc","19.csv","","null","resources/maskTrios/BT2B.jpg","null","",NA,NA,NA,NA,""
"image-keyboard-response",478,467311,"0.0-3.155-2.155","ofca0dfs75s67qc","19.csv","","null","resources/images/fishbone.png","null","",NA,NA,NA,NA,""
"image-keyboard-response",479,467801,"0.0-3.156-0.156","ofca0dfs75s67qc","19.csv","","487.80000001192093","resources/trios/L2T2A1.jpg","38","restless",0.5,0.4,0.7,0.289835725847097,"true"
"image-keyboard-response",480,468205,"0.0-3.156-1.156","ofca0dfs75s67qc","19.csv","","null","resources/maskTrios/BT2B.jpg","null","",NA,NA,NA,NA,""
"image-keyboard-response",481,469412,"0.0-3.156-2.156","ofca0dfs75s67qc","19.csv","","null","resources/images/coin2.png","null","",NA,NA,NA,NA,""
"image-keyboard-response",482,469869,"0.0-3.157-0.157","ofca0dfs75s67qc","19.csv","","454.60000002384186","resources/trios/L4T1A1.jpg","38","restless",0.5,0.4,0.7,0.336647679743946,"true"
"image-keyboard-response",483,470273,"0.0-3.157-1.157","ofca0dfs75s67qc","19.csv","","null","resources/maskTrios/BT1B.jpg","null","",NA,NA,NA,NA,""
"image-keyboard-response",484,471480,"0.0-3.157-2.157","ofca0dfs75s67qc","19.csv","","null","resources/images/coin2.png","null","",NA,NA,NA,NA,""
"image-keyboard-response",485,472290,"0.0-3.158-0.158","ofca0dfs75s67qc","19.csv","","807.3999999761581","resources/trios/L4T2A3.jpg","37","restless",0.4,0.4,0.7,0.290583134104565,"true"
"image-keyboard-response",486,472698,"0.0-3.158-1.158","ofca0dfs75s67qc","19.csv","","null","resources/maskTrios/L4BB.jpg","null","",NA,NA,NA,NA,""
"image-keyboard-response",487,473902,"0.0-3.158-2.158","ofca0dfs75s67qc","19.csv","","null","resources/images/coin2.png","null","",NA,NA,NA,NA,""
"image-keyboard-response",488,474253,"0.0-3.159-0.159","ofca0dfs75s67qc","19.csv","","348.19999998807907","resources/trios/L4T2A1.jpg","37","restless",0.4,0.5,0.7,0.676385262141983,"false"
"image-keyboard-response",489,474660,"0.0-3.159-1.159","ofca0dfs75s67qc","19.csv","","null","resources/maskTrios/L4BB.jpg","null","",NA,NA,NA,NA,""
"image-keyboard-response",490,475865,"0.0-3.159-2.159","ofca0dfs75s67qc","19.csv","","null","resources/images/fishbone.png","null","",NA,NA,NA,NA,""
"image-keyboard-response",491,476201,"0.0-3.160-0.160","ofca0dfs75s67qc","19.csv","","334.0999999642372","resources/trios/L2T1A1.jpg","39","restless",0.4,0.5,0.7,0.589323253411029,"true"
"image-keyboard-response",492,476609,"0.0-3.160-1.160","ofca0dfs75s67qc","19.csv","","null","resources/maskTrios/BBA1.jpg","null","",NA,NA,NA,NA,""
"image-keyboard-response",493,477817,"0.0-3.160-2.160","ofca0dfs75s67qc","19.csv","","null","resources/images/coin2.png","null","",NA,NA,NA,NA,""
"image-keyboard-response",494,478227,"0.0-3.161-0.161","ofca0dfs75s67qc","19.csv","","407.60000002384186","resources/trios/L2T1A1.jpg","39","restless",0.4,0.6,0.7,0.802894559487924,"false"
"image-keyboard-response",495,478631,"0.0-3.161-1.161","ofca0dfs75s67qc","19.csv","","null","resources/maskTrios/BBA1.jpg","null","",NA,NA,NA,NA,""
"image-keyboard-response",496,479837,"0.0-3.161-2.161","ofca0dfs75s67qc","19.csv","","null","resources/images/fishbone.png","null","",NA,NA,NA,NA,""
"image-keyboard-response",497,479848,"0.0-3.162-0.162","ofca0dfs75s67qc","19.csv","","8.600000023841858","resources/trios/L2T2A3.jpg","38","restless",0.4,0.6,0.7,0.963409267781887,"false"
"image-keyboard-response",498,480251,"0.0-3.162-1.162","ofca0dfs75s67qc","19.csv","","null","resources/maskTrios/BT2B.jpg","null","",NA,NA,NA,NA,""
"image-keyboard-response",499,481455,"0.0-3.162-2.162","ofca0dfs75s67qc","19.csv","","null","resources/images/fishbone.png","null","",NA,NA,NA,NA,""
"image-keyboard-response",500,481750,"0.0-3.163-0.163","ofca0dfs75s67qc","19.csv","","294.10000002384186","resources/trios/L2T1A3.jpg","37","restless",0.4,0.6,0.7,0.268461883025306,"true"
"image-keyboard-response",501,482154,"0.0-3.163-1.163","ofca0dfs75s67qc","19.csv","","null","resources/maskTrios/L2BB.jpg","null","",NA,NA,NA,NA,""
"image-keyboard-response",502,483358,"0.0-3.163-2.163","ofca0dfs75s67qc","19.csv","","null","resources/images/coin2.png","null","",NA,NA,NA,NA,""
"image-keyboard-response",503,483688,"0.0-3.164-0.164","ofca0dfs75s67qc","19.csv","","330","resources/trios/L2T2A3.jpg","37","restless",0.4,0.6,0.7,0.950938844445519,"false"
"image-keyboard-response",504,484095,"0.0-3.164-1.164","ofca0dfs75s67qc","19.csv","","null","resources/maskTrios/L2BB.jpg","null","",NA,NA,NA,NA,""
"image-keyboard-response",505,485298,"0.0-3.164-2.164","ofca0dfs75s67qc","19.csv","","null","resources/images/fishbone.png","null","",NA,NA,NA,NA,""
"image-keyboard-response",506,485543,"0.0-3.165-0.165","ofca0dfs75s67qc","19.csv","","242.80000001192093","resources/trios/L4T1A1.jpg","38","restless",0.4,0.6,0.7,0.694436455754686,"false"
"image-keyboard-response",507,485948,"0.0-3.165-1.165","ofca0dfs75s67qc","19.csv","","null","resources/maskTrios/BT1B.jpg","null","",NA,NA,NA,NA,""
"image-keyboard-response",508,487152,"0.0-3.165-2.165","ofca0dfs75s67qc","19.csv","","null","resources/images/fishbone.png","null","",NA,NA,NA,NA,""
"image-keyboard-response",509,488512,"0.0-3.166-0.166","ofca0dfs75s67qc","19.csv","","1357.300000011921","resources/trios/L2T1A3.jpg","37","restless",0.4,0.6,0.7,0.0600442273422968,"true"
"image-keyboard-response",510,488916,"0.0-3.166-1.166","ofca0dfs75s67qc","19.csv","","null","resources/maskTrios/L2BB.jpg","null","",NA,NA,NA,NA,""
"image-keyboard-response",511,490126,"0.0-3.166-2.166","ofca0dfs75s67qc","19.csv","","null","resources/images/coin2.png","null","",NA,NA,NA,NA,""
"image-keyboard-response",512,490541,"0.0-3.167-0.167","ofca0dfs75s67qc","19.csv","","413.5","resources/trios/L2T1A3.jpg","37","restless",0.4,0.6,0.7,0.319583012309021,"true"
"image-keyboard-response",513,490948,"0.0-3.167-1.167","ofca0dfs75s67qc","19.csv","","null","resources/maskTrios/L2BB.jpg","null","",NA,NA,NA,NA,""
"image-keyboard-response",514,492155,"0.0-3.167-2.167","ofca0dfs75s67qc","19.csv","","null","resources/images/coin2.png","null","",NA,NA,NA,NA,""
"image-keyboard-response",515,493587,"0.0-3.168-0.168","ofca0dfs75s67qc","19.csv","","1429.8999999761581","resources/trios/L4T2A1.jpg","38","restless",0.5,0.5,0.7,0.105785417092788,"true"
"image-keyboard-response",516,493992,"0.0-3.168-1.168","ofca0dfs75s67qc","19.csv","","null","resources/maskTrios/BT2B.jpg","null","",NA,NA,NA,NA,""
"image-keyboard-response",517,495197,"0.0-3.168-2.168","ofca0dfs75s67qc","19.csv","","null","resources/images/coin2.png","null","",NA,NA,NA,NA,""
"image-keyboard-response",518,496081,"0.0-3.169-0.169","ofca0dfs75s67qc","19.csv","","881.6000000238419","resources/trios/L4T2A1.jpg","38","restless",0.5,0.5,0.7,0.774873729229891,"false"
"image-keyboard-response",519,496484,"0.0-3.169-1.169","ofca0dfs75s67qc","19.csv","","null","resources/maskTrios/BT2B.jpg","null","",NA,NA,NA,NA,""
"image-keyboard-response",520,497693,"0.0-3.169-2.169","ofca0dfs75s67qc","19.csv","","null","resources/images/fishbone.png","null","",NA,NA,NA,NA,""
"image-keyboard-response",521,498999,"0.0-3.170-0.170","ofca0dfs75s67qc","19.csv","","1304","resources/trios/L4T1A3.jpg","37","restless",0.5,0.5,0.8,0.247231094749259,"true"
"image-keyboard-response",522,499401,"0.0-3.170-1.170","ofca0dfs75s67qc","19.csv","","null","resources/maskTrios/L4BB.jpg","null","",NA,NA,NA,NA,""
"image-keyboard-response",523,500608,"0.0-3.170-2.170","ofca0dfs75s67qc","19.csv","","null","resources/images/coin2.png","null","",NA,NA,NA,NA,""
"image-keyboard-response",524,501148,"0.0-3.171-0.171","ofca0dfs75s67qc","19.csv","","537","resources/trios/L4T1A3.jpg","37","restless",0.5,0.5,0.8,0.51411591928216,"false"
"image-keyboard-response",525,501554,"0.0-3.171-1.171","ofca0dfs75s67qc","19.csv","","null","resources/maskTrios/L4BB.jpg","null","",NA,NA,NA,NA,""
"image-keyboard-response",526,502761,"0.0-3.171-2.171","ofca0dfs75s67qc","19.csv","","null","resources/images/fishbone.png","null","",NA,NA,NA,NA,""
"image-keyboard-response",527,504969,"0.0-3.172-0.172","ofca0dfs75s67qc","19.csv","","2205.699999988079","resources/trios/L4T2A1.jpg","39","restless",0.5,0.5,0.8,0.144958808012656,"true"
"image-keyboard-response",528,505376,"0.0-3.172-1.172","ofca0dfs75s67qc","19.csv","","null","resources/maskTrios/BBA1.jpg","null","",NA,NA,NA,NA,""
"image-keyboard-response",529,506583,"0.0-3.172-2.172","ofca0dfs75s67qc","19.csv","","null","resources/images/coin2.png","null","",NA,NA,NA,NA,""
"image-keyboard-response",530,508928,"0.0-3.173-0.173","ofca0dfs75s67qc","19.csv","","2343","resources/trios/L4T2A3.jpg","37","restless",0.5,0.5,0.8,0.590133622489772,"false"
"image-keyboard-response",531,509334,"0.0-3.173-1.173","ofca0dfs75s67qc","19.csv","","null","resources/maskTrios/L4BB.jpg","null","",NA,NA,NA,NA,""
"image-keyboard-response",532,510539,"0.0-3.173-2.173","ofca0dfs75s67qc","19.csv","","null","resources/images/fishbone.png","null","",NA,NA,NA,NA,""
"image-keyboard-response",533,511988,"0.0-3.174-0.174","ofca0dfs75s67qc","19.csv","","1447.5","resources/trios/L4T2A3.jpg","38","restless",0.5,0.5,0.8,0.081335851242744,"true"
"image-keyboard-response",534,512397,"0.0-3.174-1.174","ofca0dfs75s67qc","19.csv","","null","resources/maskTrios/BT2B.jpg","null","",NA,NA,NA,NA,""
"image-keyboard-response",535,513604,"0.0-3.174-2.174","ofca0dfs75s67qc","19.csv","","null","resources/images/coin2.png","null","",NA,NA,NA,NA,""
"image-keyboard-response",536,515046,"0.0-3.175-0.175","ofca0dfs75s67qc","19.csv","","1440","resources/trios/L4T1A1.jpg","39","restless",0.5,0.5,0.8,0.476188793023313,"true"
"image-keyboard-response",537,515453,"0.0-3.175-1.175","ofca0dfs75s67qc","19.csv","","null","resources/maskTrios/BBA1.jpg","null","",NA,NA,NA,NA,""
"image-keyboard-response",538,516661,"0.0-3.175-2.175","ofca0dfs75s67qc","19.csv","","null","resources/images/coin2.png","null","",NA,NA,NA,NA,""
"image-keyboard-response",539,518679,"0.0-3.176-0.176","ofca0dfs75s67qc","19.csv","","2016.3999999761581","resources/trios/L4T2A1.jpg","37","restless",0.5,0.5,0.8,0.586729974994238,"false"
"image-keyboard-response",540,519088,"0.0-3.176-1.176","ofca0dfs75s67qc","19.csv","","null","resources/maskTrios/L4BB.jpg","null","",NA,NA,NA,NA,""
"image-keyboard-response",541,520297,"0.0-3.176-2.176","ofca0dfs75s67qc","19.csv","","null","resources/images/fishbone.png","null","",NA,NA,NA,NA,""
"image-keyboard-response",542,522514,"0.0-3.177-0.177","ofca0dfs75s67qc","19.csv","","2215.199999988079","resources/trios/L2T2A1.jpg","37","restless",0.5,0.5,0.8,0.521307781706924,"false"
"image-keyboard-response",543,522921,"0.0-3.177-1.177","ofca0dfs75s67qc","19.csv","","null","resources/maskTrios/L2BB.jpg","null","",NA,NA,NA,NA,""
"image-keyboard-response",544,524125,"0.0-3.177-2.177","ofca0dfs75s67qc","19.csv","","null","resources/images/fishbone.png","null","",NA,NA,NA,NA,""
"image-keyboard-response",545,524987,"0.0-3.178-0.178","ofca0dfs75s67qc","19.csv","","860.4000000357628","resources/trios/L4T1A1.jpg","39","restless",0.5,0.5,0.8,0.333626595872571,"true"
"image-keyboard-response",546,525392,"0.0-3.178-1.178","ofca0dfs75s67qc","19.csv","","null","resources/maskTrios/BBA1.jpg","null","",NA,NA,NA,NA,""
"image-keyboard-response",547,526599,"0.0-3.178-2.178","ofca0dfs75s67qc","19.csv","","null","resources/images/coin2.png","null","",NA,NA,NA,NA,""
"image-keyboard-response",548,527840,"0.0-3.179-0.179","ofca0dfs75s67qc","19.csv","","1239.2000000476837","resources/trios/L2T2A3.jpg","38","restless",0.5,0.5,0.8,0.132238148220575,"true"
"image-keyboard-response",549,528245,"0.0-3.179-1.179","ofca0dfs75s67qc","19.csv","","null","resources/maskTrios/BT2B.jpg","null","",NA,NA,NA,NA,""
"image-keyboard-response",550,529448,"0.0-3.179-2.179","ofca0dfs75s67qc","19.csv","","null","resources/images/coin2.png","null","",NA,NA,NA,NA,""
"image-keyboard-response",551,530331,"0.0-3.180-0.180","ofca0dfs75s67qc","19.csv","","881.1000000238419","resources/trios/L4T1A3.jpg","37","restless",0.5,0.5,0.8,0.728550389239716,"false"
"image-keyboard-response",552,530737,"0.0-3.180-1.180","ofca0dfs75s67qc","19.csv","","null","resources/maskTrios/L4BB.jpg","null","",NA,NA,NA,NA,""
"image-keyboard-response",553,531944,"0.0-3.180-2.180","ofca0dfs75s67qc","19.csv","","null","resources/images/fishbone.png","null","",NA,NA,NA,NA,""
"image-keyboard-response",554,532665,"0.0-3.181-0.181","ofca0dfs75s67qc","19.csv","","719.1000000238419","resources/trios/L2T2A1.jpg","38","restless",0.5,0.5,0.8,0.540146536719255,"false"
"image-keyboard-response",555,533067,"0.0-3.181-1.181","ofca0dfs75s67qc","19.csv","","null","resources/maskTrios/BT2B.jpg","null","",NA,NA,NA,NA,""
"image-keyboard-response",556,534273,"0.0-3.181-2.181","ofca0dfs75s67qc","19.csv","","null","resources/images/fishbone.png","null","",NA,NA,NA,NA,""
"image-keyboard-response",557,535179,"0.0-3.182-0.182","ofca0dfs75s67qc","19.csv","","903.6999999880791","resources/trios/L4T1A3.jpg","37","restless",0.5,0.5,0.8,0.702522927701915,"false"
"image-keyboard-response",558,535581,"0.0-3.182-1.182","ofca0dfs75s67qc","19.csv","","null","resources/maskTrios/L4BB.jpg","null","",NA,NA,NA,NA,""
"image-keyboard-response",559,536788,"0.0-3.182-2.182","ofca0dfs75s67qc","19.csv","","null","resources/images/fishbone.png","null","",NA,NA,NA,NA,""
"image-keyboard-response",560,537507,"0.0-3.183-0.183","ofca0dfs75s67qc","19.csv","","716.5","resources/trios/L2T2A1.jpg","38","restless",0.5,0.5,0.8,0.674977740374384,"false"
"image-keyboard-response",561,537910,"0.0-3.183-1.183","ofca0dfs75s67qc","19.csv","","null","resources/maskTrios/BT2B.jpg","null","",NA,NA,NA,NA,""
"image-keyboard-response",562,539117,"0.0-3.183-2.183","ofca0dfs75s67qc","19.csv","","null","resources/images/fishbone.png","null","",NA,NA,NA,NA,""
"image-keyboard-response",563,540505,"0.0-3.184-0.184","ofca0dfs75s67qc","19.csv","","1385.8999999761581","resources/trios/L2T1A3.jpg","37","restless",0.5,0.4,0.8,0.420645609056582,"true"
"image-keyboard-response",564,540911,"0.0-3.184-1.184","ofca0dfs75s67qc","19.csv","","null","resources/maskTrios/L2BB.jpg","null","",NA,NA,NA,NA,""
"image-keyboard-response",565,542121,"0.0-3.184-2.184","ofca0dfs75s67qc","19.csv","","null","resources/images/coin2.png","null","",NA,NA,NA,NA,""
"image-keyboard-response",566,543423,"0.0-3.185-0.185","ofca0dfs75s67qc","19.csv","","1299.7000000476837","resources/trios/L2T1A1.jpg","39","restless",0.5,0.4,0.8,0.0878083222976507,"true"
"image-keyboard-response",567,543824,"0.0-3.185-1.185","ofca0dfs75s67qc","19.csv","","null","resources/maskTrios/BBA1.jpg","null","",NA,NA,NA,NA,""
"image-keyboard-response",568,545026,"0.0-3.185-2.185","ofca0dfs75s67qc","19.csv","","null","resources/images/coin2.png","null","",NA,NA,NA,NA,""
"image-keyboard-response",569,546563,"0.0-3.186-0.186","ofca0dfs75s67qc","19.csv","","1534.800000011921","resources/trios/L4T2A1.jpg","37","restless",0.5,0.4,0.8,0.936839559800543,"false"
"image-keyboard-response",570,546972,"0.0-3.186-1.186","ofca0dfs75s67qc","19.csv","","null","resources/maskTrios/L4BB.jpg","null","",NA,NA,NA,NA,""
"image-keyboard-response",571,548178,"0.0-3.186-2.186","ofca0dfs75s67qc","19.csv","","null","resources/images/fishbone.png","null","",NA,NA,NA,NA,""
"image-keyboard-response",572,549283,"0.0-3.187-0.187","ofca0dfs75s67qc","19.csv","","1102.699999988079","resources/trios/L4T1A1.jpg","39","restless",0.5,0.4,0.8,0.728996890635179,"true"
"image-keyboard-response",573,549690,"0.0-3.187-1.187","ofca0dfs75s67qc","19.csv","","null","resources/maskTrios/BBA1.jpg","null","",NA,NA,NA,NA,""
"image-keyboard-response",574,550892,"0.0-3.187-2.187","ofca0dfs75s67qc","19.csv","","null","resources/images/coin2.png","null","",NA,NA,NA,NA,""
"image-keyboard-response",575,552651,"0.0-3.188-0.188","ofca0dfs75s67qc","19.csv","","1757","resources/trios/L2T1A3.jpg","38","restless",0.5,0.5,0.8,0.210282845305413,"true"
"image-keyboard-response",576,553055,"0.0-3.188-1.188","ofca0dfs75s67qc","19.csv","","null","resources/maskTrios/BT1B.jpg","null","",NA,NA,NA,NA,""
"image-keyboard-response",577,554259,"0.0-3.188-2.188","ofca0dfs75s67qc","19.csv","","null","resources/images/coin2.png","null","",NA,NA,NA,NA,""
"image-keyboard-response",578,577836,"0.0-3.189-0.189","ofca0dfs75s67qc","19.csv","","23575","resources/trios/L4T1A1.jpg","37","restless",0.5,0.5,0.8,0.0617990916835651,"true"
"image-keyboard-response",579,578240,"0.0-3.189-1.189","ofca0dfs75s67qc","19.csv","","null","resources/maskTrios/L4BB.jpg","null","",NA,NA,NA,NA,""
"image-keyboard-response",580,579446,"0.0-3.189-2.189","ofca0dfs75s67qc","19.csv","","null","resources/images/coin2.png","null","",NA,NA,NA,NA,""
"image-keyboard-response",581,580030,"0.0-3.190-0.190","ofca0dfs75s67qc","19.csv","","580.9000000357628","resources/trios/L4T1A1.jpg","37","restless",0.5,0.5,0.8,0.0442072717021442,"true"
"image-keyboard-response",582,580432,"0.0-3.190-1.190","ofca0dfs75s67qc","19.csv","","null","resources/maskTrios/L4BB.jpg","null","",NA,NA,NA,NA,""
"image-keyboard-response",583,581636,"0.0-3.190-2.190","ofca0dfs75s67qc","19.csv","","null","resources/images/coin2.png","null","",NA,NA,NA,NA,""
"image-keyboard-response",584,582691,"0.0-3.191-0.191","ofca0dfs75s67qc","19.csv","","1052.5","resources/trios/L2T2A3.jpg","38","restless",0.5,0.5,0.8,0.847807203549466,"false"
"image-keyboard-response",585,583097,"0.0-3.191-1.191","ofca0dfs75s67qc","19.csv","","null","resources/maskTrios/BT2B.jpg","null","",NA,NA,NA,NA,""
"image-keyboard-response",586,584303,"0.0-3.191-2.191","ofca0dfs75s67qc","19.csv","","null","resources/images/fishbone.png","null","",NA,NA,NA,NA,""
"image-keyboard-response",587,584672,"0.0-3.192-0.192","ofca0dfs75s67qc","19.csv","","367","resources/trios/L4T1A3.jpg","37","restless",0.5,0.4,0.8,0.180726722468964,"true"
"image-keyboard-response",588,585075,"0.0-3.192-1.192","ofca0dfs75s67qc","19.csv","","null","resources/maskTrios/L4BB.jpg","null","",NA,NA,NA,NA,""
"image-keyboard-response",589,586281,"0.0-3.192-2.192","ofca0dfs75s67qc","19.csv","","null","resources/images/coin2.png","null","",NA,NA,NA,NA,""
"image-keyboard-response",590,587214,"0.0-3.193-0.193","ofca0dfs75s67qc","19.csv","","930.9000000357628","resources/trios/L2T1A1.jpg","37","restless",0.5,0.4,0.7,0.250717464814476,"true"
"image-keyboard-response",591,587620,"0.0-3.193-1.193","ofca0dfs75s67qc","19.csv","","null","resources/maskTrios/L2BB.jpg","null","",NA,NA,NA,NA,""
"image-keyboard-response",592,588823,"0.0-3.193-2.193","ofca0dfs75s67qc","19.csv","","null","resources/images/coin2.png","null","",NA,NA,NA,NA,""
"image-keyboard-response",593,589527,"0.0-3.194-0.194","ofca0dfs75s67qc","19.csv","","648.5","resources/trios/L4T1A1.jpg","37","restless",0.5,0.4,0.7,0.0536924829066159,"true"
"image-keyboard-response",594,589929,"0.0-3.194-1.194","ofca0dfs75s67qc","19.csv","","null","resources/maskTrios/L4BB.jpg","null","",NA,NA,NA,NA,""
"image-keyboard-response",595,591133,"0.0-3.194-2.194","ofca0dfs75s67qc","19.csv","","null","resources/images/coin2.png","null","",NA,NA,NA,NA,""
"image-keyboard-response",596,591581,"0.0-3.195-0.195","ofca0dfs75s67qc","19.csv","","446.9000000357628","resources/trios/L2T1A1.jpg","37","restless",0.5,0.4,0.7,0.831130286936351,"false"
"image-keyboard-response",597,591984,"0.0-3.195-1.195","ofca0dfs75s67qc","19.csv","","null","resources/maskTrios/L2BB.jpg","null","",NA,NA,NA,NA,""
"image-keyboard-response",598,593189,"0.0-3.195-2.195","ofca0dfs75s67qc","19.csv","","null","resources/images/fishbone.png","null","",NA,NA,NA,NA,""
"image-keyboard-response",599,593542,"0.0-3.196-0.196","ofca0dfs75s67qc","19.csv","","351.4000000357628","resources/trios/L2T2A1.jpg","38","restless",0.5,0.4,0.7,0.39119340058639,"true"
"image-keyboard-response",600,593945,"0.0-3.196-1.196","ofca0dfs75s67qc","19.csv","","null","resources/maskTrios/BT2B.jpg","null","",NA,NA,NA,NA,""
"image-keyboard-response",601,595150,"0.0-3.196-2.196","ofca0dfs75s67qc","19.csv","","null","resources/images/coin2.png","null","",NA,NA,NA,NA,""
"image-keyboard-response",602,595444,"0.0-3.197-0.197","ofca0dfs75s67qc","19.csv","","291.89999997615814","resources/trios/L2T1A3.jpg","38","restless",0.5,0.4,0.7,0.820788198986165,"false"
"image-keyboard-response",603,595851,"0.0-3.197-1.197","ofca0dfs75s67qc","19.csv","","null","resources/maskTrios/BT1B.jpg","null","",NA,NA,NA,NA,""
"image-keyboard-response",604,597058,"0.0-3.197-2.197","ofca0dfs75s67qc","19.csv","","null","resources/images/fishbone.png","null","",NA,NA,NA,NA,""
"image-keyboard-response",605,597389,"0.0-3.198-0.198","ofca0dfs75s67qc","19.csv","","329.30000001192093","resources/trios/L4T2A1.jpg","39","restless",0.5,0.4,0.7,0.0808408130228107,"true"
"image-keyboard-response",606,597794,"0.0-3.198-1.198","ofca0dfs75s67qc","19.csv","","null","resources/maskTrios/BBA1.jpg","null","",NA,NA,NA,NA,""
"image-keyboard-response",607,598997,"0.0-3.198-2.198","ofca0dfs75s67qc","19.csv","","null","resources/images/coin2.png","null","",NA,NA,NA,NA,""
"image-keyboard-response",608,599779,"0.0-3.199-0.199","ofca0dfs75s67qc","19.csv","","779.3000000119209","resources/trios/L4T2A3.jpg","37","restless",0.5,0.4,0.6,0.0180571145933959,"true"
"image-keyboard-response",609,600183,"0.0-3.199-1.199","ofca0dfs75s67qc","19.csv","","null","resources/maskTrios/L4BB.jpg","null","",NA,NA,NA,NA,""
"image-keyboard-response",610,601389,"0.0-3.199-2.199","ofca0dfs75s67qc","19.csv","","null","resources/images/coin2.png","null","",NA,NA,NA,NA,""
"image-keyboard-response",611,602404,"0.0-3.200-0.200","ofca0dfs75s67qc","19.csv","","1011.7999999523163","resources/trios/L4T1A1.jpg","39","restless",0.5,0.4,0.6,0.17661479558325,"true"
"image-keyboard-response",612,602810,"0.0-3.200-1.200","ofca0dfs75s67qc","19.csv","","null","resources/maskTrios/BBA1.jpg","null","",NA,NA,NA,NA,""
"image-keyboard-response",613,604017,"0.0-3.200-2.200","ofca0dfs75s67qc","19.csv","","null","resources/images/coin2.png","null","",NA,NA,NA,NA,""
"image-keyboard-response",614,604601,"0.0-3.201-0.201","ofca0dfs75s67qc","19.csv","","582.0999999642372","resources/trios/L2T2A1.jpg","38","restless",0.5,0.4,0.6,0.407131901254125,"false"
"image-keyboard-response",615,605007,"0.0-3.201-1.201","ofca0dfs75s67qc","19.csv","","null","resources/maskTrios/BT2B.jpg","null","",NA,NA,NA,NA,""
"image-keyboard-response",616,606213,"0.0-3.201-2.201","ofca0dfs75s67qc","19.csv","","null","resources/images/fishbone.png","null","",NA,NA,NA,NA,""
"image-keyboard-response",617,606573,"0.0-3.202-0.202","ofca0dfs75s67qc","19.csv","","357.69999998807907","resources/trios/L2T2A3.jpg","39","restless",0.5,0.4,0.5,0.691148678486137,"false"
"image-keyboard-response",618,606975,"0.0-3.202-1.202","ofca0dfs75s67qc","19.csv","","null","resources/maskTrios/BBA3.jpg","null","",NA,NA,NA,NA,""
"image-keyboard-response",619,608179,"0.0-3.202-2.202","ofca0dfs75s67qc","19.csv","","null","resources/images/fishbone.png","null","",NA,NA,NA,NA,""
"image-keyboard-response",620,608534,"0.0-3.203-0.203","ofca0dfs75s67qc","19.csv","","352.89999997615814","resources/trios/L4T1A3.jpg","37","restless",0.5,0.4,0.5,0.183902127210601,"true"
"image-keyboard-response",621,608938,"0.0-3.203-1.203","ofca0dfs75s67qc","19.csv","","null","resources/maskTrios/L4BB.jpg","null","",NA,NA,NA,NA,""
"image-keyboard-response",622,610145,"0.0-3.203-2.203","ofca0dfs75s67qc","19.csv","","null","resources/images/coin2.png","null","",NA,NA,NA,NA,""
"image-keyboard-response",623,611626,"0.0-3.204-0.204","ofca0dfs75s67qc","19.csv","","1478.699999988079","resources/trios/L2T1A3.jpg","39","restless",0.5,0.4,0.5,0.920465238903017,"false"
"image-keyboard-response",624,612028,"0.0-3.204-1.204","ofca0dfs75s67qc","19.csv","","null","resources/maskTrios/BBA3.jpg","null","",NA,NA,NA,NA,""
