"trial_type","trial_index","time_elapsed","internal_node_id","subject","participantCode","walkNumber","success","rt","stimulus","key_press","test_part","leftProb","midProb","rightProb","generatedNum","correct"
"pavlovia",0,1096,"0.0-0.0","jzz7hoqqukcgmad",977,"110.csv","","","","","",NA,NA,NA,NA,""
"fullscreen",1,4545,"0.0-1.0","jzz7hoqqukcgmad",977,"110.csv","true","","","","",NA,NA,NA,NA,""
"html-keyboard-response",2,11028,"0.0-2.0-0.0","jzz7hoqqukcgmad",977,"110.csv","","6479.999999999999","<p><font size='6'>Arrrgh!</p></font><p>Can you be the best pirate? Try to find lots of gold! But beware, some islands have more gold than others, and over time, the island with the most gold may change. Can YOU figure it out? </p><font size='6'>GOOD LUCK, CAPTAIN!!!</font><p>Press any key to begin</p>","32","",NA,NA,NA,NA,""
"image-keyboard-response",3,14030,"0.0-2.0-1.0","jzz7hoqqukcgmad",977,"110.csv","","null","resources/image_sets/111.png","null","",NA,NA,NA,NA,""
"image-keyboard-response",4,18655,"0.0-2.0-2.0","jzz7hoqqukcgmad",977,"110.csv","","4622","resources/image_sets/left_highlight.png","37","",NA,NA,NA,NA,""
"image-keyboard-response",5,20901,"0.0-2.0-3.0","jzz7hoqqukcgmad",977,"110.csv","","2244","resources/image_sets/mid_highlight.png","38","",NA,NA,NA,NA,""
"image-keyboard-response",6,21874,"0.0-2.0-4.0","jzz7hoqqukcgmad",977,"110.csv","","970.0000000000036","resources/image_sets/right_highlight.png","39","",NA,NA,NA,NA,""
"image-keyboard-response",7,23598,"0.0-2.0-5.0","jzz7hoqqukcgmad",977,"110.csv","","1723","resources/image_sets/111.png","13","",NA,NA,NA,NA,""
"image-keyboard-response",8,24922,"0.0-2.0-6.0","jzz7hoqqukcgmad",977,"110.csv","","1318","resources/images/coin2.png","13","",NA,NA,NA,NA,""
"image-keyboard-response",9,25481,"0.0-2.0-7.0","jzz7hoqqukcgmad",977,"110.csv","","557","resources/images/fishbone.png","13","",NA,NA,NA,NA,""
"html-keyboard-response",10,26656,"0.0-2.0-8.0","jzz7hoqqukcgmad",977,"110.csv","","1173","<p>Your first journey will be a long one, but you will get a well deserved break at the end</p><p>After the break you will have four more journeys, but each will be much shorter than the first, and you will have breaks in between each</p><p>Press Enter to begin</p>","13","",NA,NA,NA,NA,""
"image-keyboard-response",11,29017,"0.0-3.0-0.0","jzz7hoqqukcgmad",977,"110.csv","","2358","resources/trios/L2T4A3.jpg","39","restless",0.9,0.3,0.7,0.931706955808535,"false"
"image-keyboard-response",12,29421,"0.0-3.0-1.0","jzz7hoqqukcgmad",977,"110.csv","","null","resources/maskTrios/BBA3.jpg","null","",NA,NA,NA,NA,""
"image-keyboard-response",13,30624,"0.0-3.0-2.0","jzz7hoqqukcgmad",977,"110.csv","","null","resources/images/fishbone.png","null","",NA,NA,NA,NA,""
"image-keyboard-response",14,32126,"0.0-3.1-0.1","jzz7hoqqukcgmad",977,"110.csv","","1499","resources/trios/L2T4A3.jpg","37","restless",0.9,0.3,0.7,0.785252122060372,"true"
"image-keyboard-response",15,32530,"0.0-3.1-1.1","jzz7hoqqukcgmad",977,"110.csv","","null","resources/maskTrios/L2BB.jpg","null","",NA,NA,NA,NA,""
"image-keyboard-response",16,33733,"0.0-3.1-2.1","jzz7hoqqukcgmad",977,"110.csv","","null","resources/images/coin2.png","null","",NA,NA,NA,NA,""
"image-keyboard-response",17,35008,"0.0-3.2-0.2","jzz7hoqqukcgmad",977,"110.csv","","1273","resources/trios/L2T4A2.jpg","38","restless",0.9,0.3,0.7,0.60665135889741,"false"
"image-keyboard-response",18,35411,"0.0-3.2-1.2","jzz7hoqqukcgmad",977,"110.csv","","null","resources/maskTrios/BT4B.jpg","null","",NA,NA,NA,NA,""
"image-keyboard-response",19,36614,"0.0-3.2-2.2","jzz7hoqqukcgmad",977,"110.csv","","null","resources/images/fishbone.png","null","",NA,NA,NA,NA,""
"image-keyboard-response",20,36956,"0.0-3.3-0.3","jzz7hoqqukcgmad",977,"110.csv","","340.0000000000073","resources/trios/L2T4A2.jpg","39","restless",0.9,0.3,0.7,0.465656752913882,"true"
"image-keyboard-response",21,37359,"0.0-3.3-1.3","jzz7hoqqukcgmad",977,"110.csv","","null","resources/maskTrios/BBA2.jpg","null","",NA,NA,NA,NA,""
"image-keyboard-response",22,38563,"0.0-3.3-2.3","jzz7hoqqukcgmad",977,"110.csv","","null","resources/images/coin2.png","null","",NA,NA,NA,NA,""
"image-keyboard-response",23,39534,"0.0-3.4-0.4","jzz7hoqqukcgmad",977,"110.csv","","969","resources/trios/L1T1A2.jpg","38","restless",0.9,0.3,0.7,0.472505505231302,"false"
"image-keyboard-response",24,39937,"0.0-3.4-1.4","jzz7hoqqukcgmad",977,"110.csv","","null","resources/maskTrios/BT1B.jpg","null","",NA,NA,NA,NA,""
"image-keyboard-response",25,41139,"0.0-3.4-2.4","jzz7hoqqukcgmad",977,"110.csv","","null","resources/images/fishbone.png","null","",NA,NA,NA,NA,""
"image-keyboard-response",26,41686,"0.0-3.5-0.5","jzz7hoqqukcgmad",977,"110.csv","","543.9999999999927","resources/trios/L1T1A2.jpg","39","restless",0.9,0.3,0.7,0.0454896500622198,"true"
"image-keyboard-response",27,42089,"0.0-3.5-1.5","jzz7hoqqukcgmad",977,"110.csv","","null","resources/maskTrios/BBA2.jpg","null","",NA,NA,NA,NA,""
"image-keyboard-response",28,43292,"0.0-3.5-2.5","jzz7hoqqukcgmad",977,"110.csv","","null","resources/images/coin2.png","null","",NA,NA,NA,NA,""
"image-keyboard-response",29,44445,"0.0-3.6-0.6","jzz7hoqqukcgmad",977,"110.csv","","1152","resources/trios/L2T1A3.jpg","37","restless",0.9,0.3,0.7,0.453676160325468,"true"
"image-keyboard-response",30,44849,"0.0-3.6-1.6","jzz7hoqqukcgmad",977,"110.csv","","null","resources/maskTrios/L2BB.jpg","null","",NA,NA,NA,NA,""
"image-keyboard-response",31,46052,"0.0-3.6-2.6","jzz7hoqqukcgmad",977,"110.csv","","null","resources/images/coin2.png","null","",NA,NA,NA,NA,""
"image-keyboard-response",32,46677,"0.0-3.7-0.7","jzz7hoqqukcgmad",977,"110.csv","","623","resources/trios/L1T1A2.jpg","39","restless",0.8,0.3,0.7,0.431901871840122,"true"
"image-keyboard-response",33,47080,"0.0-3.7-1.7","jzz7hoqqukcgmad",977,"110.csv","","null","resources/maskTrios/BBA2.jpg","null","",NA,NA,NA,NA,""
"image-keyboard-response",34,48284,"0.0-3.7-2.7","jzz7hoqqukcgmad",977,"110.csv","","null","resources/images/coin2.png","null","",NA,NA,NA,NA,""
"image-keyboard-response",35,49544,"0.0-3.8-0.8","jzz7hoqqukcgmad",977,"110.csv","","1258","resources/trios/L1T1A3.jpg","39","restless",0.8,0.3,0.7,0.397482064937842,"true"
"image-keyboard-response",36,49947,"0.0-3.8-1.8","jzz7hoqqukcgmad",977,"110.csv","","null","resources/maskTrios/BBA3.jpg","null","",NA,NA,NA,NA,""
"image-keyboard-response",37,51150,"0.0-3.8-2.8","jzz7hoqqukcgmad",977,"110.csv","","null","resources/images/coin2.png","null","",NA,NA,NA,NA,""
"image-keyboard-response",38,51972,"0.0-3.9-0.9","jzz7hoqqukcgmad",977,"110.csv","","820","resources/trios/L1T1A2.jpg","37","restless",0.8,0.3,0.7,0.149109633004136,"true"
"image-keyboard-response",39,52375,"0.0-3.9-1.9","jzz7hoqqukcgmad",977,"110.csv","","null","resources/maskTrios/L1BB.jpg","null","",NA,NA,NA,NA,""
"image-keyboard-response",40,53578,"0.0-3.9-2.9","jzz7hoqqukcgmad",977,"110.csv","","null","resources/images/coin2.png","null","",NA,NA,NA,NA,""
"image-keyboard-response",41,54277,"0.0-3.10-0.10","jzz7hoqqukcgmad",977,"110.csv","","697","resources/trios/L1T1A2.jpg","39","restless",0.8,0.3,0.6,0.975634644751143,"false"
"image-keyboard-response",42,54680,"0.0-3.10-1.10","jzz7hoqqukcgmad",977,"110.csv","","null","resources/maskTrios/BBA2.jpg","null","",NA,NA,NA,NA,""
"image-keyboard-response",43,55883,"0.0-3.10-2.10","jzz7hoqqukcgmad",977,"110.csv","","null","resources/images/fishbone.png","null","",NA,NA,NA,NA,""
"image-keyboard-response",44,56168,"0.0-3.11-0.11","jzz7hoqqukcgmad",977,"110.csv","","283","resources/trios/L1T4A3.jpg","38","restless",0.7,0.3,0.6,0.0455024693620936,"true"
"image-keyboard-response",45,56571,"0.0-3.11-1.11","jzz7hoqqukcgmad",977,"110.csv","","null","resources/maskTrios/BT4B.jpg","null","",NA,NA,NA,NA,""
"image-keyboard-response",46,57774,"0.0-3.11-2.11","jzz7hoqqukcgmad",977,"110.csv","","null","resources/images/coin2.png","null","",NA,NA,NA,NA,""
"image-keyboard-response",47,58123,"0.0-3.12-0.12","jzz7hoqqukcgmad",977,"110.csv","","346.9999999999927","resources/trios/L2T4A3.jpg","37","restless",0.7,0.3,0.6,0.472578335240965,"true"
"image-keyboard-response",48,58526,"0.0-3.12-1.12","jzz7hoqqukcgmad",977,"110.csv","","null","resources/maskTrios/L2BB.jpg","null","",NA,NA,NA,NA,""
"image-keyboard-response",49,59729,"0.0-3.12-2.12","jzz7hoqqukcgmad",977,"110.csv","","null","resources/images/coin2.png","null","",NA,NA,NA,NA,""
"image-keyboard-response",50,60088,"0.0-3.13-0.13","jzz7hoqqukcgmad",977,"110.csv","","357","resources/trios/L1T4A3.jpg","38","restless",0.7,0.2,0.6,0.723397297689681,"false"
"image-keyboard-response",51,60491,"0.0-3.13-1.13","jzz7hoqqukcgmad",977,"110.csv","","null","resources/maskTrios/BT4B.jpg","null","",NA,NA,NA,NA,""
"image-keyboard-response",52,61694,"0.0-3.13-2.13","jzz7hoqqukcgmad",977,"110.csv","","null","resources/images/fishbone.png","null","",NA,NA,NA,NA,""
"image-keyboard-response",53,62105,"0.0-3.14-0.14","jzz7hoqqukcgmad",977,"110.csv","","409.0000000000073","resources/trios/L1T4A2.jpg","39","restless",0.7,0.2,0.6,0.592245020262684,"true"
"image-keyboard-response",54,62508,"0.0-3.14-1.14","jzz7hoqqukcgmad",977,"110.csv","","null","resources/maskTrios/BBA2.jpg","null","",NA,NA,NA,NA,""
"image-keyboard-response",55,63711,"0.0-3.14-2.14","jzz7hoqqukcgmad",977,"110.csv","","null","resources/images/coin2.png","null","",NA,NA,NA,NA,""
"image-keyboard-response",56,64650,"0.0-3.15-0.15","jzz7hoqqukcgmad",977,"110.csv","","937","resources/trios/L2T4A3.jpg","37","restless",0.7,0.2,0.6,0.570731013898665,"true"
"image-keyboard-response",57,65053,"0.0-3.15-1.15","jzz7hoqqukcgmad",977,"110.csv","","null","resources/maskTrios/L2BB.jpg","null","",NA,NA,NA,NA,""
"image-keyboard-response",58,66256,"0.0-3.15-2.15","jzz7hoqqukcgmad",977,"110.csv","","null","resources/images/coin2.png","null","",NA,NA,NA,NA,""
"image-keyboard-response",59,67086,"0.0-3.16-0.16","jzz7hoqqukcgmad",977,"110.csv","","828","resources/trios/L1T4A3.jpg","38","restless",0.7,0.2,0.6,0.263897936340111,"false"
"image-keyboard-response",60,67489,"0.0-3.16-1.16","jzz7hoqqukcgmad",977,"110.csv","","null","resources/maskTrios/BT4B.jpg","null","",NA,NA,NA,NA,""
"image-keyboard-response",61,68692,"0.0-3.16-2.16","jzz7hoqqukcgmad",977,"110.csv","","null","resources/images/fishbone.png","null","",NA,NA,NA,NA,""
"image-keyboard-response",62,69146,"0.0-3.17-0.17","jzz7hoqqukcgmad",977,"110.csv","","452","resources/trios/L1T1A2.jpg","37","restless",0.7,0.2,0.6,0.620095849534535,"true"
"image-keyboard-response",63,69549,"0.0-3.17-1.17","jzz7hoqqukcgmad",977,"110.csv","","null","resources/maskTrios/L1BB.jpg","null","",NA,NA,NA,NA,""
"image-keyboard-response",64,70750,"0.0-3.17-2.17","jzz7hoqqukcgmad",977,"110.csv","","null","resources/images/coin2.png","null","",NA,NA,NA,NA,""
"image-keyboard-response",65,71224,"0.0-3.18-0.18","jzz7hoqqukcgmad",977,"110.csv","","473","resources/trios/L1T1A2.jpg","39","restless",0.7,0.2,0.6,0.891371146777669,"false"
"image-keyboard-response",66,71627,"0.0-3.18-1.18","jzz7hoqqukcgmad",977,"110.csv","","null","resources/maskTrios/BBA2.jpg","null","",NA,NA,NA,NA,""
"image-keyboard-response",67,72830,"0.0-3.18-2.18","jzz7hoqqukcgmad",977,"110.csv","","null","resources/images/fishbone.png","null","",NA,NA,NA,NA,""
"image-keyboard-response",68,73183,"0.0-3.19-0.19","jzz7hoqqukcgmad",977,"110.csv","","351.99999999998545","resources/trios/L2T4A3.jpg","37","restless",0.7,0.2,0.6,0.439105701192949,"true"
"image-keyboard-response",69,73586,"0.0-3.19-1.19","jzz7hoqqukcgmad",977,"110.csv","","null","resources/maskTrios/L2BB.jpg","null","",NA,NA,NA,NA,""
"image-keyboard-response",70,74789,"0.0-3.19-2.19","jzz7hoqqukcgmad",977,"110.csv","","null","resources/images/coin2.png","null","",NA,NA,NA,NA,""
"image-keyboard-response",71,75182,"0.0-3.20-0.20","jzz7hoqqukcgmad",977,"110.csv","","391","resources/trios/L1T1A3.jpg","37","restless",0.7,0.2,0.6,0.727124264902062,"false"
"image-keyboard-response",72,75585,"0.0-3.20-1.20","jzz7hoqqukcgmad",977,"110.csv","","null","resources/maskTrios/L1BB.jpg","null","",NA,NA,NA,NA,""
"image-keyboard-response",73,76786,"0.0-3.20-2.20","jzz7hoqqukcgmad",977,"110.csv","","null","resources/images/fishbone.png","null","",NA,NA,NA,NA,""
"image-keyboard-response",74,77038,"0.0-3.21-0.21","jzz7hoqqukcgmad",977,"110.csv","","250","resources/trios/L1T4A2.jpg","38","restless",0.7,0.2,0.6,0.999815362582371,"false"
"image-keyboard-response",75,77441,"0.0-3.21-1.21","jzz7hoqqukcgmad",977,"110.csv","","null","resources/maskTrios/BT4B.jpg","null","",NA,NA,NA,NA,""
"image-keyboard-response",76,78643,"0.0-3.21-2.21","jzz7hoqqukcgmad",977,"110.csv","","null","resources/images/fishbone.png","null","",NA,NA,NA,NA,""
"image-keyboard-response",77,79046,"0.0-3.22-0.22","jzz7hoqqukcgmad",977,"110.csv","","401","resources/trios/L2T4A3.jpg","39","restless",0.7,0.2,0.6,0.957679481311322,"false"
"image-keyboard-response",78,79449,"0.0-3.22-1.22","jzz7hoqqukcgmad",977,"110.csv","","null","resources/maskTrios/BBA3.jpg","null","",NA,NA,NA,NA,""
"image-keyboard-response",79,80651,"0.0-3.22-2.22","jzz7hoqqukcgmad",977,"110.csv","","null","resources/images/fishbone.png","null","",NA,NA,NA,NA,""
"image-keyboard-response",80,80915,"0.0-3.23-0.23","jzz7hoqqukcgmad",977,"110.csv","","263","resources/trios/L2T4A3.jpg","38","restless",0.7,0.2,0.6,0.413281347326384,"false"
"image-keyboard-response",81,81318,"0.0-3.23-1.23","jzz7hoqqukcgmad",977,"110.csv","","null","resources/maskTrios/BT4B.jpg","null","",NA,NA,NA,NA,""
"image-keyboard-response",82,82521,"0.0-3.23-2.23","jzz7hoqqukcgmad",977,"110.csv","","null","resources/images/fishbone.png","null","",NA,NA,NA,NA,""
"image-keyboard-response",83,82807,"0.0-3.24-0.24","jzz7hoqqukcgmad",977,"110.csv","","284","resources/trios/L1T4A3.jpg","38","restless",0.7,0.2,0.7,0.879116103943602,"false"
"image-keyboard-response",84,83210,"0.0-3.24-1.24","jzz7hoqqukcgmad",977,"110.csv","","null","resources/maskTrios/BT4B.jpg","null","",NA,NA,NA,NA,""
"image-keyboard-response",85,84413,"0.0-3.24-2.24","jzz7hoqqukcgmad",977,"110.csv","","null","resources/images/fishbone.png","null","",NA,NA,NA,NA,""
"image-keyboard-response",86,84734,"0.0-3.25-0.25","jzz7hoqqukcgmad",977,"110.csv","","319","resources/trios/L2T1A3.jpg","38","restless",0.7,0.2,0.7,0.762058302036566,"false"
"image-keyboard-response",87,85136,"0.0-3.25-1.25","jzz7hoqqukcgmad",977,"110.csv","","null","resources/maskTrios/BT1B.jpg","null","",NA,NA,NA,NA,""
"image-keyboard-response",88,86339,"0.0-3.25-2.25","jzz7hoqqukcgmad",977,"110.csv","","null","resources/images/fishbone.png","null","",NA,NA,NA,NA,""
"image-keyboard-response",89,86637,"0.0-3.26-0.26","jzz7hoqqukcgmad",977,"110.csv","","296","resources/trios/L2T4A3.jpg","37","restless",0.7,0.2,0.7,0.2147680422106,"true"
"image-keyboard-response",90,87039,"0.0-3.26-1.26","jzz7hoqqukcgmad",977,"110.csv","","null","resources/maskTrios/L2BB.jpg","null","",NA,NA,NA,NA,""
"image-keyboard-response",91,88242,"0.0-3.26-2.26","jzz7hoqqukcgmad",977,"110.csv","","null","resources/images/coin2.png","null","",NA,NA,NA,NA,""
"image-keyboard-response",92,88626,"0.0-3.27-0.27","jzz7hoqqukcgmad",977,"110.csv","","382","resources/trios/L2T1A3.jpg","37","restless",0.7,0.2,0.7,0.22456760295148,"true"
"image-keyboard-response",93,89028,"0.0-3.27-1.27","jzz7hoqqukcgmad",977,"110.csv","","null","resources/maskTrios/L2BB.jpg","null","",NA,NA,NA,NA,""
"image-keyboard-response",94,90231,"0.0-3.27-2.27","jzz7hoqqukcgmad",977,"110.csv","","null","resources/images/coin2.png","null","",NA,NA,NA,NA,""
"image-keyboard-response",95,90688,"0.0-3.28-0.28","jzz7hoqqukcgmad",977,"110.csv","","455","resources/trios/L2T4A2.jpg","37","restless",0.7,0.3,0.7,0.816397712224704,"false"
"image-keyboard-response",96,91091,"0.0-3.28-1.28","jzz7hoqqukcgmad",977,"110.csv","","null","resources/maskTrios/L2BB.jpg","null","",NA,NA,NA,NA,""
"image-keyboard-response",97,92293,"0.0-3.28-2.28","jzz7hoqqukcgmad",977,"110.csv","","null","resources/images/fishbone.png","null","",NA,NA,NA,NA,""
"image-keyboard-response",98,92661,"0.0-3.29-0.29","jzz7hoqqukcgmad",977,"110.csv","","366","resources/trios/L1T4A2.jpg","39","restless",0.7,0.4,0.7,0.706028334043491,"false"
"image-keyboard-response",99,93064,"0.0-3.29-1.29","jzz7hoqqukcgmad",977,"110.csv","","null","resources/maskTrios/BBA2.jpg","null","",NA,NA,NA,NA,""
"image-keyboard-response",100,94267,"0.0-3.29-2.29","jzz7hoqqukcgmad",977,"110.csv","","null","resources/images/fishbone.png","null","",NA,NA,NA,NA,""
"image-keyboard-response",101,94574,"0.0-3.30-0.30","jzz7hoqqukcgmad",977,"110.csv","","305","resources/trios/L2T4A3.jpg","39","restless",0.7,0.5,0.7,0.302811502104234,"true"
"image-keyboard-response",102,94977,"0.0-3.30-1.30","jzz7hoqqukcgmad",977,"110.csv","","null","resources/maskTrios/BBA3.jpg","null","",NA,NA,NA,NA,""
"image-keyboard-response",103,96180,"0.0-3.30-2.30","jzz7hoqqukcgmad",977,"110.csv","","null","resources/images/coin2.png","null","",NA,NA,NA,NA,""
"image-keyboard-response",104,96516,"0.0-3.31-0.31","jzz7hoqqukcgmad",977,"110.csv","","334","resources/trios/L1T1A2.jpg","39","restless",0.8,0.5,0.7,0.975988411302709,"false"
"image-keyboard-response",105,96918,"0.0-3.31-1.31","jzz7hoqqukcgmad",977,"110.csv","","null","resources/maskTrios/BBA2.jpg","null","",NA,NA,NA,NA,""
"image-keyboard-response",106,98121,"0.0-3.31-2.31","jzz7hoqqukcgmad",977,"110.csv","","null","resources/images/fishbone.png","null","",NA,NA,NA,NA,""
"image-keyboard-response",107,98439,"0.0-3.32-0.32","jzz7hoqqukcgmad",977,"110.csv","","316.00000000001455","resources/trios/L1T4A2.jpg","37","restless",0.8,0.5,0.7,0.227203210029805,"true"
"image-keyboard-response",108,98842,"0.0-3.32-1.32","jzz7hoqqukcgmad",977,"110.csv","","null","resources/maskTrios/L1BB.jpg","null","",NA,NA,NA,NA,""
"image-keyboard-response",109,100045,"0.0-3.32-2.32","jzz7hoqqukcgmad",977,"110.csv","","null","resources/images/coin2.png","null","",NA,NA,NA,NA,""
"image-keyboard-response",110,100419,"0.0-3.33-0.33","jzz7hoqqukcgmad",977,"110.csv","","372","resources/trios/L2T1A3.jpg","37","restless",0.8,0.5,0.7,0.871328505975475,"false"
"image-keyboard-response",111,100821,"0.0-3.33-1.33","jzz7hoqqukcgmad",977,"110.csv","","null","resources/maskTrios/L2BB.jpg","null","",NA,NA,NA,NA,""
"image-keyboard-response",112,102024,"0.0-3.33-2.33","jzz7hoqqukcgmad",977,"110.csv","","null","resources/images/fishbone.png","null","",NA,NA,NA,NA,""
"image-keyboard-response",113,102508,"0.0-3.34-0.34","jzz7hoqqukcgmad",977,"110.csv","","483","resources/trios/L1T1A2.jpg","39","restless",0.8,0.5,0.7,0.179350591927194,"true"
"image-keyboard-response",114,102911,"0.0-3.34-1.34","jzz7hoqqukcgmad",977,"110.csv","","null","resources/maskTrios/BBA2.jpg","null","",NA,NA,NA,NA,""
"image-keyboard-response",115,104114,"0.0-3.34-2.34","jzz7hoqqukcgmad",977,"110.csv","","null","resources/images/coin2.png","null","",NA,NA,NA,NA,""
"image-keyboard-response",116,104988,"0.0-3.35-0.35","jzz7hoqqukcgmad",977,"110.csv","","872","resources/trios/L2T4A3.jpg","37","restless",0.7,0.5,0.7,0.428592871318414,"true"
"image-keyboard-response",117,105391,"0.0-3.35-1.35","jzz7hoqqukcgmad",977,"110.csv","","null","resources/maskTrios/L2BB.jpg","null","",NA,NA,NA,NA,""
"image-keyboard-response",118,106594,"0.0-3.35-2.35","jzz7hoqqukcgmad",977,"110.csv","","null","resources/images/coin2.png","null","",NA,NA,NA,NA,""
"image-keyboard-response",119,107033,"0.0-3.36-0.36","jzz7hoqqukcgmad",977,"110.csv","","438","resources/trios/L2T1A2.jpg","39","restless",0.7,0.5,0.6,0.653223096990958,"false"
"image-keyboard-response",120,107436,"0.0-3.36-1.36","jzz7hoqqukcgmad",977,"110.csv","","null","resources/maskTrios/BBA2.jpg","null","",NA,NA,NA,NA,""
"image-keyboard-response",121,108639,"0.0-3.36-2.36","jzz7hoqqukcgmad",977,"110.csv","","null","resources/images/fishbone.png","null","",NA,NA,NA,NA,""
"image-keyboard-response",122,108817,"0.0-3.37-0.37","jzz7hoqqukcgmad",977,"110.csv","","177","resources/trios/L1T4A3.jpg","38","restless",0.7,0.5,0.6,0.98479193168753,"false"
"image-keyboard-response",123,109219,"0.0-3.37-1.37","jzz7hoqqukcgmad",977,"110.csv","","null","resources/maskTrios/BT4B.jpg","null","",NA,NA,NA,NA,""
"image-keyboard-response",124,110422,"0.0-3.37-2.37","jzz7hoqqukcgmad",977,"110.csv","","null","resources/images/fishbone.png","null","",NA,NA,NA,NA,""
"image-keyboard-response",125,110852,"0.0-3.38-0.38","jzz7hoqqukcgmad",977,"110.csv","","427.99999999998545","resources/trios/L2T1A2.jpg","37","restless",0.7,0.5,0.6,0.0361320965661428,"true"
"image-keyboard-response",126,111255,"0.0-3.38-1.38","jzz7hoqqukcgmad",977,"110.csv","","null","resources/maskTrios/L2BB.jpg","null","",NA,NA,NA,NA,""
"image-keyboard-response",127,112459,"0.0-3.38-2.38","jzz7hoqqukcgmad",977,"110.csv","","null","resources/images/coin2.png","null","",NA,NA,NA,NA,""
"image-keyboard-response",128,112617,"0.0-3.39-0.39","jzz7hoqqukcgmad",977,"110.csv","","157","resources/trios/L2T4A2.jpg","37","restless",0.7,0.5,0.6,0.0359660817181418,"true"
"image-keyboard-response",129,113020,"0.0-3.39-1.39","jzz7hoqqukcgmad",977,"110.csv","","null","resources/maskTrios/L2BB.jpg","null","",NA,NA,NA,NA,""
"image-keyboard-response",130,114223,"0.0-3.39-2.39","jzz7hoqqukcgmad",977,"110.csv","","null","resources/images/coin2.png","null","",NA,NA,NA,NA,""
"image-keyboard-response",131,114610,"0.0-3.40-0.40","jzz7hoqqukcgmad",977,"110.csv","","385.99999999998545","resources/trios/L1T1A2.jpg","39","restless",0.7,0.5,0.5,0.647047450169821,"false"
"image-keyboard-response",132,115013,"0.0-3.40-1.40","jzz7hoqqukcgmad",977,"110.csv","","null","resources/maskTrios/BBA2.jpg","null","",NA,NA,NA,NA,""
"image-keyboard-response",133,116216,"0.0-3.40-2.40","jzz7hoqqukcgmad",977,"110.csv","","null","resources/images/fishbone.png","null","",NA,NA,NA,NA,""
"image-keyboard-response",134,116776,"0.0-3.41-0.41","jzz7hoqqukcgmad",977,"110.csv","","559","resources/trios/L2T4A2.jpg","37","restless",0.7,0.5,0.5,0.621752081125717,"true"
"image-keyboard-response",135,117179,"0.0-3.41-1.41","jzz7hoqqukcgmad",977,"110.csv","","null","resources/maskTrios/L2BB.jpg","null","",NA,NA,NA,NA,""
"image-keyboard-response",136,118384,"0.0-3.41-2.41","jzz7hoqqukcgmad",977,"110.csv","","null","resources/images/coin2.png","null","",NA,NA,NA,NA,""
"image-keyboard-response",137,118903,"0.0-3.42-0.42","jzz7hoqqukcgmad",977,"110.csv","","515","resources/trios/L1T4A3.jpg","39","restless",0.7,0.5,0.5,0.442591333436138,"true"
"image-keyboard-response",138,119307,"0.0-3.42-1.42","jzz7hoqqukcgmad",977,"110.csv","","null","resources/maskTrios/BBA3.jpg","null","",NA,NA,NA,NA,""
"image-keyboard-response",139,120510,"0.0-3.42-2.42","jzz7hoqqukcgmad",977,"110.csv","","null","resources/images/coin2.png","null","",NA,NA,NA,NA,""
"image-keyboard-response",140,120918,"0.0-3.43-0.43","jzz7hoqqukcgmad",977,"110.csv","","407","resources/trios/L1T1A3.jpg","37","restless",0.7,0.5,0.5,0.912314760792253,"false"
"image-keyboard-response",141,121321,"0.0-3.43-1.43","jzz7hoqqukcgmad",977,"110.csv","","null","resources/maskTrios/L1BB.jpg","null","",NA,NA,NA,NA,""
"image-keyboard-response",142,122524,"0.0-3.43-2.43","jzz7hoqqukcgmad",977,"110.csv","","null","resources/images/fishbone.png","null","",NA,NA,NA,NA,""
"image-keyboard-response",143,123591,"0.0-3.44-0.44","jzz7hoqqukcgmad",977,"110.csv","","1066","resources/trios/L2T4A3.jpg","39","restless",0.7,0.5,0.5,0.126496286770202,"true"
"image-keyboard-response",144,123994,"0.0-3.44-1.44","jzz7hoqqukcgmad",977,"110.csv","","null","resources/maskTrios/BBA3.jpg","null","",NA,NA,NA,NA,""
"image-keyboard-response",145,125197,"0.0-3.44-2.44","jzz7hoqqukcgmad",977,"110.csv","","null","resources/images/coin2.png","null","",NA,NA,NA,NA,""
"image-keyboard-response",146,126244,"0.0-3.45-0.45","jzz7hoqqukcgmad",977,"110.csv","","1045.9999999999854","resources/trios/L1T1A2.jpg","37","restless",0.7,0.5,0.5,0.619019041696827,"true"
"image-keyboard-response",147,126647,"0.0-3.45-1.45","jzz7hoqqukcgmad",977,"110.csv","","null","resources/maskTrios/L1BB.jpg","null","",NA,NA,NA,NA,""
"image-keyboard-response",148,127850,"0.0-3.45-2.45","jzz7hoqqukcgmad",977,"110.csv","","null","resources/images/coin2.png","null","",NA,NA,NA,NA,""
"image-keyboard-response",149,128861,"0.0-3.46-0.46","jzz7hoqqukcgmad",977,"110.csv","","1008","resources/trios/L2T4A2.jpg","37","restless",0.7,0.5,0.5,0.116592293867539,"true"
"image-keyboard-response",150,129264,"0.0-3.46-1.46","jzz7hoqqukcgmad",977,"110.csv","","null","resources/maskTrios/L2BB.jpg","null","",NA,NA,NA,NA,""
"image-keyboard-response",151,130466,"0.0-3.46-2.46","jzz7hoqqukcgmad",977,"110.csv","","null","resources/images/coin2.png","null","",NA,NA,NA,NA,""
"image-keyboard-response",152,131069,"0.0-3.47-0.47","jzz7hoqqukcgmad",977,"110.csv","","601","resources/trios/L1T4A3.jpg","39","restless",0.7,0.5,0.5,0.946388319574181,"false"
"image-keyboard-response",153,131474,"0.0-3.47-1.47","jzz7hoqqukcgmad",977,"110.csv","","null","resources/maskTrios/BBA3.jpg","null","",NA,NA,NA,NA,""
"image-keyboard-response",154,132676,"0.0-3.47-2.47","jzz7hoqqukcgmad",977,"110.csv","","null","resources/images/fishbone.png","null","",NA,NA,NA,NA,""
"image-keyboard-response",155,133459,"0.0-3.48-0.48","jzz7hoqqukcgmad",977,"110.csv","","780","resources/trios/L1T1A3.jpg","37","restless",0.7,0.5,0.5,0.45300690873739,"true"
"image-keyboard-response",156,133862,"0.0-3.48-1.48","jzz7hoqqukcgmad",977,"110.csv","","null","resources/maskTrios/L1BB.jpg","null","",NA,NA,NA,NA,""
"image-keyboard-response",157,135065,"0.0-3.48-2.48","jzz7hoqqukcgmad",977,"110.csv","","null","resources/images/coin2.png","null","",NA,NA,NA,NA,""
"image-keyboard-response",158,135442,"0.0-3.49-0.49","jzz7hoqqukcgmad",977,"110.csv","","375","resources/trios/L2T4A3.jpg","37","restless",0.7,0.5,0.5,0.512704970385232,"true"
"image-keyboard-response",159,135845,"0.0-3.49-1.49","jzz7hoqqukcgmad",977,"110.csv","","null","resources/maskTrios/L2BB.jpg","null","",NA,NA,NA,NA,""
"image-keyboard-response",160,137047,"0.0-3.49-2.49","jzz7hoqqukcgmad",977,"110.csv","","null","resources/images/coin2.png","null","",NA,NA,NA,NA,""
"image-keyboard-response",161,137367,"0.0-3.50-0.50","jzz7hoqqukcgmad",977,"110.csv","","317","resources/trios/L1T4A2.jpg","39","restless",0.8,0.5,0.5,0.801774795891555,"false"
"image-keyboard-response",162,137770,"0.0-3.50-1.50","jzz7hoqqukcgmad",977,"110.csv","","null","resources/maskTrios/BBA2.jpg","null","",NA,NA,NA,NA,""
"image-keyboard-response",163,138973,"0.0-3.50-2.50","jzz7hoqqukcgmad",977,"110.csv","","null","resources/images/fishbone.png","null","",NA,NA,NA,NA,""
"image-keyboard-response",164,139258,"0.0-3.51-0.51","jzz7hoqqukcgmad",977,"110.csv","","284","resources/trios/L2T1A3.jpg","38","restless",0.8,0.6,0.5,0.918330497702014,"false"
"image-keyboard-response",165,139662,"0.0-3.51-1.51","jzz7hoqqukcgmad",977,"110.csv","","null","resources/maskTrios/BT1B.jpg","null","",NA,NA,NA,NA,""
"image-keyboard-response",166,140863,"0.0-3.51-2.51","jzz7hoqqukcgmad",977,"110.csv","","null","resources/images/fishbone.png","null","",NA,NA,NA,NA,""
"image-keyboard-response",167,141160,"0.0-3.52-0.52","jzz7hoqqukcgmad",977,"110.csv","","294","resources/trios/L1T4A2.jpg","37","restless",0.8,0.6,0.5,0.777693837227626,"true"
"image-keyboard-response",168,141563,"0.0-3.52-1.52","jzz7hoqqukcgmad",977,"110.csv","","null","resources/maskTrios/L1BB.jpg","null","",NA,NA,NA,NA,""
"image-keyboard-response",169,142765,"0.0-3.52-2.52","jzz7hoqqukcgmad",977,"110.csv","","null","resources/images/coin2.png","null","",NA,NA,NA,NA,""
"image-keyboard-response",170,143060,"0.0-3.53-0.53","jzz7hoqqukcgmad",977,"110.csv","","292.9999999999709","resources/trios/L1T4A3.jpg","39","restless",0.7,0.6,0.5,0.115020065600032,"true"
"image-keyboard-response",171,143463,"0.0-3.53-1.53","jzz7hoqqukcgmad",977,"110.csv","","null","resources/maskTrios/BBA3.jpg","null","",NA,NA,NA,NA,""
"image-keyboard-response",172,144665,"0.0-3.53-2.53","jzz7hoqqukcgmad",977,"110.csv","","null","resources/images/coin2.png","null","",NA,NA,NA,NA,""
"image-keyboard-response",173,144951,"0.0-3.54-0.54","jzz7hoqqukcgmad",977,"110.csv","","284","resources/trios/L2T1A3.jpg","39","restless",0.8,0.6,0.5,0.00234350740920697,"true"
"image-keyboard-response",174,145355,"0.0-3.54-1.54","jzz7hoqqukcgmad",977,"110.csv","","null","resources/maskTrios/BBA3.jpg","null","",NA,NA,NA,NA,""
"image-keyboard-response",175,146558,"0.0-3.54-2.54","jzz7hoqqukcgmad",977,"110.csv","","null","resources/images/coin2.png","null","",NA,NA,NA,NA,""
"image-keyboard-response",176,147045,"0.0-3.55-0.55","jzz7hoqqukcgmad",977,"110.csv","","485","resources/trios/L2T1A3.jpg","39","restless",0.7,0.6,0.5,0.594226638877801,"false"
"image-keyboard-response",177,147448,"0.0-3.55-1.55","jzz7hoqqukcgmad",977,"110.csv","","null","resources/maskTrios/BBA3.jpg","null","",NA,NA,NA,NA,""
"image-keyboard-response",178,148650,"0.0-3.55-2.55","jzz7hoqqukcgmad",977,"110.csv","","null","resources/images/fishbone.png","null","",NA,NA,NA,NA,""
"image-keyboard-response",179,148900,"0.0-3.56-0.56","jzz7hoqqukcgmad",977,"110.csv","","244","resources/trios/L2T1A3.jpg","38","restless",0.7,0.6,0.5,0.466993875102491,"true"
"image-keyboard-response",180,149303,"0.0-3.56-1.56","jzz7hoqqukcgmad",977,"110.csv","","null","resources/maskTrios/BT1B.jpg","null","",NA,NA,NA,NA,""
"image-keyboard-response",181,150506,"0.0-3.56-2.56","jzz7hoqqukcgmad",977,"110.csv","","null","resources/images/coin2.png","null","",NA,NA,NA,NA,""
"image-keyboard-response",182,150827,"0.0-3.57-0.57","jzz7hoqqukcgmad",977,"110.csv","","318","resources/trios/L2T4A2.jpg","38","restless",0.7,0.6,0.5,0.220245985395089,"true"
"image-keyboard-response",183,151230,"0.0-3.57-1.57","jzz7hoqqukcgmad",977,"110.csv","","null","resources/maskTrios/BT4B.jpg","null","",NA,NA,NA,NA,""
"image-keyboard-response",184,152432,"0.0-3.57-2.57","jzz7hoqqukcgmad",977,"110.csv","","null","resources/images/coin2.png","null","",NA,NA,NA,NA,""
"image-keyboard-response",185,152795,"0.0-3.58-0.58","jzz7hoqqukcgmad",977,"110.csv","","360.9999999999709","resources/trios/L1T1A3.jpg","38","restless",0.7,0.6,0.5,0.737471582785713,"false"
"image-keyboard-response",186,153198,"0.0-3.58-1.58","jzz7hoqqukcgmad",977,"110.csv","","null","resources/maskTrios/BT1B.jpg","null","",NA,NA,NA,NA,""
"image-keyboard-response",187,154401,"0.0-3.58-2.58","jzz7hoqqukcgmad",977,"110.csv","","null","resources/images/fishbone.png","null","",NA,NA,NA,NA,""
"image-keyboard-response",188,154497,"0.0-3.59-0.59","jzz7hoqqukcgmad",977,"110.csv","","95","resources/trios/L2T4A2.jpg","37","restless",0.7,0.6,0.5,0.0327686759370125,"true"
"image-keyboard-response",189,154900,"0.0-3.59-1.59","jzz7hoqqukcgmad",977,"110.csv","","null","resources/maskTrios/L2BB.jpg","null","",NA,NA,NA,NA,""
"image-keyboard-response",190,156103,"0.0-3.59-2.59","jzz7hoqqukcgmad",977,"110.csv","","null","resources/images/coin2.png","null","",NA,NA,NA,NA,""
"image-keyboard-response",191,156322,"0.0-3.60-0.60","jzz7hoqqukcgmad",977,"110.csv","","217","resources/trios/L2T1A3.jpg","37","restless",0.7,0.6,0.5,0.292366180589242,"true"
"image-keyboard-response",192,156726,"0.0-3.60-1.60","jzz7hoqqukcgmad",977,"110.csv","","null","resources/maskTrios/L2BB.jpg","null","",NA,NA,NA,NA,""
"image-keyboard-response",193,157928,"0.0-3.60-2.60","jzz7hoqqukcgmad",977,"110.csv","","null","resources/images/coin2.png","null","",NA,NA,NA,NA,""
"image-keyboard-response",194,158216,"0.0-3.61-0.61","jzz7hoqqukcgmad",977,"110.csv","","285","resources/trios/L1T4A3.jpg","37","restless",0.7,0.6,0.5,0.546807928097497,"true"
"image-keyboard-response",195,158619,"0.0-3.61-1.61","jzz7hoqqukcgmad",977,"110.csv","","null","resources/maskTrios/L1BB.jpg","null","",NA,NA,NA,NA,""
"image-keyboard-response",196,159823,"0.0-3.61-2.61","jzz7hoqqukcgmad",977,"110.csv","","null","resources/images/coin2.png","null","",NA,NA,NA,NA,""
"image-keyboard-response",197,160111,"0.0-3.62-0.62","jzz7hoqqukcgmad",977,"110.csv","","286","resources/trios/L2T4A3.jpg","37","restless",0.7,0.6,0.5,0.233237056285487,"true"
"image-keyboard-response",198,160514,"0.0-3.62-1.62","jzz7hoqqukcgmad",977,"110.csv","","null","resources/maskTrios/L2BB.jpg","null","",NA,NA,NA,NA,""
"image-keyboard-response",199,161717,"0.0-3.62-2.62","jzz7hoqqukcgmad",977,"110.csv","","null","resources/images/coin2.png","null","",NA,NA,NA,NA,""
"image-keyboard-response",200,161914,"0.0-3.63-0.63","jzz7hoqqukcgmad",977,"110.csv","","193","resources/trios/L1T4A3.jpg","37","restless",0.7,0.6,0.5,0.214537975571297,"true"
"image-keyboard-response",201,162317,"0.0-3.63-1.63","jzz7hoqqukcgmad",977,"110.csv","","null","resources/maskTrios/L1BB.jpg","null","",NA,NA,NA,NA,""
"image-keyboard-response",202,163520,"0.0-3.63-2.63","jzz7hoqqukcgmad",977,"110.csv","","null","resources/images/coin2.png","null","",NA,NA,NA,NA,""
"image-keyboard-response",203,163827,"0.0-3.64-0.64","jzz7hoqqukcgmad",977,"110.csv","","305","resources/trios/L1T1A2.jpg","37","restless",0.7,0.6,0.5,0.28232522659555,"true"
"image-keyboard-response",204,164230,"0.0-3.64-1.64","jzz7hoqqukcgmad",977,"110.csv","","null","resources/maskTrios/L1BB.jpg","null","",NA,NA,NA,NA,""
"image-keyboard-response",205,165433,"0.0-3.64-2.64","jzz7hoqqukcgmad",977,"110.csv","","null","resources/images/coin2.png","null","",NA,NA,NA,NA,""
"image-keyboard-response",206,165721,"0.0-3.65-0.65","jzz7hoqqukcgmad",977,"110.csv","","285","resources/trios/L2T4A2.jpg","37","restless",0.7,0.6,0.5,0.621543108402191,"true"
"image-keyboard-response",207,166123,"0.0-3.65-1.65","jzz7hoqqukcgmad",977,"110.csv","","null","resources/maskTrios/L2BB.jpg","null","",NA,NA,NA,NA,""
"image-keyboard-response",208,167325,"0.0-3.65-2.65","jzz7hoqqukcgmad",977,"110.csv","","null","resources/images/coin2.png","null","",NA,NA,NA,NA,""
"image-keyboard-response",209,167551,"0.0-3.66-0.66","jzz7hoqqukcgmad",977,"110.csv","","224","resources/trios/L1T4A3.jpg","37","restless",0.7,0.7,0.5,0.960069706439992,"false"
"image-keyboard-response",210,167953,"0.0-3.66-1.66","jzz7hoqqukcgmad",977,"110.csv","","null","resources/maskTrios/L1BB.jpg","null","",NA,NA,NA,NA,""
"image-keyboard-response",211,169156,"0.0-3.66-2.66","jzz7hoqqukcgmad",977,"110.csv","","null","resources/images/fishbone.png","null","",NA,NA,NA,NA,""
"image-keyboard-response",212,169219,"0.0-3.67-0.67","jzz7hoqqukcgmad",977,"110.csv","","61","resources/trios/L2T4A2.jpg","38","restless",0.7,0.8,0.5,0.246301373853535,"true"
"image-keyboard-response",213,169621,"0.0-3.67-1.67","jzz7hoqqukcgmad",977,"110.csv","","null","resources/maskTrios/BT4B.jpg","null","",NA,NA,NA,NA,""
"image-keyboard-response",214,170823,"0.0-3.67-2.67","jzz7hoqqukcgmad",977,"110.csv","","null","resources/images/coin2.png","null","",NA,NA,NA,NA,""
"image-keyboard-response",215,171114,"0.0-3.68-0.68","jzz7hoqqukcgmad",977,"110.csv","","289","resources/trios/L1T1A2.jpg","38","restless",0.7,0.8,0.5,0.898448487491556,"false"
"image-keyboard-response",216,171518,"0.0-3.68-1.68","jzz7hoqqukcgmad",977,"110.csv","","null","resources/maskTrios/BT1B.jpg","null","",NA,NA,NA,NA,""
"image-keyboard-response",217,172720,"0.0-3.68-2.68","jzz7hoqqukcgmad",977,"110.csv","","null","resources/images/fishbone.png","null","",NA,NA,NA,NA,""
"image-keyboard-response",218,172995,"0.0-3.69-0.69","jzz7hoqqukcgmad",977,"110.csv","","273","resources/trios/L2T1A3.jpg","39","restless",0.6,0.8,0.4,0.953945887635603,"false"
"image-keyboard-response",219,173398,"0.0-3.69-1.69","jzz7hoqqukcgmad",977,"110.csv","","null","resources/maskTrios/BBA3.jpg","null","",NA,NA,NA,NA,""
"image-keyboard-response",220,174600,"0.0-3.69-2.69","jzz7hoqqukcgmad",977,"110.csv","","null","resources/images/fishbone.png","null","",NA,NA,NA,NA,""
"image-keyboard-response",221,174884,"0.0-3.70-0.70","jzz7hoqqukcgmad",977,"110.csv","","279","resources/trios/L1T4A3.jpg","37","restless",0.5,0.8,0.4,0.972798071598754,"false"
"image-keyboard-response",222,175286,"0.0-3.70-1.70","jzz7hoqqukcgmad",977,"110.csv","","null","resources/maskTrios/L1BB.jpg","null","",NA,NA,NA,NA,""
"image-keyboard-response",223,176489,"0.0-3.70-2.70","jzz7hoqqukcgmad",977,"110.csv","","null","resources/images/fishbone.png","null","",NA,NA,NA,NA,""
"image-keyboard-response",224,176782,"0.0-3.71-0.71","jzz7hoqqukcgmad",977,"110.csv","","291","resources/trios/L2T4A2.jpg","38","restless",0.5,0.8,0.4,0.543740333510687,"true"
"image-keyboard-response",225,177184,"0.0-3.71-1.71","jzz7hoqqukcgmad",977,"110.csv","","null","resources/maskTrios/BT4B.jpg","null","",NA,NA,NA,NA,""
"image-keyboard-response",226,178386,"0.0-3.71-2.71","jzz7hoqqukcgmad",977,"110.csv","","null","resources/images/coin2.png","null","",NA,NA,NA,NA,""
"image-keyboard-response",227,178703,"0.0-3.72-0.72","jzz7hoqqukcgmad",977,"110.csv","","315","resources/trios/L1T4A3.jpg","38","restless",0.5,0.8,0.4,0.730101410723857,"true"
"image-keyboard-response",228,179105,"0.0-3.72-1.72","jzz7hoqqukcgmad",977,"110.csv","","null","resources/maskTrios/BT4B.jpg","null","",NA,NA,NA,NA,""
"image-keyboard-response",229,180308,"0.0-3.72-2.72","jzz7hoqqukcgmad",977,"110.csv","","null","resources/images/coin2.png","null","",NA,NA,NA,NA,""
"image-keyboard-response",230,180595,"0.0-3.73-0.73","jzz7hoqqukcgmad",977,"110.csv","","284","resources/trios/L2T4A3.jpg","38","restless",0.5,0.8,0.4,0.262041688300392,"true"
"image-keyboard-response",231,180997,"0.0-3.73-1.73","jzz7hoqqukcgmad",977,"110.csv","","null","resources/maskTrios/BT4B.jpg","null","",NA,NA,NA,NA,""
"image-keyboard-response",232,182200,"0.0-3.73-2.73","jzz7hoqqukcgmad",977,"110.csv","","null","resources/images/coin2.png","null","",NA,NA,NA,NA,""
"image-keyboard-response",233,182475,"0.0-3.74-0.74","jzz7hoqqukcgmad",977,"110.csv","","274","resources/trios/L2T4A2.jpg","38","restless",0.5,0.8,0.4,0.467606014873595,"true"
"image-keyboard-response",234,182878,"0.0-3.74-1.74","jzz7hoqqukcgmad",977,"110.csv","","null","resources/maskTrios/BT4B.jpg","null","",NA,NA,NA,NA,""
"image-keyboard-response",235,184081,"0.0-3.74-2.74","jzz7hoqqukcgmad",977,"110.csv","","null","resources/images/coin2.png","null","",NA,NA,NA,NA,""
"image-keyboard-response",236,184437,"0.0-3.75-0.75","jzz7hoqqukcgmad",977,"110.csv","","354","resources/trios/L2T4A3.jpg","38","restless",0.5,0.8,0.4,0.527165398077891,"true"
"image-keyboard-response",237,184840,"0.0-3.75-1.75","jzz7hoqqukcgmad",977,"110.csv","","null","resources/maskTrios/BT4B.jpg","null","",NA,NA,NA,NA,""
"image-keyboard-response",238,186043,"0.0-3.75-2.75","jzz7hoqqukcgmad",977,"110.csv","","null","resources/images/coin2.png","null","",NA,NA,NA,NA,""
"image-keyboard-response",239,186359,"0.0-3.76-0.76","jzz7hoqqukcgmad",977,"110.csv","","315","resources/trios/L1T1A2.jpg","38","restless",0.5,0.9,0.5,0.489805245957863,"true"
"image-keyboard-response",240,186763,"0.0-3.76-1.76","jzz7hoqqukcgmad",977,"110.csv","","null","resources/maskTrios/BT1B.jpg","null","",NA,NA,NA,NA,""
"image-keyboard-response",241,187966,"0.0-3.76-2.76","jzz7hoqqukcgmad",977,"110.csv","","null","resources/images/coin2.png","null","",NA,NA,NA,NA,""
"image-keyboard-response",242,188235,"0.0-3.77-0.77","jzz7hoqqukcgmad",977,"110.csv","","267","resources/trios/L2T1A3.jpg","38","restless",0.5,0.9,0.5,0.970780510507248,"false"
"image-keyboard-response",243,188638,"0.0-3.77-1.77","jzz7hoqqukcgmad",977,"110.csv","","null","resources/maskTrios/BT1B.jpg","null","",NA,NA,NA,NA,""
"image-keyboard-response",244,189841,"0.0-3.77-2.77","jzz7hoqqukcgmad",977,"110.csv","","null","resources/images/fishbone.png","null","",NA,NA,NA,NA,""
"image-keyboard-response",245,190179,"0.0-3.78-0.78","jzz7hoqqukcgmad",977,"110.csv","","336","resources/trios/L2T4A3.jpg","39","restless",0.5,0.9,0.5,0.663247194677834,"false"
"image-keyboard-response",246,190583,"0.0-3.78-1.78","jzz7hoqqukcgmad",977,"110.csv","","null","resources/maskTrios/BBA3.jpg","null","",NA,NA,NA,NA,""
"image-keyboard-response",247,191786,"0.0-3.78-2.78","jzz7hoqqukcgmad",977,"110.csv","","null","resources/images/fishbone.png","null","",NA,NA,NA,NA,""
"image-keyboard-response",248,191952,"0.0-3.79-0.79","jzz7hoqqukcgmad",977,"110.csv","","164.0000000000291","resources/trios/L1T1A3.jpg","39","restless",0.5,0.9,0.5,0.825355214618049,"false"
"image-keyboard-response",249,192356,"0.0-3.79-1.79","jzz7hoqqukcgmad",977,"110.csv","","null","resources/maskTrios/BBA3.jpg","null","",NA,NA,NA,NA,""
"image-keyboard-response",250,193559,"0.0-3.79-2.79","jzz7hoqqukcgmad",977,"110.csv","","null","resources/images/fishbone.png","null","",NA,NA,NA,NA,""
"image-keyboard-response",251,193841,"0.0-3.80-0.80","jzz7hoqqukcgmad",977,"110.csv","","281","resources/trios/L2T1A2.jpg","37","restless",0.5,0.8,0.5,0.19278500493222,"true"
"image-keyboard-response",252,194244,"0.0-3.80-1.80","jzz7hoqqukcgmad",977,"110.csv","","null","resources/maskTrios/L2BB.jpg","null","",NA,NA,NA,NA,""
"image-keyboard-response",253,195447,"0.0-3.80-2.80","jzz7hoqqukcgmad",977,"110.csv","","null","resources/images/coin2.png","null","",NA,NA,NA,NA,""
"image-keyboard-response",254,195745,"0.0-3.81-0.81","jzz7hoqqukcgmad",977,"110.csv","","296","resources/trios/L2T1A3.jpg","37","restless",0.5,0.8,0.5,0.463845319968272,"true"
"image-keyboard-response",255,196148,"0.0-3.81-1.81","jzz7hoqqukcgmad",977,"110.csv","","null","resources/maskTrios/L2BB.jpg","null","",NA,NA,NA,NA,""
"image-keyboard-response",256,197351,"0.0-3.81-2.81","jzz7hoqqukcgmad",977,"110.csv","","null","resources/images/coin2.png","null","",NA,NA,NA,NA,""
"image-keyboard-response",257,197634,"0.0-3.82-0.82","jzz7hoqqukcgmad",977,"110.csv","","281","resources/trios/L1T4A3.jpg","37","restless",0.5,0.8,0.5,0.834119065145127,"false"
"image-keyboard-response",258,198037,"0.0-3.82-1.82","jzz7hoqqukcgmad",977,"110.csv","","null","resources/maskTrios/L1BB.jpg","null","",NA,NA,NA,NA,""
"image-keyboard-response",259,199240,"0.0-3.82-2.82","jzz7hoqqukcgmad",977,"110.csv","","null","resources/images/fishbone.png","null","",NA,NA,NA,NA,""
"image-keyboard-response",260,199515,"0.0-3.83-0.83","jzz7hoqqukcgmad",977,"110.csv","","274","resources/trios/L2T1A3.jpg","38","restless",0.5,0.9,0.6,0.579117688152687,"true"
"image-keyboard-response",261,199918,"0.0-3.83-1.83","jzz7hoqqukcgmad",977,"110.csv","","null","resources/maskTrios/BT1B.jpg","null","",NA,NA,NA,NA,""
"image-keyboard-response",262,201120,"0.0-3.83-2.83","jzz7hoqqukcgmad",977,"110.csv","","null","resources/images/coin2.png","null","",NA,NA,NA,NA,""
"image-keyboard-response",263,201433,"0.0-3.84-0.84","jzz7hoqqukcgmad",977,"110.csv","","308.9999999999709","resources/trios/L2T1A2.jpg","38","restless",0.5,0.9,0.6,0.152337197575053,"true"
"image-keyboard-response",264,201836,"0.0-3.84-1.84","jzz7hoqqukcgmad",977,"110.csv","","null","resources/maskTrios/BT1B.jpg","null","",NA,NA,NA,NA,""
"image-keyboard-response",265,203038,"0.0-3.84-2.84","jzz7hoqqukcgmad",977,"110.csv","","null","resources/images/coin2.png","null","",NA,NA,NA,NA,""
"image-keyboard-response",266,203317,"0.0-3.85-0.85","jzz7hoqqukcgmad",977,"110.csv","","277","resources/trios/L1T1A2.jpg","38","restless",0.5,0.9,0.6,0.019990030782942,"true"
"image-keyboard-response",267,203720,"0.0-3.85-1.85","jzz7hoqqukcgmad",977,"110.csv","","null","resources/maskTrios/BT1B.jpg","null","",NA,NA,NA,NA,""
"image-keyboard-response",268,204923,"0.0-3.85-2.85","jzz7hoqqukcgmad",977,"110.csv","","null","resources/images/coin2.png","null","",NA,NA,NA,NA,""
"image-keyboard-response",269,205001,"0.0-3.86-0.86","jzz7hoqqukcgmad",977,"110.csv","","74","resources/trios/L1T4A2.jpg","38","restless",0.5,0.9,0.6,0.752809962850668,"true"
"image-keyboard-response",270,205405,"0.0-3.86-1.86","jzz7hoqqukcgmad",977,"110.csv","","null","resources/maskTrios/BT4B.jpg","null","",NA,NA,NA,NA,""
"image-keyboard-response",271,206608,"0.0-3.86-2.86","jzz7hoqqukcgmad",977,"110.csv","","null","resources/images/coin2.png","null","",NA,NA,NA,NA,""
"image-keyboard-response",272,206870,"0.0-3.87-0.87","jzz7hoqqukcgmad",977,"110.csv","","260","resources/trios/L1T1A2.jpg","38","restless",0.5,0.9,0.6,0.47340303168176,"true"
"image-keyboard-response",273,207273,"0.0-3.87-1.87","jzz7hoqqukcgmad",977,"110.csv","","null","resources/maskTrios/BT1B.jpg","null","",NA,NA,NA,NA,""
"image-keyboard-response",274,208476,"0.0-3.87-2.87","jzz7hoqqukcgmad",977,"110.csv","","null","resources/images/coin2.png","null","",NA,NA,NA,NA,""
"image-keyboard-response",275,208819,"0.0-3.88-0.88","jzz7hoqqukcgmad",977,"110.csv","","341","resources/trios/L2T4A3.jpg","38","restless",0.5,0.9,0.7,0.76263660104709,"true"
"image-keyboard-response",276,209221,"0.0-3.88-1.88","jzz7hoqqukcgmad",977,"110.csv","","null","resources/maskTrios/BT4B.jpg","null","",NA,NA,NA,NA,""
"image-keyboard-response",277,210424,"0.0-3.88-2.88","jzz7hoqqukcgmad",977,"110.csv","","null","resources/images/coin2.png","null","",NA,NA,NA,NA,""
"image-keyboard-response",278,210758,"0.0-3.89-0.89","jzz7hoqqukcgmad",977,"110.csv","","332","resources/trios/L1T1A2.jpg","38","restless",0.5,0.8,0.7,0.179502213488399,"true"
"image-keyboard-response",279,211161,"0.0-3.89-1.89","jzz7hoqqukcgmad",977,"110.csv","","null","resources/maskTrios/BT1B.jpg","null","",NA,NA,NA,NA,""
"image-keyboard-response",280,212364,"0.0-3.89-2.89","jzz7hoqqukcgmad",977,"110.csv","","null","resources/images/coin2.png","null","",NA,NA,NA,NA,""
"image-keyboard-response",281,212684,"0.0-3.90-0.90","jzz7hoqqukcgmad",977,"110.csv","","318.0000000000291","resources/trios/L2T1A3.jpg","38","restless",0.4,0.8,0.7,0.521150095590878,"true"
"image-keyboard-response",282,213087,"0.0-3.90-1.90","jzz7hoqqukcgmad",977,"110.csv","","null","resources/maskTrios/BT1B.jpg","null","",NA,NA,NA,NA,""
"image-keyboard-response",283,214290,"0.0-3.90-2.90","jzz7hoqqukcgmad",977,"110.csv","","null","resources/images/coin2.png","null","",NA,NA,NA,NA,""
"image-keyboard-response",284,214631,"0.0-3.91-0.91","jzz7hoqqukcgmad",977,"110.csv","","339","resources/trios/L2T1A2.jpg","38","restless",0.4,0.8,0.7,0.564687494652058,"true"
"image-keyboard-response",285,215034,"0.0-3.91-1.91","jzz7hoqqukcgmad",977,"110.csv","","null","resources/maskTrios/BT1B.jpg","null","",NA,NA,NA,NA,""
"image-keyboard-response",286,216235,"0.0-3.91-2.91","jzz7hoqqukcgmad",977,"110.csv","","null","resources/images/coin2.png","null","",NA,NA,NA,NA,""
"image-keyboard-response",287,216564,"0.0-3.92-0.92","jzz7hoqqukcgmad",977,"110.csv","","323","resources/trios/L2T1A2.jpg","38","restless",0.4,0.7,0.7,0.0620498250805223,"true"
"image-keyboard-response",288,216967,"0.0-3.92-1.92","jzz7hoqqukcgmad",977,"110.csv","","null","resources/maskTrios/BT1B.jpg","null","",NA,NA,NA,NA,""
"image-keyboard-response",289,218170,"0.0-3.92-2.92","jzz7hoqqukcgmad",977,"110.csv","","null","resources/images/coin2.png","null","",NA,NA,NA,NA,""
"image-keyboard-response",290,218524,"0.0-3.93-0.93","jzz7hoqqukcgmad",977,"110.csv","","352.9999999999709","resources/trios/L1T1A3.jpg","38","restless",0.4,0.7,0.7,0.636540750372531,"true"
"image-keyboard-response",291,218928,"0.0-3.93-1.93","jzz7hoqqukcgmad",977,"110.csv","","null","resources/maskTrios/BT1B.jpg","null","",NA,NA,NA,NA,""
"image-keyboard-response",292,220130,"0.0-3.93-2.93","jzz7hoqqukcgmad",977,"110.csv","","null","resources/images/coin2.png","null","",NA,NA,NA,NA,""
"image-keyboard-response",293,220363,"0.0-3.94-0.94","jzz7hoqqukcgmad",977,"110.csv","","231","resources/trios/L1T4A3.jpg","38","restless",0.4,0.7,0.7,0.605523416175764,"true"
"image-keyboard-response",294,220766,"0.0-3.94-1.94","jzz7hoqqukcgmad",977,"110.csv","","null","resources/maskTrios/BT4B.jpg","null","",NA,NA,NA,NA,""
"image-keyboard-response",295,221969,"0.0-3.94-2.94","jzz7hoqqukcgmad",977,"110.csv","","null","resources/images/coin2.png","null","",NA,NA,NA,NA,""
"image-keyboard-response",296,222485,"0.0-3.95-0.95","jzz7hoqqukcgmad",977,"110.csv","","514","resources/trios/L1T4A3.jpg","38","restless",0.4,0.7,0.7,0.814188949295253,"false"
"image-keyboard-response",297,222887,"0.0-3.95-1.95","jzz7hoqqukcgmad",977,"110.csv","","null","resources/maskTrios/BT4B.jpg","null","",NA,NA,NA,NA,""
"image-keyboard-response",298,224089,"0.0-3.95-2.95","jzz7hoqqukcgmad",977,"110.csv","","null","resources/images/fishbone.png","null","",NA,NA,NA,NA,""
"image-keyboard-response",299,224395,"0.0-3.96-0.96","jzz7hoqqukcgmad",977,"110.csv","","304","resources/trios/L1T4A2.jpg","39","restless",0.4,0.7,0.7,0.896357420328586,"false"
"image-keyboard-response",300,224798,"0.0-3.96-1.96","jzz7hoqqukcgmad",977,"110.csv","","null","resources/maskTrios/BBA2.jpg","null","",NA,NA,NA,NA,""
"image-keyboard-response",301,226000,"0.0-3.96-2.96","jzz7hoqqukcgmad",977,"110.csv","","null","resources/images/fishbone.png","null","",NA,NA,NA,NA,""
"image-keyboard-response",302,226241,"0.0-3.97-0.97","jzz7hoqqukcgmad",977,"110.csv","","239","resources/trios/L1T1A2.jpg","37","restless",0.4,0.7,0.7,0.507401074797526,"false"
"image-keyboard-response",303,226644,"0.0-3.97-1.97","jzz7hoqqukcgmad",977,"110.csv","","null","resources/maskTrios/L1BB.jpg","null","",NA,NA,NA,NA,""
"image-keyboard-response",304,227846,"0.0-3.97-2.97","jzz7hoqqukcgmad",977,"110.csv","","null","resources/images/fishbone.png","null","",NA,NA,NA,NA,""
"image-keyboard-response",305,228100,"0.0-3.98-0.98","jzz7hoqqukcgmad",977,"110.csv","","252","resources/trios/L1T1A2.jpg","38","restless",0.4,0.7,0.7,0.751711158374073,"false"
"image-keyboard-response",306,228502,"0.0-3.98-1.98","jzz7hoqqukcgmad",977,"110.csv","","null","resources/maskTrios/BT1B.jpg","null","",NA,NA,NA,NA,""
"image-keyboard-response",307,229704,"0.0-3.98-2.98","jzz7hoqqukcgmad",977,"110.csv","","null","resources/images/fishbone.png","null","",NA,NA,NA,NA,""
"image-keyboard-response",308,229964,"0.0-3.99-0.99","jzz7hoqqukcgmad",977,"110.csv","","258.0000000000291","resources/trios/L1T1A3.jpg","39","restless",0.4,0.7,0.7,0.120303178445236,"true"
"image-keyboard-response",309,230367,"0.0-3.99-1.99","jzz7hoqqukcgmad",977,"110.csv","","null","resources/maskTrios/BBA3.jpg","null","",NA,NA,NA,NA,""
"image-keyboard-response",310,231570,"0.0-3.99-2.99","jzz7hoqqukcgmad",977,"110.csv","","null","resources/images/coin2.png","null","",NA,NA,NA,NA,""
"image-keyboard-response",311,231898,"0.0-3.100-0.100","jzz7hoqqukcgmad",977,"110.csv","","325.0000000000291","resources/trios/L1T4A3.jpg","39","restless",0.4,0.7,0.7,0.623568762593133,"true"
"image-keyboard-response",312,232300,"0.0-3.100-1.100","jzz7hoqqukcgmad",977,"110.csv","","null","resources/maskTrios/BBA3.jpg","null","",NA,NA,NA,NA,""
"image-keyboard-response",313,233503,"0.0-3.100-2.100","jzz7hoqqukcgmad",977,"110.csv","","null","resources/images/coin2.png","null","",NA,NA,NA,NA,""
"image-keyboard-response",314,233804,"0.0-3.101-0.101","jzz7hoqqukcgmad",977,"110.csv","","298.9999999999709","resources/trios/L2T4A3.jpg","39","restless",0.4,0.7,0.7,0.169309443788085,"true"
"image-keyboard-response",315,234208,"0.0-3.101-1.101","jzz7hoqqukcgmad",977,"110.csv","","null","resources/maskTrios/BBA3.jpg","null","",NA,NA,NA,NA,""
"image-keyboard-response",316,235411,"0.0-3.101-2.101","jzz7hoqqukcgmad",977,"110.csv","","null","resources/images/coin2.png","null","",NA,NA,NA,NA,""
"image-keyboard-response",317,235617,"0.0-3.102-0.102","jzz7hoqqukcgmad",977,"110.csv","","203","resources/trios/L1T4A3.jpg","39","restless",0.4,0.6,0.6,0.470522303122141,"true"
"image-keyboard-response",318,236021,"0.0-3.102-1.102","jzz7hoqqukcgmad",977,"110.csv","","null","resources/maskTrios/BBA3.jpg","null","",NA,NA,NA,NA,""
"image-keyboard-response",319,237224,"0.0-3.102-2.102","jzz7hoqqukcgmad",977,"110.csv","","null","resources/images/coin2.png","null","",NA,NA,NA,NA,""
"image-keyboard-response",320,237564,"0.0-3.103-0.103","jzz7hoqqukcgmad",977,"110.csv","","337.9999999999709","resources/trios/L1T4A2.jpg","39","restless",0.4,0.6,0.6,0.342000699348766,"true"
"image-keyboard-response",321,237967,"0.0-3.103-1.103","jzz7hoqqukcgmad",977,"110.csv","","null","resources/maskTrios/BBA2.jpg","null","",NA,NA,NA,NA,""
"image-keyboard-response",322,239170,"0.0-3.103-2.103","jzz7hoqqukcgmad",977,"110.csv","","null","resources/images/coin2.png","null","",NA,NA,NA,NA,""
"image-keyboard-response",323,239446,"0.0-3.104-0.104","jzz7hoqqukcgmad",977,"110.csv","","274.9999999999709","resources/trios/L1T4A2.jpg","39","restless",0.4,0.6,0.7,0.10208031012976,"true"
"image-keyboard-response",324,239849,"0.0-3.104-1.104","jzz7hoqqukcgmad",977,"110.csv","","null","resources/maskTrios/BBA2.jpg","null","",NA,NA,NA,NA,""
"image-keyboard-response",325,241052,"0.0-3.104-2.104","jzz7hoqqukcgmad",977,"110.csv","","null","resources/images/coin2.png","null","",NA,NA,NA,NA,""
"image-keyboard-response",326,241373,"0.0-3.105-0.105","jzz7hoqqukcgmad",977,"110.csv","","319","resources/trios/L2T4A2.jpg","39","restless",0.4,0.6,0.7,0.332771531635637,"true"
"image-keyboard-response",327,241776,"0.0-3.105-1.105","jzz7hoqqukcgmad",977,"110.csv","","null","resources/maskTrios/BBA2.jpg","null","",NA,NA,NA,NA,""
"image-keyboard-response",328,242978,"0.0-3.105-2.105","jzz7hoqqukcgmad",977,"110.csv","","null","resources/images/coin2.png","null","",NA,NA,NA,NA,""
"image-keyboard-response",329,243339,"0.0-3.106-0.106","jzz7hoqqukcgmad",977,"110.csv","","359.0000000000291","resources/trios/L1T1A3.jpg","39","restless",0.4,0.6,0.7,0.837386800378187,"false"
"image-keyboard-response",330,243743,"0.0-3.106-1.106","jzz7hoqqukcgmad",977,"110.csv","","null","resources/maskTrios/BBA3.jpg","null","",NA,NA,NA,NA,""
"image-keyboard-response",331,244945,"0.0-3.106-2.106","jzz7hoqqukcgmad",977,"110.csv","","null","resources/images/fishbone.png","null","",NA,NA,NA,NA,""
"image-keyboard-response",332,245230,"0.0-3.107-0.107","jzz7hoqqukcgmad",977,"110.csv","","282","resources/trios/L1T4A2.jpg","37","restless",0.4,0.6,0.7,0.715885311061489,"false"
"image-keyboard-response",333,245633,"0.0-3.107-1.107","jzz7hoqqukcgmad",977,"110.csv","","null","resources/maskTrios/L1BB.jpg","null","",NA,NA,NA,NA,""
"image-keyboard-response",334,246835,"0.0-3.107-2.107","jzz7hoqqukcgmad",977,"110.csv","","null","resources/images/fishbone.png","null","",NA,NA,NA,NA,""
"image-keyboard-response",335,246910,"0.0-3.108-0.108","jzz7hoqqukcgmad",977,"110.csv","","74","resources/trios/L1T4A2.jpg","38","restless",0.4,0.6,0.6,0.141781504424883,"true"
"image-keyboard-response",336,247313,"0.0-3.108-1.108","jzz7hoqqukcgmad",977,"110.csv","","null","resources/maskTrios/BT4B.jpg","null","",NA,NA,NA,NA,""
"image-keyboard-response",337,248516,"0.0-3.108-2.108","jzz7hoqqukcgmad",977,"110.csv","","null","resources/images/coin2.png","null","",NA,NA,NA,NA,""
"image-keyboard-response",338,248827,"0.0-3.109-0.109","jzz7hoqqukcgmad",977,"110.csv","","310","resources/trios/L2T4A2.jpg","38","restless",0.4,0.5,0.6,0.997080157147714,"false"
"image-keyboard-response",339,249230,"0.0-3.109-1.109","jzz7hoqqukcgmad",977,"110.csv","","null","resources/maskTrios/BT4B.jpg","null","",NA,NA,NA,NA,""
"image-keyboard-response",340,250432,"0.0-3.109-2.109","jzz7hoqqukcgmad",977,"110.csv","","null","resources/images/fishbone.png","null","",NA,NA,NA,NA,""
"image-keyboard-response",341,250493,"0.0-3.110-0.110","jzz7hoqqukcgmad",977,"110.csv","","58.000000000029104","resources/trios/L2T1A2.jpg","37","restless",0.4,0.5,0.6,0.740153736762298,"false"
"image-keyboard-response",342,250896,"0.0-3.110-1.110","jzz7hoqqukcgmad",977,"110.csv","","null","resources/maskTrios/L2BB.jpg","null","",NA,NA,NA,NA,""
"image-keyboard-response",343,252099,"0.0-3.110-2.110","jzz7hoqqukcgmad",977,"110.csv","","null","resources/images/fishbone.png","null","",NA,NA,NA,NA,""
"image-keyboard-response",344,252301,"0.0-3.111-0.111","jzz7hoqqukcgmad",977,"110.csv","","199.9999999999709","resources/trios/L2T1A3.jpg","39","restless",0.4,0.5,0.6,0.996843088157913,"false"
"image-keyboard-response",345,252704,"0.0-3.111-1.111","jzz7hoqqukcgmad",977,"110.csv","","null","resources/maskTrios/BBA3.jpg","null","",NA,NA,NA,NA,""
"image-keyboard-response",346,253907,"0.0-3.111-2.111","jzz7hoqqukcgmad",977,"110.csv","","null","resources/images/fishbone.png","null","",NA,NA,NA,NA,""
"image-keyboard-response",347,254051,"0.0-3.112-0.112","jzz7hoqqukcgmad",977,"110.csv","","142","resources/trios/L1T1A2.jpg","37","restless",0.3,0.6,0.6,0.938490342276364,"false"
"image-keyboard-response",348,254453,"0.0-3.112-1.112","jzz7hoqqukcgmad",977,"110.csv","","null","resources/maskTrios/L1BB.jpg","null","",NA,NA,NA,NA,""
"image-keyboard-response",349,255656,"0.0-3.112-2.112","jzz7hoqqukcgmad",977,"110.csv","","null","resources/images/fishbone.png","null","",NA,NA,NA,NA,""
"image-keyboard-response",350,255740,"0.0-3.113-0.113","jzz7hoqqukcgmad",977,"110.csv","","82","resources/trios/L2T1A2.jpg","38","restless",0.3,0.6,0.6,0.0680639590148098,"true"
"image-keyboard-response",351,256142,"0.0-3.113-1.113","jzz7hoqqukcgmad",977,"110.csv","","null","resources/maskTrios/BT1B.jpg","null","",NA,NA,NA,NA,""
"image-keyboard-response",352,257345,"0.0-3.113-2.113","jzz7hoqqukcgmad",977,"110.csv","","null","resources/images/coin2.png","null","",NA,NA,NA,NA,""
"image-keyboard-response",353,257693,"0.0-3.114-0.114","jzz7hoqqukcgmad",977,"110.csv","","346.9999999999709","resources/trios/L1T4A3.jpg","38","restless",0.3,0.6,0.6,0.159941743705236,"true"
"image-keyboard-response",354,258096,"0.0-3.114-1.114","jzz7hoqqukcgmad",977,"110.csv","","null","resources/maskTrios/BT4B.jpg","null","",NA,NA,NA,NA,""
"image-keyboard-response",355,259300,"0.0-3.114-2.114","jzz7hoqqukcgmad",977,"110.csv","","null","resources/images/coin2.png","null","",NA,NA,NA,NA,""
"image-keyboard-response",356,259598,"0.0-3.115-0.115","jzz7hoqqukcgmad",977,"110.csv","","296","resources/trios/L2T4A2.jpg","38","restless",0.3,0.6,0.6,0.417345940513891,"true"
"image-keyboard-response",357,260001,"0.0-3.115-1.115","jzz7hoqqukcgmad",977,"110.csv","","null","resources/maskTrios/BT4B.jpg","null","",NA,NA,NA,NA,""
"image-keyboard-response",358,261204,"0.0-3.115-2.115","jzz7hoqqukcgmad",977,"110.csv","","null","resources/images/coin2.png","null","",NA,NA,NA,NA,""
"image-keyboard-response",359,261389,"0.0-3.116-0.116","jzz7hoqqukcgmad",977,"110.csv","","183","resources/trios/L1T4A2.jpg","38","restless",0.3,0.5,0.6,0.277966692070849,"true"
"image-keyboard-response",360,261792,"0.0-3.116-1.116","jzz7hoqqukcgmad",977,"110.csv","","null","resources/maskTrios/BT4B.jpg","null","",NA,NA,NA,NA,""
"image-keyboard-response",361,262995,"0.0-3.116-2.116","jzz7hoqqukcgmad",977,"110.csv","","null","resources/images/coin2.png","null","",NA,NA,NA,NA,""
"image-keyboard-response",362,263143,"0.0-3.117-0.117","jzz7hoqqukcgmad",977,"110.csv","","145","resources/trios/L1T4A3.jpg","38","restless",0.3,0.5,0.6,0.439139331407105,"true"
"image-keyboard-response",363,263546,"0.0-3.117-1.117","jzz7hoqqukcgmad",977,"110.csv","","null","resources/maskTrios/BT4B.jpg","null","",NA,NA,NA,NA,""
"image-keyboard-response",364,264749,"0.0-3.117-2.117","jzz7hoqqukcgmad",977,"110.csv","","null","resources/images/coin2.png","null","",NA,NA,NA,NA,""
"image-keyboard-response",365,265083,"0.0-3.118-0.118","jzz7hoqqukcgmad",977,"110.csv","","332","resources/trios/L2T1A3.jpg","38","restless",0.3,0.5,0.6,0.843189051829559,"false"
"image-keyboard-response",366,265486,"0.0-3.118-1.118","jzz7hoqqukcgmad",977,"110.csv","","null","resources/maskTrios/BT1B.jpg","null","",NA,NA,NA,NA,""
"image-keyboard-response",367,266688,"0.0-3.118-2.118","jzz7hoqqukcgmad",977,"110.csv","","null","resources/images/fishbone.png","null","",NA,NA,NA,NA,""
"image-keyboard-response",368,266953,"0.0-3.119-0.119","jzz7hoqqukcgmad",977,"110.csv","","262","resources/trios/L2T4A2.jpg","37","restless",0.2,0.5,0.6,0.675897707437732,"false"
"image-keyboard-response",369,267356,"0.0-3.119-1.119","jzz7hoqqukcgmad",977,"110.csv","","null","resources/maskTrios/L2BB.jpg","null","",NA,NA,NA,NA,""
"image-keyboard-response",370,268559,"0.0-3.119-2.119","jzz7hoqqukcgmad",977,"110.csv","","null","resources/images/fishbone.png","null","",NA,NA,NA,NA,""
"image-keyboard-response",371,268587,"0.0-3.120-0.120","jzz7hoqqukcgmad",977,"110.csv","","24","resources/trios/L1T4A3.jpg","39","restless",0.2,0.5,0.6,0.922987044360421,"false"
"image-keyboard-response",372,268989,"0.0-3.120-1.120","jzz7hoqqukcgmad",977,"110.csv","","null","resources/maskTrios/BBA3.jpg","null","",NA,NA,NA,NA,""
"image-keyboard-response",373,270192,"0.0-3.120-2.120","jzz7hoqqukcgmad",977,"110.csv","","null","resources/images/fishbone.png","null","",NA,NA,NA,NA,""
"image-keyboard-response",374,270316,"0.0-3.121-0.121","jzz7hoqqukcgmad",977,"110.csv","","122","resources/trios/L2T4A3.jpg","38","restless",0.2,0.4,0.6,0.095737581287946,"true"
"image-keyboard-response",375,270719,"0.0-3.121-1.121","jzz7hoqqukcgmad",977,"110.csv","","null","resources/maskTrios/BT4B.jpg","null","",NA,NA,NA,NA,""
"image-keyboard-response",376,271921,"0.0-3.121-2.121","jzz7hoqqukcgmad",977,"110.csv","","null","resources/images/coin2.png","null","",NA,NA,NA,NA,""
"image-keyboard-response",377,272165,"0.0-3.122-0.122","jzz7hoqqukcgmad",977,"110.csv","","241","resources/trios/L2T1A3.jpg","38","restless",0.2,0.4,0.6,0.972582813515522,"false"
"image-keyboard-response",378,272567,"0.0-3.122-1.122","jzz7hoqqukcgmad",977,"110.csv","","null","resources/maskTrios/BT1B.jpg","null","",NA,NA,NA,NA,""
"image-keyboard-response",379,273770,"0.0-3.122-2.122","jzz7hoqqukcgmad",977,"110.csv","","null","resources/images/fishbone.png","null","",NA,NA,NA,NA,""
"image-keyboard-response",380,274082,"0.0-3.123-0.123","jzz7hoqqukcgmad",977,"110.csv","","308","resources/trios/L1T4A2.jpg","39","restless",0.2,0.4,0.6,0.611282577505869,"false"
"image-keyboard-response",381,274485,"0.0-3.123-1.123","jzz7hoqqukcgmad",977,"110.csv","","null","resources/maskTrios/BBA2.jpg","null","",NA,NA,NA,NA,""
"image-keyboard-response",382,275688,"0.0-3.123-2.123","jzz7hoqqukcgmad",977,"110.csv","","null","resources/images/fishbone.png","null","",NA,NA,NA,NA,""
"image-keyboard-response",383,276302,"0.0-3.124-0.124","jzz7hoqqukcgmad",977,"110.csv","","612","resources/trios/L1T1A3.jpg","37","restless",0.2,0.4,0.6,0.556085661304325,"false"
"image-keyboard-response",384,276705,"0.0-3.124-1.124","jzz7hoqqukcgmad",977,"110.csv","","null","resources/maskTrios/L1BB.jpg","null","",NA,NA,NA,NA,""
"image-keyboard-response",385,277907,"0.0-3.124-2.124","jzz7hoqqukcgmad",977,"110.csv","","null","resources/images/fishbone.png","null","",NA,NA,NA,NA,""
"image-keyboard-response",386,278280,"0.0-3.125-0.125","jzz7hoqqukcgmad",977,"110.csv","","370","resources/trios/L2T4A3.jpg","39","restless",0.2,0.4,0.6,0.354660869873311,"true"
"image-keyboard-response",387,278683,"0.0-3.125-1.125","jzz7hoqqukcgmad",977,"110.csv","","null","resources/maskTrios/BBA3.jpg","null","",NA,NA,NA,NA,""
"image-keyboard-response",388,279885,"0.0-3.125-2.125","jzz7hoqqukcgmad",977,"110.csv","","null","resources/images/coin2.png","null","",NA,NA,NA,NA,""
"image-keyboard-response",389,280298,"0.0-3.126-0.126","jzz7hoqqukcgmad",977,"110.csv","","410","resources/trios/L2T1A2.jpg","39","restless",0.2,0.4,0.6,0.630868754239907,"false"
"image-keyboard-response",390,280701,"0.0-3.126-1.126","jzz7hoqqukcgmad",977,"110.csv","","null","resources/maskTrios/BBA2.jpg","null","",NA,NA,NA,NA,""
"image-keyboard-response",391,281903,"0.0-3.126-2.126","jzz7hoqqukcgmad",977,"110.csv","","null","resources/images/fishbone.png","null","",NA,NA,NA,NA,""
"image-keyboard-response",392,282210,"0.0-3.127-0.127","jzz7hoqqukcgmad",977,"110.csv","","305","resources/trios/L1T4A3.jpg","38","restless",0.2,0.4,0.6,0.0576176546053745,"true"
"image-keyboard-response",393,282613,"0.0-3.127-1.127","jzz7hoqqukcgmad",977,"110.csv","","null","resources/maskTrios/BT4B.jpg","null","",NA,NA,NA,NA,""
"image-keyboard-response",394,283816,"0.0-3.127-2.127","jzz7hoqqukcgmad",977,"110.csv","","null","resources/images/coin2.png","null","",NA,NA,NA,NA,""
"image-keyboard-response",395,284092,"0.0-3.128-0.128","jzz7hoqqukcgmad",977,"110.csv","","274","resources/trios/L1T1A2.jpg","38","restless",0.2,0.4,0.6,0.268969435563722,"true"
"image-keyboard-response",396,284495,"0.0-3.128-1.128","jzz7hoqqukcgmad",977,"110.csv","","null","resources/maskTrios/BT1B.jpg","null","",NA,NA,NA,NA,""
"image-keyboard-response",397,285698,"0.0-3.128-2.128","jzz7hoqqukcgmad",977,"110.csv","","null","resources/images/coin2.png","null","",NA,NA,NA,NA,""
"image-keyboard-response",398,286007,"0.0-3.129-0.129","jzz7hoqqukcgmad",977,"110.csv","","307","resources/trios/L1T4A2.jpg","38","restless",0.2,0.4,0.6,0.330316727434982,"true"
"image-keyboard-response",399,286411,"0.0-3.129-1.129","jzz7hoqqukcgmad",977,"110.csv","","null","resources/maskTrios/BT4B.jpg","null","",NA,NA,NA,NA,""
"image-keyboard-response",400,287614,"0.0-3.129-2.129","jzz7hoqqukcgmad",977,"110.csv","","null","resources/images/coin2.png","null","",NA,NA,NA,NA,""
"image-keyboard-response",401,287932,"0.0-3.130-0.130","jzz7hoqqukcgmad",977,"110.csv","","316.9999999999418","resources/trios/L2T1A2.jpg","38","restless",0.2,0.4,0.5,0.673779238238347,"false"
"image-keyboard-response",402,288335,"0.0-3.130-1.130","jzz7hoqqukcgmad",977,"110.csv","","null","resources/maskTrios/BT1B.jpg","null","",NA,NA,NA,NA,""
"image-keyboard-response",403,289538,"0.0-3.130-2.130","jzz7hoqqukcgmad",977,"110.csv","","null","resources/images/fishbone.png","null","",NA,NA,NA,NA,""
"image-keyboard-response",404,289899,"0.0-3.131-0.131","jzz7hoqqukcgmad",977,"110.csv","","357","resources/trios/L1T4A3.jpg","39","restless",0.2,0.4,0.4,0.237201613334869,"true"
"image-keyboard-response",405,290302,"0.0-3.131-1.131","jzz7hoqqukcgmad",977,"110.csv","","null","resources/maskTrios/BBA3.jpg","null","",NA,NA,NA,NA,""
"image-keyboard-response",406,291505,"0.0-3.131-2.131","jzz7hoqqukcgmad",977,"110.csv","","null","resources/images/coin2.png","null","",NA,NA,NA,NA,""
"image-keyboard-response",407,291884,"0.0-3.132-0.132","jzz7hoqqukcgmad",977,"110.csv","","375","resources/trios/L1T1A3.jpg","39","restless",0.2,0.3,0.4,0.729887936992674,"false"
"image-keyboard-response",408,292287,"0.0-3.132-1.132","jzz7hoqqukcgmad",977,"110.csv","","null","resources/maskTrios/BBA3.jpg","null","",NA,NA,NA,NA,""
"image-keyboard-response",409,293490,"0.0-3.132-2.132","jzz7hoqqukcgmad",977,"110.csv","","null","resources/images/fishbone.png","null","",NA,NA,NA,NA,""
"image-keyboard-response",410,293676,"0.0-3.133-0.133","jzz7hoqqukcgmad",977,"110.csv","","185","resources/trios/L1T1A2.jpg","37","restless",0.2,0.3,0.4,0.512458706321457,"false"
"image-keyboard-response",411,294079,"0.0-3.133-1.133","jzz7hoqqukcgmad",977,"110.csv","","null","resources/maskTrios/L1BB.jpg","null","",NA,NA,NA,NA,""
"image-keyboard-response",412,295282,"0.0-3.133-2.133","jzz7hoqqukcgmad",977,"110.csv","","null","resources/images/fishbone.png","null","",NA,NA,NA,NA,""
"image-keyboard-response",413,295480,"0.0-3.134-0.134","jzz7hoqqukcgmad",977,"110.csv","","195","resources/trios/L2T4A2.jpg","38","restless",0.2,0.3,0.4,0.764598251956281,"false"
"image-keyboard-response",414,295882,"0.0-3.134-1.134","jzz7hoqqukcgmad",977,"110.csv","","null","resources/maskTrios/BT4B.jpg","null","",NA,NA,NA,NA,""
"image-keyboard-response",415,297085,"0.0-3.134-2.134","jzz7hoqqukcgmad",977,"110.csv","","null","resources/images/fishbone.png","null","",NA,NA,NA,NA,""
"image-keyboard-response",416,297294,"0.0-3.135-0.135","jzz7hoqqukcgmad",977,"110.csv","","207","resources/trios/L2T1A2.jpg","39","restless",0.3,0.3,0.4,0.163284553922477,"true"
"image-keyboard-response",417,297697,"0.0-3.135-1.135","jzz7hoqqukcgmad",977,"110.csv","","null","resources/maskTrios/BBA2.jpg","null","",NA,NA,NA,NA,""
"image-keyboard-response",418,298900,"0.0-3.135-2.135","jzz7hoqqukcgmad",977,"110.csv","","null","resources/images/coin2.png","null","",NA,NA,NA,NA,""
"image-keyboard-response",419,299218,"0.0-3.136-0.136","jzz7hoqqukcgmad",977,"110.csv","","317","resources/trios/L1T1A2.jpg","39","restless",0.3,0.3,0.4,0.933464336719415,"false"
"image-keyboard-response",420,299622,"0.0-3.136-1.136","jzz7hoqqukcgmad",977,"110.csv","","null","resources/maskTrios/BBA2.jpg","null","",NA,NA,NA,NA,""
"image-keyboard-response",421,300825,"0.0-3.136-2.136","jzz7hoqqukcgmad",977,"110.csv","","null","resources/images/fishbone.png","null","",NA,NA,NA,NA,""
"image-keyboard-response",422,300841,"0.0-3.137-0.137","jzz7hoqqukcgmad",977,"110.csv","","15.000000000058208","resources/trios/L1T4A3.jpg","38","restless",0.3,0.3,0.4,0.612907844637594,"false"
"image-keyboard-response",423,301243,"0.0-3.137-1.137","jzz7hoqqukcgmad",977,"110.csv","","null","resources/maskTrios/BT4B.jpg","null","",NA,NA,NA,NA,""
"image-keyboard-response",424,302446,"0.0-3.137-2.137","jzz7hoqqukcgmad",977,"110.csv","","null","resources/images/fishbone.png","null","",NA,NA,NA,NA,""
"image-keyboard-response",425,303242,"0.0-3.138-0.138","jzz7hoqqukcgmad",977,"110.csv","","794","resources/trios/L2T1A2.jpg","37","restless",0.3,0.3,0.5,0.295753059716255,"true"
"image-keyboard-response",426,303644,"0.0-3.138-1.138","jzz7hoqqukcgmad",977,"110.csv","","null","resources/maskTrios/L2BB.jpg","null","",NA,NA,NA,NA,""
"image-keyboard-response",427,304847,"0.0-3.138-2.138","jzz7hoqqukcgmad",977,"110.csv","","null","resources/images/coin2.png","null","",NA,NA,NA,NA,""
"image-keyboard-response",428,305126,"0.0-3.139-0.139","jzz7hoqqukcgmad",977,"110.csv","","276","resources/trios/L1T1A2.jpg","37","restless",0.3,0.3,0.6,0.611537442944298,"false"
"image-keyboard-response",429,305529,"0.0-3.139-1.139","jzz7hoqqukcgmad",977,"110.csv","","null","resources/maskTrios/L1BB.jpg","null","",NA,NA,NA,NA,""
"image-keyboard-response",430,306732,"0.0-3.139-2.139","jzz7hoqqukcgmad",977,"110.csv","","null","resources/images/fishbone.png","null","",NA,NA,NA,NA,""
"image-keyboard-response",431,307031,"0.0-3.140-0.140","jzz7hoqqukcgmad",977,"110.csv","","297","resources/trios/L2T1A2.jpg","38","restless",0.3,0.3,0.6,0.548636596765057,"false"
"image-keyboard-response",432,307434,"0.0-3.140-1.140","jzz7hoqqukcgmad",977,"110.csv","","null","resources/maskTrios/BT1B.jpg","null","",NA,NA,NA,NA,""
"image-keyboard-response",433,308637,"0.0-3.140-2.140","jzz7hoqqukcgmad",977,"110.csv","","null","resources/images/fishbone.png","null","",NA,NA,NA,NA,""
"image-keyboard-response",434,308941,"0.0-3.141-0.141","jzz7hoqqukcgmad",977,"110.csv","","303","resources/trios/L1T4A2.jpg","39","restless",0.3,0.3,0.6,0.152694452784663,"true"
"image-keyboard-response",435,309344,"0.0-3.141-1.141","jzz7hoqqukcgmad",977,"110.csv","","null","resources/maskTrios/BBA2.jpg","null","",NA,NA,NA,NA,""
"image-keyboard-response",436,310547,"0.0-3.141-2.141","jzz7hoqqukcgmad",977,"110.csv","","null","resources/images/coin2.png","null","",NA,NA,NA,NA,""
"image-keyboard-response",437,310898,"0.0-3.142-0.142","jzz7hoqqukcgmad",977,"110.csv","","349","resources/trios/L2T4A3.jpg","39","restless",0.3,0.3,0.7,0.290217008406582,"true"
"image-keyboard-response",438,311301,"0.0-3.142-1.142","jzz7hoqqukcgmad",977,"110.csv","","null","resources/maskTrios/BBA3.jpg","null","",NA,NA,NA,NA,""
"image-keyboard-response",439,312504,"0.0-3.142-2.142","jzz7hoqqukcgmad",977,"110.csv","","null","resources/images/coin2.png","null","",NA,NA,NA,NA,""
"image-keyboard-response",440,312810,"0.0-3.143-0.143","jzz7hoqqukcgmad",977,"110.csv","","304","resources/trios/L1T1A3.jpg","39","restless",0.3,0.3,0.8,0.66815476405017,"true"
"image-keyboard-response",441,313213,"0.0-3.143-1.143","jzz7hoqqukcgmad",977,"110.csv","","null","resources/maskTrios/BBA3.jpg","null","",NA,NA,NA,NA,""
"image-keyboard-response",442,314415,"0.0-3.143-2.143","jzz7hoqqukcgmad",977,"110.csv","","null","resources/images/coin2.png","null","",NA,NA,NA,NA,""
"image-keyboard-response",443,314684,"0.0-3.144-0.144","jzz7hoqqukcgmad",977,"110.csv","","265","resources/trios/L2T4A2.jpg","39","restless",0.3,0.3,0.8,0.669424768011805,"true"
"image-keyboard-response",444,315087,"0.0-3.144-1.144","jzz7hoqqukcgmad",977,"110.csv","","null","resources/maskTrios/BBA2.jpg","null","",NA,NA,NA,NA,""
"image-keyboard-response",445,316290,"0.0-3.144-2.144","jzz7hoqqukcgmad",977,"110.csv","","null","resources/images/coin2.png","null","",NA,NA,NA,NA,""
"image-keyboard-response",446,316455,"0.0-3.145-0.145","jzz7hoqqukcgmad",977,"110.csv","","163","resources/trios/L2T1A2.jpg","39","restless",0.3,0.3,0.8,0.186824924572856,"true"
"image-keyboard-response",447,316858,"0.0-3.145-1.145","jzz7hoqqukcgmad",977,"110.csv","","null","resources/maskTrios/BBA2.jpg","null","",NA,NA,NA,NA,""
"image-keyboard-response",448,318061,"0.0-3.145-2.145","jzz7hoqqukcgmad",977,"110.csv","","null","resources/images/coin2.png","null","",NA,NA,NA,NA,""
"image-keyboard-response",449,318329,"0.0-3.146-0.146","jzz7hoqqukcgmad",977,"110.csv","","266.0000000000582","resources/trios/L1T4A2.jpg","39","restless",0.2,0.3,0.8,0.816812413883566,"false"
"image-keyboard-response",450,318734,"0.0-3.146-1.146","jzz7hoqqukcgmad",977,"110.csv","","null","resources/maskTrios/BBA2.jpg","null","",NA,NA,NA,NA,""
"image-keyboard-response",451,319937,"0.0-3.146-2.146","jzz7hoqqukcgmad",977,"110.csv","","null","resources/images/fishbone.png","null","",NA,NA,NA,NA,""
"image-keyboard-response",452,320192,"0.0-3.147-0.147","jzz7hoqqukcgmad",977,"110.csv","","252","resources/trios/L1T1A2.jpg","38","restless",0.2,0.3,0.7,0.759012161883959,"false"
"image-keyboard-response",453,320596,"0.0-3.147-1.147","jzz7hoqqukcgmad",977,"110.csv","","null","resources/maskTrios/BT1B.jpg","null","",NA,NA,NA,NA,""
"image-keyboard-response",454,321798,"0.0-3.147-2.147","jzz7hoqqukcgmad",977,"110.csv","","null","resources/images/fishbone.png","null","",NA,NA,NA,NA,""
"image-keyboard-response",455,322564,"0.0-3.148-0.148","jzz7hoqqukcgmad",977,"110.csv","","763","resources/trios/L2T4A2.jpg","37","restless",0.2,0.3,0.7,0.334147077114133,"false"
"image-keyboard-response",456,322967,"0.0-3.148-1.148","jzz7hoqqukcgmad",977,"110.csv","","null","resources/maskTrios/L2BB.jpg","null","",NA,NA,NA,NA,""
"image-keyboard-response",457,324169,"0.0-3.148-2.148","jzz7hoqqukcgmad",977,"110.csv","","null","resources/images/fishbone.png","null","",NA,NA,NA,NA,""
"image-keyboard-response",458,324470,"0.0-3.149-0.149","jzz7hoqqukcgmad",977,"110.csv","","298","resources/trios/L1T4A3.jpg","39","restless",0.1,0.3,0.7,0.124662212561886,"true"
"image-keyboard-response",459,324874,"0.0-3.149-1.149","jzz7hoqqukcgmad",977,"110.csv","","null","resources/maskTrios/BBA3.jpg","null","",NA,NA,NA,NA,""
"image-keyboard-response",460,326076,"0.0-3.149-2.149","jzz7hoqqukcgmad",977,"110.csv","","null","resources/images/coin2.png","null","",NA,NA,NA,NA,""
"image-keyboard-response",461,326424,"0.0-3.150-0.150","jzz7hoqqukcgmad",977,"110.csv","","344.9999999999418","resources/trios/L2T1A2.jpg","39","restless",0.1,0.3,0.7,0.367727039413279,"true"
"image-keyboard-response",462,326827,"0.0-3.150-1.150","jzz7hoqqukcgmad",977,"110.csv","","null","resources/maskTrios/BBA2.jpg","null","",NA,NA,NA,NA,""
"image-keyboard-response",463,328030,"0.0-3.150-2.150","jzz7hoqqukcgmad",977,"110.csv","","null","resources/images/coin2.png","null","",NA,NA,NA,NA,""
"image-keyboard-response",464,328607,"0.0-3.151-0.151","jzz7hoqqukcgmad",977,"110.csv","","575","resources/trios/L2T1A2.jpg","39","restless",0.1,0.3,0.7,0.616778844293316,"true"
"image-keyboard-response",465,329010,"0.0-3.151-1.151","jzz7hoqqukcgmad",977,"110.csv","","null","resources/maskTrios/BBA2.jpg","null","",NA,NA,NA,NA,""
"image-keyboard-response",466,330213,"0.0-3.151-2.151","jzz7hoqqukcgmad",977,"110.csv","","null","resources/images/coin2.png","null","",NA,NA,NA,NA,""
"image-keyboard-response",467,330537,"0.0-3.152-0.152","jzz7hoqqukcgmad",977,"110.csv","","322","resources/trios/L2T1A3.jpg","39","restless",0.1,0.3,0.7,0.300841088616159,"true"
"image-keyboard-response",468,330940,"0.0-3.152-1.152","jzz7hoqqukcgmad",977,"110.csv","","null","resources/maskTrios/BBA3.jpg","null","",NA,NA,NA,NA,""
"image-keyboard-response",469,332143,"0.0-3.152-2.152","jzz7hoqqukcgmad",977,"110.csv","","null","resources/images/coin2.png","null","",NA,NA,NA,NA,""
"image-keyboard-response",470,332562,"0.0-3.153-0.153","jzz7hoqqukcgmad",977,"110.csv","","417","resources/trios/L1T1A2.jpg","39","restless",0.1,0.3,0.7,0.58809054418584,"true"
"image-keyboard-response",471,332964,"0.0-3.153-1.153","jzz7hoqqukcgmad",977,"110.csv","","null","resources/maskTrios/BBA2.jpg","null","",NA,NA,NA,NA,""
"image-keyboard-response",472,334167,"0.0-3.153-2.153","jzz7hoqqukcgmad",977,"110.csv","","null","resources/images/coin2.png","null","",NA,NA,NA,NA,""
"image-keyboard-response",473,334545,"0.0-3.154-0.154","jzz7hoqqukcgmad",977,"110.csv","","373","resources/trios/L2T4A3.jpg","39","restless",0.1,0.3,0.6,0.921504729375959,"false"
"image-keyboard-response",474,334949,"0.0-3.154-1.154","jzz7hoqqukcgmad",977,"110.csv","","null","resources/maskTrios/BBA3.jpg","null","",NA,NA,NA,NA,""
"image-keyboard-response",475,336152,"0.0-3.154-2.154","jzz7hoqqukcgmad",977,"110.csv","","null","resources/images/fishbone.png","null","",NA,NA,NA,NA,""
"image-keyboard-response",476,336398,"0.0-3.155-0.155","jzz7hoqqukcgmad",977,"110.csv","","244","resources/trios/L2T1A3.jpg","38","restless",0.1,0.3,0.7,0.907498992004941,"false"
"image-keyboard-response",477,336801,"0.0-3.155-1.155","jzz7hoqqukcgmad",977,"110.csv","","null","resources/maskTrios/BT1B.jpg","null","",NA,NA,NA,NA,""
"image-keyboard-response",478,338004,"0.0-3.155-2.155","jzz7hoqqukcgmad",977,"110.csv","","null","resources/images/fishbone.png","null","",NA,NA,NA,NA,""
"image-keyboard-response",479,338172,"0.0-3.156-0.156","jzz7hoqqukcgmad",977,"110.csv","","166","resources/trios/L1T1A3.jpg","37","restless",0.1,0.3,0.8,0.254688021538577,"false"
"image-keyboard-response",480,338575,"0.0-3.156-1.156","jzz7hoqqukcgmad",977,"110.csv","","null","resources/maskTrios/L1BB.jpg","null","",NA,NA,NA,NA,""
"image-keyboard-response",481,339778,"0.0-3.156-2.156","jzz7hoqqukcgmad",977,"110.csv","","null","resources/images/fishbone.png","null","",NA,NA,NA,NA,""
"image-keyboard-response",482,340080,"0.0-3.157-0.157","jzz7hoqqukcgmad",977,"110.csv","","300","resources/trios/L2T4A2.jpg","39","restless",0.1,0.3,0.8,0.670543652020872,"true"
"image-keyboard-response",483,340484,"0.0-3.157-1.157","jzz7hoqqukcgmad",977,"110.csv","","null","resources/maskTrios/BBA2.jpg","null","",NA,NA,NA,NA,""
"image-keyboard-response",484,341686,"0.0-3.157-2.157","jzz7hoqqukcgmad",977,"110.csv","","null","resources/images/coin2.png","null","",NA,NA,NA,NA,""
"image-keyboard-response",485,341987,"0.0-3.158-0.158","jzz7hoqqukcgmad",977,"110.csv","","299","resources/trios/L2T4A3.jpg","39","restless",0.1,0.3,0.8,0.689178709319362,"true"
"image-keyboard-response",486,342390,"0.0-3.158-1.158","jzz7hoqqukcgmad",977,"110.csv","","null","resources/maskTrios/BBA3.jpg","null","",NA,NA,NA,NA,""
"image-keyboard-response",487,343593,"0.0-3.158-2.158","jzz7hoqqukcgmad",977,"110.csv","","null","resources/images/coin2.png","null","",NA,NA,NA,NA,""
"image-keyboard-response",488,343854,"0.0-3.159-0.159","jzz7hoqqukcgmad",977,"110.csv","","258.0000000000582","resources/trios/L2T1A2.jpg","39","restless",0.1,0.3,0.8,0.265127135488885,"true"
"image-keyboard-response",489,344257,"0.0-3.159-1.159","jzz7hoqqukcgmad",977,"110.csv","","null","resources/maskTrios/BBA2.jpg","null","",NA,NA,NA,NA,""
"image-keyboard-response",490,345459,"0.0-3.159-2.159","jzz7hoqqukcgmad",977,"110.csv","","null","resources/images/coin2.png","null","",NA,NA,NA,NA,""
"image-keyboard-response",491,345772,"0.0-3.160-0.160","jzz7hoqqukcgmad",977,"110.csv","","311","resources/trios/L2T1A2.jpg","39","restless",0.1,0.3,0.7,0.506004291719056,"true"
"image-keyboard-response",492,346176,"0.0-3.160-1.160","jzz7hoqqukcgmad",977,"110.csv","","null","resources/maskTrios/BBA2.jpg","null","",NA,NA,NA,NA,""
"image-keyboard-response",493,347379,"0.0-3.160-2.160","jzz7hoqqukcgmad",977,"110.csv","","null","resources/images/coin2.png","null","",NA,NA,NA,NA,""
"image-keyboard-response",494,347703,"0.0-3.161-0.161","jzz7hoqqukcgmad",977,"110.csv","","320","resources/trios/L2T1A2.jpg","39","restless",0.1,0.3,0.7,0.0257517309289963,"true"
"image-keyboard-response",495,348107,"0.0-3.161-1.161","jzz7hoqqukcgmad",977,"110.csv","","null","resources/maskTrios/BBA2.jpg","null","",NA,NA,NA,NA,""
"image-keyboard-response",496,349310,"0.0-3.161-2.161","jzz7hoqqukcgmad",977,"110.csv","","null","resources/images/coin2.png","null","",NA,NA,NA,NA,""
"image-keyboard-response",497,349599,"0.0-3.162-0.162","jzz7hoqqukcgmad",977,"110.csv","","287","resources/trios/L1T4A2.jpg","39","restless",0.1,0.3,0.7,0.451135359927658,"true"
"image-keyboard-response",498,350003,"0.0-3.162-1.162","jzz7hoqqukcgmad",977,"110.csv","","null","resources/maskTrios/BBA2.jpg","null","",NA,NA,NA,NA,""
"image-keyboard-response",499,351205,"0.0-3.162-2.162","jzz7hoqqukcgmad",977,"110.csv","","null","resources/images/coin2.png","null","",NA,NA,NA,NA,""
"image-keyboard-response",500,351506,"0.0-3.163-0.163","jzz7hoqqukcgmad",977,"110.csv","","298","resources/trios/L2T1A3.jpg","39","restless",0.1,0.3,0.7,0.584533153385089,"true"
"image-keyboard-response",501,351909,"0.0-3.163-1.163","jzz7hoqqukcgmad",977,"110.csv","","null","resources/maskTrios/BBA3.jpg","null","",NA,NA,NA,NA,""
"image-keyboard-response",502,353112,"0.0-3.163-2.163","jzz7hoqqukcgmad",977,"110.csv","","null","resources/images/coin2.png","null","",NA,NA,NA,NA,""
"image-keyboard-response",503,353432,"0.0-3.164-0.164","jzz7hoqqukcgmad",977,"110.csv","","315.9999999999418","resources/trios/L1T1A3.jpg","39","restless",0.1,0.3,0.7,0.226738553295399,"true"
"image-keyboard-response",504,353835,"0.0-3.164-1.164","jzz7hoqqukcgmad",977,"110.csv","","null","resources/maskTrios/BBA3.jpg","null","",NA,NA,NA,NA,""
"image-keyboard-response",505,355038,"0.0-3.164-2.164","jzz7hoqqukcgmad",977,"110.csv","","null","resources/images/coin2.png","null","",NA,NA,NA,NA,""
"image-keyboard-response",506,355382,"0.0-3.165-0.165","jzz7hoqqukcgmad",977,"110.csv","","342.0000000000582","resources/trios/L1T1A3.jpg","39","restless",0.1,0.3,0.7,0.199232574243799,"true"
"image-keyboard-response",507,355785,"0.0-3.165-1.165","jzz7hoqqukcgmad",977,"110.csv","","null","resources/maskTrios/BBA3.jpg","null","",NA,NA,NA,NA,""
"image-keyboard-response",508,356989,"0.0-3.165-2.165","jzz7hoqqukcgmad",977,"110.csv","","null","resources/images/coin2.png","null","",NA,NA,NA,NA,""
"image-keyboard-response",509,357357,"0.0-3.166-0.166","jzz7hoqqukcgmad",977,"110.csv","","354","resources/trios/L1T4A3.jpg","39","restless",0.1,0.3,0.7,0.186595431838292,"true"
"image-keyboard-response",510,357761,"0.0-3.166-1.166","jzz7hoqqukcgmad",977,"110.csv","","null","resources/maskTrios/BBA3.jpg","null","",NA,NA,NA,NA,""
"image-keyboard-response",511,358965,"0.0-3.166-2.166","jzz7hoqqukcgmad",977,"110.csv","","null","resources/images/coin2.png","null","",NA,NA,NA,NA,""
"image-keyboard-response",512,359290,"0.0-3.167-0.167","jzz7hoqqukcgmad",977,"110.csv","","322","resources/trios/L1T1A3.jpg","39","restless",0.1,0.3,0.7,0.100585410902179,"true"
"image-keyboard-response",513,359693,"0.0-3.167-1.167","jzz7hoqqukcgmad",977,"110.csv","","null","resources/maskTrios/BBA3.jpg","null","",NA,NA,NA,NA,""
"image-keyboard-response",514,360896,"0.0-3.167-2.167","jzz7hoqqukcgmad",977,"110.csv","","null","resources/images/coin2.png","null","",NA,NA,NA,NA,""
"image-keyboard-response",515,360999,"0.0-3.168-0.168","jzz7hoqqukcgmad",977,"110.csv","","101","resources/trios/L1T1A2.jpg","39","restless",0.1,0.3,0.7,0.398405276670222,"true"
"image-keyboard-response",516,361402,"0.0-3.168-1.168","jzz7hoqqukcgmad",977,"110.csv","","null","resources/maskTrios/BBA2.jpg","null","",NA,NA,NA,NA,""
"image-keyboard-response",517,362605,"0.0-3.168-2.168","jzz7hoqqukcgmad",977,"110.csv","","null","resources/images/coin2.png","null","",NA,NA,NA,NA,""
"image-keyboard-response",518,362762,"0.0-3.169-0.169","jzz7hoqqukcgmad",977,"110.csv","","155","resources/trios/L2T4A3.jpg","39","restless",0.1,0.3,0.7,0.676616975998922,"true"
"image-keyboard-response",519,363165,"0.0-3.169-1.169","jzz7hoqqukcgmad",977,"110.csv","","null","resources/maskTrios/BBA3.jpg","null","",NA,NA,NA,NA,""
"image-keyboard-response",520,364368,"0.0-3.169-2.169","jzz7hoqqukcgmad",977,"110.csv","","null","resources/images/coin2.png","null","",NA,NA,NA,NA,""
"image-keyboard-response",521,364703,"0.0-3.170-0.170","jzz7hoqqukcgmad",977,"110.csv","","333","resources/trios/L1T4A2.jpg","39","restless",0.1,0.3,0.7,0.825907691537004,"false"
"image-keyboard-response",522,365106,"0.0-3.170-1.170","jzz7hoqqukcgmad",977,"110.csv","","null","resources/maskTrios/BBA2.jpg","null","",NA,NA,NA,NA,""
"image-keyboard-response",523,366310,"0.0-3.170-2.170","jzz7hoqqukcgmad",977,"110.csv","","null","resources/images/fishbone.png","null","",NA,NA,NA,NA,""
"image-keyboard-response",524,366589,"0.0-3.171-0.171","jzz7hoqqukcgmad",977,"110.csv","","277","resources/trios/L2T1A3.jpg","38","restless",0.2,0.3,0.7,0.115897777127382,"true"
"image-keyboard-response",525,366991,"0.0-3.171-1.171","jzz7hoqqukcgmad",977,"110.csv","","null","resources/maskTrios/BT1B.jpg","null","",NA,NA,NA,NA,""
"image-keyboard-response",526,368194,"0.0-3.171-2.171","jzz7hoqqukcgmad",977,"110.csv","","null","resources/images/coin2.png","null","",NA,NA,NA,NA,""
"image-keyboard-response",527,368489,"0.0-3.172-0.172","jzz7hoqqukcgmad",977,"110.csv","","293","resources/trios/L1T1A3.jpg","38","restless",0.2,0.3,0.7,0.782503459140453,"false"
"image-keyboard-response",528,368892,"0.0-3.172-1.172","jzz7hoqqukcgmad",977,"110.csv","","null","resources/maskTrios/BT1B.jpg","null","",NA,NA,NA,NA,""
"image-keyboard-response",529,370094,"0.0-3.172-2.172","jzz7hoqqukcgmad",977,"110.csv","","null","resources/images/fishbone.png","null","",NA,NA,NA,NA,""
"image-keyboard-response",530,370317,"0.0-3.173-0.173","jzz7hoqqukcgmad",977,"110.csv","","221.0000000000582","resources/trios/L2T1A3.jpg","37","restless",0.2,0.3,0.6,0.845079203280886,"false"
"image-keyboard-response",531,370720,"0.0-3.173-1.173","jzz7hoqqukcgmad",977,"110.csv","","null","resources/maskTrios/L2BB.jpg","null","",NA,NA,NA,NA,""
"image-keyboard-response",532,371923,"0.0-3.173-2.173","jzz7hoqqukcgmad",977,"110.csv","","null","resources/images/fishbone.png","null","",NA,NA,NA,NA,""
"image-keyboard-response",533,372178,"0.0-3.174-0.174","jzz7hoqqukcgmad",977,"110.csv","","252.9999999999418","resources/trios/L1T4A3.jpg","38","restless",0.2,0.3,0.6,0.419552201789991,"false"
"image-keyboard-response",534,372581,"0.0-3.174-1.174","jzz7hoqqukcgmad",977,"110.csv","","null","resources/maskTrios/BT4B.jpg","null","",NA,NA,NA,NA,""
"image-keyboard-response",535,373784,"0.0-3.174-2.174","jzz7hoqqukcgmad",977,"110.csv","","null","resources/images/fishbone.png","null","",NA,NA,NA,NA,""
"image-keyboard-response",536,374070,"0.0-3.175-0.175","jzz7hoqqukcgmad",977,"110.csv","","285","resources/trios/L1T1A2.jpg","39","restless",0.2,0.3,0.6,0.931430511473871,"false"
"image-keyboard-response",537,374473,"0.0-3.175-1.175","jzz7hoqqukcgmad",977,"110.csv","","null","resources/maskTrios/BBA2.jpg","null","",NA,NA,NA,NA,""
"image-keyboard-response",538,375676,"0.0-3.175-2.175","jzz7hoqqukcgmad",977,"110.csv","","null","resources/images/fishbone.png","null","",NA,NA,NA,NA,""
"image-keyboard-response",539,375972,"0.0-3.176-0.176","jzz7hoqqukcgmad",977,"110.csv","","294","resources/trios/L1T1A3.jpg","37","restless",0.2,0.3,0.6,0.072726176890561,"true"
"image-keyboard-response",540,376375,"0.0-3.176-1.176","jzz7hoqqukcgmad",977,"110.csv","","null","resources/maskTrios/L1BB.jpg","null","",NA,NA,NA,NA,""
"image-keyboard-response",541,377578,"0.0-3.176-2.176","jzz7hoqqukcgmad",977,"110.csv","","null","resources/images/coin2.png","null","",NA,NA,NA,NA,""
"image-keyboard-response",542,377887,"0.0-3.177-0.177","jzz7hoqqukcgmad",977,"110.csv","","306","resources/trios/L2T1A3.jpg","37","restless",0.2,0.3,0.6,0.081781704019081,"true"
"image-keyboard-response",543,378290,"0.0-3.177-1.177","jzz7hoqqukcgmad",977,"110.csv","","null","resources/maskTrios/L2BB.jpg","null","",NA,NA,NA,NA,""
"image-keyboard-response",544,379493,"0.0-3.177-2.177","jzz7hoqqukcgmad",977,"110.csv","","null","resources/images/coin2.png","null","",NA,NA,NA,NA,""
"image-keyboard-response",545,379803,"0.0-3.178-0.178","jzz7hoqqukcgmad",977,"110.csv","","306","resources/trios/L2T1A3.jpg","37","restless",0.2,0.4,0.6,0.321320749244499,"false"
"image-keyboard-response",546,380207,"0.0-3.178-1.178","jzz7hoqqukcgmad",977,"110.csv","","null","resources/maskTrios/L2BB.jpg","null","",NA,NA,NA,NA,""
"image-keyboard-response",547,381409,"0.0-3.178-2.178","jzz7hoqqukcgmad",977,"110.csv","","null","resources/images/fishbone.png","null","",NA,NA,NA,NA,""
"image-keyboard-response",548,381721,"0.0-3.179-0.179","jzz7hoqqukcgmad",977,"110.csv","","309","resources/trios/L2T4A3.jpg","38","restless",0.3,0.5,0.6,0.273854974245391,"true"
"image-keyboard-response",549,382124,"0.0-3.179-1.179","jzz7hoqqukcgmad",977,"110.csv","","null","resources/maskTrios/BT4B.jpg","null","",NA,NA,NA,NA,""
"image-keyboard-response",550,383327,"0.0-3.179-2.179","jzz7hoqqukcgmad",977,"110.csv","","null","resources/images/coin2.png","null","",NA,NA,NA,NA,""
"image-keyboard-response",551,383595,"0.0-3.180-0.180","jzz7hoqqukcgmad",977,"110.csv","","265.9999999999418","resources/trios/L1T1A2.jpg","38","restless",0.3,0.5,0.6,0.889161142081105,"false"
"image-keyboard-response",552,383999,"0.0-3.180-1.180","jzz7hoqqukcgmad",977,"110.csv","","null","resources/maskTrios/BT1B.jpg","null","",NA,NA,NA,NA,""
"image-keyboard-response",553,385201,"0.0-3.180-2.180","jzz7hoqqukcgmad",977,"110.csv","","null","resources/images/fishbone.png","null","",NA,NA,NA,NA,""
"image-keyboard-response",554,385486,"0.0-3.181-0.181","jzz7hoqqukcgmad",977,"110.csv","","281.9999999999418","resources/trios/L2T1A2.jpg","39","restless",0.3,0.5,0.6,0.670071236945193,"false"
"image-keyboard-response",555,385889,"0.0-3.181-1.181","jzz7hoqqukcgmad",977,"110.csv","","null","resources/maskTrios/BBA2.jpg","null","",NA,NA,NA,NA,""
"image-keyboard-response",556,387092,"0.0-3.181-2.181","jzz7hoqqukcgmad",977,"110.csv","","null","resources/images/fishbone.png","null","",NA,NA,NA,NA,""
"image-keyboard-response",557,387321,"0.0-3.182-0.182","jzz7hoqqukcgmad",977,"110.csv","","227","resources/trios/L1T4A3.jpg","38","restless",0.4,0.6,0.6,0.346255459400784,"true"
"image-keyboard-response",558,387724,"0.0-3.182-1.182","jzz7hoqqukcgmad",977,"110.csv","","null","resources/maskTrios/BT4B.jpg","null","",NA,NA,NA,NA,""
"image-keyboard-response",559,388927,"0.0-3.182-2.182","jzz7hoqqukcgmad",977,"110.csv","","null","resources/images/coin2.png","null","",NA,NA,NA,NA,""
"image-keyboard-response",560,389311,"0.0-3.183-0.183","jzz7hoqqukcgmad",977,"110.csv","","382","resources/trios/L2T1A3.jpg","38","restless",0.4,0.6,0.6,0.0936891841408666,"true"
"image-keyboard-response",561,389715,"0.0-3.183-1.183","jzz7hoqqukcgmad",977,"110.csv","","null","resources/maskTrios/BT1B.jpg","null","",NA,NA,NA,NA,""
"image-keyboard-response",562,390918,"0.0-3.183-2.183","jzz7hoqqukcgmad",977,"110.csv","","null","resources/images/coin2.png","null","",NA,NA,NA,NA,""
"image-keyboard-response",563,391210,"0.0-3.184-0.184","jzz7hoqqukcgmad",977,"110.csv","","290","resources/trios/L2T4A3.jpg","38","restless",0.4,0.6,0.6,0.628381677819917,"false"
"image-keyboard-response",564,391613,"0.0-3.184-1.184","jzz7hoqqukcgmad",977,"110.csv","","null","resources/maskTrios/BT4B.jpg","null","",NA,NA,NA,NA,""
"image-keyboard-response",565,392815,"0.0-3.184-2.184","jzz7hoqqukcgmad",977,"110.csv","","null","resources/images/fishbone.png","null","",NA,NA,NA,NA,""
"image-keyboard-response",566,393159,"0.0-3.185-0.185","jzz7hoqqukcgmad",977,"110.csv","","341.9999999999418","resources/trios/L1T4A2.jpg","37","restless",0.4,0.6,0.6,0.318669330496906,"true"
"image-keyboard-response",567,393565,"0.0-3.185-1.185","jzz7hoqqukcgmad",977,"110.csv","","null","resources/maskTrios/L1BB.jpg","null","",NA,NA,NA,NA,""
"image-keyboard-response",568,394768,"0.0-3.185-2.185","jzz7hoqqukcgmad",977,"110.csv","","null","resources/images/coin2.png","null","",NA,NA,NA,NA,""
"image-keyboard-response",569,395128,"0.0-3.186-0.186","jzz7hoqqukcgmad",977,"110.csv","","358","resources/trios/L2T1A3.jpg","37","restless",0.4,0.6,0.6,0.458977409659228,"false"
"image-keyboard-response",570,395530,"0.0-3.186-1.186","jzz7hoqqukcgmad",977,"110.csv","","null","resources/maskTrios/L2BB.jpg","null","",NA,NA,NA,NA,""
"image-keyboard-response",571,396733,"0.0-3.186-2.186","jzz7hoqqukcgmad",977,"110.csv","","null","resources/images/fishbone.png","null","",NA,NA,NA,NA,""
"image-keyboard-response",572,397069,"0.0-3.187-0.187","jzz7hoqqukcgmad",977,"110.csv","","333","resources/trios/L1T1A3.jpg","39","restless",0.4,0.6,0.6,0.355662634751205,"true"
"image-keyboard-response",573,397472,"0.0-3.187-1.187","jzz7hoqqukcgmad",977,"110.csv","","null","resources/maskTrios/BBA3.jpg","null","",NA,NA,NA,NA,""
"image-keyboard-response",574,398674,"0.0-3.187-2.187","jzz7hoqqukcgmad",977,"110.csv","","null","resources/images/coin2.png","null","",NA,NA,NA,NA,""
"image-keyboard-response",575,399045,"0.0-3.188-0.188","jzz7hoqqukcgmad",977,"110.csv","","369","resources/trios/L1T4A2.jpg","39","restless",0.4,0.6,0.6,0.841941762511182,"false"
"image-keyboard-response",576,399449,"0.0-3.188-1.188","jzz7hoqqukcgmad",977,"110.csv","","null","resources/maskTrios/BBA2.jpg","null","",NA,NA,NA,NA,""
"image-keyboard-response",577,400651,"0.0-3.188-2.188","jzz7hoqqukcgmad",977,"110.csv","","null","resources/images/fishbone.png","null","",NA,NA,NA,NA,""
"image-keyboard-response",578,400951,"0.0-3.189-0.189","jzz7hoqqukcgmad",977,"110.csv","","297","resources/trios/L1T4A2.jpg","38","restless",0.4,0.6,0.6,0.192800151999194,"true"
"image-keyboard-response",579,401354,"0.0-3.189-1.189","jzz7hoqqukcgmad",977,"110.csv","","null","resources/maskTrios/BT4B.jpg","null","",NA,NA,NA,NA,""
"image-keyboard-response",580,402557,"0.0-3.189-2.189","jzz7hoqqukcgmad",977,"110.csv","","null","resources/images/coin2.png","null","",NA,NA,NA,NA,""
"image-keyboard-response",581,402844,"0.0-3.190-0.190","jzz7hoqqukcgmad",977,"110.csv","","284","resources/trios/L2T1A2.jpg","38","restless",0.4,0.6,0.6,0.0889686976134156,"true"
"image-keyboard-response",582,403247,"0.0-3.190-1.190","jzz7hoqqukcgmad",977,"110.csv","","null","resources/maskTrios/BT1B.jpg","null","",NA,NA,NA,NA,""
"image-keyboard-response",583,404450,"0.0-3.190-2.190","jzz7hoqqukcgmad",977,"110.csv","","null","resources/images/coin2.png","null","",NA,NA,NA,NA,""
"image-keyboard-response",584,404592,"0.0-3.191-0.191","jzz7hoqqukcgmad",977,"110.csv","","140","resources/trios/L1T1A3.jpg","38","restless",0.4,0.6,0.6,0.613491949702127,"false"
"image-keyboard-response",585,404997,"0.0-3.191-1.191","jzz7hoqqukcgmad",977,"110.csv","","null","resources/maskTrios/BT1B.jpg","null","",NA,NA,NA,NA,""
"image-keyboard-response",586,406200,"0.0-3.191-2.191","jzz7hoqqukcgmad",977,"110.csv","","null","resources/images/fishbone.png","null","",NA,NA,NA,NA,""
"image-keyboard-response",587,406378,"0.0-3.192-0.192","jzz7hoqqukcgmad",977,"110.csv","","175","resources/trios/L2T1A2.jpg","37","restless",0.4,0.6,0.6,0.198378861711608,"true"
"image-keyboard-response",588,406781,"0.0-3.192-1.192","jzz7hoqqukcgmad",977,"110.csv","","null","resources/maskTrios/L2BB.jpg","null","",NA,NA,NA,NA,""
"image-keyboard-response",589,407984,"0.0-3.192-2.192","jzz7hoqqukcgmad",977,"110.csv","","null","resources/images/coin2.png","null","",NA,NA,NA,NA,""
"image-keyboard-response",590,408277,"0.0-3.193-0.193","jzz7hoqqukcgmad",977,"110.csv","","291","resources/trios/L2T4A2.jpg","37","restless",0.4,0.6,0.6,0.919574598471219,"false"
"image-keyboard-response",591,408680,"0.0-3.193-1.193","jzz7hoqqukcgmad",977,"110.csv","","null","resources/maskTrios/L2BB.jpg","null","",NA,NA,NA,NA,""
"image-keyboard-response",592,409882,"0.0-3.193-2.193","jzz7hoqqukcgmad",977,"110.csv","","null","resources/images/fishbone.png","null","",NA,NA,NA,NA,""
"image-keyboard-response",593,410050,"0.0-3.194-0.194","jzz7hoqqukcgmad",977,"110.csv","","165.0000000000582","resources/trios/L2T1A2.jpg","39","restless",0.4,0.6,0.6,0.241371390516262,"true"
"image-keyboard-response",594,410453,"0.0-3.194-1.194","jzz7hoqqukcgmad",977,"110.csv","","null","resources/maskTrios/BBA2.jpg","null","",NA,NA,NA,NA,""
"image-keyboard-response",595,411656,"0.0-3.194-2.194","jzz7hoqqukcgmad",977,"110.csv","","null","resources/images/coin2.png","null","",NA,NA,NA,NA,""
"image-keyboard-response",596,411949,"0.0-3.195-0.195","jzz7hoqqukcgmad",977,"110.csv","","290.0000000000582","resources/trios/L1T4A3.jpg","39","restless",0.4,0.6,0.6,0.859537330658992,"false"
"image-keyboard-response",597,412353,"0.0-3.195-1.195","jzz7hoqqukcgmad",977,"110.csv","","null","resources/maskTrios/BBA3.jpg","null","",NA,NA,NA,NA,""
"image-keyboard-response",598,413556,"0.0-3.195-2.195","jzz7hoqqukcgmad",977,"110.csv","","null","resources/images/fishbone.png","null","",NA,NA,NA,NA,""
"image-keyboard-response",599,413661,"0.0-3.196-0.196","jzz7hoqqukcgmad",977,"110.csv","","102","resources/trios/L1T4A3.jpg","38","restless",0.4,0.7,0.5,0.942743110806895,"false"
"image-keyboard-response",600,414064,"0.0-3.196-1.196","jzz7hoqqukcgmad",977,"110.csv","","null","resources/maskTrios/BT4B.jpg","null","",NA,NA,NA,NA,""
"image-keyboard-response",601,415266,"0.0-3.196-2.196","jzz7hoqqukcgmad",977,"110.csv","","null","resources/images/fishbone.png","null","",NA,NA,NA,NA,""
"image-keyboard-response",602,415567,"0.0-3.197-0.197","jzz7hoqqukcgmad",977,"110.csv","","299.0000000000582","resources/trios/L2T1A3.jpg","37","restless",0.4,0.7,0.5,0.409076219252612,"false"
"image-keyboard-response",603,415969,"0.0-3.197-1.197","jzz7hoqqukcgmad",977,"110.csv","","null","resources/maskTrios/L2BB.jpg","null","",NA,NA,NA,NA,""
"image-keyboard-response",604,417172,"0.0-3.197-2.197","jzz7hoqqukcgmad",977,"110.csv","","null","resources/images/fishbone.png","null","",NA,NA,NA,NA,""
"image-keyboard-response",605,417448,"0.0-3.198-0.198","jzz7hoqqukcgmad",977,"110.csv","","272","resources/trios/L1T1A3.jpg","39","restless",0.5,0.7,0.5,0.836693928548679,"false"
"image-keyboard-response",606,417851,"0.0-3.198-1.198","jzz7hoqqukcgmad",977,"110.csv","","null","resources/maskTrios/BBA3.jpg","null","",NA,NA,NA,NA,""
"image-keyboard-response",607,419054,"0.0-3.198-2.198","jzz7hoqqukcgmad",977,"110.csv","","null","resources/images/fishbone.png","null","",NA,NA,NA,NA,""
"image-keyboard-response",608,419302,"0.0-3.199-0.199","jzz7hoqqukcgmad",977,"110.csv","","246","resources/trios/L1T1A2.jpg","38","restless",0.5,0.7,0.5,0.802050151966681,"false"
"image-keyboard-response",609,419704,"0.0-3.199-1.199","jzz7hoqqukcgmad",977,"110.csv","","null","resources/maskTrios/BT1B.jpg","null","",NA,NA,NA,NA,""
"image-keyboard-response",610,420906,"0.0-3.199-2.199","jzz7hoqqukcgmad",977,"110.csv","","null","resources/images/fishbone.png","null","",NA,NA,NA,NA,""
"image-keyboard-response",611,421204,"0.0-3.200-0.200","jzz7hoqqukcgmad",977,"110.csv","","296","resources/trios/L2T1A2.jpg","39","restless",0.5,0.7,0.5,0.336719414989854,"true"
"image-keyboard-response",612,421607,"0.0-3.200-1.200","jzz7hoqqukcgmad",977,"110.csv","","null","resources/maskTrios/BBA2.jpg","null","",NA,NA,NA,NA,""
"image-keyboard-response",613,422810,"0.0-3.200-2.200","jzz7hoqqukcgmad",977,"110.csv","","null","resources/images/coin2.png","null","",NA,NA,NA,NA,""
"image-keyboard-response",614,423110,"0.0-3.201-0.201","jzz7hoqqukcgmad",977,"110.csv","","297","resources/trios/L2T1A2.jpg","39","restless",0.5,0.7,0.4,0.270702162326994,"true"
"image-keyboard-response",615,423513,"0.0-3.201-1.201","jzz7hoqqukcgmad",977,"110.csv","","null","resources/maskTrios/BBA2.jpg","null","",NA,NA,NA,NA,""
"image-keyboard-response",616,424716,"0.0-3.201-2.201","jzz7hoqqukcgmad",977,"110.csv","","null","resources/images/coin2.png","null","",NA,NA,NA,NA,""
"image-keyboard-response",617,425029,"0.0-3.202-0.202","jzz7hoqqukcgmad",977,"110.csv","","311","resources/trios/L2T1A2.jpg","39","restless",0.5,0.7,0.5,0.426890929399799,"true"
"image-keyboard-response",618,425432,"0.0-3.202-1.202","jzz7hoqqukcgmad",977,"110.csv","","null","resources/maskTrios/BBA2.jpg","null","",NA,NA,NA,NA,""
