"trial_type","trial_index","time_elapsed","internal_node_id","subject","participantCode","walkNumber","success","rt","stimulus","key_press","test_part","leftProb","midProb","rightProb","generatedNum","correct"
"pavlovia",0,1099,"0.0-0.0","248j921sqm4rcgz",111,"37.csv","","","","","",NA,NA,NA,NA,""
"fullscreen",1,4977,"0.0-1.0","248j921sqm4rcgz",111,"37.csv","true","","","","",NA,NA,NA,NA,""
"html-keyboard-response",2,20796,"0.0-2.0-0.0","248j921sqm4rcgz",111,"37.csv","","15818.600000143051","<p><font size='6'>Arrrgh!</p></font><p>Can you be the best pirate? Try to find lots of gold! But beware, some islands have more gold than others, and over time, the island with the most gold may change. Can YOU figure it out? </p><font size='6'>GOOD LUCK, CAPTAIN!!!</font><p>Press any key to begin</p>","13","",NA,NA,NA,NA,""
"image-keyboard-response",3,23798,"0.0-2.0-1.0","248j921sqm4rcgz",111,"37.csv","","null","resources/image_sets/111.png","null","",NA,NA,NA,NA,""
"image-keyboard-response",4,37779,"0.0-2.0-2.0","248j921sqm4rcgz",111,"37.csv","","13979.399999856949","resources/image_sets/left_highlight.png","37","",NA,NA,NA,NA,""
"image-keyboard-response",5,41996,"0.0-2.0-3.0","248j921sqm4rcgz",111,"37.csv","","4214.600000143051","resources/image_sets/mid_highlight.png","38","",NA,NA,NA,NA,""
"image-keyboard-response",6,44210,"0.0-2.0-4.0","248j921sqm4rcgz",111,"37.csv","","2212.5999999046326","resources/image_sets/right_highlight.png","39","",NA,NA,NA,NA,""
"image-keyboard-response",7,46755,"0.0-2.0-5.0","248j921sqm4rcgz",111,"37.csv","","2543.5999999046326","resources/image_sets/111.png","13","",NA,NA,NA,NA,""
"image-keyboard-response",8,49831,"0.0-2.0-6.0","248j921sqm4rcgz",111,"37.csv","","3074.7999999523163","resources/images/coin2.png","13","",NA,NA,NA,NA,""
"image-keyboard-response",9,52145,"0.0-2.0-7.0","248j921sqm4rcgz",111,"37.csv","","2313.5","resources/images/fishbone.png","13","",NA,NA,NA,NA,""
"html-keyboard-response",10,58760,"0.0-2.0-8.0","248j921sqm4rcgz",111,"37.csv","","6612.900000095367","<p>Your first journey will be a long one, but you will get a well deserved break at the end</p><p>After the break you will have four more journeys, but each will be much shorter than the first, and you will have breaks in between each</p><p>Press Enter to begin</p>","13","",NA,NA,NA,NA,""
"image-keyboard-response",11,60813,"0.0-3.0-0.0","248j921sqm4rcgz",111,"37.csv","","2051.4000000953674","resources/trios/L4T1A1.jpg","38","restless",0.7,0.3,0.9,0.134013404496497,"true"
"image-keyboard-response",12,61230,"0.0-3.0-1.0","248j921sqm4rcgz",111,"37.csv","","null","resources/maskTrios/BT1B.jpg","null","",NA,NA,NA,NA,""
"image-keyboard-response",13,62455,"0.0-3.0-2.0","248j921sqm4rcgz",111,"37.csv","","null","resources/images/coin2.png","null","",NA,NA,NA,NA,""
"image-keyboard-response",14,64453,"0.0-3.1-0.1","248j921sqm4rcgz",111,"37.csv","","1994.8999998569489","resources/trios/L1T4A3.jpg","39","restless",0.7,0.3,0.8,0.86385177799378,"false"
"image-keyboard-response",15,64858,"0.0-3.1-1.1","248j921sqm4rcgz",111,"37.csv","","null","resources/maskTrios/BBA3.jpg","null","",NA,NA,NA,NA,""
"image-keyboard-response",16,66068,"0.0-3.1-2.1","248j921sqm4rcgz",111,"37.csv","","null","resources/images/fishbone.png","null","",NA,NA,NA,NA,""
"image-keyboard-response",17,67041,"0.0-3.2-0.2","248j921sqm4rcgz",111,"37.csv","","972.8000001907349","resources/trios/L1T1A1.jpg","37","restless",0.7,0.3,0.8,0.109999501142505,"true"
"image-keyboard-response",18,67449,"0.0-3.2-1.2","248j921sqm4rcgz",111,"37.csv","","null","resources/maskTrios/L1BB.jpg","null","",NA,NA,NA,NA,""
"image-keyboard-response",19,68658,"0.0-3.2-2.2","248j921sqm4rcgz",111,"37.csv","","null","resources/images/coin2.png","null","",NA,NA,NA,NA,""
"image-keyboard-response",20,71485,"0.0-3.3-0.3","248j921sqm4rcgz",111,"37.csv","","2825.399999856949","resources/trios/L4T4A1.jpg","38","restless",0.7,0.3,0.8,0.0419175321461973,"true"
"image-keyboard-response",21,71897,"0.0-3.3-1.3","248j921sqm4rcgz",111,"37.csv","","null","resources/maskTrios/BT4B.jpg","null","",NA,NA,NA,NA,""
"image-keyboard-response",22,73106,"0.0-3.3-2.3","248j921sqm4rcgz",111,"37.csv","","null","resources/images/coin2.png","null","",NA,NA,NA,NA,""
"image-keyboard-response",23,73955,"0.0-3.4-0.4","248j921sqm4rcgz",111,"37.csv","","848.0999999046326","resources/trios/L1T4A1.jpg","39","restless",0.6,0.4,0.8,0.193122986899019,"true"
"image-keyboard-response",24,74364,"0.0-3.4-1.4","248j921sqm4rcgz",111,"37.csv","","null","resources/maskTrios/BBA1.jpg","null","",NA,NA,NA,NA,""
"image-keyboard-response",25,75578,"0.0-3.4-2.4","248j921sqm4rcgz",111,"37.csv","","null","resources/images/coin2.png","null","",NA,NA,NA,NA,""
"image-keyboard-response",26,75996,"0.0-3.5-0.5","248j921sqm4rcgz",111,"37.csv","","416.40000009536743","resources/trios/L4T1A1.jpg","37","restless",0.6,0.4,0.8,0.502852238409522,"true"
"image-keyboard-response",27,76412,"0.0-3.5-1.5","248j921sqm4rcgz",111,"37.csv","","null","resources/maskTrios/L4BB.jpg","null","",NA,NA,NA,NA,""
"image-keyboard-response",28,77622,"0.0-3.5-2.5","248j921sqm4rcgz",111,"37.csv","","null","resources/images/coin2.png","null","",NA,NA,NA,NA,""
"image-keyboard-response",29,78045,"0.0-3.6-0.6","248j921sqm4rcgz",111,"37.csv","","421.60000014305115","resources/trios/L1T1A3.jpg","38","restless",0.6,0.4,0.8,0.563631091308028,"false"
"image-keyboard-response",30,78458,"0.0-3.6-1.6","248j921sqm4rcgz",111,"37.csv","","null","resources/maskTrios/BT1B.jpg","null","",NA,NA,NA,NA,""
"image-keyboard-response",31,79672,"0.0-3.6-2.6","248j921sqm4rcgz",111,"37.csv","","null","resources/images/fishbone.png","null","",NA,NA,NA,NA,""
"image-keyboard-response",32,80977,"0.0-3.7-0.7","248j921sqm4rcgz",111,"37.csv","","1304.0999999046326","resources/trios/L1T1A3.jpg","39","restless",0.6,0.4,0.7,0.252773823620149,"true"
"image-keyboard-response",33,81393,"0.0-3.7-1.7","248j921sqm4rcgz",111,"37.csv","","null","resources/maskTrios/BBA3.jpg","null","",NA,NA,NA,NA,""
"image-keyboard-response",34,82605,"0.0-3.7-2.7","248j921sqm4rcgz",111,"37.csv","","null","resources/images/coin2.png","null","",NA,NA,NA,NA,""
"image-keyboard-response",35,83051,"0.0-3.8-0.8","248j921sqm4rcgz",111,"37.csv","","444.2999999523163","resources/trios/L1T1A3.jpg","37","restless",0.6,0.5,0.7,0.61808235172498,"false"
"image-keyboard-response",36,83457,"0.0-3.8-1.8","248j921sqm4rcgz",111,"37.csv","","null","resources/maskTrios/L1BB.jpg","null","",NA,NA,NA,NA,""
"image-keyboard-response",37,84669,"0.0-3.8-2.8","248j921sqm4rcgz",111,"37.csv","","null","resources/images/fishbone.png","null","",NA,NA,NA,NA,""
"image-keyboard-response",38,85285,"0.0-3.9-0.9","248j921sqm4rcgz",111,"37.csv","","614.2000000476837","resources/trios/L4T1A3.jpg","38","restless",0.6,0.5,0.6,0.197735245890351,"true"
"image-keyboard-response",39,85696,"0.0-3.9-1.9","248j921sqm4rcgz",111,"37.csv","","null","resources/maskTrios/BT1B.jpg","null","",NA,NA,NA,NA,""
"image-keyboard-response",40,86905,"0.0-3.9-2.9","248j921sqm4rcgz",111,"37.csv","","null","resources/images/coin2.png","null","",NA,NA,NA,NA,""
"image-keyboard-response",41,89424,"0.0-3.10-0.10","248j921sqm4rcgz",111,"37.csv","","2518.4000000953674","resources/trios/L1T4A3.jpg","39","restless",0.6,0.5,0.6,0.990272849915828,"false"
"image-keyboard-response",42,89836,"0.0-3.10-1.10","248j921sqm4rcgz",111,"37.csv","","null","resources/maskTrios/BBA3.jpg","null","",NA,NA,NA,NA,""
"image-keyboard-response",43,91044,"0.0-3.10-2.10","248j921sqm4rcgz",111,"37.csv","","null","resources/images/fishbone.png","null","",NA,NA,NA,NA,""
"image-keyboard-response",44,91600,"0.0-3.11-0.11","248j921sqm4rcgz",111,"37.csv","","555.3999998569489","resources/trios/L1T1A3.jpg","37","restless",0.6,0.5,0.6,0.796306428602015,"false"
"image-keyboard-response",45,92018,"0.0-3.11-1.11","248j921sqm4rcgz",111,"37.csv","","null","resources/maskTrios/L1BB.jpg","null","",NA,NA,NA,NA,""
"image-keyboard-response",46,93231,"0.0-3.11-2.11","248j921sqm4rcgz",111,"37.csv","","null","resources/images/fishbone.png","null","",NA,NA,NA,NA,""
"image-keyboard-response",47,94879,"0.0-3.12-0.12","248j921sqm4rcgz",111,"37.csv","","1645.7999999523163","resources/trios/L4T1A1.jpg","39","restless",0.5,0.5,0.6,0.562055428437932,"true"
"image-keyboard-response",48,95289,"0.0-3.12-1.12","248j921sqm4rcgz",111,"37.csv","","null","resources/maskTrios/BBA1.jpg","null","",NA,NA,NA,NA,""
"image-keyboard-response",49,96507,"0.0-3.12-2.12","248j921sqm4rcgz",111,"37.csv","","null","resources/images/coin2.png","null","",NA,NA,NA,NA,""
"image-keyboard-response",50,96866,"0.0-3.13-0.13","248j921sqm4rcgz",111,"37.csv","","358.59999990463257","resources/trios/L4T1A3.jpg","37","restless",0.4,0.5,0.6,0.758104516614084,"false"
"image-keyboard-response",51,97277,"0.0-3.13-1.13","248j921sqm4rcgz",111,"37.csv","","null","resources/maskTrios/L4BB.jpg","null","",NA,NA,NA,NA,""
"image-keyboard-response",52,98489,"0.0-3.13-2.13","248j921sqm4rcgz",111,"37.csv","","null","resources/images/fishbone.png","null","",NA,NA,NA,NA,""
"image-keyboard-response",53,99344,"0.0-3.14-0.14","248j921sqm4rcgz",111,"37.csv","","854.6000001430511","resources/trios/L4T4A1.jpg","38","restless",0.4,0.5,0.6,0.670474980655048,"false"
"image-keyboard-response",54,99761,"0.0-3.14-1.14","248j921sqm4rcgz",111,"37.csv","","null","resources/maskTrios/BT4B.jpg","null","",NA,NA,NA,NA,""
"image-keyboard-response",55,100969,"0.0-3.14-2.14","248j921sqm4rcgz",111,"37.csv","","null","resources/images/fishbone.png","null","",NA,NA,NA,NA,""
"image-keyboard-response",56,101249,"0.0-3.15-0.15","248j921sqm4rcgz",111,"37.csv","","278.69999980926514","resources/trios/L1T4A3.jpg","39","restless",0.4,0.5,0.5,0.405570605527048,"true"
"image-keyboard-response",57,101665,"0.0-3.15-1.15","248j921sqm4rcgz",111,"37.csv","","null","resources/maskTrios/BBA3.jpg","null","",NA,NA,NA,NA,""
"image-keyboard-response",58,102884,"0.0-3.15-2.15","248j921sqm4rcgz",111,"37.csv","","null","resources/images/coin2.png","null","",NA,NA,NA,NA,""
"image-keyboard-response",59,103544,"0.0-3.16-0.16","248j921sqm4rcgz",111,"37.csv","","658.2999999523163","resources/trios/L4T4A3.jpg","37","restless",0.4,0.5,0.5,0.825358179281916,"false"
"image-keyboard-response",60,103961,"0.0-3.16-1.16","248j921sqm4rcgz",111,"37.csv","","null","resources/maskTrios/L4BB.jpg","null","",NA,NA,NA,NA,""
"image-keyboard-response",61,105177,"0.0-3.16-2.16","248j921sqm4rcgz",111,"37.csv","","null","resources/images/fishbone.png","null","",NA,NA,NA,NA,""
"image-keyboard-response",62,105536,"0.0-3.17-0.17","248j921sqm4rcgz",111,"37.csv","","357.30000019073486","resources/trios/L4T1A3.jpg","39","restless",0.4,0.5,0.5,0.24130680914718,"true"
"image-keyboard-response",63,105959,"0.0-3.17-1.17","248j921sqm4rcgz",111,"37.csv","","null","resources/maskTrios/BBA3.jpg","null","",NA,NA,NA,NA,""
"image-keyboard-response",64,107169,"0.0-3.17-2.17","248j921sqm4rcgz",111,"37.csv","","null","resources/images/coin2.png","null","",NA,NA,NA,NA,""
"image-keyboard-response",65,108234,"0.0-3.18-0.18","248j921sqm4rcgz",111,"37.csv","","1062.8000001907349","resources/trios/L4T1A1.jpg","39","restless",0.4,0.4,0.5,0.224572170402602,"true"
"image-keyboard-response",66,108647,"0.0-3.18-1.18","248j921sqm4rcgz",111,"37.csv","","null","resources/maskTrios/BBA1.jpg","null","",NA,NA,NA,NA,""
"image-keyboard-response",67,109859,"0.0-3.18-2.18","248j921sqm4rcgz",111,"37.csv","","null","resources/images/coin2.png","null","",NA,NA,NA,NA,""
"image-keyboard-response",68,110443,"0.0-3.19-0.19","248j921sqm4rcgz",111,"37.csv","","582.2999999523163","resources/trios/L4T1A3.jpg","39","restless",0.4,0.4,0.5,0.950042499159051,"false"
"image-keyboard-response",69,110847,"0.0-3.19-1.19","248j921sqm4rcgz",111,"37.csv","","null","resources/maskTrios/BBA3.jpg","null","",NA,NA,NA,NA,""
"image-keyboard-response",70,112070,"0.0-3.19-2.19","248j921sqm4rcgz",111,"37.csv","","null","resources/images/fishbone.png","null","",NA,NA,NA,NA,""
"image-keyboard-response",71,112922,"0.0-3.20-0.20","248j921sqm4rcgz",111,"37.csv","","851.2000000476837","resources/trios/L1T1A3.jpg","39","restless",0.4,0.4,0.5,0.654167469285482,"false"
"image-keyboard-response",72,113332,"0.0-3.20-1.20","248j921sqm4rcgz",111,"37.csv","","null","resources/maskTrios/BBA3.jpg","null","",NA,NA,NA,NA,""
"image-keyboard-response",73,114550,"0.0-3.20-2.20","248j921sqm4rcgz",111,"37.csv","","null","resources/images/fishbone.png","null","",NA,NA,NA,NA,""
"image-keyboard-response",74,114977,"0.0-3.21-0.21","248j921sqm4rcgz",111,"37.csv","","425.7999999523163","resources/trios/L4T4A3.jpg","39","restless",0.4,0.4,0.4,0.154230003237241,"true"
"image-keyboard-response",75,115384,"0.0-3.21-1.21","248j921sqm4rcgz",111,"37.csv","","null","resources/maskTrios/BBA3.jpg","null","",NA,NA,NA,NA,""
"image-keyboard-response",76,116592,"0.0-3.21-2.21","248j921sqm4rcgz",111,"37.csv","","null","resources/images/coin2.png","null","",NA,NA,NA,NA,""
"image-keyboard-response",77,117038,"0.0-3.22-0.22","248j921sqm4rcgz",111,"37.csv","","445.2000000476837","resources/trios/L4T4A3.jpg","39","restless",0.4,0.4,0.4,0.2287672237334,"true"
"image-keyboard-response",78,117456,"0.0-3.22-1.22","248j921sqm4rcgz",111,"37.csv","","null","resources/maskTrios/BBA3.jpg","null","",NA,NA,NA,NA,""
"image-keyboard-response",79,118670,"0.0-3.22-2.22","248j921sqm4rcgz",111,"37.csv","","null","resources/images/coin2.png","null","",NA,NA,NA,NA,""
"image-keyboard-response",80,119036,"0.0-3.23-0.23","248j921sqm4rcgz",111,"37.csv","","364.2000000476837","resources/trios/L4T1A1.jpg","39","restless",0.4,0.4,0.4,0.615946812218029,"false"
"image-keyboard-response",81,119454,"0.0-3.23-1.23","248j921sqm4rcgz",111,"37.csv","","null","resources/maskTrios/BBA1.jpg","null","",NA,NA,NA,NA,""
"image-keyboard-response",82,120663,"0.0-3.23-2.23","248j921sqm4rcgz",111,"37.csv","","null","resources/images/fishbone.png","null","",NA,NA,NA,NA,""
"image-keyboard-response",83,121000,"0.0-3.24-0.24","248j921sqm4rcgz",111,"37.csv","","335.7999999523163","resources/trios/L4T4A3.jpg","37","restless",0.4,0.4,0.4,0.784454923634457,"false"
"image-keyboard-response",84,121418,"0.0-3.24-1.24","248j921sqm4rcgz",111,"37.csv","","null","resources/maskTrios/L4BB.jpg","null","",NA,NA,NA,NA,""
"image-keyboard-response",85,122635,"0.0-3.24-2.24","248j921sqm4rcgz",111,"37.csv","","null","resources/images/fishbone.png","null","",NA,NA,NA,NA,""
"image-keyboard-response",86,123049,"0.0-3.25-0.25","248j921sqm4rcgz",111,"37.csv","","412.40000009536743","resources/trios/L1T1A3.jpg","37","restless",0.4,0.4,0.4,0.309056026442165,"true"
"image-keyboard-response",87,123465,"0.0-3.25-1.25","248j921sqm4rcgz",111,"37.csv","","null","resources/maskTrios/L1BB.jpg","null","",NA,NA,NA,NA,""
"image-keyboard-response",88,124685,"0.0-3.25-2.25","248j921sqm4rcgz",111,"37.csv","","null","resources/images/coin2.png","null","",NA,NA,NA,NA,""
"image-keyboard-response",89,125092,"0.0-3.26-0.26","248j921sqm4rcgz",111,"37.csv","","404.90000009536743","resources/trios/L4T4A3.jpg","37","restless",0.4,0.4,0.4,0.722628887244336,"false"
"image-keyboard-response",90,125501,"0.0-3.26-1.26","248j921sqm4rcgz",111,"37.csv","","null","resources/maskTrios/L4BB.jpg","null","",NA,NA,NA,NA,""
"image-keyboard-response",91,126713,"0.0-3.26-2.26","248j921sqm4rcgz",111,"37.csv","","null","resources/images/fishbone.png","null","",NA,NA,NA,NA,""
"image-keyboard-response",92,130278,"0.0-3.27-0.27","248j921sqm4rcgz",111,"37.csv","","3562.7999999523163","resources/trios/L1T4A3.jpg","37","restless",0.4,0.4,0.4,0.0723492661704592,"true"
"image-keyboard-response",93,130694,"0.0-3.27-1.27","248j921sqm4rcgz",111,"37.csv","","null","resources/maskTrios/L1BB.jpg","null","",NA,NA,NA,NA,""
"image-keyboard-response",94,131903,"0.0-3.27-2.27","248j921sqm4rcgz",111,"37.csv","","null","resources/images/coin2.png","null","",NA,NA,NA,NA,""
"image-keyboard-response",95,132333,"0.0-3.28-0.28","248j921sqm4rcgz",111,"37.csv","","428.5","resources/trios/L4T1A3.jpg","39","restless",0.4,0.4,0.4,0.994444755974285,"false"
"image-keyboard-response",96,132748,"0.0-3.28-1.28","248j921sqm4rcgz",111,"37.csv","","null","resources/maskTrios/BBA3.jpg","null","",NA,NA,NA,NA,""
"image-keyboard-response",97,133957,"0.0-3.28-2.28","248j921sqm4rcgz",111,"37.csv","","null","resources/images/fishbone.png","null","",NA,NA,NA,NA,""
"image-keyboard-response",98,134269,"0.0-3.29-0.29","248j921sqm4rcgz",111,"37.csv","","311.60000014305115","resources/trios/L1T4A1.jpg","37","restless",0.4,0.4,0.4,0.994677560935187,"false"
"image-keyboard-response",99,134677,"0.0-3.29-1.29","248j921sqm4rcgz",111,"37.csv","","null","resources/maskTrios/L1BB.jpg","null","",NA,NA,NA,NA,""
"image-keyboard-response",100,135881,"0.0-3.29-2.29","248j921sqm4rcgz",111,"37.csv","","null","resources/images/fishbone.png","null","",NA,NA,NA,NA,""
"image-keyboard-response",101,137161,"0.0-3.30-0.30","248j921sqm4rcgz",111,"37.csv","","1278.6999998092651","resources/trios/L4T4A3.jpg","38","restless",0.5,0.4,0.4,0.907352391206859,"false"
"image-keyboard-response",102,137577,"0.0-3.30-1.30","248j921sqm4rcgz",111,"37.csv","","null","resources/maskTrios/BT4B.jpg","null","",NA,NA,NA,NA,""
"image-keyboard-response",103,138787,"0.0-3.30-2.30","248j921sqm4rcgz",111,"37.csv","","null","resources/images/fishbone.png","null","",NA,NA,NA,NA,""
"image-keyboard-response",104,139789,"0.0-3.31-0.31","248j921sqm4rcgz",111,"37.csv","","999.9000000953674","resources/trios/L4T1A3.jpg","37","restless",0.5,0.4,0.4,0.92083309232804,"false"
"image-keyboard-response",105,140207,"0.0-3.31-1.31","248j921sqm4rcgz",111,"37.csv","","null","resources/maskTrios/L4BB.jpg","null","",NA,NA,NA,NA,""
"image-keyboard-response",106,141415,"0.0-3.31-2.31","248j921sqm4rcgz",111,"37.csv","","null","resources/images/fishbone.png","null","",NA,NA,NA,NA,""
"image-keyboard-response",107,142034,"0.0-3.32-0.32","248j921sqm4rcgz",111,"37.csv","","617.7000000476837","resources/trios/L4T4A3.jpg","38","restless",0.5,0.4,0.4,0.943401515793918,"false"
"image-keyboard-response",108,142450,"0.0-3.32-1.32","248j921sqm4rcgz",111,"37.csv","","null","resources/maskTrios/BT4B.jpg","null","",NA,NA,NA,NA,""
"image-keyboard-response",109,143666,"0.0-3.32-2.32","248j921sqm4rcgz",111,"37.csv","","null","resources/images/fishbone.png","null","",NA,NA,NA,NA,""
"image-keyboard-response",110,143983,"0.0-3.33-0.33","248j921sqm4rcgz",111,"37.csv","","316.40000009536743","resources/trios/L4T1A3.jpg","39","restless",0.6,0.4,0.4,0.427133954920291,"false"
"image-keyboard-response",111,144393,"0.0-3.33-1.33","248j921sqm4rcgz",111,"37.csv","","null","resources/maskTrios/BBA3.jpg","null","",NA,NA,NA,NA,""
"image-keyboard-response",112,145604,"0.0-3.33-2.33","248j921sqm4rcgz",111,"37.csv","","null","resources/images/fishbone.png","null","",NA,NA,NA,NA,""
"image-keyboard-response",113,145907,"0.0-3.34-0.34","248j921sqm4rcgz",111,"37.csv","","302.19999980926514","resources/trios/L4T4A1.jpg","37","restless",0.6,0.4,0.4,0.235598561195883,"true"
"image-keyboard-response",114,146322,"0.0-3.34-1.34","248j921sqm4rcgz",111,"37.csv","","null","resources/maskTrios/L4BB.jpg","null","",NA,NA,NA,NA,""
"image-keyboard-response",115,147537,"0.0-3.34-2.34","248j921sqm4rcgz",111,"37.csv","","null","resources/images/coin2.png","null","",NA,NA,NA,NA,""
"image-keyboard-response",116,147864,"0.0-3.35-0.35","248j921sqm4rcgz",111,"37.csv","","324.90000009536743","resources/trios/L1T4A1.jpg","38","restless",0.6,0.4,0.4,0.889577984277749,"false"
"image-keyboard-response",117,148273,"0.0-3.35-1.35","248j921sqm4rcgz",111,"37.csv","","null","resources/maskTrios/BT4B.jpg","null","",NA,NA,NA,NA,""
"image-keyboard-response",118,149487,"0.0-3.35-2.35","248j921sqm4rcgz",111,"37.csv","","null","resources/images/fishbone.png","null","",NA,NA,NA,NA,""
"image-keyboard-response",119,149887,"0.0-3.36-0.36","248j921sqm4rcgz",111,"37.csv","","398","resources/trios/L4T1A3.jpg","37","restless",0.6,0.5,0.4,0.00493731244681284,"true"
"image-keyboard-response",120,150303,"0.0-3.36-1.36","248j921sqm4rcgz",111,"37.csv","","null","resources/maskTrios/L4BB.jpg","null","",NA,NA,NA,NA,""
"image-keyboard-response",121,151527,"0.0-3.36-2.36","248j921sqm4rcgz",111,"37.csv","","null","resources/images/coin2.png","null","",NA,NA,NA,NA,""
"image-keyboard-response",122,152400,"0.0-3.37-0.37","248j921sqm4rcgz",111,"37.csv","","870.1999998092651","resources/trios/L1T4A3.jpg","38","restless",0.5,0.4,0.4,0.667221508608523,"false"
"image-keyboard-response",123,152819,"0.0-3.37-1.37","248j921sqm4rcgz",111,"37.csv","","null","resources/maskTrios/BT4B.jpg","null","",NA,NA,NA,NA,""
"image-keyboard-response",124,154024,"0.0-3.37-2.37","248j921sqm4rcgz",111,"37.csv","","null","resources/images/fishbone.png","null","",NA,NA,NA,NA,""
"image-keyboard-response",125,154317,"0.0-3.38-0.38","248j921sqm4rcgz",111,"37.csv","","291.60000014305115","resources/trios/L1T4A1.jpg","39","restless",0.5,0.4,0.4,0.0921917654382642,"true"
"image-keyboard-response",126,154729,"0.0-3.38-1.38","248j921sqm4rcgz",111,"37.csv","","null","resources/maskTrios/BBA1.jpg","null","",NA,NA,NA,NA,""
"image-keyboard-response",127,155941,"0.0-3.38-2.38","248j921sqm4rcgz",111,"37.csv","","null","resources/images/coin2.png","null","",NA,NA,NA,NA,""
"image-keyboard-response",128,156241,"0.0-3.39-0.39","248j921sqm4rcgz",111,"37.csv","","299.2999999523163","resources/trios/L1T4A3.jpg","39","restless",0.5,0.4,0.3,0.00910473394647182,"true"
"image-keyboard-response",129,156659,"0.0-3.39-1.39","248j921sqm4rcgz",111,"37.csv","","null","resources/maskTrios/BBA3.jpg","null","",NA,NA,NA,NA,""
"image-keyboard-response",130,157865,"0.0-3.39-2.39","248j921sqm4rcgz",111,"37.csv","","null","resources/images/coin2.png","null","",NA,NA,NA,NA,""
"image-keyboard-response",131,158209,"0.0-3.40-0.40","248j921sqm4rcgz",111,"37.csv","","342.10000014305115","resources/trios/L1T1A1.jpg","37","restless",0.5,0.4,0.3,0.465864545334439,"true"
"image-keyboard-response",132,158631,"0.0-3.40-1.40","248j921sqm4rcgz",111,"37.csv","","null","resources/maskTrios/L1BB.jpg","null","",NA,NA,NA,NA,""
"image-keyboard-response",133,159846,"0.0-3.40-2.40","248j921sqm4rcgz",111,"37.csv","","null","resources/images/coin2.png","null","",NA,NA,NA,NA,""
"image-keyboard-response",134,160143,"0.0-3.41-0.41","248j921sqm4rcgz",111,"37.csv","","297","resources/trios/L1T1A3.jpg","37","restless",0.6,0.4,0.3,0.121840856757576,"true"
"image-keyboard-response",135,160552,"0.0-3.41-1.41","248j921sqm4rcgz",111,"37.csv","","null","resources/maskTrios/L1BB.jpg","null","",NA,NA,NA,NA,""
"image-keyboard-response",136,161774,"0.0-3.41-2.41","248j921sqm4rcgz",111,"37.csv","","null","resources/images/coin2.png","null","",NA,NA,NA,NA,""
"image-keyboard-response",137,162337,"0.0-3.42-0.42","248j921sqm4rcgz",111,"37.csv","","560","resources/trios/L1T1A1.jpg","39","restless",0.6,0.4,0.3,0.206748881822773,"true"
"image-keyboard-response",138,162747,"0.0-3.42-1.42","248j921sqm4rcgz",111,"37.csv","","null","resources/maskTrios/BBA1.jpg","null","",NA,NA,NA,NA,""
"image-keyboard-response",139,163952,"0.0-3.42-2.42","248j921sqm4rcgz",111,"37.csv","","null","resources/images/coin2.png","null","",NA,NA,NA,NA,""
"image-keyboard-response",140,164314,"0.0-3.43-0.43","248j921sqm4rcgz",111,"37.csv","","360.2000000476837","resources/trios/L1T4A1.jpg","39","restless",0.6,0.3,0.3,0.266028681750165,"true"
"image-keyboard-response",141,164722,"0.0-3.43-1.43","248j921sqm4rcgz",111,"37.csv","","null","resources/maskTrios/BBA1.jpg","null","",NA,NA,NA,NA,""
"image-keyboard-response",142,165933,"0.0-3.43-2.43","248j921sqm4rcgz",111,"37.csv","","null","resources/images/coin2.png","null","",NA,NA,NA,NA,""
"image-keyboard-response",143,166270,"0.0-3.44-0.44","248j921sqm4rcgz",111,"37.csv","","334.39999985694885","resources/trios/L4T1A3.jpg","37","restless",0.5,0.4,0.3,0.843147441100583,"false"
"image-keyboard-response",144,166687,"0.0-3.44-1.44","248j921sqm4rcgz",111,"37.csv","","null","resources/maskTrios/L4BB.jpg","null","",NA,NA,NA,NA,""
"image-keyboard-response",145,167898,"0.0-3.44-2.44","248j921sqm4rcgz",111,"37.csv","","null","resources/images/fishbone.png","null","",NA,NA,NA,NA,""
"image-keyboard-response",146,168283,"0.0-3.45-0.45","248j921sqm4rcgz",111,"37.csv","","382.89999985694885","resources/trios/L1T4A1.jpg","38","restless",0.5,0.4,0.3,0.494717191536048,"false"
"image-keyboard-response",147,168704,"0.0-3.45-1.45","248j921sqm4rcgz",111,"37.csv","","null","resources/maskTrios/BT4B.jpg","null","",NA,NA,NA,NA,""
"image-keyboard-response",148,169912,"0.0-3.45-2.45","248j921sqm4rcgz",111,"37.csv","","null","resources/images/fishbone.png","null","",NA,NA,NA,NA,""
"image-keyboard-response",149,170298,"0.0-3.46-0.46","248j921sqm4rcgz",111,"37.csv","","385.5","resources/trios/L1T1A1.jpg","39","restless",0.5,0.4,0.3,0.529166770809839,"false"
"image-keyboard-response",150,170706,"0.0-3.46-1.46","248j921sqm4rcgz",111,"37.csv","","null","resources/maskTrios/BBA1.jpg","null","",NA,NA,NA,NA,""
"image-keyboard-response",151,171916,"0.0-3.46-2.46","248j921sqm4rcgz",111,"37.csv","","null","resources/images/fishbone.png","null","",NA,NA,NA,NA,""
"image-keyboard-response",152,172242,"0.0-3.47-0.47","248j921sqm4rcgz",111,"37.csv","","325.2999999523163","resources/trios/L1T4A3.jpg","39","restless",0.5,0.4,0.3,0.271962740227888,"true"
"image-keyboard-response",153,172655,"0.0-3.47-1.47","248j921sqm4rcgz",111,"37.csv","","null","resources/maskTrios/BBA3.jpg","null","",NA,NA,NA,NA,""
"image-keyboard-response",154,173869,"0.0-3.47-2.47","248j921sqm4rcgz",111,"37.csv","","null","resources/images/coin2.png","null","",NA,NA,NA,NA,""
"image-keyboard-response",155,174231,"0.0-3.48-0.48","248j921sqm4rcgz",111,"37.csv","","361.5","resources/trios/L1T1A3.jpg","39","restless",0.6,0.4,0.3,0.173624533014711,"true"
"image-keyboard-response",156,174640,"0.0-3.48-1.48","248j921sqm4rcgz",111,"37.csv","","null","resources/maskTrios/BBA3.jpg","null","",NA,NA,NA,NA,""
"image-keyboard-response",157,175849,"0.0-3.48-2.48","248j921sqm4rcgz",111,"37.csv","","null","resources/images/coin2.png","null","",NA,NA,NA,NA,""
"image-keyboard-response",158,176197,"0.0-3.49-0.49","248j921sqm4rcgz",111,"37.csv","","345.5","resources/trios/L1T4A1.jpg","39","restless",0.6,0.4,0.3,0.175833731318614,"true"
"image-keyboard-response",159,176603,"0.0-3.49-1.49","248j921sqm4rcgz",111,"37.csv","","null","resources/maskTrios/BBA1.jpg","null","",NA,NA,NA,NA,""
"image-keyboard-response",160,177809,"0.0-3.49-2.49","248j921sqm4rcgz",111,"37.csv","","null","resources/images/coin2.png","null","",NA,NA,NA,NA,""
"image-keyboard-response",161,178162,"0.0-3.50-0.50","248j921sqm4rcgz",111,"37.csv","","351.40000009536743","resources/trios/L1T1A1.jpg","39","restless",0.6,0.4,0.3,0.931937541330839,"false"
"image-keyboard-response",162,178579,"0.0-3.50-1.50","248j921sqm4rcgz",111,"37.csv","","null","resources/maskTrios/BBA1.jpg","null","",NA,NA,NA,NA,""
"image-keyboard-response",163,179788,"0.0-3.50-2.50","248j921sqm4rcgz",111,"37.csv","","null","resources/images/fishbone.png","null","",NA,NA,NA,NA,""
"image-keyboard-response",164,180106,"0.0-3.51-0.51","248j921sqm4rcgz",111,"37.csv","","317.39999985694885","resources/trios/L4T1A3.jpg","37","restless",0.7,0.4,0.3,0.259366331267313,"true"
"image-keyboard-response",165,180521,"0.0-3.51-1.51","248j921sqm4rcgz",111,"37.csv","","null","resources/maskTrios/L4BB.jpg","null","",NA,NA,NA,NA,""
"image-keyboard-response",166,181739,"0.0-3.51-2.51","248j921sqm4rcgz",111,"37.csv","","null","resources/images/coin2.png","null","",NA,NA,NA,NA,""
"image-keyboard-response",167,182511,"0.0-3.52-0.52","248j921sqm4rcgz",111,"37.csv","","769.7999999523163","resources/trios/L1T1A3.jpg","37","restless",0.7,0.4,0.3,0.114523131709523,"true"
"image-keyboard-response",168,182931,"0.0-3.52-1.52","248j921sqm4rcgz",111,"37.csv","","null","resources/maskTrios/L1BB.jpg","null","",NA,NA,NA,NA,""
"image-keyboard-response",169,184141,"0.0-3.52-2.52","248j921sqm4rcgz",111,"37.csv","","null","resources/images/coin2.png","null","",NA,NA,NA,NA,""
"image-keyboard-response",170,184490,"0.0-3.53-0.53","248j921sqm4rcgz",111,"37.csv","","347.39999985694885","resources/trios/L4T4A3.jpg","37","restless",0.7,0.4,0.4,0.762374312504328,"false"
"image-keyboard-response",171,184910,"0.0-3.53-1.53","248j921sqm4rcgz",111,"37.csv","","null","resources/maskTrios/L4BB.jpg","null","",NA,NA,NA,NA,""
"image-keyboard-response",172,186129,"0.0-3.53-2.53","248j921sqm4rcgz",111,"37.csv","","null","resources/images/fishbone.png","null","",NA,NA,NA,NA,""
"image-keyboard-response",173,186417,"0.0-3.54-0.54","248j921sqm4rcgz",111,"37.csv","","287.60000014305115","resources/trios/L1T1A1.jpg","38","restless",0.7,0.5,0.4,0.65154719679839,"false"
"image-keyboard-response",174,186839,"0.0-3.54-1.54","248j921sqm4rcgz",111,"37.csv","","null","resources/maskTrios/BT1B.jpg","null","",NA,NA,NA,NA,""
"image-keyboard-response",175,188045,"0.0-3.54-2.54","248j921sqm4rcgz",111,"37.csv","","null","resources/images/fishbone.png","null","",NA,NA,NA,NA,""
"image-keyboard-response",176,188342,"0.0-3.55-0.55","248j921sqm4rcgz",111,"37.csv","","295.19999980926514","resources/trios/L1T4A3.jpg","38","restless",0.7,0.5,0.4,0.27128361576526,"true"
"image-keyboard-response",177,188755,"0.0-3.55-1.55","248j921sqm4rcgz",111,"37.csv","","null","resources/maskTrios/BT4B.jpg","null","",NA,NA,NA,NA,""
"image-keyboard-response",178,189976,"0.0-3.55-2.55","248j921sqm4rcgz",111,"37.csv","","null","resources/images/coin2.png","null","",NA,NA,NA,NA,""
"image-keyboard-response",179,190304,"0.0-3.56-0.56","248j921sqm4rcgz",111,"37.csv","","327.2999999523163","resources/trios/L1T1A1.jpg","38","restless",0.7,0.5,0.5,0.285310683409878,"true"
"image-keyboard-response",180,190706,"0.0-3.56-1.56","248j921sqm4rcgz",111,"37.csv","","null","resources/maskTrios/BT1B.jpg","null","",NA,NA,NA,NA,""
"image-keyboard-response",181,191917,"0.0-3.56-2.56","248j921sqm4rcgz",111,"37.csv","","null","resources/images/coin2.png","null","",NA,NA,NA,NA,""
"image-keyboard-response",182,192270,"0.0-3.57-0.57","248j921sqm4rcgz",111,"37.csv","","351.2000000476837","resources/trios/L4T1A3.jpg","38","restless",0.7,0.5,0.5,0.169928267864307,"true"
"image-keyboard-response",183,192684,"0.0-3.57-1.57","248j921sqm4rcgz",111,"37.csv","","null","resources/maskTrios/BT1B.jpg","null","",NA,NA,NA,NA,""
"image-keyboard-response",184,193894,"0.0-3.57-2.57","248j921sqm4rcgz",111,"37.csv","","null","resources/images/coin2.png","null","",NA,NA,NA,NA,""
"image-keyboard-response",185,194553,"0.0-3.58-0.58","248j921sqm4rcgz",111,"37.csv","","657.7000000476837","resources/trios/L1T1A3.jpg","39","restless",0.7,0.5,0.6,0.385114326369506,"true"
"image-keyboard-response",186,194964,"0.0-3.58-1.58","248j921sqm4rcgz",111,"37.csv","","null","resources/maskTrios/BBA3.jpg","null","",NA,NA,NA,NA,""
"image-keyboard-response",187,196175,"0.0-3.58-2.58","248j921sqm4rcgz",111,"37.csv","","null","resources/images/coin2.png","null","",NA,NA,NA,NA,""
"image-keyboard-response",188,196542,"0.0-3.59-0.59","248j921sqm4rcgz",111,"37.csv","","365.89999985694885","resources/trios/L1T4A3.jpg","39","restless",0.7,0.5,0.6,0.531326054895351,"true"
"image-keyboard-response",189,196948,"0.0-3.59-1.59","248j921sqm4rcgz",111,"37.csv","","null","resources/maskTrios/BBA3.jpg","null","",NA,NA,NA,NA,""
"image-keyboard-response",190,198164,"0.0-3.59-2.59","248j921sqm4rcgz",111,"37.csv","","null","resources/images/coin2.png","null","",NA,NA,NA,NA,""
"image-keyboard-response",191,198543,"0.0-3.60-0.60","248j921sqm4rcgz",111,"37.csv","","376.80000019073486","resources/trios/L4T1A3.jpg","39","restless",0.7,0.5,0.6,0.623197533210381,"false"
"image-keyboard-response",192,198964,"0.0-3.60-1.60","248j921sqm4rcgz",111,"37.csv","","null","resources/maskTrios/BBA3.jpg","null","",NA,NA,NA,NA,""
"image-keyboard-response",193,200176,"0.0-3.60-2.60","248j921sqm4rcgz",111,"37.csv","","null","resources/images/fishbone.png","null","",NA,NA,NA,NA,""
"image-keyboard-response",194,201029,"0.0-3.61-0.61","248j921sqm4rcgz",111,"37.csv","","850.4000000953674","resources/trios/L4T1A3.jpg","37","restless",0.7,0.5,0.6,0.401501563100517,"true"
"image-keyboard-response",195,201448,"0.0-3.61-1.61","248j921sqm4rcgz",111,"37.csv","","null","resources/maskTrios/L4BB.jpg","null","",NA,NA,NA,NA,""
"image-keyboard-response",196,202660,"0.0-3.61-2.61","248j921sqm4rcgz",111,"37.csv","","null","resources/images/coin2.png","null","",NA,NA,NA,NA,""
"image-keyboard-response",197,203711,"0.0-3.62-0.62","248j921sqm4rcgz",111,"37.csv","","1048.9000000953674","resources/trios/L1T1A3.jpg","37","restless",0.8,0.5,0.6,0.113483686361855,"true"
"image-keyboard-response",198,204123,"0.0-3.62-1.62","248j921sqm4rcgz",111,"37.csv","","null","resources/maskTrios/L1BB.jpg","null","",NA,NA,NA,NA,""
"image-keyboard-response",199,205332,"0.0-3.62-2.62","248j921sqm4rcgz",111,"37.csv","","null","resources/images/coin2.png","null","",NA,NA,NA,NA,""
"image-keyboard-response",200,205575,"0.0-3.63-0.63","248j921sqm4rcgz",111,"37.csv","","242.20000004768372","resources/trios/L1T1A1.jpg","37","restless",0.8,0.5,0.6,0.369873901303495,"true"
"image-keyboard-response",201,205993,"0.0-3.63-1.63","248j921sqm4rcgz",111,"37.csv","","null","resources/maskTrios/L1BB.jpg","null","",NA,NA,NA,NA,""
"image-keyboard-response",202,207204,"0.0-3.63-2.63","248j921sqm4rcgz",111,"37.csv","","null","resources/images/coin2.png","null","",NA,NA,NA,NA,""
"image-keyboard-response",203,207487,"0.0-3.64-0.64","248j921sqm4rcgz",111,"37.csv","","280.89999985694885","resources/trios/L4T1A3.jpg","38","restless",0.8,0.5,0.6,0.0266209311874013,"true"
"image-keyboard-response",204,207895,"0.0-3.64-1.64","248j921sqm4rcgz",111,"37.csv","","null","resources/maskTrios/BT1B.jpg","null","",NA,NA,NA,NA,""
"image-keyboard-response",205,209103,"0.0-3.64-2.64","248j921sqm4rcgz",111,"37.csv","","null","resources/images/coin2.png","null","",NA,NA,NA,NA,""
"image-keyboard-response",206,209475,"0.0-3.65-0.65","248j921sqm4rcgz",111,"37.csv","","369.2000000476837","resources/trios/L4T4A3.jpg","38","restless",0.8,0.5,0.6,0.813258917121247,"false"
"image-keyboard-response",207,209888,"0.0-3.65-1.65","248j921sqm4rcgz",111,"37.csv","","null","resources/maskTrios/BT4B.jpg","null","",NA,NA,NA,NA,""
"image-keyboard-response",208,211101,"0.0-3.65-2.65","248j921sqm4rcgz",111,"37.csv","","null","resources/images/fishbone.png","null","",NA,NA,NA,NA,""
"image-keyboard-response",209,211421,"0.0-3.66-0.66","248j921sqm4rcgz",111,"37.csv","","318","resources/trios/L1T4A3.jpg","37","restless",0.8,0.5,0.6,0.858409776008481,"false"
"image-keyboard-response",210,211840,"0.0-3.66-1.66","248j921sqm4rcgz",111,"37.csv","","null","resources/maskTrios/L1BB.jpg","null","",NA,NA,NA,NA,""
"image-keyboard-response",211,213053,"0.0-3.66-2.66","248j921sqm4rcgz",111,"37.csv","","null","resources/images/fishbone.png","null","",NA,NA,NA,NA,""
"image-keyboard-response",212,213328,"0.0-3.67-0.67","248j921sqm4rcgz",111,"37.csv","","273","resources/trios/L4T1A3.jpg","39","restless",0.8,0.5,0.6,0.267698443814934,"true"
"image-keyboard-response",213,213741,"0.0-3.67-1.67","248j921sqm4rcgz",111,"37.csv","","null","resources/maskTrios/BBA3.jpg","null","",NA,NA,NA,NA,""
"image-keyboard-response",214,214949,"0.0-3.67-2.67","248j921sqm4rcgz",111,"37.csv","","null","resources/images/coin2.png","null","",NA,NA,NA,NA,""
"image-keyboard-response",215,215254,"0.0-3.68-0.68","248j921sqm4rcgz",111,"37.csv","","303.10000014305115","resources/trios/L4T1A3.jpg","39","restless",0.8,0.5,0.6,0.933295426269118,"false"
"image-keyboard-response",216,215666,"0.0-3.68-1.68","248j921sqm4rcgz",111,"37.csv","","null","resources/maskTrios/BBA3.jpg","null","",NA,NA,NA,NA,""
"image-keyboard-response",217,216886,"0.0-3.68-2.68","248j921sqm4rcgz",111,"37.csv","","null","resources/images/fishbone.png","null","",NA,NA,NA,NA,""
"image-keyboard-response",218,218311,"0.0-3.69-0.69","248j921sqm4rcgz",111,"37.csv","","1423.7000000476837","resources/trios/L4T1A1.jpg","38","restless",0.8,0.5,0.6,0.101254830337706,"true"
"image-keyboard-response",219,218722,"0.0-3.69-1.69","248j921sqm4rcgz",111,"37.csv","","null","resources/maskTrios/BT1B.jpg","null","",NA,NA,NA,NA,""
"image-keyboard-response",220,219935,"0.0-3.69-2.69","248j921sqm4rcgz",111,"37.csv","","null","resources/images/coin2.png","null","",NA,NA,NA,NA,""
"image-keyboard-response",221,220288,"0.0-3.70-0.70","248j921sqm4rcgz",111,"37.csv","","350.7000000476837","resources/trios/L4T1A1.jpg","37","restless",0.8,0.5,0.7,0.761300944236619,"true"
"image-keyboard-response",222,220702,"0.0-3.70-1.70","248j921sqm4rcgz",111,"37.csv","","null","resources/maskTrios/L4BB.jpg","null","",NA,NA,NA,NA,""
"image-keyboard-response",223,221911,"0.0-3.70-2.70","248j921sqm4rcgz",111,"37.csv","","null","resources/images/coin2.png","null","",NA,NA,NA,NA,""
"image-keyboard-response",224,222254,"0.0-3.71-0.71","248j921sqm4rcgz",111,"37.csv","","341.69999980926514","resources/trios/L4T1A1.jpg","37","restless",0.8,0.5,0.7,0.136484981383848,"true"
"image-keyboard-response",225,222667,"0.0-3.71-1.71","248j921sqm4rcgz",111,"37.csv","","null","resources/maskTrios/L4BB.jpg","null","",NA,NA,NA,NA,""
"image-keyboard-response",226,223880,"0.0-3.71-2.71","248j921sqm4rcgz",111,"37.csv","","null","resources/images/coin2.png","null","",NA,NA,NA,NA,""
"image-keyboard-response",227,224211,"0.0-3.72-0.72","248j921sqm4rcgz",111,"37.csv","","328.40000009536743","resources/trios/L1T4A1.jpg","37","restless",0.8,0.5,0.7,0.836777548101777,"false"
"image-keyboard-response",228,224619,"0.0-3.72-1.72","248j921sqm4rcgz",111,"37.csv","","null","resources/maskTrios/L1BB.jpg","null","",NA,NA,NA,NA,""
"image-keyboard-response",229,225828,"0.0-3.72-2.72","248j921sqm4rcgz",111,"37.csv","","null","resources/images/fishbone.png","null","",NA,NA,NA,NA,""
"image-keyboard-response",230,226134,"0.0-3.73-0.73","248j921sqm4rcgz",111,"37.csv","","304.10000014305115","resources/trios/L1T1A3.jpg","38","restless",0.8,0.5,0.7,0.211300223717922,"true"
"image-keyboard-response",231,226549,"0.0-3.73-1.73","248j921sqm4rcgz",111,"37.csv","","null","resources/maskTrios/BT1B.jpg","null","",NA,NA,NA,NA,""
"image-keyboard-response",232,227768,"0.0-3.73-2.73","248j921sqm4rcgz",111,"37.csv","","null","resources/images/coin2.png","null","",NA,NA,NA,NA,""
"image-keyboard-response",233,228097,"0.0-3.74-0.74","248j921sqm4rcgz",111,"37.csv","","327.60000014305115","resources/trios/L4T4A1.jpg","38","restless",0.8,0.5,0.7,0.37755775385955,"true"
"image-keyboard-response",234,228506,"0.0-3.74-1.74","248j921sqm4rcgz",111,"37.csv","","null","resources/maskTrios/BT4B.jpg","null","",NA,NA,NA,NA,""
"image-keyboard-response",235,229718,"0.0-3.74-2.74","248j921sqm4rcgz",111,"37.csv","","null","resources/images/coin2.png","null","",NA,NA,NA,NA,""
"image-keyboard-response",236,230087,"0.0-3.75-0.75","248j921sqm4rcgz",111,"37.csv","","368","resources/trios/L1T1A3.jpg","39","restless",0.8,0.5,0.7,0.314549255493141,"true"
"image-keyboard-response",237,230506,"0.0-3.75-1.75","248j921sqm4rcgz",111,"37.csv","","null","resources/maskTrios/BBA3.jpg","null","",NA,NA,NA,NA,""
"image-keyboard-response",238,231717,"0.0-3.75-2.75","248j921sqm4rcgz",111,"37.csv","","null","resources/images/coin2.png","null","",NA,NA,NA,NA,""
"image-keyboard-response",239,232057,"0.0-3.76-0.76","248j921sqm4rcgz",111,"37.csv","","337.59999990463257","resources/trios/L4T1A1.jpg","39","restless",0.8,0.5,0.7,0.0261309914571894,"true"
"image-keyboard-response",240,232471,"0.0-3.76-1.76","248j921sqm4rcgz",111,"37.csv","","null","resources/maskTrios/BBA1.jpg","null","",NA,NA,NA,NA,""
"image-keyboard-response",241,233680,"0.0-3.76-2.76","248j921sqm4rcgz",111,"37.csv","","null","resources/images/coin2.png","null","",NA,NA,NA,NA,""
"image-keyboard-response",242,234003,"0.0-3.77-0.77","248j921sqm4rcgz",111,"37.csv","","322.5","resources/trios/L1T1A3.jpg","37","restless",0.8,0.5,0.6,0.0386537620513296,"true"
"image-keyboard-response",243,234418,"0.0-3.77-1.77","248j921sqm4rcgz",111,"37.csv","","null","resources/maskTrios/L1BB.jpg","null","",NA,NA,NA,NA,""
"image-keyboard-response",244,235639,"0.0-3.77-2.77","248j921sqm4rcgz",111,"37.csv","","null","resources/images/coin2.png","null","",NA,NA,NA,NA,""
"image-keyboard-response",245,235960,"0.0-3.78-0.78","248j921sqm4rcgz",111,"37.csv","","319.39999985694885","resources/trios/L1T4A1.jpg","37","restless",0.8,0.5,0.6,0.109342244235216,"true"
"image-keyboard-response",246,236378,"0.0-3.78-1.78","248j921sqm4rcgz",111,"37.csv","","null","resources/maskTrios/L1BB.jpg","null","",NA,NA,NA,NA,""
"image-keyboard-response",247,237590,"0.0-3.78-2.78","248j921sqm4rcgz",111,"37.csv","","null","resources/images/coin2.png","null","",NA,NA,NA,NA,""
"image-keyboard-response",248,237904,"0.0-3.79-0.79","248j921sqm4rcgz",111,"37.csv","","313.30000019073486","resources/trios/L4T4A1.jpg","38","restless",0.8,0.5,0.6,0.406602831690271,"true"
"image-keyboard-response",249,238329,"0.0-3.79-1.79","248j921sqm4rcgz",111,"37.csv","","null","resources/maskTrios/BT4B.jpg","null","",NA,NA,NA,NA,""
"image-keyboard-response",250,239541,"0.0-3.79-2.79","248j921sqm4rcgz",111,"37.csv","","null","resources/images/coin2.png","null","",NA,NA,NA,NA,""
"image-keyboard-response",251,239897,"0.0-3.80-0.80","248j921sqm4rcgz",111,"37.csv","","352.5","resources/trios/L4T1A3.jpg","38","restless",0.8,0.5,0.6,0.868525555702661,"false"
"image-keyboard-response",252,240309,"0.0-3.80-1.80","248j921sqm4rcgz",111,"37.csv","","null","resources/maskTrios/BT1B.jpg","null","",NA,NA,NA,NA,""
"image-keyboard-response",253,241523,"0.0-3.80-2.80","248j921sqm4rcgz",111,"37.csv","","null","resources/images/fishbone.png","null","",NA,NA,NA,NA,""
"image-keyboard-response",254,241848,"0.0-3.81-0.81","248j921sqm4rcgz",111,"37.csv","","322.7999999523163","resources/trios/L4T1A3.jpg","39","restless",0.8,0.5,0.5,0.608306955883904,"false"
"image-keyboard-response",255,242262,"0.0-3.81-1.81","248j921sqm4rcgz",111,"37.csv","","null","resources/maskTrios/BBA3.jpg","null","",NA,NA,NA,NA,""
"image-keyboard-response",256,243473,"0.0-3.81-2.81","248j921sqm4rcgz",111,"37.csv","","null","resources/images/fishbone.png","null","",NA,NA,NA,NA,""
"image-keyboard-response",257,243822,"0.0-3.82-0.82","248j921sqm4rcgz",111,"37.csv","","346.89999985694885","resources/trios/L4T4A1.jpg","39","restless",0.8,0.5,0.4,0.760541199394373,"false"
"image-keyboard-response",258,244240,"0.0-3.82-1.82","248j921sqm4rcgz",111,"37.csv","","null","resources/maskTrios/BBA1.jpg","null","",NA,NA,NA,NA,""
"image-keyboard-response",259,245447,"0.0-3.82-2.82","248j921sqm4rcgz",111,"37.csv","","null","resources/images/fishbone.png","null","",NA,NA,NA,NA,""
"image-keyboard-response",260,245795,"0.0-3.83-0.83","248j921sqm4rcgz",111,"37.csv","","346.30000019073486","resources/trios/L4T4A3.jpg","39","restless",0.8,0.5,0.4,0.609664419112411,"false"
"image-keyboard-response",261,246215,"0.0-3.83-1.83","248j921sqm4rcgz",111,"37.csv","","null","resources/maskTrios/BBA3.jpg","null","",NA,NA,NA,NA,""
"image-keyboard-response",262,247421,"0.0-3.83-2.83","248j921sqm4rcgz",111,"37.csv","","null","resources/images/fishbone.png","null","",NA,NA,NA,NA,""
"image-keyboard-response",263,247774,"0.0-3.84-0.84","248j921sqm4rcgz",111,"37.csv","","351.7999999523163","resources/trios/L1T4A1.jpg","37","restless",0.8,0.5,0.4,0.638249925114553,"true"
"image-keyboard-response",264,248187,"0.0-3.84-1.84","248j921sqm4rcgz",111,"37.csv","","null","resources/maskTrios/L1BB.jpg","null","",NA,NA,NA,NA,""
"image-keyboard-response",265,249406,"0.0-3.84-2.84","248j921sqm4rcgz",111,"37.csv","","null","resources/images/coin2.png","null","",NA,NA,NA,NA,""
"image-keyboard-response",266,249711,"0.0-3.85-0.85","248j921sqm4rcgz",111,"37.csv","","303.90000009536743","resources/trios/L4T1A3.jpg","37","restless",0.8,0.5,0.4,0.543310401905429,"true"
"image-keyboard-response",267,250127,"0.0-3.85-1.85","248j921sqm4rcgz",111,"37.csv","","null","resources/maskTrios/L4BB.jpg","null","",NA,NA,NA,NA,""
"image-keyboard-response",268,251336,"0.0-3.85-2.85","248j921sqm4rcgz",111,"37.csv","","null","resources/images/coin2.png","null","",NA,NA,NA,NA,""
"image-keyboard-response",269,251683,"0.0-3.86-0.86","248j921sqm4rcgz",111,"37.csv","","346.2999999523163","resources/trios/L4T1A3.jpg","37","restless",0.8,0.5,0.4,0.782251306329511,"true"
"image-keyboard-response",270,252102,"0.0-3.86-1.86","248j921sqm4rcgz",111,"37.csv","","null","resources/maskTrios/L4BB.jpg","null","",NA,NA,NA,NA,""
"image-keyboard-response",271,253320,"0.0-3.86-2.86","248j921sqm4rcgz",111,"37.csv","","null","resources/images/coin2.png","null","",NA,NA,NA,NA,""
"image-keyboard-response",272,253638,"0.0-3.87-0.87","248j921sqm4rcgz",111,"37.csv","","315.10000014305115","resources/trios/L4T4A3.jpg","37","restless",0.8,0.5,0.5,0.186361248389473,"true"
"image-keyboard-response",273,254054,"0.0-3.87-1.87","248j921sqm4rcgz",111,"37.csv","","null","resources/maskTrios/L4BB.jpg","null","",NA,NA,NA,NA,""
"image-keyboard-response",274,255259,"0.0-3.87-2.87","248j921sqm4rcgz",111,"37.csv","","null","resources/images/coin2.png","null","",NA,NA,NA,NA,""
"image-keyboard-response",275,255589,"0.0-3.88-0.88","248j921sqm4rcgz",111,"37.csv","","328.89999985694885","resources/trios/L4T4A1.jpg","37","restless",0.9,0.5,0.5,0.512971762790595,"true"
"image-keyboard-response",276,255998,"0.0-3.88-1.88","248j921sqm4rcgz",111,"37.csv","","null","resources/maskTrios/L4BB.jpg","null","",NA,NA,NA,NA,""
"image-keyboard-response",277,257202,"0.0-3.88-2.88","248j921sqm4rcgz",111,"37.csv","","null","resources/images/coin2.png","null","",NA,NA,NA,NA,""
"image-keyboard-response",278,257550,"0.0-3.89-0.89","248j921sqm4rcgz",111,"37.csv","","345.59999990463257","resources/trios/L4T4A1.jpg","37","restless",0.9,0.5,0.5,0.823721157646034,"true"
"image-keyboard-response",279,257956,"0.0-3.89-1.89","248j921sqm4rcgz",111,"37.csv","","null","resources/maskTrios/L4BB.jpg","null","",NA,NA,NA,NA,""
"image-keyboard-response",280,259167,"0.0-3.89-2.89","248j921sqm4rcgz",111,"37.csv","","null","resources/images/coin2.png","null","",NA,NA,NA,NA,""
"image-keyboard-response",281,259478,"0.0-3.90-0.90","248j921sqm4rcgz",111,"37.csv","","309.7999999523163","resources/trios/L4T4A3.jpg","37","restless",0.9,0.5,0.5,0.469433689697371,"true"
"image-keyboard-response",282,259890,"0.0-3.90-1.90","248j921sqm4rcgz",111,"37.csv","","null","resources/maskTrios/L4BB.jpg","null","",NA,NA,NA,NA,""
"image-keyboard-response",283,261106,"0.0-3.90-2.90","248j921sqm4rcgz",111,"37.csv","","null","resources/images/coin2.png","null","",NA,NA,NA,NA,""
"image-keyboard-response",284,261522,"0.0-3.91-0.91","248j921sqm4rcgz",111,"37.csv","","413.7000000476837","resources/trios/L1T1A1.jpg","37","restless",0.9,0.5,0.5,0.110511554022002,"true"
"image-keyboard-response",285,261939,"0.0-3.91-1.91","248j921sqm4rcgz",111,"37.csv","","null","resources/maskTrios/L1BB.jpg","null","",NA,NA,NA,NA,""
"image-keyboard-response",286,263150,"0.0-3.91-2.91","248j921sqm4rcgz",111,"37.csv","","null","resources/images/coin2.png","null","",NA,NA,NA,NA,""
"image-keyboard-response",287,263504,"0.0-3.92-0.92","248j921sqm4rcgz",111,"37.csv","","352.2999999523163","resources/trios/L1T4A1.jpg","37","restless",0.9,0.5,0.5,0.865674254359955,"true"
"image-keyboard-response",288,263919,"0.0-3.92-1.92","248j921sqm4rcgz",111,"37.csv","","null","resources/maskTrios/L1BB.jpg","null","",NA,NA,NA,NA,""
"image-keyboard-response",289,265130,"0.0-3.92-2.92","248j921sqm4rcgz",111,"37.csv","","null","resources/images/coin2.png","null","",NA,NA,NA,NA,""
"image-keyboard-response",290,265452,"0.0-3.93-0.93","248j921sqm4rcgz",111,"37.csv","","321.5","resources/trios/L4T1A1.jpg","37","restless",0.9,0.5,0.5,0.636137313086545,"true"
"image-keyboard-response",291,265867,"0.0-3.93-1.93","248j921sqm4rcgz",111,"37.csv","","null","resources/maskTrios/L4BB.jpg","null","",NA,NA,NA,NA,""
"image-keyboard-response",292,267075,"0.0-3.93-2.93","248j921sqm4rcgz",111,"37.csv","","null","resources/images/coin2.png","null","",NA,NA,NA,NA,""
"image-keyboard-response",293,267382,"0.0-3.94-0.94","248j921sqm4rcgz",111,"37.csv","","304.30000019073486","resources/trios/L1T1A3.jpg","37","restless",0.9,0.5,0.5,0.91419351572413,"false"
"image-keyboard-response",294,267799,"0.0-3.94-1.94","248j921sqm4rcgz",111,"37.csv","","null","resources/maskTrios/L1BB.jpg","null","",NA,NA,NA,NA,""
"image-keyboard-response",295,269012,"0.0-3.94-2.94","248j921sqm4rcgz",111,"37.csv","","null","resources/images/fishbone.png","null","",NA,NA,NA,NA,""
"image-keyboard-response",296,269115,"0.0-3.95-0.95","248j921sqm4rcgz",111,"37.csv","","100.5","resources/trios/L1T4A3.jpg","38","restless",0.8,0.5,0.5,0.920960188135102,"false"
"image-keyboard-response",297,269528,"0.0-3.95-1.95","248j921sqm4rcgz",111,"37.csv","","null","resources/maskTrios/BT4B.jpg","null","",NA,NA,NA,NA,""
"image-keyboard-response",298,270738,"0.0-3.95-2.95","248j921sqm4rcgz",111,"37.csv","","null","resources/images/fishbone.png","null","",NA,NA,NA,NA,""
"image-keyboard-response",299,271082,"0.0-3.96-0.96","248j921sqm4rcgz",111,"37.csv","","342.7000000476837","resources/trios/L4T1A1.jpg","39","restless",0.8,0.5,0.5,0.923689594272077,"false"
"image-keyboard-response",300,271491,"0.0-3.96-1.96","248j921sqm4rcgz",111,"37.csv","","null","resources/maskTrios/BBA1.jpg","null","",NA,NA,NA,NA,""
"image-keyboard-response",301,272712,"0.0-3.96-2.96","248j921sqm4rcgz",111,"37.csv","","null","resources/images/fishbone.png","null","",NA,NA,NA,NA,""
"image-keyboard-response",302,273064,"0.0-3.97-0.97","248j921sqm4rcgz",111,"37.csv","","350","resources/trios/L1T1A3.jpg","39","restless",0.7,0.5,0.5,0.476047020130179,"true"
"image-keyboard-response",303,273478,"0.0-3.97-1.97","248j921sqm4rcgz",111,"37.csv","","null","resources/maskTrios/BBA3.jpg","null","",NA,NA,NA,NA,""
"image-keyboard-response",304,274693,"0.0-3.97-2.97","248j921sqm4rcgz",111,"37.csv","","null","resources/images/coin2.png","null","",NA,NA,NA,NA,""
"image-keyboard-response",305,275047,"0.0-3.98-0.98","248j921sqm4rcgz",111,"37.csv","","352.2000000476837","resources/trios/L1T4A1.jpg","39","restless",0.7,0.5,0.5,0.605477072344283,"false"
"image-keyboard-response",306,275451,"0.0-3.98-1.98","248j921sqm4rcgz",111,"37.csv","","null","resources/maskTrios/BBA1.jpg","null","",NA,NA,NA,NA,""
"image-keyboard-response",307,276664,"0.0-3.98-2.98","248j921sqm4rcgz",111,"37.csv","","null","resources/images/fishbone.png","null","",NA,NA,NA,NA,""
"image-keyboard-response",308,277548,"0.0-3.99-0.99","248j921sqm4rcgz",111,"37.csv","","883.1000001430511","resources/trios/L4T1A1.jpg","38","restless",0.7,0.5,0.5,0.123416949068954,"true"
"image-keyboard-response",309,277965,"0.0-3.99-1.99","248j921sqm4rcgz",111,"37.csv","","null","resources/maskTrios/BT1B.jpg","null","",NA,NA,NA,NA,""
"image-keyboard-response",310,279184,"0.0-3.99-2.99","248j921sqm4rcgz",111,"37.csv","","null","resources/images/coin2.png","null","",NA,NA,NA,NA,""
"image-keyboard-response",311,279513,"0.0-3.100-0.100","248j921sqm4rcgz",111,"37.csv","","327.2000000476837","resources/trios/L1T1A1.jpg","38","restless",0.7,0.5,0.5,0.964612547802936,"false"
"image-keyboard-response",312,279923,"0.0-3.100-1.100","248j921sqm4rcgz",111,"37.csv","","null","resources/maskTrios/BT1B.jpg","null","",NA,NA,NA,NA,""
"image-keyboard-response",313,281139,"0.0-3.100-2.100","248j921sqm4rcgz",111,"37.csv","","null","resources/images/fishbone.png","null","",NA,NA,NA,NA,""
"image-keyboard-response",314,281461,"0.0-3.101-0.101","248j921sqm4rcgz",111,"37.csv","","320.2999999523163","resources/trios/L1T4A3.jpg","37","restless",0.7,0.5,0.6,0.707886014147236,"false"
"image-keyboard-response",315,281867,"0.0-3.101-1.101","248j921sqm4rcgz",111,"37.csv","","null","resources/maskTrios/L1BB.jpg","null","",NA,NA,NA,NA,""
"image-keyboard-response",316,283083,"0.0-3.101-2.101","248j921sqm4rcgz",111,"37.csv","","null","resources/images/fishbone.png","null","",NA,NA,NA,NA,""
"image-keyboard-response",317,283411,"0.0-3.102-0.102","248j921sqm4rcgz",111,"37.csv","","326.60000014305115","resources/trios/L1T4A1.jpg","37","restless",0.7,0.5,0.6,0.443242418555671,"true"
"image-keyboard-response",318,283822,"0.0-3.102-1.102","248j921sqm4rcgz",111,"37.csv","","null","resources/maskTrios/L1BB.jpg","null","",NA,NA,NA,NA,""
"image-keyboard-response",319,285037,"0.0-3.102-2.102","248j921sqm4rcgz",111,"37.csv","","null","resources/images/coin2.png","null","",NA,NA,NA,NA,""
"image-keyboard-response",320,285326,"0.0-3.103-0.103","248j921sqm4rcgz",111,"37.csv","","288.40000009536743","resources/trios/L1T4A1.jpg","37","restless",0.7,0.5,0.6,0.296625380288418,"true"
"image-keyboard-response",321,285732,"0.0-3.103-1.103","248j921sqm4rcgz",111,"37.csv","","null","resources/maskTrios/L1BB.jpg","null","",NA,NA,NA,NA,""
"image-keyboard-response",322,286944,"0.0-3.103-2.103","248j921sqm4rcgz",111,"37.csv","","null","resources/images/coin2.png","null","",NA,NA,NA,NA,""
"image-keyboard-response",323,287238,"0.0-3.104-0.104","248j921sqm4rcgz",111,"37.csv","","293","resources/trios/L1T4A3.jpg","37","restless",0.7,0.5,0.5,0.0028587952532757,"true"
"image-keyboard-response",324,287653,"0.0-3.104-1.104","248j921sqm4rcgz",111,"37.csv","","null","resources/maskTrios/L1BB.jpg","null","",NA,NA,NA,NA,""
"image-keyboard-response",325,288866,"0.0-3.104-2.104","248j921sqm4rcgz",111,"37.csv","","null","resources/images/coin2.png","null","",NA,NA,NA,NA,""
"image-keyboard-response",326,289340,"0.0-3.105-0.105","248j921sqm4rcgz",111,"37.csv","","473.60000014305115","resources/trios/L4T4A1.jpg","37","restless",0.7,0.5,0.5,0.617570182186209,"true"
"image-keyboard-response",327,289750,"0.0-3.105-1.105","248j921sqm4rcgz",111,"37.csv","","null","resources/maskTrios/L4BB.jpg","null","",NA,NA,NA,NA,""
"image-keyboard-response",328,290964,"0.0-3.105-2.105","248j921sqm4rcgz",111,"37.csv","","null","resources/images/coin2.png","null","",NA,NA,NA,NA,""
"image-keyboard-response",329,292529,"0.0-3.106-0.106","248j921sqm4rcgz",111,"37.csv","","1563","resources/trios/L1T4A1.jpg","37","restless",0.7,0.5,0.5,0.921339792011862,"false"
"image-keyboard-response",330,292942,"0.0-3.106-1.106","248j921sqm4rcgz",111,"37.csv","","null","resources/maskTrios/L1BB.jpg","null","",NA,NA,NA,NA,""
"image-keyboard-response",331,294148,"0.0-3.106-2.106","248j921sqm4rcgz",111,"37.csv","","null","resources/images/fishbone.png","null","",NA,NA,NA,NA,""
"image-keyboard-response",332,294641,"0.0-3.107-0.107","248j921sqm4rcgz",111,"37.csv","","491.7000000476837","resources/trios/L4T1A1.jpg","38","restless",0.7,0.5,0.5,0.589638777544138,"false"
"image-keyboard-response",333,295058,"0.0-3.107-1.107","248j921sqm4rcgz",111,"37.csv","","null","resources/maskTrios/BT1B.jpg","null","",NA,NA,NA,NA,""
"image-keyboard-response",334,296277,"0.0-3.107-2.107","248j921sqm4rcgz",111,"37.csv","","null","resources/images/fishbone.png","null","",NA,NA,NA,NA,""
"image-keyboard-response",335,296682,"0.0-3.108-0.108","248j921sqm4rcgz",111,"37.csv","","404.2000000476837","resources/trios/L1T4A1.jpg","39","restless",0.7,0.4,0.5,0.824484513232461,"false"
"image-keyboard-response",336,297105,"0.0-3.108-1.108","248j921sqm4rcgz",111,"37.csv","","null","resources/maskTrios/BBA1.jpg","null","",NA,NA,NA,NA,""
"image-keyboard-response",337,298320,"0.0-3.108-2.108","248j921sqm4rcgz",111,"37.csv","","null","resources/images/fishbone.png","null","",NA,NA,NA,NA,""
"image-keyboard-response",338,298586,"0.0-3.109-0.109","248j921sqm4rcgz",111,"37.csv","","264.2999999523163","resources/trios/L4T4A1.jpg","39","restless",0.7,0.4,0.6,0.812368355551805,"false"
"image-keyboard-response",339,298995,"0.0-3.109-1.109","248j921sqm4rcgz",111,"37.csv","","null","resources/maskTrios/BBA1.jpg","null","",NA,NA,NA,NA,""
"image-keyboard-response",340,300208,"0.0-3.109-2.109","248j921sqm4rcgz",111,"37.csv","","null","resources/images/fishbone.png","null","",NA,NA,NA,NA,""
"image-keyboard-response",341,300823,"0.0-3.110-0.110","248j921sqm4rcgz",111,"37.csv","","614.2000000476837","resources/trios/L4T1A3.jpg","39","restless",0.7,0.4,0.7,0.0615203512658971,"true"
"image-keyboard-response",342,301229,"0.0-3.110-1.110","248j921sqm4rcgz",111,"37.csv","","null","resources/maskTrios/BBA3.jpg","null","",NA,NA,NA,NA,""
"image-keyboard-response",343,302445,"0.0-3.110-2.110","248j921sqm4rcgz",111,"37.csv","","null","resources/images/coin2.png","null","",NA,NA,NA,NA,""
"image-keyboard-response",344,302778,"0.0-3.111-0.111","248j921sqm4rcgz",111,"37.csv","","333","resources/trios/L1T4A1.jpg","39","restless",0.7,0.4,0.7,0.891099317243857,"false"
"image-keyboard-response",345,303190,"0.0-3.111-1.111","248j921sqm4rcgz",111,"37.csv","","null","resources/maskTrios/BBA1.jpg","null","",NA,NA,NA,NA,""
"image-keyboard-response",346,304406,"0.0-3.111-2.111","248j921sqm4rcgz",111,"37.csv","","null","resources/images/fishbone.png","null","",NA,NA,NA,NA,""
"image-keyboard-response",347,304718,"0.0-3.112-0.112","248j921sqm4rcgz",111,"37.csv","","309.7999999523163","resources/trios/L1T1A1.jpg","37","restless",0.7,0.4,0.6,0.822613998295721,"false"
"image-keyboard-response",348,305125,"0.0-3.112-1.112","248j921sqm4rcgz",111,"37.csv","","null","resources/maskTrios/L1BB.jpg","null","",NA,NA,NA,NA,""
"image-keyboard-response",349,306335,"0.0-3.112-2.112","248j921sqm4rcgz",111,"37.csv","","null","resources/images/fishbone.png","null","",NA,NA,NA,NA,""
"image-keyboard-response",350,306655,"0.0-3.113-0.113","248j921sqm4rcgz",111,"37.csv","","317.40000009536743","resources/trios/L4T4A3.jpg","37","restless",0.7,0.4,0.5,0.824369495465773,"false"
"image-keyboard-response",351,307075,"0.0-3.113-1.113","248j921sqm4rcgz",111,"37.csv","","null","resources/maskTrios/L4BB.jpg","null","",NA,NA,NA,NA,""
"image-keyboard-response",352,308284,"0.0-3.113-2.113","248j921sqm4rcgz",111,"37.csv","","null","resources/images/fishbone.png","null","",NA,NA,NA,NA,""
"image-keyboard-response",353,308634,"0.0-3.114-0.114","248j921sqm4rcgz",111,"37.csv","","347.59999990463257","resources/trios/L4T1A1.jpg","38","restless",0.7,0.4,0.5,0.808029171970846,"false"
"image-keyboard-response",354,309058,"0.0-3.114-1.114","248j921sqm4rcgz",111,"37.csv","","null","resources/maskTrios/BT1B.jpg","null","",NA,NA,NA,NA,""
"image-keyboard-response",355,310277,"0.0-3.114-2.114","248j921sqm4rcgz",111,"37.csv","","null","resources/images/fishbone.png","null","",NA,NA,NA,NA,""
"image-keyboard-response",356,310579,"0.0-3.115-0.115","248j921sqm4rcgz",111,"37.csv","","301.30000019073486","resources/trios/L1T4A3.jpg","39","restless",0.7,0.4,0.5,0.975101021198668,"false"
"image-keyboard-response",357,310990,"0.0-3.115-1.115","248j921sqm4rcgz",111,"37.csv","","null","resources/maskTrios/BBA3.jpg","null","",NA,NA,NA,NA,""
"image-keyboard-response",358,312208,"0.0-3.115-2.115","248j921sqm4rcgz",111,"37.csv","","null","resources/images/fishbone.png","null","",NA,NA,NA,NA,""
"image-keyboard-response",359,312499,"0.0-3.116-0.116","248j921sqm4rcgz",111,"37.csv","","290.60000014305115","resources/trios/L4T4A3.jpg","37","restless",0.7,0.4,0.5,0.346723225249369,"true"
"image-keyboard-response",360,312913,"0.0-3.116-1.116","248j921sqm4rcgz",111,"37.csv","","null","resources/maskTrios/L4BB.jpg","null","",NA,NA,NA,NA,""
"image-keyboard-response",361,314124,"0.0-3.116-2.116","248j921sqm4rcgz",111,"37.csv","","null","resources/images/coin2.png","null","",NA,NA,NA,NA,""
"image-keyboard-response",362,314430,"0.0-3.117-0.117","248j921sqm4rcgz",111,"37.csv","","303.5","resources/trios/L1T1A3.jpg","37","restless",0.7,0.4,0.5,0.0644151004228364,"true"
"image-keyboard-response",363,314846,"0.0-3.117-1.117","248j921sqm4rcgz",111,"37.csv","","null","resources/maskTrios/L1BB.jpg","null","",NA,NA,NA,NA,""
"image-keyboard-response",364,316056,"0.0-3.117-2.117","248j921sqm4rcgz",111,"37.csv","","null","resources/images/coin2.png","null","",NA,NA,NA,NA,""
"image-keyboard-response",365,316407,"0.0-3.118-0.118","248j921sqm4rcgz",111,"37.csv","","349","resources/trios/L4T4A3.jpg","37","restless",0.7,0.4,0.5,0.663505453525111,"true"
"image-keyboard-response",366,316812,"0.0-3.118-1.118","248j921sqm4rcgz",111,"37.csv","","null","resources/maskTrios/L4BB.jpg","null","",NA,NA,NA,NA,""
"image-keyboard-response",367,318023,"0.0-3.118-2.118","248j921sqm4rcgz",111,"37.csv","","null","resources/images/coin2.png","null","",NA,NA,NA,NA,""
"image-keyboard-response",368,318339,"0.0-3.119-0.119","248j921sqm4rcgz",111,"37.csv","","314","resources/trios/L4T1A3.jpg","37","restless",0.7,0.4,0.5,0.139129200536368,"true"
"image-keyboard-response",369,318759,"0.0-3.119-1.119","248j921sqm4rcgz",111,"37.csv","","null","resources/maskTrios/L4BB.jpg","null","",NA,NA,NA,NA,""
"image-keyboard-response",370,319970,"0.0-3.119-2.119","248j921sqm4rcgz",111,"37.csv","","null","resources/images/coin2.png","null","",NA,NA,NA,NA,""
"image-keyboard-response",371,320293,"0.0-3.120-0.120","248j921sqm4rcgz",111,"37.csv","","320.59999990463257","resources/trios/L1T4A1.jpg","37","restless",0.7,0.4,0.5,0.0862005994691717,"true"
"image-keyboard-response",372,320708,"0.0-3.120-1.120","248j921sqm4rcgz",111,"37.csv","","null","resources/maskTrios/L1BB.jpg","null","",NA,NA,NA,NA,""
"image-keyboard-response",373,321925,"0.0-3.120-2.120","248j921sqm4rcgz",111,"37.csv","","null","resources/images/coin2.png","null","",NA,NA,NA,NA,""
"image-keyboard-response",374,322262,"0.0-3.121-0.121","248j921sqm4rcgz",111,"37.csv","","336.5","resources/trios/L1T1A1.jpg","37","restless",0.7,0.4,0.5,0.551603911153139,"true"
"image-keyboard-response",375,322673,"0.0-3.121-1.121","248j921sqm4rcgz",111,"37.csv","","null","resources/maskTrios/L1BB.jpg","null","",NA,NA,NA,NA,""
"image-keyboard-response",376,323888,"0.0-3.121-2.121","248j921sqm4rcgz",111,"37.csv","","null","resources/images/coin2.png","null","",NA,NA,NA,NA,""
"image-keyboard-response",377,324470,"0.0-3.122-0.122","248j921sqm4rcgz",111,"37.csv","","578.8999998569489","resources/trios/L1T1A1.jpg","37","restless",0.7,0.4,0.5,0.0594204523018254,"true"
"image-keyboard-response",378,324884,"0.0-3.122-1.122","248j921sqm4rcgz",111,"37.csv","","null","resources/maskTrios/L1BB.jpg","null","",NA,NA,NA,NA,""
"image-keyboard-response",379,326093,"0.0-3.122-2.122","248j921sqm4rcgz",111,"37.csv","","null","resources/images/coin2.png","null","",NA,NA,NA,NA,""
"image-keyboard-response",380,326416,"0.0-3.123-0.123","248j921sqm4rcgz",111,"37.csv","","321.59999990463257","resources/trios/L4T4A3.jpg","37","restless",0.7,0.4,0.5,0.372539501429145,"true"
"image-keyboard-response",381,326833,"0.0-3.123-1.123","248j921sqm4rcgz",111,"37.csv","","null","resources/maskTrios/L4BB.jpg","null","",NA,NA,NA,NA,""
"image-keyboard-response",382,328043,"0.0-3.123-2.123","248j921sqm4rcgz",111,"37.csv","","null","resources/images/coin2.png","null","",NA,NA,NA,NA,""
"image-keyboard-response",383,328379,"0.0-3.124-0.124","248j921sqm4rcgz",111,"37.csv","","335.2999999523163","resources/trios/L1T4A3.jpg","37","restless",0.7,0.4,0.5,0.956177438487714,"false"
"image-keyboard-response",384,328796,"0.0-3.124-1.124","248j921sqm4rcgz",111,"37.csv","","null","resources/maskTrios/L1BB.jpg","null","",NA,NA,NA,NA,""
"image-keyboard-response",385,330008,"0.0-3.124-2.124","248j921sqm4rcgz",111,"37.csv","","null","resources/images/fishbone.png","null","",NA,NA,NA,NA,""
"image-keyboard-response",386,330334,"0.0-3.125-0.125","248j921sqm4rcgz",111,"37.csv","","324.5","resources/trios/L4T1A1.jpg","38","restless",0.7,0.4,0.5,0.254136953647484,"true"
"image-keyboard-response",387,330748,"0.0-3.125-1.125","248j921sqm4rcgz",111,"37.csv","","null","resources/maskTrios/BT1B.jpg","null","",NA,NA,NA,NA,""
"image-keyboard-response",388,331962,"0.0-3.125-2.125","248j921sqm4rcgz",111,"37.csv","","null","resources/images/coin2.png","null","",NA,NA,NA,NA,""
"image-keyboard-response",389,332306,"0.0-3.126-0.126","248j921sqm4rcgz",111,"37.csv","","341.39999985694885","resources/trios/L4T1A1.jpg","38","restless",0.7,0.4,0.5,0.32438122008313,"true"
"image-keyboard-response",390,332730,"0.0-3.126-1.126","248j921sqm4rcgz",111,"37.csv","","null","resources/maskTrios/BT1B.jpg","null","",NA,NA,NA,NA,""
"image-keyboard-response",391,333941,"0.0-3.126-2.126","248j921sqm4rcgz",111,"37.csv","","null","resources/images/coin2.png","null","",NA,NA,NA,NA,""
"image-keyboard-response",392,334373,"0.0-3.127-0.127","248j921sqm4rcgz",111,"37.csv","","430.10000014305115","resources/trios/L1T1A3.jpg","38","restless",0.7,0.4,0.5,0.373890676492249,"true"
"image-keyboard-response",393,334793,"0.0-3.127-1.127","248j921sqm4rcgz",111,"37.csv","","null","resources/maskTrios/BT1B.jpg","null","",NA,NA,NA,NA,""
"image-keyboard-response",394,336004,"0.0-3.127-2.127","248j921sqm4rcgz",111,"37.csv","","null","resources/images/coin2.png","null","",NA,NA,NA,NA,""
"image-keyboard-response",395,336343,"0.0-3.128-0.128","248j921sqm4rcgz",111,"37.csv","","337.2999999523163","resources/trios/L4T4A1.jpg","38","restless",0.7,0.4,0.5,0.30189677670931,"true"
"image-keyboard-response",396,336759,"0.0-3.128-1.128","248j921sqm4rcgz",111,"37.csv","","null","resources/maskTrios/BT4B.jpg","null","",NA,NA,NA,NA,""
"image-keyboard-response",397,337973,"0.0-3.128-2.128","248j921sqm4rcgz",111,"37.csv","","null","resources/images/coin2.png","null","",NA,NA,NA,NA,""
"image-keyboard-response",398,338318,"0.0-3.129-0.129","248j921sqm4rcgz",111,"37.csv","","344.2999999523163","resources/trios/L4T1A3.jpg","38","restless",0.7,0.4,0.5,0.939746906112224,"false"
"image-keyboard-response",399,338730,"0.0-3.129-1.129","248j921sqm4rcgz",111,"37.csv","","null","resources/maskTrios/BT1B.jpg","null","",NA,NA,NA,NA,""
"image-keyboard-response",400,339953,"0.0-3.129-2.129","248j921sqm4rcgz",111,"37.csv","","null","resources/images/fishbone.png","null","",NA,NA,NA,NA,""
"image-keyboard-response",401,340261,"0.0-3.130-0.130","248j921sqm4rcgz",111,"37.csv","","305.90000009536743","resources/trios/L4T4A3.jpg","39","restless",0.7,0.4,0.5,0.440671448088066,"true"
"image-keyboard-response",402,340673,"0.0-3.130-1.130","248j921sqm4rcgz",111,"37.csv","","null","resources/maskTrios/BBA3.jpg","null","",NA,NA,NA,NA,""
"image-keyboard-response",403,341885,"0.0-3.130-2.130","248j921sqm4rcgz",111,"37.csv","","null","resources/images/coin2.png","null","",NA,NA,NA,NA,""
"image-keyboard-response",404,342721,"0.0-3.131-0.131","248j921sqm4rcgz",111,"37.csv","","834","resources/trios/L4T1A3.jpg","39","restless",0.7,0.4,0.5,0.328141089383126,"true"
"image-keyboard-response",405,343139,"0.0-3.131-1.131","248j921sqm4rcgz",111,"37.csv","","null","resources/maskTrios/BBA3.jpg","null","",NA,NA,NA,NA,""
"image-keyboard-response",406,344353,"0.0-3.131-2.131","248j921sqm4rcgz",111,"37.csv","","null","resources/images/coin2.png","null","",NA,NA,NA,NA,""
"image-keyboard-response",407,344833,"0.0-3.132-0.132","248j921sqm4rcgz",111,"37.csv","","478.59999990463257","resources/trios/L1T1A1.jpg","39","restless",0.7,0.4,0.6,0.624858339453977,"false"
"image-keyboard-response",408,345236,"0.0-3.132-1.132","248j921sqm4rcgz",111,"37.csv","","null","resources/maskTrios/BBA1.jpg","null","",NA,NA,NA,NA,""
"image-keyboard-response",409,346445,"0.0-3.132-2.132","248j921sqm4rcgz",111,"37.csv","","null","resources/images/fishbone.png","null","",NA,NA,NA,NA,""
"image-keyboard-response",410,346798,"0.0-3.133-0.133","248j921sqm4rcgz",111,"37.csv","","352.10000014305115","resources/trios/L1T4A3.jpg","37","restless",0.7,0.4,0.6,0.0903257736186649,"true"
"image-keyboard-response",411,347214,"0.0-3.133-1.133","248j921sqm4rcgz",111,"37.csv","","null","resources/maskTrios/L1BB.jpg","null","",NA,NA,NA,NA,""
"image-keyboard-response",412,348423,"0.0-3.133-2.133","248j921sqm4rcgz",111,"37.csv","","null","resources/images/coin2.png","null","",NA,NA,NA,NA,""
"image-keyboard-response",413,349346,"0.0-3.134-0.134","248j921sqm4rcgz",111,"37.csv","","920.7999999523163","resources/trios/L4T1A3.jpg","37","restless",0.7,0.4,0.6,0.783846025988817,"false"
"image-keyboard-response",414,349758,"0.0-3.134-1.134","248j921sqm4rcgz",111,"37.csv","","null","resources/maskTrios/L4BB.jpg","null","",NA,NA,NA,NA,""
"image-keyboard-response",415,350969,"0.0-3.134-2.134","248j921sqm4rcgz",111,"37.csv","","null","resources/images/fishbone.png","null","",NA,NA,NA,NA,""
"image-keyboard-response",416,351586,"0.0-3.135-0.135","248j921sqm4rcgz",111,"37.csv","","615.1999998092651","resources/trios/L1T1A1.jpg","38","restless",0.7,0.4,0.7,0.787051736963229,"false"
"image-keyboard-response",417,352005,"0.0-3.135-1.135","248j921sqm4rcgz",111,"37.csv","","null","resources/maskTrios/BT1B.jpg","null","",NA,NA,NA,NA,""
"image-keyboard-response",418,353218,"0.0-3.135-2.135","248j921sqm4rcgz",111,"37.csv","","null","resources/images/fishbone.png","null","",NA,NA,NA,NA,""
"image-keyboard-response",419,353547,"0.0-3.136-0.136","248j921sqm4rcgz",111,"37.csv","","326.69999980926514","resources/trios/L1T1A3.jpg","38","restless",0.7,0.4,0.7,0.00495107327623678,"true"
"image-keyboard-response",420,353959,"0.0-3.136-1.136","248j921sqm4rcgz",111,"37.csv","","null","resources/maskTrios/BT1B.jpg","null","",NA,NA,NA,NA,""
"image-keyboard-response",421,355174,"0.0-3.136-2.136","248j921sqm4rcgz",111,"37.csv","","null","resources/images/coin2.png","null","",NA,NA,NA,NA,""
"image-keyboard-response",422,356956,"0.0-3.137-0.137","248j921sqm4rcgz",111,"37.csv","","1781","resources/trios/L4T1A1.jpg","38","restless",0.6,0.5,0.7,0.61033802452375,"false"
"image-keyboard-response",423,357370,"0.0-3.137-1.137","248j921sqm4rcgz",111,"37.csv","","null","resources/maskTrios/BT1B.jpg","null","",NA,NA,NA,NA,""
"image-keyboard-response",424,358593,"0.0-3.137-2.137","248j921sqm4rcgz",111,"37.csv","","null","resources/images/fishbone.png","null","",NA,NA,NA,NA,""
"image-keyboard-response",425,358888,"0.0-3.138-0.138","248j921sqm4rcgz",111,"37.csv","","292.7000000476837","resources/trios/L4T1A1.jpg","39","restless",0.6,0.5,0.7,0.326192041018768,"true"
"image-keyboard-response",426,359305,"0.0-3.138-1.138","248j921sqm4rcgz",111,"37.csv","","null","resources/maskTrios/BBA1.jpg","null","",NA,NA,NA,NA,""
"image-keyboard-response",427,360515,"0.0-3.138-2.138","248j921sqm4rcgz",111,"37.csv","","null","resources/images/coin2.png","null","",NA,NA,NA,NA,""
"image-keyboard-response",428,360800,"0.0-3.139-0.139","248j921sqm4rcgz",111,"37.csv","","282.90000009536743","resources/trios/L4T1A1.jpg","39","restless",0.6,0.5,0.7,0.76961021496704,"false"
"image-keyboard-response",429,361206,"0.0-3.139-1.139","248j921sqm4rcgz",111,"37.csv","","null","resources/maskTrios/BBA1.jpg","null","",NA,NA,NA,NA,""
"image-keyboard-response",430,362414,"0.0-3.139-2.139","248j921sqm4rcgz",111,"37.csv","","null","resources/images/fishbone.png","null","",NA,NA,NA,NA,""
"image-keyboard-response",431,362716,"0.0-3.140-0.140","248j921sqm4rcgz",111,"37.csv","","300.5","resources/trios/L4T4A3.jpg","37","restless",0.6,0.5,0.7,0.291713605244584,"true"
"image-keyboard-response",432,363135,"0.0-3.140-1.140","248j921sqm4rcgz",111,"37.csv","","null","resources/maskTrios/L4BB.jpg","null","",NA,NA,NA,NA,""
"image-keyboard-response",433,364345,"0.0-3.140-2.140","248j921sqm4rcgz",111,"37.csv","","null","resources/images/coin2.png","null","",NA,NA,NA,NA,""
"image-keyboard-response",434,365142,"0.0-3.141-0.141","248j921sqm4rcgz",111,"37.csv","","795","resources/trios/L1T1A3.jpg","37","restless",0.6,0.5,0.7,0.325161138995229,"true"
"image-keyboard-response",435,365561,"0.0-3.141-1.141","248j921sqm4rcgz",111,"37.csv","","null","resources/maskTrios/L1BB.jpg","null","",NA,NA,NA,NA,""
"image-keyboard-response",436,366771,"0.0-3.141-2.141","248j921sqm4rcgz",111,"37.csv","","null","resources/images/coin2.png","null","",NA,NA,NA,NA,""
"image-keyboard-response",437,367087,"0.0-3.142-0.142","248j921sqm4rcgz",111,"37.csv","","313.60000014305115","resources/trios/L1T4A3.jpg","37","restless",0.5,0.6,0.7,0.748933905051813,"false"
"image-keyboard-response",438,367498,"0.0-3.142-1.142","248j921sqm4rcgz",111,"37.csv","","null","resources/maskTrios/L1BB.jpg","null","",NA,NA,NA,NA,""
"image-keyboard-response",439,368711,"0.0-3.142-2.142","248j921sqm4rcgz",111,"37.csv","","null","resources/images/fishbone.png","null","",NA,NA,NA,NA,""
"image-keyboard-response",440,369129,"0.0-3.143-0.143","248j921sqm4rcgz",111,"37.csv","","417.40000009536743","resources/trios/L4T4A3.jpg","38","restless",0.5,0.6,0.8,0.129856946696236,"true"
"image-keyboard-response",441,369541,"0.0-3.143-1.143","248j921sqm4rcgz",111,"37.csv","","null","resources/maskTrios/BT4B.jpg","null","",NA,NA,NA,NA,""
"image-keyboard-response",442,370757,"0.0-3.143-2.143","248j921sqm4rcgz",111,"37.csv","","null","resources/images/coin2.png","null","",NA,NA,NA,NA,""
"image-keyboard-response",443,371125,"0.0-3.144-0.144","248j921sqm4rcgz",111,"37.csv","","366.2999999523163","resources/trios/L1T1A1.jpg","38","restless",0.5,0.6,0.8,0.596259687891721,"true"
"image-keyboard-response",444,371535,"0.0-3.144-1.144","248j921sqm4rcgz",111,"37.csv","","null","resources/maskTrios/BT1B.jpg","null","",NA,NA,NA,NA,""
"image-keyboard-response",445,372752,"0.0-3.144-2.144","248j921sqm4rcgz",111,"37.csv","","null","resources/images/coin2.png","null","",NA,NA,NA,NA,""
"image-keyboard-response",446,373145,"0.0-3.145-0.145","248j921sqm4rcgz",111,"37.csv","","391.90000009536743","resources/trios/L4T1A1.jpg","38","restless",0.4,0.6,0.7,0.280628351036367,"true"
"image-keyboard-response",447,373552,"0.0-3.145-1.145","248j921sqm4rcgz",111,"37.csv","","null","resources/maskTrios/BT1B.jpg","null","",NA,NA,NA,NA,""
"image-keyboard-response",448,374762,"0.0-3.145-2.145","248j921sqm4rcgz",111,"37.csv","","null","resources/images/coin2.png","null","",NA,NA,NA,NA,""
"image-keyboard-response",449,375050,"0.0-3.146-0.146","248j921sqm4rcgz",111,"37.csv","","285.7000000476837","resources/trios/L1T1A1.jpg","38","restless",0.4,0.6,0.7,0.794510121727077,"false"
"image-keyboard-response",450,375467,"0.0-3.146-1.146","248j921sqm4rcgz",111,"37.csv","","null","resources/maskTrios/BT1B.jpg","null","",NA,NA,NA,NA,""
"image-keyboard-response",451,376687,"0.0-3.146-2.146","248j921sqm4rcgz",111,"37.csv","","null","resources/images/fishbone.png","null","",NA,NA,NA,NA,""
"image-keyboard-response",452,377002,"0.0-3.147-0.147","248j921sqm4rcgz",111,"37.csv","","313.09999990463257","resources/trios/L1T4A1.jpg","39","restless",0.4,0.6,0.7,0.971180093273165,"false"
"image-keyboard-response",453,377408,"0.0-3.147-1.147","248j921sqm4rcgz",111,"37.csv","","null","resources/maskTrios/BBA1.jpg","null","",NA,NA,NA,NA,""
"image-keyboard-response",454,378618,"0.0-3.147-2.147","248j921sqm4rcgz",111,"37.csv","","null","resources/images/fishbone.png","null","",NA,NA,NA,NA,""
"image-keyboard-response",455,379644,"0.0-3.148-0.148","248j921sqm4rcgz",111,"37.csv","","1024.8999998569489","resources/trios/L1T4A1.jpg","39","restless",0.4,0.6,0.7,0.305846732451613,"true"
"image-keyboard-response",456,380055,"0.0-3.148-1.148","248j921sqm4rcgz",111,"37.csv","","null","resources/maskTrios/BBA1.jpg","null","",NA,NA,NA,NA,""
"image-keyboard-response",457,381267,"0.0-3.148-2.148","248j921sqm4rcgz",111,"37.csv","","null","resources/images/coin2.png","null","",NA,NA,NA,NA,""
"image-keyboard-response",458,381576,"0.0-3.149-0.149","248j921sqm4rcgz",111,"37.csv","","306.80000019073486","resources/trios/L1T4A1.jpg","39","restless",0.4,0.6,0.7,0.54460702990164,"true"
"image-keyboard-response",459,381991,"0.0-3.149-1.149","248j921sqm4rcgz",111,"37.csv","","null","resources/maskTrios/BBA1.jpg","null","",NA,NA,NA,NA,""
"image-keyboard-response",460,383197,"0.0-3.149-2.149","248j921sqm4rcgz",111,"37.csv","","null","resources/images/coin2.png","null","",NA,NA,NA,NA,""
"image-keyboard-response",461,383573,"0.0-3.150-0.150","248j921sqm4rcgz",111,"37.csv","","373.90000009536743","resources/trios/L1T4A1.jpg","39","restless",0.4,0.5,0.7,0.995508709334404,"false"
"image-keyboard-response",462,383983,"0.0-3.150-1.150","248j921sqm4rcgz",111,"37.csv","","null","resources/maskTrios/BBA1.jpg","null","",NA,NA,NA,NA,""
"image-keyboard-response",463,385195,"0.0-3.150-2.150","248j921sqm4rcgz",111,"37.csv","","null","resources/images/fishbone.png","null","",NA,NA,NA,NA,""
"image-keyboard-response",464,385472,"0.0-3.151-0.151","248j921sqm4rcgz",111,"37.csv","","275.60000014305115","resources/trios/L1T4A3.jpg","37","restless",0.4,0.5,0.7,0.976015574782199,"false"
"image-keyboard-response",465,385889,"0.0-3.151-1.151","248j921sqm4rcgz",111,"37.csv","","null","resources/maskTrios/L1BB.jpg","null","",NA,NA,NA,NA,""
"image-keyboard-response",466,387097,"0.0-3.151-2.151","248j921sqm4rcgz",111,"37.csv","","null","resources/images/fishbone.png","null","",NA,NA,NA,NA,""
"image-keyboard-response",467,388197,"0.0-3.152-0.152","248j921sqm4rcgz",111,"37.csv","","1097.5","resources/trios/L4T1A1.jpg","37","restless",0.4,0.5,0.7,0.0118306989609349,"true"
"image-keyboard-response",468,388614,"0.0-3.152-1.152","248j921sqm4rcgz",111,"37.csv","","null","resources/maskTrios/L4BB.jpg","null","",NA,NA,NA,NA,""
"image-keyboard-response",469,389825,"0.0-3.152-2.152","248j921sqm4rcgz",111,"37.csv","","null","resources/images/coin2.png","null","",NA,NA,NA,NA,""
"image-keyboard-response",470,390223,"0.0-3.153-0.153","248j921sqm4rcgz",111,"37.csv","","395.7000000476837","resources/trios/L4T4A3.jpg","37","restless",0.4,0.5,0.7,0.659435178950937,"false"
"image-keyboard-response",471,390630,"0.0-3.153-1.153","248j921sqm4rcgz",111,"37.csv","","null","resources/maskTrios/L4BB.jpg","null","",NA,NA,NA,NA,""
"image-keyboard-response",472,391840,"0.0-3.153-2.153","248j921sqm4rcgz",111,"37.csv","","null","resources/images/fishbone.png","null","",NA,NA,NA,NA,""
"image-keyboard-response",473,392901,"0.0-3.154-0.154","248j921sqm4rcgz",111,"37.csv","","1058.3999998569489","resources/trios/L4T1A1.jpg","37","restless",0.4,0.5,0.7,0.7752751758126,"false"
"image-keyboard-response",474,393319,"0.0-3.154-1.154","248j921sqm4rcgz",111,"37.csv","","null","resources/maskTrios/L4BB.jpg","null","",NA,NA,NA,NA,""
"image-keyboard-response",475,394529,"0.0-3.154-2.154","248j921sqm4rcgz",111,"37.csv","","null","resources/images/fishbone.png","null","",NA,NA,NA,NA,""
"image-keyboard-response",476,395002,"0.0-3.155-0.155","248j921sqm4rcgz",111,"37.csv","","472","resources/trios/L1T1A1.jpg","38","restless",0.4,0.5,0.7,0.245928591332372,"true"
"image-keyboard-response",477,395414,"0.0-3.155-1.155","248j921sqm4rcgz",111,"37.csv","","null","resources/maskTrios/BT1B.jpg","null","",NA,NA,NA,NA,""
"image-keyboard-response",478,396624,"0.0-3.155-2.155","248j921sqm4rcgz",111,"37.csv","","null","resources/images/coin2.png","null","",NA,NA,NA,NA,""
"image-keyboard-response",479,396966,"0.0-3.156-0.156","248j921sqm4rcgz",111,"37.csv","","341.60000014305115","resources/trios/L1T4A3.jpg","38","restless",0.4,0.5,0.6,0.064261101276045,"true"
"image-keyboard-response",480,397377,"0.0-3.156-1.156","248j921sqm4rcgz",111,"37.csv","","null","resources/maskTrios/BT4B.jpg","null","",NA,NA,NA,NA,""
"image-keyboard-response",481,398586,"0.0-3.156-2.156","248j921sqm4rcgz",111,"37.csv","","null","resources/images/coin2.png","null","",NA,NA,NA,NA,""
"image-keyboard-response",482,399374,"0.0-3.157-0.157","248j921sqm4rcgz",111,"37.csv","","786","resources/trios/L1T1A1.jpg","38","restless",0.4,0.5,0.6,0.952327554369354,"false"
"image-keyboard-response",483,399782,"0.0-3.157-1.157","248j921sqm4rcgz",111,"37.csv","","null","resources/maskTrios/BT1B.jpg","null","",NA,NA,NA,NA,""
"image-keyboard-response",484,400988,"0.0-3.157-2.157","248j921sqm4rcgz",111,"37.csv","","null","resources/images/fishbone.png","null","",NA,NA,NA,NA,""
"image-keyboard-response",485,401257,"0.0-3.158-0.158","248j921sqm4rcgz",111,"37.csv","","267","resources/trios/L1T4A3.jpg","37","restless",0.4,0.6,0.6,0.487743920600718,"false"
"image-keyboard-response",486,401671,"0.0-3.158-1.158","248j921sqm4rcgz",111,"37.csv","","null","resources/maskTrios/L1BB.jpg","null","",NA,NA,NA,NA,""
"image-keyboard-response",487,402882,"0.0-3.158-2.158","248j921sqm4rcgz",111,"37.csv","","null","resources/images/fishbone.png","null","",NA,NA,NA,NA,""
"image-keyboard-response",488,403279,"0.0-3.159-0.159","248j921sqm4rcgz",111,"37.csv","","396.7000000476837","resources/trios/L1T4A1.jpg","37","restless",0.4,0.6,0.6,0.534311980410536,"false"
"image-keyboard-response",489,403695,"0.0-3.159-1.159","248j921sqm4rcgz",111,"37.csv","","null","resources/maskTrios/L1BB.jpg","null","",NA,NA,NA,NA,""
"image-keyboard-response",490,404903,"0.0-3.159-2.159","248j921sqm4rcgz",111,"37.csv","","null","resources/images/fishbone.png","null","",NA,NA,NA,NA,""
"image-keyboard-response",491,405191,"0.0-3.160-0.160","248j921sqm4rcgz",111,"37.csv","","288","resources/trios/L4T4A3.jpg","39","restless",0.4,0.6,0.6,0.311335958398525,"true"
"image-keyboard-response",492,405611,"0.0-3.160-1.160","248j921sqm4rcgz",111,"37.csv","","null","resources/maskTrios/BBA3.jpg","null","",NA,NA,NA,NA,""
"image-keyboard-response",493,406820,"0.0-3.160-2.160","248j921sqm4rcgz",111,"37.csv","","null","resources/images/coin2.png","null","",NA,NA,NA,NA,""
"image-keyboard-response",494,407120,"0.0-3.161-0.161","248j921sqm4rcgz",111,"37.csv","","298.19999980926514","resources/trios/L1T4A1.jpg","39","restless",0.4,0.6,0.6,0.610180722727013,"false"
"image-keyboard-response",495,407526,"0.0-3.161-1.161","248j921sqm4rcgz",111,"37.csv","","null","resources/maskTrios/BBA1.jpg","null","",NA,NA,NA,NA,""
"image-keyboard-response",496,408735,"0.0-3.161-2.161","248j921sqm4rcgz",111,"37.csv","","null","resources/images/fishbone.png","null","",NA,NA,NA,NA,""
"image-keyboard-response",497,409544,"0.0-3.162-0.162","248j921sqm4rcgz",111,"37.csv","","807.7000000476837","resources/trios/L1T1A1.jpg","37","restless",0.5,0.6,0.6,0.68258468510508,"false"
"image-keyboard-response",498,409962,"0.0-3.162-1.162","248j921sqm4rcgz",111,"37.csv","","null","resources/maskTrios/L1BB.jpg","null","",NA,NA,NA,NA,""
"image-keyboard-response",499,411184,"0.0-3.162-2.162","248j921sqm4rcgz",111,"37.csv","","null","resources/images/fishbone.png","null","",NA,NA,NA,NA,""
"image-keyboard-response",500,411784,"0.0-3.163-0.163","248j921sqm4rcgz",111,"37.csv","","597.5","resources/trios/L1T4A3.jpg","38","restless",0.5,0.6,0.6,0.345968237946325,"true"
"image-keyboard-response",501,412195,"0.0-3.163-1.163","248j921sqm4rcgz",111,"37.csv","","null","resources/maskTrios/BT4B.jpg","null","",NA,NA,NA,NA,""
"image-keyboard-response",502,413407,"0.0-3.163-2.163","248j921sqm4rcgz",111,"37.csv","","null","resources/images/coin2.png","null","",NA,NA,NA,NA,""
"image-keyboard-response",503,413869,"0.0-3.164-0.164","248j921sqm4rcgz",111,"37.csv","","461","resources/trios/L4T1A3.jpg","38","restless",0.5,0.6,0.6,0.501323343554543,"true"
"image-keyboard-response",504,414288,"0.0-3.164-1.164","248j921sqm4rcgz",111,"37.csv","","null","resources/maskTrios/BT1B.jpg","null","",NA,NA,NA,NA,""
"image-keyboard-response",505,415493,"0.0-3.164-2.164","248j921sqm4rcgz",111,"37.csv","","null","resources/images/coin2.png","null","",NA,NA,NA,NA,""
"image-keyboard-response",506,415800,"0.0-3.165-0.165","248j921sqm4rcgz",111,"37.csv","","306.2999999523163","resources/trios/L4T1A1.jpg","38","restless",0.5,0.6,0.6,0.197131790656631,"true"
"image-keyboard-response",507,416207,"0.0-3.165-1.165","248j921sqm4rcgz",111,"37.csv","","null","resources/maskTrios/BT1B.jpg","null","",NA,NA,NA,NA,""
"image-keyboard-response",508,417415,"0.0-3.165-2.165","248j921sqm4rcgz",111,"37.csv","","null","resources/images/coin2.png","null","",NA,NA,NA,NA,""
"image-keyboard-response",509,418233,"0.0-3.166-0.166","248j921sqm4rcgz",111,"37.csv","","817","resources/trios/L1T1A3.jpg","38","restless",0.5,0.6,0.6,0.691366056028417,"false"
"image-keyboard-response",510,418638,"0.0-3.166-1.166","248j921sqm4rcgz",111,"37.csv","","null","resources/maskTrios/BT1B.jpg","null","",NA,NA,NA,NA,""
"image-keyboard-response",511,419851,"0.0-3.166-2.166","248j921sqm4rcgz",111,"37.csv","","null","resources/images/fishbone.png","null","",NA,NA,NA,NA,""
"image-keyboard-response",512,420185,"0.0-3.167-0.167","248j921sqm4rcgz",111,"37.csv","","333.7000000476837","resources/trios/L1T1A3.jpg","39","restless",0.5,0.6,0.6,0.32765634960049,"true"
"image-keyboard-response",513,420607,"0.0-3.167-1.167","248j921sqm4rcgz",111,"37.csv","","null","resources/maskTrios/BBA3.jpg","null","",NA,NA,NA,NA,""
"image-keyboard-response",514,421818,"0.0-3.167-2.167","248j921sqm4rcgz",111,"37.csv","","null","resources/images/coin2.png","null","",NA,NA,NA,NA,""
"image-keyboard-response",515,422231,"0.0-3.168-0.168","248j921sqm4rcgz",111,"37.csv","","411.5","resources/trios/L1T4A3.jpg","39","restless",0.6,0.6,0.6,0.0741647912373695,"true"
"image-keyboard-response",516,422641,"0.0-3.168-1.168","248j921sqm4rcgz",111,"37.csv","","null","resources/maskTrios/BBA3.jpg","null","",NA,NA,NA,NA,""
"image-keyboard-response",517,423856,"0.0-3.168-2.168","248j921sqm4rcgz",111,"37.csv","","null","resources/images/coin2.png","null","",NA,NA,NA,NA,""
"image-keyboard-response",518,424267,"0.0-3.169-0.169","248j921sqm4rcgz",111,"37.csv","","409.59999990463257","resources/trios/L1T1A3.jpg","39","restless",0.6,0.7,0.6,0.180245571940737,"true"
"image-keyboard-response",519,424673,"0.0-3.169-1.169","248j921sqm4rcgz",111,"37.csv","","null","resources/maskTrios/BBA3.jpg","null","",NA,NA,NA,NA,""
"image-keyboard-response",520,425889,"0.0-3.169-2.169","248j921sqm4rcgz",111,"37.csv","","null","resources/images/coin2.png","null","",NA,NA,NA,NA,""
"image-keyboard-response",521,426580,"0.0-3.170-0.170","248j921sqm4rcgz",111,"37.csv","","689.7000000476837","resources/trios/L1T1A1.jpg","39","restless",0.6,0.7,0.6,0.299291973050385,"true"
"image-keyboard-response",522,426990,"0.0-3.170-1.170","248j921sqm4rcgz",111,"37.csv","","null","resources/maskTrios/BBA1.jpg","null","",NA,NA,NA,NA,""
"image-keyboard-response",523,428203,"0.0-3.170-2.170","248j921sqm4rcgz",111,"37.csv","","null","resources/images/coin2.png","null","",NA,NA,NA,NA,""
"image-keyboard-response",524,428651,"0.0-3.171-0.171","248j921sqm4rcgz",111,"37.csv","","446.30000019073486","resources/trios/L4T4A3.jpg","39","restless",0.6,0.7,0.6,0.0782811474785123,"true"
"image-keyboard-response",525,429063,"0.0-3.171-1.171","248j921sqm4rcgz",111,"37.csv","","null","resources/maskTrios/BBA3.jpg","null","",NA,NA,NA,NA,""
"image-keyboard-response",526,430282,"0.0-3.171-2.171","248j921sqm4rcgz",111,"37.csv","","null","resources/images/coin2.png","null","",NA,NA,NA,NA,""
"image-keyboard-response",527,430625,"0.0-3.172-0.172","248j921sqm4rcgz",111,"37.csv","","342.7000000476837","resources/trios/L1T1A3.jpg","39","restless",0.6,0.7,0.6,0.53260442739512,"true"
"image-keyboard-response",528,431041,"0.0-3.172-1.172","248j921sqm4rcgz",111,"37.csv","","null","resources/maskTrios/BBA3.jpg","null","",NA,NA,NA,NA,""
"image-keyboard-response",529,432252,"0.0-3.172-2.172","248j921sqm4rcgz",111,"37.csv","","null","resources/images/coin2.png","null","",NA,NA,NA,NA,""
"image-keyboard-response",530,434395,"0.0-3.173-0.173","248j921sqm4rcgz",111,"37.csv","","2141.2999999523163","resources/trios/L4T4A3.jpg","39","restless",0.5,0.7,0.6,0.104703903291638,"true"
"image-keyboard-response",531,434799,"0.0-3.173-1.173","248j921sqm4rcgz",111,"37.csv","","null","resources/maskTrios/BBA3.jpg","null","",NA,NA,NA,NA,""
"image-keyboard-response",532,436007,"0.0-3.173-2.173","248j921sqm4rcgz",111,"37.csv","","null","resources/images/coin2.png","null","",NA,NA,NA,NA,""
"image-keyboard-response",533,436349,"0.0-3.174-0.174","248j921sqm4rcgz",111,"37.csv","","340.2999999523163","resources/trios/L1T1A1.jpg","39","restless",0.5,0.7,0.6,0.664059621407387,"false"
"image-keyboard-response",534,436759,"0.0-3.174-1.174","248j921sqm4rcgz",111,"37.csv","","null","resources/maskTrios/BBA1.jpg","null","",NA,NA,NA,NA,""
"image-keyboard-response",535,437967,"0.0-3.174-2.174","248j921sqm4rcgz",111,"37.csv","","null","resources/images/fishbone.png","null","",NA,NA,NA,NA,""
"image-keyboard-response",536,438286,"0.0-3.175-0.175","248j921sqm4rcgz",111,"37.csv","","316.39999985694885","resources/trios/L1T1A3.jpg","37","restless",0.5,0.7,0.6,0.572661685333938,"false"
"image-keyboard-response",537,438707,"0.0-3.175-1.175","248j921sqm4rcgz",111,"37.csv","","null","resources/maskTrios/L1BB.jpg","null","",NA,NA,NA,NA,""
"image-keyboard-response",538,439933,"0.0-3.175-2.175","248j921sqm4rcgz",111,"37.csv","","null","resources/images/fishbone.png","null","",NA,NA,NA,NA,""
"image-keyboard-response",539,440294,"0.0-3.176-0.176","248j921sqm4rcgz",111,"37.csv","","358.7000000476837","resources/trios/L4T1A1.jpg","37","restless",0.5,0.7,0.6,0.914008685453257,"false"
"image-keyboard-response",540,440709,"0.0-3.176-1.176","248j921sqm4rcgz",111,"37.csv","","null","resources/maskTrios/L4BB.jpg","null","",NA,NA,NA,NA,""
"image-keyboard-response",541,441919,"0.0-3.176-2.176","248j921sqm4rcgz",111,"37.csv","","null","resources/images/fishbone.png","null","",NA,NA,NA,NA,""
"image-keyboard-response",542,442276,"0.0-3.177-0.177","248j921sqm4rcgz",111,"37.csv","","353.59999990463257","resources/trios/L4T4A1.jpg","37","restless",0.5,0.7,0.6,0.929440340224174,"false"
"image-keyboard-response",543,442693,"0.0-3.177-1.177","248j921sqm4rcgz",111,"37.csv","","null","resources/maskTrios/L4BB.jpg","null","",NA,NA,NA,NA,""
"image-keyboard-response",544,443903,"0.0-3.177-2.177","248j921sqm4rcgz",111,"37.csv","","null","resources/images/fishbone.png","null","",NA,NA,NA,NA,""
"image-keyboard-response",545,444246,"0.0-3.178-0.178","248j921sqm4rcgz",111,"37.csv","","339.5","resources/trios/L1T1A1.jpg","38","restless",0.5,0.8,0.6,0.812389525740197,"false"
"image-keyboard-response",546,444654,"0.0-3.178-1.178","248j921sqm4rcgz",111,"37.csv","","null","resources/maskTrios/BT1B.jpg","null","",NA,NA,NA,NA,""
"image-keyboard-response",547,445872,"0.0-3.178-2.178","248j921sqm4rcgz",111,"37.csv","","null","resources/images/fishbone.png","null","",NA,NA,NA,NA,""
"image-keyboard-response",548,446205,"0.0-3.179-0.179","248j921sqm4rcgz",111,"37.csv","","331.2999999523163","resources/trios/L4T1A3.jpg","39","restless",0.4,0.8,0.6,0.96277379200047,"false"
"image-keyboard-response",549,446628,"0.0-3.179-1.179","248j921sqm4rcgz",111,"37.csv","","null","resources/maskTrios/BBA3.jpg","null","",NA,NA,NA,NA,""
"image-keyboard-response",550,447838,"0.0-3.179-2.179","248j921sqm4rcgz",111,"37.csv","","null","resources/images/fishbone.png","null","",NA,NA,NA,NA,""
"image-keyboard-response",551,448146,"0.0-3.180-0.180","248j921sqm4rcgz",111,"37.csv","","306.10000014305115","resources/trios/L1T4A1.jpg","37","restless",0.4,0.8,0.6,0.805988802823925,"false"
"image-keyboard-response",552,448556,"0.0-3.180-1.180","248j921sqm4rcgz",111,"37.csv","","null","resources/maskTrios/L1BB.jpg","null","",NA,NA,NA,NA,""
"image-keyboard-response",553,449767,"0.0-3.180-2.180","248j921sqm4rcgz",111,"37.csv","","null","resources/images/fishbone.png","null","",NA,NA,NA,NA,""
"image-keyboard-response",554,450112,"0.0-3.181-0.181","248j921sqm4rcgz",111,"37.csv","","342.09999990463257","resources/trios/L1T1A1.jpg","37","restless",0.4,0.8,0.6,0.00418874264347013,"true"
"image-keyboard-response",555,450522,"0.0-3.181-1.181","248j921sqm4rcgz",111,"37.csv","","null","resources/maskTrios/L1BB.jpg","null","",NA,NA,NA,NA,""
"image-keyboard-response",556,451737,"0.0-3.181-2.181","248j921sqm4rcgz",111,"37.csv","","null","resources/images/coin2.png","null","",NA,NA,NA,NA,""
"image-keyboard-response",557,452033,"0.0-3.182-0.182","248j921sqm4rcgz",111,"37.csv","","294","resources/trios/L4T4A3.jpg","37","restless",0.4,0.8,0.6,0.138492076182688,"true"
"image-keyboard-response",558,452440,"0.0-3.182-1.182","248j921sqm4rcgz",111,"37.csv","","null","resources/maskTrios/L4BB.jpg","null","",NA,NA,NA,NA,""
"image-keyboard-response",559,453651,"0.0-3.182-2.182","248j921sqm4rcgz",111,"37.csv","","null","resources/images/coin2.png","null","",NA,NA,NA,NA,""
"image-keyboard-response",560,453985,"0.0-3.183-0.183","248j921sqm4rcgz",111,"37.csv","","332.5","resources/trios/L1T4A1.jpg","37","restless",0.4,0.9,0.6,0.951192966951504,"false"
"image-keyboard-response",561,454402,"0.0-3.183-1.183","248j921sqm4rcgz",111,"37.csv","","null","resources/maskTrios/L1BB.jpg","null","",NA,NA,NA,NA,""
"image-keyboard-response",562,455611,"0.0-3.183-2.183","248j921sqm4rcgz",111,"37.csv","","null","resources/images/fishbone.png","null","",NA,NA,NA,NA,""
"image-keyboard-response",563,456411,"0.0-3.184-0.184","248j921sqm4rcgz",111,"37.csv","","798","resources/trios/L4T4A3.jpg","38","restless",0.3,0.8,0.6,0.791785795863645,"true"
"image-keyboard-response",564,456825,"0.0-3.184-1.184","248j921sqm4rcgz",111,"37.csv","","null","resources/maskTrios/BT4B.jpg","null","",NA,NA,NA,NA,""
"image-keyboard-response",565,458034,"0.0-3.184-2.184","248j921sqm4rcgz",111,"37.csv","","null","resources/images/coin2.png","null","",NA,NA,NA,NA,""
"image-keyboard-response",566,465056,"0.0-3.185-0.185","248j921sqm4rcgz",111,"37.csv","","7021.299999952316","resources/trios/L1T4A3.jpg","38","restless",0.3,0.8,0.6,0.591037424726071,"true"
"image-keyboard-response",567,465463,"0.0-3.185-1.185","248j921sqm4rcgz",111,"37.csv","","null","resources/maskTrios/BT4B.jpg","null","",NA,NA,NA,NA,""
"image-keyboard-response",568,466680,"0.0-3.185-2.185","248j921sqm4rcgz",111,"37.csv","","null","resources/images/coin2.png","null","",NA,NA,NA,NA,""
"image-keyboard-response",569,467112,"0.0-3.186-0.186","248j921sqm4rcgz",111,"37.csv","","428.7999999523163","resources/trios/L4T1A1.jpg","38","restless",0.4,0.8,0.6,0.125802673742616,"true"
"image-keyboard-response",570,467525,"0.0-3.186-1.186","248j921sqm4rcgz",111,"37.csv","","null","resources/maskTrios/BT1B.jpg","null","",NA,NA,NA,NA,""
"image-keyboard-response",571,468737,"0.0-3.186-2.186","248j921sqm4rcgz",111,"37.csv","","null","resources/images/coin2.png","null","",NA,NA,NA,NA,""
"image-keyboard-response",572,469045,"0.0-3.187-0.187","248j921sqm4rcgz",111,"37.csv","","306.80000019073486","resources/trios/L1T1A1.jpg","38","restless",0.4,0.8,0.6,0.221038278271332,"true"
"image-keyboard-response",573,469464,"0.0-3.187-1.187","248j921sqm4rcgz",111,"37.csv","","null","resources/maskTrios/BT1B.jpg","null","",NA,NA,NA,NA,""
"image-keyboard-response",574,470673,"0.0-3.187-2.187","248j921sqm4rcgz",111,"37.csv","","null","resources/images/coin2.png","null","",NA,NA,NA,NA,""
"image-keyboard-response",575,472945,"0.0-3.188-0.188","248j921sqm4rcgz",111,"37.csv","","2270.2000000476837","resources/trios/L4T1A3.jpg","38","restless",0.4,0.8,0.6,0.0472438302623488,"true"
"image-keyboard-response",576,473360,"0.0-3.188-1.188","248j921sqm4rcgz",111,"37.csv","","null","resources/maskTrios/BT1B.jpg","null","",NA,NA,NA,NA,""
"image-keyboard-response",577,474569,"0.0-3.188-2.188","248j921sqm4rcgz",111,"37.csv","","null","resources/images/coin2.png","null","",NA,NA,NA,NA,""
"image-keyboard-response",578,475443,"0.0-3.189-0.189","248j921sqm4rcgz",111,"37.csv","","871.9000000953674","resources/trios/L1T4A1.jpg","38","restless",0.4,0.8,0.6,0.221420292218143,"true"
"image-keyboard-response",579,475850,"0.0-3.189-1.189","248j921sqm4rcgz",111,"37.csv","","null","resources/maskTrios/BT4B.jpg","null","",NA,NA,NA,NA,""
"image-keyboard-response",580,477061,"0.0-3.189-2.189","248j921sqm4rcgz",111,"37.csv","","null","resources/images/coin2.png","null","",NA,NA,NA,NA,""
"image-keyboard-response",581,477427,"0.0-3.190-0.190","248j921sqm4rcgz",111,"37.csv","","362.7000000476837","resources/trios/L4T1A3.jpg","38","restless",0.4,0.8,0.6,0.275925360394838,"true"
"image-keyboard-response",582,477846,"0.0-3.190-1.190","248j921sqm4rcgz",111,"37.csv","","null","resources/maskTrios/BT1B.jpg","null","",NA,NA,NA,NA,""
"image-keyboard-response",583,479061,"0.0-3.190-2.190","248j921sqm4rcgz",111,"37.csv","","null","resources/images/coin2.png","null","",NA,NA,NA,NA,""
"image-keyboard-response",584,479390,"0.0-3.191-0.191","248j921sqm4rcgz",111,"37.csv","","328","resources/trios/L4T4A3.jpg","38","restless",0.4,0.8,0.6,0.258416011620091,"true"
"image-keyboard-response",585,479800,"0.0-3.191-1.191","248j921sqm4rcgz",111,"37.csv","","null","resources/maskTrios/BT4B.jpg","null","",NA,NA,NA,NA,""
"image-keyboard-response",586,481013,"0.0-3.191-2.191","248j921sqm4rcgz",111,"37.csv","","null","resources/images/coin2.png","null","",NA,NA,NA,NA,""
"image-keyboard-response",587,481356,"0.0-3.192-0.192","248j921sqm4rcgz",111,"37.csv","","340.5","resources/trios/L4T4A1.jpg","38","restless",0.4,0.9,0.6,0.0288763022891834,"true"
"image-keyboard-response",588,481770,"0.0-3.192-1.192","248j921sqm4rcgz",111,"37.csv","","null","resources/maskTrios/BT4B.jpg","null","",NA,NA,NA,NA,""
"image-keyboard-response",589,482985,"0.0-3.192-2.192","248j921sqm4rcgz",111,"37.csv","","null","resources/images/coin2.png","null","",NA,NA,NA,NA,""
"image-keyboard-response",590,483822,"0.0-3.193-0.193","248j921sqm4rcgz",111,"37.csv","","834.9000000953674","resources/trios/L4T1A3.jpg","38","restless",0.4,0.9,0.6,0.0333317282015051,"true"
"image-keyboard-response",591,484244,"0.0-3.193-1.193","248j921sqm4rcgz",111,"37.csv","","null","resources/maskTrios/BT1B.jpg","null","",NA,NA,NA,NA,""
"image-keyboard-response",592,485454,"0.0-3.193-2.193","248j921sqm4rcgz",111,"37.csv","","null","resources/images/coin2.png","null","",NA,NA,NA,NA,""
"image-keyboard-response",593,485776,"0.0-3.194-0.194","248j921sqm4rcgz",111,"37.csv","","320.5","resources/trios/L1T1A3.jpg","38","restless",0.4,0.9,0.6,0.845470502680855,"true"
"image-keyboard-response",594,486191,"0.0-3.194-1.194","248j921sqm4rcgz",111,"37.csv","","null","resources/maskTrios/BT1B.jpg","null","",NA,NA,NA,NA,""
"image-keyboard-response",595,487399,"0.0-3.194-2.194","248j921sqm4rcgz",111,"37.csv","","null","resources/images/coin2.png","null","",NA,NA,NA,NA,""
"image-keyboard-response",596,487704,"0.0-3.195-0.195","248j921sqm4rcgz",111,"37.csv","","304.2999999523163","resources/trios/L4T1A3.jpg","38","restless",0.4,0.9,0.6,0.515081827301015,"true"
"image-keyboard-response",597,488123,"0.0-3.195-1.195","248j921sqm4rcgz",111,"37.csv","","null","resources/maskTrios/BT1B.jpg","null","",NA,NA,NA,NA,""
"image-keyboard-response",598,489329,"0.0-3.195-2.195","248j921sqm4rcgz",111,"37.csv","","null","resources/images/coin2.png","null","",NA,NA,NA,NA,""
"image-keyboard-response",599,489782,"0.0-3.196-0.196","248j921sqm4rcgz",111,"37.csv","","450.5","resources/trios/L4T1A3.jpg","38","restless",0.4,0.8,0.6,0.83420128905428,"false"
"image-keyboard-response",600,490192,"0.0-3.196-1.196","248j921sqm4rcgz",111,"37.csv","","null","resources/maskTrios/BT1B.jpg","null","",NA,NA,NA,NA,""
"image-keyboard-response",601,491408,"0.0-3.196-2.196","248j921sqm4rcgz",111,"37.csv","","null","resources/images/fishbone.png","null","",NA,NA,NA,NA,""
"image-keyboard-response",602,491591,"0.0-3.197-0.197","248j921sqm4rcgz",111,"37.csv","","181","resources/trios/L4T1A1.jpg","39","restless",0.4,0.9,0.6,0.919441677920252,"false"
"image-keyboard-response",603,492013,"0.0-3.197-1.197","248j921sqm4rcgz",111,"37.csv","","null","resources/maskTrios/BBA1.jpg","null","",NA,NA,NA,NA,""
"image-keyboard-response",604,493221,"0.0-3.197-2.197","248j921sqm4rcgz",111,"37.csv","","null","resources/images/fishbone.png","null","",NA,NA,NA,NA,""
"image-keyboard-response",605,493502,"0.0-3.198-0.198","248j921sqm4rcgz",111,"37.csv","","279.5","resources/trios/L1T1A3.jpg","37","restless",0.4,0.9,0.6,0.276638255758121,"true"
"image-keyboard-response",606,493913,"0.0-3.198-1.198","248j921sqm4rcgz",111,"37.csv","","null","resources/maskTrios/L1BB.jpg","null","",NA,NA,NA,NA,""
"image-keyboard-response",607,495133,"0.0-3.198-2.198","248j921sqm4rcgz",111,"37.csv","","null","resources/images/coin2.png","null","",NA,NA,NA,NA,""
"image-keyboard-response",608,495455,"0.0-3.199-0.199","248j921sqm4rcgz",111,"37.csv","","320.5","resources/trios/L4T1A3.jpg","37","restless",0.4,0.9,0.6,0.698665048607472,"false"
"image-keyboard-response",609,495868,"0.0-3.199-1.199","248j921sqm4rcgz",111,"37.csv","","null","resources/maskTrios/L4BB.jpg","null","",NA,NA,NA,NA,""
"image-keyboard-response",610,497072,"0.0-3.199-2.199","248j921sqm4rcgz",111,"37.csv","","null","resources/images/fishbone.png","null","",NA,NA,NA,NA,""
