"trial_type","trial_index","time_elapsed","internal_node_id","subject","participantCode","walkNumber","success","rt","stimulus","key_press","test_part","leftProb","midProb","rightProb","generatedNum","correct"
"pavlovia",0,1006,"0.0-0.0","5f3whv9kmv4kfjl",875,"176.csv","","","","","",NA,NA,NA,NA,""
"fullscreen",1,3571,"0.0-1.0","5f3whv9kmv4kfjl",875,"176.csv","true","","","","",NA,NA,NA,NA,""
"html-keyboard-response",2,22659,"0.0-2.0-0.0","5f3whv9kmv4kfjl",875,"176.csv","","19086.70000001788","<p><font size='6'>Arrrgh!</p></font><p>Can you be the best pirate? Try to find lots of gold! But beware, some islands have more gold than others, and over time, the island with the most gold may change. Can YOU figure it out? </p><font size='6'>GOOD LUCK, CAPTAIN!!!</font><p>Press any key to begin</p>","32","",NA,NA,NA,NA,""
"image-keyboard-response",3,25661,"0.0-2.0-1.0","5f3whv9kmv4kfjl",875,"176.csv","","null","resources/image_sets/111.png","null","",NA,NA,NA,NA,""
"image-keyboard-response",4,41996,"0.0-2.0-2.0","5f3whv9kmv4kfjl",875,"176.csv","","16333.59999999404","resources/image_sets/left_highlight.png","37","",NA,NA,NA,NA,""
"image-keyboard-response",5,46423,"0.0-2.0-3.0","5f3whv9kmv4kfjl",875,"176.csv","","4426.0999999940395","resources/image_sets/mid_highlight.png","38","",NA,NA,NA,NA,""
"image-keyboard-response",6,48343,"0.0-2.0-4.0","5f3whv9kmv4kfjl",875,"176.csv","","1918.5999999940395","resources/image_sets/right_highlight.png","39","",NA,NA,NA,NA,""
"image-keyboard-response",7,58075,"0.0-2.0-5.0","5f3whv9kmv4kfjl",875,"176.csv","","9730.800000011921","resources/image_sets/111.png","13","",NA,NA,NA,NA,""
"image-keyboard-response",8,61606,"0.0-2.0-6.0","5f3whv9kmv4kfjl",875,"176.csv","","3529.699999988079","resources/images/coin2.png","13","",NA,NA,NA,NA,""
"image-keyboard-response",9,63878,"0.0-2.0-7.0","5f3whv9kmv4kfjl",875,"176.csv","","2270.699999988079","resources/images/fishbone.png","13","",NA,NA,NA,NA,""
"html-keyboard-response",10,68385,"0.0-2.0-8.0","5f3whv9kmv4kfjl",875,"176.csv","","4506.200000017881","<p>Your first journey will be a long one, but you will get a well deserved break at the end</p><p>After the break you will have four more journeys, but each will be much shorter than the first, and you will have breaks in between each</p><p>Press Enter to begin</p>","13","",NA,NA,NA,NA,""
"image-keyboard-response",11,70043,"0.0-3.0-0.0","5f3whv9kmv4kfjl",875,"176.csv","","1655.699999988079","resources/trios/L2T4A2.jpg","39","restless",0.3,0.9,0.7,0.201644927740346,"true"
"image-keyboard-response",12,70451,"0.0-3.0-1.0","5f3whv9kmv4kfjl",875,"176.csv","","null","resources/maskTrios/BBA2.jpg","null","",NA,NA,NA,NA,""
"image-keyboard-response",13,71658,"0.0-3.0-2.0","5f3whv9kmv4kfjl",875,"176.csv","","null","resources/images/coin2.png","null","",NA,NA,NA,NA,""
"image-keyboard-response",14,72886,"0.0-3.1-0.1","5f3whv9kmv4kfjl",875,"176.csv","","1226.199999988079","resources/trios/L1T1A1.jpg","38","restless",0.3,0.9,0.7,0.467767620812473,"true"
"image-keyboard-response",15,73288,"0.0-3.1-1.1","5f3whv9kmv4kfjl",875,"176.csv","","null","resources/maskTrios/BT1B.jpg","null","",NA,NA,NA,NA,""
"image-keyboard-response",16,74491,"0.0-3.1-2.1","5f3whv9kmv4kfjl",875,"176.csv","","null","resources/images/coin2.png","null","",NA,NA,NA,NA,""
"image-keyboard-response",17,76820,"0.0-3.2-0.2","5f3whv9kmv4kfjl",875,"176.csv","","2326.699999988079","resources/trios/L2T1A1.jpg","37","restless",0.3,0.9,0.8,0.517622711196039,"false"
"image-keyboard-response",18,77224,"0.0-3.2-1.2","5f3whv9kmv4kfjl",875,"176.csv","","null","resources/maskTrios/L2BB.jpg","null","",NA,NA,NA,NA,""
"image-keyboard-response",19,78430,"0.0-3.2-2.2","5f3whv9kmv4kfjl",875,"176.csv","","null","resources/images/fishbone.png","null","",NA,NA,NA,NA,""
"image-keyboard-response",20,79700,"0.0-3.3-0.3","5f3whv9kmv4kfjl",875,"176.csv","","1268.199999988079","resources/trios/L1T1A2.jpg","38","restless",0.2,0.9,0.8,0.810578825342771,"true"
"image-keyboard-response",21,80106,"0.0-3.3-1.3","5f3whv9kmv4kfjl",875,"176.csv","","null","resources/maskTrios/BT1B.jpg","null","",NA,NA,NA,NA,""
"image-keyboard-response",22,81311,"0.0-3.3-2.3","5f3whv9kmv4kfjl",875,"176.csv","","null","resources/images/coin2.png","null","",NA,NA,NA,NA,""
"image-keyboard-response",23,85894,"0.0-3.4-0.4","5f3whv9kmv4kfjl",875,"176.csv","","4580.9000000059605","resources/trios/L2T1A1.jpg","38","restless",0.3,0.9,0.9,0.721070111150567,"true"
"image-keyboard-response",24,86300,"0.0-3.4-1.4","5f3whv9kmv4kfjl",875,"176.csv","","null","resources/maskTrios/BT1B.jpg","null","",NA,NA,NA,NA,""
"image-keyboard-response",25,87505,"0.0-3.4-2.4","5f3whv9kmv4kfjl",875,"176.csv","","null","resources/images/coin2.png","null","",NA,NA,NA,NA,""
"image-keyboard-response",26,91020,"0.0-3.5-0.5","5f3whv9kmv4kfjl",875,"176.csv","","3514.0999999940395","resources/trios/L1T4A1.jpg","38","restless",0.3,0.9,0.9,0.253883453167234,"true"
"image-keyboard-response",27,91423,"0.0-3.5-1.5","5f3whv9kmv4kfjl",875,"176.csv","","null","resources/maskTrios/BT4B.jpg","null","",NA,NA,NA,NA,""
"image-keyboard-response",28,92630,"0.0-3.5-2.5","5f3whv9kmv4kfjl",875,"176.csv","","null","resources/images/coin2.png","null","",NA,NA,NA,NA,""
"image-keyboard-response",29,95207,"0.0-3.6-0.6","5f3whv9kmv4kfjl",875,"176.csv","","2575.699999988079","resources/trios/L1T4A1.jpg","37","restless",0.3,0.9,0.9,0.972612803206397,"false"
"image-keyboard-response",30,95614,"0.0-3.6-1.6","5f3whv9kmv4kfjl",875,"176.csv","","null","resources/maskTrios/L1BB.jpg","null","",NA,NA,NA,NA,""
"image-keyboard-response",31,96821,"0.0-3.6-2.6","5f3whv9kmv4kfjl",875,"176.csv","","null","resources/images/fishbone.png","null","",NA,NA,NA,NA,""
"image-keyboard-response",32,97371,"0.0-3.7-0.7","5f3whv9kmv4kfjl",875,"176.csv","","548.3000000119209","resources/trios/L1T4A1.jpg","38","restless",0.3,0.9,0.9,0.759960658339898,"true"
"image-keyboard-response",33,97777,"0.0-3.7-1.7","5f3whv9kmv4kfjl",875,"176.csv","","null","resources/maskTrios/BT4B.jpg","null","",NA,NA,NA,NA,""
"image-keyboard-response",34,98984,"0.0-3.7-2.7","5f3whv9kmv4kfjl",875,"176.csv","","null","resources/images/coin2.png","null","",NA,NA,NA,NA,""
"image-keyboard-response",35,99348,"0.0-3.8-0.8","5f3whv9kmv4kfjl",875,"176.csv","","363.09999999403954","resources/trios/L2T4A2.jpg","38","restless",0.3,0.9,0.9,0.536935062512175,"true"
"image-keyboard-response",36,99750,"0.0-3.8-1.8","5f3whv9kmv4kfjl",875,"176.csv","","null","resources/maskTrios/BT4B.jpg","null","",NA,NA,NA,NA,""
"image-keyboard-response",37,100952,"0.0-3.8-2.8","5f3whv9kmv4kfjl",875,"176.csv","","null","resources/images/coin2.png","null","",NA,NA,NA,NA,""
"image-keyboard-response",38,101271,"0.0-3.9-0.9","5f3whv9kmv4kfjl",875,"176.csv","","317.40000000596046","resources/trios/L2T4A1.jpg","38","restless",0.3,0.8,0.9,0.17535460344113,"true"
"image-keyboard-response",39,101678,"0.0-3.9-1.9","5f3whv9kmv4kfjl",875,"176.csv","","null","resources/maskTrios/BT4B.jpg","null","",NA,NA,NA,NA,""
"image-keyboard-response",40,102885,"0.0-3.9-2.9","5f3whv9kmv4kfjl",875,"176.csv","","null","resources/images/coin2.png","null","",NA,NA,NA,NA,""
"image-keyboard-response",41,103046,"0.0-3.10-0.10","5f3whv9kmv4kfjl",875,"176.csv","","159.80000001192093","resources/trios/L1T4A2.jpg","38","restless",0.3,0.7,0.9,0.143429761933173,"true"
"image-keyboard-response",42,103450,"0.0-3.10-1.10","5f3whv9kmv4kfjl",875,"176.csv","","null","resources/maskTrios/BT4B.jpg","null","",NA,NA,NA,NA,""
"image-keyboard-response",43,104653,"0.0-3.10-2.10","5f3whv9kmv4kfjl",875,"176.csv","","null","resources/images/coin2.png","null","",NA,NA,NA,NA,""
"image-keyboard-response",44,104900,"0.0-3.11-0.11","5f3whv9kmv4kfjl",875,"176.csv","","245","resources/trios/L1T1A2.jpg","38","restless",0.3,0.7,0.9,0.214755331319198,"true"
"image-keyboard-response",45,105304,"0.0-3.11-1.11","5f3whv9kmv4kfjl",875,"176.csv","","null","resources/maskTrios/BT1B.jpg","null","",NA,NA,NA,NA,""
"image-keyboard-response",46,106511,"0.0-3.11-2.11","5f3whv9kmv4kfjl",875,"176.csv","","null","resources/images/coin2.png","null","",NA,NA,NA,NA,""
"image-keyboard-response",47,106799,"0.0-3.12-0.12","5f3whv9kmv4kfjl",875,"176.csv","","285.80000001192093","resources/trios/L1T1A2.jpg","38","restless",0.2,0.7,0.8,0.942859718307665,"false"
"image-keyboard-response",48,107204,"0.0-3.12-1.12","5f3whv9kmv4kfjl",875,"176.csv","","null","resources/maskTrios/BT1B.jpg","null","",NA,NA,NA,NA,""
"image-keyboard-response",49,108410,"0.0-3.12-2.12","5f3whv9kmv4kfjl",875,"176.csv","","null","resources/images/fishbone.png","null","",NA,NA,NA,NA,""
"image-keyboard-response",50,109547,"0.0-3.13-0.13","5f3whv9kmv4kfjl",875,"176.csv","","1135.800000011921","resources/trios/L1T4A2.jpg","37","restless",0.2,0.7,0.8,0.628585501580032,"false"
"image-keyboard-response",51,109950,"0.0-3.13-1.13","5f3whv9kmv4kfjl",875,"176.csv","","null","resources/maskTrios/L1BB.jpg","null","",NA,NA,NA,NA,""
"image-keyboard-response",52,111156,"0.0-3.13-2.13","5f3whv9kmv4kfjl",875,"176.csv","","null","resources/images/fishbone.png","null","",NA,NA,NA,NA,""
"image-keyboard-response",53,111667,"0.0-3.14-0.14","5f3whv9kmv4kfjl",875,"176.csv","","509.7999999821186","resources/trios/L1T1A2.jpg","39","restless",0.2,0.6,0.8,0.664341368382084,"true"
"image-keyboard-response",54,112073,"0.0-3.14-1.14","5f3whv9kmv4kfjl",875,"176.csv","","null","resources/maskTrios/BBA2.jpg","null","",NA,NA,NA,NA,""
"image-keyboard-response",55,113279,"0.0-3.14-2.14","5f3whv9kmv4kfjl",875,"176.csv","","null","resources/images/coin2.png","null","",NA,NA,NA,NA,""
"image-keyboard-response",56,113513,"0.0-3.15-0.15","5f3whv9kmv4kfjl",875,"176.csv","","232.59999999403954","resources/trios/L2T4A2.jpg","38","restless",0.2,0.6,0.8,0.875282034208098,"false"
"image-keyboard-response",57,113920,"0.0-3.15-1.15","5f3whv9kmv4kfjl",875,"176.csv","","null","resources/maskTrios/BT4B.jpg","null","",NA,NA,NA,NA,""
"image-keyboard-response",58,115124,"0.0-3.15-2.15","5f3whv9kmv4kfjl",875,"176.csv","","null","resources/images/fishbone.png","null","",NA,NA,NA,NA,""
"image-keyboard-response",59,115512,"0.0-3.16-0.16","5f3whv9kmv4kfjl",875,"176.csv","","386.59999999403954","resources/trios/L2T1A1.jpg","39","restless",0.2,0.5,0.8,0.354431182477008,"true"
"image-keyboard-response",60,115917,"0.0-3.16-1.16","5f3whv9kmv4kfjl",875,"176.csv","","null","resources/maskTrios/BBA1.jpg","null","",NA,NA,NA,NA,""
"image-keyboard-response",61,117124,"0.0-3.16-2.16","5f3whv9kmv4kfjl",875,"176.csv","","null","resources/images/coin2.png","null","",NA,NA,NA,NA,""
"image-keyboard-response",62,119739,"0.0-3.17-0.17","5f3whv9kmv4kfjl",875,"176.csv","","2613","resources/trios/L2T1A1.jpg","39","restless",0.2,0.5,0.8,0.758247909499691,"true"
"image-keyboard-response",63,120145,"0.0-3.17-1.17","5f3whv9kmv4kfjl",875,"176.csv","","null","resources/maskTrios/BBA1.jpg","null","",NA,NA,NA,NA,""
"image-keyboard-response",64,121347,"0.0-3.17-2.17","5f3whv9kmv4kfjl",875,"176.csv","","null","resources/images/coin2.png","null","",NA,NA,NA,NA,""
"image-keyboard-response",65,122466,"0.0-3.18-0.18","5f3whv9kmv4kfjl",875,"176.csv","","1116.699999988079","resources/trios/L2T1A2.jpg","39","restless",0.2,0.5,0.8,0.898887263285903,"false"
"image-keyboard-response",66,122868,"0.0-3.18-1.18","5f3whv9kmv4kfjl",875,"176.csv","","null","resources/maskTrios/BBA2.jpg","null","",NA,NA,NA,NA,""
"image-keyboard-response",67,124072,"0.0-3.18-2.18","5f3whv9kmv4kfjl",875,"176.csv","","null","resources/images/fishbone.png","null","",NA,NA,NA,NA,""
"image-keyboard-response",68,124234,"0.0-3.19-0.19","5f3whv9kmv4kfjl",875,"176.csv","","160.7000000178814","resources/trios/L1T4A1.jpg","37","restless",0.3,0.5,0.8,0.790162804284153,"false"
"image-keyboard-response",69,124638,"0.0-3.19-1.19","5f3whv9kmv4kfjl",875,"176.csv","","null","resources/maskTrios/L1BB.jpg","null","",NA,NA,NA,NA,""
"image-keyboard-response",70,125844,"0.0-3.19-2.19","5f3whv9kmv4kfjl",875,"176.csv","","null","resources/images/fishbone.png","null","",NA,NA,NA,NA,""
"image-keyboard-response",71,126168,"0.0-3.20-0.20","5f3whv9kmv4kfjl",875,"176.csv","","322.40000000596046","resources/trios/L1T1A1.jpg","38","restless",0.3,0.5,0.8,0.299742508642184,"true"
"image-keyboard-response",72,126575,"0.0-3.20-1.20","5f3whv9kmv4kfjl",875,"176.csv","","null","resources/maskTrios/BT1B.jpg","null","",NA,NA,NA,NA,""
"image-keyboard-response",73,127782,"0.0-3.20-2.20","5f3whv9kmv4kfjl",875,"176.csv","","null","resources/images/coin2.png","null","",NA,NA,NA,NA,""
"image-keyboard-response",74,128137,"0.0-3.21-0.21","5f3whv9kmv4kfjl",875,"176.csv","","352.90000000596046","resources/trios/L1T4A1.jpg","38","restless",0.3,0.5,0.8,0.104778586390559,"true"
"image-keyboard-response",75,128542,"0.0-3.21-1.21","5f3whv9kmv4kfjl",875,"176.csv","","null","resources/maskTrios/BT4B.jpg","null","",NA,NA,NA,NA,""
"image-keyboard-response",76,129745,"0.0-3.21-2.21","5f3whv9kmv4kfjl",875,"176.csv","","null","resources/images/coin2.png","null","",NA,NA,NA,NA,""
"image-keyboard-response",77,129770,"0.0-3.22-0.22","5f3whv9kmv4kfjl",875,"176.csv","","23.599999994039536","resources/trios/L2T4A1.jpg","38","restless",0.3,0.5,0.8,0.843119906715776,"false"
"image-keyboard-response",78,130173,"0.0-3.22-1.22","5f3whv9kmv4kfjl",875,"176.csv","","null","resources/maskTrios/BT4B.jpg","null","",NA,NA,NA,NA,""
"image-keyboard-response",79,131380,"0.0-3.22-2.22","5f3whv9kmv4kfjl",875,"176.csv","","null","resources/images/fishbone.png","null","",NA,NA,NA,NA,""
"image-keyboard-response",80,131857,"0.0-3.23-0.23","5f3whv9kmv4kfjl",875,"176.csv","","475.90000000596046","resources/trios/L2T4A1.jpg","39","restless",0.3,0.4,0.9,0.751361803640631,"true"
"image-keyboard-response",81,132261,"0.0-3.23-1.23","5f3whv9kmv4kfjl",875,"176.csv","","null","resources/maskTrios/BBA1.jpg","null","",NA,NA,NA,NA,""
"image-keyboard-response",82,133468,"0.0-3.23-2.23","5f3whv9kmv4kfjl",875,"176.csv","","null","resources/images/coin2.png","null","",NA,NA,NA,NA,""
"image-keyboard-response",83,133777,"0.0-3.24-0.24","5f3whv9kmv4kfjl",875,"176.csv","","307.5","resources/trios/L1T1A1.jpg","39","restless",0.3,0.4,0.9,0.181383078980909,"true"
"image-keyboard-response",84,134182,"0.0-3.24-1.24","5f3whv9kmv4kfjl",875,"176.csv","","null","resources/maskTrios/BBA1.jpg","null","",NA,NA,NA,NA,""
"image-keyboard-response",85,135389,"0.0-3.24-2.24","5f3whv9kmv4kfjl",875,"176.csv","","null","resources/images/coin2.png","null","",NA,NA,NA,NA,""
"image-keyboard-response",86,135672,"0.0-3.25-0.25","5f3whv9kmv4kfjl",875,"176.csv","","281.80000001192093","resources/trios/L2T4A1.jpg","38","restless",0.3,0.3,0.9,0.275768379469504,"true"
"image-keyboard-response",87,136075,"0.0-3.25-1.25","5f3whv9kmv4kfjl",875,"176.csv","","null","resources/maskTrios/BT4B.jpg","null","",NA,NA,NA,NA,""
"image-keyboard-response",88,137278,"0.0-3.25-2.25","5f3whv9kmv4kfjl",875,"176.csv","","null","resources/images/coin2.png","null","",NA,NA,NA,NA,""
"image-keyboard-response",89,137645,"0.0-3.26-0.26","5f3whv9kmv4kfjl",875,"176.csv","","365.40000000596046","resources/trios/L1T1A1.jpg","38","restless",0.3,0.3,0.8,0.558325610808475,"false"
"image-keyboard-response",90,138051,"0.0-3.26-1.26","5f3whv9kmv4kfjl",875,"176.csv","","null","resources/maskTrios/BT1B.jpg","null","",NA,NA,NA,NA,""
"image-keyboard-response",91,139253,"0.0-3.26-2.26","5f3whv9kmv4kfjl",875,"176.csv","","null","resources/images/fishbone.png","null","",NA,NA,NA,NA,""
"image-keyboard-response",92,139385,"0.0-3.27-0.27","5f3whv9kmv4kfjl",875,"176.csv","","130.19999998807907","resources/trios/L1T4A1.jpg","39","restless",0.2,0.4,0.8,0.157040785804612,"true"
"image-keyboard-response",93,139791,"0.0-3.27-1.27","5f3whv9kmv4kfjl",875,"176.csv","","null","resources/maskTrios/BBA1.jpg","null","",NA,NA,NA,NA,""
"image-keyboard-response",94,140993,"0.0-3.27-2.27","5f3whv9kmv4kfjl",875,"176.csv","","null","resources/images/coin2.png","null","",NA,NA,NA,NA,""
"image-keyboard-response",95,141378,"0.0-3.28-0.28","5f3whv9kmv4kfjl",875,"176.csv","","383.69999998807907","resources/trios/L2T4A2.jpg","39","restless",0.2,0.4,0.8,0.145334068804385,"true"
"image-keyboard-response",96,141781,"0.0-3.28-1.28","5f3whv9kmv4kfjl",875,"176.csv","","null","resources/maskTrios/BBA2.jpg","null","",NA,NA,NA,NA,""
"image-keyboard-response",97,142987,"0.0-3.28-2.28","5f3whv9kmv4kfjl",875,"176.csv","","null","resources/images/coin2.png","null","",NA,NA,NA,NA,""
"image-keyboard-response",98,143236,"0.0-3.29-0.29","5f3whv9kmv4kfjl",875,"176.csv","","247","resources/trios/L1T4A1.jpg","38","restless",0.2,0.4,0.8,0.0540741736570227,"true"
"image-keyboard-response",99,143637,"0.0-3.29-1.29","5f3whv9kmv4kfjl",875,"176.csv","","null","resources/maskTrios/BT4B.jpg","null","",NA,NA,NA,NA,""
"image-keyboard-response",100,144841,"0.0-3.29-2.29","5f3whv9kmv4kfjl",875,"176.csv","","null","resources/images/coin2.png","null","",NA,NA,NA,NA,""
"image-keyboard-response",101,145216,"0.0-3.30-0.30","5f3whv9kmv4kfjl",875,"176.csv","","372.80000001192093","resources/trios/L2T4A1.jpg","39","restless",0.2,0.4,0.8,0.489518503194124,"true"
"image-keyboard-response",102,145620,"0.0-3.30-1.30","5f3whv9kmv4kfjl",875,"176.csv","","null","resources/maskTrios/BBA1.jpg","null","",NA,NA,NA,NA,""
"image-keyboard-response",103,146823,"0.0-3.30-2.30","5f3whv9kmv4kfjl",875,"176.csv","","null","resources/images/coin2.png","null","",NA,NA,NA,NA,""
"image-keyboard-response",104,147142,"0.0-3.31-0.31","5f3whv9kmv4kfjl",875,"176.csv","","316.5","resources/trios/L1T4A2.jpg","39","restless",0.2,0.4,0.8,0.860424957992284,"false"
"image-keyboard-response",105,147544,"0.0-3.31-1.31","5f3whv9kmv4kfjl",875,"176.csv","","null","resources/maskTrios/BBA2.jpg","null","",NA,NA,NA,NA,""
"image-keyboard-response",106,148750,"0.0-3.31-2.31","5f3whv9kmv4kfjl",875,"176.csv","","null","resources/images/fishbone.png","null","",NA,NA,NA,NA,""
"image-keyboard-response",107,149083,"0.0-3.32-0.32","5f3whv9kmv4kfjl",875,"176.csv","","330.7000000178814","resources/trios/L1T1A1.jpg","38","restless",0.2,0.4,0.9,0.221413800769903,"true"
"image-keyboard-response",108,149487,"0.0-3.32-1.32","5f3whv9kmv4kfjl",875,"176.csv","","null","resources/maskTrios/BT1B.jpg","null","",NA,NA,NA,NA,""
"image-keyboard-response",109,150694,"0.0-3.32-2.32","5f3whv9kmv4kfjl",875,"176.csv","","null","resources/images/coin2.png","null","",NA,NA,NA,NA,""
"image-keyboard-response",110,151134,"0.0-3.33-0.33","5f3whv9kmv4kfjl",875,"176.csv","","438.19999998807907","resources/trios/L1T4A2.jpg","38","restless",0.2,0.4,0.9,0.311543152347426,"true"
"image-keyboard-response",111,151539,"0.0-3.33-1.33","5f3whv9kmv4kfjl",875,"176.csv","","null","resources/maskTrios/BT4B.jpg","null","",NA,NA,NA,NA,""
"image-keyboard-response",112,152742,"0.0-3.33-2.33","5f3whv9kmv4kfjl",875,"176.csv","","null","resources/images/coin2.png","null","",NA,NA,NA,NA,""
"image-keyboard-response",113,153049,"0.0-3.34-0.34","5f3whv9kmv4kfjl",875,"176.csv","","305.59999999403954","resources/trios/L1T1A1.jpg","39","restless",0.3,0.4,0.9,0.239203108572042,"true"
"image-keyboard-response",114,153451,"0.0-3.34-1.34","5f3whv9kmv4kfjl",875,"176.csv","","null","resources/maskTrios/BBA1.jpg","null","",NA,NA,NA,NA,""
"image-keyboard-response",115,154653,"0.0-3.34-2.34","5f3whv9kmv4kfjl",875,"176.csv","","null","resources/images/coin2.png","null","",NA,NA,NA,NA,""
"image-keyboard-response",116,155106,"0.0-3.35-0.35","5f3whv9kmv4kfjl",875,"176.csv","","451.30000001192093","resources/trios/L1T4A1.jpg","39","restless",0.2,0.4,0.9,0.478685793593602,"true"
"image-keyboard-response",117,155507,"0.0-3.35-1.35","5f3whv9kmv4kfjl",875,"176.csv","","null","resources/maskTrios/BBA1.jpg","null","",NA,NA,NA,NA,""
"image-keyboard-response",118,156713,"0.0-3.35-2.35","5f3whv9kmv4kfjl",875,"176.csv","","null","resources/images/coin2.png","null","",NA,NA,NA,NA,""
"image-keyboard-response",119,156914,"0.0-3.36-0.36","5f3whv9kmv4kfjl",875,"176.csv","","199.5","resources/trios/L1T4A1.jpg","38","restless",0.3,0.4,0.9,0.0566518606300543,"true"
"image-keyboard-response",120,157320,"0.0-3.36-1.36","5f3whv9kmv4kfjl",875,"176.csv","","null","resources/maskTrios/BT4B.jpg","null","",NA,NA,NA,NA,""
"image-keyboard-response",121,158526,"0.0-3.36-2.36","5f3whv9kmv4kfjl",875,"176.csv","","null","resources/images/coin2.png","null","",NA,NA,NA,NA,""
"image-keyboard-response",122,158861,"0.0-3.37-0.37","5f3whv9kmv4kfjl",875,"176.csv","","333.5","resources/trios/L1T1A1.jpg","38","restless",0.3,0.4,0.9,0.929775542419811,"false"
"image-keyboard-response",123,159267,"0.0-3.37-1.37","5f3whv9kmv4kfjl",875,"176.csv","","null","resources/maskTrios/BT1B.jpg","null","",NA,NA,NA,NA,""
"image-keyboard-response",124,160473,"0.0-3.37-2.37","5f3whv9kmv4kfjl",875,"176.csv","","null","resources/images/fishbone.png","null","",NA,NA,NA,NA,""
"image-keyboard-response",125,160524,"0.0-3.38-0.38","5f3whv9kmv4kfjl",875,"176.csv","","49.400000005960464","resources/trios/L1T4A2.jpg","39","restless",0.3,0.4,0.9,0.493712370235577,"true"
"image-keyboard-response",126,160926,"0.0-3.38-1.38","5f3whv9kmv4kfjl",875,"176.csv","","null","resources/maskTrios/BBA2.jpg","null","",NA,NA,NA,NA,""
"image-keyboard-response",127,162133,"0.0-3.38-2.38","5f3whv9kmv4kfjl",875,"176.csv","","null","resources/images/coin2.png","null","",NA,NA,NA,NA,""
"image-keyboard-response",128,162416,"0.0-3.39-0.39","5f3whv9kmv4kfjl",875,"176.csv","","281.90000000596046","resources/trios/L2T4A1.jpg","39","restless",0.2,0.4,0.9,0.625790406845899,"true"
"image-keyboard-response",129,162822,"0.0-3.39-1.39","5f3whv9kmv4kfjl",875,"176.csv","","null","resources/maskTrios/BBA1.jpg","null","",NA,NA,NA,NA,""
"image-keyboard-response",130,164029,"0.0-3.39-2.39","5f3whv9kmv4kfjl",875,"176.csv","","null","resources/images/coin2.png","null","",NA,NA,NA,NA,""
"image-keyboard-response",131,164256,"0.0-3.40-0.40","5f3whv9kmv4kfjl",875,"176.csv","","224.19999998807907","resources/trios/L2T1A2.jpg","38","restless",0.2,0.4,0.9,0.191079419960356,"true"
"image-keyboard-response",132,164657,"0.0-3.40-1.40","5f3whv9kmv4kfjl",875,"176.csv","","null","resources/maskTrios/BT1B.jpg","null","",NA,NA,NA,NA,""
"image-keyboard-response",133,165864,"0.0-3.40-2.40","5f3whv9kmv4kfjl",875,"176.csv","","null","resources/images/coin2.png","null","",NA,NA,NA,NA,""
"image-keyboard-response",134,166277,"0.0-3.41-0.41","5f3whv9kmv4kfjl",875,"176.csv","","411.19999998807907","resources/trios/L1T1A2.jpg","38","restless",0.2,0.4,0.9,0.907920304879602,"false"
"image-keyboard-response",135,166682,"0.0-3.41-1.41","5f3whv9kmv4kfjl",875,"176.csv","","null","resources/maskTrios/BT1B.jpg","null","",NA,NA,NA,NA,""
"image-keyboard-response",136,167889,"0.0-3.41-2.41","5f3whv9kmv4kfjl",875,"176.csv","","null","resources/images/fishbone.png","null","",NA,NA,NA,NA,""
"image-keyboard-response",137,168133,"0.0-3.42-0.42","5f3whv9kmv4kfjl",875,"176.csv","","242.39999997615814","resources/trios/L2T1A1.jpg","39","restless",0.2,0.4,0.9,0.752531500280539,"true"
"image-keyboard-response",138,168540,"0.0-3.42-1.42","5f3whv9kmv4kfjl",875,"176.csv","","null","resources/maskTrios/BBA1.jpg","null","",NA,NA,NA,NA,""
"image-keyboard-response",139,169746,"0.0-3.42-2.42","5f3whv9kmv4kfjl",875,"176.csv","","null","resources/images/coin2.png","null","",NA,NA,NA,NA,""
"image-keyboard-response",140,170305,"0.0-3.43-0.43","5f3whv9kmv4kfjl",875,"176.csv","","556.6999999880791","resources/trios/L1T4A1.jpg","39","restless",0.2,0.4,0.9,0.556255518309844,"true"
"image-keyboard-response",141,170710,"0.0-3.43-1.43","5f3whv9kmv4kfjl",875,"176.csv","","null","resources/maskTrios/BBA1.jpg","null","",NA,NA,NA,NA,""
"image-keyboard-response",142,171914,"0.0-3.43-2.43","5f3whv9kmv4kfjl",875,"176.csv","","null","resources/images/coin2.png","null","",NA,NA,NA,NA,""
"image-keyboard-response",143,172170,"0.0-3.44-0.44","5f3whv9kmv4kfjl",875,"176.csv","","253.5","resources/trios/L1T4A2.jpg","39","restless",0.2,0.4,0.9,0.640212441339888,"true"
"image-keyboard-response",144,172574,"0.0-3.44-1.44","5f3whv9kmv4kfjl",875,"176.csv","","null","resources/maskTrios/BBA2.jpg","null","",NA,NA,NA,NA,""
"image-keyboard-response",145,173780,"0.0-3.44-2.44","5f3whv9kmv4kfjl",875,"176.csv","","null","resources/images/coin2.png","null","",NA,NA,NA,NA,""
"image-keyboard-response",146,173930,"0.0-3.45-0.45","5f3whv9kmv4kfjl",875,"176.csv","","147.39999997615814","resources/trios/L1T1A1.jpg","39","restless",0.3,0.4,0.9,0.645471745505708,"true"
"image-keyboard-response",147,174331,"0.0-3.45-1.45","5f3whv9kmv4kfjl",875,"176.csv","","null","resources/maskTrios/BBA1.jpg","null","",NA,NA,NA,NA,""
"image-keyboard-response",148,175538,"0.0-3.45-2.45","5f3whv9kmv4kfjl",875,"176.csv","","null","resources/images/coin2.png","null","",NA,NA,NA,NA,""
"image-keyboard-response",149,175825,"0.0-3.46-0.46","5f3whv9kmv4kfjl",875,"176.csv","","285.19999998807907","resources/trios/L1T1A1.jpg","39","restless",0.3,0.4,0.9,0.953383587052161,"false"
"image-keyboard-response",150,176231,"0.0-3.46-1.46","5f3whv9kmv4kfjl",875,"176.csv","","null","resources/maskTrios/BBA1.jpg","null","",NA,NA,NA,NA,""
"image-keyboard-response",151,177437,"0.0-3.46-2.46","5f3whv9kmv4kfjl",875,"176.csv","","null","resources/images/fishbone.png","null","",NA,NA,NA,NA,""
"image-keyboard-response",152,177755,"0.0-3.47-0.47","5f3whv9kmv4kfjl",875,"176.csv","","315.5","resources/trios/L2T1A2.jpg","38","restless",0.3,0.4,0.9,0.333037066295188,"true"
"image-keyboard-response",153,178159,"0.0-3.47-1.47","5f3whv9kmv4kfjl",875,"176.csv","","null","resources/maskTrios/BT1B.jpg","null","",NA,NA,NA,NA,""
"image-keyboard-response",154,179366,"0.0-3.47-2.47","5f3whv9kmv4kfjl",875,"176.csv","","null","resources/images/coin2.png","null","",NA,NA,NA,NA,""
"image-keyboard-response",155,179681,"0.0-3.48-0.48","5f3whv9kmv4kfjl",875,"176.csv","","314.2999999821186","resources/trios/L2T1A2.jpg","38","restless",0.4,0.4,0.9,0.0902295773207713,"true"
"image-keyboard-response",156,180087,"0.0-3.48-1.48","5f3whv9kmv4kfjl",875,"176.csv","","null","resources/maskTrios/BT1B.jpg","null","",NA,NA,NA,NA,""
"image-keyboard-response",157,181294,"0.0-3.48-2.48","5f3whv9kmv4kfjl",875,"176.csv","","null","resources/images/coin2.png","null","",NA,NA,NA,NA,""
"image-keyboard-response",158,181720,"0.0-3.49-0.49","5f3whv9kmv4kfjl",875,"176.csv","","424.40000000596046","resources/trios/L1T4A1.jpg","38","restless",0.4,0.4,0.9,0.439658675301912,"false"
"image-keyboard-response",159,182125,"0.0-3.49-1.49","5f3whv9kmv4kfjl",875,"176.csv","","null","resources/maskTrios/BT4B.jpg","null","",NA,NA,NA,NA,""
"image-keyboard-response",160,183328,"0.0-3.49-2.49","5f3whv9kmv4kfjl",875,"176.csv","","null","resources/images/fishbone.png","null","",NA,NA,NA,NA,""
"image-keyboard-response",161,183940,"0.0-3.50-0.50","5f3whv9kmv4kfjl",875,"176.csv","","610.3999999761581","resources/trios/L2T1A1.jpg","39","restless",0.4,0.5,0.9,0.940536677061192,"false"
"image-keyboard-response",162,184342,"0.0-3.50-1.50","5f3whv9kmv4kfjl",875,"176.csv","","null","resources/maskTrios/BBA1.jpg","null","",NA,NA,NA,NA,""
"image-keyboard-response",163,185544,"0.0-3.50-2.50","5f3whv9kmv4kfjl",875,"176.csv","","null","resources/images/fishbone.png","null","",NA,NA,NA,NA,""
"image-keyboard-response",164,185889,"0.0-3.51-0.51","5f3whv9kmv4kfjl",875,"176.csv","","344.59999999403954","resources/trios/L1T1A1.jpg","37","restless",0.4,0.5,0.9,0.812723678086074,"false"
"image-keyboard-response",165,186296,"0.0-3.51-1.51","5f3whv9kmv4kfjl",875,"176.csv","","null","resources/maskTrios/L1BB.jpg","null","",NA,NA,NA,NA,""
"image-keyboard-response",166,187502,"0.0-3.51-2.51","5f3whv9kmv4kfjl",875,"176.csv","","null","resources/images/fishbone.png","null","",NA,NA,NA,NA,""
"image-keyboard-response",167,187793,"0.0-3.52-0.52","5f3whv9kmv4kfjl",875,"176.csv","","289.30000001192093","resources/trios/L1T4A2.jpg","38","restless",0.4,0.5,0.9,0.250257357898249,"true"
"image-keyboard-response",168,188196,"0.0-3.52-1.52","5f3whv9kmv4kfjl",875,"176.csv","","null","resources/maskTrios/BT4B.jpg","null","",NA,NA,NA,NA,""
"image-keyboard-response",169,189402,"0.0-3.52-2.52","5f3whv9kmv4kfjl",875,"176.csv","","null","resources/images/coin2.png","null","",NA,NA,NA,NA,""
"image-keyboard-response",170,190275,"0.0-3.53-0.53","5f3whv9kmv4kfjl",875,"176.csv","","871.1999999880791","resources/trios/L2T1A1.jpg","38","restless",0.4,0.5,0.9,0.950457724463684,"false"
"image-keyboard-response",171,190681,"0.0-3.53-1.53","5f3whv9kmv4kfjl",875,"176.csv","","null","resources/maskTrios/BT1B.jpg","null","",NA,NA,NA,NA,""
"image-keyboard-response",172,191886,"0.0-3.53-2.53","5f3whv9kmv4kfjl",875,"176.csv","","null","resources/images/fishbone.png","null","",NA,NA,NA,NA,""
"image-keyboard-response",173,192036,"0.0-3.54-0.54","5f3whv9kmv4kfjl",875,"176.csv","","148.59999999403954","resources/trios/L1T4A2.jpg","39","restless",0.4,0.5,0.9,0.707422176427574,"true"
"image-keyboard-response",174,192441,"0.0-3.54-1.54","5f3whv9kmv4kfjl",875,"176.csv","","null","resources/maskTrios/BBA2.jpg","null","",NA,NA,NA,NA,""
"image-keyboard-response",175,193648,"0.0-3.54-2.54","5f3whv9kmv4kfjl",875,"176.csv","","null","resources/images/coin2.png","null","",NA,NA,NA,NA,""
"image-keyboard-response",176,193964,"0.0-3.55-0.55","5f3whv9kmv4kfjl",875,"176.csv","","315","resources/trios/L2T4A2.jpg","39","restless",0.4,0.5,0.9,0.333246757340303,"true"
"image-keyboard-response",177,194369,"0.0-3.55-1.55","5f3whv9kmv4kfjl",875,"176.csv","","null","resources/maskTrios/BBA2.jpg","null","",NA,NA,NA,NA,""
"image-keyboard-response",178,195572,"0.0-3.55-2.55","5f3whv9kmv4kfjl",875,"176.csv","","null","resources/images/coin2.png","null","",NA,NA,NA,NA,""
"image-keyboard-response",179,195739,"0.0-3.56-0.56","5f3whv9kmv4kfjl",875,"176.csv","","165.5","resources/trios/L1T1A1.jpg","38","restless",0.4,0.5,0.9,0.00283386843661448,"true"
"image-keyboard-response",180,196143,"0.0-3.56-1.56","5f3whv9kmv4kfjl",875,"176.csv","","null","resources/maskTrios/BT1B.jpg","null","",NA,NA,NA,NA,""
"image-keyboard-response",181,197345,"0.0-3.56-2.56","5f3whv9kmv4kfjl",875,"176.csv","","null","resources/images/coin2.png","null","",NA,NA,NA,NA,""
"image-keyboard-response",182,197654,"0.0-3.57-0.57","5f3whv9kmv4kfjl",875,"176.csv","","307.19999998807907","resources/trios/L2T4A2.jpg","39","restless",0.4,0.5,0.9,0.601807605870625,"true"
"image-keyboard-response",183,198060,"0.0-3.57-1.57","5f3whv9kmv4kfjl",875,"176.csv","","null","resources/maskTrios/BBA2.jpg","null","",NA,NA,NA,NA,""
"image-keyboard-response",184,199267,"0.0-3.57-2.57","5f3whv9kmv4kfjl",875,"176.csv","","null","resources/images/coin2.png","null","",NA,NA,NA,NA,""
"image-keyboard-response",185,199498,"0.0-3.58-0.58","5f3whv9kmv4kfjl",875,"176.csv","","230.19999998807907","resources/trios/L2T4A2.jpg","39","restless",0.4,0.5,0.8,0.00223446197367205,"true"
"image-keyboard-response",186,199901,"0.0-3.58-1.58","5f3whv9kmv4kfjl",875,"176.csv","","null","resources/maskTrios/BBA2.jpg","null","",NA,NA,NA,NA,""
"image-keyboard-response",187,201104,"0.0-3.58-2.58","5f3whv9kmv4kfjl",875,"176.csv","","null","resources/images/coin2.png","null","",NA,NA,NA,NA,""
"image-keyboard-response",188,201422,"0.0-3.59-0.59","5f3whv9kmv4kfjl",875,"176.csv","","317.19999998807907","resources/trios/L1T4A1.jpg","38","restless",0.4,0.5,0.8,0.0555876759196301,"true"
"image-keyboard-response",189,201826,"0.0-3.59-1.59","5f3whv9kmv4kfjl",875,"176.csv","","null","resources/maskTrios/BT4B.jpg","null","",NA,NA,NA,NA,""
"image-keyboard-response",190,203030,"0.0-3.59-2.59","5f3whv9kmv4kfjl",875,"176.csv","","null","resources/images/coin2.png","null","",NA,NA,NA,NA,""
"image-keyboard-response",191,203341,"0.0-3.60-0.60","5f3whv9kmv4kfjl",875,"176.csv","","310.30000001192093","resources/trios/L2T4A1.jpg","38","restless",0.4,0.6,0.9,0.0363310214318184,"true"
"image-keyboard-response",192,203748,"0.0-3.60-1.60","5f3whv9kmv4kfjl",875,"176.csv","","null","resources/maskTrios/BT4B.jpg","null","",NA,NA,NA,NA,""
"image-keyboard-response",193,204953,"0.0-3.60-2.60","5f3whv9kmv4kfjl",875,"176.csv","","null","resources/images/coin2.png","null","",NA,NA,NA,NA,""
"image-keyboard-response",194,205445,"0.0-3.61-0.61","5f3whv9kmv4kfjl",875,"176.csv","","490.30000001192093","resources/trios/L2T4A1.jpg","39","restless",0.4,0.6,0.9,0.0468988051034578,"true"
"image-keyboard-response",195,205852,"0.0-3.61-1.61","5f3whv9kmv4kfjl",875,"176.csv","","null","resources/maskTrios/BBA1.jpg","null","",NA,NA,NA,NA,""
"image-keyboard-response",196,207056,"0.0-3.61-2.61","5f3whv9kmv4kfjl",875,"176.csv","","null","resources/images/coin2.png","null","",NA,NA,NA,NA,""
"image-keyboard-response",197,207426,"0.0-3.62-0.62","5f3whv9kmv4kfjl",875,"176.csv","","368.59999999403954","resources/trios/L1T1A2.jpg","39","restless",0.4,0.6,0.9,0.198719194912072,"true"
"image-keyboard-response",198,207832,"0.0-3.62-1.62","5f3whv9kmv4kfjl",875,"176.csv","","null","resources/maskTrios/BBA2.jpg","null","",NA,NA,NA,NA,""
"image-keyboard-response",199,209034,"0.0-3.62-2.62","5f3whv9kmv4kfjl",875,"176.csv","","null","resources/images/coin2.png","null","",NA,NA,NA,NA,""
"image-keyboard-response",200,209369,"0.0-3.63-0.63","5f3whv9kmv4kfjl",875,"176.csv","","332.80000001192093","resources/trios/L2T1A2.jpg","38","restless",0.4,0.6,0.9,0.609408305672437,"false"
"image-keyboard-response",201,209775,"0.0-3.63-1.63","5f3whv9kmv4kfjl",875,"176.csv","","null","resources/maskTrios/BT1B.jpg","null","",NA,NA,NA,NA,""
"image-keyboard-response",202,210978,"0.0-3.63-2.63","5f3whv9kmv4kfjl",875,"176.csv","","null","resources/images/fishbone.png","null","",NA,NA,NA,NA,""
"image-keyboard-response",203,211157,"0.0-3.64-0.64","5f3whv9kmv4kfjl",875,"176.csv","","177.80000001192093","resources/trios/L2T1A2.jpg","39","restless",0.4,0.6,0.9,0.705232024030178,"true"
"image-keyboard-response",204,211564,"0.0-3.64-1.64","5f3whv9kmv4kfjl",875,"176.csv","","null","resources/maskTrios/BBA2.jpg","null","",NA,NA,NA,NA,""
"image-keyboard-response",205,212765,"0.0-3.64-2.64","5f3whv9kmv4kfjl",875,"176.csv","","null","resources/images/coin2.png","null","",NA,NA,NA,NA,""
"image-keyboard-response",206,213118,"0.0-3.65-0.65","5f3whv9kmv4kfjl",875,"176.csv","","351.5","resources/trios/L2T1A1.jpg","39","restless",0.4,0.6,0.9,0.415395882575404,"true"
"image-keyboard-response",207,213520,"0.0-3.65-1.65","5f3whv9kmv4kfjl",875,"176.csv","","null","resources/maskTrios/BBA1.jpg","null","",NA,NA,NA,NA,""
"image-keyboard-response",208,214726,"0.0-3.65-2.65","5f3whv9kmv4kfjl",875,"176.csv","","null","resources/images/coin2.png","null","",NA,NA,NA,NA,""
"image-keyboard-response",209,215056,"0.0-3.66-0.66","5f3whv9kmv4kfjl",875,"176.csv","","328.90000000596046","resources/trios/L1T4A1.jpg","38","restless",0.4,0.6,0.9,0.354894759888087,"true"
"image-keyboard-response",210,215462,"0.0-3.66-1.66","5f3whv9kmv4kfjl",875,"176.csv","","null","resources/maskTrios/BT4B.jpg","null","",NA,NA,NA,NA,""
"image-keyboard-response",211,216668,"0.0-3.66-2.66","5f3whv9kmv4kfjl",875,"176.csv","","null","resources/images/coin2.png","null","",NA,NA,NA,NA,""
"image-keyboard-response",212,216987,"0.0-3.67-0.67","5f3whv9kmv4kfjl",875,"176.csv","","317","resources/trios/L1T4A1.jpg","38","restless",0.4,0.6,0.9,0.35468092539239,"true"
"image-keyboard-response",213,217389,"0.0-3.67-1.67","5f3whv9kmv4kfjl",875,"176.csv","","null","resources/maskTrios/BT4B.jpg","null","",NA,NA,NA,NA,""
"image-keyboard-response",214,218596,"0.0-3.67-2.67","5f3whv9kmv4kfjl",875,"176.csv","","null","resources/images/coin2.png","null","",NA,NA,NA,NA,""
"image-keyboard-response",215,218924,"0.0-3.68-0.68","5f3whv9kmv4kfjl",875,"176.csv","","326.7999999821186","resources/trios/L2T4A2.jpg","38","restless",0.4,0.6,0.9,0.958321113274488,"false"
"image-keyboard-response",216,219329,"0.0-3.68-1.68","5f3whv9kmv4kfjl",875,"176.csv","","null","resources/maskTrios/BT4B.jpg","null","",NA,NA,NA,NA,""
"image-keyboard-response",217,220534,"0.0-3.68-2.68","5f3whv9kmv4kfjl",875,"176.csv","","null","resources/images/fishbone.png","null","",NA,NA,NA,NA,""
"image-keyboard-response",218,220875,"0.0-3.69-0.69","5f3whv9kmv4kfjl",875,"176.csv","","339.59999999403954","resources/trios/L2T4A2.jpg","39","restless",0.4,0.6,0.9,0.545906655784889,"true"
"image-keyboard-response",219,221276,"0.0-3.69-1.69","5f3whv9kmv4kfjl",875,"176.csv","","null","resources/maskTrios/BBA2.jpg","null","",NA,NA,NA,NA,""
"image-keyboard-response",220,222480,"0.0-3.69-2.69","5f3whv9kmv4kfjl",875,"176.csv","","null","resources/images/coin2.png","null","",NA,NA,NA,NA,""
"image-keyboard-response",221,222782,"0.0-3.70-0.70","5f3whv9kmv4kfjl",875,"176.csv","","300.59999999403954","resources/trios/L2T4A2.jpg","39","restless",0.4,0.6,0.9,0.612438980445023,"true"
"image-keyboard-response",222,223187,"0.0-3.70-1.70","5f3whv9kmv4kfjl",875,"176.csv","","null","resources/maskTrios/BBA2.jpg","null","",NA,NA,NA,NA,""
"image-keyboard-response",223,224390,"0.0-3.70-2.70","5f3whv9kmv4kfjl",875,"176.csv","","null","resources/images/coin2.png","null","",NA,NA,NA,NA,""
"image-keyboard-response",224,224691,"0.0-3.71-0.71","5f3whv9kmv4kfjl",875,"176.csv","","299.40000000596046","resources/trios/L1T4A1.jpg","39","restless",0.4,0.5,0.9,0.795878339673411,"true"
"image-keyboard-response",225,225095,"0.0-3.71-1.71","5f3whv9kmv4kfjl",875,"176.csv","","null","resources/maskTrios/BBA1.jpg","null","",NA,NA,NA,NA,""
"image-keyboard-response",226,226299,"0.0-3.71-2.71","5f3whv9kmv4kfjl",875,"176.csv","","null","resources/images/coin2.png","null","",NA,NA,NA,NA,""
"image-keyboard-response",227,226687,"0.0-3.72-0.72","5f3whv9kmv4kfjl",875,"176.csv","","386.59999999403954","resources/trios/L2T4A2.jpg","39","restless",0.4,0.6,0.9,0.878802138149552,"true"
"image-keyboard-response",228,227090,"0.0-3.72-1.72","5f3whv9kmv4kfjl",875,"176.csv","","null","resources/maskTrios/BBA2.jpg","null","",NA,NA,NA,NA,""
"image-keyboard-response",229,228295,"0.0-3.72-2.72","5f3whv9kmv4kfjl",875,"176.csv","","null","resources/images/coin2.png","null","",NA,NA,NA,NA,""
"image-keyboard-response",230,228710,"0.0-3.73-0.73","5f3whv9kmv4kfjl",875,"176.csv","","413.69999998807907","resources/trios/L1T4A2.jpg","38","restless",0.4,0.6,0.9,0.7614257520631,"false"
"image-keyboard-response",231,229117,"0.0-3.73-1.73","5f3whv9kmv4kfjl",875,"176.csv","","null","resources/maskTrios/BT4B.jpg","null","",NA,NA,NA,NA,""
"image-keyboard-response",232,230319,"0.0-3.73-2.73","5f3whv9kmv4kfjl",875,"176.csv","","null","resources/images/fishbone.png","null","",NA,NA,NA,NA,""
"image-keyboard-response",233,230483,"0.0-3.74-0.74","5f3whv9kmv4kfjl",875,"176.csv","","162.90000000596046","resources/trios/L1T4A2.jpg","39","restless",0.4,0.6,0.9,0.397120683760569,"true"
"image-keyboard-response",234,230890,"0.0-3.74-1.74","5f3whv9kmv4kfjl",875,"176.csv","","null","resources/maskTrios/BBA2.jpg","null","",NA,NA,NA,NA,""
"image-keyboard-response",235,232092,"0.0-3.74-2.74","5f3whv9kmv4kfjl",875,"176.csv","","null","resources/images/coin2.png","null","",NA,NA,NA,NA,""
"image-keyboard-response",236,232371,"0.0-3.75-0.75","5f3whv9kmv4kfjl",875,"176.csv","","276.90000000596046","resources/trios/L2T4A2.jpg","39","restless",0.3,0.6,0.9,0.256995753133123,"true"
"image-keyboard-response",237,232772,"0.0-3.75-1.75","5f3whv9kmv4kfjl",875,"176.csv","","null","resources/maskTrios/BBA2.jpg","null","",NA,NA,NA,NA,""
"image-keyboard-response",238,233979,"0.0-3.75-2.75","5f3whv9kmv4kfjl",875,"176.csv","","null","resources/images/coin2.png","null","",NA,NA,NA,NA,""
"image-keyboard-response",239,234300,"0.0-3.76-0.76","5f3whv9kmv4kfjl",875,"176.csv","","319.90000000596046","resources/trios/L2T4A1.jpg","39","restless",0.3,0.6,0.8,0.0296486497254917,"true"
"image-keyboard-response",240,234706,"0.0-3.76-1.76","5f3whv9kmv4kfjl",875,"176.csv","","null","resources/maskTrios/BBA1.jpg","null","",NA,NA,NA,NA,""
"image-keyboard-response",241,235911,"0.0-3.76-2.76","5f3whv9kmv4kfjl",875,"176.csv","","null","resources/images/coin2.png","null","",NA,NA,NA,NA,""
"image-keyboard-response",242,236184,"0.0-3.77-0.77","5f3whv9kmv4kfjl",875,"176.csv","","271.59999999403954","resources/trios/L2T1A1.jpg","39","restless",0.3,0.6,0.8,0.528066685365075,"true"
"image-keyboard-response",243,236590,"0.0-3.77-1.77","5f3whv9kmv4kfjl",875,"176.csv","","null","resources/maskTrios/BBA1.jpg","null","",NA,NA,NA,NA,""
"image-keyboard-response",244,237792,"0.0-3.77-2.77","5f3whv9kmv4kfjl",875,"176.csv","","null","resources/images/coin2.png","null","",NA,NA,NA,NA,""
"image-keyboard-response",245,238198,"0.0-3.78-0.78","5f3whv9kmv4kfjl",875,"176.csv","","404.5","resources/trios/L1T4A2.jpg","39","restless",0.3,0.6,0.8,0.928708122766279,"false"
"image-keyboard-response",246,238604,"0.0-3.78-1.78","5f3whv9kmv4kfjl",875,"176.csv","","null","resources/maskTrios/BBA2.jpg","null","",NA,NA,NA,NA,""
"image-keyboard-response",247,239810,"0.0-3.78-2.78","5f3whv9kmv4kfjl",875,"176.csv","","null","resources/images/fishbone.png","null","",NA,NA,NA,NA,""
"image-keyboard-response",248,240131,"0.0-3.79-0.79","5f3whv9kmv4kfjl",875,"176.csv","","319.90000000596046","resources/trios/L1T4A1.jpg","38","restless",0.3,0.6,0.8,0.0341777562889187,"true"
"image-keyboard-response",249,240535,"0.0-3.79-1.79","5f3whv9kmv4kfjl",875,"176.csv","","null","resources/maskTrios/BT4B.jpg","null","",NA,NA,NA,NA,""
"image-keyboard-response",250,241740,"0.0-3.79-2.79","5f3whv9kmv4kfjl",875,"176.csv","","null","resources/images/coin2.png","null","",NA,NA,NA,NA,""
"image-keyboard-response",251,242152,"0.0-3.80-0.80","5f3whv9kmv4kfjl",875,"176.csv","","410.40000000596046","resources/trios/L2T1A2.jpg","38","restless",0.4,0.6,0.9,0.963332324822608,"false"
"image-keyboard-response",252,242555,"0.0-3.80-1.80","5f3whv9kmv4kfjl",875,"176.csv","","null","resources/maskTrios/BT1B.jpg","null","",NA,NA,NA,NA,""
"image-keyboard-response",253,243761,"0.0-3.80-2.80","5f3whv9kmv4kfjl",875,"176.csv","","null","resources/images/fishbone.png","null","",NA,NA,NA,NA,""
"image-keyboard-response",254,244402,"0.0-3.81-0.81","5f3whv9kmv4kfjl",875,"176.csv","","639.5999999940395","resources/trios/L1T4A1.jpg","39","restless",0.4,0.6,0.9,0.343099416364123,"true"
"image-keyboard-response",255,244807,"0.0-3.81-1.81","5f3whv9kmv4kfjl",875,"176.csv","","null","resources/maskTrios/BBA1.jpg","null","",NA,NA,NA,NA,""
"image-keyboard-response",256,246013,"0.0-3.81-2.81","5f3whv9kmv4kfjl",875,"176.csv","","null","resources/images/coin2.png","null","",NA,NA,NA,NA,""
"image-keyboard-response",257,246288,"0.0-3.82-0.82","5f3whv9kmv4kfjl",875,"176.csv","","274","resources/trios/L1T1A2.jpg","39","restless",0.4,0.6,0.9,0.836136673340883,"true"
"image-keyboard-response",258,246695,"0.0-3.82-1.82","5f3whv9kmv4kfjl",875,"176.csv","","null","resources/maskTrios/BBA2.jpg","null","",NA,NA,NA,NA,""
"image-keyboard-response",259,247900,"0.0-3.82-2.82","5f3whv9kmv4kfjl",875,"176.csv","","null","resources/images/coin2.png","null","",NA,NA,NA,NA,""
"image-keyboard-response",260,248279,"0.0-3.83-0.83","5f3whv9kmv4kfjl",875,"176.csv","","377.19999998807907","resources/trios/L1T1A1.jpg","39","restless",0.5,0.6,0.9,0.319269888872524,"true"
"image-keyboard-response",261,248683,"0.0-3.83-1.83","5f3whv9kmv4kfjl",875,"176.csv","","null","resources/maskTrios/BBA1.jpg","null","",NA,NA,NA,NA,""
"image-keyboard-response",262,249886,"0.0-3.83-2.83","5f3whv9kmv4kfjl",875,"176.csv","","null","resources/images/coin2.png","null","",NA,NA,NA,NA,""
"image-keyboard-response",263,250254,"0.0-3.84-0.84","5f3whv9kmv4kfjl",875,"176.csv","","367.60000002384186","resources/trios/L2T4A1.jpg","39","restless",0.5,0.6,0.9,0.834904734927121,"true"
"image-keyboard-response",264,250660,"0.0-3.84-1.84","5f3whv9kmv4kfjl",875,"176.csv","","null","resources/maskTrios/BBA1.jpg","null","",NA,NA,NA,NA,""
"image-keyboard-response",265,251864,"0.0-3.84-2.84","5f3whv9kmv4kfjl",875,"176.csv","","null","resources/images/coin2.png","null","",NA,NA,NA,NA,""
"image-keyboard-response",266,252266,"0.0-3.85-0.85","5f3whv9kmv4kfjl",875,"176.csv","","400.30000001192093","resources/trios/L2T1A2.jpg","39","restless",0.5,0.6,0.9,0.335396799614652,"true"
"image-keyboard-response",267,252670,"0.0-3.85-1.85","5f3whv9kmv4kfjl",875,"176.csv","","null","resources/maskTrios/BBA2.jpg","null","",NA,NA,NA,NA,""
"image-keyboard-response",268,253876,"0.0-3.85-2.85","5f3whv9kmv4kfjl",875,"176.csv","","null","resources/images/coin2.png","null","",NA,NA,NA,NA,""
"image-keyboard-response",269,254232,"0.0-3.86-0.86","5f3whv9kmv4kfjl",875,"176.csv","","354.89999997615814","resources/trios/L2T1A2.jpg","39","restless",0.5,0.7,0.9,0.173355904386466,"true"
"image-keyboard-response",270,254638,"0.0-3.86-1.86","5f3whv9kmv4kfjl",875,"176.csv","","null","resources/maskTrios/BBA2.jpg","null","",NA,NA,NA,NA,""
"image-keyboard-response",271,255841,"0.0-3.86-2.86","5f3whv9kmv4kfjl",875,"176.csv","","null","resources/images/coin2.png","null","",NA,NA,NA,NA,""
"image-keyboard-response",272,256279,"0.0-3.87-0.87","5f3whv9kmv4kfjl",875,"176.csv","","435.90000000596046","resources/trios/L1T4A1.jpg","39","restless",0.5,0.7,0.9,0.599589182771152,"true"
"image-keyboard-response",273,256685,"0.0-3.87-1.87","5f3whv9kmv4kfjl",875,"176.csv","","null","resources/maskTrios/BBA1.jpg","null","",NA,NA,NA,NA,""
"image-keyboard-response",274,257886,"0.0-3.87-2.87","5f3whv9kmv4kfjl",875,"176.csv","","null","resources/images/coin2.png","null","",NA,NA,NA,NA,""
"image-keyboard-response",275,258202,"0.0-3.88-0.88","5f3whv9kmv4kfjl",875,"176.csv","","314.30000001192093","resources/trios/L1T1A1.jpg","38","restless",0.6,0.7,0.9,0.466753197031515,"true"
"image-keyboard-response",276,258609,"0.0-3.88-1.88","5f3whv9kmv4kfjl",875,"176.csv","","null","resources/maskTrios/BT1B.jpg","null","",NA,NA,NA,NA,""
"image-keyboard-response",277,259815,"0.0-3.88-2.88","5f3whv9kmv4kfjl",875,"176.csv","","null","resources/images/coin2.png","null","",NA,NA,NA,NA,""
"image-keyboard-response",278,260233,"0.0-3.89-0.89","5f3whv9kmv4kfjl",875,"176.csv","","416.90000000596046","resources/trios/L1T4A2.jpg","38","restless",0.6,0.7,0.9,0.0716531870339125,"true"
"image-keyboard-response",279,260636,"0.0-3.89-1.89","5f3whv9kmv4kfjl",875,"176.csv","","null","resources/maskTrios/BT4B.jpg","null","",NA,NA,NA,NA,""
"image-keyboard-response",280,261842,"0.0-3.89-2.89","5f3whv9kmv4kfjl",875,"176.csv","","null","resources/images/coin2.png","null","",NA,NA,NA,NA,""
"image-keyboard-response",281,262148,"0.0-3.90-0.90","5f3whv9kmv4kfjl",875,"176.csv","","303.90000000596046","resources/trios/L2T1A1.jpg","39","restless",0.6,0.7,0.9,0.781981137996524,"true"
"image-keyboard-response",282,262552,"0.0-3.90-1.90","5f3whv9kmv4kfjl",875,"176.csv","","null","resources/maskTrios/BBA1.jpg","null","",NA,NA,NA,NA,""
"image-keyboard-response",283,263759,"0.0-3.90-2.90","5f3whv9kmv4kfjl",875,"176.csv","","null","resources/images/coin2.png","null","",NA,NA,NA,NA,""
"image-keyboard-response",284,264019,"0.0-3.91-0.91","5f3whv9kmv4kfjl",875,"176.csv","","258.80000001192093","resources/trios/L1T4A2.jpg","39","restless",0.6,0.7,0.9,0.30684226752098,"true"
"image-keyboard-response",285,264421,"0.0-3.91-1.91","5f3whv9kmv4kfjl",875,"176.csv","","null","resources/maskTrios/BBA2.jpg","null","",NA,NA,NA,NA,""
"image-keyboard-response",286,265628,"0.0-3.91-2.91","5f3whv9kmv4kfjl",875,"176.csv","","null","resources/images/coin2.png","null","",NA,NA,NA,NA,""
"image-keyboard-response",287,265914,"0.0-3.92-0.92","5f3whv9kmv4kfjl",875,"176.csv","","284.69999998807907","resources/trios/L1T4A1.jpg","38","restless",0.5,0.7,0.9,0.375149375332493,"true"
"image-keyboard-response",288,266320,"0.0-3.92-1.92","5f3whv9kmv4kfjl",875,"176.csv","","null","resources/maskTrios/BT4B.jpg","null","",NA,NA,NA,NA,""
"image-keyboard-response",289,267526,"0.0-3.92-2.92","5f3whv9kmv4kfjl",875,"176.csv","","null","resources/images/coin2.png","null","",NA,NA,NA,NA,""
"image-keyboard-response",290,267917,"0.0-3.93-0.93","5f3whv9kmv4kfjl",875,"176.csv","","389.40000000596046","resources/trios/L1T4A1.jpg","39","restless",0.4,0.7,0.8,0.526456686399872,"true"
"image-keyboard-response",291,268319,"0.0-3.93-1.93","5f3whv9kmv4kfjl",875,"176.csv","","null","resources/maskTrios/BBA1.jpg","null","",NA,NA,NA,NA,""
"image-keyboard-response",292,269523,"0.0-3.93-2.93","5f3whv9kmv4kfjl",875,"176.csv","","null","resources/images/coin2.png","null","",NA,NA,NA,NA,""
"image-keyboard-response",293,269874,"0.0-3.94-0.94","5f3whv9kmv4kfjl",875,"176.csv","","349.60000002384186","resources/trios/L1T4A2.jpg","39","restless",0.4,0.7,0.7,0.0103941632200939,"true"
"image-keyboard-response",294,270276,"0.0-3.94-1.94","5f3whv9kmv4kfjl",875,"176.csv","","null","resources/maskTrios/BBA2.jpg","null","",NA,NA,NA,NA,""
"image-keyboard-response",295,271478,"0.0-3.94-2.94","5f3whv9kmv4kfjl",875,"176.csv","","null","resources/images/coin2.png","null","",NA,NA,NA,NA,""
"image-keyboard-response",296,271947,"0.0-3.95-0.95","5f3whv9kmv4kfjl",875,"176.csv","","467.30000001192093","resources/trios/L1T1A2.jpg","39","restless",0.4,0.7,0.7,0.867361975863514,"false"
"image-keyboard-response",297,272351,"0.0-3.95-1.95","5f3whv9kmv4kfjl",875,"176.csv","","null","resources/maskTrios/BBA2.jpg","null","",NA,NA,NA,NA,""
"image-keyboard-response",298,273553,"0.0-3.95-2.95","5f3whv9kmv4kfjl",875,"176.csv","","null","resources/images/fishbone.png","null","",NA,NA,NA,NA,""
"image-keyboard-response",299,273895,"0.0-3.96-0.96","5f3whv9kmv4kfjl",875,"176.csv","","341.39999997615814","resources/trios/L2T1A1.jpg","38","restless",0.4,0.7,0.7,0.206773528377909,"true"
"image-keyboard-response",300,274302,"0.0-3.96-1.96","5f3whv9kmv4kfjl",875,"176.csv","","null","resources/maskTrios/BT1B.jpg","null","",NA,NA,NA,NA,""
"image-keyboard-response",301,275505,"0.0-3.96-2.96","5f3whv9kmv4kfjl",875,"176.csv","","null","resources/images/coin2.png","null","",NA,NA,NA,NA,""
"image-keyboard-response",302,275845,"0.0-3.97-0.97","5f3whv9kmv4kfjl",875,"176.csv","","338.5","resources/trios/L1T1A2.jpg","38","restless",0.4,0.6,0.7,0.849636751352218,"false"
"image-keyboard-response",303,276247,"0.0-3.97-1.97","5f3whv9kmv4kfjl",875,"176.csv","","null","resources/maskTrios/BT1B.jpg","null","",NA,NA,NA,NA,""
"image-keyboard-response",304,277449,"0.0-3.97-2.97","5f3whv9kmv4kfjl",875,"176.csv","","null","resources/images/fishbone.png","null","",NA,NA,NA,NA,""
"image-keyboard-response",305,277770,"0.0-3.98-0.98","5f3whv9kmv4kfjl",875,"176.csv","","319.69999998807907","resources/trios/L2T4A1.jpg","39","restless",0.4,0.6,0.7,0.0191792811690292,"true"
"image-keyboard-response",306,278172,"0.0-3.98-1.98","5f3whv9kmv4kfjl",875,"176.csv","","null","resources/maskTrios/BBA1.jpg","null","",NA,NA,NA,NA,""
"image-keyboard-response",307,279374,"0.0-3.98-2.98","5f3whv9kmv4kfjl",875,"176.csv","","null","resources/images/coin2.png","null","",NA,NA,NA,NA,""
"image-keyboard-response",308,279681,"0.0-3.99-0.99","5f3whv9kmv4kfjl",875,"176.csv","","305","resources/trios/L2T1A2.jpg","39","restless",0.4,0.6,0.7,0.102157219532583,"true"
"image-keyboard-response",309,280087,"0.0-3.99-1.99","5f3whv9kmv4kfjl",875,"176.csv","","null","resources/maskTrios/BBA2.jpg","null","",NA,NA,NA,NA,""
"image-keyboard-response",310,281293,"0.0-3.99-2.99","5f3whv9kmv4kfjl",875,"176.csv","","null","resources/images/coin2.png","null","",NA,NA,NA,NA,""
"image-keyboard-response",311,281721,"0.0-3.100-0.100","5f3whv9kmv4kfjl",875,"176.csv","","426.7000000178814","resources/trios/L2T1A2.jpg","38","restless",0.3,0.6,0.6,0.134927854535232,"true"
"image-keyboard-response",312,282123,"0.0-3.100-1.100","5f3whv9kmv4kfjl",875,"176.csv","","null","resources/maskTrios/BT1B.jpg","null","",NA,NA,NA,NA,""
"image-keyboard-response",313,283326,"0.0-3.100-2.100","5f3whv9kmv4kfjl",875,"176.csv","","null","resources/images/coin2.png","null","",NA,NA,NA,NA,""
"image-keyboard-response",314,283660,"0.0-3.101-0.101","5f3whv9kmv4kfjl",875,"176.csv","","332.80000001192093","resources/trios/L2T4A2.jpg","39","restless",0.3,0.6,0.6,0.197185345752571,"true"
"image-keyboard-response",315,284064,"0.0-3.101-1.101","5f3whv9kmv4kfjl",875,"176.csv","","null","resources/maskTrios/BBA2.jpg","null","",NA,NA,NA,NA,""
"image-keyboard-response",316,285271,"0.0-3.101-2.101","5f3whv9kmv4kfjl",875,"176.csv","","null","resources/images/coin2.png","null","",NA,NA,NA,NA,""
"image-keyboard-response",317,285664,"0.0-3.102-0.102","5f3whv9kmv4kfjl",875,"176.csv","","392.39999997615814","resources/trios/L1T4A1.jpg","39","restless",0.4,0.6,0.6,0.0144947828525899,"true"
"image-keyboard-response",318,286071,"0.0-3.102-1.102","5f3whv9kmv4kfjl",875,"176.csv","","null","resources/maskTrios/BBA1.jpg","null","",NA,NA,NA,NA,""
"image-keyboard-response",319,287278,"0.0-3.102-2.102","5f3whv9kmv4kfjl",875,"176.csv","","null","resources/images/coin2.png","null","",NA,NA,NA,NA,""
"image-keyboard-response",320,287619,"0.0-3.103-0.103","5f3whv9kmv4kfjl",875,"176.csv","","339.80000001192093","resources/trios/L1T4A2.jpg","38","restless",0.4,0.6,0.7,0.910354370230684,"false"
"image-keyboard-response",321,288025,"0.0-3.103-1.103","5f3whv9kmv4kfjl",875,"176.csv","","null","resources/maskTrios/BT4B.jpg","null","",NA,NA,NA,NA,""
"image-keyboard-response",322,289229,"0.0-3.103-2.103","5f3whv9kmv4kfjl",875,"176.csv","","null","resources/images/fishbone.png","null","",NA,NA,NA,NA,""
"image-keyboard-response",323,289550,"0.0-3.104-0.104","5f3whv9kmv4kfjl",875,"176.csv","","319.59999999403954","resources/trios/L2T4A1.jpg","39","restless",0.4,0.6,0.7,0.565156919567465,"true"
"image-keyboard-response",324,289956,"0.0-3.104-1.104","5f3whv9kmv4kfjl",875,"176.csv","","null","resources/maskTrios/BBA1.jpg","null","",NA,NA,NA,NA,""
"image-keyboard-response",325,291163,"0.0-3.104-2.104","5f3whv9kmv4kfjl",875,"176.csv","","null","resources/images/coin2.png","null","",NA,NA,NA,NA,""
"image-keyboard-response",326,291480,"0.0-3.105-0.105","5f3whv9kmv4kfjl",875,"176.csv","","316.09999999403954","resources/trios/L2T1A2.jpg","39","restless",0.5,0.6,0.7,0.82613499454761,"false"
"image-keyboard-response",327,291887,"0.0-3.105-1.105","5f3whv9kmv4kfjl",875,"176.csv","","null","resources/maskTrios/BBA2.jpg","null","",NA,NA,NA,NA,""
"image-keyboard-response",328,293093,"0.0-3.105-2.105","5f3whv9kmv4kfjl",875,"176.csv","","null","resources/images/fishbone.png","null","",NA,NA,NA,NA,""
"image-keyboard-response",329,293411,"0.0-3.106-0.106","5f3whv9kmv4kfjl",875,"176.csv","","316","resources/trios/L2T1A2.jpg","38","restless",0.5,0.6,0.7,0.0698998007283784,"true"
"image-keyboard-response",330,293814,"0.0-3.106-1.106","5f3whv9kmv4kfjl",875,"176.csv","","null","resources/maskTrios/BT1B.jpg","null","",NA,NA,NA,NA,""
"image-keyboard-response",331,295020,"0.0-3.106-2.106","5f3whv9kmv4kfjl",875,"176.csv","","null","resources/images/coin2.png","null","",NA,NA,NA,NA,""
"image-keyboard-response",332,295358,"0.0-3.107-0.107","5f3whv9kmv4kfjl",875,"176.csv","","336","resources/trios/L2T1A1.jpg","38","restless",0.5,0.5,0.7,0.965320113512978,"false"
"image-keyboard-response",333,295763,"0.0-3.107-1.107","5f3whv9kmv4kfjl",875,"176.csv","","null","resources/maskTrios/BT1B.jpg","null","",NA,NA,NA,NA,""
"image-keyboard-response",334,296967,"0.0-3.107-2.107","5f3whv9kmv4kfjl",875,"176.csv","","null","resources/images/fishbone.png","null","",NA,NA,NA,NA,""
"image-keyboard-response",335,297319,"0.0-3.108-0.108","5f3whv9kmv4kfjl",875,"176.csv","","350.2999999821186","resources/trios/L1T4A1.jpg","37","restless",0.5,0.5,0.7,0.984067824411962,"false"
"image-keyboard-response",336,297723,"0.0-3.108-1.108","5f3whv9kmv4kfjl",875,"176.csv","","null","resources/maskTrios/L1BB.jpg","null","",NA,NA,NA,NA,""
"image-keyboard-response",337,298928,"0.0-3.108-2.108","5f3whv9kmv4kfjl",875,"176.csv","","null","resources/images/fishbone.png","null","",NA,NA,NA,NA,""
"image-keyboard-response",338,300362,"0.0-3.109-0.109","5f3whv9kmv4kfjl",875,"176.csv","","1431.699999988079","resources/trios/L1T4A1.jpg","39","restless",0.5,0.5,0.6,0.195167775878269,"true"
"image-keyboard-response",339,300767,"0.0-3.109-1.109","5f3whv9kmv4kfjl",875,"176.csv","","null","resources/maskTrios/BBA1.jpg","null","",NA,NA,NA,NA,""
"image-keyboard-response",340,301970,"0.0-3.109-2.109","5f3whv9kmv4kfjl",875,"176.csv","","null","resources/images/coin2.png","null","",NA,NA,NA,NA,""
"image-keyboard-response",341,302342,"0.0-3.110-0.110","5f3whv9kmv4kfjl",875,"176.csv","","370.69999998807907","resources/trios/L2T1A2.jpg","39","restless",0.6,0.4,0.6,0.482253376891651,"true"
"image-keyboard-response",342,302744,"0.0-3.110-1.110","5f3whv9kmv4kfjl",875,"176.csv","","null","resources/maskTrios/BBA2.jpg","null","",NA,NA,NA,NA,""
"image-keyboard-response",343,303947,"0.0-3.110-2.110","5f3whv9kmv4kfjl",875,"176.csv","","null","resources/images/coin2.png","null","",NA,NA,NA,NA,""
"image-keyboard-response",344,304408,"0.0-3.111-0.111","5f3whv9kmv4kfjl",875,"176.csv","","459.7999999821186","resources/trios/L1T1A1.jpg","39","restless",0.6,0.5,0.6,0.206806562063659,"true"
"image-keyboard-response",345,304815,"0.0-3.111-1.111","5f3whv9kmv4kfjl",875,"176.csv","","null","resources/maskTrios/BBA1.jpg","null","",NA,NA,NA,NA,""
"image-keyboard-response",346,306022,"0.0-3.111-2.111","5f3whv9kmv4kfjl",875,"176.csv","","null","resources/images/coin2.png","null","",NA,NA,NA,NA,""
"image-keyboard-response",347,306354,"0.0-3.112-0.112","5f3whv9kmv4kfjl",875,"176.csv","","330.5","resources/trios/L2T4A2.jpg","38","restless",0.6,0.5,0.6,0.436041098190129,"true"
"image-keyboard-response",348,306758,"0.0-3.112-1.112","5f3whv9kmv4kfjl",875,"176.csv","","null","resources/maskTrios/BT4B.jpg","null","",NA,NA,NA,NA,""
"image-keyboard-response",349,307961,"0.0-3.112-2.112","5f3whv9kmv4kfjl",875,"176.csv","","null","resources/images/coin2.png","null","",NA,NA,NA,NA,""
"image-keyboard-response",350,308453,"0.0-3.113-0.113","5f3whv9kmv4kfjl",875,"176.csv","","491.19999998807907","resources/trios/L1T4A1.jpg","38","restless",0.7,0.5,0.6,0.775216163999729,"false"
"image-keyboard-response",351,308855,"0.0-3.113-1.113","5f3whv9kmv4kfjl",875,"176.csv","","null","resources/maskTrios/BT4B.jpg","null","",NA,NA,NA,NA,""
"image-keyboard-response",352,310059,"0.0-3.113-2.113","5f3whv9kmv4kfjl",875,"176.csv","","null","resources/images/fishbone.png","null","",NA,NA,NA,NA,""
"image-keyboard-response",353,310344,"0.0-3.114-0.114","5f3whv9kmv4kfjl",875,"176.csv","","283.7000000178814","resources/trios/L1T1A1.jpg","39","restless",0.7,0.5,0.6,0.794393352138837,"false"
"image-keyboard-response",354,310747,"0.0-3.114-1.114","5f3whv9kmv4kfjl",875,"176.csv","","null","resources/maskTrios/BBA1.jpg","null","",NA,NA,NA,NA,""
"image-keyboard-response",355,311952,"0.0-3.114-2.114","5f3whv9kmv4kfjl",875,"176.csv","","null","resources/images/fishbone.png","null","",NA,NA,NA,NA,""
"image-keyboard-response",356,312065,"0.0-3.115-0.115","5f3whv9kmv4kfjl",875,"176.csv","","112.09999999403954","resources/trios/L2T1A1.jpg","38","restless",0.7,0.4,0.5,0.561851822867722,"false"
"image-keyboard-response",357,312470,"0.0-3.115-1.115","5f3whv9kmv4kfjl",875,"176.csv","","null","resources/maskTrios/BT1B.jpg","null","",NA,NA,NA,NA,""
"image-keyboard-response",358,313676,"0.0-3.115-2.115","5f3whv9kmv4kfjl",875,"176.csv","","null","resources/images/fishbone.png","null","",NA,NA,NA,NA,""
"image-keyboard-response",359,313933,"0.0-3.116-0.116","5f3whv9kmv4kfjl",875,"176.csv","","255.30000001192093","resources/trios/L2T1A1.jpg","37","restless",0.6,0.4,0.5,0.644928483110743,"false"
"image-keyboard-response",360,314338,"0.0-3.116-1.116","5f3whv9kmv4kfjl",875,"176.csv","","null","resources/maskTrios/L2BB.jpg","null","",NA,NA,NA,NA,""
"image-keyboard-response",361,315542,"0.0-3.116-2.116","5f3whv9kmv4kfjl",875,"176.csv","","null","resources/images/fishbone.png","null","",NA,NA,NA,NA,""
"image-keyboard-response",362,315579,"0.0-3.117-0.117","5f3whv9kmv4kfjl",875,"176.csv","","35.400000005960464","resources/trios/L1T1A1.jpg","39","restless",0.6,0.4,0.5,0.986739894128047,"false"
"image-keyboard-response",363,315985,"0.0-3.117-1.117","5f3whv9kmv4kfjl",875,"176.csv","","null","resources/maskTrios/BBA1.jpg","null","",NA,NA,NA,NA,""
"image-keyboard-response",364,317190,"0.0-3.117-2.117","5f3whv9kmv4kfjl",875,"176.csv","","null","resources/images/fishbone.png","null","",NA,NA,NA,NA,""
"image-keyboard-response",365,317480,"0.0-3.118-0.118","5f3whv9kmv4kfjl",875,"176.csv","","288.69999998807907","resources/trios/L1T1A2.jpg","38","restless",0.6,0.5,0.5,0.506907012823076,"false"
"image-keyboard-response",366,317884,"0.0-3.118-1.118","5f3whv9kmv4kfjl",875,"176.csv","","null","resources/maskTrios/BT1B.jpg","null","",NA,NA,NA,NA,""
"image-keyboard-response",367,319088,"0.0-3.118-2.118","5f3whv9kmv4kfjl",875,"176.csv","","null","resources/images/fishbone.png","null","",NA,NA,NA,NA,""
"image-keyboard-response",368,320628,"0.0-3.119-0.119","5f3whv9kmv4kfjl",875,"176.csv","","1538.1000000238419","resources/trios/L2T4A2.jpg","39","restless",0.6,0.5,0.5,0.378864453163449,"true"
"image-keyboard-response",369,321034,"0.0-3.119-1.119","5f3whv9kmv4kfjl",875,"176.csv","","null","resources/maskTrios/BBA2.jpg","null","",NA,NA,NA,NA,""
"image-keyboard-response",370,322237,"0.0-3.119-2.119","5f3whv9kmv4kfjl",875,"176.csv","","null","resources/images/coin2.png","null","",NA,NA,NA,NA,""
"image-keyboard-response",371,322597,"0.0-3.120-0.120","5f3whv9kmv4kfjl",875,"176.csv","","358.19999998807907","resources/trios/L2T4A1.jpg","39","restless",0.6,0.5,0.5,0.72856229495513,"false"
"image-keyboard-response",372,323003,"0.0-3.120-1.120","5f3whv9kmv4kfjl",875,"176.csv","","null","resources/maskTrios/BBA1.jpg","null","",NA,NA,NA,NA,""
"image-keyboard-response",373,324205,"0.0-3.120-2.120","5f3whv9kmv4kfjl",875,"176.csv","","null","resources/images/fishbone.png","null","",NA,NA,NA,NA,""
"image-keyboard-response",374,324496,"0.0-3.121-0.121","5f3whv9kmv4kfjl",875,"176.csv","","289.89999997615814","resources/trios/L2T4A2.jpg","38","restless",0.6,0.5,0.5,0.543833819234749,"false"
"image-keyboard-response",375,324898,"0.0-3.121-1.121","5f3whv9kmv4kfjl",875,"176.csv","","null","resources/maskTrios/BT4B.jpg","null","",NA,NA,NA,NA,""
"image-keyboard-response",376,326104,"0.0-3.121-2.121","5f3whv9kmv4kfjl",875,"176.csv","","null","resources/images/fishbone.png","null","",NA,NA,NA,NA,""
"image-keyboard-response",377,326488,"0.0-3.122-0.122","5f3whv9kmv4kfjl",875,"176.csv","","381.90000000596046","resources/trios/L1T4A1.jpg","39","restless",0.6,0.5,0.5,0.793783475962877,"false"
"image-keyboard-response",378,326894,"0.0-3.122-1.122","5f3whv9kmv4kfjl",875,"176.csv","","null","resources/maskTrios/BBA1.jpg","null","",NA,NA,NA,NA,""
"image-keyboard-response",379,328100,"0.0-3.122-2.122","5f3whv9kmv4kfjl",875,"176.csv","","null","resources/images/fishbone.png","null","",NA,NA,NA,NA,""
"image-keyboard-response",380,328767,"0.0-3.123-0.123","5f3whv9kmv4kfjl",875,"176.csv","","665","resources/trios/L1T4A1.jpg","39","restless",0.6,0.5,0.5,0.519800475601512,"false"
"image-keyboard-response",381,329172,"0.0-3.123-1.123","5f3whv9kmv4kfjl",875,"176.csv","","null","resources/maskTrios/BBA1.jpg","null","",NA,NA,NA,NA,""
"image-keyboard-response",382,330376,"0.0-3.123-2.123","5f3whv9kmv4kfjl",875,"176.csv","","null","resources/images/fishbone.png","null","",NA,NA,NA,NA,""
"image-keyboard-response",383,330556,"0.0-3.124-0.124","5f3whv9kmv4kfjl",875,"176.csv","","178.7999999821186","resources/trios/L1T1A2.jpg","39","restless",0.6,0.5,0.5,0.555427582913861,"false"
"image-keyboard-response",384,330958,"0.0-3.124-1.124","5f3whv9kmv4kfjl",875,"176.csv","","null","resources/maskTrios/BBA2.jpg","null","",NA,NA,NA,NA,""
"image-keyboard-response",385,332161,"0.0-3.124-2.124","5f3whv9kmv4kfjl",875,"176.csv","","null","resources/images/fishbone.png","null","",NA,NA,NA,NA,""
"image-keyboard-response",386,332456,"0.0-3.125-0.125","5f3whv9kmv4kfjl",875,"176.csv","","293.60000002384186","resources/trios/L2T1A2.jpg","38","restless",0.6,0.5,0.5,0.0348644617906368,"true"
"image-keyboard-response",387,332858,"0.0-3.125-1.125","5f3whv9kmv4kfjl",875,"176.csv","","null","resources/maskTrios/BT1B.jpg","null","",NA,NA,NA,NA,""
"image-keyboard-response",388,334062,"0.0-3.125-2.125","5f3whv9kmv4kfjl",875,"176.csv","","null","resources/images/coin2.png","null","",NA,NA,NA,NA,""
"image-keyboard-response",389,334265,"0.0-3.126-0.126","5f3whv9kmv4kfjl",875,"176.csv","","201.5","resources/trios/L1T4A2.jpg","38","restless",0.7,0.5,0.4,0.497729351320571,"true"
"image-keyboard-response",390,334672,"0.0-3.126-1.126","5f3whv9kmv4kfjl",875,"176.csv","","null","resources/maskTrios/BT4B.jpg","null","",NA,NA,NA,NA,""
"image-keyboard-response",391,335875,"0.0-3.126-2.126","5f3whv9kmv4kfjl",875,"176.csv","","null","resources/images/coin2.png","null","",NA,NA,NA,NA,""
"image-keyboard-response",392,336172,"0.0-3.127-0.127","5f3whv9kmv4kfjl",875,"176.csv","","296.09999999403954","resources/trios/L2T1A1.jpg","38","restless",0.8,0.5,0.4,0.426146018790412,"true"
"image-keyboard-response",393,336574,"0.0-3.127-1.127","5f3whv9kmv4kfjl",875,"176.csv","","null","resources/maskTrios/BT1B.jpg","null","",NA,NA,NA,NA,""
"image-keyboard-response",394,337776,"0.0-3.127-2.127","5f3whv9kmv4kfjl",875,"176.csv","","null","resources/images/coin2.png","null","",NA,NA,NA,NA,""
"image-keyboard-response",395,338093,"0.0-3.128-0.128","5f3whv9kmv4kfjl",875,"176.csv","","316","resources/trios/L1T1A2.jpg","38","restless",0.8,0.5,0.4,0.542397823749943,"false"
"image-keyboard-response",396,338499,"0.0-3.128-1.128","5f3whv9kmv4kfjl",875,"176.csv","","null","resources/maskTrios/BT1B.jpg","null","",NA,NA,NA,NA,""
"image-keyboard-response",397,339705,"0.0-3.128-2.128","5f3whv9kmv4kfjl",875,"176.csv","","null","resources/images/fishbone.png","null","",NA,NA,NA,NA,""
"image-keyboard-response",398,339787,"0.0-3.129-0.129","5f3whv9kmv4kfjl",875,"176.csv","","80.09999999403954","resources/trios/L2T4A2.jpg","39","restless",0.8,0.5,0.4,0.470968776556479,"false"
"image-keyboard-response",399,340191,"0.0-3.129-1.129","5f3whv9kmv4kfjl",875,"176.csv","","null","resources/maskTrios/BBA2.jpg","null","",NA,NA,NA,NA,""
"image-keyboard-response",400,341396,"0.0-3.129-2.129","5f3whv9kmv4kfjl",875,"176.csv","","null","resources/images/fishbone.png","null","",NA,NA,NA,NA,""
"image-keyboard-response",401,341478,"0.0-3.130-0.130","5f3whv9kmv4kfjl",875,"176.csv","","81.09999999403954","resources/trios/L1T1A1.jpg","39","restless",0.8,0.5,0.3,0.00615978390157079,"true"
"image-keyboard-response",402,341882,"0.0-3.130-1.130","5f3whv9kmv4kfjl",875,"176.csv","","null","resources/maskTrios/BBA1.jpg","null","",NA,NA,NA,NA,""
"image-keyboard-response",403,343084,"0.0-3.130-2.130","5f3whv9kmv4kfjl",875,"176.csv","","null","resources/images/coin2.png","null","",NA,NA,NA,NA,""
"image-keyboard-response",404,343324,"0.0-3.131-0.131","5f3whv9kmv4kfjl",875,"176.csv","","238.59999999403954","resources/trios/L2T1A1.jpg","39","restless",0.8,0.4,0.3,0.297728268299192,"true"
"image-keyboard-response",405,343729,"0.0-3.131-1.131","5f3whv9kmv4kfjl",875,"176.csv","","null","resources/maskTrios/BBA1.jpg","null","",NA,NA,NA,NA,""
"image-keyboard-response",406,344933,"0.0-3.131-2.131","5f3whv9kmv4kfjl",875,"176.csv","","null","resources/images/coin2.png","null","",NA,NA,NA,NA,""
"image-keyboard-response",407,345423,"0.0-3.132-0.132","5f3whv9kmv4kfjl",875,"176.csv","","488.19999998807907","resources/trios/L2T1A2.jpg","39","restless",0.8,0.4,0.3,0.822689216503091,"false"
"image-keyboard-response",408,345829,"0.0-3.132-1.132","5f3whv9kmv4kfjl",875,"176.csv","","null","resources/maskTrios/BBA2.jpg","null","",NA,NA,NA,NA,""
"image-keyboard-response",409,347036,"0.0-3.132-2.132","5f3whv9kmv4kfjl",875,"176.csv","","null","resources/images/fishbone.png","null","",NA,NA,NA,NA,""
"image-keyboard-response",410,349158,"0.0-3.133-0.133","5f3whv9kmv4kfjl",875,"176.csv","","2121.2000000178814","resources/trios/L1T4A2.jpg","37","restless",0.8,0.4,0.3,0.904415744387579,"false"
"image-keyboard-response",411,349565,"0.0-3.133-1.133","5f3whv9kmv4kfjl",875,"176.csv","","null","resources/maskTrios/L1BB.jpg","null","",NA,NA,NA,NA,""
"image-keyboard-response",412,350769,"0.0-3.133-2.133","5f3whv9kmv4kfjl",875,"176.csv","","null","resources/images/fishbone.png","null","",NA,NA,NA,NA,""
"image-keyboard-response",413,350799,"0.0-3.134-0.134","5f3whv9kmv4kfjl",875,"176.csv","","28.400000005960464","resources/trios/L2T4A1.jpg","38","restless",0.8,0.4,0.3,0.488805559727463,"false"
"image-keyboard-response",414,351205,"0.0-3.134-1.134","5f3whv9kmv4kfjl",875,"176.csv","","null","resources/maskTrios/BT4B.jpg","null","",NA,NA,NA,NA,""
"image-keyboard-response",415,352410,"0.0-3.134-2.134","5f3whv9kmv4kfjl",875,"176.csv","","null","resources/images/fishbone.png","null","",NA,NA,NA,NA,""
"image-keyboard-response",416,399820,"0.0-3.135-0.135","5f3whv9kmv4kfjl",875,"176.csv","","47407.90000000596","resources/trios/L2T1A2.jpg","39","restless",0.8,0.4,0.3,0.00262947497358867,"true"
"image-keyboard-response",417,400223,"0.0-3.135-1.135","5f3whv9kmv4kfjl",875,"176.csv","","null","resources/maskTrios/BBA2.jpg","null","",NA,NA,NA,NA,""
"image-keyboard-response",418,401430,"0.0-3.135-2.135","5f3whv9kmv4kfjl",875,"176.csv","","null","resources/images/coin2.png","null","",NA,NA,NA,NA,""
"image-keyboard-response",419,401870,"0.0-3.136-0.136","5f3whv9kmv4kfjl",875,"176.csv","","439.09999999403954","resources/trios/L2T4A1.jpg","39","restless",0.8,0.4,0.3,0.797879743376239,"false"
"image-keyboard-response",420,402273,"0.0-3.136-1.136","5f3whv9kmv4kfjl",875,"176.csv","","null","resources/maskTrios/BBA1.jpg","null","",NA,NA,NA,NA,""
"image-keyboard-response",421,403479,"0.0-3.136-2.136","5f3whv9kmv4kfjl",875,"176.csv","","null","resources/images/fishbone.png","null","",NA,NA,NA,NA,""
"image-keyboard-response",422,403872,"0.0-3.137-0.137","5f3whv9kmv4kfjl",875,"176.csv","","391.80000001192093","resources/trios/L2T4A1.jpg","38","restless",0.8,0.4,0.4,0.111993957589942,"true"
"image-keyboard-response",423,404278,"0.0-3.137-1.137","5f3whv9kmv4kfjl",875,"176.csv","","null","resources/maskTrios/BT4B.jpg","null","",NA,NA,NA,NA,""
"image-keyboard-response",424,405484,"0.0-3.137-2.137","5f3whv9kmv4kfjl",875,"176.csv","","null","resources/images/coin2.png","null","",NA,NA,NA,NA,""
"image-keyboard-response",425,405993,"0.0-3.138-0.138","5f3whv9kmv4kfjl",875,"176.csv","","506.69999998807907","resources/trios/L1T1A2.jpg","38","restless",0.8,0.4,0.4,0.411677980147805,"false"
"image-keyboard-response",426,406394,"0.0-3.138-1.138","5f3whv9kmv4kfjl",875,"176.csv","","null","resources/maskTrios/BT1B.jpg","null","",NA,NA,NA,NA,""
"image-keyboard-response",427,407598,"0.0-3.138-2.138","5f3whv9kmv4kfjl",875,"176.csv","","null","resources/images/fishbone.png","null","",NA,NA,NA,NA,""
"image-keyboard-response",428,408324,"0.0-3.139-0.139","5f3whv9kmv4kfjl",875,"176.csv","","724.0999999940395","resources/trios/L2T1A1.jpg","38","restless",0.8,0.4,0.4,0.353423811416638,"true"
"image-keyboard-response",429,408729,"0.0-3.139-1.139","5f3whv9kmv4kfjl",875,"176.csv","","null","resources/maskTrios/BT1B.jpg","null","",NA,NA,NA,NA,""
"image-keyboard-response",430,409936,"0.0-3.139-2.139","5f3whv9kmv4kfjl",875,"176.csv","","null","resources/images/coin2.png","null","",NA,NA,NA,NA,""
"image-keyboard-response",431,410433,"0.0-3.140-0.140","5f3whv9kmv4kfjl",875,"176.csv","","495.7000000178814","resources/trios/L2T4A2.jpg","38","restless",0.9,0.4,0.4,0.212575315607779,"true"
"image-keyboard-response",432,410838,"0.0-3.140-1.140","5f3whv9kmv4kfjl",875,"176.csv","","null","resources/maskTrios/BT4B.jpg","null","",NA,NA,NA,NA,""
"image-keyboard-response",433,412044,"0.0-3.140-2.140","5f3whv9kmv4kfjl",875,"176.csv","","null","resources/images/coin2.png","null","",NA,NA,NA,NA,""
"image-keyboard-response",434,412116,"0.0-3.141-0.141","5f3whv9kmv4kfjl",875,"176.csv","","70.09999999403954","resources/trios/L2T1A1.jpg","39","restless",0.9,0.4,0.4,0.234933480956832,"true"
"image-keyboard-response",435,412520,"0.0-3.141-1.141","5f3whv9kmv4kfjl",875,"176.csv","","null","resources/maskTrios/BBA1.jpg","null","",NA,NA,NA,NA,""
"image-keyboard-response",436,413726,"0.0-3.141-2.141","5f3whv9kmv4kfjl",875,"176.csv","","null","resources/images/coin2.png","null","",NA,NA,NA,NA,""
"image-keyboard-response",437,413920,"0.0-3.142-0.142","5f3whv9kmv4kfjl",875,"176.csv","","192.69999998807907","resources/trios/L2T1A1.jpg","39","restless",0.9,0.4,0.4,0.460736721032013,"false"
"image-keyboard-response",438,414326,"0.0-3.142-1.142","5f3whv9kmv4kfjl",875,"176.csv","","null","resources/maskTrios/BBA1.jpg","null","",NA,NA,NA,NA,""
"image-keyboard-response",439,415528,"0.0-3.142-2.142","5f3whv9kmv4kfjl",875,"176.csv","","null","resources/images/fishbone.png","null","",NA,NA,NA,NA,""
"image-keyboard-response",440,415849,"0.0-3.143-0.143","5f3whv9kmv4kfjl",875,"176.csv","","319.2000000178814","resources/trios/L1T1A2.jpg","38","restless",0.9,0.4,0.4,0.936736078602828,"false"
"image-keyboard-response",441,416253,"0.0-3.143-1.143","5f3whv9kmv4kfjl",875,"176.csv","","null","resources/maskTrios/BT1B.jpg","null","",NA,NA,NA,NA,""
"image-keyboard-response",442,417460,"0.0-3.143-2.143","5f3whv9kmv4kfjl",875,"176.csv","","null","resources/images/fishbone.png","null","",NA,NA,NA,NA,""
"image-keyboard-response",443,417749,"0.0-3.144-0.144","5f3whv9kmv4kfjl",875,"176.csv","","287.39999997615814","resources/trios/L1T1A2.jpg","39","restless",0.9,0.4,0.4,0.888247772719999,"false"
"image-keyboard-response",444,418151,"0.0-3.144-1.144","5f3whv9kmv4kfjl",875,"176.csv","","null","resources/maskTrios/BBA2.jpg","null","",NA,NA,NA,NA,""
"image-keyboard-response",445,419353,"0.0-3.144-2.144","5f3whv9kmv4kfjl",875,"176.csv","","null","resources/images/fishbone.png","null","",NA,NA,NA,NA,""
"image-keyboard-response",446,419612,"0.0-3.145-0.145","5f3whv9kmv4kfjl",875,"176.csv","","257.10000002384186","resources/trios/L2T4A2.jpg","39","restless",0.9,0.4,0.4,0.316004890469469,"true"
"image-keyboard-response",447,420016,"0.0-3.145-1.145","5f3whv9kmv4kfjl",875,"176.csv","","null","resources/maskTrios/BBA2.jpg","null","",NA,NA,NA,NA,""
"image-keyboard-response",448,421220,"0.0-3.145-2.145","5f3whv9kmv4kfjl",875,"176.csv","","null","resources/images/coin2.png","null","",NA,NA,NA,NA,""
"image-keyboard-response",449,421605,"0.0-3.146-0.146","5f3whv9kmv4kfjl",875,"176.csv","","383.5","resources/trios/L1T1A1.jpg","38","restless",0.8,0.4,0.4,0.863169418117634,"false"
"image-keyboard-response",450,422009,"0.0-3.146-1.146","5f3whv9kmv4kfjl",875,"176.csv","","null","resources/maskTrios/BT1B.jpg","null","",NA,NA,NA,NA,""
"image-keyboard-response",451,423214,"0.0-3.146-2.146","5f3whv9kmv4kfjl",875,"176.csv","","null","resources/images/fishbone.png","null","",NA,NA,NA,NA,""
"image-keyboard-response",452,423483,"0.0-3.147-0.147","5f3whv9kmv4kfjl",875,"176.csv","","266.7999999821186","resources/trios/L2T1A1.jpg","39","restless",0.8,0.4,0.4,0.958179806537894,"false"
"image-keyboard-response",453,423886,"0.0-3.147-1.147","5f3whv9kmv4kfjl",875,"176.csv","","null","resources/maskTrios/BBA1.jpg","null","",NA,NA,NA,NA,""
"image-keyboard-response",454,425090,"0.0-3.147-2.147","5f3whv9kmv4kfjl",875,"176.csv","","null","resources/images/fishbone.png","null","",NA,NA,NA,NA,""
"image-keyboard-response",455,425220,"0.0-3.148-0.148","5f3whv9kmv4kfjl",875,"176.csv","","127.5","resources/trios/L1T1A2.jpg","39","restless",0.8,0.4,0.4,0.255569389950675,"true"
"image-keyboard-response",456,425625,"0.0-3.148-1.148","5f3whv9kmv4kfjl",875,"176.csv","","null","resources/maskTrios/BBA2.jpg","null","",NA,NA,NA,NA,""
"image-keyboard-response",457,426831,"0.0-3.148-2.148","5f3whv9kmv4kfjl",875,"176.csv","","null","resources/images/coin2.png","null","",NA,NA,NA,NA,""
"image-keyboard-response",458,427300,"0.0-3.149-0.149","5f3whv9kmv4kfjl",875,"176.csv","","466.5","resources/trios/L1T1A2.jpg","39","restless",0.8,0.4,0.4,0.428126024796943,"false"
"image-keyboard-response",459,427705,"0.0-3.149-1.149","5f3whv9kmv4kfjl",875,"176.csv","","null","resources/maskTrios/BBA2.jpg","null","",NA,NA,NA,NA,""
"image-keyboard-response",460,428909,"0.0-3.149-2.149","5f3whv9kmv4kfjl",875,"176.csv","","null","resources/images/fishbone.png","null","",NA,NA,NA,NA,""
"image-keyboard-response",461,429101,"0.0-3.150-0.150","5f3whv9kmv4kfjl",875,"176.csv","","189.7999999821186","resources/trios/L1T1A2.jpg","38","restless",0.8,0.4,0.4,0.609577137683422,"false"
"image-keyboard-response",462,429504,"0.0-3.150-1.150","5f3whv9kmv4kfjl",875,"176.csv","","null","resources/maskTrios/BT1B.jpg","null","",NA,NA,NA,NA,""
"image-keyboard-response",463,430711,"0.0-3.150-2.150","5f3whv9kmv4kfjl",875,"176.csv","","null","resources/images/fishbone.png","null","",NA,NA,NA,NA,""
"image-keyboard-response",464,431034,"0.0-3.151-0.151","5f3whv9kmv4kfjl",875,"176.csv","","322.19999998807907","resources/trios/L2T4A2.jpg","38","restless",0.8,0.4,0.4,0.308447395086096,"true"
"image-keyboard-response",465,431437,"0.0-3.151-1.151","5f3whv9kmv4kfjl",875,"176.csv","","null","resources/maskTrios/BT4B.jpg","null","",NA,NA,NA,NA,""
"image-keyboard-response",466,432640,"0.0-3.151-2.151","5f3whv9kmv4kfjl",875,"176.csv","","null","resources/images/coin2.png","null","",NA,NA,NA,NA,""
"image-keyboard-response",467,432948,"0.0-3.152-0.152","5f3whv9kmv4kfjl",875,"176.csv","","305.89999997615814","resources/trios/L2T4A1.jpg","39","restless",0.8,0.4,0.4,0.0584729797326489,"true"
"image-keyboard-response",468,433354,"0.0-3.152-1.152","5f3whv9kmv4kfjl",875,"176.csv","","null","resources/maskTrios/BBA1.jpg","null","",NA,NA,NA,NA,""
"image-keyboard-response",469,434561,"0.0-3.152-2.152","5f3whv9kmv4kfjl",875,"176.csv","","null","resources/images/coin2.png","null","",NA,NA,NA,NA,""
"image-keyboard-response",470,434835,"0.0-3.153-0.153","5f3whv9kmv4kfjl",875,"176.csv","","272.80000001192093","resources/trios/L2T1A1.jpg","38","restless",0.8,0.4,0.4,0.403354230448647,"false"
"image-keyboard-response",471,435238,"0.0-3.153-1.153","5f3whv9kmv4kfjl",875,"176.csv","","null","resources/maskTrios/BT1B.jpg","null","",NA,NA,NA,NA,""
"image-keyboard-response",472,436441,"0.0-3.153-2.153","5f3whv9kmv4kfjl",875,"176.csv","","null","resources/images/fishbone.png","null","",NA,NA,NA,NA,""
"image-keyboard-response",473,436701,"0.0-3.154-0.154","5f3whv9kmv4kfjl",875,"176.csv","","259.2000000178814","resources/trios/L1T1A2.jpg","38","restless",0.9,0.4,0.4,0.723180598403629,"false"
"image-keyboard-response",474,437108,"0.0-3.154-1.154","5f3whv9kmv4kfjl",875,"176.csv","","null","resources/maskTrios/BT1B.jpg","null","",NA,NA,NA,NA,""
"image-keyboard-response",475,438314,"0.0-3.154-2.154","5f3whv9kmv4kfjl",875,"176.csv","","null","resources/images/fishbone.png","null","",NA,NA,NA,NA,""
"image-keyboard-response",476,438604,"0.0-3.155-0.155","5f3whv9kmv4kfjl",875,"176.csv","","288.09999999403954","resources/trios/L2T4A1.jpg","38","restless",0.8,0.4,0.4,0.701398927646756,"false"
"image-keyboard-response",477,439011,"0.0-3.155-1.155","5f3whv9kmv4kfjl",875,"176.csv","","null","resources/maskTrios/BT4B.jpg","null","",NA,NA,NA,NA,""
"image-keyboard-response",478,440215,"0.0-3.155-2.155","5f3whv9kmv4kfjl",875,"176.csv","","null","resources/images/fishbone.png","null","",NA,NA,NA,NA,""
"image-keyboard-response",479,440526,"0.0-3.156-0.156","5f3whv9kmv4kfjl",875,"176.csv","","309.40000000596046","resources/trios/L2T4A1.jpg","38","restless",0.8,0.4,0.4,0.565242954255808,"false"
"image-keyboard-response",480,440931,"0.0-3.156-1.156","5f3whv9kmv4kfjl",875,"176.csv","","null","resources/maskTrios/BT4B.jpg","null","",NA,NA,NA,NA,""
"image-keyboard-response",481,442137,"0.0-3.156-2.156","5f3whv9kmv4kfjl",875,"176.csv","","null","resources/images/fishbone.png","null","",NA,NA,NA,NA,""
"image-keyboard-response",482,442306,"0.0-3.157-0.157","5f3whv9kmv4kfjl",875,"176.csv","","167.7999999821186","resources/trios/L1T4A2.jpg","39","restless",0.8,0.4,0.4,0.333877304110088,"true"
"image-keyboard-response",483,442713,"0.0-3.157-1.157","5f3whv9kmv4kfjl",875,"176.csv","","null","resources/maskTrios/BBA2.jpg","null","",NA,NA,NA,NA,""
"image-keyboard-response",484,443914,"0.0-3.157-2.157","5f3whv9kmv4kfjl",875,"176.csv","","null","resources/images/coin2.png","null","",NA,NA,NA,NA,""
"image-keyboard-response",485,444192,"0.0-3.158-0.158","5f3whv9kmv4kfjl",875,"176.csv","","276.5","resources/trios/L2T1A2.jpg","39","restless",0.7,0.4,0.4,0.724041012399661,"false"
"image-keyboard-response",486,444595,"0.0-3.158-1.158","5f3whv9kmv4kfjl",875,"176.csv","","null","resources/maskTrios/BBA2.jpg","null","",NA,NA,NA,NA,""
"image-keyboard-response",487,445800,"0.0-3.158-2.158","5f3whv9kmv4kfjl",875,"176.csv","","null","resources/images/fishbone.png","null","",NA,NA,NA,NA,""
"image-keyboard-response",488,446194,"0.0-3.159-0.159","5f3whv9kmv4kfjl",875,"176.csv","","391.7000000178814","resources/trios/L1T1A2.jpg","37","restless",0.7,0.4,0.4,0.123903384062726,"true"
"image-keyboard-response",489,446599,"0.0-3.159-1.159","5f3whv9kmv4kfjl",875,"176.csv","","null","resources/maskTrios/L1BB.jpg","null","",NA,NA,NA,NA,""
"image-keyboard-response",490,447800,"0.0-3.159-2.159","5f3whv9kmv4kfjl",875,"176.csv","","null","resources/images/coin2.png","null","",NA,NA,NA,NA,""
"image-keyboard-response",491,448252,"0.0-3.160-0.160","5f3whv9kmv4kfjl",875,"176.csv","","449.89999997615814","resources/trios/L2T1A1.jpg","37","restless",0.8,0.4,0.4,0.955731639932058,"false"
"image-keyboard-response",492,448655,"0.0-3.160-1.160","5f3whv9kmv4kfjl",875,"176.csv","","null","resources/maskTrios/L2BB.jpg","null","",NA,NA,NA,NA,""
"image-keyboard-response",493,449859,"0.0-3.160-2.160","5f3whv9kmv4kfjl",875,"176.csv","","null","resources/images/fishbone.png","null","",NA,NA,NA,NA,""
"image-keyboard-response",494,450485,"0.0-3.161-0.161","5f3whv9kmv4kfjl",875,"176.csv","","624.8000000119209","resources/trios/L2T1A1.jpg","37","restless",0.8,0.4,0.4,0.278518231024887,"true"
"image-keyboard-response",495,450889,"0.0-3.161-1.161","5f3whv9kmv4kfjl",875,"176.csv","","null","resources/maskTrios/L2BB.jpg","null","",NA,NA,NA,NA,""
"image-keyboard-response",496,452095,"0.0-3.161-2.161","5f3whv9kmv4kfjl",875,"176.csv","","null","resources/images/coin2.png","null","",NA,NA,NA,NA,""
"image-keyboard-response",497,452306,"0.0-3.162-0.162","5f3whv9kmv4kfjl",875,"176.csv","","209","resources/trios/L1T1A2.jpg","38","restless",0.9,0.4,0.4,0.699509708567277,"false"
"image-keyboard-response",498,452707,"0.0-3.162-1.162","5f3whv9kmv4kfjl",875,"176.csv","","null","resources/maskTrios/BT1B.jpg","null","",NA,NA,NA,NA,""
"image-keyboard-response",499,453909,"0.0-3.162-2.162","5f3whv9kmv4kfjl",875,"176.csv","","null","resources/images/fishbone.png","null","",NA,NA,NA,NA,""
"image-keyboard-response",500,453991,"0.0-3.163-0.163","5f3whv9kmv4kfjl",875,"176.csv","","80.80000001192093","resources/trios/L2T4A2.jpg","37","restless",0.9,0.5,0.3,0.458800237086002,"true"
"image-keyboard-response",501,454397,"0.0-3.163-1.163","5f3whv9kmv4kfjl",875,"176.csv","","null","resources/maskTrios/L2BB.jpg","null","",NA,NA,NA,NA,""
"image-keyboard-response",502,455599,"0.0-3.163-2.163","5f3whv9kmv4kfjl",875,"176.csv","","null","resources/images/coin2.png","null","",NA,NA,NA,NA,""
"image-keyboard-response",503,455837,"0.0-3.164-0.164","5f3whv9kmv4kfjl",875,"176.csv","","236.59999999403954","resources/trios/L1T1A1.jpg","37","restless",0.9,0.5,0.3,0.388015438361197,"true"
"image-keyboard-response",504,456240,"0.0-3.164-1.164","5f3whv9kmv4kfjl",875,"176.csv","","null","resources/maskTrios/L1BB.jpg","null","",NA,NA,NA,NA,""
"image-keyboard-response",505,457443,"0.0-3.164-2.164","5f3whv9kmv4kfjl",875,"176.csv","","null","resources/images/coin2.png","null","",NA,NA,NA,NA,""
"image-keyboard-response",506,457741,"0.0-3.165-0.165","5f3whv9kmv4kfjl",875,"176.csv","","296.59999999403954","resources/trios/L2T4A1.jpg","37","restless",0.9,0.5,0.3,0.65630977968829,"true"
"image-keyboard-response",507,458147,"0.0-3.165-1.165","5f3whv9kmv4kfjl",875,"176.csv","","null","resources/maskTrios/L2BB.jpg","null","",NA,NA,NA,NA,""
"image-keyboard-response",508,459352,"0.0-3.165-2.165","5f3whv9kmv4kfjl",875,"176.csv","","null","resources/images/coin2.png","null","",NA,NA,NA,NA,""
"image-keyboard-response",509,459740,"0.0-3.166-0.166","5f3whv9kmv4kfjl",875,"176.csv","","386.90000000596046","resources/trios/L2T1A1.jpg","37","restless",0.8,0.5,0.3,0.919326629097386,"false"
"image-keyboard-response",510,460147,"0.0-3.166-1.166","5f3whv9kmv4kfjl",875,"176.csv","","null","resources/maskTrios/L2BB.jpg","null","",NA,NA,NA,NA,""
"image-keyboard-response",511,461350,"0.0-3.166-2.166","5f3whv9kmv4kfjl",875,"176.csv","","null","resources/images/fishbone.png","null","",NA,NA,NA,NA,""
"image-keyboard-response",512,462039,"0.0-3.167-0.167","5f3whv9kmv4kfjl",875,"176.csv","","687.0999999940395","resources/trios/L1T1A1.jpg","37","restless",0.8,0.5,0.3,0.512196669628781,"true"
"image-keyboard-response",513,462446,"0.0-3.167-1.167","5f3whv9kmv4kfjl",875,"176.csv","","null","resources/maskTrios/L1BB.jpg","null","",NA,NA,NA,NA,""
"image-keyboard-response",514,463652,"0.0-3.167-2.167","5f3whv9kmv4kfjl",875,"176.csv","","null","resources/images/coin2.png","null","",NA,NA,NA,NA,""
"image-keyboard-response",515,463997,"0.0-3.168-0.168","5f3whv9kmv4kfjl",875,"176.csv","","344","resources/trios/L2T4A1.jpg","37","restless",0.7,0.5,0.2,0.228814970206221,"true"
"image-keyboard-response",516,464404,"0.0-3.168-1.168","5f3whv9kmv4kfjl",875,"176.csv","","null","resources/maskTrios/L2BB.jpg","null","",NA,NA,NA,NA,""
"image-keyboard-response",517,465610,"0.0-3.168-2.168","5f3whv9kmv4kfjl",875,"176.csv","","null","resources/images/coin2.png","null","",NA,NA,NA,NA,""
"image-keyboard-response",518,465962,"0.0-3.169-0.169","5f3whv9kmv4kfjl",875,"176.csv","","350","resources/trios/L2T4A2.jpg","37","restless",0.7,0.5,0.3,0.567312985087608,"true"
"image-keyboard-response",519,466368,"0.0-3.169-1.169","5f3whv9kmv4kfjl",875,"176.csv","","null","resources/maskTrios/L2BB.jpg","null","",NA,NA,NA,NA,""
"image-keyboard-response",520,467572,"0.0-3.169-2.169","5f3whv9kmv4kfjl",875,"176.csv","","null","resources/images/coin2.png","null","",NA,NA,NA,NA,""
"image-keyboard-response",521,468026,"0.0-3.170-0.170","5f3whv9kmv4kfjl",875,"176.csv","","452.30000001192093","resources/trios/L1T1A2.jpg","38","restless",0.7,0.5,0.3,0.273957084405903,"true"
"image-keyboard-response",522,468432,"0.0-3.170-1.170","5f3whv9kmv4kfjl",875,"176.csv","","null","resources/maskTrios/BT1B.jpg","null","",NA,NA,NA,NA,""
"image-keyboard-response",523,469635,"0.0-3.170-2.170","5f3whv9kmv4kfjl",875,"176.csv","","null","resources/images/coin2.png","null","",NA,NA,NA,NA,""
"image-keyboard-response",524,504527,"0.0-3.171-0.171","5f3whv9kmv4kfjl",875,"176.csv","","34890.70000001788","resources/trios/L1T4A1.jpg","38","restless",0.7,0.5,0.3,0.894562795560298,"false"
"image-keyboard-response",525,504931,"0.0-3.171-1.171","5f3whv9kmv4kfjl",875,"176.csv","","null","resources/maskTrios/BT4B.jpg","null","",NA,NA,NA,NA,""
"image-keyboard-response",526,506136,"0.0-3.171-2.171","5f3whv9kmv4kfjl",875,"176.csv","","null","resources/images/fishbone.png","null","",NA,NA,NA,NA,""
"image-keyboard-response",527,506444,"0.0-3.172-0.172","5f3whv9kmv4kfjl",875,"176.csv","","306.30000001192093","resources/trios/L2T4A2.jpg","37","restless",0.7,0.5,0.3,0.113024280191069,"true"
"image-keyboard-response",528,506847,"0.0-3.172-1.172","5f3whv9kmv4kfjl",875,"176.csv","","null","resources/maskTrios/L2BB.jpg","null","",NA,NA,NA,NA,""
"image-keyboard-response",529,508054,"0.0-3.172-2.172","5f3whv9kmv4kfjl",875,"176.csv","","null","resources/images/coin2.png","null","",NA,NA,NA,NA,""
"image-keyboard-response",530,508335,"0.0-3.173-0.173","5f3whv9kmv4kfjl",875,"176.csv","","279.80000001192093","resources/trios/L1T4A1.jpg","37","restless",0.7,0.5,0.3,0.510837283431527,"true"
"image-keyboard-response",531,508738,"0.0-3.173-1.173","5f3whv9kmv4kfjl",875,"176.csv","","null","resources/maskTrios/L1BB.jpg","null","",NA,NA,NA,NA,""
"image-keyboard-response",532,509942,"0.0-3.173-2.173","5f3whv9kmv4kfjl",875,"176.csv","","null","resources/images/coin2.png","null","",NA,NA,NA,NA,""
"image-keyboard-response",533,510332,"0.0-3.174-0.174","5f3whv9kmv4kfjl",875,"176.csv","","388.30000001192093","resources/trios/L1T1A2.jpg","37","restless",0.7,0.5,0.3,0.259347388925469,"true"
"image-keyboard-response",534,510734,"0.0-3.174-1.174","5f3whv9kmv4kfjl",875,"176.csv","","null","resources/maskTrios/L1BB.jpg","null","",NA,NA,NA,NA,""
"image-keyboard-response",535,511938,"0.0-3.174-2.174","5f3whv9kmv4kfjl",875,"176.csv","","null","resources/images/coin2.png","null","",NA,NA,NA,NA,""
"image-keyboard-response",536,512275,"0.0-3.175-0.175","5f3whv9kmv4kfjl",875,"176.csv","","334.59999999403954","resources/trios/L2T4A1.jpg","37","restless",0.7,0.6,0.3,0.34680720383519,"true"
"image-keyboard-response",537,512678,"0.0-3.175-1.175","5f3whv9kmv4kfjl",875,"176.csv","","null","resources/maskTrios/L2BB.jpg","null","",NA,NA,NA,NA,""
"image-keyboard-response",538,513885,"0.0-3.175-2.175","5f3whv9kmv4kfjl",875,"176.csv","","null","resources/images/coin2.png","null","",NA,NA,NA,NA,""
"image-keyboard-response",539,514160,"0.0-3.176-0.176","5f3whv9kmv4kfjl",875,"176.csv","","273.59999999403954","resources/trios/L1T1A1.jpg","37","restless",0.7,0.5,0.3,0.248669518163307,"true"
"image-keyboard-response",540,514562,"0.0-3.176-1.176","5f3whv9kmv4kfjl",875,"176.csv","","null","resources/maskTrios/L1BB.jpg","null","",NA,NA,NA,NA,""
"image-keyboard-response",541,515769,"0.0-3.176-2.176","5f3whv9kmv4kfjl",875,"176.csv","","null","resources/images/coin2.png","null","",NA,NA,NA,NA,""
"image-keyboard-response",542,515987,"0.0-3.177-0.177","5f3whv9kmv4kfjl",875,"176.csv","","216.40000000596046","resources/trios/L2T1A2.jpg","38","restless",0.7,0.5,0.3,0.210411288231484,"true"
"image-keyboard-response",543,516390,"0.0-3.177-1.177","5f3whv9kmv4kfjl",875,"176.csv","","null","resources/maskTrios/BT1B.jpg","null","",NA,NA,NA,NA,""
"image-keyboard-response",544,517596,"0.0-3.177-2.177","5f3whv9kmv4kfjl",875,"176.csv","","null","resources/images/coin2.png","null","",NA,NA,NA,NA,""
"image-keyboard-response",545,517710,"0.0-3.178-0.178","5f3whv9kmv4kfjl",875,"176.csv","","113","resources/trios/L2T4A1.jpg","37","restless",0.7,0.5,0.3,0.701996347764736,"false"
"image-keyboard-response",546,518112,"0.0-3.178-1.178","5f3whv9kmv4kfjl",875,"176.csv","","null","resources/maskTrios/L2BB.jpg","null","",NA,NA,NA,NA,""
"image-keyboard-response",547,519315,"0.0-3.178-2.178","5f3whv9kmv4kfjl",875,"176.csv","","null","resources/images/fishbone.png","null","",NA,NA,NA,NA,""
"image-keyboard-response",548,519317,"0.0-3.179-0.179","5f3whv9kmv4kfjl",875,"176.csv","","0.6000000238418579","resources/trios/L1T1A1.jpg","38","restless",0.7,0.5,0.3,0.395696599514636,"true"
"image-keyboard-response",549,519721,"0.0-3.179-1.179","5f3whv9kmv4kfjl",875,"176.csv","","null","resources/maskTrios/BT1B.jpg","null","",NA,NA,NA,NA,""
"image-keyboard-response",550,520925,"0.0-3.179-2.179","5f3whv9kmv4kfjl",875,"176.csv","","null","resources/images/coin2.png","null","",NA,NA,NA,NA,""
"image-keyboard-response",551,520975,"0.0-3.180-0.180","5f3whv9kmv4kfjl",875,"176.csv","","48","resources/trios/L1T1A1.jpg","38","restless",0.7,0.5,0.3,0.184224012269854,"true"
"image-keyboard-response",552,521381,"0.0-3.180-1.180","5f3whv9kmv4kfjl",875,"176.csv","","null","resources/maskTrios/BT1B.jpg","null","",NA,NA,NA,NA,""
"image-keyboard-response",553,522588,"0.0-3.180-2.180","5f3whv9kmv4kfjl",875,"176.csv","","null","resources/images/coin2.png","null","",NA,NA,NA,NA,""
"image-keyboard-response",554,522799,"0.0-3.181-0.181","5f3whv9kmv4kfjl",875,"176.csv","","209.59999999403954","resources/trios/L1T1A1.jpg","38","restless",0.7,0.5,0.3,0.887207706686251,"false"
"image-keyboard-response",555,523204,"0.0-3.181-1.181","5f3whv9kmv4kfjl",875,"176.csv","","null","resources/maskTrios/BT1B.jpg","null","",NA,NA,NA,NA,""
"image-keyboard-response",556,524407,"0.0-3.181-2.181","5f3whv9kmv4kfjl",875,"176.csv","","null","resources/images/fishbone.png","null","",NA,NA,NA,NA,""
"image-keyboard-response",557,524484,"0.0-3.182-0.182","5f3whv9kmv4kfjl",875,"176.csv","","74.69999998807907","resources/trios/L2T4A2.jpg","37","restless",0.7,0.4,0.3,0.765932642688333,"false"
"image-keyboard-response",558,524890,"0.0-3.182-1.182","5f3whv9kmv4kfjl",875,"176.csv","","null","resources/maskTrios/L2BB.jpg","null","",NA,NA,NA,NA,""
"image-keyboard-response",559,526094,"0.0-3.182-2.182","5f3whv9kmv4kfjl",875,"176.csv","","null","resources/images/fishbone.png","null","",NA,NA,NA,NA,""
"image-keyboard-response",560,526111,"0.0-3.183-0.183","5f3whv9kmv4kfjl",875,"176.csv","","14.799999982118607","resources/trios/L2T4A2.jpg","39","restless",0.6,0.4,0.3,0.181017334275123,"true"
"image-keyboard-response",561,526517,"0.0-3.183-1.183","5f3whv9kmv4kfjl",875,"176.csv","","null","resources/maskTrios/BBA2.jpg","null","",NA,NA,NA,NA,""
"image-keyboard-response",562,527724,"0.0-3.183-2.183","5f3whv9kmv4kfjl",875,"176.csv","","null","resources/images/coin2.png","null","",NA,NA,NA,NA,""
"image-keyboard-response",563,527854,"0.0-3.184-0.184","5f3whv9kmv4kfjl",875,"176.csv","","128.5","resources/trios/L2T1A1.jpg","39","restless",0.6,0.4,0.3,0.728159953072986,"false"
"image-keyboard-response",564,528258,"0.0-3.184-1.184","5f3whv9kmv4kfjl",875,"176.csv","","null","resources/maskTrios/BBA1.jpg","null","",NA,NA,NA,NA,""
"image-keyboard-response",565,529464,"0.0-3.184-2.184","5f3whv9kmv4kfjl",875,"176.csv","","null","resources/images/fishbone.png","null","",NA,NA,NA,NA,""
"image-keyboard-response",566,529682,"0.0-3.185-0.185","5f3whv9kmv4kfjl",875,"176.csv","","216","resources/trios/L2T1A2.jpg","38","restless",0.6,0.4,0.4,0.334734101069709,"true"
"image-keyboard-response",567,530087,"0.0-3.185-1.185","5f3whv9kmv4kfjl",875,"176.csv","","null","resources/maskTrios/BT1B.jpg","null","",NA,NA,NA,NA,""
"image-keyboard-response",568,531289,"0.0-3.185-2.185","5f3whv9kmv4kfjl",875,"176.csv","","null","resources/images/coin2.png","null","",NA,NA,NA,NA,""
"image-keyboard-response",569,531457,"0.0-3.186-0.186","5f3whv9kmv4kfjl",875,"176.csv","","166.5","resources/trios/L2T1A2.jpg","37","restless",0.7,0.4,0.4,0.791809481647193,"false"
"image-keyboard-response",570,531863,"0.0-3.186-1.186","5f3whv9kmv4kfjl",875,"176.csv","","null","resources/maskTrios/L2BB.jpg","null","",NA,NA,NA,NA,""
"image-keyboard-response",571,533069,"0.0-3.186-2.186","5f3whv9kmv4kfjl",875,"176.csv","","null","resources/images/fishbone.png","null","",NA,NA,NA,NA,""
"image-keyboard-response",572,533277,"0.0-3.187-0.187","5f3whv9kmv4kfjl",875,"176.csv","","207","resources/trios/L1T1A2.jpg","37","restless",0.7,0.4,0.4,0.128458337452745,"true"
"image-keyboard-response",573,533684,"0.0-3.187-1.187","5f3whv9kmv4kfjl",875,"176.csv","","null","resources/maskTrios/L1BB.jpg","null","",NA,NA,NA,NA,""
"image-keyboard-response",574,534888,"0.0-3.187-2.187","5f3whv9kmv4kfjl",875,"176.csv","","null","resources/images/coin2.png","null","",NA,NA,NA,NA,""
"image-keyboard-response",575,535326,"0.0-3.188-0.188","5f3whv9kmv4kfjl",875,"176.csv","","435.7000000178814","resources/trios/L1T1A1.jpg","38","restless",0.7,0.4,0.4,0.0439728811836477,"true"
"image-keyboard-response",576,535727,"0.0-3.188-1.188","5f3whv9kmv4kfjl",875,"176.csv","","null","resources/maskTrios/BT1B.jpg","null","",NA,NA,NA,NA,""
"image-keyboard-response",577,536931,"0.0-3.188-2.188","5f3whv9kmv4kfjl",875,"176.csv","","null","resources/images/coin2.png","null","",NA,NA,NA,NA,""
"image-keyboard-response",578,537205,"0.0-3.189-0.189","5f3whv9kmv4kfjl",875,"176.csv","","272.59999999403954","resources/trios/L1T1A1.jpg","38","restless",0.7,0.3,0.4,0.519205091181636,"false"
"image-keyboard-response",579,537607,"0.0-3.189-1.189","5f3whv9kmv4kfjl",875,"176.csv","","null","resources/maskTrios/BT1B.jpg","null","",NA,NA,NA,NA,""
"image-keyboard-response",580,538808,"0.0-3.189-2.189","5f3whv9kmv4kfjl",875,"176.csv","","null","resources/images/fishbone.png","null","",NA,NA,NA,NA,""
"image-keyboard-response",581,539048,"0.0-3.190-0.190","5f3whv9kmv4kfjl",875,"176.csv","","238.69999998807907","resources/trios/L1T1A1.jpg","39","restless",0.7,0.3,0.3,0.935610059252117,"false"
"image-keyboard-response",582,539450,"0.0-3.190-1.190","5f3whv9kmv4kfjl",875,"176.csv","","null","resources/maskTrios/BBA1.jpg","null","",NA,NA,NA,NA,""
"image-keyboard-response",583,540652,"0.0-3.190-2.190","5f3whv9kmv4kfjl",875,"176.csv","","null","resources/images/fishbone.png","null","",NA,NA,NA,NA,""
"image-keyboard-response",584,540829,"0.0-3.191-0.191","5f3whv9kmv4kfjl",875,"176.csv","","176.2000000178814","resources/trios/L2T1A2.jpg","37","restless",0.7,0.3,0.3,0.773393144377892,"false"
"image-keyboard-response",585,541230,"0.0-3.191-1.191","5f3whv9kmv4kfjl",875,"176.csv","","null","resources/maskTrios/L2BB.jpg","null","",NA,NA,NA,NA,""
"image-keyboard-response",586,542431,"0.0-3.191-2.191","5f3whv9kmv4kfjl",875,"176.csv","","null","resources/images/fishbone.png","null","",NA,NA,NA,NA,""
"image-keyboard-response",587,542572,"0.0-3.192-0.192","5f3whv9kmv4kfjl",875,"176.csv","","140.40000000596046","resources/trios/L2T4A1.jpg","38","restless",0.7,0.2,0.3,0.377305760072985,"false"
"image-keyboard-response",588,542973,"0.0-3.192-1.192","5f3whv9kmv4kfjl",875,"176.csv","","null","resources/maskTrios/BT4B.jpg","null","",NA,NA,NA,NA,""
"image-keyboard-response",589,544177,"0.0-3.192-2.192","5f3whv9kmv4kfjl",875,"176.csv","","null","resources/images/fishbone.png","null","",NA,NA,NA,NA,""
"image-keyboard-response",590,544292,"0.0-3.193-0.193","5f3whv9kmv4kfjl",875,"176.csv","","112.80000001192093","resources/trios/L2T1A1.jpg","37","restless",0.6,0.2,0.3,0.200494139121177,"true"
"image-keyboard-response",591,544693,"0.0-3.193-1.193","5f3whv9kmv4kfjl",875,"176.csv","","null","resources/maskTrios/L2BB.jpg","null","",NA,NA,NA,NA,""
"image-keyboard-response",592,545896,"0.0-3.193-2.193","5f3whv9kmv4kfjl",875,"176.csv","","null","resources/images/coin2.png","null","",NA,NA,NA,NA,""
"image-keyboard-response",593,546529,"0.0-3.194-0.194","5f3whv9kmv4kfjl",875,"176.csv","","630.7999999821186","resources/trios/L1T1A1.jpg","37","restless",0.6,0.2,0.3,0.287927032026889,"true"
"image-keyboard-response",594,546933,"0.0-3.194-1.194","5f3whv9kmv4kfjl",875,"176.csv","","null","resources/maskTrios/L1BB.jpg","null","",NA,NA,NA,NA,""
"image-keyboard-response",595,548135,"0.0-3.194-2.194","5f3whv9kmv4kfjl",875,"176.csv","","null","resources/images/coin2.png","null","",NA,NA,NA,NA,""
"image-keyboard-response",596,548306,"0.0-3.195-0.195","5f3whv9kmv4kfjl",875,"176.csv","","170.19999998807907","resources/trios/L1T4A1.jpg","37","restless",0.6,0.2,0.3,0.463711745097894,"true"
"image-keyboard-response",597,548710,"0.0-3.195-1.195","5f3whv9kmv4kfjl",875,"176.csv","","null","resources/maskTrios/L1BB.jpg","null","",NA,NA,NA,NA,""
"image-keyboard-response",598,549913,"0.0-3.195-2.195","5f3whv9kmv4kfjl",875,"176.csv","","null","resources/images/coin2.png","null","",NA,NA,NA,NA,""
"image-keyboard-response",599,550185,"0.0-3.196-0.196","5f3whv9kmv4kfjl",875,"176.csv","","270","resources/trios/L2T4A1.jpg","37","restless",0.6,0.2,0.3,0.625513718490822,"false"
"image-keyboard-response",600,550592,"0.0-3.196-1.196","5f3whv9kmv4kfjl",875,"176.csv","","null","resources/maskTrios/L2BB.jpg","null","",NA,NA,NA,NA,""
"image-keyboard-response",601,551795,"0.0-3.196-2.196","5f3whv9kmv4kfjl",875,"176.csv","","null","resources/images/fishbone.png","null","",NA,NA,NA,NA,""
"image-keyboard-response",602,552153,"0.0-3.197-0.197","5f3whv9kmv4kfjl",875,"176.csv","","355.69999998807907","resources/trios/L2T1A1.jpg","38","restless",0.6,0.2,0.3,0.475410606451021,"false"
"image-keyboard-response",603,552556,"0.0-3.197-1.197","5f3whv9kmv4kfjl",875,"176.csv","","null","resources/maskTrios/BT1B.jpg","null","",NA,NA,NA,NA,""
"image-keyboard-response",604,553759,"0.0-3.197-2.197","5f3whv9kmv4kfjl",875,"176.csv","","null","resources/images/fishbone.png","null","",NA,NA,NA,NA,""
"image-keyboard-response",605,554032,"0.0-3.198-0.198","5f3whv9kmv4kfjl",875,"176.csv","","272.09999999403954","resources/trios/L1T1A1.jpg","39","restless",0.6,0.3,0.3,0.148758078079147,"true"
