"trial_type","trial_index","time_elapsed","internal_node_id","subject","participantCode","walkNumber","success","rt","stimulus","key_press","test_part","leftProb","midProb","rightProb","generatedNum","correct"
"pavlovia",0,940,"0.0-0.0","w1cwsowo6sbpnmb",38,"168.csv","","","","","",NA,NA,NA,NA,""
"fullscreen",1,5848,"0.0-1.0","w1cwsowo6sbpnmb",38,"168.csv","true","","","","",NA,NA,NA,NA,""
"html-keyboard-response",2,18358,"0.0-2.0-0.0","w1cwsowo6sbpnmb",38,"168.csv","","12507.199999988079","<p><font size='6'>Arrrgh!</p></font><p>Can you be the best pirate? Try to find lots of gold! But beware, some islands have more gold than others, and over time, the island with the most gold may change. Can YOU figure it out? </p><font size='6'>GOOD LUCK, CAPTAIN!!!</font><p>Press any key to begin</p>","75","",NA,NA,NA,NA,""
"image-keyboard-response",3,21364,"0.0-2.0-1.0","w1cwsowo6sbpnmb",38,"168.csv","","null","resources/image_sets/111.png","null","",NA,NA,NA,NA,""
"image-keyboard-response",4,26535,"0.0-2.0-2.0","w1cwsowo6sbpnmb",38,"168.csv","","5168.599999964237","resources/image_sets/left_highlight.png","37","",NA,NA,NA,NA,""
"image-keyboard-response",5,28515,"0.0-2.0-3.0","w1cwsowo6sbpnmb",38,"168.csv","","1978.3999999761581","resources/image_sets/mid_highlight.png","38","",NA,NA,NA,NA,""
"image-keyboard-response",6,30017,"0.0-2.0-4.0","w1cwsowo6sbpnmb",38,"168.csv","","1500.699999988079","resources/image_sets/right_highlight.png","39","",NA,NA,NA,NA,""
"image-keyboard-response",7,32853,"0.0-2.0-5.0","w1cwsowo6sbpnmb",38,"168.csv","","2834.399999976158","resources/image_sets/111.png","13","",NA,NA,NA,NA,""
"image-keyboard-response",8,35919,"0.0-2.0-6.0","w1cwsowo6sbpnmb",38,"168.csv","","3064.800000011921","resources/images/coin2.png","13","",NA,NA,NA,NA,""
"image-keyboard-response",9,40587,"0.0-2.0-7.0","w1cwsowo6sbpnmb",38,"168.csv","","4666.399999976158","resources/images/fishbone.png","13","",NA,NA,NA,NA,""
"html-keyboard-response",10,41731,"0.0-2.0-8.0","w1cwsowo6sbpnmb",38,"168.csv","","1143.1000000238419","<p>Your first journey will be a long one, but you will get a well deserved break at the end</p><p>After the break you will have four more journeys, but each will be much shorter than the first, and you will have breaks in between each</p><p>Press Enter to begin</p>","13","",NA,NA,NA,NA,""
"image-keyboard-response",11,49073,"0.0-3.0-0.0","w1cwsowo6sbpnmb",38,"168.csv","","7340.5","resources/trios/L4T1A3.jpg","37","restless",0.7,0.9,0.3,0.794760502343794,"false"
"image-keyboard-response",12,49481,"0.0-3.0-1.0","w1cwsowo6sbpnmb",38,"168.csv","","null","resources/maskTrios/L4BB.jpg","null","",NA,NA,NA,NA,""
"image-keyboard-response",13,50687,"0.0-3.0-2.0","w1cwsowo6sbpnmb",38,"168.csv","","null","resources/images/fishbone.png","null","",NA,NA,NA,NA,""
"image-keyboard-response",14,55789,"0.0-3.1-0.1","w1cwsowo6sbpnmb",38,"168.csv","","5099.399999976158","resources/trios/L2T2A3.jpg","39","restless",0.7,0.9,0.3,0.163892911740456,"true"
"image-keyboard-response",15,56193,"0.0-3.1-1.1","w1cwsowo6sbpnmb",38,"168.csv","","null","resources/maskTrios/BBA3.jpg","null","",NA,NA,NA,NA,""
"image-keyboard-response",16,57397,"0.0-3.1-2.1","w1cwsowo6sbpnmb",38,"168.csv","","null","resources/images/coin2.png","null","",NA,NA,NA,NA,""
"image-keyboard-response",17,60981,"0.0-3.2-0.2","w1cwsowo6sbpnmb",38,"168.csv","","3582.5","resources/trios/L2T1A3.jpg","38","restless",0.7,0.9,0.3,0.668343695220993,"true"
"image-keyboard-response",18,61384,"0.0-3.2-1.2","w1cwsowo6sbpnmb",38,"168.csv","","null","resources/maskTrios/BT1B.jpg","null","",NA,NA,NA,NA,""
"image-keyboard-response",19,62588,"0.0-3.2-2.2","w1cwsowo6sbpnmb",38,"168.csv","","null","resources/images/coin2.png","null","",NA,NA,NA,NA,""
"image-keyboard-response",20,64471,"0.0-3.3-0.3","w1cwsowo6sbpnmb",38,"168.csv","","1881.800000011921","resources/trios/L2T2A3.jpg","39","restless",0.7,0.9,0.3,0.307649075808009,"false"
"image-keyboard-response",21,64878,"0.0-3.3-1.3","w1cwsowo6sbpnmb",38,"168.csv","","null","resources/maskTrios/BBA3.jpg","null","",NA,NA,NA,NA,""
"image-keyboard-response",22,66084,"0.0-3.3-2.3","w1cwsowo6sbpnmb",38,"168.csv","","null","resources/images/fishbone.png","null","",NA,NA,NA,NA,""
"image-keyboard-response",23,69475,"0.0-3.4-0.4","w1cwsowo6sbpnmb",38,"168.csv","","3389.399999976158","resources/trios/L4T2A2.jpg","37","restless",0.7,0.9,0.3,0.027262981495481,"true"
"image-keyboard-response",24,69880,"0.0-3.4-1.4","w1cwsowo6sbpnmb",38,"168.csv","","null","resources/maskTrios/L4BB.jpg","null","",NA,NA,NA,NA,""
"image-keyboard-response",25,71086,"0.0-3.4-2.4","w1cwsowo6sbpnmb",38,"168.csv","","null","resources/images/coin2.png","null","",NA,NA,NA,NA,""
"image-keyboard-response",26,72776,"0.0-3.5-0.5","w1cwsowo6sbpnmb",38,"168.csv","","1688.0999999642372","resources/trios/L4T2A2.jpg","38","restless",0.7,0.9,0.2,0.942080359268251,"false"
"image-keyboard-response",27,73181,"0.0-3.5-1.5","w1cwsowo6sbpnmb",38,"168.csv","","null","resources/maskTrios/BT2B.jpg","null","",NA,NA,NA,NA,""
"image-keyboard-response",28,74385,"0.0-3.5-2.5","w1cwsowo6sbpnmb",38,"168.csv","","null","resources/images/fishbone.png","null","",NA,NA,NA,NA,""
"image-keyboard-response",29,75325,"0.0-3.6-0.6","w1cwsowo6sbpnmb",38,"168.csv","","938.8000000119209","resources/trios/L2T1A3.jpg","38","restless",0.7,0.9,0.1,0.69539792246826,"true"
"image-keyboard-response",30,75730,"0.0-3.6-1.6","w1cwsowo6sbpnmb",38,"168.csv","","null","resources/maskTrios/BT1B.jpg","null","",NA,NA,NA,NA,""
"image-keyboard-response",31,76937,"0.0-3.6-2.6","w1cwsowo6sbpnmb",38,"168.csv","","null","resources/images/coin2.png","null","",NA,NA,NA,NA,""
"image-keyboard-response",32,78295,"0.0-3.7-0.7","w1cwsowo6sbpnmb",38,"168.csv","","1356.300000011921","resources/trios/L4T2A3.jpg","37","restless",0.6,0.9,0.2,0.284298416342412,"true"
"image-keyboard-response",33,78698,"0.0-3.7-1.7","w1cwsowo6sbpnmb",38,"168.csv","","null","resources/maskTrios/L4BB.jpg","null","",NA,NA,NA,NA,""
"image-keyboard-response",34,79904,"0.0-3.7-2.7","w1cwsowo6sbpnmb",38,"168.csv","","null","resources/images/coin2.png","null","",NA,NA,NA,NA,""
"image-keyboard-response",35,83832,"0.0-3.8-0.8","w1cwsowo6sbpnmb",38,"168.csv","","3926","resources/trios/L2T2A2.jpg","37","restless",0.6,0.9,0.2,0.811446444975732,"false"
"image-keyboard-response",36,84239,"0.0-3.8-1.8","w1cwsowo6sbpnmb",38,"168.csv","","null","resources/maskTrios/L2BB.jpg","null","",NA,NA,NA,NA,""
"image-keyboard-response",37,85446,"0.0-3.8-2.8","w1cwsowo6sbpnmb",38,"168.csv","","null","resources/images/fishbone.png","null","",NA,NA,NA,NA,""
"image-keyboard-response",38,87366,"0.0-3.9-0.9","w1cwsowo6sbpnmb",38,"168.csv","","1919","resources/trios/L2T2A2.jpg","39","restless",0.5,0.9,0.3,0.863313876404606,"false"
"image-keyboard-response",39,87769,"0.0-3.9-1.9","w1cwsowo6sbpnmb",38,"168.csv","","null","resources/maskTrios/BBA2.jpg","null","",NA,NA,NA,NA,""
"image-keyboard-response",40,88976,"0.0-3.9-2.9","w1cwsowo6sbpnmb",38,"168.csv","","null","resources/images/fishbone.png","null","",NA,NA,NA,NA,""
"image-keyboard-response",41,89362,"0.0-3.10-0.10","w1cwsowo6sbpnmb",38,"168.csv","","384.69999998807907","resources/trios/L2T2A3.jpg","38","restless",0.5,0.9,0.3,0.855211556549551,"true"
"image-keyboard-response",42,89768,"0.0-3.10-1.10","w1cwsowo6sbpnmb",38,"168.csv","","null","resources/maskTrios/BT2B.jpg","null","",NA,NA,NA,NA,""
"image-keyboard-response",43,90971,"0.0-3.10-2.10","w1cwsowo6sbpnmb",38,"168.csv","","null","resources/images/coin2.png","null","",NA,NA,NA,NA,""
"image-keyboard-response",44,98490,"0.0-3.11-0.11","w1cwsowo6sbpnmb",38,"168.csv","","7517.200000047684","resources/trios/L2T2A3.jpg","38","restless",0.5,0.9,0.3,0.953186706780591,"false"
"image-keyboard-response",45,98897,"0.0-3.11-1.11","w1cwsowo6sbpnmb",38,"168.csv","","null","resources/maskTrios/BT2B.jpg","null","",NA,NA,NA,NA,""
"image-keyboard-response",46,100100,"0.0-3.11-2.11","w1cwsowo6sbpnmb",38,"168.csv","","null","resources/images/fishbone.png","null","",NA,NA,NA,NA,""
"image-keyboard-response",47,103105,"0.0-3.12-0.12","w1cwsowo6sbpnmb",38,"168.csv","","3003.7000000476837","resources/trios/L4T1A2.jpg","38","restless",0.5,0.9,0.3,0.851059120626456,"true"
"image-keyboard-response",48,103507,"0.0-3.12-1.12","w1cwsowo6sbpnmb",38,"168.csv","","null","resources/maskTrios/BT1B.jpg","null","",NA,NA,NA,NA,""
"image-keyboard-response",49,104711,"0.0-3.12-2.12","w1cwsowo6sbpnmb",38,"168.csv","","null","resources/images/coin2.png","null","",NA,NA,NA,NA,""
"image-keyboard-response",50,107198,"0.0-3.13-0.13","w1cwsowo6sbpnmb",38,"168.csv","","2486.699999988079","resources/trios/L2T2A2.jpg","38","restless",0.6,0.9,0.3,0.0898091184551755,"true"
"image-keyboard-response",51,107601,"0.0-3.13-1.13","w1cwsowo6sbpnmb",38,"168.csv","","null","resources/maskTrios/BT2B.jpg","null","",NA,NA,NA,NA,""
"image-keyboard-response",52,108807,"0.0-3.13-2.13","w1cwsowo6sbpnmb",38,"168.csv","","null","resources/images/coin2.png","null","",NA,NA,NA,NA,""
"image-keyboard-response",53,109799,"0.0-3.14-0.14","w1cwsowo6sbpnmb",38,"168.csv","","989.8999999761581","resources/trios/L4T1A2.jpg","38","restless",0.6,0.8,0.3,0.555562720090364,"true"
"image-keyboard-response",54,110204,"0.0-3.14-1.14","w1cwsowo6sbpnmb",38,"168.csv","","null","resources/maskTrios/BT1B.jpg","null","",NA,NA,NA,NA,""
"image-keyboard-response",55,111408,"0.0-3.14-2.14","w1cwsowo6sbpnmb",38,"168.csv","","null","resources/images/coin2.png","null","",NA,NA,NA,NA,""
"image-keyboard-response",56,112724,"0.0-3.15-0.15","w1cwsowo6sbpnmb",38,"168.csv","","1314.6000000238419","resources/trios/L4T1A2.jpg","38","restless",0.6,0.8,0.3,0.568777139015853,"true"
"image-keyboard-response",57,113129,"0.0-3.15-1.15","w1cwsowo6sbpnmb",38,"168.csv","","null","resources/maskTrios/BT1B.jpg","null","",NA,NA,NA,NA,""
"image-keyboard-response",58,114337,"0.0-3.15-2.15","w1cwsowo6sbpnmb",38,"168.csv","","null","resources/images/coin2.png","null","",NA,NA,NA,NA,""
"image-keyboard-response",59,115300,"0.0-3.16-0.16","w1cwsowo6sbpnmb",38,"168.csv","","960.8999999761581","resources/trios/L2T1A2.jpg","38","restless",0.6,0.8,0.3,0.548969503252642,"true"
"image-keyboard-response",60,115706,"0.0-3.16-1.16","w1cwsowo6sbpnmb",38,"168.csv","","null","resources/maskTrios/BT1B.jpg","null","",NA,NA,NA,NA,""
"image-keyboard-response",61,116913,"0.0-3.16-2.16","w1cwsowo6sbpnmb",38,"168.csv","","null","resources/images/coin2.png","null","",NA,NA,NA,NA,""
"image-keyboard-response",62,120932,"0.0-3.17-0.17","w1cwsowo6sbpnmb",38,"168.csv","","4017.100000023842","resources/trios/L2T1A3.jpg","38","restless",0.6,0.8,0.3,0.122769035371892,"true"
"image-keyboard-response",63,121339,"0.0-3.17-1.17","w1cwsowo6sbpnmb",38,"168.csv","","null","resources/maskTrios/BT1B.jpg","null","",NA,NA,NA,NA,""
"image-keyboard-response",64,122546,"0.0-3.17-2.17","w1cwsowo6sbpnmb",38,"168.csv","","null","resources/images/coin2.png","null","",NA,NA,NA,NA,""
"image-keyboard-response",65,124435,"0.0-3.18-0.18","w1cwsowo6sbpnmb",38,"168.csv","","1887.800000011921","resources/trios/L2T2A2.jpg","38","restless",0.6,0.8,0.3,0.101627077855552,"true"
"image-keyboard-response",66,124837,"0.0-3.18-1.18","w1cwsowo6sbpnmb",38,"168.csv","","null","resources/maskTrios/BT2B.jpg","null","",NA,NA,NA,NA,""
"image-keyboard-response",67,126043,"0.0-3.18-2.18","w1cwsowo6sbpnmb",38,"168.csv","","null","resources/images/coin2.png","null","",NA,NA,NA,NA,""
"image-keyboard-response",68,126724,"0.0-3.19-0.19","w1cwsowo6sbpnmb",38,"168.csv","","679.1000000238419","resources/trios/L2T1A2.jpg","37","restless",0.6,0.8,0.3,0.875615245449532,"false"
"image-keyboard-response",69,127130,"0.0-3.19-1.19","w1cwsowo6sbpnmb",38,"168.csv","","null","resources/maskTrios/L2BB.jpg","null","",NA,NA,NA,NA,""
"image-keyboard-response",70,128335,"0.0-3.19-2.19","w1cwsowo6sbpnmb",38,"168.csv","","null","resources/images/fishbone.png","null","",NA,NA,NA,NA,""
"image-keyboard-response",71,132311,"0.0-3.20-0.20","w1cwsowo6sbpnmb",38,"168.csv","","3974","resources/trios/L4T2A3.jpg","38","restless",0.6,0.7,0.3,0.870187434321263,"false"
"image-keyboard-response",72,132716,"0.0-3.20-1.20","w1cwsowo6sbpnmb",38,"168.csv","","null","resources/maskTrios/BT2B.jpg","null","",NA,NA,NA,NA,""
"image-keyboard-response",73,133922,"0.0-3.20-2.20","w1cwsowo6sbpnmb",38,"168.csv","","null","resources/images/fishbone.png","null","",NA,NA,NA,NA,""
"image-keyboard-response",74,134670,"0.0-3.21-0.21","w1cwsowo6sbpnmb",38,"168.csv","","746.3000000119209","resources/trios/L4T1A2.jpg","38","restless",0.6,0.7,0.3,0.20579965412612,"true"
"image-keyboard-response",75,135073,"0.0-3.21-1.21","w1cwsowo6sbpnmb",38,"168.csv","","null","resources/maskTrios/BT1B.jpg","null","",NA,NA,NA,NA,""
"image-keyboard-response",76,136279,"0.0-3.21-2.21","w1cwsowo6sbpnmb",38,"168.csv","","null","resources/images/coin2.png","null","",NA,NA,NA,NA,""
"image-keyboard-response",77,137049,"0.0-3.22-0.22","w1cwsowo6sbpnmb",38,"168.csv","","768.3999999761581","resources/trios/L2T2A2.jpg","38","restless",0.6,0.7,0.3,0.817654053130785,"false"
"image-keyboard-response",78,137456,"0.0-3.22-1.22","w1cwsowo6sbpnmb",38,"168.csv","","null","resources/maskTrios/BT2B.jpg","null","",NA,NA,NA,NA,""
"image-keyboard-response",79,138663,"0.0-3.22-2.22","w1cwsowo6sbpnmb",38,"168.csv","","null","resources/images/fishbone.png","null","",NA,NA,NA,NA,""
"image-keyboard-response",80,139637,"0.0-3.23-0.23","w1cwsowo6sbpnmb",38,"168.csv","","972.5999999642372","resources/trios/L4T2A2.jpg","37","restless",0.6,0.7,0.4,0.498252693910136,"true"
"image-keyboard-response",81,140042,"0.0-3.23-1.23","w1cwsowo6sbpnmb",38,"168.csv","","null","resources/maskTrios/L4BB.jpg","null","",NA,NA,NA,NA,""
"image-keyboard-response",82,141247,"0.0-3.23-2.23","w1cwsowo6sbpnmb",38,"168.csv","","null","resources/images/coin2.png","null","",NA,NA,NA,NA,""
"image-keyboard-response",83,143712,"0.0-3.24-0.24","w1cwsowo6sbpnmb",38,"168.csv","","2463.800000011921","resources/trios/L4T2A2.jpg","38","restless",0.6,0.7,0.4,0.206873941542569,"true"
"image-keyboard-response",84,144117,"0.0-3.24-1.24","w1cwsowo6sbpnmb",38,"168.csv","","null","resources/maskTrios/BT2B.jpg","null","",NA,NA,NA,NA,""
"image-keyboard-response",85,145324,"0.0-3.24-2.24","w1cwsowo6sbpnmb",38,"168.csv","","null","resources/images/coin2.png","null","",NA,NA,NA,NA,""
"image-keyboard-response",86,146800,"0.0-3.25-0.25","w1cwsowo6sbpnmb",38,"168.csv","","1474.7999999523163","resources/trios/L2T1A3.jpg","38","restless",0.6,0.6,0.4,0.581134612823979,"true"
"image-keyboard-response",87,147206,"0.0-3.25-1.25","w1cwsowo6sbpnmb",38,"168.csv","","null","resources/maskTrios/BT1B.jpg","null","",NA,NA,NA,NA,""
"image-keyboard-response",88,148412,"0.0-3.25-2.25","w1cwsowo6sbpnmb",38,"168.csv","","null","resources/images/coin2.png","null","",NA,NA,NA,NA,""
"image-keyboard-response",89,149076,"0.0-3.26-0.26","w1cwsowo6sbpnmb",38,"168.csv","","661.8000000119209","resources/trios/L2T1A2.jpg","38","restless",0.7,0.6,0.4,0.937227667465226,"false"
"image-keyboard-response",90,149480,"0.0-3.26-1.26","w1cwsowo6sbpnmb",38,"168.csv","","null","resources/maskTrios/BT1B.jpg","null","",NA,NA,NA,NA,""
"image-keyboard-response",91,150687,"0.0-3.26-2.26","w1cwsowo6sbpnmb",38,"168.csv","","null","resources/images/fishbone.png","null","",NA,NA,NA,NA,""
"image-keyboard-response",92,151705,"0.0-3.27-0.27","w1cwsowo6sbpnmb",38,"168.csv","","1016.5","resources/trios/L4T1A2.jpg","37","restless",0.7,0.6,0.4,0.805862825331357,"false"
"image-keyboard-response",93,152107,"0.0-3.27-1.27","w1cwsowo6sbpnmb",38,"168.csv","","null","resources/maskTrios/L4BB.jpg","null","",NA,NA,NA,NA,""
"image-keyboard-response",94,153313,"0.0-3.27-2.27","w1cwsowo6sbpnmb",38,"168.csv","","null","resources/images/fishbone.png","null","",NA,NA,NA,NA,""
"image-keyboard-response",95,154257,"0.0-3.28-0.28","w1cwsowo6sbpnmb",38,"168.csv","","941.3999999761581","resources/trios/L4T1A2.jpg","39","restless",0.7,0.6,0.4,0.869131611569068,"false"
"image-keyboard-response",96,154663,"0.0-3.28-1.28","w1cwsowo6sbpnmb",38,"168.csv","","null","resources/maskTrios/BBA2.jpg","null","",NA,NA,NA,NA,""
"image-keyboard-response",97,155870,"0.0-3.28-2.28","w1cwsowo6sbpnmb",38,"168.csv","","null","resources/images/fishbone.png","null","",NA,NA,NA,NA,""
"image-keyboard-response",98,156999,"0.0-3.29-0.29","w1cwsowo6sbpnmb",38,"168.csv","","1127.5","resources/trios/L4T1A2.jpg","37","restless",0.7,0.5,0.5,0.940860549026906,"false"
"image-keyboard-response",99,157405,"0.0-3.29-1.29","w1cwsowo6sbpnmb",38,"168.csv","","null","resources/maskTrios/L4BB.jpg","null","",NA,NA,NA,NA,""
"image-keyboard-response",100,158612,"0.0-3.29-2.29","w1cwsowo6sbpnmb",38,"168.csv","","null","resources/images/fishbone.png","null","",NA,NA,NA,NA,""
"image-keyboard-response",101,159267,"0.0-3.30-0.30","w1cwsowo6sbpnmb",38,"168.csv","","653","resources/trios/L4T1A2.jpg","38","restless",0.8,0.5,0.5,0.674859187530796,"false"
"image-keyboard-response",102,159670,"0.0-3.30-1.30","w1cwsowo6sbpnmb",38,"168.csv","","null","resources/maskTrios/BT1B.jpg","null","",NA,NA,NA,NA,""
"image-keyboard-response",103,160872,"0.0-3.30-2.30","w1cwsowo6sbpnmb",38,"168.csv","","null","resources/images/fishbone.png","null","",NA,NA,NA,NA,""
"image-keyboard-response",104,161219,"0.0-3.31-0.31","w1cwsowo6sbpnmb",38,"168.csv","","345.0999999642372","resources/trios/L2T2A2.jpg","39","restless",0.8,0.5,0.5,0.743672091767227,"false"
"image-keyboard-response",105,161626,"0.0-3.31-1.31","w1cwsowo6sbpnmb",38,"168.csv","","null","resources/maskTrios/BBA2.jpg","null","",NA,NA,NA,NA,""
"image-keyboard-response",106,162828,"0.0-3.31-2.31","w1cwsowo6sbpnmb",38,"168.csv","","null","resources/images/fishbone.png","null","",NA,NA,NA,NA,""
"image-keyboard-response",107,162882,"0.0-3.32-0.32","w1cwsowo6sbpnmb",38,"168.csv","","51.90000003576279","resources/trios/L4T1A3.jpg","37","restless",0.8,0.5,0.5,0.531779103316789,"true"
"image-keyboard-response",108,163289,"0.0-3.32-1.32","w1cwsowo6sbpnmb",38,"168.csv","","null","resources/maskTrios/L4BB.jpg","null","",NA,NA,NA,NA,""
"image-keyboard-response",109,164491,"0.0-3.32-2.32","w1cwsowo6sbpnmb",38,"168.csv","","null","resources/images/coin2.png","null","",NA,NA,NA,NA,""
"image-keyboard-response",110,164766,"0.0-3.33-0.33","w1cwsowo6sbpnmb",38,"168.csv","","273.5","resources/trios/L2T1A2.jpg","38","restless",0.8,0.5,0.5,0.278552081786821,"true"
"image-keyboard-response",111,165168,"0.0-3.33-1.33","w1cwsowo6sbpnmb",38,"168.csv","","null","resources/maskTrios/BT1B.jpg","null","",NA,NA,NA,NA,""
"image-keyboard-response",112,166373,"0.0-3.33-2.33","w1cwsowo6sbpnmb",38,"168.csv","","null","resources/images/coin2.png","null","",NA,NA,NA,NA,""
"image-keyboard-response",113,166622,"0.0-3.34-0.34","w1cwsowo6sbpnmb",38,"168.csv","","247","resources/trios/L2T1A3.jpg","37","restless",0.8,0.5,0.5,0.369740103613033,"true"
"image-keyboard-response",114,167030,"0.0-3.34-1.34","w1cwsowo6sbpnmb",38,"168.csv","","null","resources/maskTrios/L2BB.jpg","null","",NA,NA,NA,NA,""
"image-keyboard-response",115,168237,"0.0-3.34-2.34","w1cwsowo6sbpnmb",38,"168.csv","","null","resources/images/coin2.png","null","",NA,NA,NA,NA,""
"image-keyboard-response",116,168430,"0.0-3.35-0.35","w1cwsowo6sbpnmb",38,"168.csv","","191.80000001192093","resources/trios/L4T2A3.jpg","37","restless",0.9,0.5,0.5,0.904063897716119,"false"
"image-keyboard-response",117,168834,"0.0-3.35-1.35","w1cwsowo6sbpnmb",38,"168.csv","","null","resources/maskTrios/L4BB.jpg","null","",NA,NA,NA,NA,""
"image-keyboard-response",118,170039,"0.0-3.35-2.35","w1cwsowo6sbpnmb",38,"168.csv","","null","resources/images/fishbone.png","null","",NA,NA,NA,NA,""
"image-keyboard-response",119,170331,"0.0-3.36-0.36","w1cwsowo6sbpnmb",38,"168.csv","","290.0999999642372","resources/trios/L2T2A3.jpg","39","restless",0.9,0.5,0.5,0.679897882238473,"false"
"image-keyboard-response",120,170738,"0.0-3.36-1.36","w1cwsowo6sbpnmb",38,"168.csv","","null","resources/maskTrios/BBA3.jpg","null","",NA,NA,NA,NA,""
"image-keyboard-response",121,171944,"0.0-3.36-2.36","w1cwsowo6sbpnmb",38,"168.csv","","null","resources/images/fishbone.png","null","",NA,NA,NA,NA,""
"image-keyboard-response",122,172106,"0.0-3.37-0.37","w1cwsowo6sbpnmb",38,"168.csv","","160.10000002384186","resources/trios/L2T2A3.jpg","37","restless",0.9,0.5,0.5,0.760207173595342,"true"
"image-keyboard-response",123,172512,"0.0-3.37-1.37","w1cwsowo6sbpnmb",38,"168.csv","","null","resources/maskTrios/L2BB.jpg","null","",NA,NA,NA,NA,""
"image-keyboard-response",124,173719,"0.0-3.37-2.37","w1cwsowo6sbpnmb",38,"168.csv","","null","resources/images/coin2.png","null","",NA,NA,NA,NA,""
"image-keyboard-response",125,173837,"0.0-3.38-0.38","w1cwsowo6sbpnmb",38,"168.csv","","116","resources/trios/L2T2A3.jpg","37","restless",0.9,0.5,0.5,0.543954582701428,"true"
"image-keyboard-response",126,174239,"0.0-3.38-1.38","w1cwsowo6sbpnmb",38,"168.csv","","null","resources/maskTrios/L2BB.jpg","null","",NA,NA,NA,NA,""
"image-keyboard-response",127,175441,"0.0-3.38-2.38","w1cwsowo6sbpnmb",38,"168.csv","","null","resources/images/coin2.png","null","",NA,NA,NA,NA,""
"image-keyboard-response",128,175703,"0.0-3.39-0.39","w1cwsowo6sbpnmb",38,"168.csv","","260.5","resources/trios/L2T1A2.jpg","37","restless",0.9,0.4,0.5,0.253066801413814,"true"
"image-keyboard-response",129,176105,"0.0-3.39-1.39","w1cwsowo6sbpnmb",38,"168.csv","","null","resources/maskTrios/L2BB.jpg","null","",NA,NA,NA,NA,""
"image-keyboard-response",130,177307,"0.0-3.39-2.39","w1cwsowo6sbpnmb",38,"168.csv","","null","resources/images/coin2.png","null","",NA,NA,NA,NA,""
"image-keyboard-response",131,177426,"0.0-3.40-0.40","w1cwsowo6sbpnmb",38,"168.csv","","117.30000001192093","resources/trios/L4T1A2.jpg","38","restless",0.9,0.4,0.5,0.495984001513154,"false"
"image-keyboard-response",132,177829,"0.0-3.40-1.40","w1cwsowo6sbpnmb",38,"168.csv","","null","resources/maskTrios/BT1B.jpg","null","",NA,NA,NA,NA,""
"image-keyboard-response",133,179033,"0.0-3.40-2.40","w1cwsowo6sbpnmb",38,"168.csv","","null","resources/images/fishbone.png","null","",NA,NA,NA,NA,""
"image-keyboard-response",134,179183,"0.0-3.41-0.41","w1cwsowo6sbpnmb",38,"168.csv","","148.5","resources/trios/L4T2A3.jpg","38","restless",0.8,0.4,0.5,0.497080096906706,"false"
"image-keyboard-response",135,179590,"0.0-3.41-1.41","w1cwsowo6sbpnmb",38,"168.csv","","null","resources/maskTrios/BT2B.jpg","null","",NA,NA,NA,NA,""
"image-keyboard-response",136,180796,"0.0-3.41-2.41","w1cwsowo6sbpnmb",38,"168.csv","","null","resources/images/fishbone.png","null","",NA,NA,NA,NA,""
"image-keyboard-response",137,180904,"0.0-3.42-0.42","w1cwsowo6sbpnmb",38,"168.csv","","105.89999997615814","resources/trios/L4T2A2.jpg","38","restless",0.8,0.4,0.5,0.384781386575443,"true"
"image-keyboard-response",138,181310,"0.0-3.42-1.42","w1cwsowo6sbpnmb",38,"168.csv","","null","resources/maskTrios/BT2B.jpg","null","",NA,NA,NA,NA,""
"image-keyboard-response",139,182514,"0.0-3.42-2.42","w1cwsowo6sbpnmb",38,"168.csv","","null","resources/images/coin2.png","null","",NA,NA,NA,NA,""
"image-keyboard-response",140,182639,"0.0-3.43-0.43","w1cwsowo6sbpnmb",38,"168.csv","","123.39999997615814","resources/trios/L4T2A3.jpg","38","restless",0.8,0.4,0.5,0.655808062250944,"false"
"image-keyboard-response",141,183046,"0.0-3.43-1.43","w1cwsowo6sbpnmb",38,"168.csv","","null","resources/maskTrios/BT2B.jpg","null","",NA,NA,NA,NA,""
"image-keyboard-response",142,184252,"0.0-3.43-2.43","w1cwsowo6sbpnmb",38,"168.csv","","null","resources/images/fishbone.png","null","",NA,NA,NA,NA,""
"image-keyboard-response",143,184305,"0.0-3.44-0.44","w1cwsowo6sbpnmb",38,"168.csv","","51.30000001192093","resources/trios/L2T2A3.jpg","37","restless",0.8,0.4,0.6,0.61210938354767,"true"
"image-keyboard-response",144,184712,"0.0-3.44-1.44","w1cwsowo6sbpnmb",38,"168.csv","","null","resources/maskTrios/L2BB.jpg","null","",NA,NA,NA,NA,""
"image-keyboard-response",145,185917,"0.0-3.44-2.44","w1cwsowo6sbpnmb",38,"168.csv","","null","resources/images/coin2.png","null","",NA,NA,NA,NA,""
"image-keyboard-response",146,186079,"0.0-3.45-0.45","w1cwsowo6sbpnmb",38,"168.csv","","160.5999999642372","resources/trios/L2T1A3.jpg","39","restless",0.8,0.3,0.5,0.39375939441175,"true"
"image-keyboard-response",147,186484,"0.0-3.45-1.45","w1cwsowo6sbpnmb",38,"168.csv","","null","resources/maskTrios/BBA3.jpg","null","",NA,NA,NA,NA,""
"image-keyboard-response",148,187686,"0.0-3.45-2.45","w1cwsowo6sbpnmb",38,"168.csv","","null","resources/images/coin2.png","null","",NA,NA,NA,NA,""
"image-keyboard-response",149,187745,"0.0-3.46-0.46","w1cwsowo6sbpnmb",38,"168.csv","","56.89999997615814","resources/trios/L4T2A3.jpg","39","restless",0.8,0.3,0.5,0.386941790734714,"true"
"image-keyboard-response",150,188147,"0.0-3.46-1.46","w1cwsowo6sbpnmb",38,"168.csv","","null","resources/maskTrios/BBA3.jpg","null","",NA,NA,NA,NA,""
"image-keyboard-response",151,189351,"0.0-3.46-2.46","w1cwsowo6sbpnmb",38,"168.csv","","null","resources/images/coin2.png","null","",NA,NA,NA,NA,""
"image-keyboard-response",152,190042,"0.0-3.47-0.47","w1cwsowo6sbpnmb",38,"168.csv","","689.3000000119209","resources/trios/L4T1A2.jpg","39","restless",0.8,0.3,0.5,0.0219327257637767,"true"
"image-keyboard-response",153,190446,"0.0-3.47-1.47","w1cwsowo6sbpnmb",38,"168.csv","","null","resources/maskTrios/BBA2.jpg","null","",NA,NA,NA,NA,""
"image-keyboard-response",154,191651,"0.0-3.47-2.47","w1cwsowo6sbpnmb",38,"168.csv","","null","resources/images/coin2.png","null","",NA,NA,NA,NA,""
"image-keyboard-response",155,191761,"0.0-3.48-0.48","w1cwsowo6sbpnmb",38,"168.csv","","108.19999998807907","resources/trios/L2T1A3.jpg","37","restless",0.8,0.3,0.5,0.318647569221018,"true"
"image-keyboard-response",156,192163,"0.0-3.48-1.48","w1cwsowo6sbpnmb",38,"168.csv","","null","resources/maskTrios/L2BB.jpg","null","",NA,NA,NA,NA,""
"image-keyboard-response",157,193365,"0.0-3.48-2.48","w1cwsowo6sbpnmb",38,"168.csv","","null","resources/images/coin2.png","null","",NA,NA,NA,NA,""
"image-keyboard-response",158,193406,"0.0-3.49-0.49","w1cwsowo6sbpnmb",38,"168.csv","","39.60000002384186","resources/trios/L4T1A3.jpg","39","restless",0.8,0.2,0.5,0.300908727811069,"true"
"image-keyboard-response",159,193810,"0.0-3.49-1.49","w1cwsowo6sbpnmb",38,"168.csv","","null","resources/maskTrios/BBA3.jpg","null","",NA,NA,NA,NA,""
"image-keyboard-response",160,195014,"0.0-3.49-2.49","w1cwsowo6sbpnmb",38,"168.csv","","null","resources/images/coin2.png","null","",NA,NA,NA,NA,""
"image-keyboard-response",161,195205,"0.0-3.50-0.50","w1cwsowo6sbpnmb",38,"168.csv","","189.70000004768372","resources/trios/L2T2A2.jpg","37","restless",0.8,0.2,0.5,0.141065927964424,"true"
"image-keyboard-response",162,195607,"0.0-3.50-1.50","w1cwsowo6sbpnmb",38,"168.csv","","null","resources/maskTrios/L2BB.jpg","null","",NA,NA,NA,NA,""
"image-keyboard-response",163,196812,"0.0-3.50-2.50","w1cwsowo6sbpnmb",38,"168.csv","","null","resources/images/coin2.png","null","",NA,NA,NA,NA,""
"image-keyboard-response",164,196920,"0.0-3.51-0.51","w1cwsowo6sbpnmb",38,"168.csv","","106.5","resources/trios/L4T1A2.jpg","38","restless",0.8,0.2,0.5,0.854060712926565,"false"
"image-keyboard-response",165,197323,"0.0-3.51-1.51","w1cwsowo6sbpnmb",38,"168.csv","","null","resources/maskTrios/BT1B.jpg","null","",NA,NA,NA,NA,""
"image-keyboard-response",166,198525,"0.0-3.51-2.51","w1cwsowo6sbpnmb",38,"168.csv","","null","resources/images/fishbone.png","null","",NA,NA,NA,NA,""
"image-keyboard-response",167,198675,"0.0-3.52-0.52","w1cwsowo6sbpnmb",38,"168.csv","","148.19999998807907","resources/trios/L4T1A3.jpg","38","restless",0.7,0.2,0.6,0.231234510705474,"false"
"image-keyboard-response",168,199079,"0.0-3.52-1.52","w1cwsowo6sbpnmb",38,"168.csv","","null","resources/maskTrios/BT1B.jpg","null","",NA,NA,NA,NA,""
"image-keyboard-response",169,200281,"0.0-3.52-2.52","w1cwsowo6sbpnmb",38,"168.csv","","null","resources/images/fishbone.png","null","",NA,NA,NA,NA,""
"image-keyboard-response",170,200562,"0.0-3.53-0.53","w1cwsowo6sbpnmb",38,"168.csv","","279.60000002384186","resources/trios/L4T2A2.jpg","37","restless",0.7,0.2,0.6,0.536134315111462,"true"
"image-keyboard-response",171,200969,"0.0-3.53-1.53","w1cwsowo6sbpnmb",38,"168.csv","","null","resources/maskTrios/L4BB.jpg","null","",NA,NA,NA,NA,""
"image-keyboard-response",172,202173,"0.0-3.53-2.53","w1cwsowo6sbpnmb",38,"168.csv","","null","resources/images/coin2.png","null","",NA,NA,NA,NA,""
"image-keyboard-response",173,202348,"0.0-3.54-0.54","w1cwsowo6sbpnmb",38,"168.csv","","173.19999998807907","resources/trios/L2T2A2.jpg","38","restless",0.7,0.2,0.6,0.95043001877125,"false"
"image-keyboard-response",174,202751,"0.0-3.54-1.54","w1cwsowo6sbpnmb",38,"168.csv","","null","resources/maskTrios/BT2B.jpg","null","",NA,NA,NA,NA,""
"image-keyboard-response",175,203953,"0.0-3.54-2.54","w1cwsowo6sbpnmb",38,"168.csv","","null","resources/images/fishbone.png","null","",NA,NA,NA,NA,""
"image-keyboard-response",176,204120,"0.0-3.55-0.55","w1cwsowo6sbpnmb",38,"168.csv","","165.9000000357628","resources/trios/L2T2A3.jpg","38","restless",0.7,0.2,0.6,0.695852501022934,"false"
"image-keyboard-response",177,204522,"0.0-3.55-1.55","w1cwsowo6sbpnmb",38,"168.csv","","null","resources/maskTrios/BT2B.jpg","null","",NA,NA,NA,NA,""
"image-keyboard-response",178,205724,"0.0-3.55-2.55","w1cwsowo6sbpnmb",38,"168.csv","","null","resources/images/fishbone.png","null","",NA,NA,NA,NA,""
"image-keyboard-response",179,215924,"0.0-3.56-0.56","w1cwsowo6sbpnmb",38,"168.csv","","10208.400000035763","resources/trios/L4T1A2.jpg","38","restless",0.8,0.2,0.6,0.53504815816793,"false"
"image-keyboard-response",180,216328,"0.0-3.56-1.56","w1cwsowo6sbpnmb",38,"168.csv","","null","resources/maskTrios/BT1B.jpg","null","",NA,NA,NA,NA,""
"image-keyboard-response",181,217533,"0.0-3.56-2.56","w1cwsowo6sbpnmb",38,"168.csv","","null","resources/images/fishbone.png","null","",NA,NA,NA,NA,""
"image-keyboard-response",182,217657,"0.0-3.57-0.57","w1cwsowo6sbpnmb",38,"168.csv","","122.60000002384186","resources/trios/L4T1A3.jpg","37","restless",0.8,0.2,0.6,0.337567035554311,"true"
"image-keyboard-response",183,218060,"0.0-3.57-1.57","w1cwsowo6sbpnmb",38,"168.csv","","null","resources/maskTrios/L4BB.jpg","null","",NA,NA,NA,NA,""
"image-keyboard-response",184,219263,"0.0-3.57-2.57","w1cwsowo6sbpnmb",38,"168.csv","","null","resources/images/coin2.png","null","",NA,NA,NA,NA,""
"image-keyboard-response",185,219678,"0.0-3.58-0.58","w1cwsowo6sbpnmb",38,"168.csv","","413.5","resources/trios/L4T2A2.jpg","37","restless",0.8,0.2,0.6,0.307625202272913,"true"
"image-keyboard-response",186,220081,"0.0-3.58-1.58","w1cwsowo6sbpnmb",38,"168.csv","","null","resources/maskTrios/L4BB.jpg","null","",NA,NA,NA,NA,""
"image-keyboard-response",187,221286,"0.0-3.58-2.58","w1cwsowo6sbpnmb",38,"168.csv","","null","resources/images/coin2.png","null","",NA,NA,NA,NA,""
"image-keyboard-response",188,221395,"0.0-3.59-0.59","w1cwsowo6sbpnmb",38,"168.csv","","107.40000003576279","resources/trios/L2T1A3.jpg","37","restless",0.8,0.2,0.6,0.0618502588301502,"true"
"image-keyboard-response",189,221802,"0.0-3.59-1.59","w1cwsowo6sbpnmb",38,"168.csv","","null","resources/maskTrios/L2BB.jpg","null","",NA,NA,NA,NA,""
"image-keyboard-response",190,223003,"0.0-3.59-2.59","w1cwsowo6sbpnmb",38,"168.csv","","null","resources/images/coin2.png","null","",NA,NA,NA,NA,""
"image-keyboard-response",191,223250,"0.0-3.60-0.60","w1cwsowo6sbpnmb",38,"168.csv","","244.9000000357628","resources/trios/L2T1A2.jpg","39","restless",0.8,0.2,0.6,0.829173466162891,"false"
"image-keyboard-response",192,223652,"0.0-3.60-1.60","w1cwsowo6sbpnmb",38,"168.csv","","null","resources/maskTrios/BBA2.jpg","null","",NA,NA,NA,NA,""
"image-keyboard-response",193,224853,"0.0-3.60-2.60","w1cwsowo6sbpnmb",38,"168.csv","","null","resources/images/fishbone.png","null","",NA,NA,NA,NA,""
"image-keyboard-response",194,224989,"0.0-3.61-0.61","w1cwsowo6sbpnmb",38,"168.csv","","134.10000002384186","resources/trios/L4T2A2.jpg","38","restless",0.7,0.2,0.6,0.351663664453728,"false"
"image-keyboard-response",195,225391,"0.0-3.61-1.61","w1cwsowo6sbpnmb",38,"168.csv","","null","resources/maskTrios/BT2B.jpg","null","",NA,NA,NA,NA,""
"image-keyboard-response",196,226596,"0.0-3.61-2.61","w1cwsowo6sbpnmb",38,"168.csv","","null","resources/images/fishbone.png","null","",NA,NA,NA,NA,""
"image-keyboard-response",197,226768,"0.0-3.62-0.62","w1cwsowo6sbpnmb",38,"168.csv","","170.4000000357628","resources/trios/L2T1A2.jpg","37","restless",0.7,0.2,0.6,0.520135429891933,"true"
"image-keyboard-response",198,227170,"0.0-3.62-1.62","w1cwsowo6sbpnmb",38,"168.csv","","null","resources/maskTrios/L2BB.jpg","null","",NA,NA,NA,NA,""
"image-keyboard-response",199,228372,"0.0-3.62-2.62","w1cwsowo6sbpnmb",38,"168.csv","","null","resources/images/coin2.png","null","",NA,NA,NA,NA,""
"image-keyboard-response",200,228477,"0.0-3.63-0.63","w1cwsowo6sbpnmb",38,"168.csv","","103.59999996423721","resources/trios/L4T2A2.jpg","38","restless",0.7,0.2,0.6,0.237444224153435,"false"
"image-keyboard-response",201,228881,"0.0-3.63-1.63","w1cwsowo6sbpnmb",38,"168.csv","","null","resources/maskTrios/BT2B.jpg","null","",NA,NA,NA,NA,""
"image-keyboard-response",202,230081,"0.0-3.63-2.63","w1cwsowo6sbpnmb",38,"168.csv","","null","resources/images/fishbone.png","null","",NA,NA,NA,NA,""
"image-keyboard-response",203,230249,"0.0-3.64-0.64","w1cwsowo6sbpnmb",38,"168.csv","","166.10000002384186","resources/trios/L2T1A2.jpg","38","restless",0.7,0.2,0.6,0.0455441206428704,"true"
"image-keyboard-response",204,230650,"0.0-3.64-1.64","w1cwsowo6sbpnmb",38,"168.csv","","null","resources/maskTrios/BT1B.jpg","null","",NA,NA,NA,NA,""
"image-keyboard-response",205,231852,"0.0-3.64-2.64","w1cwsowo6sbpnmb",38,"168.csv","","null","resources/images/coin2.png","null","",NA,NA,NA,NA,""
"image-keyboard-response",206,231859,"0.0-3.65-0.65","w1cwsowo6sbpnmb",38,"168.csv","","5.900000035762787","resources/trios/L2T2A3.jpg","39","restless",0.7,0.2,0.6,0.509571081565375,"true"
"image-keyboard-response",207,232261,"0.0-3.65-1.65","w1cwsowo6sbpnmb",38,"168.csv","","null","resources/maskTrios/BBA3.jpg","null","",NA,NA,NA,NA,""
"image-keyboard-response",208,233465,"0.0-3.65-2.65","w1cwsowo6sbpnmb",38,"168.csv","","null","resources/images/coin2.png","null","",NA,NA,NA,NA,""
"image-keyboard-response",209,233746,"0.0-3.66-0.66","w1cwsowo6sbpnmb",38,"168.csv","","279.5","resources/trios/L4T1A2.jpg","39","restless",0.7,0.2,0.6,0.25407608442894,"true"
"image-keyboard-response",210,234152,"0.0-3.66-1.66","w1cwsowo6sbpnmb",38,"168.csv","","null","resources/maskTrios/BBA2.jpg","null","",NA,NA,NA,NA,""
"image-keyboard-response",211,235356,"0.0-3.66-2.66","w1cwsowo6sbpnmb",38,"168.csv","","null","resources/images/coin2.png","null","",NA,NA,NA,NA,""
"image-keyboard-response",212,235386,"0.0-3.67-0.67","w1cwsowo6sbpnmb",38,"168.csv","","28","resources/trios/L2T2A3.jpg","38","restless",0.7,0.2,0.6,0.414740877142631,"false"
"image-keyboard-response",213,235789,"0.0-3.67-1.67","w1cwsowo6sbpnmb",38,"168.csv","","null","resources/maskTrios/BT2B.jpg","null","",NA,NA,NA,NA,""
"image-keyboard-response",214,236993,"0.0-3.67-2.67","w1cwsowo6sbpnmb",38,"168.csv","","null","resources/images/fishbone.png","null","",NA,NA,NA,NA,""
"image-keyboard-response",215,237163,"0.0-3.68-0.68","w1cwsowo6sbpnmb",38,"168.csv","","168.80000001192093","resources/trios/L2T2A2.jpg","37","restless",0.7,0.2,0.6,0.776034475141035,"false"
"image-keyboard-response",216,237567,"0.0-3.68-1.68","w1cwsowo6sbpnmb",38,"168.csv","","null","resources/maskTrios/L2BB.jpg","null","",NA,NA,NA,NA,""
"image-keyboard-response",217,238770,"0.0-3.68-2.68","w1cwsowo6sbpnmb",38,"168.csv","","null","resources/images/fishbone.png","null","",NA,NA,NA,NA,""
"image-keyboard-response",218,238856,"0.0-3.69-0.69","w1cwsowo6sbpnmb",38,"168.csv","","84.60000002384186","resources/trios/L4T2A2.jpg","38","restless",0.7,0.2,0.6,0.639054457141481,"false"
"image-keyboard-response",219,239263,"0.0-3.69-1.69","w1cwsowo6sbpnmb",38,"168.csv","","null","resources/maskTrios/BT2B.jpg","null","",NA,NA,NA,NA,""
"image-keyboard-response",220,240467,"0.0-3.69-2.69","w1cwsowo6sbpnmb",38,"168.csv","","null","resources/images/fishbone.png","null","",NA,NA,NA,NA,""
"image-keyboard-response",221,240641,"0.0-3.70-0.70","w1cwsowo6sbpnmb",38,"168.csv","","172.30000001192093","resources/trios/L4T1A3.jpg","37","restless",0.7,0.2,0.6,0.731783067310583,"false"
"image-keyboard-response",222,241045,"0.0-3.70-1.70","w1cwsowo6sbpnmb",38,"168.csv","","null","resources/maskTrios/L4BB.jpg","null","",NA,NA,NA,NA,""
"image-keyboard-response",223,242249,"0.0-3.70-2.70","w1cwsowo6sbpnmb",38,"168.csv","","null","resources/images/fishbone.png","null","",NA,NA,NA,NA,""
"image-keyboard-response",224,242362,"0.0-3.71-0.71","w1cwsowo6sbpnmb",38,"168.csv","","111.30000001192093","resources/trios/L2T1A2.jpg","39","restless",0.6,0.2,0.6,0.139536550500947,"true"
"image-keyboard-response",225,242764,"0.0-3.71-1.71","w1cwsowo6sbpnmb",38,"168.csv","","null","resources/maskTrios/BBA2.jpg","null","",NA,NA,NA,NA,""
"image-keyboard-response",226,243967,"0.0-3.71-2.71","w1cwsowo6sbpnmb",38,"168.csv","","null","resources/images/coin2.png","null","",NA,NA,NA,NA,""
"image-keyboard-response",227,244260,"0.0-3.72-0.72","w1cwsowo6sbpnmb",38,"168.csv","","291.69999998807907","resources/trios/L4T2A2.jpg","39","restless",0.6,0.2,0.6,0.788620922517989,"false"
"image-keyboard-response",228,244664,"0.0-3.72-1.72","w1cwsowo6sbpnmb",38,"168.csv","","null","resources/maskTrios/BBA2.jpg","null","",NA,NA,NA,NA,""
"image-keyboard-response",229,245870,"0.0-3.72-2.72","w1cwsowo6sbpnmb",38,"168.csv","","null","resources/images/fishbone.png","null","",NA,NA,NA,NA,""
"image-keyboard-response",230,245951,"0.0-3.73-0.73","w1cwsowo6sbpnmb",38,"168.csv","","79.39999997615814","resources/trios/L4T2A3.jpg","38","restless",0.6,0.3,0.6,0.800441635495201,"false"
"image-keyboard-response",231,246356,"0.0-3.73-1.73","w1cwsowo6sbpnmb",38,"168.csv","","null","resources/maskTrios/BT2B.jpg","null","",NA,NA,NA,NA,""
"image-keyboard-response",232,247561,"0.0-3.73-2.73","w1cwsowo6sbpnmb",38,"168.csv","","null","resources/images/fishbone.png","null","",NA,NA,NA,NA,""
"image-keyboard-response",233,247827,"0.0-3.74-0.74","w1cwsowo6sbpnmb",38,"168.csv","","263.80000001192093","resources/trios/L4T2A3.jpg","37","restless",0.6,0.4,0.6,0.0301084326989713,"true"
"image-keyboard-response",234,248233,"0.0-3.74-1.74","w1cwsowo6sbpnmb",38,"168.csv","","null","resources/maskTrios/L4BB.jpg","null","",NA,NA,NA,NA,""
"image-keyboard-response",235,249440,"0.0-3.74-2.74","w1cwsowo6sbpnmb",38,"168.csv","","null","resources/images/coin2.png","null","",NA,NA,NA,NA,""
"image-keyboard-response",236,249533,"0.0-3.75-0.75","w1cwsowo6sbpnmb",38,"168.csv","","91.39999997615814","resources/trios/L4T1A3.jpg","38","restless",0.6,0.4,0.6,0.60298523657305,"false"
"image-keyboard-response",237,249940,"0.0-3.75-1.75","w1cwsowo6sbpnmb",38,"168.csv","","null","resources/maskTrios/BT1B.jpg","null","",NA,NA,NA,NA,""
"image-keyboard-response",238,251142,"0.0-3.75-2.75","w1cwsowo6sbpnmb",38,"168.csv","","null","resources/images/fishbone.png","null","",NA,NA,NA,NA,""
"image-keyboard-response",239,251277,"0.0-3.76-0.76","w1cwsowo6sbpnmb",38,"168.csv","","133.9000000357628","resources/trios/L4T1A2.jpg","39","restless",0.6,0.4,0.6,0.711177385173755,"false"
"image-keyboard-response",240,251680,"0.0-3.76-1.76","w1cwsowo6sbpnmb",38,"168.csv","","null","resources/maskTrios/BBA2.jpg","null","",NA,NA,NA,NA,""
"image-keyboard-response",241,252886,"0.0-3.76-2.76","w1cwsowo6sbpnmb",38,"168.csv","","null","resources/images/fishbone.png","null","",NA,NA,NA,NA,""
"image-keyboard-response",242,253016,"0.0-3.77-0.77","w1cwsowo6sbpnmb",38,"168.csv","","128.20000004768372","resources/trios/L4T2A3.jpg","37","restless",0.6,0.4,0.6,0.117681586341564,"true"
"image-keyboard-response",243,253421,"0.0-3.77-1.77","w1cwsowo6sbpnmb",38,"168.csv","","null","resources/maskTrios/L4BB.jpg","null","",NA,NA,NA,NA,""
"image-keyboard-response",244,254626,"0.0-3.77-2.77","w1cwsowo6sbpnmb",38,"168.csv","","null","resources/images/coin2.png","null","",NA,NA,NA,NA,""
"image-keyboard-response",245,254756,"0.0-3.78-0.78","w1cwsowo6sbpnmb",38,"168.csv","","127.80000001192093","resources/trios/L4T2A3.jpg","38","restless",0.6,0.4,0.6,0.0629440567281081,"true"
"image-keyboard-response",246,255162,"0.0-3.78-1.78","w1cwsowo6sbpnmb",38,"168.csv","","null","resources/maskTrios/BT2B.jpg","null","",NA,NA,NA,NA,""
"image-keyboard-response",247,256369,"0.0-3.78-2.78","w1cwsowo6sbpnmb",38,"168.csv","","null","resources/images/coin2.png","null","",NA,NA,NA,NA,""
"image-keyboard-response",248,256764,"0.0-3.79-0.79","w1cwsowo6sbpnmb",38,"168.csv","","392.69999998807907","resources/trios/L4T2A3.jpg","38","restless",0.6,0.4,0.6,0.131306909728894,"true"
"image-keyboard-response",249,257170,"0.0-3.79-1.79","w1cwsowo6sbpnmb",38,"168.csv","","null","resources/maskTrios/BT2B.jpg","null","",NA,NA,NA,NA,""
"image-keyboard-response",250,258375,"0.0-3.79-2.79","w1cwsowo6sbpnmb",38,"168.csv","","null","resources/images/coin2.png","null","",NA,NA,NA,NA,""
"image-keyboard-response",251,258654,"0.0-3.80-0.80","w1cwsowo6sbpnmb",38,"168.csv","","275","resources/trios/L2T2A3.jpg","37","restless",0.6,0.4,0.6,0.158825465556598,"true"
"image-keyboard-response",252,259060,"0.0-3.80-1.80","w1cwsowo6sbpnmb",38,"168.csv","","null","resources/maskTrios/L2BB.jpg","null","",NA,NA,NA,NA,""
"image-keyboard-response",253,260265,"0.0-3.80-2.80","w1cwsowo6sbpnmb",38,"168.csv","","null","resources/images/coin2.png","null","",NA,NA,NA,NA,""
"image-keyboard-response",254,260287,"0.0-3.81-0.81","w1cwsowo6sbpnmb",38,"168.csv","","20.5","resources/trios/L2T2A2.jpg","38","restless",0.6,0.4,0.6,0.939989019465242,"false"
"image-keyboard-response",255,260693,"0.0-3.81-1.81","w1cwsowo6sbpnmb",38,"168.csv","","null","resources/maskTrios/BT2B.jpg","null","",NA,NA,NA,NA,""
"image-keyboard-response",256,261898,"0.0-3.81-2.81","w1cwsowo6sbpnmb",38,"168.csv","","null","resources/images/fishbone.png","null","",NA,NA,NA,NA,""
"image-keyboard-response",257,262052,"0.0-3.82-0.82","w1cwsowo6sbpnmb",38,"168.csv","","152.10000002384186","resources/trios/L2T2A3.jpg","37","restless",0.7,0.4,0.6,0.323987384722536,"true"
"image-keyboard-response",258,262459,"0.0-3.82-1.82","w1cwsowo6sbpnmb",38,"168.csv","","null","resources/maskTrios/L2BB.jpg","null","",NA,NA,NA,NA,""
"image-keyboard-response",259,263661,"0.0-3.82-2.82","w1cwsowo6sbpnmb",38,"168.csv","","null","resources/images/coin2.png","null","",NA,NA,NA,NA,""
"image-keyboard-response",260,263865,"0.0-3.83-0.83","w1cwsowo6sbpnmb",38,"168.csv","","201.79999995231628","resources/trios/L4T1A3.jpg","37","restless",0.7,0.4,0.6,0.517767979607731,"true"
"image-keyboard-response",261,264271,"0.0-3.83-1.83","w1cwsowo6sbpnmb",38,"168.csv","","null","resources/maskTrios/L4BB.jpg","null","",NA,NA,NA,NA,""
"image-keyboard-response",262,265478,"0.0-3.83-2.83","w1cwsowo6sbpnmb",38,"168.csv","","null","resources/images/coin2.png","null","",NA,NA,NA,NA,""
"image-keyboard-response",263,265560,"0.0-3.84-0.84","w1cwsowo6sbpnmb",38,"168.csv","","80.69999998807907","resources/trios/L2T1A2.jpg","37","restless",0.7,0.4,0.6,0.307884501175555,"true"
"image-keyboard-response",264,265964,"0.0-3.84-1.84","w1cwsowo6sbpnmb",38,"168.csv","","null","resources/maskTrios/L2BB.jpg","null","",NA,NA,NA,NA,""
"image-keyboard-response",265,267168,"0.0-3.84-2.84","w1cwsowo6sbpnmb",38,"168.csv","","null","resources/images/coin2.png","null","",NA,NA,NA,NA,""
"image-keyboard-response",266,267234,"0.0-3.85-0.85","w1cwsowo6sbpnmb",38,"168.csv","","64.10000002384186","resources/trios/L4T2A2.jpg","37","restless",0.7,0.4,0.6,0.860976784282332,"false"
"image-keyboard-response",267,267637,"0.0-3.85-1.85","w1cwsowo6sbpnmb",38,"168.csv","","null","resources/maskTrios/L4BB.jpg","null","",NA,NA,NA,NA,""
"image-keyboard-response",268,268842,"0.0-3.85-2.85","w1cwsowo6sbpnmb",38,"168.csv","","null","resources/images/fishbone.png","null","",NA,NA,NA,NA,""
"image-keyboard-response",269,269184,"0.0-3.86-0.86","w1cwsowo6sbpnmb",38,"168.csv","","339.5","resources/trios/L4T1A2.jpg","39","restless",0.7,0.4,0.6,0.345115774077976,"true"
"image-keyboard-response",270,269586,"0.0-3.86-1.86","w1cwsowo6sbpnmb",38,"168.csv","","null","resources/maskTrios/BBA2.jpg","null","",NA,NA,NA,NA,""
"image-keyboard-response",271,270791,"0.0-3.86-2.86","w1cwsowo6sbpnmb",38,"168.csv","","null","resources/images/coin2.png","null","",NA,NA,NA,NA,""
"image-keyboard-response",272,271006,"0.0-3.87-0.87","w1cwsowo6sbpnmb",38,"168.csv","","213.29999995231628","resources/trios/L2T2A3.jpg","39","restless",0.7,0.4,0.6,0.231816876437487,"true"
"image-keyboard-response",273,271409,"0.0-3.87-1.87","w1cwsowo6sbpnmb",38,"168.csv","","null","resources/maskTrios/BBA3.jpg","null","",NA,NA,NA,NA,""
"image-keyboard-response",274,272615,"0.0-3.87-2.87","w1cwsowo6sbpnmb",38,"168.csv","","null","resources/images/coin2.png","null","",NA,NA,NA,NA,""
"image-keyboard-response",275,276111,"0.0-3.88-0.88","w1cwsowo6sbpnmb",38,"168.csv","","3494.400000035763","resources/trios/L2T1A2.jpg","38","restless",0.7,0.4,0.6,0.734251080530854,"false"
"image-keyboard-response",276,276514,"0.0-3.88-1.88","w1cwsowo6sbpnmb",38,"168.csv","","null","resources/maskTrios/BT1B.jpg","null","",NA,NA,NA,NA,""
"image-keyboard-response",277,277717,"0.0-3.88-2.88","w1cwsowo6sbpnmb",38,"168.csv","","null","resources/images/fishbone.png","null","",NA,NA,NA,NA,""
"image-keyboard-response",278,277896,"0.0-3.89-0.89","w1cwsowo6sbpnmb",38,"168.csv","","176.5999999642372","resources/trios/L2T2A3.jpg","38","restless",0.6,0.4,0.6,0.525724139452372,"false"
"image-keyboard-response",279,278301,"0.0-3.89-1.89","w1cwsowo6sbpnmb",38,"168.csv","","null","resources/maskTrios/BT2B.jpg","null","",NA,NA,NA,NA,""
"image-keyboard-response",280,279504,"0.0-3.89-2.89","w1cwsowo6sbpnmb",38,"168.csv","","null","resources/images/fishbone.png","null","",NA,NA,NA,NA,""
"image-keyboard-response",281,279639,"0.0-3.90-0.90","w1cwsowo6sbpnmb",38,"168.csv","","133.5","resources/trios/L4T2A2.jpg","38","restless",0.6,0.4,0.6,0.662362466272819,"false"
"image-keyboard-response",282,280045,"0.0-3.90-1.90","w1cwsowo6sbpnmb",38,"168.csv","","null","resources/maskTrios/BT2B.jpg","null","",NA,NA,NA,NA,""
"image-keyboard-response",283,281250,"0.0-3.90-2.90","w1cwsowo6sbpnmb",38,"168.csv","","null","resources/images/fishbone.png","null","",NA,NA,NA,NA,""
"image-keyboard-response",284,281303,"0.0-3.91-0.91","w1cwsowo6sbpnmb",38,"168.csv","","50.80000001192093","resources/trios/L2T1A2.jpg","37","restless",0.6,0.4,0.5,0.81364518962522,"false"
"image-keyboard-response",285,281709,"0.0-3.91-1.91","w1cwsowo6sbpnmb",38,"168.csv","","null","resources/maskTrios/L2BB.jpg","null","",NA,NA,NA,NA,""
"image-keyboard-response",286,282913,"0.0-3.91-2.91","w1cwsowo6sbpnmb",38,"168.csv","","null","resources/images/fishbone.png","null","",NA,NA,NA,NA,""
"image-keyboard-response",287,282940,"0.0-3.92-0.92","w1cwsowo6sbpnmb",38,"168.csv","","25.80000001192093","resources/trios/L2T1A3.jpg","39","restless",0.7,0.4,0.5,0.0107939275917071,"true"
"image-keyboard-response",288,283345,"0.0-3.92-1.92","w1cwsowo6sbpnmb",38,"168.csv","","null","resources/maskTrios/BBA3.jpg","null","",NA,NA,NA,NA,""
"image-keyboard-response",289,284547,"0.0-3.92-2.92","w1cwsowo6sbpnmb",38,"168.csv","","null","resources/images/coin2.png","null","",NA,NA,NA,NA,""
"image-keyboard-response",290,284765,"0.0-3.93-0.93","w1cwsowo6sbpnmb",38,"168.csv","","215.60000002384186","resources/trios/L2T2A2.jpg","39","restless",0.7,0.4,0.5,0.778666782751956,"false"
"image-keyboard-response",291,285168,"0.0-3.93-1.93","w1cwsowo6sbpnmb",38,"168.csv","","null","resources/maskTrios/BBA2.jpg","null","",NA,NA,NA,NA,""
"image-keyboard-response",292,286370,"0.0-3.93-2.93","w1cwsowo6sbpnmb",38,"168.csv","","null","resources/images/fishbone.png","null","",NA,NA,NA,NA,""
"image-keyboard-response",293,286537,"0.0-3.94-0.94","w1cwsowo6sbpnmb",38,"168.csv","","164.80000001192093","resources/trios/L2T2A3.jpg","37","restless",0.7,0.4,0.5,0.72180508406384,"false"
"image-keyboard-response",294,286940,"0.0-3.94-1.94","w1cwsowo6sbpnmb",38,"168.csv","","null","resources/maskTrios/L2BB.jpg","null","",NA,NA,NA,NA,""
"image-keyboard-response",295,288141,"0.0-3.94-2.94","w1cwsowo6sbpnmb",38,"168.csv","","null","resources/images/fishbone.png","null","",NA,NA,NA,NA,""
"image-keyboard-response",296,288363,"0.0-3.95-0.95","w1cwsowo6sbpnmb",38,"168.csv","","219.5","resources/trios/L4T1A3.jpg","37","restless",0.7,0.4,0.5,0.960897570080948,"false"
"image-keyboard-response",297,288765,"0.0-3.95-1.95","w1cwsowo6sbpnmb",38,"168.csv","","null","resources/maskTrios/L4BB.jpg","null","",NA,NA,NA,NA,""
"image-keyboard-response",298,289968,"0.0-3.95-2.95","w1cwsowo6sbpnmb",38,"168.csv","","null","resources/images/fishbone.png","null","",NA,NA,NA,NA,""
"image-keyboard-response",299,290202,"0.0-3.96-0.96","w1cwsowo6sbpnmb",38,"168.csv","","232.19999998807907","resources/trios/L4T1A3.jpg","37","restless",0.7,0.4,0.5,0.304016107532811,"true"
"image-keyboard-response",300,290606,"0.0-3.96-1.96","w1cwsowo6sbpnmb",38,"168.csv","","null","resources/maskTrios/L4BB.jpg","null","",NA,NA,NA,NA,""
"image-keyboard-response",301,291811,"0.0-3.96-2.96","w1cwsowo6sbpnmb",38,"168.csv","","null","resources/images/coin2.png","null","",NA,NA,NA,NA,""
"image-keyboard-response",302,291903,"0.0-3.97-0.97","w1cwsowo6sbpnmb",38,"168.csv","","91.10000002384186","resources/trios/L2T2A2.jpg","39","restless",0.7,0.4,0.5,0.504290635663808,"false"
"image-keyboard-response",303,292307,"0.0-3.97-1.97","w1cwsowo6sbpnmb",38,"168.csv","","null","resources/maskTrios/BBA2.jpg","null","",NA,NA,NA,NA,""
"image-keyboard-response",304,293511,"0.0-3.97-2.97","w1cwsowo6sbpnmb",38,"168.csv","","null","resources/images/fishbone.png","null","",NA,NA,NA,NA,""
"image-keyboard-response",305,294058,"0.0-3.98-0.98","w1cwsowo6sbpnmb",38,"168.csv","","545.1999999880791","resources/trios/L2T2A3.jpg","39","restless",0.7,0.4,0.5,0.276249333549139,"true"
"image-keyboard-response",306,294460,"0.0-3.98-1.98","w1cwsowo6sbpnmb",38,"168.csv","","null","resources/maskTrios/BBA3.jpg","null","",NA,NA,NA,NA,""
"image-keyboard-response",307,295663,"0.0-3.98-2.98","w1cwsowo6sbpnmb",38,"168.csv","","null","resources/images/coin2.png","null","",NA,NA,NA,NA,""
"image-keyboard-response",308,295872,"0.0-3.99-0.99","w1cwsowo6sbpnmb",38,"168.csv","","207.69999998807907","resources/trios/L4T2A3.jpg","37","restless",0.7,0.4,0.5,0.0910066691372784,"true"
"image-keyboard-response",309,296276,"0.0-3.99-1.99","w1cwsowo6sbpnmb",38,"168.csv","","null","resources/maskTrios/L4BB.jpg","null","",NA,NA,NA,NA,""
"image-keyboard-response",310,297478,"0.0-3.99-2.99","w1cwsowo6sbpnmb",38,"168.csv","","null","resources/images/coin2.png","null","",NA,NA,NA,NA,""
"image-keyboard-response",311,297496,"0.0-3.100-0.100","w1cwsowo6sbpnmb",38,"168.csv","","16.099999964237213","resources/trios/L4T1A2.jpg","38","restless",0.7,0.4,0.5,0.0194600123041071,"true"
"image-keyboard-response",312,297899,"0.0-3.100-1.100","w1cwsowo6sbpnmb",38,"168.csv","","null","resources/maskTrios/BT1B.jpg","null","",NA,NA,NA,NA,""
"image-keyboard-response",313,299107,"0.0-3.100-2.100","w1cwsowo6sbpnmb",38,"168.csv","","null","resources/images/coin2.png","null","",NA,NA,NA,NA,""
"image-keyboard-response",314,299146,"0.0-3.101-0.101","w1cwsowo6sbpnmb",38,"168.csv","","37.5","resources/trios/L4T2A3.jpg","39","restless",0.7,0.4,0.5,0.777863116925529,"false"
"image-keyboard-response",315,299549,"0.0-3.101-1.101","w1cwsowo6sbpnmb",38,"168.csv","","null","resources/maskTrios/BBA3.jpg","null","",NA,NA,NA,NA,""
"image-keyboard-response",316,300751,"0.0-3.101-2.101","w1cwsowo6sbpnmb",38,"168.csv","","null","resources/images/fishbone.png","null","",NA,NA,NA,NA,""
"image-keyboard-response",317,300905,"0.0-3.102-0.102","w1cwsowo6sbpnmb",38,"168.csv","","151.5","resources/trios/L4T1A2.jpg","37","restless",0.7,0.4,0.4,0.782401014164479,"false"
"image-keyboard-response",318,301310,"0.0-3.102-1.102","w1cwsowo6sbpnmb",38,"168.csv","","null","resources/maskTrios/L4BB.jpg","null","",NA,NA,NA,NA,""
"image-keyboard-response",319,302512,"0.0-3.102-2.102","w1cwsowo6sbpnmb",38,"168.csv","","null","resources/images/fishbone.png","null","",NA,NA,NA,NA,""
"image-keyboard-response",320,302600,"0.0-3.103-0.103","w1cwsowo6sbpnmb",38,"168.csv","","85.30000001192093","resources/trios/L4T1A2.jpg","37","restless",0.7,0.4,0.3,0.405288556396875,"true"
"image-keyboard-response",321,303002,"0.0-3.103-1.103","w1cwsowo6sbpnmb",38,"168.csv","","null","resources/maskTrios/L4BB.jpg","null","",NA,NA,NA,NA,""
"image-keyboard-response",322,304206,"0.0-3.103-2.103","w1cwsowo6sbpnmb",38,"168.csv","","null","resources/images/coin2.png","null","",NA,NA,NA,NA,""
"image-keyboard-response",323,304331,"0.0-3.104-0.104","w1cwsowo6sbpnmb",38,"168.csv","","123.10000002384186","resources/trios/L4T1A2.jpg","39","restless",0.7,0.4,0.3,0.0538803452401422,"true"
"image-keyboard-response",324,304733,"0.0-3.104-1.104","w1cwsowo6sbpnmb",38,"168.csv","","null","resources/maskTrios/BBA2.jpg","null","",NA,NA,NA,NA,""
"image-keyboard-response",325,305936,"0.0-3.104-2.104","w1cwsowo6sbpnmb",38,"168.csv","","null","resources/images/coin2.png","null","",NA,NA,NA,NA,""
"image-keyboard-response",326,305986,"0.0-3.105-0.105","w1cwsowo6sbpnmb",38,"168.csv","","48.09999996423721","resources/trios/L2T2A2.jpg","37","restless",0.7,0.4,0.3,0.256587018928592,"true"
"image-keyboard-response",327,306389,"0.0-3.105-1.105","w1cwsowo6sbpnmb",38,"168.csv","","null","resources/maskTrios/L2BB.jpg","null","",NA,NA,NA,NA,""
"image-keyboard-response",328,307594,"0.0-3.105-2.105","w1cwsowo6sbpnmb",38,"168.csv","","null","resources/images/coin2.png","null","",NA,NA,NA,NA,""
"image-keyboard-response",329,307670,"0.0-3.106-0.106","w1cwsowo6sbpnmb",38,"168.csv","","74.10000002384186","resources/trios/L4T2A3.jpg","38","restless",0.7,0.4,0.3,0.149349978422478,"true"
"image-keyboard-response",330,308074,"0.0-3.106-1.106","w1cwsowo6sbpnmb",38,"168.csv","","null","resources/maskTrios/BT2B.jpg","null","",NA,NA,NA,NA,""
"image-keyboard-response",331,309277,"0.0-3.106-2.106","w1cwsowo6sbpnmb",38,"168.csv","","null","resources/images/coin2.png","null","",NA,NA,NA,NA,""
"image-keyboard-response",332,309366,"0.0-3.107-0.107","w1cwsowo6sbpnmb",38,"168.csv","","87.19999998807907","resources/trios/L2T1A3.jpg","38","restless",0.7,0.4,0.3,0.251908381727254,"true"
"image-keyboard-response",333,309771,"0.0-3.107-1.107","w1cwsowo6sbpnmb",38,"168.csv","","null","resources/maskTrios/BT1B.jpg","null","",NA,NA,NA,NA,""
"image-keyboard-response",334,310976,"0.0-3.107-2.107","w1cwsowo6sbpnmb",38,"168.csv","","null","resources/images/coin2.png","null","",NA,NA,NA,NA,""
"image-keyboard-response",335,311041,"0.0-3.108-0.108","w1cwsowo6sbpnmb",38,"168.csv","","63.700000047683716","resources/trios/L2T1A2.jpg","38","restless",0.7,0.5,0.3,0.946082512102821,"false"
"image-keyboard-response",336,311446,"0.0-3.108-1.108","w1cwsowo6sbpnmb",38,"168.csv","","null","resources/maskTrios/BT1B.jpg","null","",NA,NA,NA,NA,""
"image-keyboard-response",337,312648,"0.0-3.108-2.108","w1cwsowo6sbpnmb",38,"168.csv","","null","resources/images/fishbone.png","null","",NA,NA,NA,NA,""
"image-keyboard-response",338,312737,"0.0-3.109-0.109","w1cwsowo6sbpnmb",38,"168.csv","","87.30000001192093","resources/trios/L2T1A3.jpg","38","restless",0.7,0.5,0.3,0.0551947514684858,"true"
"image-keyboard-response",339,313142,"0.0-3.109-1.109","w1cwsowo6sbpnmb",38,"168.csv","","null","resources/maskTrios/BT1B.jpg","null","",NA,NA,NA,NA,""
"image-keyboard-response",340,314349,"0.0-3.109-2.109","w1cwsowo6sbpnmb",38,"168.csv","","null","resources/images/coin2.png","null","",NA,NA,NA,NA,""
"image-keyboard-response",341,314400,"0.0-3.110-0.110","w1cwsowo6sbpnmb",38,"168.csv","","49.39999997615814","resources/trios/L4T1A2.jpg","38","restless",0.7,0.5,0.3,0.324666873769686,"true"
"image-keyboard-response",342,314802,"0.0-3.110-1.110","w1cwsowo6sbpnmb",38,"168.csv","","null","resources/maskTrios/BT1B.jpg","null","",NA,NA,NA,NA,""
"image-keyboard-response",343,316007,"0.0-3.110-2.110","w1cwsowo6sbpnmb",38,"168.csv","","null","resources/images/coin2.png","null","",NA,NA,NA,NA,""
"image-keyboard-response",344,316021,"0.0-3.111-0.111","w1cwsowo6sbpnmb",38,"168.csv","","13.400000035762787","resources/trios/L4T1A3.jpg","37","restless",0.7,0.5,0.3,0.393343618585819,"true"
"image-keyboard-response",345,316428,"0.0-3.111-1.111","w1cwsowo6sbpnmb",38,"168.csv","","null","resources/maskTrios/L4BB.jpg","null","",NA,NA,NA,NA,""
"image-keyboard-response",346,317635,"0.0-3.111-2.111","w1cwsowo6sbpnmb",38,"168.csv","","null","resources/images/coin2.png","null","",NA,NA,NA,NA,""
"image-keyboard-response",347,317704,"0.0-3.112-0.112","w1cwsowo6sbpnmb",38,"168.csv","","67.29999995231628","resources/trios/L2T1A2.jpg","37","restless",0.7,0.5,0.4,0.00496751412407082,"true"
"image-keyboard-response",348,318106,"0.0-3.112-1.112","w1cwsowo6sbpnmb",38,"168.csv","","null","resources/maskTrios/L2BB.jpg","null","",NA,NA,NA,NA,""
"image-keyboard-response",349,319311,"0.0-3.112-2.112","w1cwsowo6sbpnmb",38,"168.csv","","null","resources/images/coin2.png","null","",NA,NA,NA,NA,""
"image-keyboard-response",350,319420,"0.0-3.113-0.113","w1cwsowo6sbpnmb",38,"168.csv","","107.5","resources/trios/L4T2A3.jpg","37","restless",0.7,0.5,0.4,0.947035426885497,"false"
"image-keyboard-response",351,319827,"0.0-3.113-1.113","w1cwsowo6sbpnmb",38,"168.csv","","null","resources/maskTrios/L4BB.jpg","null","",NA,NA,NA,NA,""
"image-keyboard-response",352,321031,"0.0-3.113-2.113","w1cwsowo6sbpnmb",38,"168.csv","","null","resources/images/fishbone.png","null","",NA,NA,NA,NA,""
"image-keyboard-response",353,321054,"0.0-3.114-0.114","w1cwsowo6sbpnmb",38,"168.csv","","20.399999976158142","resources/trios/L2T2A3.jpg","37","restless",0.7,0.5,0.4,0.289149669552954,"true"
"image-keyboard-response",354,321460,"0.0-3.114-1.114","w1cwsowo6sbpnmb",38,"168.csv","","null","resources/maskTrios/L2BB.jpg","null","",NA,NA,NA,NA,""
"image-keyboard-response",355,322662,"0.0-3.114-2.114","w1cwsowo6sbpnmb",38,"168.csv","","null","resources/images/coin2.png","null","",NA,NA,NA,NA,""
"image-keyboard-response",356,322702,"0.0-3.115-0.115","w1cwsowo6sbpnmb",38,"168.csv","","37.69999998807907","resources/trios/L4T1A2.jpg","38","restless",0.8,0.5,0.4,0.751307354707277,"false"
"image-keyboard-response",357,323105,"0.0-3.115-1.115","w1cwsowo6sbpnmb",38,"168.csv","","null","resources/maskTrios/BT1B.jpg","null","",NA,NA,NA,NA,""
"image-keyboard-response",358,324308,"0.0-3.115-2.115","w1cwsowo6sbpnmb",38,"168.csv","","null","resources/images/fishbone.png","null","",NA,NA,NA,NA,""
"image-keyboard-response",359,324317,"0.0-3.116-0.116","w1cwsowo6sbpnmb",38,"168.csv","","5.599999964237213","resources/trios/L4T1A3.jpg","38","restless",0.7,0.6,0.4,0.104572603085522,"true"
"image-keyboard-response",360,324720,"0.0-3.116-1.116","w1cwsowo6sbpnmb",38,"168.csv","","null","resources/maskTrios/BT1B.jpg","null","",NA,NA,NA,NA,""
"image-keyboard-response",361,325923,"0.0-3.116-2.116","w1cwsowo6sbpnmb",38,"168.csv","","null","resources/images/coin2.png","null","",NA,NA,NA,NA,""
"image-keyboard-response",362,326049,"0.0-3.117-0.117","w1cwsowo6sbpnmb",38,"168.csv","","124.10000002384186","resources/trios/L4T1A3.jpg","39","restless",0.7,0.6,0.5,0.615619751393713,"false"
"image-keyboard-response",363,326456,"0.0-3.117-1.117","w1cwsowo6sbpnmb",38,"168.csv","","null","resources/maskTrios/BBA3.jpg","null","",NA,NA,NA,NA,""
"image-keyboard-response",364,327660,"0.0-3.117-2.117","w1cwsowo6sbpnmb",38,"168.csv","","null","resources/images/fishbone.png","null","",NA,NA,NA,NA,""
"image-keyboard-response",365,327770,"0.0-3.118-0.118","w1cwsowo6sbpnmb",38,"168.csv","","108.19999998807907","resources/trios/L2T1A2.jpg","37","restless",0.7,0.6,0.5,0.455399402339179,"true"
"image-keyboard-response",366,328172,"0.0-3.118-1.118","w1cwsowo6sbpnmb",38,"168.csv","","null","resources/maskTrios/L2BB.jpg","null","",NA,NA,NA,NA,""
"image-keyboard-response",367,329375,"0.0-3.118-2.118","w1cwsowo6sbpnmb",38,"168.csv","","null","resources/images/coin2.png","null","",NA,NA,NA,NA,""
"image-keyboard-response",368,329418,"0.0-3.119-0.119","w1cwsowo6sbpnmb",38,"168.csv","","40.69999998807907","resources/trios/L4T2A2.jpg","38","restless",0.7,0.6,0.5,0.0954153878594131,"true"
"image-keyboard-response",369,329823,"0.0-3.119-1.119","w1cwsowo6sbpnmb",38,"168.csv","","null","resources/maskTrios/BT2B.jpg","null","",NA,NA,NA,NA,""
"image-keyboard-response",370,331026,"0.0-3.119-2.119","w1cwsowo6sbpnmb",38,"168.csv","","null","resources/images/coin2.png","null","",NA,NA,NA,NA,""
"image-keyboard-response",371,331094,"0.0-3.120-0.120","w1cwsowo6sbpnmb",38,"168.csv","","66.80000001192093","resources/trios/L4T1A3.jpg","37","restless",0.7,0.6,0.5,0.148039519631422,"true"
"image-keyboard-response",372,331500,"0.0-3.120-1.120","w1cwsowo6sbpnmb",38,"168.csv","","null","resources/maskTrios/L4BB.jpg","null","",NA,NA,NA,NA,""
"image-keyboard-response",373,332705,"0.0-3.120-2.120","w1cwsowo6sbpnmb",38,"168.csv","","null","resources/images/coin2.png","null","",NA,NA,NA,NA,""
"image-keyboard-response",374,332793,"0.0-3.121-0.121","w1cwsowo6sbpnmb",38,"168.csv","","86.5","resources/trios/L4T1A3.jpg","37","restless",0.6,0.6,0.5,0.348865416401359,"true"
"image-keyboard-response",375,333196,"0.0-3.121-1.121","w1cwsowo6sbpnmb",38,"168.csv","","null","resources/maskTrios/L4BB.jpg","null","",NA,NA,NA,NA,""
"image-keyboard-response",376,334401,"0.0-3.121-2.121","w1cwsowo6sbpnmb",38,"168.csv","","null","resources/images/coin2.png","null","",NA,NA,NA,NA,""
"image-keyboard-response",377,334441,"0.0-3.122-0.122","w1cwsowo6sbpnmb",38,"168.csv","","38.5","resources/trios/L4T2A3.jpg","37","restless",0.6,0.6,0.5,0.090035115284463,"true"
"image-keyboard-response",378,334845,"0.0-3.122-1.122","w1cwsowo6sbpnmb",38,"168.csv","","null","resources/maskTrios/L4BB.jpg","null","",NA,NA,NA,NA,""
"image-keyboard-response",379,336047,"0.0-3.122-2.122","w1cwsowo6sbpnmb",38,"168.csv","","null","resources/images/coin2.png","null","",NA,NA,NA,NA,""
"image-keyboard-response",380,336061,"0.0-3.123-0.123","w1cwsowo6sbpnmb",38,"168.csv","","12","resources/trios/L2T1A3.jpg","39","restless",0.6,0.6,0.5,0.259489960178259,"true"
"image-keyboard-response",381,336463,"0.0-3.123-1.123","w1cwsowo6sbpnmb",38,"168.csv","","null","resources/maskTrios/BBA3.jpg","null","",NA,NA,NA,NA,""
"image-keyboard-response",382,337665,"0.0-3.123-2.123","w1cwsowo6sbpnmb",38,"168.csv","","null","resources/images/coin2.png","null","",NA,NA,NA,NA,""
"image-keyboard-response",383,337702,"0.0-3.124-0.124","w1cwsowo6sbpnmb",38,"168.csv","","35.30000001192093","resources/trios/L2T2A2.jpg","38","restless",0.6,0.6,0.5,0.969434389687057,"false"
"image-keyboard-response",384,338107,"0.0-3.124-1.124","w1cwsowo6sbpnmb",38,"168.csv","","null","resources/maskTrios/BT2B.jpg","null","",NA,NA,NA,NA,""
"image-keyboard-response",385,339308,"0.0-3.124-2.124","w1cwsowo6sbpnmb",38,"168.csv","","null","resources/images/fishbone.png","null","",NA,NA,NA,NA,""
"image-keyboard-response",386,339618,"0.0-3.125-0.125","w1cwsowo6sbpnmb",38,"168.csv","","308.39999997615814","resources/trios/L2T2A3.jpg","37","restless",0.6,0.6,0.5,0.586439240881356,"true"
"image-keyboard-response",387,340024,"0.0-3.125-1.125","w1cwsowo6sbpnmb",38,"168.csv","","null","resources/maskTrios/L2BB.jpg","null","",NA,NA,NA,NA,""
"image-keyboard-response",388,341227,"0.0-3.125-2.125","w1cwsowo6sbpnmb",38,"168.csv","","null","resources/images/coin2.png","null","",NA,NA,NA,NA,""
"image-keyboard-response",389,341263,"0.0-3.126-0.126","w1cwsowo6sbpnmb",38,"168.csv","","34.10000002384186","resources/trios/L2T1A2.jpg","37","restless",0.6,0.6,0.5,0.158969923615582,"true"
"image-keyboard-response",390,341666,"0.0-3.126-1.126","w1cwsowo6sbpnmb",38,"168.csv","","null","resources/maskTrios/L2BB.jpg","null","",NA,NA,NA,NA,""
"image-keyboard-response",391,342869,"0.0-3.126-2.126","w1cwsowo6sbpnmb",38,"168.csv","","null","resources/images/coin2.png","null","",NA,NA,NA,NA,""
"image-keyboard-response",392,342970,"0.0-3.127-0.127","w1cwsowo6sbpnmb",38,"168.csv","","99.79999995231628","resources/trios/L4T1A2.jpg","37","restless",0.6,0.6,0.5,0.906432829089791,"false"
"image-keyboard-response",393,343373,"0.0-3.127-1.127","w1cwsowo6sbpnmb",38,"168.csv","","null","resources/maskTrios/L4BB.jpg","null","",NA,NA,NA,NA,""
"image-keyboard-response",394,344576,"0.0-3.127-2.127","w1cwsowo6sbpnmb",38,"168.csv","","null","resources/images/fishbone.png","null","",NA,NA,NA,NA,""
"image-keyboard-response",395,344621,"0.0-3.128-0.128","w1cwsowo6sbpnmb",38,"168.csv","","42.80000001192093","resources/trios/L2T2A2.jpg","37","restless",0.6,0.6,0.5,0.207000552935319,"true"
"image-keyboard-response",396,345023,"0.0-3.128-1.128","w1cwsowo6sbpnmb",38,"168.csv","","null","resources/maskTrios/L2BB.jpg","null","",NA,NA,NA,NA,""
"image-keyboard-response",397,346229,"0.0-3.128-2.128","w1cwsowo6sbpnmb",38,"168.csv","","null","resources/images/coin2.png","null","",NA,NA,NA,NA,""
"image-keyboard-response",398,346318,"0.0-3.129-0.129","w1cwsowo6sbpnmb",38,"168.csv","","87.19999998807907","resources/trios/L4T2A2.jpg","38","restless",0.6,0.6,0.5,0.851556273894887,"false"
"image-keyboard-response",399,346722,"0.0-3.129-1.129","w1cwsowo6sbpnmb",38,"168.csv","","null","resources/maskTrios/BT2B.jpg","null","",NA,NA,NA,NA,""
"image-keyboard-response",400,347929,"0.0-3.129-2.129","w1cwsowo6sbpnmb",38,"168.csv","","null","resources/images/fishbone.png","null","",NA,NA,NA,NA,""
"image-keyboard-response",401,347940,"0.0-3.130-0.130","w1cwsowo6sbpnmb",38,"168.csv","","9.399999976158142","resources/trios/L2T2A2.jpg","39","restless",0.6,0.6,0.5,0.800549224835784,"false"
"image-keyboard-response",402,348343,"0.0-3.130-1.130","w1cwsowo6sbpnmb",38,"168.csv","","null","resources/maskTrios/BBA2.jpg","null","",NA,NA,NA,NA,""
"image-keyboard-response",403,349547,"0.0-3.130-2.130","w1cwsowo6sbpnmb",38,"168.csv","","null","resources/images/fishbone.png","null","",NA,NA,NA,NA,""
"image-keyboard-response",404,349823,"0.0-3.131-0.131","w1cwsowo6sbpnmb",38,"168.csv","","274.10000002384186","resources/trios/L2T2A2.jpg","38","restless",0.6,0.6,0.4,0.240772290413836,"true"
"image-keyboard-response",405,350227,"0.0-3.131-1.131","w1cwsowo6sbpnmb",38,"168.csv","","null","resources/maskTrios/BT2B.jpg","null","",NA,NA,NA,NA,""
"image-keyboard-response",406,351430,"0.0-3.131-2.131","w1cwsowo6sbpnmb",38,"168.csv","","null","resources/images/coin2.png","null","",NA,NA,NA,NA,""
"image-keyboard-response",407,351610,"0.0-3.132-0.132","w1cwsowo6sbpnmb",38,"168.csv","","179.19999998807907","resources/trios/L4T2A3.jpg","37","restless",0.6,0.6,0.4,0.365583585595982,"true"
"image-keyboard-response",408,352014,"0.0-3.132-1.132","w1cwsowo6sbpnmb",38,"168.csv","","null","resources/maskTrios/L4BB.jpg","null","",NA,NA,NA,NA,""
"image-keyboard-response",409,353219,"0.0-3.132-2.132","w1cwsowo6sbpnmb",38,"168.csv","","null","resources/images/coin2.png","null","",NA,NA,NA,NA,""
"image-keyboard-response",410,353370,"0.0-3.133-0.133","w1cwsowo6sbpnmb",38,"168.csv","","149.89999997615814","resources/trios/L4T1A3.jpg","38","restless",0.6,0.6,0.4,0.505204980215421,"true"
"image-keyboard-response",411,353776,"0.0-3.133-1.133","w1cwsowo6sbpnmb",38,"168.csv","","null","resources/maskTrios/BT1B.jpg","null","",NA,NA,NA,NA,""
"image-keyboard-response",412,354979,"0.0-3.133-2.133","w1cwsowo6sbpnmb",38,"168.csv","","null","resources/images/coin2.png","null","",NA,NA,NA,NA,""
"image-keyboard-response",413,354993,"0.0-3.134-0.134","w1cwsowo6sbpnmb",38,"168.csv","","13.100000023841858","resources/trios/L2T2A3.jpg","37","restless",0.6,0.6,0.4,0.398406790552502,"true"
"image-keyboard-response",414,355395,"0.0-3.134-1.134","w1cwsowo6sbpnmb",38,"168.csv","","null","resources/maskTrios/L2BB.jpg","null","",NA,NA,NA,NA,""
"image-keyboard-response",415,356602,"0.0-3.134-2.134","w1cwsowo6sbpnmb",38,"168.csv","","null","resources/images/coin2.png","null","",NA,NA,NA,NA,""
"image-keyboard-response",416,356688,"0.0-3.135-0.135","w1cwsowo6sbpnmb",38,"168.csv","","84.59999996423721","resources/trios/L4T1A2.jpg","38","restless",0.6,0.6,0.4,0.733047925614541,"false"
"image-keyboard-response",417,357091,"0.0-3.135-1.135","w1cwsowo6sbpnmb",38,"168.csv","","null","resources/maskTrios/BT1B.jpg","null","",NA,NA,NA,NA,""
"image-keyboard-response",418,358297,"0.0-3.135-2.135","w1cwsowo6sbpnmb",38,"168.csv","","null","resources/images/fishbone.png","null","",NA,NA,NA,NA,""
"image-keyboard-response",419,358306,"0.0-3.136-0.136","w1cwsowo6sbpnmb",38,"168.csv","","7.299999952316284","resources/trios/L4T2A2.jpg","39","restless",0.6,0.5,0.4,0.0810991019185989,"true"
"image-keyboard-response",420,358712,"0.0-3.136-1.136","w1cwsowo6sbpnmb",38,"168.csv","","null","resources/maskTrios/BBA2.jpg","null","",NA,NA,NA,NA,""
"image-keyboard-response",421,359915,"0.0-3.136-2.136","w1cwsowo6sbpnmb",38,"168.csv","","null","resources/images/coin2.png","null","",NA,NA,NA,NA,""
"image-keyboard-response",422,360597,"0.0-3.137-0.137","w1cwsowo6sbpnmb",38,"168.csv","","680.8999999761581","resources/trios/L4T2A2.jpg","38","restless",0.5,0.5,0.4,0.916964268860207,"false"
"image-keyboard-response",423,361001,"0.0-3.137-1.137","w1cwsowo6sbpnmb",38,"168.csv","","null","resources/maskTrios/BT2B.jpg","null","",NA,NA,NA,NA,""
"image-keyboard-response",424,362203,"0.0-3.137-2.137","w1cwsowo6sbpnmb",38,"168.csv","","null","resources/images/fishbone.png","null","",NA,NA,NA,NA,""
"image-keyboard-response",425,362309,"0.0-3.138-0.138","w1cwsowo6sbpnmb",38,"168.csv","","104.80000001192093","resources/trios/L4T2A2.jpg","39","restless",0.5,0.5,0.4,0.618278424170676,"false"
"image-keyboard-response",426,362713,"0.0-3.138-1.138","w1cwsowo6sbpnmb",38,"168.csv","","null","resources/maskTrios/BBA2.jpg","null","",NA,NA,NA,NA,""
"image-keyboard-response",427,363916,"0.0-3.138-2.138","w1cwsowo6sbpnmb",38,"168.csv","","null","resources/images/fishbone.png","null","",NA,NA,NA,NA,""
"image-keyboard-response",428,364042,"0.0-3.139-0.139","w1cwsowo6sbpnmb",38,"168.csv","","124.80000001192093","resources/trios/L2T2A2.jpg","37","restless",0.5,0.5,0.4,0.373937306841059,"true"
"image-keyboard-response",429,364446,"0.0-3.139-1.139","w1cwsowo6sbpnmb",38,"168.csv","","null","resources/maskTrios/L2BB.jpg","null","",NA,NA,NA,NA,""
"image-keyboard-response",430,365648,"0.0-3.139-2.139","w1cwsowo6sbpnmb",38,"168.csv","","null","resources/images/coin2.png","null","",NA,NA,NA,NA,""
"image-keyboard-response",431,365705,"0.0-3.140-0.140","w1cwsowo6sbpnmb",38,"168.csv","","55.5","resources/trios/L4T2A2.jpg","38","restless",0.5,0.5,0.4,0.140319391879643,"true"
"image-keyboard-response",432,366110,"0.0-3.140-1.140","w1cwsowo6sbpnmb",38,"168.csv","","null","resources/maskTrios/BT2B.jpg","null","",NA,NA,NA,NA,""
"image-keyboard-response",433,367316,"0.0-3.140-2.140","w1cwsowo6sbpnmb",38,"168.csv","","null","resources/images/coin2.png","null","",NA,NA,NA,NA,""
"image-keyboard-response",434,367373,"0.0-3.141-0.141","w1cwsowo6sbpnmb",38,"168.csv","","55.60000002384186","resources/trios/L4T2A3.jpg","39","restless",0.6,0.5,0.4,0.825129148556057,"false"
"image-keyboard-response",435,367776,"0.0-3.141-1.141","w1cwsowo6sbpnmb",38,"168.csv","","null","resources/maskTrios/BBA3.jpg","null","",NA,NA,NA,NA,""
"image-keyboard-response",436,368983,"0.0-3.141-2.141","w1cwsowo6sbpnmb",38,"168.csv","","null","resources/images/fishbone.png","null","",NA,NA,NA,NA,""
"image-keyboard-response",437,369034,"0.0-3.142-0.142","w1cwsowo6sbpnmb",38,"168.csv","","50","resources/trios/L2T2A3.jpg","37","restless",0.6,0.5,0.4,0.24083535760081,"true"
"image-keyboard-response",438,369441,"0.0-3.142-1.142","w1cwsowo6sbpnmb",38,"168.csv","","null","resources/maskTrios/L2BB.jpg","null","",NA,NA,NA,NA,""
"image-keyboard-response",439,370643,"0.0-3.142-2.142","w1cwsowo6sbpnmb",38,"168.csv","","null","resources/images/coin2.png","null","",NA,NA,NA,NA,""
"image-keyboard-response",440,370681,"0.0-3.143-0.143","w1cwsowo6sbpnmb",38,"168.csv","","37.19999998807907","resources/trios/L4T1A2.jpg","37","restless",0.5,0.5,0.4,0.832421375275794,"false"
"image-keyboard-response",441,371088,"0.0-3.143-1.143","w1cwsowo6sbpnmb",38,"168.csv","","null","resources/maskTrios/L4BB.jpg","null","",NA,NA,NA,NA,""
"image-keyboard-response",442,372293,"0.0-3.143-2.143","w1cwsowo6sbpnmb",38,"168.csv","","null","resources/images/fishbone.png","null","",NA,NA,NA,NA,""
"image-keyboard-response",443,372314,"0.0-3.144-0.144","w1cwsowo6sbpnmb",38,"168.csv","","19.5","resources/trios/L2T2A3.jpg","37","restless",0.5,0.5,0.4,0.667226910128678,"false"
"image-keyboard-response",444,372721,"0.0-3.144-1.144","w1cwsowo6sbpnmb",38,"168.csv","","null","resources/maskTrios/L2BB.jpg","null","",NA,NA,NA,NA,""
"image-keyboard-response",445,373925,"0.0-3.144-2.144","w1cwsowo6sbpnmb",38,"168.csv","","null","resources/images/fishbone.png","null","",NA,NA,NA,NA,""
"image-keyboard-response",446,374088,"0.0-3.145-0.145","w1cwsowo6sbpnmb",38,"168.csv","","162.10000002384186","resources/trios/L4T2A3.jpg","37","restless",0.6,0.5,0.4,0.00201341426942481,"true"
"image-keyboard-response",447,374491,"0.0-3.145-1.145","w1cwsowo6sbpnmb",38,"168.csv","","null","resources/maskTrios/L4BB.jpg","null","",NA,NA,NA,NA,""
"image-keyboard-response",448,375697,"0.0-3.145-2.145","w1cwsowo6sbpnmb",38,"168.csv","","null","resources/images/coin2.png","null","",NA,NA,NA,NA,""
"image-keyboard-response",449,375743,"0.0-3.146-0.146","w1cwsowo6sbpnmb",38,"168.csv","","44.30000001192093","resources/trios/L4T1A3.jpg","37","restless",0.6,0.5,0.4,0.564351416187681,"true"
"image-keyboard-response",450,376145,"0.0-3.146-1.146","w1cwsowo6sbpnmb",38,"168.csv","","null","resources/maskTrios/L4BB.jpg","null","",NA,NA,NA,NA,""
"image-keyboard-response",451,377348,"0.0-3.146-2.146","w1cwsowo6sbpnmb",38,"168.csv","","null","resources/images/coin2.png","null","",NA,NA,NA,NA,""
"image-keyboard-response",452,377418,"0.0-3.147-0.147","w1cwsowo6sbpnmb",38,"168.csv","","68.5","resources/trios/L2T2A3.jpg","37","restless",0.6,0.5,0.4,0.842709759676303,"false"
"image-keyboard-response",453,377825,"0.0-3.147-1.147","w1cwsowo6sbpnmb",38,"168.csv","","null","resources/maskTrios/L2BB.jpg","null","",NA,NA,NA,NA,""
"image-keyboard-response",454,379029,"0.0-3.147-2.147","w1cwsowo6sbpnmb",38,"168.csv","","null","resources/images/fishbone.png","null","",NA,NA,NA,NA,""
"image-keyboard-response",455,379052,"0.0-3.148-0.148","w1cwsowo6sbpnmb",38,"168.csv","","21.30000001192093","resources/trios/L2T1A2.jpg","39","restless",0.6,0.5,0.4,0.117308957848672,"true"
"image-keyboard-response",456,379457,"0.0-3.148-1.148","w1cwsowo6sbpnmb",38,"168.csv","","null","resources/maskTrios/BBA2.jpg","null","",NA,NA,NA,NA,""
"image-keyboard-response",457,380659,"0.0-3.148-2.148","w1cwsowo6sbpnmb",38,"168.csv","","null","resources/images/coin2.png","null","",NA,NA,NA,NA,""
"image-keyboard-response",458,380696,"0.0-3.149-0.149","w1cwsowo6sbpnmb",38,"168.csv","","35.5","resources/trios/L2T1A3.jpg","38","restless",0.6,0.5,0.4,0.39763745523861,"true"
"image-keyboard-response",459,381102,"0.0-3.149-1.149","w1cwsowo6sbpnmb",38,"168.csv","","null","resources/maskTrios/BT1B.jpg","null","",NA,NA,NA,NA,""
"image-keyboard-response",460,382307,"0.0-3.149-2.149","w1cwsowo6sbpnmb",38,"168.csv","","null","resources/images/coin2.png","null","",NA,NA,NA,NA,""
"image-keyboard-response",461,382362,"0.0-3.150-0.150","w1cwsowo6sbpnmb",38,"168.csv","","53.89999997615814","resources/trios/L2T2A2.jpg","39","restless",0.6,0.5,0.4,0.870779517789186,"false"
"image-keyboard-response",462,382765,"0.0-3.150-1.150","w1cwsowo6sbpnmb",38,"168.csv","","null","resources/maskTrios/BBA2.jpg","null","",NA,NA,NA,NA,""
"image-keyboard-response",463,383971,"0.0-3.150-2.150","w1cwsowo6sbpnmb",38,"168.csv","","null","resources/images/fishbone.png","null","",NA,NA,NA,NA,""
"image-keyboard-response",464,384017,"0.0-3.151-0.151","w1cwsowo6sbpnmb",38,"168.csv","","44.700000047683716","resources/trios/L2T1A2.jpg","37","restless",0.5,0.5,0.4,0.844425908802672,"false"
"image-keyboard-response",465,384420,"0.0-3.151-1.151","w1cwsowo6sbpnmb",38,"168.csv","","null","resources/maskTrios/L2BB.jpg","null","",NA,NA,NA,NA,""
"image-keyboard-response",466,385622,"0.0-3.151-2.151","w1cwsowo6sbpnmb",38,"168.csv","","null","resources/images/fishbone.png","null","",NA,NA,NA,NA,""
"image-keyboard-response",467,385817,"0.0-3.152-0.152","w1cwsowo6sbpnmb",38,"168.csv","","193.10000002384186","resources/trios/L2T1A2.jpg","37","restless",0.5,0.5,0.4,0.802104469525468,"false"
"image-keyboard-response",468,386223,"0.0-3.152-1.152","w1cwsowo6sbpnmb",38,"168.csv","","null","resources/maskTrios/L2BB.jpg","null","",NA,NA,NA,NA,""
"image-keyboard-response",469,387427,"0.0-3.152-2.152","w1cwsowo6sbpnmb",38,"168.csv","","null","resources/images/fishbone.png","null","",NA,NA,NA,NA,""
"image-keyboard-response",470,387566,"0.0-3.153-0.153","w1cwsowo6sbpnmb",38,"168.csv","","137.60000002384186","resources/trios/L4T2A3.jpg","39","restless",0.5,0.5,0.4,0.320232461728878,"true"
"image-keyboard-response",471,387970,"0.0-3.153-1.153","w1cwsowo6sbpnmb",38,"168.csv","","null","resources/maskTrios/BBA3.jpg","null","",NA,NA,NA,NA,""
"image-keyboard-response",472,389172,"0.0-3.153-2.153","w1cwsowo6sbpnmb",38,"168.csv","","null","resources/images/coin2.png","null","",NA,NA,NA,NA,""
"image-keyboard-response",473,389186,"0.0-3.154-0.154","w1cwsowo6sbpnmb",38,"168.csv","","11.399999976158142","resources/trios/L2T2A2.jpg","37","restless",0.4,0.5,0.4,0.868312382816101,"false"
"image-keyboard-response",474,389590,"0.0-3.154-1.154","w1cwsowo6sbpnmb",38,"168.csv","","null","resources/maskTrios/L2BB.jpg","null","",NA,NA,NA,NA,""
"image-keyboard-response",475,390792,"0.0-3.154-2.154","w1cwsowo6sbpnmb",38,"168.csv","","null","resources/images/fishbone.png","null","",NA,NA,NA,NA,""
"image-keyboard-response",476,391183,"0.0-3.155-0.155","w1cwsowo6sbpnmb",38,"168.csv","","389.60000002384186","resources/trios/L4T2A2.jpg","38","restless",0.4,0.5,0.4,0.695739429520496,"false"
"image-keyboard-response",477,391584,"0.0-3.155-1.155","w1cwsowo6sbpnmb",38,"168.csv","","null","resources/maskTrios/BT2B.jpg","null","",NA,NA,NA,NA,""
"image-keyboard-response",478,392791,"0.0-3.155-2.155","w1cwsowo6sbpnmb",38,"168.csv","","null","resources/images/fishbone.png","null","",NA,NA,NA,NA,""
"image-keyboard-response",479,393049,"0.0-3.156-0.156","w1cwsowo6sbpnmb",38,"168.csv","","257.19999998807907","resources/trios/L4T2A2.jpg","38","restless",0.4,0.5,0.4,0.25406036390176,"true"
"image-keyboard-response",480,393454,"0.0-3.156-1.156","w1cwsowo6sbpnmb",38,"168.csv","","null","resources/maskTrios/BT2B.jpg","null","",NA,NA,NA,NA,""
"image-keyboard-response",481,394657,"0.0-3.156-2.156","w1cwsowo6sbpnmb",38,"168.csv","","null","resources/images/coin2.png","null","",NA,NA,NA,NA,""
"image-keyboard-response",482,394685,"0.0-3.157-0.157","w1cwsowo6sbpnmb",38,"168.csv","","26.80000001192093","resources/trios/L2T1A2.jpg","37","restless",0.4,0.5,0.4,0.789946971993215,"false"
"image-keyboard-response",483,395092,"0.0-3.157-1.157","w1cwsowo6sbpnmb",38,"168.csv","","null","resources/maskTrios/L2BB.jpg","null","",NA,NA,NA,NA,""
"image-keyboard-response",484,396294,"0.0-3.157-2.157","w1cwsowo6sbpnmb",38,"168.csv","","null","resources/images/fishbone.png","null","",NA,NA,NA,NA,""
"image-keyboard-response",485,396406,"0.0-3.158-0.158","w1cwsowo6sbpnmb",38,"168.csv","","110","resources/trios/L2T1A3.jpg","38","restless",0.4,0.5,0.4,0.770486929228305,"false"
"image-keyboard-response",486,396808,"0.0-3.158-1.158","w1cwsowo6sbpnmb",38,"168.csv","","null","resources/maskTrios/BT1B.jpg","null","",NA,NA,NA,NA,""
"image-keyboard-response",487,398010,"0.0-3.158-2.158","w1cwsowo6sbpnmb",38,"168.csv","","null","resources/images/fishbone.png","null","",NA,NA,NA,NA,""
"image-keyboard-response",488,398018,"0.0-3.159-0.159","w1cwsowo6sbpnmb",38,"168.csv","","6.900000035762787","resources/trios/L2T1A2.jpg","39","restless",0.4,0.4,0.4,0.890697222372692,"false"
"image-keyboard-response",489,398421,"0.0-3.159-1.159","w1cwsowo6sbpnmb",38,"168.csv","","null","resources/maskTrios/BBA2.jpg","null","",NA,NA,NA,NA,""
"image-keyboard-response",490,399626,"0.0-3.159-2.159","w1cwsowo6sbpnmb",38,"168.csv","","null","resources/images/fishbone.png","null","",NA,NA,NA,NA,""
"image-keyboard-response",491,399780,"0.0-3.160-0.160","w1cwsowo6sbpnmb",38,"168.csv","","152.39999997615814","resources/trios/L2T2A2.jpg","39","restless",0.4,0.4,0.4,0.929190238716519,"false"
"image-keyboard-response",492,400182,"0.0-3.160-1.160","w1cwsowo6sbpnmb",38,"168.csv","","null","resources/maskTrios/BBA2.jpg","null","",NA,NA,NA,NA,""
"image-keyboard-response",493,401386,"0.0-3.160-2.160","w1cwsowo6sbpnmb",38,"168.csv","","null","resources/images/fishbone.png","null","",NA,NA,NA,NA,""
"image-keyboard-response",494,401605,"0.0-3.161-0.161","w1cwsowo6sbpnmb",38,"168.csv","","217.69999998807907","resources/trios/L2T1A3.jpg","39","restless",0.4,0.4,0.4,0.962871884432285,"false"
"image-keyboard-response",495,402009,"0.0-3.161-1.161","w1cwsowo6sbpnmb",38,"168.csv","","null","resources/maskTrios/BBA3.jpg","null","",NA,NA,NA,NA,""
"image-keyboard-response",496,403216,"0.0-3.161-2.161","w1cwsowo6sbpnmb",38,"168.csv","","null","resources/images/fishbone.png","null","",NA,NA,NA,NA,""
"image-keyboard-response",497,403327,"0.0-3.162-0.162","w1cwsowo6sbpnmb",38,"168.csv","","109.19999998807907","resources/trios/L2T1A2.jpg","39","restless",0.4,0.4,0.4,0.384344864860038,"true"
"image-keyboard-response",498,403733,"0.0-3.162-1.162","w1cwsowo6sbpnmb",38,"168.csv","","null","resources/maskTrios/BBA2.jpg","null","",NA,NA,NA,NA,""
"image-keyboard-response",499,404940,"0.0-3.162-2.162","w1cwsowo6sbpnmb",38,"168.csv","","null","resources/images/coin2.png","null","",NA,NA,NA,NA,""
"image-keyboard-response",500,405180,"0.0-3.163-0.163","w1cwsowo6sbpnmb",38,"168.csv","","238.69999998807907","resources/trios/L4T1A3.jpg","38","restless",0.4,0.4,0.4,0.848169203750444,"false"
"image-keyboard-response",501,405583,"0.0-3.163-1.163","w1cwsowo6sbpnmb",38,"168.csv","","null","resources/maskTrios/BT1B.jpg","null","",NA,NA,NA,NA,""
"image-keyboard-response",502,406787,"0.0-3.163-2.163","w1cwsowo6sbpnmb",38,"168.csv","","null","resources/images/fishbone.png","null","",NA,NA,NA,NA,""
"image-keyboard-response",503,406877,"0.0-3.164-0.164","w1cwsowo6sbpnmb",38,"168.csv","","88.69999998807907","resources/trios/L4T1A2.jpg","39","restless",0.4,0.4,0.5,0.909541286280724,"false"
"image-keyboard-response",504,407282,"0.0-3.164-1.164","w1cwsowo6sbpnmb",38,"168.csv","","null","resources/maskTrios/BBA2.jpg","null","",NA,NA,NA,NA,""
"image-keyboard-response",505,408488,"0.0-3.164-2.164","w1cwsowo6sbpnmb",38,"168.csv","","null","resources/images/fishbone.png","null","",NA,NA,NA,NA,""
"image-keyboard-response",506,408497,"0.0-3.165-0.165","w1cwsowo6sbpnmb",38,"168.csv","","7.600000023841858","resources/trios/L2T2A2.jpg","38","restless",0.4,0.3,0.5,0.975638598168151,"false"
"image-keyboard-response",507,408904,"0.0-3.165-1.165","w1cwsowo6sbpnmb",38,"168.csv","","null","resources/maskTrios/BT2B.jpg","null","",NA,NA,NA,NA,""
"image-keyboard-response",508,410110,"0.0-3.165-2.165","w1cwsowo6sbpnmb",38,"168.csv","","null","resources/images/fishbone.png","null","",NA,NA,NA,NA,""
"image-keyboard-response",509,410199,"0.0-3.166-0.166","w1cwsowo6sbpnmb",38,"168.csv","","87.30000001192093","resources/trios/L2T1A3.jpg","39","restless",0.4,0.3,0.5,0.521237571747709,"false"
"image-keyboard-response",510,410602,"0.0-3.166-1.166","w1cwsowo6sbpnmb",38,"168.csv","","null","resources/maskTrios/BBA3.jpg","null","",NA,NA,NA,NA,""
"image-keyboard-response",511,411807,"0.0-3.166-2.166","w1cwsowo6sbpnmb",38,"168.csv","","null","resources/images/fishbone.png","null","",NA,NA,NA,NA,""
"image-keyboard-response",512,411971,"0.0-3.167-0.167","w1cwsowo6sbpnmb",38,"168.csv","","162","resources/trios/L4T2A3.jpg","38","restless",0.4,0.3,0.6,0.754315526927358,"false"
"image-keyboard-response",513,412376,"0.0-3.167-1.167","w1cwsowo6sbpnmb",38,"168.csv","","null","resources/maskTrios/BT2B.jpg","null","",NA,NA,NA,NA,""
"image-keyboard-response",514,413580,"0.0-3.167-2.167","w1cwsowo6sbpnmb",38,"168.csv","","null","resources/images/fishbone.png","null","",NA,NA,NA,NA,""
"image-keyboard-response",515,413841,"0.0-3.168-0.168","w1cwsowo6sbpnmb",38,"168.csv","","259.5","resources/trios/L2T1A2.jpg","37","restless",0.4,0.3,0.6,0.511496143237217,"false"
"image-keyboard-response",516,414242,"0.0-3.168-1.168","w1cwsowo6sbpnmb",38,"168.csv","","null","resources/maskTrios/L2BB.jpg","null","",NA,NA,NA,NA,""
"image-keyboard-response",517,415449,"0.0-3.168-2.168","w1cwsowo6sbpnmb",38,"168.csv","","null","resources/images/fishbone.png","null","",NA,NA,NA,NA,""
"image-keyboard-response",518,415763,"0.0-3.169-0.169","w1cwsowo6sbpnmb",38,"168.csv","","312.69999998807907","resources/trios/L2T1A2.jpg","39","restless",0.4,0.3,0.6,0.372724195126769,"true"
"image-keyboard-response",519,416165,"0.0-3.169-1.169","w1cwsowo6sbpnmb",38,"168.csv","","null","resources/maskTrios/BBA2.jpg","null","",NA,NA,NA,NA,""
"image-keyboard-response",520,417371,"0.0-3.169-2.169","w1cwsowo6sbpnmb",38,"168.csv","","null","resources/images/coin2.png","null","",NA,NA,NA,NA,""
"image-keyboard-response",521,417545,"0.0-3.170-0.170","w1cwsowo6sbpnmb",38,"168.csv","","172.0999999642372","resources/trios/L2T2A2.jpg","37","restless",0.4,0.3,0.6,0.089159475342935,"true"
"image-keyboard-response",522,417952,"0.0-3.170-1.170","w1cwsowo6sbpnmb",38,"168.csv","","null","resources/maskTrios/L2BB.jpg","null","",NA,NA,NA,NA,""
"image-keyboard-response",523,419156,"0.0-3.170-2.170","w1cwsowo6sbpnmb",38,"168.csv","","null","resources/images/coin2.png","null","",NA,NA,NA,NA,""
"image-keyboard-response",524,419225,"0.0-3.171-0.171","w1cwsowo6sbpnmb",38,"168.csv","","66.90000003576279","resources/trios/L2T2A3.jpg","39","restless",0.4,0.3,0.6,0.502973800518207,"true"
"image-keyboard-response",525,419631,"0.0-3.171-1.171","w1cwsowo6sbpnmb",38,"168.csv","","null","resources/maskTrios/BBA3.jpg","null","",NA,NA,NA,NA,""
"image-keyboard-response",526,420836,"0.0-3.171-2.171","w1cwsowo6sbpnmb",38,"168.csv","","null","resources/images/coin2.png","null","",NA,NA,NA,NA,""
"image-keyboard-response",527,420913,"0.0-3.172-0.172","w1cwsowo6sbpnmb",38,"168.csv","","75.5","resources/trios/L2T2A3.jpg","38","restless",0.4,0.4,0.6,0.991482846770866,"false"
"image-keyboard-response",528,421320,"0.0-3.172-1.172","w1cwsowo6sbpnmb",38,"168.csv","","null","resources/maskTrios/BT2B.jpg","null","",NA,NA,NA,NA,""
"image-keyboard-response",529,422526,"0.0-3.172-2.172","w1cwsowo6sbpnmb",38,"168.csv","","null","resources/images/fishbone.png","null","",NA,NA,NA,NA,""
"image-keyboard-response",530,422574,"0.0-3.173-0.173","w1cwsowo6sbpnmb",38,"168.csv","","46.69999998807907","resources/trios/L4T1A2.jpg","37","restless",0.4,0.4,0.6,0.856150782122986,"false"
"image-keyboard-response",531,422976,"0.0-3.173-1.173","w1cwsowo6sbpnmb",38,"168.csv","","null","resources/maskTrios/L4BB.jpg","null","",NA,NA,NA,NA,""
"image-keyboard-response",532,424178,"0.0-3.173-2.173","w1cwsowo6sbpnmb",38,"168.csv","","null","resources/images/fishbone.png","null","",NA,NA,NA,NA,""
"image-keyboard-response",533,424275,"0.0-3.174-0.174","w1cwsowo6sbpnmb",38,"168.csv","","95.39999997615814","resources/trios/L2T2A3.jpg","38","restless",0.4,0.4,0.6,0.381006975551419,"true"
"image-keyboard-response",534,424682,"0.0-3.174-1.174","w1cwsowo6sbpnmb",38,"168.csv","","null","resources/maskTrios/BT2B.jpg","null","",NA,NA,NA,NA,""
"image-keyboard-response",535,425888,"0.0-3.174-2.174","w1cwsowo6sbpnmb",38,"168.csv","","null","resources/images/coin2.png","null","",NA,NA,NA,NA,""
"image-keyboard-response",536,425949,"0.0-3.175-0.175","w1cwsowo6sbpnmb",38,"168.csv","","59.200000047683716","resources/trios/L2T2A3.jpg","39","restless",0.4,0.4,0.6,0.981862548170159,"false"
"image-keyboard-response",537,426356,"0.0-3.175-1.175","w1cwsowo6sbpnmb",38,"168.csv","","null","resources/maskTrios/BBA3.jpg","null","",NA,NA,NA,NA,""
"image-keyboard-response",538,427559,"0.0-3.175-2.175","w1cwsowo6sbpnmb",38,"168.csv","","null","resources/images/fishbone.png","null","",NA,NA,NA,NA,""
"image-keyboard-response",539,427867,"0.0-3.176-0.176","w1cwsowo6sbpnmb",38,"168.csv","","306.69999998807907","resources/trios/L2T2A3.jpg","38","restless",0.4,0.4,0.6,0.147469196204767,"true"
"image-keyboard-response",540,428274,"0.0-3.176-1.176","w1cwsowo6sbpnmb",38,"168.csv","","null","resources/maskTrios/BT2B.jpg","null","",NA,NA,NA,NA,""
"image-keyboard-response",541,429476,"0.0-3.176-2.176","w1cwsowo6sbpnmb",38,"168.csv","","null","resources/images/coin2.png","null","",NA,NA,NA,NA,""
"image-keyboard-response",542,429696,"0.0-3.177-0.177","w1cwsowo6sbpnmb",38,"168.csv","","218.30000001192093","resources/trios/L2T1A2.jpg","37","restless",0.3,0.4,0.6,0.349671782087319,"false"
"image-keyboard-response",543,430102,"0.0-3.177-1.177","w1cwsowo6sbpnmb",38,"168.csv","","null","resources/maskTrios/L2BB.jpg","null","",NA,NA,NA,NA,""
"image-keyboard-response",544,431308,"0.0-3.177-2.177","w1cwsowo6sbpnmb",38,"168.csv","","null","resources/images/fishbone.png","null","",NA,NA,NA,NA,""
"image-keyboard-response",545,431514,"0.0-3.178-0.178","w1cwsowo6sbpnmb",38,"168.csv","","205.39999997615814","resources/trios/L2T2A3.jpg","39","restless",0.3,0.4,0.6,0.21650813697834,"true"
"image-keyboard-response",546,431920,"0.0-3.178-1.178","w1cwsowo6sbpnmb",38,"168.csv","","null","resources/maskTrios/BBA3.jpg","null","",NA,NA,NA,NA,""
"image-keyboard-response",547,433122,"0.0-3.178-2.178","w1cwsowo6sbpnmb",38,"168.csv","","null","resources/images/coin2.png","null","",NA,NA,NA,NA,""
"image-keyboard-response",548,433155,"0.0-3.179-0.179","w1cwsowo6sbpnmb",38,"168.csv","","31.5","resources/trios/L4T2A3.jpg","38","restless",0.3,0.4,0.6,0.849076865227035,"false"
"image-keyboard-response",549,433560,"0.0-3.179-1.179","w1cwsowo6sbpnmb",38,"168.csv","","null","resources/maskTrios/BT2B.jpg","null","",NA,NA,NA,NA,""
"image-keyboard-response",550,434762,"0.0-3.179-2.179","w1cwsowo6sbpnmb",38,"168.csv","","null","resources/images/fishbone.png","null","",NA,NA,NA,NA,""
"image-keyboard-response",551,434770,"0.0-3.180-0.180","w1cwsowo6sbpnmb",38,"168.csv","","5.799999952316284","resources/trios/L2T1A3.jpg","39","restless",0.3,0.4,0.6,0.562969449850114,"true"
"image-keyboard-response",552,435176,"0.0-3.180-1.180","w1cwsowo6sbpnmb",38,"168.csv","","null","resources/maskTrios/BBA3.jpg","null","",NA,NA,NA,NA,""
"image-keyboard-response",553,436382,"0.0-3.180-2.180","w1cwsowo6sbpnmb",38,"168.csv","","null","resources/images/coin2.png","null","",NA,NA,NA,NA,""
"image-keyboard-response",554,436418,"0.0-3.181-0.181","w1cwsowo6sbpnmb",38,"168.csv","","34.39999997615814","resources/trios/L2T1A3.jpg","39","restless",0.3,0.4,0.6,0.974324426213261,"false"
"image-keyboard-response",555,436822,"0.0-3.181-1.181","w1cwsowo6sbpnmb",38,"168.csv","","null","resources/maskTrios/BBA3.jpg","null","",NA,NA,NA,NA,""
"image-keyboard-response",556,438026,"0.0-3.181-2.181","w1cwsowo6sbpnmb",38,"168.csv","","null","resources/images/fishbone.png","null","",NA,NA,NA,NA,""
"image-keyboard-response",557,438388,"0.0-3.182-0.182","w1cwsowo6sbpnmb",38,"168.csv","","360.89999997615814","resources/trios/L4T1A2.jpg","37","restless",0.3,0.4,0.6,0.741807961464267,"false"
"image-keyboard-response",558,438791,"0.0-3.182-1.182","w1cwsowo6sbpnmb",38,"168.csv","","null","resources/maskTrios/L4BB.jpg","null","",NA,NA,NA,NA,""
"image-keyboard-response",559,439993,"0.0-3.182-2.182","w1cwsowo6sbpnmb",38,"168.csv","","null","resources/images/fishbone.png","null","",NA,NA,NA,NA,""
"image-keyboard-response",560,440101,"0.0-3.183-0.183","w1cwsowo6sbpnmb",38,"168.csv","","106.80000001192093","resources/trios/L4T2A3.jpg","38","restless",0.3,0.4,0.6,0.88638082493426,"false"
"image-keyboard-response",561,440508,"0.0-3.183-1.183","w1cwsowo6sbpnmb",38,"168.csv","","null","resources/maskTrios/BT2B.jpg","null","",NA,NA,NA,NA,""
"image-keyboard-response",562,441713,"0.0-3.183-2.183","w1cwsowo6sbpnmb",38,"168.csv","","null","resources/images/fishbone.png","null","",NA,NA,NA,NA,""
"image-keyboard-response",563,441754,"0.0-3.184-0.184","w1cwsowo6sbpnmb",38,"168.csv","","39.700000047683716","resources/trios/L2T2A3.jpg","39","restless",0.3,0.4,0.6,0.254818335855406,"true"
"image-keyboard-response",564,442156,"0.0-3.184-1.184","w1cwsowo6sbpnmb",38,"168.csv","","null","resources/maskTrios/BBA3.jpg","null","",NA,NA,NA,NA,""
"image-keyboard-response",565,443358,"0.0-3.184-2.184","w1cwsowo6sbpnmb",38,"168.csv","","null","resources/images/coin2.png","null","",NA,NA,NA,NA,""
"image-keyboard-response",566,443625,"0.0-3.185-0.185","w1cwsowo6sbpnmb",38,"168.csv","","265","resources/trios/L2T1A3.jpg","39","restless",0.3,0.5,0.6,0.332019068926521,"true"
"image-keyboard-response",567,444029,"0.0-3.185-1.185","w1cwsowo6sbpnmb",38,"168.csv","","null","resources/maskTrios/BBA3.jpg","null","",NA,NA,NA,NA,""
"image-keyboard-response",568,445233,"0.0-3.185-2.185","w1cwsowo6sbpnmb",38,"168.csv","","null","resources/images/coin2.png","null","",NA,NA,NA,NA,""
"image-keyboard-response",569,445283,"0.0-3.186-0.186","w1cwsowo6sbpnmb",38,"168.csv","","49.09999996423721","resources/trios/L4T1A3.jpg","39","restless",0.3,0.5,0.6,0.186136506372665,"true"
"image-keyboard-response",570,445689,"0.0-3.186-1.186","w1cwsowo6sbpnmb",38,"168.csv","","null","resources/maskTrios/BBA3.jpg","null","",NA,NA,NA,NA,""
"image-keyboard-response",571,446894,"0.0-3.186-2.186","w1cwsowo6sbpnmb",38,"168.csv","","null","resources/images/coin2.png","null","",NA,NA,NA,NA,""
"image-keyboard-response",572,447037,"0.0-3.187-0.187","w1cwsowo6sbpnmb",38,"168.csv","","141.9000000357628","resources/trios/L2T1A3.jpg","39","restless",0.3,0.5,0.7,0.402154154401559,"true"
"image-keyboard-response",573,447443,"0.0-3.187-1.187","w1cwsowo6sbpnmb",38,"168.csv","","null","resources/maskTrios/BBA3.jpg","null","",NA,NA,NA,NA,""
"image-keyboard-response",574,448648,"0.0-3.187-2.187","w1cwsowo6sbpnmb",38,"168.csv","","null","resources/images/coin2.png","null","",NA,NA,NA,NA,""
"image-keyboard-response",575,448868,"0.0-3.188-0.188","w1cwsowo6sbpnmb",38,"168.csv","","218.89999997615814","resources/trios/L4T1A2.jpg","39","restless",0.3,0.5,0.7,0.0621200912356943,"true"
"image-keyboard-response",576,449275,"0.0-3.188-1.188","w1cwsowo6sbpnmb",38,"168.csv","","null","resources/maskTrios/BBA2.jpg","null","",NA,NA,NA,NA,""
"image-keyboard-response",577,450477,"0.0-3.188-2.188","w1cwsowo6sbpnmb",38,"168.csv","","null","resources/images/coin2.png","null","",NA,NA,NA,NA,""
"image-keyboard-response",578,451060,"0.0-3.189-0.189","w1cwsowo6sbpnmb",38,"168.csv","","581.8000000119209","resources/trios/L2T2A2.jpg","39","restless",0.2,0.5,0.7,0.310141678278146,"true"
"image-keyboard-response",579,451467,"0.0-3.189-1.189","w1cwsowo6sbpnmb",38,"168.csv","","null","resources/maskTrios/BBA2.jpg","null","",NA,NA,NA,NA,""
"image-keyboard-response",580,452672,"0.0-3.189-2.189","w1cwsowo6sbpnmb",38,"168.csv","","null","resources/images/coin2.png","null","",NA,NA,NA,NA,""
"image-keyboard-response",581,452954,"0.0-3.190-0.190","w1cwsowo6sbpnmb",38,"168.csv","","280.80000001192093","resources/trios/L4T1A3.jpg","39","restless",0.2,0.5,0.7,0.867635115067778,"false"
"image-keyboard-response",582,453358,"0.0-3.190-1.190","w1cwsowo6sbpnmb",38,"168.csv","","null","resources/maskTrios/BBA3.jpg","null","",NA,NA,NA,NA,""
"image-keyboard-response",583,454561,"0.0-3.190-2.190","w1cwsowo6sbpnmb",38,"168.csv","","null","resources/images/fishbone.png","null","",NA,NA,NA,NA,""
"image-keyboard-response",584,455061,"0.0-3.191-0.191","w1cwsowo6sbpnmb",38,"168.csv","","498.4000000357628","resources/trios/L2T2A3.jpg","37","restless",0.2,0.5,0.7,0.523563360110219,"false"
"image-keyboard-response",585,455467,"0.0-3.191-1.191","w1cwsowo6sbpnmb",38,"168.csv","","null","resources/maskTrios/L2BB.jpg","null","",NA,NA,NA,NA,""
"image-keyboard-response",586,456672,"0.0-3.191-2.191","w1cwsowo6sbpnmb",38,"168.csv","","null","resources/images/fishbone.png","null","",NA,NA,NA,NA,""
"image-keyboard-response",587,456840,"0.0-3.192-0.192","w1cwsowo6sbpnmb",38,"168.csv","","166.80000001192093","resources/trios/L2T1A3.jpg","38","restless",0.2,0.5,0.7,0.321812037230464,"true"
"image-keyboard-response",588,457242,"0.0-3.192-1.192","w1cwsowo6sbpnmb",38,"168.csv","","null","resources/maskTrios/BT1B.jpg","null","",NA,NA,NA,NA,""
"image-keyboard-response",589,458446,"0.0-3.192-2.192","w1cwsowo6sbpnmb",38,"168.csv","","null","resources/images/coin2.png","null","",NA,NA,NA,NA,""
"image-keyboard-response",590,460310,"0.0-3.193-0.193","w1cwsowo6sbpnmb",38,"168.csv","","1861.8999999761581","resources/trios/L2T1A3.jpg","37","restless",0.2,0.5,0.7,0.994219477680504,"false"
"image-keyboard-response",591,460712,"0.0-3.193-1.193","w1cwsowo6sbpnmb",38,"168.csv","","null","resources/maskTrios/L2BB.jpg","null","",NA,NA,NA,NA,""
"image-keyboard-response",592,461917,"0.0-3.193-2.193","w1cwsowo6sbpnmb",38,"168.csv","","null","resources/images/fishbone.png","null","",NA,NA,NA,NA,""
"image-keyboard-response",593,462285,"0.0-3.194-0.194","w1cwsowo6sbpnmb",38,"168.csv","","366.30000001192093","resources/trios/L2T2A2.jpg","38","restless",0.2,0.4,0.7,0.218141971531086,"true"
"image-keyboard-response",594,462691,"0.0-3.194-1.194","w1cwsowo6sbpnmb",38,"168.csv","","null","resources/maskTrios/BT2B.jpg","null","",NA,NA,NA,NA,""
"image-keyboard-response",595,463898,"0.0-3.194-2.194","w1cwsowo6sbpnmb",38,"168.csv","","null","resources/images/coin2.png","null","",NA,NA,NA,NA,""
"image-keyboard-response",596,464051,"0.0-3.195-0.195","w1cwsowo6sbpnmb",38,"168.csv","","150.89999997615814","resources/trios/L4T2A2.jpg","38","restless",0.2,0.4,0.7,0.678722111328866,"false"
"image-keyboard-response",597,464457,"0.0-3.195-1.195","w1cwsowo6sbpnmb",38,"168.csv","","null","resources/maskTrios/BT2B.jpg","null","",NA,NA,NA,NA,""
"image-keyboard-response",598,465663,"0.0-3.195-2.195","w1cwsowo6sbpnmb",38,"168.csv","","null","resources/images/fishbone.png","null","",NA,NA,NA,NA,""
"image-keyboard-response",599,465743,"0.0-3.196-0.196","w1cwsowo6sbpnmb",38,"168.csv","","77.89999997615814","resources/trios/L4T2A2.jpg","39","restless",0.3,0.5,0.7,0.0405842697832224,"true"
"image-keyboard-response",600,466146,"0.0-3.196-1.196","w1cwsowo6sbpnmb",38,"168.csv","","null","resources/maskTrios/BBA2.jpg","null","",NA,NA,NA,NA,""
"image-keyboard-response",601,467349,"0.0-3.196-2.196","w1cwsowo6sbpnmb",38,"168.csv","","null","resources/images/coin2.png","null","",NA,NA,NA,NA,""
"image-keyboard-response",602,467405,"0.0-3.197-0.197","w1cwsowo6sbpnmb",38,"168.csv","","54.30000001192093","resources/trios/L4T1A3.jpg","38","restless",0.4,0.5,0.7,0.189105209859221,"true"
"image-keyboard-response",603,467811,"0.0-3.197-1.197","w1cwsowo6sbpnmb",38,"168.csv","","null","resources/maskTrios/BT1B.jpg","null","",NA,NA,NA,NA,""
"image-keyboard-response",604,469018,"0.0-3.197-2.197","w1cwsowo6sbpnmb",38,"168.csv","","null","resources/images/coin2.png","null","",NA,NA,NA,NA,""
"image-keyboard-response",605,469155,"0.0-3.198-0.198","w1cwsowo6sbpnmb",38,"168.csv","","135.39999997615814","resources/trios/L2T1A2.jpg","38","restless",0.4,0.5,0.7,0.269749114205792,"true"
"image-keyboard-response",606,469561,"0.0-3.198-1.198","w1cwsowo6sbpnmb",38,"168.csv","","null","resources/maskTrios/BT1B.jpg","null","",NA,NA,NA,NA,""
"image-keyboard-response",607,470768,"0.0-3.198-2.198","w1cwsowo6sbpnmb",38,"168.csv","","null","resources/images/coin2.png","null","",NA,NA,NA,NA,""
"image-keyboard-response",608,470828,"0.0-3.199-0.199","w1cwsowo6sbpnmb",38,"168.csv","","58.10000002384186","resources/trios/L2T2A3.jpg","39","restless",0.4,0.5,0.7,0.289770791547788,"true"
"image-keyboard-response",609,471234,"0.0-3.199-1.199","w1cwsowo6sbpnmb",38,"168.csv","","null","resources/maskTrios/BBA3.jpg","null","",NA,NA,NA,NA,""
