"trial_type","trial_index","time_elapsed","internal_node_id","subject","participantCode","walkNumber","success","rt","stimulus","key_press","test_part","leftProb","midProb","rightProb","generatedNum","correct"
"pavlovia",0,1043,"0.0-0.0","3vsz0q8a4bewrfd",778,"52.csv","","","","","",NA,NA,NA,NA,""
"fullscreen",1,4535,"0.0-1.0","3vsz0q8a4bewrfd",778,"52.csv","true","","","","",NA,NA,NA,NA,""
"html-keyboard-response",2,8943,"0.0-2.0-0.0","3vsz0q8a4bewrfd",778,"52.csv","","4407.200000047684","<p><font size='6'>Arrrgh!</p></font><p>Can you be the best pirate? Try to find lots of gold! But beware, some islands have more gold than others, and over time, the island with the most gold may change. Can YOU figure it out? </p><font size='6'>GOOD LUCK, CAPTAIN!!!</font><p>Press any key to begin</p>","32","",NA,NA,NA,NA,""
"image-keyboard-response",3,11953,"0.0-2.0-1.0","3vsz0q8a4bewrfd",778,"52.csv","","null","resources/image_sets/111.png","null","",NA,NA,NA,NA,""
"image-keyboard-response",4,15581,"0.0-2.0-2.0","3vsz0q8a4bewrfd",778,"52.csv","","3627.399999976158","resources/image_sets/left_highlight.png","37","",NA,NA,NA,NA,""
"image-keyboard-response",5,17530,"0.0-2.0-3.0","3vsz0q8a4bewrfd",778,"52.csv","","1948.300000011921","resources/image_sets/mid_highlight.png","38","",NA,NA,NA,NA,""
"image-keyboard-response",6,22406,"0.0-2.0-4.0","3vsz0q8a4bewrfd",778,"52.csv","","4875.5","resources/image_sets/right_highlight.png","39","",NA,NA,NA,NA,""
"image-keyboard-response",7,24482,"0.0-2.0-5.0","3vsz0q8a4bewrfd",778,"52.csv","","2074.599999964237","resources/image_sets/111.png","13","",NA,NA,NA,NA,""
"image-keyboard-response",8,26777,"0.0-2.0-6.0","3vsz0q8a4bewrfd",778,"52.csv","","2294.600000023842","resources/images/coin2.png","13","",NA,NA,NA,NA,""
"image-keyboard-response",9,28150,"0.0-2.0-7.0","3vsz0q8a4bewrfd",778,"52.csv","","1373.300000011921","resources/images/fishbone.png","13","",NA,NA,NA,NA,""
"html-keyboard-response",10,31729,"0.0-2.0-8.0","3vsz0q8a4bewrfd",778,"52.csv","","3577.800000011921","<p>Your first journey will be a long one, but you will get a well deserved break at the end</p><p>After the break you will have four more journeys, but each will be much shorter than the first, and you will have breaks in between each</p><p>Press Enter to begin</p>","13","",NA,NA,NA,NA,""
"image-keyboard-response",11,34094,"0.0-3.0-0.0","3vsz0q8a4bewrfd",778,"52.csv","","2364.899999976158","resources/trios/L2T1A2.jpg","38","restless",0.7,0.9,0.3,0.918465051380506,"false"
"image-keyboard-response",12,34505,"0.0-3.0-1.0","3vsz0q8a4bewrfd",778,"52.csv","","null","resources/maskTrios/BT1B.jpg","null","",NA,NA,NA,NA,""
"image-keyboard-response",13,35712,"0.0-3.0-2.0","3vsz0q8a4bewrfd",778,"52.csv","","null","resources/images/fishbone.png","null","",NA,NA,NA,NA,""
"image-keyboard-response",14,37957,"0.0-3.1-0.1","3vsz0q8a4bewrfd",778,"52.csv","","2243.7999999523163","resources/trios/L4T1A2.jpg","39","restless",0.7,0.9,0.3,0.663853779662921,"false"
"image-keyboard-response",15,38371,"0.0-3.1-1.1","3vsz0q8a4bewrfd",778,"52.csv","","null","resources/maskTrios/BBA2.jpg","null","",NA,NA,NA,NA,""
"image-keyboard-response",16,39575,"0.0-3.1-2.1","3vsz0q8a4bewrfd",778,"52.csv","","null","resources/images/fishbone.png","null","",NA,NA,NA,NA,""
"image-keyboard-response",17,40226,"0.0-3.2-0.2","3vsz0q8a4bewrfd",778,"52.csv","","650","resources/trios/L4T1A2.jpg","37","restless",0.7,0.9,0.3,0.353861868536763,"true"
"image-keyboard-response",18,40632,"0.0-3.2-1.2","3vsz0q8a4bewrfd",778,"52.csv","","null","resources/maskTrios/L4BB.jpg","null","",NA,NA,NA,NA,""
"image-keyboard-response",19,41838,"0.0-3.2-2.2","3vsz0q8a4bewrfd",778,"52.csv","","null","resources/images/coin2.png","null","",NA,NA,NA,NA,""
"image-keyboard-response",20,45975,"0.0-3.3-0.3","3vsz0q8a4bewrfd",778,"52.csv","","4136.200000047684","resources/trios/L4T1A3.jpg","37","restless",0.7,0.9,0.3,0.128121754204513,"true"
"image-keyboard-response",21,46382,"0.0-3.3-1.3","3vsz0q8a4bewrfd",778,"52.csv","","null","resources/maskTrios/L4BB.jpg","null","",NA,NA,NA,NA,""
"image-keyboard-response",22,47593,"0.0-3.3-2.3","3vsz0q8a4bewrfd",778,"52.csv","","null","resources/images/coin2.png","null","",NA,NA,NA,NA,""
"image-keyboard-response",23,48109,"0.0-3.4-0.4","3vsz0q8a4bewrfd",778,"52.csv","","514.8000000119209","resources/trios/L4T2A3.jpg","37","restless",0.8,0.9,0.3,0.249104034145678,"true"
"image-keyboard-response",24,48522,"0.0-3.4-1.4","3vsz0q8a4bewrfd",778,"52.csv","","null","resources/maskTrios/L4BB.jpg","null","",NA,NA,NA,NA,""
"image-keyboard-response",25,49726,"0.0-3.4-2.4","3vsz0q8a4bewrfd",778,"52.csv","","null","resources/images/coin2.png","null","",NA,NA,NA,NA,""
"image-keyboard-response",26,50348,"0.0-3.5-0.5","3vsz0q8a4bewrfd",778,"52.csv","","620.5","resources/trios/L4T2A2.jpg","37","restless",0.8,0.8,0.3,0.818616483309161,"false"
"image-keyboard-response",27,50753,"0.0-3.5-1.5","3vsz0q8a4bewrfd",778,"52.csv","","null","resources/maskTrios/L4BB.jpg","null","",NA,NA,NA,NA,""
"image-keyboard-response",28,51961,"0.0-3.5-2.5","3vsz0q8a4bewrfd",778,"52.csv","","null","resources/images/fishbone.png","null","",NA,NA,NA,NA,""
"image-keyboard-response",29,52479,"0.0-3.6-0.6","3vsz0q8a4bewrfd",778,"52.csv","","517.5","resources/trios/L2T1A2.jpg","39","restless",0.8,0.8,0.3,0.0106667469722828,"true"
"image-keyboard-response",30,52890,"0.0-3.6-1.6","3vsz0q8a4bewrfd",778,"52.csv","","null","resources/maskTrios/BBA2.jpg","null","",NA,NA,NA,NA,""
"image-keyboard-response",31,54094,"0.0-3.6-2.6","3vsz0q8a4bewrfd",778,"52.csv","","null","resources/images/coin2.png","null","",NA,NA,NA,NA,""
"image-keyboard-response",32,54519,"0.0-3.7-0.7","3vsz0q8a4bewrfd",778,"52.csv","","424.10000002384186","resources/trios/L4T2A2.jpg","39","restless",0.8,0.8,0.3,0.0545398151073027,"true"
"image-keyboard-response",33,54926,"0.0-3.7-1.7","3vsz0q8a4bewrfd",778,"52.csv","","null","resources/maskTrios/BBA2.jpg","null","",NA,NA,NA,NA,""
"image-keyboard-response",34,56134,"0.0-3.7-2.7","3vsz0q8a4bewrfd",778,"52.csv","","null","resources/images/coin2.png","null","",NA,NA,NA,NA,""
"image-keyboard-response",35,56605,"0.0-3.8-0.8","3vsz0q8a4bewrfd",778,"52.csv","","470.5999999642372","resources/trios/L2T2A2.jpg","39","restless",0.8,0.8,0.3,0.593128582345636,"false"
"image-keyboard-response",36,57016,"0.0-3.8-1.8","3vsz0q8a4bewrfd",778,"52.csv","","null","resources/maskTrios/BBA2.jpg","null","",NA,NA,NA,NA,""
"image-keyboard-response",37,58222,"0.0-3.8-2.8","3vsz0q8a4bewrfd",778,"52.csv","","null","resources/images/fishbone.png","null","",NA,NA,NA,NA,""
"image-keyboard-response",38,58596,"0.0-3.9-0.9","3vsz0q8a4bewrfd",778,"52.csv","","373.10000002384186","resources/trios/L4T2A2.jpg","38","restless",0.8,0.8,0.3,0.55193069403929,"true"
"image-keyboard-response",39,59005,"0.0-3.9-1.9","3vsz0q8a4bewrfd",778,"52.csv","","null","resources/maskTrios/BT2B.jpg","null","",NA,NA,NA,NA,""
"image-keyboard-response",40,60214,"0.0-3.9-2.9","3vsz0q8a4bewrfd",778,"52.csv","","null","resources/images/coin2.png","null","",NA,NA,NA,NA,""
"image-keyboard-response",41,60659,"0.0-3.10-0.10","3vsz0q8a4bewrfd",778,"52.csv","","444.19999998807907","resources/trios/L4T2A3.jpg","38","restless",0.8,0.8,0.3,0.930002861637363,"false"
"image-keyboard-response",42,61062,"0.0-3.10-1.10","3vsz0q8a4bewrfd",778,"52.csv","","null","resources/maskTrios/BT2B.jpg","null","",NA,NA,NA,NA,""
"image-keyboard-response",43,62272,"0.0-3.10-2.10","3vsz0q8a4bewrfd",778,"52.csv","","null","resources/images/fishbone.png","null","",NA,NA,NA,NA,""
"image-keyboard-response",44,62521,"0.0-3.11-0.11","3vsz0q8a4bewrfd",778,"52.csv","","247.60000002384186","resources/trios/L4T1A2.jpg","37","restless",0.8,0.8,0.3,0.596794491984112,"true"
"image-keyboard-response",45,62926,"0.0-3.11-1.11","3vsz0q8a4bewrfd",778,"52.csv","","null","resources/maskTrios/L4BB.jpg","null","",NA,NA,NA,NA,""
"image-keyboard-response",46,64135,"0.0-3.11-2.11","3vsz0q8a4bewrfd",778,"52.csv","","null","resources/images/coin2.png","null","",NA,NA,NA,NA,""
"image-keyboard-response",47,64478,"0.0-3.12-0.12","3vsz0q8a4bewrfd",778,"52.csv","","341.9000000357628","resources/trios/L4T2A2.jpg","37","restless",0.9,0.8,0.2,0.200997658229774,"true"
"image-keyboard-response",48,64889,"0.0-3.12-1.12","3vsz0q8a4bewrfd",778,"52.csv","","null","resources/maskTrios/L4BB.jpg","null","",NA,NA,NA,NA,""
"image-keyboard-response",49,66093,"0.0-3.12-2.12","3vsz0q8a4bewrfd",778,"52.csv","","null","resources/images/coin2.png","null","",NA,NA,NA,NA,""
"image-keyboard-response",50,66514,"0.0-3.13-0.13","3vsz0q8a4bewrfd",778,"52.csv","","420","resources/trios/L2T2A2.jpg","37","restless",0.9,0.8,0.2,0.657082461648491,"true"
"image-keyboard-response",51,66920,"0.0-3.13-1.13","3vsz0q8a4bewrfd",778,"52.csv","","null","resources/maskTrios/L2BB.jpg","null","",NA,NA,NA,NA,""
"image-keyboard-response",52,68125,"0.0-3.13-2.13","3vsz0q8a4bewrfd",778,"52.csv","","null","resources/images/coin2.png","null","",NA,NA,NA,NA,""
"image-keyboard-response",53,68950,"0.0-3.14-0.14","3vsz0q8a4bewrfd",778,"52.csv","","823.3000000119209","resources/trios/L2T1A2.jpg","37","restless",0.9,0.7,0.2,0.81702764203033,"true"
"image-keyboard-response",54,69361,"0.0-3.14-1.14","3vsz0q8a4bewrfd",778,"52.csv","","null","resources/maskTrios/L2BB.jpg","null","",NA,NA,NA,NA,""
"image-keyboard-response",55,70568,"0.0-3.14-2.14","3vsz0q8a4bewrfd",778,"52.csv","","null","resources/images/coin2.png","null","",NA,NA,NA,NA,""
"image-keyboard-response",56,71028,"0.0-3.15-0.15","3vsz0q8a4bewrfd",778,"52.csv","","458.5","resources/trios/L2T2A3.jpg","37","restless",0.9,0.7,0.2,0.664254187983444,"true"
"image-keyboard-response",57,71437,"0.0-3.15-1.15","3vsz0q8a4bewrfd",778,"52.csv","","null","resources/maskTrios/L2BB.jpg","null","",NA,NA,NA,NA,""
"image-keyboard-response",58,72645,"0.0-3.15-2.15","3vsz0q8a4bewrfd",778,"52.csv","","null","resources/images/coin2.png","null","",NA,NA,NA,NA,""
"image-keyboard-response",59,73201,"0.0-3.16-0.16","3vsz0q8a4bewrfd",778,"52.csv","","555.3000000119209","resources/trios/L2T2A2.jpg","37","restless",0.9,0.7,0.2,0.08576930121201,"true"
"image-keyboard-response",60,73607,"0.0-3.16-1.16","3vsz0q8a4bewrfd",778,"52.csv","","null","resources/maskTrios/L2BB.jpg","null","",NA,NA,NA,NA,""
"image-keyboard-response",61,74813,"0.0-3.16-2.16","3vsz0q8a4bewrfd",778,"52.csv","","null","resources/images/coin2.png","null","",NA,NA,NA,NA,""
"image-keyboard-response",62,75170,"0.0-3.17-0.17","3vsz0q8a4bewrfd",778,"52.csv","","355.69999998807907","resources/trios/L2T1A2.jpg","37","restless",0.8,0.7,0.2,0.623836564190625,"true"
"image-keyboard-response",63,75577,"0.0-3.17-1.17","3vsz0q8a4bewrfd",778,"52.csv","","null","resources/maskTrios/L2BB.jpg","null","",NA,NA,NA,NA,""
"image-keyboard-response",64,76781,"0.0-3.17-2.17","3vsz0q8a4bewrfd",778,"52.csv","","null","resources/images/coin2.png","null","",NA,NA,NA,NA,""
"image-keyboard-response",65,77243,"0.0-3.18-0.18","3vsz0q8a4bewrfd",778,"52.csv","","461.19999998807907","resources/trios/L2T1A2.jpg","37","restless",0.8,0.6,0.2,0.425392998283374,"true"
"image-keyboard-response",66,77653,"0.0-3.18-1.18","3vsz0q8a4bewrfd",778,"52.csv","","null","resources/maskTrios/L2BB.jpg","null","",NA,NA,NA,NA,""
"image-keyboard-response",67,78860,"0.0-3.18-2.18","3vsz0q8a4bewrfd",778,"52.csv","","null","resources/images/coin2.png","null","",NA,NA,NA,NA,""
"image-keyboard-response",68,79216,"0.0-3.19-0.19","3vsz0q8a4bewrfd",778,"52.csv","","355.0999999642372","resources/trios/L4T1A2.jpg","37","restless",0.7,0.6,0.2,0.554236005849346,"true"
"image-keyboard-response",69,79621,"0.0-3.19-1.19","3vsz0q8a4bewrfd",778,"52.csv","","null","resources/maskTrios/L4BB.jpg","null","",NA,NA,NA,NA,""
"image-keyboard-response",70,80830,"0.0-3.19-2.19","3vsz0q8a4bewrfd",778,"52.csv","","null","resources/images/coin2.png","null","",NA,NA,NA,NA,""
"image-keyboard-response",71,81185,"0.0-3.20-0.20","3vsz0q8a4bewrfd",778,"52.csv","","354.0999999642372","resources/trios/L4T1A3.jpg","37","restless",0.7,0.6,0.3,0.270214206238109,"true"
"image-keyboard-response",72,81591,"0.0-3.20-1.20","3vsz0q8a4bewrfd",778,"52.csv","","null","resources/maskTrios/L4BB.jpg","null","",NA,NA,NA,NA,""
"image-keyboard-response",73,82801,"0.0-3.20-2.20","3vsz0q8a4bewrfd",778,"52.csv","","null","resources/images/coin2.png","null","",NA,NA,NA,NA,""
"image-keyboard-response",74,84600,"0.0-3.21-0.21","3vsz0q8a4bewrfd",778,"52.csv","","1798.199999988079","resources/trios/L2T1A2.jpg","37","restless",0.7,0.5,0.3,0.138471187541683,"true"
"image-keyboard-response",75,85005,"0.0-3.21-1.21","3vsz0q8a4bewrfd",778,"52.csv","","null","resources/maskTrios/L2BB.jpg","null","",NA,NA,NA,NA,""
"image-keyboard-response",76,86212,"0.0-3.21-2.21","3vsz0q8a4bewrfd",778,"52.csv","","null","resources/images/coin2.png","null","",NA,NA,NA,NA,""
"image-keyboard-response",77,86586,"0.0-3.22-0.22","3vsz0q8a4bewrfd",778,"52.csv","","373.2000000476837","resources/trios/L4T2A3.jpg","37","restless",0.7,0.5,0.3,0.509815897220107,"true"
"image-keyboard-response",78,86988,"0.0-3.22-1.22","3vsz0q8a4bewrfd",778,"52.csv","","null","resources/maskTrios/L4BB.jpg","null","",NA,NA,NA,NA,""
"image-keyboard-response",79,88200,"0.0-3.22-2.22","3vsz0q8a4bewrfd",778,"52.csv","","null","resources/images/coin2.png","null","",NA,NA,NA,NA,""
"image-keyboard-response",80,88664,"0.0-3.23-0.23","3vsz0q8a4bewrfd",778,"52.csv","","462.19999998807907","resources/trios/L4T1A2.jpg","37","restless",0.7,0.5,0.3,0.498694123249222,"true"
"image-keyboard-response",81,89068,"0.0-3.23-1.23","3vsz0q8a4bewrfd",778,"52.csv","","null","resources/maskTrios/L4BB.jpg","null","",NA,NA,NA,NA,""
"image-keyboard-response",82,90276,"0.0-3.23-2.23","3vsz0q8a4bewrfd",778,"52.csv","","null","resources/images/coin2.png","null","",NA,NA,NA,NA,""
"image-keyboard-response",83,90720,"0.0-3.24-0.24","3vsz0q8a4bewrfd",778,"52.csv","","442.39999997615814","resources/trios/L2T1A3.jpg","37","restless",0.7,0.5,0.3,0.659419537996466,"true"
"image-keyboard-response",84,91125,"0.0-3.24-1.24","3vsz0q8a4bewrfd",778,"52.csv","","null","resources/maskTrios/L2BB.jpg","null","",NA,NA,NA,NA,""
"image-keyboard-response",85,92333,"0.0-3.24-2.24","3vsz0q8a4bewrfd",778,"52.csv","","null","resources/images/coin2.png","null","",NA,NA,NA,NA,""
"image-keyboard-response",86,92618,"0.0-3.25-0.25","3vsz0q8a4bewrfd",778,"52.csv","","284.0999999642372","resources/trios/L4T1A2.jpg","37","restless",0.8,0.5,0.3,0.990699320880575,"false"
"image-keyboard-response",87,93028,"0.0-3.25-1.25","3vsz0q8a4bewrfd",778,"52.csv","","null","resources/maskTrios/L4BB.jpg","null","",NA,NA,NA,NA,""
"image-keyboard-response",88,94236,"0.0-3.25-2.25","3vsz0q8a4bewrfd",778,"52.csv","","null","resources/images/fishbone.png","null","",NA,NA,NA,NA,""
"image-keyboard-response",89,94878,"0.0-3.26-0.26","3vsz0q8a4bewrfd",778,"52.csv","","640.8000000119209","resources/trios/L4T2A3.jpg","39","restless",0.8,0.5,0.3,0.113077275300293,"true"
"image-keyboard-response",90,95284,"0.0-3.26-1.26","3vsz0q8a4bewrfd",778,"52.csv","","null","resources/maskTrios/BBA3.jpg","null","",NA,NA,NA,NA,""
"image-keyboard-response",91,96496,"0.0-3.26-2.26","3vsz0q8a4bewrfd",778,"52.csv","","null","resources/images/coin2.png","null","",NA,NA,NA,NA,""
"image-keyboard-response",92,97171,"0.0-3.27-0.27","3vsz0q8a4bewrfd",778,"52.csv","","674.0999999642372","resources/trios/L4T2A2.jpg","39","restless",0.8,0.5,0.3,0.112708712816722,"true"
"image-keyboard-response",93,97584,"0.0-3.27-1.27","3vsz0q8a4bewrfd",778,"52.csv","","null","resources/maskTrios/BBA2.jpg","null","",NA,NA,NA,NA,""
"image-keyboard-response",94,98787,"0.0-3.27-2.27","3vsz0q8a4bewrfd",778,"52.csv","","null","resources/images/coin2.png","null","",NA,NA,NA,NA,""
"image-keyboard-response",95,99202,"0.0-3.28-0.28","3vsz0q8a4bewrfd",778,"52.csv","","414.10000002384186","resources/trios/L2T1A3.jpg","39","restless",0.9,0.5,0.2,0.0396084488879684,"true"
"image-keyboard-response",96,99612,"0.0-3.28-1.28","3vsz0q8a4bewrfd",778,"52.csv","","null","resources/maskTrios/BBA3.jpg","null","",NA,NA,NA,NA,""
"image-keyboard-response",97,100819,"0.0-3.28-2.28","3vsz0q8a4bewrfd",778,"52.csv","","null","resources/images/coin2.png","null","",NA,NA,NA,NA,""
"image-keyboard-response",98,101559,"0.0-3.29-0.29","3vsz0q8a4bewrfd",778,"52.csv","","738.8999999761581","resources/trios/L4T1A2.jpg","39","restless",0.9,0.5,0.2,0.0854549998917065,"true"
"image-keyboard-response",99,101964,"0.0-3.29-1.29","3vsz0q8a4bewrfd",778,"52.csv","","null","resources/maskTrios/BBA2.jpg","null","",NA,NA,NA,NA,""
"image-keyboard-response",100,103172,"0.0-3.29-2.29","3vsz0q8a4bewrfd",778,"52.csv","","null","resources/images/coin2.png","null","",NA,NA,NA,NA,""
"image-keyboard-response",101,103871,"0.0-3.30-0.30","3vsz0q8a4bewrfd",778,"52.csv","","698","resources/trios/L4T2A2.jpg","39","restless",0.9,0.5,0.3,0.630893538302453,"false"
"image-keyboard-response",102,104276,"0.0-3.30-1.30","3vsz0q8a4bewrfd",778,"52.csv","","null","resources/maskTrios/BBA2.jpg","null","",NA,NA,NA,NA,""
"image-keyboard-response",103,105488,"0.0-3.30-2.30","3vsz0q8a4bewrfd",778,"52.csv","","null","resources/images/fishbone.png","null","",NA,NA,NA,NA,""
"image-keyboard-response",104,105980,"0.0-3.31-0.31","3vsz0q8a4bewrfd",778,"52.csv","","491.5","resources/trios/L2T2A3.jpg","38","restless",0.9,0.4,0.3,0.0293502970808461,"true"
"image-keyboard-response",105,106384,"0.0-3.31-1.31","3vsz0q8a4bewrfd",778,"52.csv","","null","resources/maskTrios/BT2B.jpg","null","",NA,NA,NA,NA,""
"image-keyboard-response",106,107588,"0.0-3.31-2.31","3vsz0q8a4bewrfd",778,"52.csv","","null","resources/images/coin2.png","null","",NA,NA,NA,NA,""
"image-keyboard-response",107,108228,"0.0-3.32-0.32","3vsz0q8a4bewrfd",778,"52.csv","","638.5999999642372","resources/trios/L4T1A2.jpg","38","restless",0.9,0.4,0.3,0.317493456623413,"true"
"image-keyboard-response",108,108639,"0.0-3.32-1.32","3vsz0q8a4bewrfd",778,"52.csv","","null","resources/maskTrios/BT1B.jpg","null","",NA,NA,NA,NA,""
"image-keyboard-response",109,109843,"0.0-3.32-2.32","3vsz0q8a4bewrfd",778,"52.csv","","null","resources/images/coin2.png","null","",NA,NA,NA,NA,""
"image-keyboard-response",110,110571,"0.0-3.33-0.33","3vsz0q8a4bewrfd",778,"52.csv","","727.1999999880791","resources/trios/L4T1A3.jpg","38","restless",0.9,0.4,0.3,0.568574610932959,"false"
"image-keyboard-response",111,110983,"0.0-3.33-1.33","3vsz0q8a4bewrfd",778,"52.csv","","null","resources/maskTrios/BT1B.jpg","null","",NA,NA,NA,NA,""
"image-keyboard-response",112,112187,"0.0-3.33-2.33","3vsz0q8a4bewrfd",778,"52.csv","","null","resources/images/fishbone.png","null","",NA,NA,NA,NA,""
"image-keyboard-response",113,112714,"0.0-3.34-0.34","3vsz0q8a4bewrfd",778,"52.csv","","525","resources/trios/L4T1A3.jpg","37","restless",0.8,0.4,0.3,0.657518326302665,"true"
"image-keyboard-response",114,113127,"0.0-3.34-1.34","3vsz0q8a4bewrfd",778,"52.csv","","null","resources/maskTrios/L4BB.jpg","null","",NA,NA,NA,NA,""
"image-keyboard-response",115,114331,"0.0-3.34-2.34","3vsz0q8a4bewrfd",778,"52.csv","","null","resources/images/coin2.png","null","",NA,NA,NA,NA,""
"image-keyboard-response",116,115189,"0.0-3.35-0.35","3vsz0q8a4bewrfd",778,"52.csv","","856.3000000119209","resources/trios/L2T2A2.jpg","37","restless",0.8,0.4,0.3,0.456575681753986,"true"
"image-keyboard-response",117,115595,"0.0-3.35-1.35","3vsz0q8a4bewrfd",778,"52.csv","","null","resources/maskTrios/L2BB.jpg","null","",NA,NA,NA,NA,""
"image-keyboard-response",118,116802,"0.0-3.35-2.35","3vsz0q8a4bewrfd",778,"52.csv","","null","resources/images/coin2.png","null","",NA,NA,NA,NA,""
"image-keyboard-response",119,118035,"0.0-3.36-0.36","3vsz0q8a4bewrfd",778,"52.csv","","1232.5999999642372","resources/trios/L2T2A3.jpg","37","restless",0.8,0.4,0.3,0.0868523095615208,"true"
"image-keyboard-response",120,118445,"0.0-3.36-1.36","3vsz0q8a4bewrfd",778,"52.csv","","null","resources/maskTrios/L2BB.jpg","null","",NA,NA,NA,NA,""
"image-keyboard-response",121,119651,"0.0-3.36-2.36","3vsz0q8a4bewrfd",778,"52.csv","","null","resources/images/coin2.png","null","",NA,NA,NA,NA,""
"image-keyboard-response",122,120335,"0.0-3.37-0.37","3vsz0q8a4bewrfd",778,"52.csv","","682.6999999880791","resources/trios/L4T2A3.jpg","37","restless",0.8,0.5,0.3,0.669945800318386,"true"
"image-keyboard-response",123,120740,"0.0-3.37-1.37","3vsz0q8a4bewrfd",778,"52.csv","","null","resources/maskTrios/L4BB.jpg","null","",NA,NA,NA,NA,""
"image-keyboard-response",124,121946,"0.0-3.37-2.37","3vsz0q8a4bewrfd",778,"52.csv","","null","resources/images/coin2.png","null","",NA,NA,NA,NA,""
"image-keyboard-response",125,122354,"0.0-3.38-0.38","3vsz0q8a4bewrfd",778,"52.csv","","407.0999999642372","resources/trios/L4T2A2.jpg","37","restless",0.8,0.5,0.3,0.169092025290859,"true"
"image-keyboard-response",126,122763,"0.0-3.38-1.38","3vsz0q8a4bewrfd",778,"52.csv","","null","resources/maskTrios/L4BB.jpg","null","",NA,NA,NA,NA,""
"image-keyboard-response",127,123971,"0.0-3.38-2.38","3vsz0q8a4bewrfd",778,"52.csv","","null","resources/images/coin2.png","null","",NA,NA,NA,NA,""
"image-keyboard-response",128,125360,"0.0-3.39-0.39","3vsz0q8a4bewrfd",778,"52.csv","","1388.5999999642372","resources/trios/L2T2A3.jpg","37","restless",0.8,0.5,0.4,0.468910068897724,"true"
"image-keyboard-response",129,125762,"0.0-3.39-1.39","3vsz0q8a4bewrfd",778,"52.csv","","null","resources/maskTrios/L2BB.jpg","null","",NA,NA,NA,NA,""
"image-keyboard-response",130,126971,"0.0-3.39-2.39","3vsz0q8a4bewrfd",778,"52.csv","","null","resources/images/coin2.png","null","",NA,NA,NA,NA,""
"image-keyboard-response",131,128511,"0.0-3.40-0.40","3vsz0q8a4bewrfd",778,"52.csv","","1539.1000000238419","resources/trios/L4T2A3.jpg","37","restless",0.8,0.5,0.4,0.905026853406915,"false"
"image-keyboard-response",132,128919,"0.0-3.40-1.40","3vsz0q8a4bewrfd",778,"52.csv","","null","resources/maskTrios/L4BB.jpg","null","",NA,NA,NA,NA,""
"image-keyboard-response",133,130122,"0.0-3.40-2.40","3vsz0q8a4bewrfd",778,"52.csv","","null","resources/images/fishbone.png","null","",NA,NA,NA,NA,""
"image-keyboard-response",134,130673,"0.0-3.41-0.41","3vsz0q8a4bewrfd",778,"52.csv","","549.7999999523163","resources/trios/L4T1A2.jpg","39","restless",0.8,0.5,0.4,0.791202576596833,"false"
"image-keyboard-response",135,131082,"0.0-3.41-1.41","3vsz0q8a4bewrfd",778,"52.csv","","null","resources/maskTrios/BBA2.jpg","null","",NA,NA,NA,NA,""
"image-keyboard-response",136,132295,"0.0-3.41-2.41","3vsz0q8a4bewrfd",778,"52.csv","","null","resources/images/fishbone.png","null","",NA,NA,NA,NA,""
"image-keyboard-response",137,133217,"0.0-3.42-0.42","3vsz0q8a4bewrfd",778,"52.csv","","921.6999999880791","resources/trios/L2T2A3.jpg","38","restless",0.8,0.5,0.4,0.527736525344961,"false"
"image-keyboard-response",138,133631,"0.0-3.42-1.42","3vsz0q8a4bewrfd",778,"52.csv","","null","resources/maskTrios/BT2B.jpg","null","",NA,NA,NA,NA,""
"image-keyboard-response",139,134833,"0.0-3.42-2.42","3vsz0q8a4bewrfd",778,"52.csv","","null","resources/images/fishbone.png","null","",NA,NA,NA,NA,""
"image-keyboard-response",140,135289,"0.0-3.43-0.43","3vsz0q8a4bewrfd",778,"52.csv","","455","resources/trios/L2T2A3.jpg","37","restless",0.7,0.5,0.5,0.723061875726998,"false"
"image-keyboard-response",141,135701,"0.0-3.43-1.43","3vsz0q8a4bewrfd",778,"52.csv","","null","resources/maskTrios/L2BB.jpg","null","",NA,NA,NA,NA,""
"image-keyboard-response",142,136906,"0.0-3.43-2.43","3vsz0q8a4bewrfd",778,"52.csv","","null","resources/images/fishbone.png","null","",NA,NA,NA,NA,""
"image-keyboard-response",143,137399,"0.0-3.44-0.44","3vsz0q8a4bewrfd",778,"52.csv","","491.5","resources/trios/L4T1A3.jpg","38","restless",0.7,0.5,0.5,0.343249766179391,"true"
"image-keyboard-response",144,137801,"0.0-3.44-1.44","3vsz0q8a4bewrfd",778,"52.csv","","null","resources/maskTrios/BT1B.jpg","null","",NA,NA,NA,NA,""
"image-keyboard-response",145,139009,"0.0-3.44-2.44","3vsz0q8a4bewrfd",778,"52.csv","","null","resources/images/coin2.png","null","",NA,NA,NA,NA,""
"image-keyboard-response",146,140107,"0.0-3.45-0.45","3vsz0q8a4bewrfd",778,"52.csv","","1096.4000000357628","resources/trios/L4T1A3.jpg","38","restless",0.7,0.5,0.5,0.359803708681618,"true"
"image-keyboard-response",147,140517,"0.0-3.45-1.45","3vsz0q8a4bewrfd",778,"52.csv","","null","resources/maskTrios/BT1B.jpg","null","",NA,NA,NA,NA,""
"image-keyboard-response",148,141725,"0.0-3.45-2.45","3vsz0q8a4bewrfd",778,"52.csv","","null","resources/images/coin2.png","null","",NA,NA,NA,NA,""
"image-keyboard-response",149,142860,"0.0-3.46-0.46","3vsz0q8a4bewrfd",778,"52.csv","","1133.0999999642372","resources/trios/L2T2A3.jpg","38","restless",0.7,0.5,0.5,0.411393602468744,"true"
"image-keyboard-response",150,143267,"0.0-3.46-1.46","3vsz0q8a4bewrfd",778,"52.csv","","null","resources/maskTrios/BT2B.jpg","null","",NA,NA,NA,NA,""
"image-keyboard-response",151,144474,"0.0-3.46-2.46","3vsz0q8a4bewrfd",778,"52.csv","","null","resources/images/coin2.png","null","",NA,NA,NA,NA,""
"image-keyboard-response",152,146584,"0.0-3.47-0.47","3vsz0q8a4bewrfd",778,"52.csv","","2108.599999964237","resources/trios/L2T1A3.jpg","38","restless",0.7,0.5,0.5,0.705705538045285,"false"
"image-keyboard-response",153,146988,"0.0-3.47-1.47","3vsz0q8a4bewrfd",778,"52.csv","","null","resources/maskTrios/BT1B.jpg","null","",NA,NA,NA,NA,""
"image-keyboard-response",154,148198,"0.0-3.47-2.47","3vsz0q8a4bewrfd",778,"52.csv","","null","resources/images/fishbone.png","null","",NA,NA,NA,NA,""
"image-keyboard-response",155,148946,"0.0-3.48-0.48","3vsz0q8a4bewrfd",778,"52.csv","","747.5","resources/trios/L2T2A3.jpg","39","restless",0.7,0.5,0.5,0.444319403096741,"true"
"image-keyboard-response",156,149358,"0.0-3.48-1.48","3vsz0q8a4bewrfd",778,"52.csv","","null","resources/maskTrios/BBA3.jpg","null","",NA,NA,NA,NA,""
"image-keyboard-response",157,150561,"0.0-3.48-2.48","3vsz0q8a4bewrfd",778,"52.csv","","null","resources/images/coin2.png","null","",NA,NA,NA,NA,""
"image-keyboard-response",158,153736,"0.0-3.49-0.49","3vsz0q8a4bewrfd",778,"52.csv","","3174.099999964237","resources/trios/L2T2A2.jpg","39","restless",0.7,0.4,0.5,0.120064003756075,"true"
"image-keyboard-response",159,154146,"0.0-3.49-1.49","3vsz0q8a4bewrfd",778,"52.csv","","null","resources/maskTrios/BBA2.jpg","null","",NA,NA,NA,NA,""
"image-keyboard-response",160,155353,"0.0-3.49-2.49","3vsz0q8a4bewrfd",778,"52.csv","","null","resources/images/coin2.png","null","",NA,NA,NA,NA,""
"image-keyboard-response",161,155937,"0.0-3.50-0.50","3vsz0q8a4bewrfd",778,"52.csv","","582.5","resources/trios/L4T1A3.jpg","39","restless",0.7,0.4,0.5,0.336649663994984,"true"
"image-keyboard-response",162,156345,"0.0-3.50-1.50","3vsz0q8a4bewrfd",778,"52.csv","","null","resources/maskTrios/BBA3.jpg","null","",NA,NA,NA,NA,""
"image-keyboard-response",163,157554,"0.0-3.50-2.50","3vsz0q8a4bewrfd",778,"52.csv","","null","resources/images/coin2.png","null","",NA,NA,NA,NA,""
"image-keyboard-response",164,158015,"0.0-3.51-0.51","3vsz0q8a4bewrfd",778,"52.csv","","459.39999997615814","resources/trios/L2T2A3.jpg","39","restless",0.7,0.4,0.5,0.103813386458875,"true"
"image-keyboard-response",165,158420,"0.0-3.51-1.51","3vsz0q8a4bewrfd",778,"52.csv","","null","resources/maskTrios/BBA3.jpg","null","",NA,NA,NA,NA,""
"image-keyboard-response",166,159629,"0.0-3.51-2.51","3vsz0q8a4bewrfd",778,"52.csv","","null","resources/images/coin2.png","null","",NA,NA,NA,NA,""
"image-keyboard-response",167,160348,"0.0-3.52-0.52","3vsz0q8a4bewrfd",778,"52.csv","","717.8999999761581","resources/trios/L4T1A3.jpg","39","restless",0.7,0.4,0.5,0.673172773766193,"false"
"image-keyboard-response",168,160752,"0.0-3.52-1.52","3vsz0q8a4bewrfd",778,"52.csv","","null","resources/maskTrios/BBA3.jpg","null","",NA,NA,NA,NA,""
"image-keyboard-response",169,161962,"0.0-3.52-2.52","3vsz0q8a4bewrfd",778,"52.csv","","null","resources/images/fishbone.png","null","",NA,NA,NA,NA,""
"image-keyboard-response",170,162839,"0.0-3.53-0.53","3vsz0q8a4bewrfd",778,"52.csv","","876.3999999761581","resources/trios/L4T2A2.jpg","37","restless",0.7,0.4,0.5,0.325278852707001,"true"
"image-keyboard-response",171,163249,"0.0-3.53-1.53","3vsz0q8a4bewrfd",778,"52.csv","","null","resources/maskTrios/L4BB.jpg","null","",NA,NA,NA,NA,""
"image-keyboard-response",172,164460,"0.0-3.53-2.53","3vsz0q8a4bewrfd",778,"52.csv","","null","resources/images/coin2.png","null","",NA,NA,NA,NA,""
"image-keyboard-response",173,165033,"0.0-3.54-0.54","3vsz0q8a4bewrfd",778,"52.csv","","572.6999999880791","resources/trios/L2T1A2.jpg","37","restless",0.6,0.4,0.5,0.947421110420111,"false"
"image-keyboard-response",174,165445,"0.0-3.54-1.54","3vsz0q8a4bewrfd",778,"52.csv","","null","resources/maskTrios/L2BB.jpg","null","",NA,NA,NA,NA,""
"image-keyboard-response",175,166648,"0.0-3.54-2.54","3vsz0q8a4bewrfd",778,"52.csv","","null","resources/images/fishbone.png","null","",NA,NA,NA,NA,""
"image-keyboard-response",176,167075,"0.0-3.55-0.55","3vsz0q8a4bewrfd",778,"52.csv","","426","resources/trios/L2T1A3.jpg","38","restless",0.6,0.4,0.5,0.757955778916464,"false"
"image-keyboard-response",177,167484,"0.0-3.55-1.55","3vsz0q8a4bewrfd",778,"52.csv","","null","resources/maskTrios/BT1B.jpg","null","",NA,NA,NA,NA,""
"image-keyboard-response",178,168691,"0.0-3.55-2.55","3vsz0q8a4bewrfd",778,"52.csv","","null","resources/images/fishbone.png","null","",NA,NA,NA,NA,""
"image-keyboard-response",179,169193,"0.0-3.56-0.56","3vsz0q8a4bewrfd",778,"52.csv","","501","resources/trios/L2T1A3.jpg","39","restless",0.6,0.4,0.5,0.677908866662585,"false"
"image-keyboard-response",180,169601,"0.0-3.56-1.56","3vsz0q8a4bewrfd",778,"52.csv","","null","resources/maskTrios/BBA3.jpg","null","",NA,NA,NA,NA,""
"image-keyboard-response",181,170811,"0.0-3.56-2.56","3vsz0q8a4bewrfd",778,"52.csv","","null","resources/images/fishbone.png","null","",NA,NA,NA,NA,""
"image-keyboard-response",182,171311,"0.0-3.57-0.57","3vsz0q8a4bewrfd",778,"52.csv","","499.39999997615814","resources/trios/L2T2A2.jpg","37","restless",0.6,0.4,0.5,0.250434917198324,"true"
"image-keyboard-response",183,171724,"0.0-3.57-1.57","3vsz0q8a4bewrfd",778,"52.csv","","null","resources/maskTrios/L2BB.jpg","null","",NA,NA,NA,NA,""
"image-keyboard-response",184,172928,"0.0-3.57-2.57","3vsz0q8a4bewrfd",778,"52.csv","","null","resources/images/coin2.png","null","",NA,NA,NA,NA,""
"image-keyboard-response",185,173501,"0.0-3.58-0.58","3vsz0q8a4bewrfd",778,"52.csv","","572.5999999642372","resources/trios/L4T1A2.jpg","37","restless",0.6,0.4,0.5,0.512288526188256,"true"
"image-keyboard-response",186,173904,"0.0-3.58-1.58","3vsz0q8a4bewrfd",778,"52.csv","","null","resources/maskTrios/L4BB.jpg","null","",NA,NA,NA,NA,""
"image-keyboard-response",187,175112,"0.0-3.58-2.58","3vsz0q8a4bewrfd",778,"52.csv","","null","resources/images/coin2.png","null","",NA,NA,NA,NA,""
"image-keyboard-response",188,175637,"0.0-3.59-0.59","3vsz0q8a4bewrfd",778,"52.csv","","524.1000000238419","resources/trios/L2T1A3.jpg","37","restless",0.6,0.5,0.5,0.308120731067643,"true"
"image-keyboard-response",189,176044,"0.0-3.59-1.59","3vsz0q8a4bewrfd",778,"52.csv","","null","resources/maskTrios/L2BB.jpg","null","",NA,NA,NA,NA,""
"image-keyboard-response",190,177248,"0.0-3.59-2.59","3vsz0q8a4bewrfd",778,"52.csv","","null","resources/images/coin2.png","null","",NA,NA,NA,NA,""
"image-keyboard-response",191,177833,"0.0-3.60-0.60","3vsz0q8a4bewrfd",778,"52.csv","","582.8999999761581","resources/trios/L4T2A2.jpg","37","restless",0.6,0.5,0.5,0.938283278939517,"false"
"image-keyboard-response",192,178244,"0.0-3.60-1.60","3vsz0q8a4bewrfd",778,"52.csv","","null","resources/maskTrios/L4BB.jpg","null","",NA,NA,NA,NA,""
"image-keyboard-response",193,179449,"0.0-3.60-2.60","3vsz0q8a4bewrfd",778,"52.csv","","null","resources/images/fishbone.png","null","",NA,NA,NA,NA,""
"image-keyboard-response",194,180011,"0.0-3.61-0.61","3vsz0q8a4bewrfd",778,"52.csv","","561.3000000119209","resources/trios/L2T1A2.jpg","38","restless",0.6,0.5,0.5,0.836557479575262,"false"
"image-keyboard-response",195,180417,"0.0-3.61-1.61","3vsz0q8a4bewrfd",778,"52.csv","","null","resources/maskTrios/BT1B.jpg","null","",NA,NA,NA,NA,""
"image-keyboard-response",196,181626,"0.0-3.61-2.61","3vsz0q8a4bewrfd",778,"52.csv","","null","resources/images/fishbone.png","null","",NA,NA,NA,NA,""
"image-keyboard-response",197,182106,"0.0-3.62-0.62","3vsz0q8a4bewrfd",778,"52.csv","","479.69999998807907","resources/trios/L2T1A3.jpg","39","restless",0.6,0.5,0.5,0.642437775713092,"false"
"image-keyboard-response",198,182512,"0.0-3.62-1.62","3vsz0q8a4bewrfd",778,"52.csv","","null","resources/maskTrios/BBA3.jpg","null","",NA,NA,NA,NA,""
"image-keyboard-response",199,183722,"0.0-3.62-2.62","3vsz0q8a4bewrfd",778,"52.csv","","null","resources/images/fishbone.png","null","",NA,NA,NA,NA,""
"image-keyboard-response",200,184654,"0.0-3.63-0.63","3vsz0q8a4bewrfd",778,"52.csv","","931.3000000119209","resources/trios/L2T1A2.jpg","37","restless",0.6,0.5,0.5,0.0765798422911297,"true"
"image-keyboard-response",201,185068,"0.0-3.63-1.63","3vsz0q8a4bewrfd",778,"52.csv","","null","resources/maskTrios/L2BB.jpg","null","",NA,NA,NA,NA,""
"image-keyboard-response",202,186275,"0.0-3.63-2.63","3vsz0q8a4bewrfd",778,"52.csv","","null","resources/images/coin2.png","null","",NA,NA,NA,NA,""
"image-keyboard-response",203,187859,"0.0-3.64-0.64","3vsz0q8a4bewrfd",778,"52.csv","","1582.5999999642372","resources/trios/L2T1A3.jpg","37","restless",0.6,0.5,0.5,0.0346376635424486,"true"
"image-keyboard-response",204,188267,"0.0-3.64-1.64","3vsz0q8a4bewrfd",778,"52.csv","","null","resources/maskTrios/L2BB.jpg","null","",NA,NA,NA,NA,""
"image-keyboard-response",205,189472,"0.0-3.64-2.64","3vsz0q8a4bewrfd",778,"52.csv","","null","resources/images/coin2.png","null","",NA,NA,NA,NA,""
"image-keyboard-response",206,190342,"0.0-3.65-0.65","3vsz0q8a4bewrfd",778,"52.csv","","868.5","resources/trios/L4T1A3.jpg","37","restless",0.5,0.5,0.4,0.0376083052432294,"true"
"image-keyboard-response",207,190743,"0.0-3.65-1.65","3vsz0q8a4bewrfd",778,"52.csv","","null","resources/maskTrios/L4BB.jpg","null","",NA,NA,NA,NA,""
"image-keyboard-response",208,191952,"0.0-3.65-2.65","3vsz0q8a4bewrfd",778,"52.csv","","null","resources/images/coin2.png","null","",NA,NA,NA,NA,""
"image-keyboard-response",209,193050,"0.0-3.66-0.66","3vsz0q8a4bewrfd",778,"52.csv","","1097.300000011921","resources/trios/L2T1A2.jpg","37","restless",0.5,0.5,0.4,0.942081217023621,"false"
"image-keyboard-response",210,193455,"0.0-3.66-1.66","3vsz0q8a4bewrfd",778,"52.csv","","null","resources/maskTrios/L2BB.jpg","null","",NA,NA,NA,NA,""
"image-keyboard-response",211,194668,"0.0-3.66-2.66","3vsz0q8a4bewrfd",778,"52.csv","","null","resources/images/fishbone.png","null","",NA,NA,NA,NA,""
"image-keyboard-response",212,195164,"0.0-3.67-0.67","3vsz0q8a4bewrfd",778,"52.csv","","495.10000002384186","resources/trios/L4T2A2.jpg","38","restless",0.5,0.5,0.4,0.297527736579965,"true"
"image-keyboard-response",213,195570,"0.0-3.67-1.67","3vsz0q8a4bewrfd",778,"52.csv","","null","resources/maskTrios/BT2B.jpg","null","",NA,NA,NA,NA,""
"image-keyboard-response",214,196776,"0.0-3.67-2.67","3vsz0q8a4bewrfd",778,"52.csv","","null","resources/images/coin2.png","null","",NA,NA,NA,NA,""
"image-keyboard-response",215,197950,"0.0-3.68-0.68","3vsz0q8a4bewrfd",778,"52.csv","","1173","resources/trios/L4T2A2.jpg","38","restless",0.5,0.5,0.4,0.790149299463563,"false"
"image-keyboard-response",216,198362,"0.0-3.68-1.68","3vsz0q8a4bewrfd",778,"52.csv","","null","resources/maskTrios/BT2B.jpg","null","",NA,NA,NA,NA,""
"image-keyboard-response",217,199567,"0.0-3.68-2.68","3vsz0q8a4bewrfd",778,"52.csv","","null","resources/images/fishbone.png","null","",NA,NA,NA,NA,""
"image-keyboard-response",218,200260,"0.0-3.69-0.69","3vsz0q8a4bewrfd",778,"52.csv","","692.6000000238419","resources/trios/L2T1A3.jpg","39","restless",0.5,0.5,0.4,0.802523227305755,"false"
"image-keyboard-response",219,200668,"0.0-3.69-1.69","3vsz0q8a4bewrfd",778,"52.csv","","null","resources/maskTrios/BBA3.jpg","null","",NA,NA,NA,NA,""
"image-keyboard-response",220,201870,"0.0-3.69-2.69","3vsz0q8a4bewrfd",778,"52.csv","","null","resources/images/fishbone.png","null","",NA,NA,NA,NA,""
"image-keyboard-response",221,202381,"0.0-3.70-0.70","3vsz0q8a4bewrfd",778,"52.csv","","510.10000002384186","resources/trios/L2T2A3.jpg","37","restless",0.6,0.5,0.4,0.583908176486714,"true"
"image-keyboard-response",222,202784,"0.0-3.70-1.70","3vsz0q8a4bewrfd",778,"52.csv","","null","resources/maskTrios/L2BB.jpg","null","",NA,NA,NA,NA,""
"image-keyboard-response",223,203991,"0.0-3.70-2.70","3vsz0q8a4bewrfd",778,"52.csv","","null","resources/images/coin2.png","null","",NA,NA,NA,NA,""
"image-keyboard-response",224,205172,"0.0-3.71-0.71","3vsz0q8a4bewrfd",778,"52.csv","","1180.4000000357628","resources/trios/L4T2A2.jpg","37","restless",0.6,0.4,0.4,0.3334028606455,"true"
"image-keyboard-response",225,205578,"0.0-3.71-1.71","3vsz0q8a4bewrfd",778,"52.csv","","null","resources/maskTrios/L4BB.jpg","null","",NA,NA,NA,NA,""
"image-keyboard-response",226,206784,"0.0-3.71-2.71","3vsz0q8a4bewrfd",778,"52.csv","","null","resources/images/coin2.png","null","",NA,NA,NA,NA,""
"image-keyboard-response",227,208565,"0.0-3.72-0.72","3vsz0q8a4bewrfd",778,"52.csv","","1780.1000000238419","resources/trios/L4T2A3.jpg","37","restless",0.6,0.4,0.4,0.187574682857615,"true"
"image-keyboard-response",228,208974,"0.0-3.72-1.72","3vsz0q8a4bewrfd",778,"52.csv","","null","resources/maskTrios/L4BB.jpg","null","",NA,NA,NA,NA,""
"image-keyboard-response",229,210183,"0.0-3.72-2.72","3vsz0q8a4bewrfd",778,"52.csv","","null","resources/images/coin2.png","null","",NA,NA,NA,NA,""
"image-keyboard-response",230,210885,"0.0-3.73-0.73","3vsz0q8a4bewrfd",778,"52.csv","","701","resources/trios/L4T1A3.jpg","37","restless",0.6,0.4,0.4,0.590304007897333,"true"
"image-keyboard-response",231,211290,"0.0-3.73-1.73","3vsz0q8a4bewrfd",778,"52.csv","","null","resources/maskTrios/L4BB.jpg","null","",NA,NA,NA,NA,""
"image-keyboard-response",232,212497,"0.0-3.73-2.73","3vsz0q8a4bewrfd",778,"52.csv","","null","resources/images/coin2.png","null","",NA,NA,NA,NA,""
"image-keyboard-response",233,213274,"0.0-3.74-0.74","3vsz0q8a4bewrfd",778,"52.csv","","774.8999999761581","resources/trios/L4T1A3.jpg","37","restless",0.6,0.4,0.4,0.405568924487104,"true"
"image-keyboard-response",234,213679,"0.0-3.74-1.74","3vsz0q8a4bewrfd",778,"52.csv","","null","resources/maskTrios/L4BB.jpg","null","",NA,NA,NA,NA,""
"image-keyboard-response",235,214887,"0.0-3.74-2.74","3vsz0q8a4bewrfd",778,"52.csv","","null","resources/images/coin2.png","null","",NA,NA,NA,NA,""
"image-keyboard-response",236,215958,"0.0-3.75-0.75","3vsz0q8a4bewrfd",778,"52.csv","","1070.7000000476837","resources/trios/L4T1A3.jpg","37","restless",0.6,0.4,0.4,0.568048435240077,"true"
"image-keyboard-response",237,216370,"0.0-3.75-1.75","3vsz0q8a4bewrfd",778,"52.csv","","null","resources/maskTrios/L4BB.jpg","null","",NA,NA,NA,NA,""
"image-keyboard-response",238,217575,"0.0-3.75-2.75","3vsz0q8a4bewrfd",778,"52.csv","","null","resources/images/coin2.png","null","",NA,NA,NA,NA,""
"image-keyboard-response",239,219467,"0.0-3.76-0.76","3vsz0q8a4bewrfd",778,"52.csv","","1891.5","resources/trios/L4T1A3.jpg","37","restless",0.6,0.5,0.4,0.336402837091709,"true"
"image-keyboard-response",240,219875,"0.0-3.76-1.76","3vsz0q8a4bewrfd",778,"52.csv","","null","resources/maskTrios/L4BB.jpg","null","",NA,NA,NA,NA,""
"image-keyboard-response",241,221078,"0.0-3.76-2.76","3vsz0q8a4bewrfd",778,"52.csv","","null","resources/images/coin2.png","null","",NA,NA,NA,NA,""
"image-keyboard-response",242,222275,"0.0-3.77-0.77","3vsz0q8a4bewrfd",778,"52.csv","","1195.9000000357628","resources/trios/L2T2A2.jpg","37","restless",0.6,0.5,0.4,0.385156815843443,"true"
"image-keyboard-response",243,222678,"0.0-3.77-1.77","3vsz0q8a4bewrfd",778,"52.csv","","null","resources/maskTrios/L2BB.jpg","null","",NA,NA,NA,NA,""
"image-keyboard-response",244,223886,"0.0-3.77-2.77","3vsz0q8a4bewrfd",778,"52.csv","","null","resources/images/coin2.png","null","",NA,NA,NA,NA,""
"image-keyboard-response",245,225249,"0.0-3.78-0.78","3vsz0q8a4bewrfd",778,"52.csv","","1362","resources/trios/L4T2A2.jpg","37","restless",0.6,0.5,0.4,0.885588964607101,"false"
"image-keyboard-response",246,225658,"0.0-3.78-1.78","3vsz0q8a4bewrfd",778,"52.csv","","null","resources/maskTrios/L4BB.jpg","null","",NA,NA,NA,NA,""
"image-keyboard-response",247,226862,"0.0-3.78-2.78","3vsz0q8a4bewrfd",778,"52.csv","","null","resources/images/fishbone.png","null","",NA,NA,NA,NA,""
"image-keyboard-response",248,227857,"0.0-3.79-0.79","3vsz0q8a4bewrfd",778,"52.csv","","994.3000000119209","resources/trios/L4T2A2.jpg","38","restless",0.6,0.5,0.4,0.317340442176985,"true"
"image-keyboard-response",249,228262,"0.0-3.79-1.79","3vsz0q8a4bewrfd",778,"52.csv","","null","resources/maskTrios/BT2B.jpg","null","",NA,NA,NA,NA,""
"image-keyboard-response",250,229474,"0.0-3.79-2.79","3vsz0q8a4bewrfd",778,"52.csv","","null","resources/images/coin2.png","null","",NA,NA,NA,NA,""
"image-keyboard-response",251,230250,"0.0-3.80-0.80","3vsz0q8a4bewrfd",778,"52.csv","","774","resources/trios/L2T1A2.jpg","38","restless",0.6,0.5,0.5,0.715321906863215,"false"
"image-keyboard-response",252,230655,"0.0-3.80-1.80","3vsz0q8a4bewrfd",778,"52.csv","","null","resources/maskTrios/BT1B.jpg","null","",NA,NA,NA,NA,""
"image-keyboard-response",253,231864,"0.0-3.80-2.80","3vsz0q8a4bewrfd",778,"52.csv","","null","resources/images/fishbone.png","null","",NA,NA,NA,NA,""
"image-keyboard-response",254,232729,"0.0-3.81-0.81","3vsz0q8a4bewrfd",778,"52.csv","","863.8999999761581","resources/trios/L2T2A3.jpg","39","restless",0.6,0.5,0.5,0.790354953141912,"false"
"image-keyboard-response",255,233136,"0.0-3.81-1.81","3vsz0q8a4bewrfd",778,"52.csv","","null","resources/maskTrios/BBA3.jpg","null","",NA,NA,NA,NA,""
"image-keyboard-response",256,234344,"0.0-3.81-2.81","3vsz0q8a4bewrfd",778,"52.csv","","null","resources/images/fishbone.png","null","",NA,NA,NA,NA,""
"image-keyboard-response",257,235216,"0.0-3.82-0.82","3vsz0q8a4bewrfd",778,"52.csv","","870.1000000238419","resources/trios/L4T1A3.jpg","37","restless",0.6,0.5,0.5,0.260123348994953,"true"
"image-keyboard-response",258,235626,"0.0-3.82-1.82","3vsz0q8a4bewrfd",778,"52.csv","","null","resources/maskTrios/L4BB.jpg","null","",NA,NA,NA,NA,""
"image-keyboard-response",259,236832,"0.0-3.82-2.82","3vsz0q8a4bewrfd",778,"52.csv","","null","resources/images/coin2.png","null","",NA,NA,NA,NA,""
"image-keyboard-response",260,237878,"0.0-3.83-0.83","3vsz0q8a4bewrfd",778,"52.csv","","1044.699999988079","resources/trios/L4T1A3.jpg","37","restless",0.6,0.5,0.5,0.103054772661704,"true"
"image-keyboard-response",261,238289,"0.0-3.83-1.83","3vsz0q8a4bewrfd",778,"52.csv","","null","resources/maskTrios/L4BB.jpg","null","",NA,NA,NA,NA,""
"image-keyboard-response",262,239496,"0.0-3.83-2.83","3vsz0q8a4bewrfd",778,"52.csv","","null","resources/images/coin2.png","null","",NA,NA,NA,NA,""
"image-keyboard-response",263,240474,"0.0-3.84-0.84","3vsz0q8a4bewrfd",778,"52.csv","","976.7999999523163","resources/trios/L2T2A3.jpg","37","restless",0.6,0.5,0.5,0.38435428965033,"true"
"image-keyboard-response",264,240878,"0.0-3.84-1.84","3vsz0q8a4bewrfd",778,"52.csv","","null","resources/maskTrios/L2BB.jpg","null","",NA,NA,NA,NA,""
"image-keyboard-response",265,242087,"0.0-3.84-2.84","3vsz0q8a4bewrfd",778,"52.csv","","null","resources/images/coin2.png","null","",NA,NA,NA,NA,""
"image-keyboard-response",266,242667,"0.0-3.85-0.85","3vsz0q8a4bewrfd",778,"52.csv","","579.6999999880791","resources/trios/L2T2A3.jpg","37","restless",0.6,0.5,0.6,0.380447219115576,"true"
"image-keyboard-response",267,243070,"0.0-3.85-1.85","3vsz0q8a4bewrfd",778,"52.csv","","null","resources/maskTrios/L2BB.jpg","null","",NA,NA,NA,NA,""
"image-keyboard-response",268,244277,"0.0-3.85-2.85","3vsz0q8a4bewrfd",778,"52.csv","","null","resources/images/coin2.png","null","",NA,NA,NA,NA,""
"image-keyboard-response",269,244709,"0.0-3.86-0.86","3vsz0q8a4bewrfd",778,"52.csv","","431","resources/trios/L4T2A3.jpg","37","restless",0.6,0.4,0.6,0.596211193109771,"true"
"image-keyboard-response",270,245121,"0.0-3.86-1.86","3vsz0q8a4bewrfd",778,"52.csv","","null","resources/maskTrios/L4BB.jpg","null","",NA,NA,NA,NA,""
"image-keyboard-response",271,246327,"0.0-3.86-2.86","3vsz0q8a4bewrfd",778,"52.csv","","null","resources/images/coin2.png","null","",NA,NA,NA,NA,""
"image-keyboard-response",272,246991,"0.0-3.87-0.87","3vsz0q8a4bewrfd",778,"52.csv","","662.6000000238419","resources/trios/L4T1A2.jpg","37","restless",0.7,0.4,0.6,0.705014380119598,"false"
"image-keyboard-response",273,247398,"0.0-3.87-1.87","3vsz0q8a4bewrfd",778,"52.csv","","null","resources/maskTrios/L4BB.jpg","null","",NA,NA,NA,NA,""
"image-keyboard-response",274,248606,"0.0-3.87-2.87","3vsz0q8a4bewrfd",778,"52.csv","","null","resources/images/fishbone.png","null","",NA,NA,NA,NA,""
"image-keyboard-response",275,249308,"0.0-3.88-0.88","3vsz0q8a4bewrfd",778,"52.csv","","701.6000000238419","resources/trios/L2T1A3.jpg","38","restless",0.7,0.4,0.6,0.36756756224626,"true"
"image-keyboard-response",276,249719,"0.0-3.88-1.88","3vsz0q8a4bewrfd",778,"52.csv","","null","resources/maskTrios/BT1B.jpg","null","",NA,NA,NA,NA,""
"image-keyboard-response",277,250930,"0.0-3.88-2.88","3vsz0q8a4bewrfd",778,"52.csv","","null","resources/images/coin2.png","null","",NA,NA,NA,NA,""
"image-keyboard-response",278,251604,"0.0-3.89-0.89","3vsz0q8a4bewrfd",778,"52.csv","","673.4000000357628","resources/trios/L2T1A2.jpg","38","restless",0.7,0.4,0.6,0.726152422821788,"false"
"image-keyboard-response",279,252014,"0.0-3.89-1.89","3vsz0q8a4bewrfd",778,"52.csv","","null","resources/maskTrios/BT1B.jpg","null","",NA,NA,NA,NA,""
"image-keyboard-response",280,253226,"0.0-3.89-2.89","3vsz0q8a4bewrfd",778,"52.csv","","null","resources/images/fishbone.png","null","",NA,NA,NA,NA,""
"image-keyboard-response",281,253863,"0.0-3.90-0.90","3vsz0q8a4bewrfd",778,"52.csv","","636","resources/trios/L4T2A3.jpg","39","restless",0.7,0.4,0.6,0.184010577373591,"true"
"image-keyboard-response",282,254270,"0.0-3.90-1.90","3vsz0q8a4bewrfd",778,"52.csv","","null","resources/maskTrios/BBA3.jpg","null","",NA,NA,NA,NA,""
"image-keyboard-response",283,255477,"0.0-3.90-2.90","3vsz0q8a4bewrfd",778,"52.csv","","null","resources/images/coin2.png","null","",NA,NA,NA,NA,""
"image-keyboard-response",284,256627,"0.0-3.91-0.91","3vsz0q8a4bewrfd",778,"52.csv","","1148.7999999523163","resources/trios/L2T2A2.jpg","39","restless",0.7,0.4,0.6,0.136669479399502,"true"
"image-keyboard-response",285,257037,"0.0-3.91-1.91","3vsz0q8a4bewrfd",778,"52.csv","","null","resources/maskTrios/BBA2.jpg","null","",NA,NA,NA,NA,""
"image-keyboard-response",286,258245,"0.0-3.91-2.91","3vsz0q8a4bewrfd",778,"52.csv","","null","resources/images/coin2.png","null","",NA,NA,NA,NA,""
"image-keyboard-response",287,259248,"0.0-3.92-0.92","3vsz0q8a4bewrfd",778,"52.csv","","1002.6000000238419","resources/trios/L2T2A2.jpg","39","restless",0.7,0.4,0.6,0.710879585358931,"false"
"image-keyboard-response",288,259653,"0.0-3.92-1.92","3vsz0q8a4bewrfd",778,"52.csv","","null","resources/maskTrios/BBA2.jpg","null","",NA,NA,NA,NA,""
"image-keyboard-response",289,260863,"0.0-3.92-2.92","3vsz0q8a4bewrfd",778,"52.csv","","null","resources/images/fishbone.png","null","",NA,NA,NA,NA,""
"image-keyboard-response",290,262452,"0.0-3.93-0.93","3vsz0q8a4bewrfd",778,"52.csv","","1587.8999999761581","resources/trios/L2T2A3.jpg","37","restless",0.7,0.4,0.6,0.855992069056446,"false"
"image-keyboard-response",291,262861,"0.0-3.93-1.93","3vsz0q8a4bewrfd",778,"52.csv","","null","resources/maskTrios/L2BB.jpg","null","",NA,NA,NA,NA,""
"image-keyboard-response",292,264073,"0.0-3.93-2.93","3vsz0q8a4bewrfd",778,"52.csv","","null","resources/images/fishbone.png","null","",NA,NA,NA,NA,""
"image-keyboard-response",293,264704,"0.0-3.94-0.94","3vsz0q8a4bewrfd",778,"52.csv","","630.2000000476837","resources/trios/L2T2A3.jpg","38","restless",0.7,0.4,0.6,0.430607930309959,"false"
"image-keyboard-response",294,265112,"0.0-3.94-1.94","3vsz0q8a4bewrfd",778,"52.csv","","null","resources/maskTrios/BT2B.jpg","null","",NA,NA,NA,NA,""
"image-keyboard-response",295,266321,"0.0-3.94-2.94","3vsz0q8a4bewrfd",778,"52.csv","","null","resources/images/fishbone.png","null","",NA,NA,NA,NA,""
"image-keyboard-response",296,266721,"0.0-3.95-0.95","3vsz0q8a4bewrfd",778,"52.csv","","398.7000000476837","resources/trios/L4T1A2.jpg","39","restless",0.8,0.4,0.6,0.445887858299249,"true"
"image-keyboard-response",297,267127,"0.0-3.95-1.95","3vsz0q8a4bewrfd",778,"52.csv","","null","resources/maskTrios/BBA2.jpg","null","",NA,NA,NA,NA,""
"image-keyboard-response",298,268333,"0.0-3.95-2.95","3vsz0q8a4bewrfd",778,"52.csv","","null","resources/images/coin2.png","null","",NA,NA,NA,NA,""
"image-keyboard-response",299,269241,"0.0-3.96-0.96","3vsz0q8a4bewrfd",778,"52.csv","","907.6000000238419","resources/trios/L2T1A2.jpg","39","restless",0.8,0.4,0.6,0.582523711192533,"true"
"image-keyboard-response",300,269645,"0.0-3.96-1.96","3vsz0q8a4bewrfd",778,"52.csv","","null","resources/maskTrios/BBA2.jpg","null","",NA,NA,NA,NA,""
"image-keyboard-response",301,270857,"0.0-3.96-2.96","3vsz0q8a4bewrfd",778,"52.csv","","null","resources/images/coin2.png","null","",NA,NA,NA,NA,""
"image-keyboard-response",302,271957,"0.0-3.97-0.97","3vsz0q8a4bewrfd",778,"52.csv","","1099.2000000476837","resources/trios/L4T2A2.jpg","39","restless",0.8,0.4,0.6,0.126899900993838,"true"
"image-keyboard-response",303,272364,"0.0-3.97-1.97","3vsz0q8a4bewrfd",778,"52.csv","","null","resources/maskTrios/BBA2.jpg","null","",NA,NA,NA,NA,""
"image-keyboard-response",304,273576,"0.0-3.97-2.97","3vsz0q8a4bewrfd",778,"52.csv","","null","resources/images/coin2.png","null","",NA,NA,NA,NA,""
"image-keyboard-response",305,275655,"0.0-3.98-0.98","3vsz0q8a4bewrfd",778,"52.csv","","2078.300000011921","resources/trios/L2T2A3.jpg","39","restless",0.8,0.4,0.6,0.925720372960975,"false"
"image-keyboard-response",306,276060,"0.0-3.98-1.98","3vsz0q8a4bewrfd",778,"52.csv","","null","resources/maskTrios/BBA3.jpg","null","",NA,NA,NA,NA,""
"image-keyboard-response",307,277269,"0.0-3.98-2.98","3vsz0q8a4bewrfd",778,"52.csv","","null","resources/images/fishbone.png","null","",NA,NA,NA,NA,""
"image-keyboard-response",308,278290,"0.0-3.99-0.99","3vsz0q8a4bewrfd",778,"52.csv","","1019.5999999642372","resources/trios/L2T1A2.jpg","37","restless",0.8,0.4,0.6,0.136793757526297,"true"
"image-keyboard-response",309,278695,"0.0-3.99-1.99","3vsz0q8a4bewrfd",778,"52.csv","","null","resources/maskTrios/L2BB.jpg","null","",NA,NA,NA,NA,""
"image-keyboard-response",310,279900,"0.0-3.99-2.99","3vsz0q8a4bewrfd",778,"52.csv","","null","resources/images/coin2.png","null","",NA,NA,NA,NA,""
"image-keyboard-response",311,280529,"0.0-3.100-0.100","3vsz0q8a4bewrfd",778,"52.csv","","627.3000000119209","resources/trios/L4T1A3.jpg","37","restless",0.8,0.3,0.6,0.0814366860208224,"true"
"image-keyboard-response",312,280933,"0.0-3.100-1.100","3vsz0q8a4bewrfd",778,"52.csv","","null","resources/maskTrios/L4BB.jpg","null","",NA,NA,NA,NA,""
"image-keyboard-response",313,282140,"0.0-3.100-2.100","3vsz0q8a4bewrfd",778,"52.csv","","null","resources/images/coin2.png","null","",NA,NA,NA,NA,""
"image-keyboard-response",314,282766,"0.0-3.101-0.101","3vsz0q8a4bewrfd",778,"52.csv","","624.6999999880791","resources/trios/L4T2A3.jpg","37","restless",0.8,0.3,0.6,0.994636414596533,"false"
"image-keyboard-response",315,283176,"0.0-3.101-1.101","3vsz0q8a4bewrfd",778,"52.csv","","null","resources/maskTrios/L4BB.jpg","null","",NA,NA,NA,NA,""
"image-keyboard-response",316,284380,"0.0-3.101-2.101","3vsz0q8a4bewrfd",778,"52.csv","","null","resources/images/fishbone.png","null","",NA,NA,NA,NA,""
"image-keyboard-response",317,286044,"0.0-3.102-0.102","3vsz0q8a4bewrfd",778,"52.csv","","1662.5","resources/trios/L4T1A3.jpg","38","restless",0.8,0.2,0.6,0.419958452941327,"false"
"image-keyboard-response",318,286451,"0.0-3.102-1.102","3vsz0q8a4bewrfd",778,"52.csv","","null","resources/maskTrios/BT1B.jpg","null","",NA,NA,NA,NA,""
"image-keyboard-response",319,287664,"0.0-3.102-2.102","3vsz0q8a4bewrfd",778,"52.csv","","null","resources/images/fishbone.png","null","",NA,NA,NA,NA,""
"image-keyboard-response",320,288222,"0.0-3.103-0.103","3vsz0q8a4bewrfd",778,"52.csv","","556.8999999761581","resources/trios/L2T2A2.jpg","39","restless",0.8,0.2,0.6,0.996771832932264,"false"
"image-keyboard-response",321,288627,"0.0-3.103-1.103","3vsz0q8a4bewrfd",778,"52.csv","","null","resources/maskTrios/BBA2.jpg","null","",NA,NA,NA,NA,""
"image-keyboard-response",322,289836,"0.0-3.103-2.103","3vsz0q8a4bewrfd",778,"52.csv","","null","resources/images/fishbone.png","null","",NA,NA,NA,NA,""
"image-keyboard-response",323,290480,"0.0-3.104-0.104","3vsz0q8a4bewrfd",778,"52.csv","","643","resources/trios/L2T2A3.jpg","37","restless",0.8,0.2,0.6,0.924479909531519,"false"
"image-keyboard-response",324,290884,"0.0-3.104-1.104","3vsz0q8a4bewrfd",778,"52.csv","","null","resources/maskTrios/L2BB.jpg","null","",NA,NA,NA,NA,""
"image-keyboard-response",325,292094,"0.0-3.104-2.104","3vsz0q8a4bewrfd",778,"52.csv","","null","resources/images/fishbone.png","null","",NA,NA,NA,NA,""
"image-keyboard-response",326,292524,"0.0-3.105-0.105","3vsz0q8a4bewrfd",778,"52.csv","","428.5999999642372","resources/trios/L4T2A3.jpg","38","restless",0.8,0.2,0.6,0.771308202797255,"false"
"image-keyboard-response",327,292932,"0.0-3.105-1.105","3vsz0q8a4bewrfd",778,"52.csv","","null","resources/maskTrios/BT2B.jpg","null","",NA,NA,NA,NA,""
"image-keyboard-response",328,294141,"0.0-3.105-2.105","3vsz0q8a4bewrfd",778,"52.csv","","null","resources/images/fishbone.png","null","",NA,NA,NA,NA,""
"image-keyboard-response",329,295725,"0.0-3.106-0.106","3vsz0q8a4bewrfd",778,"52.csv","","1583.2000000476837","resources/trios/L2T2A3.jpg","39","restless",0.8,0.2,0.6,0.780089688320508,"false"
"image-keyboard-response",330,296134,"0.0-3.106-1.106","3vsz0q8a4bewrfd",778,"52.csv","","null","resources/maskTrios/BBA3.jpg","null","",NA,NA,NA,NA,""
"image-keyboard-response",331,297344,"0.0-3.106-2.106","3vsz0q8a4bewrfd",778,"52.csv","","null","resources/images/fishbone.png","null","",NA,NA,NA,NA,""
"image-keyboard-response",332,298177,"0.0-3.107-0.107","3vsz0q8a4bewrfd",778,"52.csv","","832.6999999880791","resources/trios/L4T2A3.jpg","37","restless",0.8,0.2,0.6,0.953878536994152,"false"
"image-keyboard-response",333,298584,"0.0-3.107-1.107","3vsz0q8a4bewrfd",778,"52.csv","","null","resources/maskTrios/L4BB.jpg","null","",NA,NA,NA,NA,""
"image-keyboard-response",334,299786,"0.0-3.107-2.107","3vsz0q8a4bewrfd",778,"52.csv","","null","resources/images/fishbone.png","null","",NA,NA,NA,NA,""
"image-keyboard-response",335,301282,"0.0-3.108-0.108","3vsz0q8a4bewrfd",778,"52.csv","","1494.300000011921","resources/trios/L2T2A2.jpg","37","restless",0.9,0.2,0.6,0.230293333341766,"true"
"image-keyboard-response",336,301694,"0.0-3.108-1.108","3vsz0q8a4bewrfd",778,"52.csv","","null","resources/maskTrios/L2BB.jpg","null","",NA,NA,NA,NA,""
"image-keyboard-response",337,302899,"0.0-3.108-2.108","3vsz0q8a4bewrfd",778,"52.csv","","null","resources/images/coin2.png","null","",NA,NA,NA,NA,""
"image-keyboard-response",338,303912,"0.0-3.109-0.109","3vsz0q8a4bewrfd",778,"52.csv","","1011.6000000238419","resources/trios/L2T1A3.jpg","37","restless",0.9,0.3,0.6,0.944539797611878,"false"
"image-keyboard-response",339,304318,"0.0-3.109-1.109","3vsz0q8a4bewrfd",778,"52.csv","","null","resources/maskTrios/L2BB.jpg","null","",NA,NA,NA,NA,""
"image-keyboard-response",340,305523,"0.0-3.109-2.109","3vsz0q8a4bewrfd",778,"52.csv","","null","resources/images/fishbone.png","null","",NA,NA,NA,NA,""
"image-keyboard-response",341,306100,"0.0-3.110-0.110","3vsz0q8a4bewrfd",778,"52.csv","","575.3000000119209","resources/trios/L4T2A2.jpg","38","restless",0.9,0.3,0.6,0.240335819891589,"true"
"image-keyboard-response",342,306510,"0.0-3.110-1.110","3vsz0q8a4bewrfd",778,"52.csv","","null","resources/maskTrios/BT2B.jpg","null","",NA,NA,NA,NA,""
"image-keyboard-response",343,307719,"0.0-3.110-2.110","3vsz0q8a4bewrfd",778,"52.csv","","null","resources/images/coin2.png","null","",NA,NA,NA,NA,""
"image-keyboard-response",344,309152,"0.0-3.111-0.111","3vsz0q8a4bewrfd",778,"52.csv","","1432.1000000238419","resources/trios/L2T1A3.jpg","38","restless",0.9,0.4,0.6,0.243304113253193,"true"
"image-keyboard-response",345,309557,"0.0-3.111-1.111","3vsz0q8a4bewrfd",778,"52.csv","","null","resources/maskTrios/BT1B.jpg","null","",NA,NA,NA,NA,""
"image-keyboard-response",346,310766,"0.0-3.111-2.111","3vsz0q8a4bewrfd",778,"52.csv","","null","resources/images/coin2.png","null","",NA,NA,NA,NA,""
"image-keyboard-response",347,311984,"0.0-3.112-0.112","3vsz0q8a4bewrfd",778,"52.csv","","1217.5","resources/trios/L4T1A3.jpg","38","restless",0.9,0.5,0.7,0.0741180680760096,"true"
"image-keyboard-response",348,312387,"0.0-3.112-1.112","3vsz0q8a4bewrfd",778,"52.csv","","null","resources/maskTrios/BT1B.jpg","null","",NA,NA,NA,NA,""
"image-keyboard-response",349,313598,"0.0-3.112-2.112","3vsz0q8a4bewrfd",778,"52.csv","","null","resources/images/coin2.png","null","",NA,NA,NA,NA,""
"image-keyboard-response",350,314236,"0.0-3.113-0.113","3vsz0q8a4bewrfd",778,"52.csv","","637.1999999880791","resources/trios/L4T2A2.jpg","38","restless",0.9,0.5,0.8,0.899202447432234,"false"
"image-keyboard-response",351,314643,"0.0-3.113-1.113","3vsz0q8a4bewrfd",778,"52.csv","","null","resources/maskTrios/BT2B.jpg","null","",NA,NA,NA,NA,""
"image-keyboard-response",352,315855,"0.0-3.113-2.113","3vsz0q8a4bewrfd",778,"52.csv","","null","resources/images/fishbone.png","null","",NA,NA,NA,NA,""
"image-keyboard-response",353,316292,"0.0-3.114-0.114","3vsz0q8a4bewrfd",778,"52.csv","","435.89999997615814","resources/trios/L4T2A3.jpg","39","restless",0.9,0.5,0.7,0.568966080033025,"true"
"image-keyboard-response",354,316700,"0.0-3.114-1.114","3vsz0q8a4bewrfd",778,"52.csv","","null","resources/maskTrios/BBA3.jpg","null","",NA,NA,NA,NA,""
"image-keyboard-response",355,317906,"0.0-3.114-2.114","3vsz0q8a4bewrfd",778,"52.csv","","null","resources/images/coin2.png","null","",NA,NA,NA,NA,""
"image-keyboard-response",356,318797,"0.0-3.115-0.115","3vsz0q8a4bewrfd",778,"52.csv","","889.3999999761581","resources/trios/L2T2A3.jpg","39","restless",0.9,0.5,0.7,0.405219128332022,"true"
"image-keyboard-response",357,319206,"0.0-3.115-1.115","3vsz0q8a4bewrfd",778,"52.csv","","null","resources/maskTrios/BBA3.jpg","null","",NA,NA,NA,NA,""
"image-keyboard-response",358,320410,"0.0-3.115-2.115","3vsz0q8a4bewrfd",778,"52.csv","","null","resources/images/coin2.png","null","",NA,NA,NA,NA,""
"image-keyboard-response",359,321492,"0.0-3.116-0.116","3vsz0q8a4bewrfd",778,"52.csv","","1080.8999999761581","resources/trios/L2T1A3.jpg","39","restless",0.9,0.5,0.8,0.489379685790829,"true"
"image-keyboard-response",360,321899,"0.0-3.116-1.116","3vsz0q8a4bewrfd",778,"52.csv","","null","resources/maskTrios/BBA3.jpg","null","",NA,NA,NA,NA,""
"image-keyboard-response",361,323110,"0.0-3.116-2.116","3vsz0q8a4bewrfd",778,"52.csv","","null","resources/images/coin2.png","null","",NA,NA,NA,NA,""
"image-keyboard-response",362,324293,"0.0-3.117-0.117","3vsz0q8a4bewrfd",778,"52.csv","","1181.800000011921","resources/trios/L4T2A2.jpg","39","restless",0.9,0.5,0.9,0.488153963021013,"true"
"image-keyboard-response",363,324699,"0.0-3.117-1.117","3vsz0q8a4bewrfd",778,"52.csv","","null","resources/maskTrios/BBA2.jpg","null","",NA,NA,NA,NA,""
"image-keyboard-response",364,325906,"0.0-3.117-2.117","3vsz0q8a4bewrfd",778,"52.csv","","null","resources/images/coin2.png","null","",NA,NA,NA,NA,""
"image-keyboard-response",365,327030,"0.0-3.118-0.118","3vsz0q8a4bewrfd",778,"52.csv","","1123","resources/trios/L4T1A2.jpg","39","restless",0.9,0.5,0.9,0.856556756616983,"true"
"image-keyboard-response",366,327438,"0.0-3.118-1.118","3vsz0q8a4bewrfd",778,"52.csv","","null","resources/maskTrios/BBA2.jpg","null","",NA,NA,NA,NA,""
"image-keyboard-response",367,328641,"0.0-3.118-2.118","3vsz0q8a4bewrfd",778,"52.csv","","null","resources/images/coin2.png","null","",NA,NA,NA,NA,""
"image-keyboard-response",368,329455,"0.0-3.119-0.119","3vsz0q8a4bewrfd",778,"52.csv","","812.8000000119209","resources/trios/L2T1A3.jpg","39","restless",0.9,0.5,0.9,0.872522687257052,"true"
"image-keyboard-response",369,329858,"0.0-3.119-1.119","3vsz0q8a4bewrfd",778,"52.csv","","null","resources/maskTrios/BBA3.jpg","null","",NA,NA,NA,NA,""
"image-keyboard-response",370,331066,"0.0-3.119-2.119","3vsz0q8a4bewrfd",778,"52.csv","","null","resources/images/coin2.png","null","",NA,NA,NA,NA,""
"image-keyboard-response",371,332149,"0.0-3.120-0.120","3vsz0q8a4bewrfd",778,"52.csv","","1081.6000000238419","resources/trios/L2T1A3.jpg","39","restless",0.9,0.5,0.9,0.514954401832003,"true"
"image-keyboard-response",372,332556,"0.0-3.120-1.120","3vsz0q8a4bewrfd",778,"52.csv","","null","resources/maskTrios/BBA3.jpg","null","",NA,NA,NA,NA,""
"image-keyboard-response",373,333761,"0.0-3.120-2.120","3vsz0q8a4bewrfd",778,"52.csv","","null","resources/images/coin2.png","null","",NA,NA,NA,NA,""
"image-keyboard-response",374,334537,"0.0-3.121-0.121","3vsz0q8a4bewrfd",778,"52.csv","","774.8999999761581","resources/trios/L2T2A3.jpg","39","restless",0.9,0.5,0.9,0.025417697883175,"true"
"image-keyboard-response",375,334949,"0.0-3.121-1.121","3vsz0q8a4bewrfd",778,"52.csv","","null","resources/maskTrios/BBA3.jpg","null","",NA,NA,NA,NA,""
"image-keyboard-response",376,336154,"0.0-3.121-2.121","3vsz0q8a4bewrfd",778,"52.csv","","null","resources/images/coin2.png","null","",NA,NA,NA,NA,""
"image-keyboard-response",377,338379,"0.0-3.122-0.122","3vsz0q8a4bewrfd",778,"52.csv","","2223.899999976158","resources/trios/L2T2A2.jpg","39","restless",0.9,0.5,0.9,0.819767652087367,"true"
"image-keyboard-response",378,338789,"0.0-3.122-1.122","3vsz0q8a4bewrfd",778,"52.csv","","null","resources/maskTrios/BBA2.jpg","null","",NA,NA,NA,NA,""
"image-keyboard-response",379,339998,"0.0-3.122-2.122","3vsz0q8a4bewrfd",778,"52.csv","","null","resources/images/coin2.png","null","",NA,NA,NA,NA,""
"image-keyboard-response",380,342712,"0.0-3.123-0.123","3vsz0q8a4bewrfd",778,"52.csv","","2713.400000035763","resources/trios/L2T1A2.jpg","39","restless",0.9,0.5,0.9,0.0459530645939239,"true"
"image-keyboard-response",381,343122,"0.0-3.123-1.123","3vsz0q8a4bewrfd",778,"52.csv","","null","resources/maskTrios/BBA2.jpg","null","",NA,NA,NA,NA,""
"image-keyboard-response",382,344334,"0.0-3.123-2.123","3vsz0q8a4bewrfd",778,"52.csv","","null","resources/images/coin2.png","null","",NA,NA,NA,NA,""
"image-keyboard-response",383,346284,"0.0-3.124-0.124","3vsz0q8a4bewrfd",778,"52.csv","","1949.1000000238419","resources/trios/L4T2A2.jpg","39","restless",0.9,0.5,0.9,0.012682579647461,"true"
"image-keyboard-response",384,346691,"0.0-3.124-1.124","3vsz0q8a4bewrfd",778,"52.csv","","null","resources/maskTrios/BBA2.jpg","null","",NA,NA,NA,NA,""
"image-keyboard-response",385,347898,"0.0-3.124-2.124","3vsz0q8a4bewrfd",778,"52.csv","","null","resources/images/coin2.png","null","",NA,NA,NA,NA,""
"image-keyboard-response",386,349873,"0.0-3.125-0.125","3vsz0q8a4bewrfd",778,"52.csv","","1974.1000000238419","resources/trios/L4T1A2.jpg","39","restless",0.9,0.5,0.9,0.451775196354165,"true"
"image-keyboard-response",387,350285,"0.0-3.125-1.125","3vsz0q8a4bewrfd",778,"52.csv","","null","resources/maskTrios/BBA2.jpg","null","",NA,NA,NA,NA,""
"image-keyboard-response",388,351492,"0.0-3.125-2.125","3vsz0q8a4bewrfd",778,"52.csv","","null","resources/images/coin2.png","null","",NA,NA,NA,NA,""
"image-keyboard-response",389,353866,"0.0-3.126-0.126","3vsz0q8a4bewrfd",778,"52.csv","","2373.399999976158","resources/trios/L2T2A2.jpg","39","restless",0.9,0.5,0.9,0.952927135983003,"false"
"image-keyboard-response",390,354273,"0.0-3.126-1.126","3vsz0q8a4bewrfd",778,"52.csv","","null","resources/maskTrios/BBA2.jpg","null","",NA,NA,NA,NA,""
"image-keyboard-response",391,355485,"0.0-3.126-2.126","3vsz0q8a4bewrfd",778,"52.csv","","null","resources/images/fishbone.png","null","",NA,NA,NA,NA,""
"image-keyboard-response",392,355956,"0.0-3.127-0.127","3vsz0q8a4bewrfd",778,"52.csv","","469.9000000357628","resources/trios/L2T1A2.jpg","37","restless",0.9,0.5,0.9,0.373170055464273,"true"
"image-keyboard-response",393,356363,"0.0-3.127-1.127","3vsz0q8a4bewrfd",778,"52.csv","","null","resources/maskTrios/L2BB.jpg","null","",NA,NA,NA,NA,""
"image-keyboard-response",394,357568,"0.0-3.127-2.127","3vsz0q8a4bewrfd",778,"52.csv","","null","resources/images/coin2.png","null","",NA,NA,NA,NA,""
"image-keyboard-response",395,358212,"0.0-3.128-0.128","3vsz0q8a4bewrfd",778,"52.csv","","643","resources/trios/L2T1A3.jpg","37","restless",0.8,0.5,0.9,0.0814220371501442,"true"
"image-keyboard-response",396,358619,"0.0-3.128-1.128","3vsz0q8a4bewrfd",778,"52.csv","","null","resources/maskTrios/L2BB.jpg","null","",NA,NA,NA,NA,""
"image-keyboard-response",397,359824,"0.0-3.128-2.128","3vsz0q8a4bewrfd",778,"52.csv","","null","resources/images/coin2.png","null","",NA,NA,NA,NA,""
"image-keyboard-response",398,360422,"0.0-3.129-0.129","3vsz0q8a4bewrfd",778,"52.csv","","596.5999999642372","resources/trios/L2T1A3.jpg","37","restless",0.8,0.5,0.9,0.864928137960475,"false"
"image-keyboard-response",399,360825,"0.0-3.129-1.129","3vsz0q8a4bewrfd",778,"52.csv","","null","resources/maskTrios/L2BB.jpg","null","",NA,NA,NA,NA,""
"image-keyboard-response",400,362032,"0.0-3.129-2.129","3vsz0q8a4bewrfd",778,"52.csv","","null","resources/images/fishbone.png","null","",NA,NA,NA,NA,""
"image-keyboard-response",401,362918,"0.0-3.130-0.130","3vsz0q8a4bewrfd",778,"52.csv","","884.5","resources/trios/L2T2A3.jpg","38","restless",0.8,0.5,0.9,0.916108683207819,"false"
"image-keyboard-response",402,363320,"0.0-3.130-1.130","3vsz0q8a4bewrfd",778,"52.csv","","null","resources/maskTrios/BT2B.jpg","null","",NA,NA,NA,NA,""
"image-keyboard-response",403,364529,"0.0-3.130-2.130","3vsz0q8a4bewrfd",778,"52.csv","","null","resources/images/fishbone.png","null","",NA,NA,NA,NA,""
"image-keyboard-response",404,369828,"0.0-3.131-0.131","3vsz0q8a4bewrfd",778,"52.csv","","5298.100000023842","resources/trios/L4T2A2.jpg","38","restless",0.7,0.5,0.9,0.829078926049729,"false"
"image-keyboard-response",405,370233,"0.0-3.131-1.131","3vsz0q8a4bewrfd",778,"52.csv","","null","resources/maskTrios/BT2B.jpg","null","",NA,NA,NA,NA,""
"image-keyboard-response",406,371444,"0.0-3.131-2.131","3vsz0q8a4bewrfd",778,"52.csv","","null","resources/images/fishbone.png","null","",NA,NA,NA,NA,""
"image-keyboard-response",407,372419,"0.0-3.132-0.132","3vsz0q8a4bewrfd",778,"52.csv","","973.3000000119209","resources/trios/L2T1A3.jpg","39","restless",0.6,0.5,0.9,0.83523748036986,"true"
"image-keyboard-response",408,372823,"0.0-3.132-1.132","3vsz0q8a4bewrfd",778,"52.csv","","null","resources/maskTrios/BBA3.jpg","null","",NA,NA,NA,NA,""
"image-keyboard-response",409,374032,"0.0-3.132-2.132","3vsz0q8a4bewrfd",778,"52.csv","","null","resources/images/coin2.png","null","",NA,NA,NA,NA,""
"image-keyboard-response",410,375007,"0.0-3.133-0.133","3vsz0q8a4bewrfd",778,"52.csv","","974.1999999880791","resources/trios/L4T1A2.jpg","39","restless",0.6,0.5,0.9,0.574245599847724,"true"
"image-keyboard-response",411,375420,"0.0-3.133-1.133","3vsz0q8a4bewrfd",778,"52.csv","","null","resources/maskTrios/BBA2.jpg","null","",NA,NA,NA,NA,""
"image-keyboard-response",412,376625,"0.0-3.133-2.133","3vsz0q8a4bewrfd",778,"52.csv","","null","resources/images/coin2.png","null","",NA,NA,NA,NA,""
"image-keyboard-response",413,377684,"0.0-3.134-0.134","3vsz0q8a4bewrfd",778,"52.csv","","1057.1000000238419","resources/trios/L2T2A3.jpg","39","restless",0.6,0.5,0.9,0.265874297466647,"true"
"image-keyboard-response",414,378090,"0.0-3.134-1.134","3vsz0q8a4bewrfd",778,"52.csv","","null","resources/maskTrios/BBA3.jpg","null","",NA,NA,NA,NA,""
"image-keyboard-response",415,379298,"0.0-3.134-2.134","3vsz0q8a4bewrfd",778,"52.csv","","null","resources/images/coin2.png","null","",NA,NA,NA,NA,""
"image-keyboard-response",416,380491,"0.0-3.135-0.135","3vsz0q8a4bewrfd",778,"52.csv","","1191.199999988079","resources/trios/L4T2A2.jpg","39","restless",0.6,0.5,0.9,0.817085590939075,"true"
"image-keyboard-response",417,380897,"0.0-3.135-1.135","3vsz0q8a4bewrfd",778,"52.csv","","null","resources/maskTrios/BBA2.jpg","null","",NA,NA,NA,NA,""
"image-keyboard-response",418,382105,"0.0-3.135-2.135","3vsz0q8a4bewrfd",778,"52.csv","","null","resources/images/coin2.png","null","",NA,NA,NA,NA,""
"image-keyboard-response",419,383547,"0.0-3.136-0.136","3vsz0q8a4bewrfd",778,"52.csv","","1441.5","resources/trios/L4T1A3.jpg","39","restless",0.5,0.5,0.8,0.0745622646425985,"true"
"image-keyboard-response",420,383951,"0.0-3.136-1.136","3vsz0q8a4bewrfd",778,"52.csv","","null","resources/maskTrios/BBA3.jpg","null","",NA,NA,NA,NA,""
"image-keyboard-response",421,385160,"0.0-3.136-2.136","3vsz0q8a4bewrfd",778,"52.csv","","null","resources/images/coin2.png","null","",NA,NA,NA,NA,""
"image-keyboard-response",422,385719,"0.0-3.137-0.137","3vsz0q8a4bewrfd",778,"52.csv","","558.1000000238419","resources/trios/L4T1A3.jpg","39","restless",0.5,0.5,0.8,0.767535394218086,"true"
"image-keyboard-response",423,386127,"0.0-3.137-1.137","3vsz0q8a4bewrfd",778,"52.csv","","null","resources/maskTrios/BBA3.jpg","null","",NA,NA,NA,NA,""
"image-keyboard-response",424,387336,"0.0-3.137-2.137","3vsz0q8a4bewrfd",778,"52.csv","","null","resources/images/coin2.png","null","",NA,NA,NA,NA,""
"image-keyboard-response",425,388756,"0.0-3.138-0.138","3vsz0q8a4bewrfd",778,"52.csv","","1418.8999999761581","resources/trios/L2T1A3.jpg","39","restless",0.5,0.5,0.8,0.437572889315058,"true"
"image-keyboard-response",426,389162,"0.0-3.138-1.138","3vsz0q8a4bewrfd",778,"52.csv","","null","resources/maskTrios/BBA3.jpg","null","",NA,NA,NA,NA,""
"image-keyboard-response",427,390364,"0.0-3.138-2.138","3vsz0q8a4bewrfd",778,"52.csv","","null","resources/images/coin2.png","null","",NA,NA,NA,NA,""
"image-keyboard-response",428,391188,"0.0-3.139-0.139","3vsz0q8a4bewrfd",778,"52.csv","","823.1999999880791","resources/trios/L4T2A3.jpg","39","restless",0.5,0.5,0.8,0.476803190305586,"true"
"image-keyboard-response",429,391596,"0.0-3.139-1.139","3vsz0q8a4bewrfd",778,"52.csv","","null","resources/maskTrios/BBA3.jpg","null","",NA,NA,NA,NA,""
"image-keyboard-response",430,392800,"0.0-3.139-2.139","3vsz0q8a4bewrfd",778,"52.csv","","null","resources/images/coin2.png","null","",NA,NA,NA,NA,""
"image-keyboard-response",431,393784,"0.0-3.140-0.140","3vsz0q8a4bewrfd",778,"52.csv","","983.8000000119209","resources/trios/L2T2A3.jpg","39","restless",0.5,0.5,0.8,0.255866378542788,"true"
"image-keyboard-response",432,394194,"0.0-3.140-1.140","3vsz0q8a4bewrfd",778,"52.csv","","null","resources/maskTrios/BBA3.jpg","null","",NA,NA,NA,NA,""
"image-keyboard-response",433,395402,"0.0-3.140-2.140","3vsz0q8a4bewrfd",778,"52.csv","","null","resources/images/coin2.png","null","",NA,NA,NA,NA,""
"image-keyboard-response",434,396030,"0.0-3.141-0.141","3vsz0q8a4bewrfd",778,"52.csv","","627.3000000119209","resources/trios/L2T1A3.jpg","39","restless",0.5,0.5,0.8,0.252369743787295,"true"
"image-keyboard-response",435,396441,"0.0-3.141-1.141","3vsz0q8a4bewrfd",778,"52.csv","","null","resources/maskTrios/BBA3.jpg","null","",NA,NA,NA,NA,""
"image-keyboard-response",436,397646,"0.0-3.141-2.141","3vsz0q8a4bewrfd",778,"52.csv","","null","resources/images/coin2.png","null","",NA,NA,NA,NA,""
"image-keyboard-response",437,398854,"0.0-3.142-0.142","3vsz0q8a4bewrfd",778,"52.csv","","1206.5999999642372","resources/trios/L4T2A2.jpg","39","restless",0.5,0.5,0.8,0.923644374949163,"false"
"image-keyboard-response",438,399263,"0.0-3.142-1.142","3vsz0q8a4bewrfd",778,"52.csv","","null","resources/maskTrios/BBA2.jpg","null","",NA,NA,NA,NA,""
"image-keyboard-response",439,400472,"0.0-3.142-2.142","3vsz0q8a4bewrfd",778,"52.csv","","null","resources/images/fishbone.png","null","",NA,NA,NA,NA,""
"image-keyboard-response",440,401204,"0.0-3.143-0.143","3vsz0q8a4bewrfd",778,"52.csv","","731.9000000357628","resources/trios/L2T2A2.jpg","37","restless",0.5,0.5,0.8,0.0925008454326028,"true"
"image-keyboard-response",441,401611,"0.0-3.143-1.143","3vsz0q8a4bewrfd",778,"52.csv","","null","resources/maskTrios/L2BB.jpg","null","",NA,NA,NA,NA,""
"image-keyboard-response",442,402816,"0.0-3.143-2.143","3vsz0q8a4bewrfd",778,"52.csv","","null","resources/images/coin2.png","null","",NA,NA,NA,NA,""
"image-keyboard-response",443,404372,"0.0-3.144-0.144","3vsz0q8a4bewrfd",778,"52.csv","","1555","resources/trios/L4T2A2.jpg","37","restless",0.5,0.6,0.8,0.411775511439168,"true"
"image-keyboard-response",444,404775,"0.0-3.144-1.144","3vsz0q8a4bewrfd",778,"52.csv","","null","resources/maskTrios/L4BB.jpg","null","",NA,NA,NA,NA,""
"image-keyboard-response",445,405983,"0.0-3.144-2.144","3vsz0q8a4bewrfd",778,"52.csv","","null","resources/images/coin2.png","null","",NA,NA,NA,NA,""
"image-keyboard-response",446,406582,"0.0-3.145-0.145","3vsz0q8a4bewrfd",778,"52.csv","","597.5999999642372","resources/trios/L2T2A3.jpg","37","restless",0.5,0.6,0.8,0.276446183451827,"true"
"image-keyboard-response",447,406991,"0.0-3.145-1.145","3vsz0q8a4bewrfd",778,"52.csv","","null","resources/maskTrios/L2BB.jpg","null","",NA,NA,NA,NA,""
"image-keyboard-response",448,408202,"0.0-3.145-2.145","3vsz0q8a4bewrfd",778,"52.csv","","null","resources/images/coin2.png","null","",NA,NA,NA,NA,""
"image-keyboard-response",449,408834,"0.0-3.146-0.146","3vsz0q8a4bewrfd",778,"52.csv","","630.8999999761581","resources/trios/L2T1A2.jpg","37","restless",0.5,0.6,0.8,0.684645781584712,"false"
"image-keyboard-response",450,409239,"0.0-3.146-1.146","3vsz0q8a4bewrfd",778,"52.csv","","null","resources/maskTrios/L2BB.jpg","null","",NA,NA,NA,NA,""
"image-keyboard-response",451,410447,"0.0-3.146-2.146","3vsz0q8a4bewrfd",778,"52.csv","","null","resources/images/fishbone.png","null","",NA,NA,NA,NA,""
"image-keyboard-response",452,412699,"0.0-3.147-0.147","3vsz0q8a4bewrfd",778,"52.csv","","2250.900000035763","resources/trios/L2T2A2.jpg","38","restless",0.5,0.6,0.8,0.592900582146112,"true"
"image-keyboard-response",453,413103,"0.0-3.147-1.147","3vsz0q8a4bewrfd",778,"52.csv","","null","resources/maskTrios/BT2B.jpg","null","",NA,NA,NA,NA,""
"image-keyboard-response",454,414314,"0.0-3.147-2.147","3vsz0q8a4bewrfd",778,"52.csv","","null","resources/images/coin2.png","null","",NA,NA,NA,NA,""
"image-keyboard-response",455,414961,"0.0-3.148-0.148","3vsz0q8a4bewrfd",778,"52.csv","","645.1000000238419","resources/trios/L2T2A3.jpg","38","restless",0.5,0.6,0.8,0.463389299317608,"true"
"image-keyboard-response",456,415371,"0.0-3.148-1.148","3vsz0q8a4bewrfd",778,"52.csv","","null","resources/maskTrios/BT2B.jpg","null","",NA,NA,NA,NA,""
"image-keyboard-response",457,416577,"0.0-3.148-2.148","3vsz0q8a4bewrfd",778,"52.csv","","null","resources/images/coin2.png","null","",NA,NA,NA,NA,""
"image-keyboard-response",458,417148,"0.0-3.149-0.149","3vsz0q8a4bewrfd",778,"52.csv","","569.5","resources/trios/L4T2A3.jpg","38","restless",0.5,0.6,0.7,0.255067487964202,"true"
"image-keyboard-response",459,417550,"0.0-3.149-1.149","3vsz0q8a4bewrfd",778,"52.csv","","null","resources/maskTrios/BT2B.jpg","null","",NA,NA,NA,NA,""
"image-keyboard-response",460,418758,"0.0-3.149-2.149","3vsz0q8a4bewrfd",778,"52.csv","","null","resources/images/coin2.png","null","",NA,NA,NA,NA,""
"image-keyboard-response",461,419679,"0.0-3.150-0.150","3vsz0q8a4bewrfd",778,"52.csv","","920","resources/trios/L2T2A2.jpg","38","restless",0.5,0.6,0.8,0.450904561756897,"true"
"image-keyboard-response",462,420089,"0.0-3.150-1.150","3vsz0q8a4bewrfd",778,"52.csv","","null","resources/maskTrios/BT2B.jpg","null","",NA,NA,NA,NA,""
"image-keyboard-response",463,421295,"0.0-3.150-2.150","3vsz0q8a4bewrfd",778,"52.csv","","null","resources/images/coin2.png","null","",NA,NA,NA,NA,""
"image-keyboard-response",464,421848,"0.0-3.151-0.151","3vsz0q8a4bewrfd",778,"52.csv","","552.1999999880791","resources/trios/L2T1A3.jpg","38","restless",0.4,0.6,0.8,0.831082398389198,"false"
"image-keyboard-response",465,422254,"0.0-3.151-1.151","3vsz0q8a4bewrfd",778,"52.csv","","null","resources/maskTrios/BT1B.jpg","null","",NA,NA,NA,NA,""
"image-keyboard-response",466,423466,"0.0-3.151-2.151","3vsz0q8a4bewrfd",778,"52.csv","","null","resources/images/fishbone.png","null","",NA,NA,NA,NA,""
"image-keyboard-response",467,423995,"0.0-3.152-0.152","3vsz0q8a4bewrfd",778,"52.csv","","527.1999999880791","resources/trios/L4T1A3.jpg","39","restless",0.4,0.6,0.8,0.528483395730381,"true"
"image-keyboard-response",468,424402,"0.0-3.152-1.152","3vsz0q8a4bewrfd",778,"52.csv","","null","resources/maskTrios/BBA3.jpg","null","",NA,NA,NA,NA,""
"image-keyboard-response",469,425610,"0.0-3.152-2.152","3vsz0q8a4bewrfd",778,"52.csv","","null","resources/images/coin2.png","null","",NA,NA,NA,NA,""
"image-keyboard-response",470,426856,"0.0-3.153-0.153","3vsz0q8a4bewrfd",778,"52.csv","","1245.1000000238419","resources/trios/L2T2A3.jpg","39","restless",0.4,0.5,0.8,0.11046934963129,"true"
"image-keyboard-response",471,427262,"0.0-3.153-1.153","3vsz0q8a4bewrfd",778,"52.csv","","null","resources/maskTrios/BBA3.jpg","null","",NA,NA,NA,NA,""
"image-keyboard-response",472,428470,"0.0-3.153-2.153","3vsz0q8a4bewrfd",778,"52.csv","","null","resources/images/coin2.png","null","",NA,NA,NA,NA,""
"image-keyboard-response",473,429308,"0.0-3.154-0.154","3vsz0q8a4bewrfd",778,"52.csv","","836.5999999642372","resources/trios/L4T1A3.jpg","39","restless",0.4,0.5,0.8,0.684661493456766,"true"
"image-keyboard-response",474,429710,"0.0-3.154-1.154","3vsz0q8a4bewrfd",778,"52.csv","","null","resources/maskTrios/BBA3.jpg","null","",NA,NA,NA,NA,""
"image-keyboard-response",475,430918,"0.0-3.154-2.154","3vsz0q8a4bewrfd",778,"52.csv","","null","resources/images/coin2.png","null","",NA,NA,NA,NA,""
"image-keyboard-response",476,431410,"0.0-3.155-0.155","3vsz0q8a4bewrfd",778,"52.csv","","491.39999997615814","resources/trios/L4T2A2.jpg","39","restless",0.4,0.5,0.8,0.171422450015377,"true"
"image-keyboard-response",477,431818,"0.0-3.155-1.155","3vsz0q8a4bewrfd",778,"52.csv","","null","resources/maskTrios/BBA2.jpg","null","",NA,NA,NA,NA,""
"image-keyboard-response",478,433027,"0.0-3.155-2.155","3vsz0q8a4bewrfd",778,"52.csv","","null","resources/images/coin2.png","null","",NA,NA,NA,NA,""
"image-keyboard-response",479,433679,"0.0-3.156-0.156","3vsz0q8a4bewrfd",778,"52.csv","","651.8000000119209","resources/trios/L2T2A3.jpg","39","restless",0.4,0.5,0.8,0.541310218067022,"true"
"image-keyboard-response",480,434088,"0.0-3.156-1.156","3vsz0q8a4bewrfd",778,"52.csv","","null","resources/maskTrios/BBA3.jpg","null","",NA,NA,NA,NA,""
"image-keyboard-response",481,435295,"0.0-3.156-2.156","3vsz0q8a4bewrfd",778,"52.csv","","null","resources/images/coin2.png","null","",NA,NA,NA,NA,""
"image-keyboard-response",482,435898,"0.0-3.157-0.157","3vsz0q8a4bewrfd",778,"52.csv","","601.5","resources/trios/L4T1A2.jpg","39","restless",0.4,0.5,0.8,0.897418745955259,"false"
"image-keyboard-response",483,436303,"0.0-3.157-1.157","3vsz0q8a4bewrfd",778,"52.csv","","null","resources/maskTrios/BBA2.jpg","null","",NA,NA,NA,NA,""
"image-keyboard-response",484,437511,"0.0-3.157-2.157","3vsz0q8a4bewrfd",778,"52.csv","","null","resources/images/fishbone.png","null","",NA,NA,NA,NA,""
"image-keyboard-response",485,437883,"0.0-3.158-0.158","3vsz0q8a4bewrfd",778,"52.csv","","371.30000001192093","resources/trios/L4T2A2.jpg","37","restless",0.4,0.5,0.8,0.128334274781144,"true"
"image-keyboard-response",486,438288,"0.0-3.158-1.158","3vsz0q8a4bewrfd",778,"52.csv","","null","resources/maskTrios/L4BB.jpg","null","",NA,NA,NA,NA,""
"image-keyboard-response",487,439497,"0.0-3.158-2.158","3vsz0q8a4bewrfd",778,"52.csv","","null","resources/images/coin2.png","null","",NA,NA,NA,NA,""
"image-keyboard-response",488,439942,"0.0-3.159-0.159","3vsz0q8a4bewrfd",778,"52.csv","","443.80000001192093","resources/trios/L4T2A3.jpg","37","restless",0.3,0.5,0.8,0.537086567546371,"false"
"image-keyboard-response",489,440350,"0.0-3.159-1.159","3vsz0q8a4bewrfd",778,"52.csv","","null","resources/maskTrios/L4BB.jpg","null","",NA,NA,NA,NA,""
"image-keyboard-response",490,441557,"0.0-3.159-2.159","3vsz0q8a4bewrfd",778,"52.csv","","null","resources/images/fishbone.png","null","",NA,NA,NA,NA,""
"image-keyboard-response",491,441886,"0.0-3.160-0.160","3vsz0q8a4bewrfd",778,"52.csv","","327.7999999523163","resources/trios/L4T2A3.jpg","38","restless",0.3,0.5,0.8,0.704121972696124,"false"
"image-keyboard-response",492,442293,"0.0-3.160-1.160","3vsz0q8a4bewrfd",778,"52.csv","","null","resources/maskTrios/BT2B.jpg","null","",NA,NA,NA,NA,""
"image-keyboard-response",493,443505,"0.0-3.160-2.160","3vsz0q8a4bewrfd",778,"52.csv","","null","resources/images/fishbone.png","null","",NA,NA,NA,NA,""
"image-keyboard-response",494,444478,"0.0-3.161-0.161","3vsz0q8a4bewrfd",778,"52.csv","","971.6000000238419","resources/trios/L2T1A2.jpg","38","restless",0.3,0.5,0.8,0.813549818593116,"false"
"image-keyboard-response",495,444886,"0.0-3.161-1.161","3vsz0q8a4bewrfd",778,"52.csv","","null","resources/maskTrios/BT1B.jpg","null","",NA,NA,NA,NA,""
"image-keyboard-response",496,446093,"0.0-3.161-2.161","3vsz0q8a4bewrfd",778,"52.csv","","null","resources/images/fishbone.png","null","",NA,NA,NA,NA,""
"image-keyboard-response",497,446306,"0.0-3.162-0.162","3vsz0q8a4bewrfd",778,"52.csv","","211.80000001192093","resources/trios/L2T2A3.jpg","39","restless",0.3,0.5,0.8,0.550996520469934,"true"
"image-keyboard-response",498,446710,"0.0-3.162-1.162","3vsz0q8a4bewrfd",778,"52.csv","","null","resources/maskTrios/BBA3.jpg","null","",NA,NA,NA,NA,""
"image-keyboard-response",499,447917,"0.0-3.162-2.162","3vsz0q8a4bewrfd",778,"52.csv","","null","resources/images/coin2.png","null","",NA,NA,NA,NA,""
"image-keyboard-response",500,448201,"0.0-3.163-0.163","3vsz0q8a4bewrfd",778,"52.csv","","282.5","resources/trios/L4T1A2.jpg","39","restless",0.3,0.5,0.8,0.798849598983487,"true"
"image-keyboard-response",501,448608,"0.0-3.163-1.163","3vsz0q8a4bewrfd",778,"52.csv","","null","resources/maskTrios/BBA2.jpg","null","",NA,NA,NA,NA,""
"image-keyboard-response",502,449812,"0.0-3.163-2.163","3vsz0q8a4bewrfd",778,"52.csv","","null","resources/images/coin2.png","null","",NA,NA,NA,NA,""
"image-keyboard-response",503,450184,"0.0-3.164-0.164","3vsz0q8a4bewrfd",778,"52.csv","","371","resources/trios/L4T2A3.jpg","39","restless",0.3,0.5,0.8,0.329654288735649,"true"
"image-keyboard-response",504,450589,"0.0-3.164-1.164","3vsz0q8a4bewrfd",778,"52.csv","","null","resources/maskTrios/BBA3.jpg","null","",NA,NA,NA,NA,""
"image-keyboard-response",505,451800,"0.0-3.164-2.164","3vsz0q8a4bewrfd",778,"52.csv","","null","resources/images/coin2.png","null","",NA,NA,NA,NA,""
"image-keyboard-response",506,452123,"0.0-3.165-0.165","3vsz0q8a4bewrfd",778,"52.csv","","321.9000000357628","resources/trios/L4T1A2.jpg","39","restless",0.3,0.5,0.8,0.298795987191083,"true"
"image-keyboard-response",507,452535,"0.0-3.165-1.165","3vsz0q8a4bewrfd",778,"52.csv","","null","resources/maskTrios/BBA2.jpg","null","",NA,NA,NA,NA,""
"image-keyboard-response",508,453743,"0.0-3.165-2.165","3vsz0q8a4bewrfd",778,"52.csv","","null","resources/images/coin2.png","null","",NA,NA,NA,NA,""
"image-keyboard-response",509,454054,"0.0-3.166-0.166","3vsz0q8a4bewrfd",778,"52.csv","","310.80000001192093","resources/trios/L2T2A3.jpg","39","restless",0.3,0.5,0.8,0.131939284583813,"true"
"image-keyboard-response",510,454460,"0.0-3.166-1.166","3vsz0q8a4bewrfd",778,"52.csv","","null","resources/maskTrios/BBA3.jpg","null","",NA,NA,NA,NA,""
"image-keyboard-response",511,455671,"0.0-3.166-2.166","3vsz0q8a4bewrfd",778,"52.csv","","null","resources/images/coin2.png","null","",NA,NA,NA,NA,""
"image-keyboard-response",512,455942,"0.0-3.167-0.167","3vsz0q8a4bewrfd",778,"52.csv","","269.80000001192093","resources/trios/L4T1A2.jpg","39","restless",0.3,0.5,0.8,0.540582270294522,"true"
"image-keyboard-response",513,456349,"0.0-3.167-1.167","3vsz0q8a4bewrfd",778,"52.csv","","null","resources/maskTrios/BBA2.jpg","null","",NA,NA,NA,NA,""
"image-keyboard-response",514,457556,"0.0-3.167-2.167","3vsz0q8a4bewrfd",778,"52.csv","","null","resources/images/coin2.png","null","",NA,NA,NA,NA,""
"image-keyboard-response",515,457934,"0.0-3.168-0.168","3vsz0q8a4bewrfd",778,"52.csv","","376.7999999523163","resources/trios/L2T2A3.jpg","39","restless",0.3,0.5,0.8,0.996577372383787,"false"
"image-keyboard-response",516,458344,"0.0-3.168-1.168","3vsz0q8a4bewrfd",778,"52.csv","","null","resources/maskTrios/BBA3.jpg","null","",NA,NA,NA,NA,""
"image-keyboard-response",517,459549,"0.0-3.168-2.168","3vsz0q8a4bewrfd",778,"52.csv","","null","resources/images/fishbone.png","null","",NA,NA,NA,NA,""
"image-keyboard-response",518,459614,"0.0-3.169-0.169","3vsz0q8a4bewrfd",778,"52.csv","","63.5","resources/trios/L2T2A3.jpg","37","restless",0.3,0.5,0.7,0.75639267555832,"false"
"image-keyboard-response",519,460021,"0.0-3.169-1.169","3vsz0q8a4bewrfd",778,"52.csv","","null","resources/maskTrios/L2BB.jpg","null","",NA,NA,NA,NA,""
"image-keyboard-response",520,461229,"0.0-3.169-2.169","3vsz0q8a4bewrfd",778,"52.csv","","null","resources/images/fishbone.png","null","",NA,NA,NA,NA,""
"image-keyboard-response",521,461277,"0.0-3.170-0.170","3vsz0q8a4bewrfd",778,"52.csv","","47.299999952316284","resources/trios/L2T2A2.jpg","38","restless",0.3,0.5,0.7,0.251920364452767,"true"
"image-keyboard-response",522,461687,"0.0-3.170-1.170","3vsz0q8a4bewrfd",778,"52.csv","","null","resources/maskTrios/BT2B.jpg","null","",NA,NA,NA,NA,""
"image-keyboard-response",523,462892,"0.0-3.170-2.170","3vsz0q8a4bewrfd",778,"52.csv","","null","resources/images/coin2.png","null","",NA,NA,NA,NA,""
"image-keyboard-response",524,463083,"0.0-3.171-0.171","3vsz0q8a4bewrfd",778,"52.csv","","189.89999997615814","resources/trios/L4T1A3.jpg","38","restless",0.3,0.5,0.7,0.944220775066081,"false"
"image-keyboard-response",525,463494,"0.0-3.171-1.171","3vsz0q8a4bewrfd",778,"52.csv","","null","resources/maskTrios/BT1B.jpg","null","",NA,NA,NA,NA,""
"image-keyboard-response",526,464705,"0.0-3.171-2.171","3vsz0q8a4bewrfd",778,"52.csv","","null","resources/images/fishbone.png","null","",NA,NA,NA,NA,""
"image-keyboard-response",527,465312,"0.0-3.172-0.172","3vsz0q8a4bewrfd",778,"52.csv","","606.1999999880791","resources/trios/L4T1A2.jpg","39","restless",0.3,0.5,0.7,0.671038524238904,"true"
"image-keyboard-response",528,465721,"0.0-3.172-1.172","3vsz0q8a4bewrfd",778,"52.csv","","null","resources/maskTrios/BBA2.jpg","null","",NA,NA,NA,NA,""
"image-keyboard-response",529,466924,"0.0-3.172-2.172","3vsz0q8a4bewrfd",778,"52.csv","","null","resources/images/coin2.png","null","",NA,NA,NA,NA,""
"image-keyboard-response",530,467013,"0.0-3.173-0.173","3vsz0q8a4bewrfd",778,"52.csv","","87.90000003576279","resources/trios/L4T2A2.jpg","39","restless",0.3,0.5,0.7,0.655382298722208,"true"
"image-keyboard-response",531,467420,"0.0-3.173-1.173","3vsz0q8a4bewrfd",778,"52.csv","","null","resources/maskTrios/BBA2.jpg","null","",NA,NA,NA,NA,""
"image-keyboard-response",532,468631,"0.0-3.173-2.173","3vsz0q8a4bewrfd",778,"52.csv","","null","resources/images/coin2.png","null","",NA,NA,NA,NA,""
"image-keyboard-response",533,468935,"0.0-3.174-0.174","3vsz0q8a4bewrfd",778,"52.csv","","302.5","resources/trios/L4T2A2.jpg","39","restless",0.3,0.5,0.7,0.125964481683838,"true"
"image-keyboard-response",534,469340,"0.0-3.174-1.174","3vsz0q8a4bewrfd",778,"52.csv","","null","resources/maskTrios/BBA2.jpg","null","",NA,NA,NA,NA,""
"image-keyboard-response",535,470548,"0.0-3.174-2.174","3vsz0q8a4bewrfd",778,"52.csv","","null","resources/images/coin2.png","null","",NA,NA,NA,NA,""
"image-keyboard-response",536,471003,"0.0-3.175-0.175","3vsz0q8a4bewrfd",778,"52.csv","","453.5999999642372","resources/trios/L4T2A2.jpg","39","restless",0.3,0.5,0.7,0.776174288052503,"false"
"image-keyboard-response",537,471412,"0.0-3.175-1.175","3vsz0q8a4bewrfd",778,"52.csv","","null","resources/maskTrios/BBA2.jpg","null","",NA,NA,NA,NA,""
"image-keyboard-response",538,472622,"0.0-3.175-2.175","3vsz0q8a4bewrfd",778,"52.csv","","null","resources/images/fishbone.png","null","",NA,NA,NA,NA,""
"image-keyboard-response",539,473072,"0.0-3.176-0.176","3vsz0q8a4bewrfd",778,"52.csv","","449","resources/trios/L4T1A2.jpg","37","restless",0.4,0.5,0.7,0.409447759653767,"false"
"image-keyboard-response",540,473479,"0.0-3.176-1.176","3vsz0q8a4bewrfd",778,"52.csv","","null","resources/maskTrios/L4BB.jpg","null","",NA,NA,NA,NA,""
"image-keyboard-response",541,474686,"0.0-3.176-2.176","3vsz0q8a4bewrfd",778,"52.csv","","null","resources/images/fishbone.png","null","",NA,NA,NA,NA,""
"image-keyboard-response",542,475713,"0.0-3.177-0.177","3vsz0q8a4bewrfd",778,"52.csv","","1025.5","resources/trios/L2T1A3.jpg","38","restless",0.5,0.5,0.6,0.641513233358335,"false"
"image-keyboard-response",543,476116,"0.0-3.177-1.177","3vsz0q8a4bewrfd",778,"52.csv","","null","resources/maskTrios/BT1B.jpg","null","",NA,NA,NA,NA,""
"image-keyboard-response",544,477324,"0.0-3.177-2.177","3vsz0q8a4bewrfd",778,"52.csv","","null","resources/images/fishbone.png","null","",NA,NA,NA,NA,""
"image-keyboard-response",545,477935,"0.0-3.178-0.178","3vsz0q8a4bewrfd",778,"52.csv","","609.3999999761581","resources/trios/L2T2A2.jpg","39","restless",0.5,0.5,0.6,0.605015347915161,"false"
"image-keyboard-response",546,478340,"0.0-3.178-1.178","3vsz0q8a4bewrfd",778,"52.csv","","null","resources/maskTrios/BBA2.jpg","null","",NA,NA,NA,NA,""
"image-keyboard-response",547,479548,"0.0-3.178-2.178","3vsz0q8a4bewrfd",778,"52.csv","","null","resources/images/fishbone.png","null","",NA,NA,NA,NA,""
"image-keyboard-response",548,480007,"0.0-3.179-0.179","3vsz0q8a4bewrfd",778,"52.csv","","457.69999998807907","resources/trios/L4T2A2.jpg","37","restless",0.5,0.5,0.6,0.900352871355784,"false"
"image-keyboard-response",549,480414,"0.0-3.179-1.179","3vsz0q8a4bewrfd",778,"52.csv","","null","resources/maskTrios/L4BB.jpg","null","",NA,NA,NA,NA,""
"image-keyboard-response",550,481622,"0.0-3.179-2.179","3vsz0q8a4bewrfd",778,"52.csv","","null","resources/images/fishbone.png","null","",NA,NA,NA,NA,""
"image-keyboard-response",551,482130,"0.0-3.180-0.180","3vsz0q8a4bewrfd",778,"52.csv","","507.5","resources/trios/L2T1A2.jpg","37","restless",0.6,0.5,0.6,0.504961271078535,"true"
"image-keyboard-response",552,482539,"0.0-3.180-1.180","3vsz0q8a4bewrfd",778,"52.csv","","null","resources/maskTrios/L2BB.jpg","null","",NA,NA,NA,NA,""
"image-keyboard-response",553,483747,"0.0-3.180-2.180","3vsz0q8a4bewrfd",778,"52.csv","","null","resources/images/coin2.png","null","",NA,NA,NA,NA,""
"image-keyboard-response",554,484798,"0.0-3.181-0.181","3vsz0q8a4bewrfd",778,"52.csv","","1049.800000011921","resources/trios/L4T2A2.jpg","37","restless",0.6,0.5,0.6,0.930895245465007,"false"
"image-keyboard-response",555,485205,"0.0-3.181-1.181","3vsz0q8a4bewrfd",778,"52.csv","","null","resources/maskTrios/L4BB.jpg","null","",NA,NA,NA,NA,""
"image-keyboard-response",556,486414,"0.0-3.181-2.181","3vsz0q8a4bewrfd",778,"52.csv","","null","resources/images/fishbone.png","null","",NA,NA,NA,NA,""
"image-keyboard-response",557,487040,"0.0-3.182-0.182","3vsz0q8a4bewrfd",778,"52.csv","","625.3999999761581","resources/trios/L4T2A3.jpg","37","restless",0.6,0.5,0.6,0.436549255248895,"true"
"image-keyboard-response",558,487445,"0.0-3.182-1.182","3vsz0q8a4bewrfd",778,"52.csv","","null","resources/maskTrios/L4BB.jpg","null","",NA,NA,NA,NA,""
"image-keyboard-response",559,488651,"0.0-3.182-2.182","3vsz0q8a4bewrfd",778,"52.csv","","null","resources/images/coin2.png","null","",NA,NA,NA,NA,""
"image-keyboard-response",560,489591,"0.0-3.183-0.183","3vsz0q8a4bewrfd",778,"52.csv","","938.3000000119209","resources/trios/L4T1A2.jpg","37","restless",0.6,0.5,0.6,0.862847299614369,"false"
"image-keyboard-response",561,489999,"0.0-3.183-1.183","3vsz0q8a4bewrfd",778,"52.csv","","null","resources/maskTrios/L4BB.jpg","null","",NA,NA,NA,NA,""
"image-keyboard-response",562,491204,"0.0-3.183-2.183","3vsz0q8a4bewrfd",778,"52.csv","","null","resources/images/fishbone.png","null","",NA,NA,NA,NA,""
"image-keyboard-response",563,491741,"0.0-3.184-0.184","3vsz0q8a4bewrfd",778,"52.csv","","536.6999999880791","resources/trios/L4T2A2.jpg","37","restless",0.6,0.4,0.6,0.663310451231674,"false"
"image-keyboard-response",564,492147,"0.0-3.184-1.184","3vsz0q8a4bewrfd",778,"52.csv","","null","resources/maskTrios/L4BB.jpg","null","",NA,NA,NA,NA,""
"image-keyboard-response",565,493355,"0.0-3.184-2.184","3vsz0q8a4bewrfd",778,"52.csv","","null","resources/images/fishbone.png","null","",NA,NA,NA,NA,""
"image-keyboard-response",566,493902,"0.0-3.185-0.185","3vsz0q8a4bewrfd",778,"52.csv","","545.3000000119209","resources/trios/L4T2A3.jpg","38","restless",0.6,0.4,0.5,0.564528368760064,"false"
"image-keyboard-response",567,494308,"0.0-3.185-1.185","3vsz0q8a4bewrfd",778,"52.csv","","null","resources/maskTrios/BT2B.jpg","null","",NA,NA,NA,NA,""
"image-keyboard-response",568,495515,"0.0-3.185-2.185","3vsz0q8a4bewrfd",778,"52.csv","","null","resources/images/fishbone.png","null","",NA,NA,NA,NA,""
"image-keyboard-response",569,496120,"0.0-3.186-0.186","3vsz0q8a4bewrfd",778,"52.csv","","603.3000000119209","resources/trios/L2T1A2.jpg","39","restless",0.6,0.4,0.5,0.876802743688223,"false"
"image-keyboard-response",570,496522,"0.0-3.186-1.186","3vsz0q8a4bewrfd",778,"52.csv","","null","resources/maskTrios/BBA2.jpg","null","",NA,NA,NA,NA,""
"image-keyboard-response",571,497734,"0.0-3.186-2.186","3vsz0q8a4bewrfd",778,"52.csv","","null","resources/images/fishbone.png","null","",NA,NA,NA,NA,""
"image-keyboard-response",572,498168,"0.0-3.187-0.187","3vsz0q8a4bewrfd",778,"52.csv","","433.19999998807907","resources/trios/L2T2A3.jpg","39","restless",0.6,0.4,0.5,0.803842147877217,"false"
"image-keyboard-response",573,498571,"0.0-3.187-1.187","3vsz0q8a4bewrfd",778,"52.csv","","null","resources/maskTrios/BBA3.jpg","null","",NA,NA,NA,NA,""
"image-keyboard-response",574,499783,"0.0-3.187-2.187","3vsz0q8a4bewrfd",778,"52.csv","","null","resources/images/fishbone.png","null","",NA,NA,NA,NA,""
"image-keyboard-response",575,500514,"0.0-3.188-0.188","3vsz0q8a4bewrfd",778,"52.csv","","730.1000000238419","resources/trios/L4T2A3.jpg","37","restless",0.6,0.4,0.5,0.632452897212777,"false"
"image-keyboard-response",576,500922,"0.0-3.188-1.188","3vsz0q8a4bewrfd",778,"52.csv","","null","resources/maskTrios/L4BB.jpg","null","",NA,NA,NA,NA,""
"image-keyboard-response",577,502130,"0.0-3.188-2.188","3vsz0q8a4bewrfd",778,"52.csv","","null","resources/images/fishbone.png","null","",NA,NA,NA,NA,""
"image-keyboard-response",578,502413,"0.0-3.189-0.189","3vsz0q8a4bewrfd",778,"52.csv","","281.60000002384186","resources/trios/L4T1A3.jpg","38","restless",0.5,0.4,0.4,0.255226930438931,"true"
"image-keyboard-response",579,502818,"0.0-3.189-1.189","3vsz0q8a4bewrfd",778,"52.csv","","null","resources/maskTrios/BT1B.jpg","null","",NA,NA,NA,NA,""
"image-keyboard-response",580,504026,"0.0-3.189-2.189","3vsz0q8a4bewrfd",778,"52.csv","","null","resources/images/coin2.png","null","",NA,NA,NA,NA,""
"image-keyboard-response",581,504525,"0.0-3.190-0.190","3vsz0q8a4bewrfd",778,"52.csv","","498.4000000357628","resources/trios/L2T2A2.jpg","38","restless",0.5,0.4,0.4,0.701556837205866,"false"
"image-keyboard-response",582,504933,"0.0-3.190-1.190","3vsz0q8a4bewrfd",778,"52.csv","","null","resources/maskTrios/BT2B.jpg","null","",NA,NA,NA,NA,""
"image-keyboard-response",583,506138,"0.0-3.190-2.190","3vsz0q8a4bewrfd",778,"52.csv","","null","resources/images/fishbone.png","null","",NA,NA,NA,NA,""
"image-keyboard-response",584,506959,"0.0-3.191-0.191","3vsz0q8a4bewrfd",778,"52.csv","","820.4000000357628","resources/trios/L2T2A2.jpg","39","restless",0.5,0.4,0.4,0.906569595071279,"false"
"image-keyboard-response",585,507366,"0.0-3.191-1.191","3vsz0q8a4bewrfd",778,"52.csv","","null","resources/maskTrios/BBA2.jpg","null","",NA,NA,NA,NA,""
"image-keyboard-response",586,508570,"0.0-3.191-2.191","3vsz0q8a4bewrfd",778,"52.csv","","null","resources/images/fishbone.png","null","",NA,NA,NA,NA,""
"image-keyboard-response",587,509611,"0.0-3.192-0.192","3vsz0q8a4bewrfd",778,"52.csv","","1039.2999999523163","resources/trios/L2T2A3.jpg","39","restless",0.5,0.4,0.4,0.777098614038871,"false"
"image-keyboard-response",588,510019,"0.0-3.192-1.192","3vsz0q8a4bewrfd",778,"52.csv","","null","resources/maskTrios/BBA3.jpg","null","",NA,NA,NA,NA,""
"image-keyboard-response",589,511226,"0.0-3.192-2.192","3vsz0q8a4bewrfd",778,"52.csv","","null","resources/images/fishbone.png","null","",NA,NA,NA,NA,""
"image-keyboard-response",590,511983,"0.0-3.193-0.193","3vsz0q8a4bewrfd",778,"52.csv","","755.8999999761581","resources/trios/L4T2A2.jpg","39","restless",0.6,0.4,0.4,0.00522434703193442,"true"
"image-keyboard-response",591,512387,"0.0-3.193-1.193","3vsz0q8a4bewrfd",778,"52.csv","","null","resources/maskTrios/BBA2.jpg","null","",NA,NA,NA,NA,""
"image-keyboard-response",592,513594,"0.0-3.193-2.193","3vsz0q8a4bewrfd",778,"52.csv","","null","resources/images/coin2.png","null","",NA,NA,NA,NA,""
"image-keyboard-response",593,514314,"0.0-3.194-0.194","3vsz0q8a4bewrfd",778,"52.csv","","718.8000000119209","resources/trios/L4T1A3.jpg","39","restless",0.6,0.4,0.4,0.847041310679214,"false"
"image-keyboard-response",594,514725,"0.0-3.194-1.194","3vsz0q8a4bewrfd",778,"52.csv","","null","resources/maskTrios/BBA3.jpg","null","",NA,NA,NA,NA,""
"image-keyboard-response",595,515930,"0.0-3.194-2.194","3vsz0q8a4bewrfd",778,"52.csv","","null","resources/images/fishbone.png","null","",NA,NA,NA,NA,""
"image-keyboard-response",596,516821,"0.0-3.195-0.195","3vsz0q8a4bewrfd",778,"52.csv","","890.0999999642372","resources/trios/L2T1A3.jpg","39","restless",0.6,0.4,0.4,0.581801599875347,"false"
"image-keyboard-response",597,517230,"0.0-3.195-1.195","3vsz0q8a4bewrfd",778,"52.csv","","null","resources/maskTrios/BBA3.jpg","null","",NA,NA,NA,NA,""
"image-keyboard-response",598,518434,"0.0-3.195-2.195","3vsz0q8a4bewrfd",778,"52.csv","","null","resources/images/fishbone.png","null","",NA,NA,NA,NA,""
"image-keyboard-response",599,519127,"0.0-3.196-0.196","3vsz0q8a4bewrfd",778,"52.csv","","691.3000000119209","resources/trios/L4T1A3.jpg","39","restless",0.6,0.4,0.4,0.148577566148,"true"
"image-keyboard-response",600,519533,"0.0-3.196-1.196","3vsz0q8a4bewrfd",778,"52.csv","","null","resources/maskTrios/BBA3.jpg","null","",NA,NA,NA,NA,""
"image-keyboard-response",601,520738,"0.0-3.196-2.196","3vsz0q8a4bewrfd",778,"52.csv","","null","resources/images/coin2.png","null","",NA,NA,NA,NA,""
"image-keyboard-response",602,522410,"0.0-3.197-0.197","3vsz0q8a4bewrfd",778,"52.csv","","1670.2999999523163","resources/trios/L2T1A2.jpg","39","restless",0.6,0.4,0.4,0.610067399055251,"false"
"image-keyboard-response",603,522817,"0.0-3.197-1.197","3vsz0q8a4bewrfd",778,"52.csv","","null","resources/maskTrios/BBA2.jpg","null","",NA,NA,NA,NA,""
"image-keyboard-response",604,524026,"0.0-3.197-2.197","3vsz0q8a4bewrfd",778,"52.csv","","null","resources/images/fishbone.png","null","",NA,NA,NA,NA,""
"image-keyboard-response",605,525255,"0.0-3.198-0.198","3vsz0q8a4bewrfd",778,"52.csv","","1228","resources/trios/L2T1A2.jpg","37","restless",0.6,0.4,0.4,0.176757965967251,"true"
"image-keyboard-response",606,525659,"0.0-3.198-1.198","3vsz0q8a4bewrfd",778,"52.csv","","null","resources/maskTrios/L2BB.jpg","null","",NA,NA,NA,NA,""
"image-keyboard-response",607,526865,"0.0-3.198-2.198","3vsz0q8a4bewrfd",778,"52.csv","","null","resources/images/coin2.png","null","",NA,NA,NA,NA,""
"image-keyboard-response",608,527716,"0.0-3.199-0.199","3vsz0q8a4bewrfd",778,"52.csv","","850.1000000238419","resources/trios/L4T1A3.jpg","37","restless",0.6,0.5,0.4,0.894188713446645,"false"
"image-keyboard-response",609,528122,"0.0-3.199-1.199","3vsz0q8a4bewrfd",778,"52.csv","","null","resources/maskTrios/L4BB.jpg","null","",NA,NA,NA,NA,""
"image-keyboard-response",610,529333,"0.0-3.199-2.199","3vsz0q8a4bewrfd",778,"52.csv","","null","resources/images/fishbone.png","null","",NA,NA,NA,NA,""
