"trial_type","trial_index","time_elapsed","internal_node_id","subject","participantCode","walkNumber","success","rt","stimulus","key_press","test_part","leftProb","midProb","rightProb","generatedNum","correct"
"pavlovia",0,1161,"0.0-0.0","wluc2hctgut2hlm",799,"162.csv","","","","","",NA,NA,NA,NA,""
"fullscreen",1,5305,"0.0-1.0","wluc2hctgut2hlm",799,"162.csv","true","","","","",NA,NA,NA,NA,""
"html-keyboard-response",2,13494,"0.0-2.0-0.0","wluc2hctgut2hlm",799,"162.csv","","8188.200000047684","<p><font size='6'>Arrrgh!</p></font><p>Can you be the best pirate? Try to find lots of gold! But beware, some islands have more gold than others, and over time, the island with the most gold may change. Can YOU figure it out? </p><font size='6'>GOOD LUCK, CAPTAIN!!!</font><p>Press any key to begin</p>","76","",NA,NA,NA,NA,""
"image-keyboard-response",3,16499,"0.0-2.0-1.0","wluc2hctgut2hlm",799,"162.csv","","null","resources/image_sets/111.png","null","",NA,NA,NA,NA,""
"image-keyboard-response",4,22684,"0.0-2.0-2.0","wluc2hctgut2hlm",799,"162.csv","","6183.399999976158","resources/image_sets/left_highlight.png","37","",NA,NA,NA,NA,""
"image-keyboard-response",5,26347,"0.0-2.0-3.0","wluc2hctgut2hlm",799,"162.csv","","3662","resources/image_sets/mid_highlight.png","38","",NA,NA,NA,NA,""
"image-keyboard-response",6,30311,"0.0-2.0-4.0","wluc2hctgut2hlm",799,"162.csv","","3962.399999976158","resources/image_sets/right_highlight.png","39","",NA,NA,NA,NA,""
"image-keyboard-response",7,33287,"0.0-2.0-5.0","wluc2hctgut2hlm",799,"162.csv","","2974.8000000715256","resources/image_sets/111.png","13","",NA,NA,NA,NA,""
"image-keyboard-response",8,35943,"0.0-2.0-6.0","wluc2hctgut2hlm",799,"162.csv","","2655.4000000953674","resources/images/coin2.png","13","",NA,NA,NA,NA,""
"image-keyboard-response",9,37514,"0.0-2.0-7.0","wluc2hctgut2hlm",799,"162.csv","","1569.2999999523163","resources/images/fishbone.png","13","",NA,NA,NA,NA,""
"html-keyboard-response",10,43139,"0.0-2.0-8.0","wluc2hctgut2hlm",799,"162.csv","","5623.800000071526","<p>Your first journey will be a long one, but you will get a well deserved break at the end</p><p>After the break you will have four more journeys, but each will be much shorter than the first, and you will have breaks in between each</p><p>Press Enter to begin</p>","13","",NA,NA,NA,NA,""
"image-keyboard-response",11,45994,"0.0-3.0-0.0","wluc2hctgut2hlm",799,"162.csv","","2854","resources/trios/L2T4A3.jpg","39","restless",0.9,0.7,0.3,0.0909626900895812,"true"
"image-keyboard-response",12,46397,"0.0-3.0-1.0","wluc2hctgut2hlm",799,"162.csv","","null","resources/maskTrios/BBA3.jpg","null","",NA,NA,NA,NA,""
"image-keyboard-response",13,47603,"0.0-3.0-2.0","wluc2hctgut2hlm",799,"162.csv","","null","resources/images/coin2.png","null","",NA,NA,NA,NA,""
"image-keyboard-response",14,49377,"0.0-3.1-0.1","wluc2hctgut2hlm",799,"162.csv","","1772.6000000238419","resources/trios/L4T4A3.jpg","37","restless",0.9,0.7,0.3,0.0604063326275353,"true"
"image-keyboard-response",15,49784,"0.0-3.1-1.1","wluc2hctgut2hlm",799,"162.csv","","null","resources/maskTrios/L4BB.jpg","null","",NA,NA,NA,NA,""
"image-keyboard-response",16,50989,"0.0-3.1-2.1","wluc2hctgut2hlm",799,"162.csv","","null","resources/images/coin2.png","null","",NA,NA,NA,NA,""
"image-keyboard-response",17,52935,"0.0-3.2-0.2","wluc2hctgut2hlm",799,"162.csv","","1943.8999999761581","resources/trios/L2T4A3.jpg","37","restless",0.9,0.7,0.2,0.762748630217382,"true"
"image-keyboard-response",18,53341,"0.0-3.2-1.2","wluc2hctgut2hlm",799,"162.csv","","null","resources/maskTrios/L2BB.jpg","null","",NA,NA,NA,NA,""
"image-keyboard-response",19,54547,"0.0-3.2-2.2","wluc2hctgut2hlm",799,"162.csv","","null","resources/images/coin2.png","null","",NA,NA,NA,NA,""
"image-keyboard-response",20,56282,"0.0-3.3-0.3","wluc2hctgut2hlm",799,"162.csv","","1734.0999999046326","resources/trios/L4T4A3.jpg","38","restless",0.9,0.7,0.1,0.0483189622108653,"true"
"image-keyboard-response",21,56685,"0.0-3.3-1.3","wluc2hctgut2hlm",799,"162.csv","","null","resources/maskTrios/BT4B.jpg","null","",NA,NA,NA,NA,""
"image-keyboard-response",22,57891,"0.0-3.3-2.3","wluc2hctgut2hlm",799,"162.csv","","null","resources/images/coin2.png","null","",NA,NA,NA,NA,""
"image-keyboard-response",23,59823,"0.0-3.4-0.4","wluc2hctgut2hlm",799,"162.csv","","1930.6999999284744","resources/trios/L4T1A3.jpg","38","restless",0.9,0.7,0.2,0.609562139841184,"true"
"image-keyboard-response",24,60226,"0.0-3.4-1.4","wluc2hctgut2hlm",799,"162.csv","","null","resources/maskTrios/BT1B.jpg","null","",NA,NA,NA,NA,""
"image-keyboard-response",25,61432,"0.0-3.4-2.4","wluc2hctgut2hlm",799,"162.csv","","null","resources/images/coin2.png","null","",NA,NA,NA,NA,""
"image-keyboard-response",26,63047,"0.0-3.5-0.5","wluc2hctgut2hlm",799,"162.csv","","1613.6000000238419","resources/trios/L4T4A3.jpg","37","restless",0.9,0.7,0.2,0.164289086182403,"true"
"image-keyboard-response",27,63453,"0.0-3.5-1.5","wluc2hctgut2hlm",799,"162.csv","","null","resources/maskTrios/L4BB.jpg","null","",NA,NA,NA,NA,""
"image-keyboard-response",28,64659,"0.0-3.5-2.5","wluc2hctgut2hlm",799,"162.csv","","null","resources/images/coin2.png","null","",NA,NA,NA,NA,""
"image-keyboard-response",29,67078,"0.0-3.6-0.6","wluc2hctgut2hlm",799,"162.csv","","2418.600000023842","resources/trios/L4T1A3.jpg","38","restless",0.9,0.7,0.2,0.767788253232608,"false"
"image-keyboard-response",30,67483,"0.0-3.6-1.6","wluc2hctgut2hlm",799,"162.csv","","null","resources/maskTrios/BT1B.jpg","null","",NA,NA,NA,NA,""
"image-keyboard-response",31,68685,"0.0-3.6-2.6","wluc2hctgut2hlm",799,"162.csv","","null","resources/images/fishbone.png","null","",NA,NA,NA,NA,""
"image-keyboard-response",32,70018,"0.0-3.7-0.7","wluc2hctgut2hlm",799,"162.csv","","1331.2000000476837","resources/trios/L2T4A1.jpg","39","restless",0.9,0.6,0.2,0.934273902677218,"false"
"image-keyboard-response",33,70424,"0.0-3.7-1.7","wluc2hctgut2hlm",799,"162.csv","","null","resources/maskTrios/BBA1.jpg","null","",NA,NA,NA,NA,""
"image-keyboard-response",34,71629,"0.0-3.7-2.7","wluc2hctgut2hlm",799,"162.csv","","null","resources/images/fishbone.png","null","",NA,NA,NA,NA,""
"image-keyboard-response",35,73554,"0.0-3.8-0.8","wluc2hctgut2hlm",799,"162.csv","","1922.8999999761581","resources/trios/L2T4A3.jpg","38","restless",0.9,0.6,0.2,0.0388091062358318,"true"
"image-keyboard-response",36,73960,"0.0-3.8-1.8","wluc2hctgut2hlm",799,"162.csv","","null","resources/maskTrios/BT4B.jpg","null","",NA,NA,NA,NA,""
"image-keyboard-response",37,75165,"0.0-3.8-2.8","wluc2hctgut2hlm",799,"162.csv","","null","resources/images/coin2.png","null","",NA,NA,NA,NA,""
"image-keyboard-response",38,76501,"0.0-3.9-0.9","wluc2hctgut2hlm",799,"162.csv","","1334.7999999523163","resources/trios/L4T4A1.jpg","39","restless",0.9,0.5,0.2,0.724445654501654,"false"
"image-keyboard-response",39,76904,"0.0-3.9-1.9","wluc2hctgut2hlm",799,"162.csv","","null","resources/maskTrios/BBA1.jpg","null","",NA,NA,NA,NA,""
"image-keyboard-response",40,78109,"0.0-3.9-2.9","wluc2hctgut2hlm",799,"162.csv","","null","resources/images/fishbone.png","null","",NA,NA,NA,NA,""
"image-keyboard-response",41,79662,"0.0-3.10-0.10","wluc2hctgut2hlm",799,"162.csv","","1551.6999999284744","resources/trios/L4T4A3.jpg","38","restless",0.9,0.5,0.2,0.93578878823643,"false"
"image-keyboard-response",42,80066,"0.0-3.10-1.10","wluc2hctgut2hlm",799,"162.csv","","null","resources/maskTrios/BT4B.jpg","null","",NA,NA,NA,NA,""
"image-keyboard-response",43,81272,"0.0-3.10-2.10","wluc2hctgut2hlm",799,"162.csv","","null","resources/images/fishbone.png","null","",NA,NA,NA,NA,""
"image-keyboard-response",44,83892,"0.0-3.11-0.11","wluc2hctgut2hlm",799,"162.csv","","2618.7000000476837","resources/trios/L2T1A3.jpg","39","restless",0.9,0.5,0.2,0.896490675701576,"false"
"image-keyboard-response",45,84296,"0.0-3.11-1.11","wluc2hctgut2hlm",799,"162.csv","","null","resources/maskTrios/BBA3.jpg","null","",NA,NA,NA,NA,""
"image-keyboard-response",46,85501,"0.0-3.11-2.11","wluc2hctgut2hlm",799,"162.csv","","null","resources/images/fishbone.png","null","",NA,NA,NA,NA,""
"image-keyboard-response",47,87756,"0.0-3.12-0.12","wluc2hctgut2hlm",799,"162.csv","","2253.399999976158","resources/trios/L2T4A1.jpg","38","restless",0.9,0.5,0.2,0.834110563540355,"false"
"image-keyboard-response",48,88162,"0.0-3.12-1.12","wluc2hctgut2hlm",799,"162.csv","","null","resources/maskTrios/BT4B.jpg","null","",NA,NA,NA,NA,""
"image-keyboard-response",49,89368,"0.0-3.12-2.12","wluc2hctgut2hlm",799,"162.csv","","null","resources/images/fishbone.png","null","",NA,NA,NA,NA,""
"image-keyboard-response",50,90643,"0.0-3.13-0.13","wluc2hctgut2hlm",799,"162.csv","","1273.5","resources/trios/L4T4A3.jpg","39","restless",0.9,0.5,0.3,0.61422148413558,"false"
"image-keyboard-response",51,91048,"0.0-3.13-1.13","wluc2hctgut2hlm",799,"162.csv","","null","resources/maskTrios/BBA3.jpg","null","",NA,NA,NA,NA,""
"image-keyboard-response",52,92253,"0.0-3.13-2.13","wluc2hctgut2hlm",799,"162.csv","","null","resources/images/fishbone.png","null","",NA,NA,NA,NA,""
"image-keyboard-response",53,94446,"0.0-3.14-0.14","wluc2hctgut2hlm",799,"162.csv","","2191.899999976158","resources/trios/L4T4A3.jpg","37","restless",0.9,0.5,0.3,0.469220154165231,"true"
"image-keyboard-response",54,94850,"0.0-3.14-1.14","wluc2hctgut2hlm",799,"162.csv","","null","resources/maskTrios/L4BB.jpg","null","",NA,NA,NA,NA,""
"image-keyboard-response",55,96056,"0.0-3.14-2.14","wluc2hctgut2hlm",799,"162.csv","","null","resources/images/coin2.png","null","",NA,NA,NA,NA,""
"image-keyboard-response",56,97276,"0.0-3.15-0.15","wluc2hctgut2hlm",799,"162.csv","","1219.2000000476837","resources/trios/L4T1A1.jpg","37","restless",0.9,0.5,0.3,0.645400846508196,"true"
"image-keyboard-response",57,97682,"0.0-3.15-1.15","wluc2hctgut2hlm",799,"162.csv","","null","resources/maskTrios/L4BB.jpg","null","",NA,NA,NA,NA,""
"image-keyboard-response",58,98887,"0.0-3.15-2.15","wluc2hctgut2hlm",799,"162.csv","","null","resources/images/coin2.png","null","",NA,NA,NA,NA,""
"image-keyboard-response",59,100692,"0.0-3.16-0.16","wluc2hctgut2hlm",799,"162.csv","","1803.2000000476837","resources/trios/L2T1A3.jpg","38","restless",0.9,0.5,0.4,0.733739952103005,"false"
"image-keyboard-response",60,101099,"0.0-3.16-1.16","wluc2hctgut2hlm",799,"162.csv","","null","resources/maskTrios/BT1B.jpg","null","",NA,NA,NA,NA,""
"image-keyboard-response",61,102301,"0.0-3.16-2.16","wluc2hctgut2hlm",799,"162.csv","","null","resources/images/fishbone.png","null","",NA,NA,NA,NA,""
"image-keyboard-response",62,102673,"0.0-3.17-0.17","wluc2hctgut2hlm",799,"162.csv","","370.5","resources/trios/L4T1A3.jpg","37","restless",0.9,0.5,0.4,0.294749823843009,"true"
"image-keyboard-response",63,103074,"0.0-3.17-1.17","wluc2hctgut2hlm",799,"162.csv","","null","resources/maskTrios/L4BB.jpg","null","",NA,NA,NA,NA,""
"image-keyboard-response",64,104279,"0.0-3.17-2.17","wluc2hctgut2hlm",799,"162.csv","","null","resources/images/coin2.png","null","",NA,NA,NA,NA,""
"image-keyboard-response",65,104681,"0.0-3.18-0.18","wluc2hctgut2hlm",799,"162.csv","","400.3000000715256","resources/trios/L2T1A3.jpg","37","restless",0.9,0.5,0.4,0.204216090720224,"true"
"image-keyboard-response",66,105085,"0.0-3.18-1.18","wluc2hctgut2hlm",799,"162.csv","","null","resources/maskTrios/L2BB.jpg","null","",NA,NA,NA,NA,""
"image-keyboard-response",67,106290,"0.0-3.18-2.18","wluc2hctgut2hlm",799,"162.csv","","null","resources/images/coin2.png","null","",NA,NA,NA,NA,""
"image-keyboard-response",68,106889,"0.0-3.19-0.19","wluc2hctgut2hlm",799,"162.csv","","597.3999999761581","resources/trios/L4T1A3.jpg","37","restless",0.9,0.5,0.4,0.871986940963998,"true"
"image-keyboard-response",69,107293,"0.0-3.19-1.19","wluc2hctgut2hlm",799,"162.csv","","null","resources/maskTrios/L4BB.jpg","null","",NA,NA,NA,NA,""
"image-keyboard-response",70,108498,"0.0-3.19-2.19","wluc2hctgut2hlm",799,"162.csv","","null","resources/images/coin2.png","null","",NA,NA,NA,NA,""
"image-keyboard-response",71,108821,"0.0-3.20-0.20","wluc2hctgut2hlm",799,"162.csv","","321.7999999523163","resources/trios/L4T1A1.jpg","37","restless",0.9,0.5,0.4,0.0964161838506199,"true"
"image-keyboard-response",72,109223,"0.0-3.20-1.20","wluc2hctgut2hlm",799,"162.csv","","null","resources/maskTrios/L4BB.jpg","null","",NA,NA,NA,NA,""
"image-keyboard-response",73,110429,"0.0-3.20-2.20","wluc2hctgut2hlm",799,"162.csv","","null","resources/images/coin2.png","null","",NA,NA,NA,NA,""
"image-keyboard-response",74,110718,"0.0-3.21-0.21","wluc2hctgut2hlm",799,"162.csv","","287.2999999523163","resources/trios/L4T1A1.jpg","37","restless",0.9,0.5,0.4,0.973713114282516,"false"
"image-keyboard-response",75,111122,"0.0-3.21-1.21","wluc2hctgut2hlm",799,"162.csv","","null","resources/maskTrios/L4BB.jpg","null","",NA,NA,NA,NA,""
"image-keyboard-response",76,112327,"0.0-3.21-2.21","wluc2hctgut2hlm",799,"162.csv","","null","resources/images/fishbone.png","null","",NA,NA,NA,NA,""
"image-keyboard-response",77,113344,"0.0-3.22-0.22","wluc2hctgut2hlm",799,"162.csv","","1014.7000000476837","resources/trios/L2T4A3.jpg","39","restless",0.9,0.5,0.4,0.77478237837533,"false"
"image-keyboard-response",78,113746,"0.0-3.22-1.22","wluc2hctgut2hlm",799,"162.csv","","null","resources/maskTrios/BBA3.jpg","null","",NA,NA,NA,NA,""
"image-keyboard-response",79,114951,"0.0-3.22-2.22","wluc2hctgut2hlm",799,"162.csv","","null","resources/images/fishbone.png","null","",NA,NA,NA,NA,""
"image-keyboard-response",80,115214,"0.0-3.23-0.23","wluc2hctgut2hlm",799,"162.csv","","261.39999997615814","resources/trios/L4T4A3.jpg","38","restless",0.9,0.5,0.4,0.0442647773708347,"true"
"image-keyboard-response",81,115618,"0.0-3.23-1.23","wluc2hctgut2hlm",799,"162.csv","","null","resources/maskTrios/BT4B.jpg","null","",NA,NA,NA,NA,""
"image-keyboard-response",82,116823,"0.0-3.23-2.23","wluc2hctgut2hlm",799,"162.csv","","null","resources/images/coin2.png","null","",NA,NA,NA,NA,""
"image-keyboard-response",83,117087,"0.0-3.24-0.24","wluc2hctgut2hlm",799,"162.csv","","262.5","resources/trios/L4T4A3.jpg","38","restless",0.9,0.5,0.4,0.507773592139723,"false"
"image-keyboard-response",84,117490,"0.0-3.24-1.24","wluc2hctgut2hlm",799,"162.csv","","null","resources/maskTrios/BT4B.jpg","null","",NA,NA,NA,NA,""
"image-keyboard-response",85,118695,"0.0-3.24-2.24","wluc2hctgut2hlm",799,"162.csv","","null","resources/images/fishbone.png","null","",NA,NA,NA,NA,""
"image-keyboard-response",86,120756,"0.0-3.25-0.25","wluc2hctgut2hlm",799,"162.csv","","2059.600000023842","resources/trios/L2T4A1.jpg","37","restless",0.9,0.5,0.4,0.401448995061945,"true"
"image-keyboard-response",87,121159,"0.0-3.25-1.25","wluc2hctgut2hlm",799,"162.csv","","null","resources/maskTrios/L2BB.jpg","null","",NA,NA,NA,NA,""
"image-keyboard-response",88,122365,"0.0-3.25-2.25","wluc2hctgut2hlm",799,"162.csv","","null","resources/images/coin2.png","null","",NA,NA,NA,NA,""
"image-keyboard-response",89,123187,"0.0-3.26-0.26","wluc2hctgut2hlm",799,"162.csv","","820.7999999523163","resources/trios/L2T4A1.jpg","39","restless",0.9,0.5,0.5,0.967297095518649,"false"
"image-keyboard-response",90,123591,"0.0-3.26-1.26","wluc2hctgut2hlm",799,"162.csv","","null","resources/maskTrios/BBA1.jpg","null","",NA,NA,NA,NA,""
"image-keyboard-response",91,124796,"0.0-3.26-2.26","wluc2hctgut2hlm",799,"162.csv","","null","resources/images/fishbone.png","null","",NA,NA,NA,NA,""
"image-keyboard-response",92,126298,"0.0-3.27-0.27","wluc2hctgut2hlm",799,"162.csv","","1500.3000000715256","resources/trios/L4T1A3.jpg","37","restless",0.9,0.5,0.5,0.365922082142679,"true"
"image-keyboard-response",93,126701,"0.0-3.27-1.27","wluc2hctgut2hlm",799,"162.csv","","null","resources/maskTrios/L4BB.jpg","null","",NA,NA,NA,NA,""
"image-keyboard-response",94,127906,"0.0-3.27-2.27","wluc2hctgut2hlm",799,"162.csv","","null","resources/images/coin2.png","null","",NA,NA,NA,NA,""
"image-keyboard-response",95,128574,"0.0-3.28-0.28","wluc2hctgut2hlm",799,"162.csv","","667","resources/trios/L2T1A1.jpg","37","restless",0.9,0.5,0.5,0.671764376789248,"true"
"image-keyboard-response",96,128978,"0.0-3.28-1.28","wluc2hctgut2hlm",799,"162.csv","","null","resources/maskTrios/L2BB.jpg","null","",NA,NA,NA,NA,""
"image-keyboard-response",97,130183,"0.0-3.28-2.28","wluc2hctgut2hlm",799,"162.csv","","null","resources/images/coin2.png","null","",NA,NA,NA,NA,""
"image-keyboard-response",98,130755,"0.0-3.29-0.29","wluc2hctgut2hlm",799,"162.csv","","571.0999999046326","resources/trios/L4T1A3.jpg","37","restless",0.9,0.5,0.5,0.658068458929776,"true"
"image-keyboard-response",99,131159,"0.0-3.29-1.29","wluc2hctgut2hlm",799,"162.csv","","null","resources/maskTrios/L4BB.jpg","null","",NA,NA,NA,NA,""
"image-keyboard-response",100,132365,"0.0-3.29-2.29","wluc2hctgut2hlm",799,"162.csv","","null","resources/images/coin2.png","null","",NA,NA,NA,NA,""
"image-keyboard-response",101,132745,"0.0-3.30-0.30","wluc2hctgut2hlm",799,"162.csv","","378.6999999284744","resources/trios/L4T4A3.jpg","37","restless",0.9,0.5,0.5,0.53616490316151,"true"
"image-keyboard-response",102,133149,"0.0-3.30-1.30","wluc2hctgut2hlm",799,"162.csv","","null","resources/maskTrios/L4BB.jpg","null","",NA,NA,NA,NA,""
"image-keyboard-response",103,134354,"0.0-3.30-2.30","wluc2hctgut2hlm",799,"162.csv","","null","resources/images/coin2.png","null","",NA,NA,NA,NA,""
"image-keyboard-response",104,134731,"0.0-3.31-0.31","wluc2hctgut2hlm",799,"162.csv","","375.39999997615814","resources/trios/L4T1A3.jpg","37","restless",0.9,0.5,0.5,0.212017167305951,"true"
"image-keyboard-response",105,135133,"0.0-3.31-1.31","wluc2hctgut2hlm",799,"162.csv","","null","resources/maskTrios/L4BB.jpg","null","",NA,NA,NA,NA,""
"image-keyboard-response",106,136338,"0.0-3.31-2.31","wluc2hctgut2hlm",799,"162.csv","","null","resources/images/coin2.png","null","",NA,NA,NA,NA,""
"image-keyboard-response",107,136675,"0.0-3.32-0.32","wluc2hctgut2hlm",799,"162.csv","","335.2999999523163","resources/trios/L2T1A1.jpg","37","restless",0.9,0.5,0.5,0.453580229654738,"true"
"image-keyboard-response",108,137079,"0.0-3.32-1.32","wluc2hctgut2hlm",799,"162.csv","","null","resources/maskTrios/L2BB.jpg","null","",NA,NA,NA,NA,""
"image-keyboard-response",109,138284,"0.0-3.32-2.32","wluc2hctgut2hlm",799,"162.csv","","null","resources/images/coin2.png","null","",NA,NA,NA,NA,""
"image-keyboard-response",110,138594,"0.0-3.33-0.33","wluc2hctgut2hlm",799,"162.csv","","307.5","resources/trios/L2T4A3.jpg","37","restless",0.9,0.5,0.5,0.191704604050368,"true"
"image-keyboard-response",111,138999,"0.0-3.33-1.33","wluc2hctgut2hlm",799,"162.csv","","null","resources/maskTrios/L2BB.jpg","null","",NA,NA,NA,NA,""
"image-keyboard-response",112,140205,"0.0-3.33-2.33","wluc2hctgut2hlm",799,"162.csv","","null","resources/images/coin2.png","null","",NA,NA,NA,NA,""
"image-keyboard-response",113,140542,"0.0-3.34-0.34","wluc2hctgut2hlm",799,"162.csv","","335.5","resources/trios/L2T4A1.jpg","37","restless",0.9,0.5,0.5,0.970230032568961,"false"
"image-keyboard-response",114,140946,"0.0-3.34-1.34","wluc2hctgut2hlm",799,"162.csv","","null","resources/maskTrios/L2BB.jpg","null","",NA,NA,NA,NA,""
"image-keyboard-response",115,142151,"0.0-3.34-2.34","wluc2hctgut2hlm",799,"162.csv","","null","resources/images/fishbone.png","null","",NA,NA,NA,NA,""
"image-keyboard-response",116,143035,"0.0-3.35-0.35","wluc2hctgut2hlm",799,"162.csv","","882.8999999761581","resources/trios/L2T4A3.jpg","38","restless",0.9,0.5,0.5,0.00419384130427103,"true"
"image-keyboard-response",117,143442,"0.0-3.35-1.35","wluc2hctgut2hlm",799,"162.csv","","null","resources/maskTrios/BT4B.jpg","null","",NA,NA,NA,NA,""
"image-keyboard-response",118,144647,"0.0-3.35-2.35","wluc2hctgut2hlm",799,"162.csv","","null","resources/images/coin2.png","null","",NA,NA,NA,NA,""
"image-keyboard-response",119,144935,"0.0-3.36-0.36","wluc2hctgut2hlm",799,"162.csv","","286.2000000476837","resources/trios/L4T4A1.jpg","38","restless",0.9,0.5,0.5,0.0566729589246855,"true"
"image-keyboard-response",120,145340,"0.0-3.36-1.36","wluc2hctgut2hlm",799,"162.csv","","null","resources/maskTrios/BT4B.jpg","null","",NA,NA,NA,NA,""
"image-keyboard-response",121,146546,"0.0-3.36-2.36","wluc2hctgut2hlm",799,"162.csv","","null","resources/images/coin2.png","null","",NA,NA,NA,NA,""
"image-keyboard-response",122,146853,"0.0-3.37-0.37","wluc2hctgut2hlm",799,"162.csv","","305.89999997615814","resources/trios/L2T1A3.jpg","38","restless",0.9,0.4,0.5,0.646354014232045,"false"
"image-keyboard-response",123,147255,"0.0-3.37-1.37","wluc2hctgut2hlm",799,"162.csv","","null","resources/maskTrios/BT1B.jpg","null","",NA,NA,NA,NA,""
"image-keyboard-response",124,148460,"0.0-3.37-2.37","wluc2hctgut2hlm",799,"162.csv","","null","resources/images/fishbone.png","null","",NA,NA,NA,NA,""
"image-keyboard-response",125,148784,"0.0-3.38-0.38","wluc2hctgut2hlm",799,"162.csv","","322.09999990463257","resources/trios/L4T1A1.jpg","39","restless",0.9,0.4,0.6,0.0110022836593815,"true"
"image-keyboard-response",126,149186,"0.0-3.38-1.38","wluc2hctgut2hlm",799,"162.csv","","null","resources/maskTrios/BBA1.jpg","null","",NA,NA,NA,NA,""
"image-keyboard-response",127,150391,"0.0-3.38-2.38","wluc2hctgut2hlm",799,"162.csv","","null","resources/images/coin2.png","null","",NA,NA,NA,NA,""
"image-keyboard-response",128,150674,"0.0-3.39-0.39","wluc2hctgut2hlm",799,"162.csv","","281.2000000476837","resources/trios/L2T4A1.jpg","39","restless",0.9,0.4,0.6,0.692876228016234,"false"
"image-keyboard-response",129,151079,"0.0-3.39-1.39","wluc2hctgut2hlm",799,"162.csv","","null","resources/maskTrios/BBA1.jpg","null","",NA,NA,NA,NA,""
"image-keyboard-response",130,152284,"0.0-3.39-2.39","wluc2hctgut2hlm",799,"162.csv","","null","resources/images/fishbone.png","null","",NA,NA,NA,NA,""
"image-keyboard-response",131,152579,"0.0-3.40-0.40","wluc2hctgut2hlm",799,"162.csv","","292.7000000476837","resources/trios/L4T4A1.jpg","37","restless",0.8,0.4,0.6,0.738765739105138,"true"
"image-keyboard-response",132,152983,"0.0-3.40-1.40","wluc2hctgut2hlm",799,"162.csv","","null","resources/maskTrios/L4BB.jpg","null","",NA,NA,NA,NA,""
"image-keyboard-response",133,154188,"0.0-3.40-2.40","wluc2hctgut2hlm",799,"162.csv","","null","resources/images/coin2.png","null","",NA,NA,NA,NA,""
"image-keyboard-response",134,154654,"0.0-3.41-0.41","wluc2hctgut2hlm",799,"162.csv","","464.39999997615814","resources/trios/L4T1A1.jpg","37","restless",0.8,0.4,0.6,0.340885469478158,"true"
"image-keyboard-response",135,155058,"0.0-3.41-1.41","wluc2hctgut2hlm",799,"162.csv","","null","resources/maskTrios/L4BB.jpg","null","",NA,NA,NA,NA,""
"image-keyboard-response",136,156263,"0.0-3.41-2.41","wluc2hctgut2hlm",799,"162.csv","","null","resources/images/coin2.png","null","",NA,NA,NA,NA,""
"image-keyboard-response",137,156664,"0.0-3.42-0.42","wluc2hctgut2hlm",799,"162.csv","","399.7000000476837","resources/trios/L4T1A3.jpg","37","restless",0.8,0.4,0.6,0.755365233312926,"true"
"image-keyboard-response",138,157068,"0.0-3.42-1.42","wluc2hctgut2hlm",799,"162.csv","","null","resources/maskTrios/L4BB.jpg","null","",NA,NA,NA,NA,""
"image-keyboard-response",139,158274,"0.0-3.42-2.42","wluc2hctgut2hlm",799,"162.csv","","null","resources/images/coin2.png","null","",NA,NA,NA,NA,""
"image-keyboard-response",140,158582,"0.0-3.43-0.43","wluc2hctgut2hlm",799,"162.csv","","306.6999999284744","resources/trios/L4T1A1.jpg","37","restless",0.8,0.4,0.6,0.641368755223833,"true"
"image-keyboard-response",141,158988,"0.0-3.43-1.43","wluc2hctgut2hlm",799,"162.csv","","null","resources/maskTrios/L4BB.jpg","null","",NA,NA,NA,NA,""
"image-keyboard-response",142,160194,"0.0-3.43-2.43","wluc2hctgut2hlm",799,"162.csv","","null","resources/images/coin2.png","null","",NA,NA,NA,NA,""
"image-keyboard-response",143,160527,"0.0-3.44-0.44","wluc2hctgut2hlm",799,"162.csv","","332.10000002384186","resources/trios/L2T4A3.jpg","37","restless",0.8,0.4,0.6,0.116799257621535,"true"
"image-keyboard-response",144,160930,"0.0-3.44-1.44","wluc2hctgut2hlm",799,"162.csv","","null","resources/maskTrios/L2BB.jpg","null","",NA,NA,NA,NA,""
"image-keyboard-response",145,162135,"0.0-3.44-2.44","wluc2hctgut2hlm",799,"162.csv","","null","resources/images/coin2.png","null","",NA,NA,NA,NA,""
"image-keyboard-response",146,162371,"0.0-3.45-0.45","wluc2hctgut2hlm",799,"162.csv","","234.60000002384186","resources/trios/L4T1A3.jpg","37","restless",0.8,0.3,0.6,0.429754999192255,"true"
"image-keyboard-response",147,162775,"0.0-3.45-1.45","wluc2hctgut2hlm",799,"162.csv","","null","resources/maskTrios/L4BB.jpg","null","",NA,NA,NA,NA,""
"image-keyboard-response",148,163980,"0.0-3.45-2.45","wluc2hctgut2hlm",799,"162.csv","","null","resources/images/coin2.png","null","",NA,NA,NA,NA,""
"image-keyboard-response",149,164267,"0.0-3.46-0.46","wluc2hctgut2hlm",799,"162.csv","","285","resources/trios/L2T1A1.jpg","37","restless",0.8,0.3,0.7,0.248849479712272,"true"
"image-keyboard-response",150,164668,"0.0-3.46-1.46","wluc2hctgut2hlm",799,"162.csv","","null","resources/maskTrios/L2BB.jpg","null","",NA,NA,NA,NA,""
"image-keyboard-response",151,165874,"0.0-3.46-2.46","wluc2hctgut2hlm",799,"162.csv","","null","resources/images/coin2.png","null","",NA,NA,NA,NA,""
"image-keyboard-response",152,166158,"0.0-3.47-0.47","wluc2hctgut2hlm",799,"162.csv","","282.6999999284744","resources/trios/L4T4A3.jpg","37","restless",0.8,0.3,0.7,0.803083179849719,"false"
"image-keyboard-response",153,166562,"0.0-3.47-1.47","wluc2hctgut2hlm",799,"162.csv","","null","resources/maskTrios/L4BB.jpg","null","",NA,NA,NA,NA,""
"image-keyboard-response",154,167767,"0.0-3.47-2.47","wluc2hctgut2hlm",799,"162.csv","","null","resources/images/fishbone.png","null","",NA,NA,NA,NA,""
"image-keyboard-response",155,168073,"0.0-3.48-0.48","wluc2hctgut2hlm",799,"162.csv","","304.2000000476837","resources/trios/L4T4A1.jpg","38","restless",0.8,0.3,0.7,0.712732590442116,"false"
"image-keyboard-response",156,168476,"0.0-3.48-1.48","wluc2hctgut2hlm",799,"162.csv","","null","resources/maskTrios/BT4B.jpg","null","",NA,NA,NA,NA,""
"image-keyboard-response",157,169682,"0.0-3.48-2.48","wluc2hctgut2hlm",799,"162.csv","","null","resources/images/fishbone.png","null","",NA,NA,NA,NA,""
"image-keyboard-response",158,170060,"0.0-3.49-0.49","wluc2hctgut2hlm",799,"162.csv","","377.10000002384186","resources/trios/L2T1A3.jpg","39","restless",0.8,0.3,0.7,0.658185464527354,"true"
"image-keyboard-response",159,170466,"0.0-3.49-1.49","wluc2hctgut2hlm",799,"162.csv","","null","resources/maskTrios/BBA3.jpg","null","",NA,NA,NA,NA,""
"image-keyboard-response",160,171671,"0.0-3.49-2.49","wluc2hctgut2hlm",799,"162.csv","","null","resources/images/coin2.png","null","",NA,NA,NA,NA,""
"image-keyboard-response",161,171994,"0.0-3.50-0.50","wluc2hctgut2hlm",799,"162.csv","","321.7000000476837","resources/trios/L4T1A1.jpg","39","restless",0.8,0.3,0.7,0.858069308262148,"false"
"image-keyboard-response",162,172396,"0.0-3.50-1.50","wluc2hctgut2hlm",799,"162.csv","","null","resources/maskTrios/BBA1.jpg","null","",NA,NA,NA,NA,""
"image-keyboard-response",163,173602,"0.0-3.50-2.50","wluc2hctgut2hlm",799,"162.csv","","null","resources/images/fishbone.png","null","",NA,NA,NA,NA,""
"image-keyboard-response",164,173875,"0.0-3.51-0.51","wluc2hctgut2hlm",799,"162.csv","","272.39999997615814","resources/trios/L4T1A3.jpg","37","restless",0.8,0.3,0.7,0.932956505691481,"false"
"image-keyboard-response",165,174279,"0.0-3.51-1.51","wluc2hctgut2hlm",799,"162.csv","","null","resources/maskTrios/L4BB.jpg","null","",NA,NA,NA,NA,""
"image-keyboard-response",166,175484,"0.0-3.51-2.51","wluc2hctgut2hlm",799,"162.csv","","null","resources/images/fishbone.png","null","",NA,NA,NA,NA,""
"image-keyboard-response",167,176373,"0.0-3.52-0.52","wluc2hctgut2hlm",799,"162.csv","","886.8999999761581","resources/trios/L4T1A1.jpg","38","restless",0.7,0.3,0.7,0.0297651516074215,"true"
"image-keyboard-response",168,176775,"0.0-3.52-1.52","wluc2hctgut2hlm",799,"162.csv","","null","resources/maskTrios/BT1B.jpg","null","",NA,NA,NA,NA,""
"image-keyboard-response",169,177980,"0.0-3.52-2.52","wluc2hctgut2hlm",799,"162.csv","","null","resources/images/coin2.png","null","",NA,NA,NA,NA,""
"image-keyboard-response",170,178265,"0.0-3.53-0.53","wluc2hctgut2hlm",799,"162.csv","","283.10000002384186","resources/trios/L4T1A1.jpg","38","restless",0.7,0.3,0.7,0.761905747606545,"false"
"image-keyboard-response",171,178670,"0.0-3.53-1.53","wluc2hctgut2hlm",799,"162.csv","","null","resources/maskTrios/BT1B.jpg","null","",NA,NA,NA,NA,""
"image-keyboard-response",172,179873,"0.0-3.53-2.53","wluc2hctgut2hlm",799,"162.csv","","null","resources/images/fishbone.png","null","",NA,NA,NA,NA,""
"image-keyboard-response",173,180141,"0.0-3.54-0.54","wluc2hctgut2hlm",799,"162.csv","","266.2000000476837","resources/trios/L2T1A1.jpg","37","restless",0.7,0.3,0.7,0.989002802032148,"false"
"image-keyboard-response",174,180546,"0.0-3.54-1.54","wluc2hctgut2hlm",799,"162.csv","","null","resources/maskTrios/L2BB.jpg","null","",NA,NA,NA,NA,""
"image-keyboard-response",175,181751,"0.0-3.54-2.54","wluc2hctgut2hlm",799,"162.csv","","null","resources/images/fishbone.png","null","",NA,NA,NA,NA,""
"image-keyboard-response",176,181970,"0.0-3.55-0.55","wluc2hctgut2hlm",799,"162.csv","","217.89999997615814","resources/trios/L2T1A1.jpg","39","restless",0.7,0.3,0.7,0.220919746331866,"true"
"image-keyboard-response",177,182375,"0.0-3.55-1.55","wluc2hctgut2hlm",799,"162.csv","","null","resources/maskTrios/BBA1.jpg","null","",NA,NA,NA,NA,""
"image-keyboard-response",178,183580,"0.0-3.55-2.55","wluc2hctgut2hlm",799,"162.csv","","null","resources/images/coin2.png","null","",NA,NA,NA,NA,""
"image-keyboard-response",179,183988,"0.0-3.56-0.56","wluc2hctgut2hlm",799,"162.csv","","406.5","resources/trios/L4T4A1.jpg","39","restless",0.7,0.2,0.7,0.734530299714871,"false"
"image-keyboard-response",180,184395,"0.0-3.56-1.56","wluc2hctgut2hlm",799,"162.csv","","null","resources/maskTrios/BBA1.jpg","null","",NA,NA,NA,NA,""
"image-keyboard-response",181,185596,"0.0-3.56-2.56","wluc2hctgut2hlm",799,"162.csv","","null","resources/images/fishbone.png","null","",NA,NA,NA,NA,""
"image-keyboard-response",182,186152,"0.0-3.57-0.57","wluc2hctgut2hlm",799,"162.csv","","554.2999999523163","resources/trios/L2T1A3.jpg","37","restless",0.7,0.2,0.7,0.332370301106168,"true"
"image-keyboard-response",183,186556,"0.0-3.57-1.57","wluc2hctgut2hlm",799,"162.csv","","null","resources/maskTrios/L2BB.jpg","null","",NA,NA,NA,NA,""
"image-keyboard-response",184,187761,"0.0-3.57-2.57","wluc2hctgut2hlm",799,"162.csv","","null","resources/images/coin2.png","null","",NA,NA,NA,NA,""
"image-keyboard-response",185,188106,"0.0-3.58-0.58","wluc2hctgut2hlm",799,"162.csv","","343.10000002384186","resources/trios/L2T1A1.jpg","37","restless",0.7,0.2,0.7,0.494047146993373,"true"
"image-keyboard-response",186,188508,"0.0-3.58-1.58","wluc2hctgut2hlm",799,"162.csv","","null","resources/maskTrios/L2BB.jpg","null","",NA,NA,NA,NA,""
"image-keyboard-response",187,189713,"0.0-3.58-2.58","wluc2hctgut2hlm",799,"162.csv","","null","resources/images/coin2.png","null","",NA,NA,NA,NA,""
"image-keyboard-response",188,189939,"0.0-3.59-0.59","wluc2hctgut2hlm",799,"162.csv","","223.89999997615814","resources/trios/L2T1A1.jpg","37","restless",0.8,0.2,0.7,0.396452769785243,"true"
"image-keyboard-response",189,190343,"0.0-3.59-1.59","wluc2hctgut2hlm",799,"162.csv","","null","resources/maskTrios/L2BB.jpg","null","",NA,NA,NA,NA,""
"image-keyboard-response",190,191548,"0.0-3.59-2.59","wluc2hctgut2hlm",799,"162.csv","","null","resources/images/coin2.png","null","",NA,NA,NA,NA,""
"image-keyboard-response",191,191839,"0.0-3.60-0.60","wluc2hctgut2hlm",799,"162.csv","","289.89999997615814","resources/trios/L2T1A1.jpg","37","restless",0.8,0.2,0.8,0.796445520118788,"true"
"image-keyboard-response",192,192241,"0.0-3.60-1.60","wluc2hctgut2hlm",799,"162.csv","","null","resources/maskTrios/L2BB.jpg","null","",NA,NA,NA,NA,""
"image-keyboard-response",193,193447,"0.0-3.60-2.60","wluc2hctgut2hlm",799,"162.csv","","null","resources/images/coin2.png","null","",NA,NA,NA,NA,""
"image-keyboard-response",194,193824,"0.0-3.61-0.61","wluc2hctgut2hlm",799,"162.csv","","375.90000009536743","resources/trios/L2T4A1.jpg","37","restless",0.8,0.2,0.8,0.617561693743967,"true"
"image-keyboard-response",195,194226,"0.0-3.61-1.61","wluc2hctgut2hlm",799,"162.csv","","null","resources/maskTrios/L2BB.jpg","null","",NA,NA,NA,NA,""
"image-keyboard-response",196,195431,"0.0-3.61-2.61","wluc2hctgut2hlm",799,"162.csv","","null","resources/images/coin2.png","null","",NA,NA,NA,NA,""
"image-keyboard-response",197,195731,"0.0-3.62-0.62","wluc2hctgut2hlm",799,"162.csv","","299.10000002384186","resources/trios/L4T1A1.jpg","37","restless",0.8,0.2,0.8,0.283608402515775,"true"
"image-keyboard-response",198,196135,"0.0-3.62-1.62","wluc2hctgut2hlm",799,"162.csv","","null","resources/maskTrios/L4BB.jpg","null","",NA,NA,NA,NA,""
"image-keyboard-response",199,197340,"0.0-3.62-2.62","wluc2hctgut2hlm",799,"162.csv","","null","resources/images/coin2.png","null","",NA,NA,NA,NA,""
"image-keyboard-response",200,197585,"0.0-3.63-0.63","wluc2hctgut2hlm",799,"162.csv","","243.39999997615814","resources/trios/L2T4A1.jpg","37","restless",0.8,0.2,0.8,0.502532301269817,"true"
"image-keyboard-response",201,197991,"0.0-3.63-1.63","wluc2hctgut2hlm",799,"162.csv","","null","resources/maskTrios/L2BB.jpg","null","",NA,NA,NA,NA,""
"image-keyboard-response",202,199196,"0.0-3.63-2.63","wluc2hctgut2hlm",799,"162.csv","","null","resources/images/coin2.png","null","",NA,NA,NA,NA,""
"image-keyboard-response",203,199469,"0.0-3.64-0.64","wluc2hctgut2hlm",799,"162.csv","","271.90000009536743","resources/trios/L4T4A3.jpg","37","restless",0.8,0.2,0.8,0.499716159148467,"true"
"image-keyboard-response",204,199873,"0.0-3.64-1.64","wluc2hctgut2hlm",799,"162.csv","","null","resources/maskTrios/L4BB.jpg","null","",NA,NA,NA,NA,""
"image-keyboard-response",205,201079,"0.0-3.64-2.64","wluc2hctgut2hlm",799,"162.csv","","null","resources/images/coin2.png","null","",NA,NA,NA,NA,""
"image-keyboard-response",206,201326,"0.0-3.65-0.65","wluc2hctgut2hlm",799,"162.csv","","246.20000004768372","resources/trios/L2T4A1.jpg","37","restless",0.8,0.2,0.8,0.604446090490768,"true"
"image-keyboard-response",207,201729,"0.0-3.65-1.65","wluc2hctgut2hlm",799,"162.csv","","null","resources/maskTrios/L2BB.jpg","null","",NA,NA,NA,NA,""
"image-keyboard-response",208,202935,"0.0-3.65-2.65","wluc2hctgut2hlm",799,"162.csv","","null","resources/images/coin2.png","null","",NA,NA,NA,NA,""
"image-keyboard-response",209,203258,"0.0-3.66-0.66","wluc2hctgut2hlm",799,"162.csv","","321.5","resources/trios/L2T4A1.jpg","37","restless",0.8,0.2,0.7,0.0509394666738858,"true"
"image-keyboard-response",210,203660,"0.0-3.66-1.66","wluc2hctgut2hlm",799,"162.csv","","null","resources/maskTrios/L2BB.jpg","null","",NA,NA,NA,NA,""
"image-keyboard-response",211,204865,"0.0-3.66-2.66","wluc2hctgut2hlm",799,"162.csv","","null","resources/images/coin2.png","null","",NA,NA,NA,NA,""
"image-keyboard-response",212,205115,"0.0-3.67-0.67","wluc2hctgut2hlm",799,"162.csv","","248.5","resources/trios/L4T4A1.jpg","37","restless",0.8,0.2,0.7,0.146584273107872,"true"
"image-keyboard-response",213,205521,"0.0-3.67-1.67","wluc2hctgut2hlm",799,"162.csv","","null","resources/maskTrios/L4BB.jpg","null","",NA,NA,NA,NA,""
"image-keyboard-response",214,206727,"0.0-3.67-2.67","wluc2hctgut2hlm",799,"162.csv","","null","resources/images/coin2.png","null","",NA,NA,NA,NA,""
"image-keyboard-response",215,207030,"0.0-3.68-0.68","wluc2hctgut2hlm",799,"162.csv","","302","resources/trios/L2T4A3.jpg","37","restless",0.8,0.2,0.7,0.40806040400104,"true"
"image-keyboard-response",216,207436,"0.0-3.68-1.68","wluc2hctgut2hlm",799,"162.csv","","null","resources/maskTrios/L2BB.jpg","null","",NA,NA,NA,NA,""
"image-keyboard-response",217,208641,"0.0-3.68-2.68","wluc2hctgut2hlm",799,"162.csv","","null","resources/images/coin2.png","null","",NA,NA,NA,NA,""
"image-keyboard-response",218,208895,"0.0-3.69-0.69","wluc2hctgut2hlm",799,"162.csv","","252.5","resources/trios/L4T1A3.jpg","37","restless",0.8,0.2,0.7,0.915603382071964,"false"
"image-keyboard-response",219,209297,"0.0-3.69-1.69","wluc2hctgut2hlm",799,"162.csv","","null","resources/maskTrios/L4BB.jpg","null","",NA,NA,NA,NA,""
"image-keyboard-response",220,210503,"0.0-3.69-2.69","wluc2hctgut2hlm",799,"162.csv","","null","resources/images/fishbone.png","null","",NA,NA,NA,NA,""
"image-keyboard-response",221,210652,"0.0-3.70-0.70","wluc2hctgut2hlm",799,"162.csv","","147.89999997615814","resources/trios/L2T1A3.jpg","38","restless",0.8,0.2,0.7,0.526646095514866,"false"
"image-keyboard-response",222,211057,"0.0-3.70-1.70","wluc2hctgut2hlm",799,"162.csv","","null","resources/maskTrios/BT1B.jpg","null","",NA,NA,NA,NA,""
"image-keyboard-response",223,212263,"0.0-3.70-2.70","wluc2hctgut2hlm",799,"162.csv","","null","resources/images/fishbone.png","null","",NA,NA,NA,NA,""
"image-keyboard-response",224,212301,"0.0-3.71-0.71","wluc2hctgut2hlm",799,"162.csv","","37.10000002384186","resources/trios/L2T1A1.jpg","39","restless",0.7,0.2,0.6,0.841576895350729,"false"
"image-keyboard-response",225,212705,"0.0-3.71-1.71","wluc2hctgut2hlm",799,"162.csv","","null","resources/maskTrios/BBA1.jpg","null","",NA,NA,NA,NA,""
"image-keyboard-response",226,213911,"0.0-3.71-2.71","wluc2hctgut2hlm",799,"162.csv","","null","resources/images/fishbone.png","null","",NA,NA,NA,NA,""
"image-keyboard-response",227,214194,"0.0-3.72-0.72","wluc2hctgut2hlm",799,"162.csv","","282.10000002384186","resources/trios/L2T1A1.jpg","37","restless",0.7,0.2,0.6,0.927298402296757,"false"
"image-keyboard-response",228,214599,"0.0-3.72-1.72","wluc2hctgut2hlm",799,"162.csv","","null","resources/maskTrios/L2BB.jpg","null","",NA,NA,NA,NA,""
"image-keyboard-response",229,215804,"0.0-3.72-2.72","wluc2hctgut2hlm",799,"162.csv","","null","resources/images/fishbone.png","null","",NA,NA,NA,NA,""
"image-keyboard-response",230,216352,"0.0-3.73-0.73","wluc2hctgut2hlm",799,"162.csv","","546.1999999284744","resources/trios/L4T4A1.jpg","39","restless",0.7,0.2,0.6,0.292411279442369,"true"
"image-keyboard-response",231,216753,"0.0-3.73-1.73","wluc2hctgut2hlm",799,"162.csv","","null","resources/maskTrios/BBA1.jpg","null","",NA,NA,NA,NA,""
"image-keyboard-response",232,217959,"0.0-3.73-2.73","wluc2hctgut2hlm",799,"162.csv","","null","resources/images/coin2.png","null","",NA,NA,NA,NA,""
"image-keyboard-response",233,218246,"0.0-3.74-0.74","wluc2hctgut2hlm",799,"162.csv","","285.7000000476837","resources/trios/L2T1A1.jpg","39","restless",0.7,0.2,0.6,0.609883801131455,"false"
"image-keyboard-response",234,218652,"0.0-3.74-1.74","wluc2hctgut2hlm",799,"162.csv","","null","resources/maskTrios/BBA1.jpg","null","",NA,NA,NA,NA,""
"image-keyboard-response",235,219857,"0.0-3.74-2.74","wluc2hctgut2hlm",799,"162.csv","","null","resources/images/fishbone.png","null","",NA,NA,NA,NA,""
"image-keyboard-response",236,220168,"0.0-3.75-0.75","wluc2hctgut2hlm",799,"162.csv","","309.10000002384186","resources/trios/L2T1A3.jpg","37","restless",0.7,0.2,0.6,0.449352409593296,"true"
"image-keyboard-response",237,220572,"0.0-3.75-1.75","wluc2hctgut2hlm",799,"162.csv","","null","resources/maskTrios/L2BB.jpg","null","",NA,NA,NA,NA,""
"image-keyboard-response",238,221777,"0.0-3.75-2.75","wluc2hctgut2hlm",799,"162.csv","","null","resources/images/coin2.png","null","",NA,NA,NA,NA,""
"image-keyboard-response",239,222093,"0.0-3.76-0.76","wluc2hctgut2hlm",799,"162.csv","","314","resources/trios/L2T4A3.jpg","39","restless",0.7,0.2,0.6,0.533335975138814,"true"
"image-keyboard-response",240,222497,"0.0-3.76-1.76","wluc2hctgut2hlm",799,"162.csv","","null","resources/maskTrios/BBA3.jpg","null","",NA,NA,NA,NA,""
"image-keyboard-response",241,223702,"0.0-3.76-2.76","wluc2hctgut2hlm",799,"162.csv","","null","resources/images/coin2.png","null","",NA,NA,NA,NA,""
"image-keyboard-response",242,224038,"0.0-3.77-0.77","wluc2hctgut2hlm",799,"162.csv","","333.7000000476837","resources/trios/L4T4A3.jpg","38","restless",0.7,0.2,0.5,0.683395293321589,"false"
"image-keyboard-response",243,224444,"0.0-3.77-1.77","wluc2hctgut2hlm",799,"162.csv","","null","resources/maskTrios/BT4B.jpg","null","",NA,NA,NA,NA,""
"image-keyboard-response",244,225649,"0.0-3.77-2.77","wluc2hctgut2hlm",799,"162.csv","","null","resources/images/fishbone.png","null","",NA,NA,NA,NA,""
"image-keyboard-response",245,225994,"0.0-3.78-0.78","wluc2hctgut2hlm",799,"162.csv","","343","resources/trios/L2T1A1.jpg","37","restless",0.7,0.2,0.5,0.245823079548974,"true"
"image-keyboard-response",246,226396,"0.0-3.78-1.78","wluc2hctgut2hlm",799,"162.csv","","null","resources/maskTrios/L2BB.jpg","null","",NA,NA,NA,NA,""
"image-keyboard-response",247,227601,"0.0-3.78-2.78","wluc2hctgut2hlm",799,"162.csv","","null","resources/images/coin2.png","null","",NA,NA,NA,NA,""
"image-keyboard-response",248,227982,"0.0-3.79-0.79","wluc2hctgut2hlm",799,"162.csv","","379.60000002384186","resources/trios/L4T1A1.jpg","37","restless",0.7,0.3,0.5,0.652450914077345,"true"
"image-keyboard-response",249,228385,"0.0-3.79-1.79","wluc2hctgut2hlm",799,"162.csv","","null","resources/maskTrios/L4BB.jpg","null","",NA,NA,NA,NA,""
"image-keyboard-response",250,229590,"0.0-3.79-2.79","wluc2hctgut2hlm",799,"162.csv","","null","resources/images/coin2.png","null","",NA,NA,NA,NA,""
"image-keyboard-response",251,229925,"0.0-3.80-0.80","wluc2hctgut2hlm",799,"162.csv","","332.89999997615814","resources/trios/L4T4A3.jpg","37","restless",0.7,0.3,0.4,0.167293379561546,"true"
"image-keyboard-response",252,230332,"0.0-3.80-1.80","wluc2hctgut2hlm",799,"162.csv","","null","resources/maskTrios/L4BB.jpg","null","",NA,NA,NA,NA,""
"image-keyboard-response",253,231537,"0.0-3.80-2.80","wluc2hctgut2hlm",799,"162.csv","","null","resources/images/coin2.png","null","",NA,NA,NA,NA,""
"image-keyboard-response",254,231693,"0.0-3.81-0.81","wluc2hctgut2hlm",799,"162.csv","","154.69999992847443","resources/trios/L2T1A3.jpg","37","restless",0.7,0.3,0.4,0.787284642277709,"false"
"image-keyboard-response",255,232097,"0.0-3.81-1.81","wluc2hctgut2hlm",799,"162.csv","","null","resources/maskTrios/L2BB.jpg","null","",NA,NA,NA,NA,""
"image-keyboard-response",256,233302,"0.0-3.81-2.81","wluc2hctgut2hlm",799,"162.csv","","null","resources/images/fishbone.png","null","",NA,NA,NA,NA,""
"image-keyboard-response",257,233573,"0.0-3.82-0.82","wluc2hctgut2hlm",799,"162.csv","","269.5","resources/trios/L4T1A3.jpg","39","restless",0.7,0.3,0.5,0.693953893343144,"false"
"image-keyboard-response",258,233975,"0.0-3.82-1.82","wluc2hctgut2hlm",799,"162.csv","","null","resources/maskTrios/BBA3.jpg","null","",NA,NA,NA,NA,""
"image-keyboard-response",259,235180,"0.0-3.82-2.82","wluc2hctgut2hlm",799,"162.csv","","null","resources/images/fishbone.png","null","",NA,NA,NA,NA,""
"image-keyboard-response",260,236401,"0.0-3.83-0.83","wluc2hctgut2hlm",799,"162.csv","","1219.2000000476837","resources/trios/L2T4A1.jpg","37","restless",0.7,0.3,0.5,0.899544714646471,"false"
"image-keyboard-response",261,236806,"0.0-3.83-1.83","wluc2hctgut2hlm",799,"162.csv","","null","resources/maskTrios/L2BB.jpg","null","",NA,NA,NA,NA,""
"image-keyboard-response",262,238012,"0.0-3.83-2.83","wluc2hctgut2hlm",799,"162.csv","","null","resources/images/fishbone.png","null","",NA,NA,NA,NA,""
"image-keyboard-response",263,238331,"0.0-3.84-0.84","wluc2hctgut2hlm",799,"162.csv","","317.39999997615814","resources/trios/L4T1A3.jpg","38","restless",0.7,0.3,0.5,0.0374792236943411,"true"
"image-keyboard-response",264,238737,"0.0-3.84-1.84","wluc2hctgut2hlm",799,"162.csv","","null","resources/maskTrios/BT1B.jpg","null","",NA,NA,NA,NA,""
"image-keyboard-response",265,239942,"0.0-3.84-2.84","wluc2hctgut2hlm",799,"162.csv","","null","resources/images/coin2.png","null","",NA,NA,NA,NA,""
"image-keyboard-response",266,240250,"0.0-3.85-0.85","wluc2hctgut2hlm",799,"162.csv","","306","resources/trios/L2T4A3.jpg","38","restless",0.6,0.3,0.5,0.849115413889051,"false"
"image-keyboard-response",267,240652,"0.0-3.85-1.85","wluc2hctgut2hlm",799,"162.csv","","null","resources/maskTrios/BT4B.jpg","null","",NA,NA,NA,NA,""
"image-keyboard-response",268,241857,"0.0-3.85-2.85","wluc2hctgut2hlm",799,"162.csv","","null","resources/images/fishbone.png","null","",NA,NA,NA,NA,""
"image-keyboard-response",269,242140,"0.0-3.86-0.86","wluc2hctgut2hlm",799,"162.csv","","281.2999999523163","resources/trios/L2T4A1.jpg","37","restless",0.6,0.3,0.5,0.300037758829185,"true"
"image-keyboard-response",270,242545,"0.0-3.86-1.86","wluc2hctgut2hlm",799,"162.csv","","null","resources/maskTrios/L2BB.jpg","null","",NA,NA,NA,NA,""
"image-keyboard-response",271,243750,"0.0-3.86-2.86","wluc2hctgut2hlm",799,"162.csv","","null","resources/images/coin2.png","null","",NA,NA,NA,NA,""
"image-keyboard-response",272,244070,"0.0-3.87-0.87","wluc2hctgut2hlm",799,"162.csv","","318","resources/trios/L2T1A3.jpg","37","restless",0.6,0.3,0.5,0.650565409594524,"false"
"image-keyboard-response",273,244476,"0.0-3.87-1.87","wluc2hctgut2hlm",799,"162.csv","","null","resources/maskTrios/L2BB.jpg","null","",NA,NA,NA,NA,""
"image-keyboard-response",274,245681,"0.0-3.87-2.87","wluc2hctgut2hlm",799,"162.csv","","null","resources/images/fishbone.png","null","",NA,NA,NA,NA,""
"image-keyboard-response",275,246220,"0.0-3.88-0.88","wluc2hctgut2hlm",799,"162.csv","","537.6000000238419","resources/trios/L2T1A3.jpg","39","restless",0.6,0.3,0.5,0.809719879012804,"false"
"image-keyboard-response",276,246625,"0.0-3.88-1.88","wluc2hctgut2hlm",799,"162.csv","","null","resources/maskTrios/BBA3.jpg","null","",NA,NA,NA,NA,""
"image-keyboard-response",277,247830,"0.0-3.88-2.88","wluc2hctgut2hlm",799,"162.csv","","null","resources/images/fishbone.png","null","",NA,NA,NA,NA,""
"image-keyboard-response",278,248289,"0.0-3.89-0.89","wluc2hctgut2hlm",799,"162.csv","","456.90000009536743","resources/trios/L2T4A1.jpg","37","restless",0.7,0.3,0.5,0.692731244363976,"true"
"image-keyboard-response",279,248694,"0.0-3.89-1.89","wluc2hctgut2hlm",799,"162.csv","","null","resources/maskTrios/L2BB.jpg","null","",NA,NA,NA,NA,""
"image-keyboard-response",280,249900,"0.0-3.89-2.89","wluc2hctgut2hlm",799,"162.csv","","null","resources/images/coin2.png","null","",NA,NA,NA,NA,""
"image-keyboard-response",281,250202,"0.0-3.90-0.90","wluc2hctgut2hlm",799,"162.csv","","301.1999999284744","resources/trios/L2T1A1.jpg","37","restless",0.7,0.3,0.5,0.727980487128196,"false"
"image-keyboard-response",282,250604,"0.0-3.90-1.90","wluc2hctgut2hlm",799,"162.csv","","null","resources/maskTrios/L2BB.jpg","null","",NA,NA,NA,NA,""
"image-keyboard-response",283,251809,"0.0-3.90-2.90","wluc2hctgut2hlm",799,"162.csv","","null","resources/images/fishbone.png","null","",NA,NA,NA,NA,""
"image-keyboard-response",284,252418,"0.0-3.91-0.91","wluc2hctgut2hlm",799,"162.csv","","608.3999999761581","resources/trios/L2T1A3.jpg","38","restless",0.7,0.3,0.4,0.576951730895965,"false"
"image-keyboard-response",285,252822,"0.0-3.91-1.91","wluc2hctgut2hlm",799,"162.csv","","null","resources/maskTrios/BT1B.jpg","null","",NA,NA,NA,NA,""
"image-keyboard-response",286,254028,"0.0-3.91-2.91","wluc2hctgut2hlm",799,"162.csv","","null","resources/images/fishbone.png","null","",NA,NA,NA,NA,""
"image-keyboard-response",287,254341,"0.0-3.92-0.92","wluc2hctgut2hlm",799,"162.csv","","312.2999999523163","resources/trios/L4T1A3.jpg","37","restless",0.7,0.3,0.4,0.536994141074469,"true"
"image-keyboard-response",288,254748,"0.0-3.92-1.92","wluc2hctgut2hlm",799,"162.csv","","null","resources/maskTrios/L4BB.jpg","null","",NA,NA,NA,NA,""
"image-keyboard-response",289,255953,"0.0-3.92-2.92","wluc2hctgut2hlm",799,"162.csv","","null","resources/images/coin2.png","null","",NA,NA,NA,NA,""
"image-keyboard-response",290,256254,"0.0-3.93-0.93","wluc2hctgut2hlm",799,"162.csv","","299.39999997615814","resources/trios/L4T1A1.jpg","38","restless",0.7,0.3,0.4,0.917601237619323,"false"
"image-keyboard-response",291,256657,"0.0-3.93-1.93","wluc2hctgut2hlm",799,"162.csv","","null","resources/maskTrios/BT1B.jpg","null","",NA,NA,NA,NA,""
"image-keyboard-response",292,257862,"0.0-3.93-2.93","wluc2hctgut2hlm",799,"162.csv","","null","resources/images/fishbone.png","null","",NA,NA,NA,NA,""
"image-keyboard-response",293,258169,"0.0-3.94-0.94","wluc2hctgut2hlm",799,"162.csv","","305.39999997615814","resources/trios/L2T4A3.jpg","37","restless",0.6,0.3,0.4,0.556936015214734,"true"
"image-keyboard-response",294,258572,"0.0-3.94-1.94","wluc2hctgut2hlm",799,"162.csv","","null","resources/maskTrios/L2BB.jpg","null","",NA,NA,NA,NA,""
"image-keyboard-response",295,259777,"0.0-3.94-2.94","wluc2hctgut2hlm",799,"162.csv","","null","resources/images/coin2.png","null","",NA,NA,NA,NA,""
"image-keyboard-response",296,260121,"0.0-3.95-0.95","wluc2hctgut2hlm",799,"162.csv","","342.5","resources/trios/L4T1A1.jpg","37","restless",0.6,0.3,0.4,0.633295695271062,"false"
"image-keyboard-response",297,260524,"0.0-3.95-1.95","wluc2hctgut2hlm",799,"162.csv","","null","resources/maskTrios/L4BB.jpg","null","",NA,NA,NA,NA,""
"image-keyboard-response",298,261729,"0.0-3.95-2.95","wluc2hctgut2hlm",799,"162.csv","","null","resources/images/fishbone.png","null","",NA,NA,NA,NA,""
"image-keyboard-response",299,262687,"0.0-3.96-0.96","wluc2hctgut2hlm",799,"162.csv","","956.5","resources/trios/L4T4A1.jpg","38","restless",0.6,0.3,0.5,0.630576990399508,"false"
"image-keyboard-response",300,263089,"0.0-3.96-1.96","wluc2hctgut2hlm",799,"162.csv","","null","resources/maskTrios/BT4B.jpg","null","",NA,NA,NA,NA,""
"image-keyboard-response",301,264294,"0.0-3.96-2.96","wluc2hctgut2hlm",799,"162.csv","","null","resources/images/fishbone.png","null","",NA,NA,NA,NA,""
"image-keyboard-response",302,264528,"0.0-3.97-0.97","wluc2hctgut2hlm",799,"162.csv","","232.5","resources/trios/L4T4A3.jpg","37","restless",0.6,0.3,0.5,0.890244164253591,"false"
"image-keyboard-response",303,264934,"0.0-3.97-1.97","wluc2hctgut2hlm",799,"162.csv","","null","resources/maskTrios/L4BB.jpg","null","",NA,NA,NA,NA,""
"image-keyboard-response",304,266140,"0.0-3.97-2.97","wluc2hctgut2hlm",799,"162.csv","","null","resources/images/fishbone.png","null","",NA,NA,NA,NA,""
"image-keyboard-response",305,266568,"0.0-3.98-0.98","wluc2hctgut2hlm",799,"162.csv","","427.1999999284744","resources/trios/L2T4A3.jpg","37","restless",0.6,0.3,0.5,0.767961822527251,"false"
"image-keyboard-response",306,266972,"0.0-3.98-1.98","wluc2hctgut2hlm",799,"162.csv","","null","resources/maskTrios/L2BB.jpg","null","",NA,NA,NA,NA,""
"image-keyboard-response",307,268176,"0.0-3.98-2.98","wluc2hctgut2hlm",799,"162.csv","","null","resources/images/fishbone.png","null","",NA,NA,NA,NA,""
"image-keyboard-response",308,268460,"0.0-3.99-0.99","wluc2hctgut2hlm",799,"162.csv","","281.5","resources/trios/L4T4A3.jpg","38","restless",0.6,0.3,0.4,0.83088577246357,"false"
"image-keyboard-response",309,268864,"0.0-3.99-1.99","wluc2hctgut2hlm",799,"162.csv","","null","resources/maskTrios/BT4B.jpg","null","",NA,NA,NA,NA,""
"image-keyboard-response",310,270070,"0.0-3.99-2.99","wluc2hctgut2hlm",799,"162.csv","","null","resources/images/fishbone.png","null","",NA,NA,NA,NA,""
"image-keyboard-response",311,270433,"0.0-3.100-0.100","wluc2hctgut2hlm",799,"162.csv","","361.7000000476837","resources/trios/L2T4A1.jpg","39","restless",0.6,0.3,0.4,0.214174434329314,"true"
"image-keyboard-response",312,270838,"0.0-3.100-1.100","wluc2hctgut2hlm",799,"162.csv","","null","resources/maskTrios/BBA1.jpg","null","",NA,NA,NA,NA,""
"image-keyboard-response",313,272043,"0.0-3.100-2.100","wluc2hctgut2hlm",799,"162.csv","","null","resources/images/coin2.png","null","",NA,NA,NA,NA,""
"image-keyboard-response",314,272327,"0.0-3.101-0.101","wluc2hctgut2hlm",799,"162.csv","","282","resources/trios/L2T1A3.jpg","39","restless",0.6,0.3,0.4,0.870293519283151,"false"
"image-keyboard-response",315,272731,"0.0-3.101-1.101","wluc2hctgut2hlm",799,"162.csv","","null","resources/maskTrios/BBA3.jpg","null","",NA,NA,NA,NA,""
"image-keyboard-response",316,273937,"0.0-3.101-2.101","wluc2hctgut2hlm",799,"162.csv","","null","resources/images/fishbone.png","null","",NA,NA,NA,NA,""
"image-keyboard-response",317,274161,"0.0-3.102-0.102","wluc2hctgut2hlm",799,"162.csv","","222.60000002384186","resources/trios/L2T4A3.jpg","37","restless",0.6,0.3,0.4,0.649560079833516,"false"
"image-keyboard-response",318,274566,"0.0-3.102-1.102","wluc2hctgut2hlm",799,"162.csv","","null","resources/maskTrios/L2BB.jpg","null","",NA,NA,NA,NA,""
"image-keyboard-response",319,275772,"0.0-3.102-2.102","wluc2hctgut2hlm",799,"162.csv","","null","resources/images/fishbone.png","null","",NA,NA,NA,NA,""
"image-keyboard-response",320,276553,"0.0-3.103-0.103","wluc2hctgut2hlm",799,"162.csv","","780","resources/trios/L4T4A3.jpg","38","restless",0.6,0.3,0.4,0.176794716002212,"true"
"image-keyboard-response",321,276955,"0.0-3.103-1.103","wluc2hctgut2hlm",799,"162.csv","","null","resources/maskTrios/BT4B.jpg","null","",NA,NA,NA,NA,""
"image-keyboard-response",322,278161,"0.0-3.103-2.103","wluc2hctgut2hlm",799,"162.csv","","null","resources/images/coin2.png","null","",NA,NA,NA,NA,""
"image-keyboard-response",323,278462,"0.0-3.104-0.104","wluc2hctgut2hlm",799,"162.csv","","299.39999997615814","resources/trios/L4T1A1.jpg","38","restless",0.6,0.3,0.4,0.0258335184817542,"true"
"image-keyboard-response",324,278864,"0.0-3.104-1.104","wluc2hctgut2hlm",799,"162.csv","","null","resources/maskTrios/BT1B.jpg","null","",NA,NA,NA,NA,""
"image-keyboard-response",325,280070,"0.0-3.104-2.104","wluc2hctgut2hlm",799,"162.csv","","null","resources/images/coin2.png","null","",NA,NA,NA,NA,""
"image-keyboard-response",326,280601,"0.0-3.105-0.105","wluc2hctgut2hlm",799,"162.csv","","529.4000000953674","resources/trios/L4T1A3.jpg","38","restless",0.6,0.3,0.4,0.613130549815977,"false"
"image-keyboard-response",327,281003,"0.0-3.105-1.105","wluc2hctgut2hlm",799,"162.csv","","null","resources/maskTrios/BT1B.jpg","null","",NA,NA,NA,NA,""
"image-keyboard-response",328,282209,"0.0-3.105-2.105","wluc2hctgut2hlm",799,"162.csv","","null","resources/images/fishbone.png","null","",NA,NA,NA,NA,""
"image-keyboard-response",329,283229,"0.0-3.106-0.106","wluc2hctgut2hlm",799,"162.csv","","1019.1999999284744","resources/trios/L4T1A1.jpg","39","restless",0.6,0.3,0.4,0.798180008728415,"false"
"image-keyboard-response",330,283633,"0.0-3.106-1.106","wluc2hctgut2hlm",799,"162.csv","","null","resources/maskTrios/BBA1.jpg","null","",NA,NA,NA,NA,""
"image-keyboard-response",331,284838,"0.0-3.106-2.106","wluc2hctgut2hlm",799,"162.csv","","null","resources/images/fishbone.png","null","",NA,NA,NA,NA,""
"image-keyboard-response",332,285098,"0.0-3.107-0.107","wluc2hctgut2hlm",799,"162.csv","","258.3000000715256","resources/trios/L4T4A1.jpg","37","restless",0.6,0.3,0.5,0.71125094454496,"false"
"image-keyboard-response",333,285500,"0.0-3.107-1.107","wluc2hctgut2hlm",799,"162.csv","","null","resources/maskTrios/L4BB.jpg","null","",NA,NA,NA,NA,""
"image-keyboard-response",334,286705,"0.0-3.107-2.107","wluc2hctgut2hlm",799,"162.csv","","null","resources/images/fishbone.png","null","",NA,NA,NA,NA,""
"image-keyboard-response",335,287924,"0.0-3.108-0.108","wluc2hctgut2hlm",799,"162.csv","","1218.1000000238419","resources/trios/L4T1A1.jpg","39","restless",0.6,0.3,0.5,0.901926664740261,"false"
"image-keyboard-response",336,288326,"0.0-3.108-1.108","wluc2hctgut2hlm",799,"162.csv","","null","resources/maskTrios/BBA1.jpg","null","",NA,NA,NA,NA,""
"image-keyboard-response",337,289531,"0.0-3.108-2.108","wluc2hctgut2hlm",799,"162.csv","","null","resources/images/fishbone.png","null","",NA,NA,NA,NA,""
"image-keyboard-response",338,289830,"0.0-3.109-0.109","wluc2hctgut2hlm",799,"162.csv","","297.3000000715256","resources/trios/L2T4A1.jpg","38","restless",0.6,0.3,0.5,0.128067431481823,"true"
"image-keyboard-response",339,290235,"0.0-3.109-1.109","wluc2hctgut2hlm",799,"162.csv","","null","resources/maskTrios/BT4B.jpg","null","",NA,NA,NA,NA,""
"image-keyboard-response",340,291441,"0.0-3.109-2.109","wluc2hctgut2hlm",799,"162.csv","","null","resources/images/coin2.png","null","",NA,NA,NA,NA,""
"image-keyboard-response",341,291832,"0.0-3.110-0.110","wluc2hctgut2hlm",799,"162.csv","","389.2999999523163","resources/trios/L4T1A3.jpg","38","restless",0.6,0.3,0.5,0.674548251796102,"false"
"image-keyboard-response",342,292235,"0.0-3.110-1.110","wluc2hctgut2hlm",799,"162.csv","","null","resources/maskTrios/BT1B.jpg","null","",NA,NA,NA,NA,""
"image-keyboard-response",343,293441,"0.0-3.110-2.110","wluc2hctgut2hlm",799,"162.csv","","null","resources/images/fishbone.png","null","",NA,NA,NA,NA,""
"image-keyboard-response",344,293714,"0.0-3.111-0.111","wluc2hctgut2hlm",799,"162.csv","","272.10000002384186","resources/trios/L2T4A1.jpg","37","restless",0.6,0.3,0.5,0.83919522309883,"false"
"image-keyboard-response",345,294119,"0.0-3.111-1.111","wluc2hctgut2hlm",799,"162.csv","","null","resources/maskTrios/L2BB.jpg","null","",NA,NA,NA,NA,""
"image-keyboard-response",346,295323,"0.0-3.111-2.111","wluc2hctgut2hlm",799,"162.csv","","null","resources/images/fishbone.png","null","",NA,NA,NA,NA,""
"image-keyboard-response",347,295744,"0.0-3.112-0.112","wluc2hctgut2hlm",799,"162.csv","","419.2999999523163","resources/trios/L4T4A3.jpg","39","restless",0.6,0.3,0.5,0.282556835279777,"true"
"image-keyboard-response",348,296150,"0.0-3.112-1.112","wluc2hctgut2hlm",799,"162.csv","","null","resources/maskTrios/BBA3.jpg","null","",NA,NA,NA,NA,""
"image-keyboard-response",349,297355,"0.0-3.112-2.112","wluc2hctgut2hlm",799,"162.csv","","null","resources/images/coin2.png","null","",NA,NA,NA,NA,""
"image-keyboard-response",350,297783,"0.0-3.113-0.113","wluc2hctgut2hlm",799,"162.csv","","427.10000002384186","resources/trios/L4T1A1.jpg","39","restless",0.6,0.4,0.5,0.818307388489883,"false"
"image-keyboard-response",351,298187,"0.0-3.113-1.113","wluc2hctgut2hlm",799,"162.csv","","null","resources/maskTrios/BBA1.jpg","null","",NA,NA,NA,NA,""
"image-keyboard-response",352,299393,"0.0-3.113-2.113","wluc2hctgut2hlm",799,"162.csv","","null","resources/images/fishbone.png","null","",NA,NA,NA,NA,""
"image-keyboard-response",353,299898,"0.0-3.114-0.114","wluc2hctgut2hlm",799,"162.csv","","504","resources/trios/L4T1A3.jpg","38","restless",0.6,0.4,0.5,0.727113391149442,"false"
"image-keyboard-response",354,300305,"0.0-3.114-1.114","wluc2hctgut2hlm",799,"162.csv","","null","resources/maskTrios/BT1B.jpg","null","",NA,NA,NA,NA,""
"image-keyboard-response",355,301510,"0.0-3.114-2.114","wluc2hctgut2hlm",799,"162.csv","","null","resources/images/fishbone.png","null","",NA,NA,NA,NA,""
"image-keyboard-response",356,302172,"0.0-3.115-0.115","wluc2hctgut2hlm",799,"162.csv","","660.5999999046326","resources/trios/L4T1A3.jpg","37","restless",0.6,0.4,0.5,0.291567528113024,"true"
"image-keyboard-response",357,302577,"0.0-3.115-1.115","wluc2hctgut2hlm",799,"162.csv","","null","resources/maskTrios/L4BB.jpg","null","",NA,NA,NA,NA,""
"image-keyboard-response",358,303782,"0.0-3.115-2.115","wluc2hctgut2hlm",799,"162.csv","","null","resources/images/coin2.png","null","",NA,NA,NA,NA,""
"image-keyboard-response",359,304111,"0.0-3.116-0.116","wluc2hctgut2hlm",799,"162.csv","","327.2000000476837","resources/trios/L4T4A1.jpg","37","restless",0.7,0.4,0.5,0.430920410026703,"true"
"image-keyboard-response",360,304513,"0.0-3.116-1.116","wluc2hctgut2hlm",799,"162.csv","","null","resources/maskTrios/L4BB.jpg","null","",NA,NA,NA,NA,""
"image-keyboard-response",361,305718,"0.0-3.116-2.116","wluc2hctgut2hlm",799,"162.csv","","null","resources/images/coin2.png","null","",NA,NA,NA,NA,""
"image-keyboard-response",362,306077,"0.0-3.117-0.117","wluc2hctgut2hlm",799,"162.csv","","357.39999997615814","resources/trios/L2T4A1.jpg","37","restless",0.7,0.4,0.5,0.931350258358346,"false"
"image-keyboard-response",363,306481,"0.0-3.117-1.117","wluc2hctgut2hlm",799,"162.csv","","null","resources/maskTrios/L2BB.jpg","null","",NA,NA,NA,NA,""
"image-keyboard-response",364,307686,"0.0-3.117-2.117","wluc2hctgut2hlm",799,"162.csv","","null","resources/images/fishbone.png","null","",NA,NA,NA,NA,""
"image-keyboard-response",365,308006,"0.0-3.118-0.118","wluc2hctgut2hlm",799,"162.csv","","317.7999999523163","resources/trios/L2T1A3.jpg","38","restless",0.7,0.4,0.5,0.635800307215479,"false"
"image-keyboard-response",366,308411,"0.0-3.118-1.118","wluc2hctgut2hlm",799,"162.csv","","null","resources/maskTrios/BT1B.jpg","null","",NA,NA,NA,NA,""
"image-keyboard-response",367,309616,"0.0-3.118-2.118","wluc2hctgut2hlm",799,"162.csv","","null","resources/images/fishbone.png","null","",NA,NA,NA,NA,""
"image-keyboard-response",368,309908,"0.0-3.119-0.119","wluc2hctgut2hlm",799,"162.csv","","290.5","resources/trios/L4T4A3.jpg","39","restless",0.7,0.4,0.5,0.244498565110738,"true"
"image-keyboard-response",369,310310,"0.0-3.119-1.119","wluc2hctgut2hlm",799,"162.csv","","null","resources/maskTrios/BBA3.jpg","null","",NA,NA,NA,NA,""
"image-keyboard-response",370,311515,"0.0-3.119-2.119","wluc2hctgut2hlm",799,"162.csv","","null","resources/images/coin2.png","null","",NA,NA,NA,NA,""
"image-keyboard-response",371,311723,"0.0-3.120-0.120","wluc2hctgut2hlm",799,"162.csv","","206.79999995231628","resources/trios/L2T1A3.jpg","39","restless",0.7,0.4,0.5,0.840623275848307,"false"
"image-keyboard-response",372,312128,"0.0-3.120-1.120","wluc2hctgut2hlm",799,"162.csv","","null","resources/maskTrios/BBA3.jpg","null","",NA,NA,NA,NA,""
"image-keyboard-response",373,313334,"0.0-3.120-2.120","wluc2hctgut2hlm",799,"162.csv","","null","resources/images/fishbone.png","null","",NA,NA,NA,NA,""
"image-keyboard-response",374,315263,"0.0-3.121-0.121","wluc2hctgut2hlm",799,"162.csv","","1927.5","resources/trios/L4T4A3.jpg","38","restless",0.7,0.4,0.5,0.797008520337954,"false"
"image-keyboard-response",375,315664,"0.0-3.121-1.121","wluc2hctgut2hlm",799,"162.csv","","null","resources/maskTrios/BT4B.jpg","null","",NA,NA,NA,NA,""
"image-keyboard-response",376,316870,"0.0-3.121-2.121","wluc2hctgut2hlm",799,"162.csv","","null","resources/images/fishbone.png","null","",NA,NA,NA,NA,""
"image-keyboard-response",377,317184,"0.0-3.122-0.122","wluc2hctgut2hlm",799,"162.csv","","312.7000000476837","resources/trios/L2T4A3.jpg","37","restless",0.7,0.5,0.5,0.145197569715404,"true"
"image-keyboard-response",378,317590,"0.0-3.122-1.122","wluc2hctgut2hlm",799,"162.csv","","null","resources/maskTrios/L2BB.jpg","null","",NA,NA,NA,NA,""
"image-keyboard-response",379,318794,"0.0-3.122-2.122","wluc2hctgut2hlm",799,"162.csv","","null","resources/images/coin2.png","null","",NA,NA,NA,NA,""
"image-keyboard-response",380,320058,"0.0-3.123-0.123","wluc2hctgut2hlm",799,"162.csv","","1262.7999999523163","resources/trios/L2T1A1.jpg","37","restless",0.7,0.5,0.5,0.818052182816957,"false"
"image-keyboard-response",381,320464,"0.0-3.123-1.123","wluc2hctgut2hlm",799,"162.csv","","null","resources/maskTrios/L2BB.jpg","null","",NA,NA,NA,NA,""
"image-keyboard-response",382,321670,"0.0-3.123-2.123","wluc2hctgut2hlm",799,"162.csv","","null","resources/images/fishbone.png","null","",NA,NA,NA,NA,""
"image-keyboard-response",383,322539,"0.0-3.124-0.124","wluc2hctgut2hlm",799,"162.csv","","868","resources/trios/L4T4A3.jpg","38","restless",0.7,0.5,0.5,0.15155887254209,"true"
"image-keyboard-response",384,322944,"0.0-3.124-1.124","wluc2hctgut2hlm",799,"162.csv","","null","resources/maskTrios/BT4B.jpg","null","",NA,NA,NA,NA,""
"image-keyboard-response",385,324150,"0.0-3.124-2.124","wluc2hctgut2hlm",799,"162.csv","","null","resources/images/coin2.png","null","",NA,NA,NA,NA,""
"image-keyboard-response",386,325079,"0.0-3.125-0.125","wluc2hctgut2hlm",799,"162.csv","","928.2000000476837","resources/trios/L2T1A3.jpg","38","restless",0.7,0.4,0.5,0.727544822038381,"false"
"image-keyboard-response",387,325483,"0.0-3.125-1.125","wluc2hctgut2hlm",799,"162.csv","","null","resources/maskTrios/BT1B.jpg","null","",NA,NA,NA,NA,""
"image-keyboard-response",388,326688,"0.0-3.125-2.125","wluc2hctgut2hlm",799,"162.csv","","null","resources/images/fishbone.png","null","",NA,NA,NA,NA,""
"image-keyboard-response",389,327048,"0.0-3.126-0.126","wluc2hctgut2hlm",799,"162.csv","","357.89999997615814","resources/trios/L2T4A3.jpg","39","restless",0.7,0.4,0.5,0.178847923254686,"true"
"image-keyboard-response",390,327451,"0.0-3.126-1.126","wluc2hctgut2hlm",799,"162.csv","","null","resources/maskTrios/BBA3.jpg","null","",NA,NA,NA,NA,""
"image-keyboard-response",391,328656,"0.0-3.126-2.126","wluc2hctgut2hlm",799,"162.csv","","null","resources/images/coin2.png","null","",NA,NA,NA,NA,""
"image-keyboard-response",392,329575,"0.0-3.127-0.127","wluc2hctgut2hlm",799,"162.csv","","917.2999999523163","resources/trios/L2T1A3.jpg","39","restless",0.7,0.4,0.4,0.278130132906243,"true"
"image-keyboard-response",393,329979,"0.0-3.127-1.127","wluc2hctgut2hlm",799,"162.csv","","null","resources/maskTrios/BBA3.jpg","null","",NA,NA,NA,NA,""
"image-keyboard-response",394,331184,"0.0-3.127-2.127","wluc2hctgut2hlm",799,"162.csv","","null","resources/images/coin2.png","null","",NA,NA,NA,NA,""
"image-keyboard-response",395,332410,"0.0-3.128-0.128","wluc2hctgut2hlm",799,"162.csv","","1224.1999999284744","resources/trios/L2T1A3.jpg","39","restless",0.7,0.4,0.4,0.130745488172443,"true"
"image-keyboard-response",396,332816,"0.0-3.128-1.128","wluc2hctgut2hlm",799,"162.csv","","null","resources/maskTrios/BBA3.jpg","null","",NA,NA,NA,NA,""
"image-keyboard-response",397,334022,"0.0-3.128-2.128","wluc2hctgut2hlm",799,"162.csv","","null","resources/images/coin2.png","null","",NA,NA,NA,NA,""
"image-keyboard-response",398,334735,"0.0-3.129-0.129","wluc2hctgut2hlm",799,"162.csv","","711.6000000238419","resources/trios/L4T4A3.jpg","39","restless",0.7,0.4,0.4,0.457395822037502,"false"
"image-keyboard-response",399,335136,"0.0-3.129-1.129","wluc2hctgut2hlm",799,"162.csv","","null","resources/maskTrios/BBA3.jpg","null","",NA,NA,NA,NA,""
"image-keyboard-response",400,336342,"0.0-3.129-2.129","wluc2hctgut2hlm",799,"162.csv","","null","resources/images/fishbone.png","null","",NA,NA,NA,NA,""
"image-keyboard-response",401,337130,"0.0-3.130-0.130","wluc2hctgut2hlm",799,"162.csv","","787.3000000715256","resources/trios/L4T1A1.jpg","37","restless",0.7,0.5,0.4,0.852095342853245,"false"
"image-keyboard-response",402,337536,"0.0-3.130-1.130","wluc2hctgut2hlm",799,"162.csv","","null","resources/maskTrios/L4BB.jpg","null","",NA,NA,NA,NA,""
"image-keyboard-response",403,338742,"0.0-3.130-2.130","wluc2hctgut2hlm",799,"162.csv","","null","resources/images/fishbone.png","null","",NA,NA,NA,NA,""
"image-keyboard-response",404,339341,"0.0-3.131-0.131","wluc2hctgut2hlm",799,"162.csv","","596.8999999761581","resources/trios/L4T1A3.jpg","38","restless",0.7,0.5,0.4,0.474229561073236,"true"
"image-keyboard-response",405,339744,"0.0-3.131-1.131","wluc2hctgut2hlm",799,"162.csv","","null","resources/maskTrios/BT1B.jpg","null","",NA,NA,NA,NA,""
"image-keyboard-response",406,340950,"0.0-3.131-2.131","wluc2hctgut2hlm",799,"162.csv","","null","resources/images/coin2.png","null","",NA,NA,NA,NA,""
"image-keyboard-response",407,341288,"0.0-3.132-0.132","wluc2hctgut2hlm",799,"162.csv","","336.90000009536743","resources/trios/L4T1A3.jpg","38","restless",0.7,0.5,0.4,0.767000901948261,"false"
"image-keyboard-response",408,341691,"0.0-3.132-1.132","wluc2hctgut2hlm",799,"162.csv","","null","resources/maskTrios/BT1B.jpg","null","",NA,NA,NA,NA,""
"image-keyboard-response",409,342896,"0.0-3.132-2.132","wluc2hctgut2hlm",799,"162.csv","","null","resources/images/fishbone.png","null","",NA,NA,NA,NA,""
"image-keyboard-response",410,343170,"0.0-3.133-0.133","wluc2hctgut2hlm",799,"162.csv","","272.6999999284744","resources/trios/L4T4A3.jpg","39","restless",0.7,0.5,0.4,0.136126980746985,"true"
"image-keyboard-response",411,343574,"0.0-3.133-1.133","wluc2hctgut2hlm",799,"162.csv","","null","resources/maskTrios/BBA3.jpg","null","",NA,NA,NA,NA,""
"image-keyboard-response",412,344779,"0.0-3.133-2.133","wluc2hctgut2hlm",799,"162.csv","","null","resources/images/coin2.png","null","",NA,NA,NA,NA,""
"image-keyboard-response",413,345403,"0.0-3.134-0.134","wluc2hctgut2hlm",799,"162.csv","","622.5","resources/trios/L4T1A3.jpg","39","restless",0.6,0.5,0.4,0.364619043385044,"true"
"image-keyboard-response",414,345808,"0.0-3.134-1.134","wluc2hctgut2hlm",799,"162.csv","","null","resources/maskTrios/BBA3.jpg","null","",NA,NA,NA,NA,""
"image-keyboard-response",415,347014,"0.0-3.134-2.134","wluc2hctgut2hlm",799,"162.csv","","null","resources/images/coin2.png","null","",NA,NA,NA,NA,""
"image-keyboard-response",416,347396,"0.0-3.135-0.135","wluc2hctgut2hlm",799,"162.csv","","380.8000000715256","resources/trios/L2T1A1.jpg","39","restless",0.6,0.5,0.4,0.0344650433004203,"true"
"image-keyboard-response",417,347798,"0.0-3.135-1.135","wluc2hctgut2hlm",799,"162.csv","","null","resources/maskTrios/BBA1.jpg","null","",NA,NA,NA,NA,""
"image-keyboard-response",418,349003,"0.0-3.135-2.135","wluc2hctgut2hlm",799,"162.csv","","null","resources/images/coin2.png","null","",NA,NA,NA,NA,""
"image-keyboard-response",419,349362,"0.0-3.136-0.136","wluc2hctgut2hlm",799,"162.csv","","358","resources/trios/L2T1A3.jpg","37","restless",0.6,0.4,0.4,0.245545624247768,"true"
"image-keyboard-response",420,349765,"0.0-3.136-1.136","wluc2hctgut2hlm",799,"162.csv","","null","resources/maskTrios/L2BB.jpg","null","",NA,NA,NA,NA,""
"image-keyboard-response",421,350971,"0.0-3.136-2.136","wluc2hctgut2hlm",799,"162.csv","","null","resources/images/coin2.png","null","",NA,NA,NA,NA,""
"image-keyboard-response",422,351379,"0.0-3.137-0.137","wluc2hctgut2hlm",799,"162.csv","","406.89999997615814","resources/trios/L4T1A3.jpg","38","restless",0.6,0.4,0.4,0.125618368528862,"true"
"image-keyboard-response",423,351781,"0.0-3.137-1.137","wluc2hctgut2hlm",799,"162.csv","","null","resources/maskTrios/BT1B.jpg","null","",NA,NA,NA,NA,""
"image-keyboard-response",424,352987,"0.0-3.137-2.137","wluc2hctgut2hlm",799,"162.csv","","null","resources/images/coin2.png","null","",NA,NA,NA,NA,""
"image-keyboard-response",425,353313,"0.0-3.138-0.138","wluc2hctgut2hlm",799,"162.csv","","324.09999990463257","resources/trios/L2T4A3.jpg","38","restless",0.6,0.4,0.4,0.977721016986315,"false"
"image-keyboard-response",426,353717,"0.0-3.138-1.138","wluc2hctgut2hlm",799,"162.csv","","null","resources/maskTrios/BT4B.jpg","null","",NA,NA,NA,NA,""
"image-keyboard-response",427,354923,"0.0-3.138-2.138","wluc2hctgut2hlm",799,"162.csv","","null","resources/images/fishbone.png","null","",NA,NA,NA,NA,""
"image-keyboard-response",428,355230,"0.0-3.139-0.139","wluc2hctgut2hlm",799,"162.csv","","305.2999999523163","resources/trios/L4T4A1.jpg","39","restless",0.6,0.4,0.4,0.989207892988358,"false"
"image-keyboard-response",429,355632,"0.0-3.139-1.139","wluc2hctgut2hlm",799,"162.csv","","null","resources/maskTrios/BBA1.jpg","null","",NA,NA,NA,NA,""
"image-keyboard-response",430,356837,"0.0-3.139-2.139","wluc2hctgut2hlm",799,"162.csv","","null","resources/images/fishbone.png","null","",NA,NA,NA,NA,""
"image-keyboard-response",431,357198,"0.0-3.140-0.140","wluc2hctgut2hlm",799,"162.csv","","359.10000002384186","resources/trios/L4T4A1.jpg","37","restless",0.6,0.4,0.4,0.107112979180912,"true"
"image-keyboard-response",432,357600,"0.0-3.140-1.140","wluc2hctgut2hlm",799,"162.csv","","null","resources/maskTrios/L4BB.jpg","null","",NA,NA,NA,NA,""
"image-keyboard-response",433,358805,"0.0-3.140-2.140","wluc2hctgut2hlm",799,"162.csv","","null","resources/images/coin2.png","null","",NA,NA,NA,NA,""
"image-keyboard-response",434,359867,"0.0-3.141-0.141","wluc2hctgut2hlm",799,"162.csv","","1059.8000000715256","resources/trios/L2T1A1.jpg","37","restless",0.6,0.4,0.4,0.26658710071347,"true"
"image-keyboard-response",435,360272,"0.0-3.141-1.141","wluc2hctgut2hlm",799,"162.csv","","null","resources/maskTrios/L2BB.jpg","null","",NA,NA,NA,NA,""
"image-keyboard-response",436,361477,"0.0-3.141-2.141","wluc2hctgut2hlm",799,"162.csv","","null","resources/images/coin2.png","null","",NA,NA,NA,NA,""
"image-keyboard-response",437,361796,"0.0-3.142-0.142","wluc2hctgut2hlm",799,"162.csv","","317.3000000715256","resources/trios/L4T4A3.jpg","37","restless",0.6,0.4,0.4,0.954776849837665,"false"
"image-keyboard-response",438,362203,"0.0-3.142-1.142","wluc2hctgut2hlm",799,"162.csv","","null","resources/maskTrios/L4BB.jpg","null","",NA,NA,NA,NA,""
"image-keyboard-response",439,363408,"0.0-3.142-2.142","wluc2hctgut2hlm",799,"162.csv","","null","resources/images/fishbone.png","null","",NA,NA,NA,NA,""
"image-keyboard-response",440,364573,"0.0-3.143-0.143","wluc2hctgut2hlm",799,"162.csv","","1163.3000000715256","resources/trios/L2T1A1.jpg","38","restless",0.6,0.4,0.4,0.0523901096713935,"true"
"image-keyboard-response",441,364976,"0.0-3.143-1.143","wluc2hctgut2hlm",799,"162.csv","","null","resources/maskTrios/BT1B.jpg","null","",NA,NA,NA,NA,""
"image-keyboard-response",442,366181,"0.0-3.143-2.143","wluc2hctgut2hlm",799,"162.csv","","null","resources/images/coin2.png","null","",NA,NA,NA,NA,""
"image-keyboard-response",443,366565,"0.0-3.144-0.144","wluc2hctgut2hlm",799,"162.csv","","382.39999997615814","resources/trios/L2T4A3.jpg","38","restless",0.6,0.5,0.4,0.497662062828152,"true"
"image-keyboard-response",444,366971,"0.0-3.144-1.144","wluc2hctgut2hlm",799,"162.csv","","null","resources/maskTrios/BT4B.jpg","null","",NA,NA,NA,NA,""
"image-keyboard-response",445,368176,"0.0-3.144-2.144","wluc2hctgut2hlm",799,"162.csv","","null","resources/images/coin2.png","null","",NA,NA,NA,NA,""
"image-keyboard-response",446,368553,"0.0-3.145-0.145","wluc2hctgut2hlm",799,"162.csv","","375.1999999284744","resources/trios/L2T1A1.jpg","38","restless",0.7,0.6,0.4,0.0933725376711003,"true"
"image-keyboard-response",447,368955,"0.0-3.145-1.145","wluc2hctgut2hlm",799,"162.csv","","null","resources/maskTrios/BT1B.jpg","null","",NA,NA,NA,NA,""
"image-keyboard-response",448,370160,"0.0-3.145-2.145","wluc2hctgut2hlm",799,"162.csv","","null","resources/images/coin2.png","null","",NA,NA,NA,NA,""
"image-keyboard-response",449,370447,"0.0-3.146-0.146","wluc2hctgut2hlm",799,"162.csv","","284.39999997615814","resources/trios/L4T1A3.jpg","38","restless",0.7,0.6,0.5,0.219326432082678,"true"
"image-keyboard-response",450,370853,"0.0-3.146-1.146","wluc2hctgut2hlm",799,"162.csv","","null","resources/maskTrios/BT1B.jpg","null","",NA,NA,NA,NA,""
"image-keyboard-response",451,372059,"0.0-3.146-2.146","wluc2hctgut2hlm",799,"162.csv","","null","resources/images/coin2.png","null","",NA,NA,NA,NA,""
"image-keyboard-response",452,372127,"0.0-3.147-0.147","wluc2hctgut2hlm",799,"162.csv","","67.10000002384186","resources/trios/L2T4A3.jpg","38","restless",0.7,0.6,0.5,0.829318687641544,"false"
"image-keyboard-response",453,372533,"0.0-3.147-1.147","wluc2hctgut2hlm",799,"162.csv","","null","resources/maskTrios/BT4B.jpg","null","",NA,NA,NA,NA,""
"image-keyboard-response",454,373738,"0.0-3.147-2.147","wluc2hctgut2hlm",799,"162.csv","","null","resources/images/fishbone.png","null","",NA,NA,NA,NA,""
"image-keyboard-response",455,374136,"0.0-3.148-0.148","wluc2hctgut2hlm",799,"162.csv","","397.2000000476837","resources/trios/L2T4A1.jpg","37","restless",0.7,0.7,0.5,0.217592081528891,"true"
"image-keyboard-response",456,374539,"0.0-3.148-1.148","wluc2hctgut2hlm",799,"162.csv","","null","resources/maskTrios/L2BB.jpg","null","",NA,NA,NA,NA,""
"image-keyboard-response",457,375744,"0.0-3.148-2.148","wluc2hctgut2hlm",799,"162.csv","","null","resources/images/coin2.png","null","",NA,NA,NA,NA,""
"image-keyboard-response",458,376064,"0.0-3.149-0.149","wluc2hctgut2hlm",799,"162.csv","","318.40000009536743","resources/trios/L2T4A1.jpg","37","restless",0.7,0.7,0.5,0.632791774838446,"true"
"image-keyboard-response",459,376469,"0.0-3.149-1.149","wluc2hctgut2hlm",799,"162.csv","","null","resources/maskTrios/L2BB.jpg","null","",NA,NA,NA,NA,""
"image-keyboard-response",460,377675,"0.0-3.149-2.149","wluc2hctgut2hlm",799,"162.csv","","null","resources/images/coin2.png","null","",NA,NA,NA,NA,""
"image-keyboard-response",461,377966,"0.0-3.150-0.150","wluc2hctgut2hlm",799,"162.csv","","289.5","resources/trios/L2T4A3.jpg","37","restless",0.6,0.7,0.6,0.790642369435505,"false"
"image-keyboard-response",462,378368,"0.0-3.150-1.150","wluc2hctgut2hlm",799,"162.csv","","null","resources/maskTrios/L2BB.jpg","null","",NA,NA,NA,NA,""
"image-keyboard-response",463,379573,"0.0-3.150-2.150","wluc2hctgut2hlm",799,"162.csv","","null","resources/images/fishbone.png","null","",NA,NA,NA,NA,""
"image-keyboard-response",464,379882,"0.0-3.151-0.151","wluc2hctgut2hlm",799,"162.csv","","307.2000000476837","resources/trios/L2T4A1.jpg","38","restless",0.6,0.7,0.6,0.182983204641659,"true"
"image-keyboard-response",465,380288,"0.0-3.151-1.151","wluc2hctgut2hlm",799,"162.csv","","null","resources/maskTrios/BT4B.jpg","null","",NA,NA,NA,NA,""
"image-keyboard-response",466,381493,"0.0-3.151-2.151","wluc2hctgut2hlm",799,"162.csv","","null","resources/images/coin2.png","null","",NA,NA,NA,NA,""
"image-keyboard-response",467,381774,"0.0-3.152-0.152","wluc2hctgut2hlm",799,"162.csv","","278.89999997615814","resources/trios/L4T4A3.jpg","38","restless",0.6,0.7,0.6,0.6398851330265,"true"
"image-keyboard-response",468,382176,"0.0-3.152-1.152","wluc2hctgut2hlm",799,"162.csv","","null","resources/maskTrios/BT4B.jpg","null","",NA,NA,NA,NA,""
"image-keyboard-response",469,383381,"0.0-3.152-2.152","wluc2hctgut2hlm",799,"162.csv","","null","resources/images/coin2.png","null","",NA,NA,NA,NA,""
"image-keyboard-response",470,383641,"0.0-3.153-0.153","wluc2hctgut2hlm",799,"162.csv","","258.2000000476837","resources/trios/L2T1A3.jpg","38","restless",0.6,0.7,0.6,0.889342376737609,"false"
"image-keyboard-response",471,384043,"0.0-3.153-1.153","wluc2hctgut2hlm",799,"162.csv","","null","resources/maskTrios/BT1B.jpg","null","",NA,NA,NA,NA,""
"image-keyboard-response",472,385248,"0.0-3.153-2.153","wluc2hctgut2hlm",799,"162.csv","","null","resources/images/fishbone.png","null","",NA,NA,NA,NA,""
"image-keyboard-response",473,385551,"0.0-3.154-0.154","wluc2hctgut2hlm",799,"162.csv","","301.5","resources/trios/L4T1A1.jpg","39","restless",0.5,0.7,0.6,0.842867881687613,"false"
"image-keyboard-response",474,385957,"0.0-3.154-1.154","wluc2hctgut2hlm",799,"162.csv","","null","resources/maskTrios/BBA1.jpg","null","",NA,NA,NA,NA,""
"image-keyboard-response",475,387163,"0.0-3.154-2.154","wluc2hctgut2hlm",799,"162.csv","","null","resources/images/fishbone.png","null","",NA,NA,NA,NA,""
"image-keyboard-response",476,387486,"0.0-3.155-0.155","wluc2hctgut2hlm",799,"162.csv","","322","resources/trios/L4T4A3.jpg","37","restless",0.5,0.7,0.6,0.960651055162481,"false"
"image-keyboard-response",477,387888,"0.0-3.155-1.155","wluc2hctgut2hlm",799,"162.csv","","null","resources/maskTrios/L4BB.jpg","null","",NA,NA,NA,NA,""
"image-keyboard-response",478,389093,"0.0-3.155-2.155","wluc2hctgut2hlm",799,"162.csv","","null","resources/images/fishbone.png","null","",NA,NA,NA,NA,""
"image-keyboard-response",479,389426,"0.0-3.156-0.156","wluc2hctgut2hlm",799,"162.csv","","330.60000002384186","resources/trios/L4T4A1.jpg","38","restless",0.5,0.7,0.6,0.240873204656402,"true"
"image-keyboard-response",480,389829,"0.0-3.156-1.156","wluc2hctgut2hlm",799,"162.csv","","null","resources/maskTrios/BT4B.jpg","null","",NA,NA,NA,NA,""
"image-keyboard-response",481,391034,"0.0-3.156-2.156","wluc2hctgut2hlm",799,"162.csv","","null","resources/images/coin2.png","null","",NA,NA,NA,NA,""
"image-keyboard-response",482,391288,"0.0-3.157-0.157","wluc2hctgut2hlm",799,"162.csv","","251.89999997615814","resources/trios/L4T1A3.jpg","38","restless",0.5,0.7,0.5,0.706647008824978,"false"
"image-keyboard-response",483,391691,"0.0-3.157-1.157","wluc2hctgut2hlm",799,"162.csv","","null","resources/maskTrios/BT1B.jpg","null","",NA,NA,NA,NA,""
"image-keyboard-response",484,392896,"0.0-3.157-2.157","wluc2hctgut2hlm",799,"162.csv","","null","resources/images/fishbone.png","null","",NA,NA,NA,NA,""
"image-keyboard-response",485,393226,"0.0-3.158-0.158","wluc2hctgut2hlm",799,"162.csv","","328.6999999284744","resources/trios/L2T4A3.jpg","37","restless",0.5,0.8,0.5,0.377430240453957,"true"
"image-keyboard-response",486,393632,"0.0-3.158-1.158","wluc2hctgut2hlm",799,"162.csv","","null","resources/maskTrios/L2BB.jpg","null","",NA,NA,NA,NA,""
"image-keyboard-response",487,394837,"0.0-3.158-2.158","wluc2hctgut2hlm",799,"162.csv","","null","resources/images/coin2.png","null","",NA,NA,NA,NA,""
"image-keyboard-response",488,395180,"0.0-3.159-0.159","wluc2hctgut2hlm",799,"162.csv","","341.2999999523163","resources/trios/L2T1A3.jpg","37","restless",0.5,0.8,0.5,0.95993832708384,"false"
"image-keyboard-response",489,395584,"0.0-3.159-1.159","wluc2hctgut2hlm",799,"162.csv","","null","resources/maskTrios/L2BB.jpg","null","",NA,NA,NA,NA,""
"image-keyboard-response",490,396789,"0.0-3.159-2.159","wluc2hctgut2hlm",799,"162.csv","","null","resources/images/fishbone.png","null","",NA,NA,NA,NA,""
"image-keyboard-response",491,396971,"0.0-3.160-0.160","wluc2hctgut2hlm",799,"162.csv","","180.60000002384186","resources/trios/L4T1A1.jpg","38","restless",0.5,0.8,0.5,0.082510658209864,"true"
"image-keyboard-response",492,397376,"0.0-3.160-1.160","wluc2hctgut2hlm",799,"162.csv","","null","resources/maskTrios/BT1B.jpg","null","",NA,NA,NA,NA,""
"image-keyboard-response",493,398581,"0.0-3.160-2.160","wluc2hctgut2hlm",799,"162.csv","","null","resources/images/coin2.png","null","",NA,NA,NA,NA,""
"image-keyboard-response",494,399552,"0.0-3.161-0.161","wluc2hctgut2hlm",799,"162.csv","","968.9000000953674","resources/trios/L4T1A3.jpg","37","restless",0.5,0.8,0.5,0.626157519690949,"false"
"image-keyboard-response",495,399957,"0.0-3.161-1.161","wluc2hctgut2hlm",799,"162.csv","","null","resources/maskTrios/L4BB.jpg","null","",NA,NA,NA,NA,""
"image-keyboard-response",496,401162,"0.0-3.161-2.161","wluc2hctgut2hlm",799,"162.csv","","null","resources/images/fishbone.png","null","",NA,NA,NA,NA,""
"image-keyboard-response",497,401409,"0.0-3.162-0.162","wluc2hctgut2hlm",799,"162.csv","","245.39999997615814","resources/trios/L4T1A1.jpg","38","restless",0.5,0.8,0.5,0.729109461596567,"true"
"image-keyboard-response",498,401813,"0.0-3.162-1.162","wluc2hctgut2hlm",799,"162.csv","","null","resources/maskTrios/BT1B.jpg","null","",NA,NA,NA,NA,""
"image-keyboard-response",499,403018,"0.0-3.162-2.162","wluc2hctgut2hlm",799,"162.csv","","null","resources/images/coin2.png","null","",NA,NA,NA,NA,""
"image-keyboard-response",500,403657,"0.0-3.163-0.163","wluc2hctgut2hlm",799,"162.csv","","637.5","resources/trios/L2T4A1.jpg","38","restless",0.5,0.8,0.5,0.0574905970874353,"true"
"image-keyboard-response",501,404064,"0.0-3.163-1.163","wluc2hctgut2hlm",799,"162.csv","","null","resources/maskTrios/BT4B.jpg","null","",NA,NA,NA,NA,""
"image-keyboard-response",502,405269,"0.0-3.163-2.163","wluc2hctgut2hlm",799,"162.csv","","null","resources/images/coin2.png","null","",NA,NA,NA,NA,""
"image-keyboard-response",503,405667,"0.0-3.164-0.164","wluc2hctgut2hlm",799,"162.csv","","396.5","resources/trios/L2T4A3.jpg","37","restless",0.5,0.8,0.5,0.201899850489108,"true"
"image-keyboard-response",504,406069,"0.0-3.164-1.164","wluc2hctgut2hlm",799,"162.csv","","null","resources/maskTrios/L2BB.jpg","null","",NA,NA,NA,NA,""
"image-keyboard-response",505,407274,"0.0-3.164-2.164","wluc2hctgut2hlm",799,"162.csv","","null","resources/images/coin2.png","null","",NA,NA,NA,NA,""
"image-keyboard-response",506,407604,"0.0-3.165-0.165","wluc2hctgut2hlm",799,"162.csv","","328","resources/trios/L4T4A3.jpg","37","restless",0.5,0.8,0.5,0.245764505878253,"true"
"image-keyboard-response",507,408010,"0.0-3.165-1.165","wluc2hctgut2hlm",799,"162.csv","","null","resources/maskTrios/L4BB.jpg","null","",NA,NA,NA,NA,""
"image-keyboard-response",508,409215,"0.0-3.165-2.165","wluc2hctgut2hlm",799,"162.csv","","null","resources/images/coin2.png","null","",NA,NA,NA,NA,""
"image-keyboard-response",509,409544,"0.0-3.166-0.166","wluc2hctgut2hlm",799,"162.csv","","327","resources/trios/L4T1A1.jpg","38","restless",0.5,0.8,0.5,0.217513141221611,"true"
"image-keyboard-response",510,409946,"0.0-3.166-1.166","wluc2hctgut2hlm",799,"162.csv","","null","resources/maskTrios/BT1B.jpg","null","",NA,NA,NA,NA,""
"image-keyboard-response",511,411152,"0.0-3.166-2.166","wluc2hctgut2hlm",799,"162.csv","","null","resources/images/coin2.png","null","",NA,NA,NA,NA,""
"image-keyboard-response",512,411464,"0.0-3.167-0.167","wluc2hctgut2hlm",799,"162.csv","","311.10000002384186","resources/trios/L4T1A3.jpg","38","restless",0.4,0.8,0.4,0.024715590976389,"true"
"image-keyboard-response",513,411866,"0.0-3.167-1.167","wluc2hctgut2hlm",799,"162.csv","","null","resources/maskTrios/BT1B.jpg","null","",NA,NA,NA,NA,""
"image-keyboard-response",514,413072,"0.0-3.167-2.167","wluc2hctgut2hlm",799,"162.csv","","null","resources/images/coin2.png","null","",NA,NA,NA,NA,""
"image-keyboard-response",515,413370,"0.0-3.168-0.168","wluc2hctgut2hlm",799,"162.csv","","296.6999999284744","resources/trios/L4T1A1.jpg","38","restless",0.4,0.8,0.4,0.602802390606499,"true"
"image-keyboard-response",516,413776,"0.0-3.168-1.168","wluc2hctgut2hlm",799,"162.csv","","null","resources/maskTrios/BT1B.jpg","null","",NA,NA,NA,NA,""
"image-keyboard-response",517,414981,"0.0-3.168-2.168","wluc2hctgut2hlm",799,"162.csv","","null","resources/images/coin2.png","null","",NA,NA,NA,NA,""
"image-keyboard-response",518,415964,"0.0-3.169-0.169","wluc2hctgut2hlm",799,"162.csv","","981.3999999761581","resources/trios/L2T1A1.jpg","38","restless",0.4,0.8,0.4,0.230989728179629,"true"
"image-keyboard-response",519,416368,"0.0-3.169-1.169","wluc2hctgut2hlm",799,"162.csv","","null","resources/maskTrios/BT1B.jpg","null","",NA,NA,NA,NA,""
"image-keyboard-response",520,417573,"0.0-3.169-2.169","wluc2hctgut2hlm",799,"162.csv","","null","resources/images/coin2.png","null","",NA,NA,NA,NA,""
"image-keyboard-response",521,417963,"0.0-3.170-0.170","wluc2hctgut2hlm",799,"162.csv","","388.10000002384186","resources/trios/L2T4A3.jpg","37","restless",0.4,0.9,0.4,0.868758610657599,"false"
"image-keyboard-response",522,418368,"0.0-3.170-1.170","wluc2hctgut2hlm",799,"162.csv","","null","resources/maskTrios/L2BB.jpg","null","",NA,NA,NA,NA,""
"image-keyboard-response",523,419573,"0.0-3.170-2.170","wluc2hctgut2hlm",799,"162.csv","","null","resources/images/fishbone.png","null","",NA,NA,NA,NA,""
"image-keyboard-response",524,419868,"0.0-3.171-0.171","wluc2hctgut2hlm",799,"162.csv","","293.8000000715256","resources/trios/L2T4A3.jpg","38","restless",0.4,0.9,0.4,0.714935055256555,"true"
"image-keyboard-response",525,420272,"0.0-3.171-1.171","wluc2hctgut2hlm",799,"162.csv","","null","resources/maskTrios/BT4B.jpg","null","",NA,NA,NA,NA,""
"image-keyboard-response",526,421476,"0.0-3.171-2.171","wluc2hctgut2hlm",799,"162.csv","","null","resources/images/coin2.png","null","",NA,NA,NA,NA,""
"image-keyboard-response",527,421742,"0.0-3.172-0.172","wluc2hctgut2hlm",799,"162.csv","","264.89999997615814","resources/trios/L4T1A1.jpg","38","restless",0.4,0.9,0.4,0.603555243785471,"true"
"image-keyboard-response",528,422149,"0.0-3.172-1.172","wluc2hctgut2hlm",799,"162.csv","","null","resources/maskTrios/BT1B.jpg","null","",NA,NA,NA,NA,""
"image-keyboard-response",529,423354,"0.0-3.172-2.172","wluc2hctgut2hlm",799,"162.csv","","null","resources/images/coin2.png","null","",NA,NA,NA,NA,""
"image-keyboard-response",530,423675,"0.0-3.173-0.173","wluc2hctgut2hlm",799,"162.csv","","319.2000000476837","resources/trios/L4T1A1.jpg","38","restless",0.4,0.9,0.4,0.544337806163299,"true"
"image-keyboard-response",531,424080,"0.0-3.173-1.173","wluc2hctgut2hlm",799,"162.csv","","null","resources/maskTrios/BT1B.jpg","null","",NA,NA,NA,NA,""
"image-keyboard-response",532,425285,"0.0-3.173-2.173","wluc2hctgut2hlm",799,"162.csv","","null","resources/images/coin2.png","null","",NA,NA,NA,NA,""
"image-keyboard-response",533,425616,"0.0-3.174-0.174","wluc2hctgut2hlm",799,"162.csv","","329.8000000715256","resources/trios/L4T1A3.jpg","38","restless",0.4,0.9,0.4,0.133232942145065,"true"
"image-keyboard-response",534,426021,"0.0-3.174-1.174","wluc2hctgut2hlm",799,"162.csv","","null","resources/maskTrios/BT1B.jpg","null","",NA,NA,NA,NA,""
"image-keyboard-response",535,427226,"0.0-3.174-2.174","wluc2hctgut2hlm",799,"162.csv","","null","resources/images/coin2.png","null","",NA,NA,NA,NA,""
"image-keyboard-response",536,427514,"0.0-3.175-0.175","wluc2hctgut2hlm",799,"162.csv","","286.6999999284744","resources/trios/L4T4A3.jpg","38","restless",0.4,0.9,0.4,0.512809002677998,"true"
"image-keyboard-response",537,427917,"0.0-3.175-1.175","wluc2hctgut2hlm",799,"162.csv","","null","resources/maskTrios/BT4B.jpg","null","",NA,NA,NA,NA,""
"image-keyboard-response",538,429124,"0.0-3.175-2.175","wluc2hctgut2hlm",799,"162.csv","","null","resources/images/coin2.png","null","",NA,NA,NA,NA,""
"image-keyboard-response",539,429385,"0.0-3.176-0.176","wluc2hctgut2hlm",799,"162.csv","","260","resources/trios/L4T4A3.jpg","38","restless",0.4,0.9,0.4,0.506551385887985,"true"
"image-keyboard-response",540,429792,"0.0-3.176-1.176","wluc2hctgut2hlm",799,"162.csv","","null","resources/maskTrios/BT4B.jpg","null","",NA,NA,NA,NA,""
"image-keyboard-response",541,430997,"0.0-3.176-2.176","wluc2hctgut2hlm",799,"162.csv","","null","resources/images/coin2.png","null","",NA,NA,NA,NA,""
"image-keyboard-response",542,431170,"0.0-3.177-0.177","wluc2hctgut2hlm",799,"162.csv","","171.89999997615814","resources/trios/L2T4A1.jpg","38","restless",0.4,0.9,0.4,0.939908117701543,"false"
"image-keyboard-response",543,431573,"0.0-3.177-1.177","wluc2hctgut2hlm",799,"162.csv","","null","resources/maskTrios/BT4B.jpg","null","",NA,NA,NA,NA,""
"image-keyboard-response",544,432778,"0.0-3.177-2.177","wluc2hctgut2hlm",799,"162.csv","","null","resources/images/fishbone.png","null","",NA,NA,NA,NA,""
"image-keyboard-response",545,433700,"0.0-3.178-0.178","wluc2hctgut2hlm",799,"162.csv","","920","resources/trios/L2T4A3.jpg","37","restless",0.4,0.9,0.4,0.488395221765664,"false"
"image-keyboard-response",546,434106,"0.0-3.178-1.178","wluc2hctgut2hlm",799,"162.csv","","null","resources/maskTrios/L2BB.jpg","null","",NA,NA,NA,NA,""
"image-keyboard-response",547,435311,"0.0-3.178-2.178","wluc2hctgut2hlm",799,"162.csv","","null","resources/images/fishbone.png","null","",NA,NA,NA,NA,""
"image-keyboard-response",548,435528,"0.0-3.179-0.179","wluc2hctgut2hlm",799,"162.csv","","214.79999995231628","resources/trios/L2T4A1.jpg","39","restless",0.4,0.9,0.4,0.141924370255135,"true"
"image-keyboard-response",549,435930,"0.0-3.179-1.179","wluc2hctgut2hlm",799,"162.csv","","null","resources/maskTrios/BBA1.jpg","null","",NA,NA,NA,NA,""
"image-keyboard-response",550,437136,"0.0-3.179-2.179","wluc2hctgut2hlm",799,"162.csv","","null","resources/images/coin2.png","null","",NA,NA,NA,NA,""
"image-keyboard-response",551,437464,"0.0-3.180-0.180","wluc2hctgut2hlm",799,"162.csv","","326.5","resources/trios/L2T1A3.jpg","39","restless",0.4,0.9,0.4,0.40001138526506,"false"
"image-keyboard-response",552,437866,"0.0-3.180-1.180","wluc2hctgut2hlm",799,"162.csv","","null","resources/maskTrios/BBA3.jpg","null","",NA,NA,NA,NA,""
"image-keyboard-response",553,439071,"0.0-3.180-2.180","wluc2hctgut2hlm",799,"162.csv","","null","resources/images/fishbone.png","null","",NA,NA,NA,NA,""
"image-keyboard-response",554,439364,"0.0-3.181-0.181","wluc2hctgut2hlm",799,"162.csv","","291.2999999523163","resources/trios/L4T4A3.jpg","38","restless",0.4,0.9,0.4,0.205692095774827,"true"
"image-keyboard-response",555,439770,"0.0-3.181-1.181","wluc2hctgut2hlm",799,"162.csv","","null","resources/maskTrios/BT4B.jpg","null","",NA,NA,NA,NA,""
"image-keyboard-response",556,440975,"0.0-3.181-2.181","wluc2hctgut2hlm",799,"162.csv","","null","resources/images/coin2.png","null","",NA,NA,NA,NA,""
"image-keyboard-response",557,441283,"0.0-3.182-0.182","wluc2hctgut2hlm",799,"162.csv","","305.60000002384186","resources/trios/L4T4A3.jpg","38","restless",0.4,0.9,0.4,0.217186821075958,"true"
"image-keyboard-response",558,441685,"0.0-3.182-1.182","wluc2hctgut2hlm",799,"162.csv","","null","resources/maskTrios/BT4B.jpg","null","",NA,NA,NA,NA,""
"image-keyboard-response",559,442890,"0.0-3.182-2.182","wluc2hctgut2hlm",799,"162.csv","","null","resources/images/coin2.png","null","",NA,NA,NA,NA,""
"image-keyboard-response",560,443213,"0.0-3.183-0.183","wluc2hctgut2hlm",799,"162.csv","","321.59999990463257","resources/trios/L4T1A3.jpg","38","restless",0.3,0.9,0.4,0.694627028470258,"true"
"image-keyboard-response",561,443615,"0.0-3.183-1.183","wluc2hctgut2hlm",799,"162.csv","","null","resources/maskTrios/BT1B.jpg","null","",NA,NA,NA,NA,""
"image-keyboard-response",562,444821,"0.0-3.183-2.183","wluc2hctgut2hlm",799,"162.csv","","null","resources/images/coin2.png","null","",NA,NA,NA,NA,""
"image-keyboard-response",563,445409,"0.0-3.184-0.184","wluc2hctgut2hlm",799,"162.csv","","586.7999999523163","resources/trios/L4T4A3.jpg","38","restless",0.3,0.9,0.4,0.790735767060166,"true"
"image-keyboard-response",564,445815,"0.0-3.184-1.184","wluc2hctgut2hlm",799,"162.csv","","null","resources/maskTrios/BT4B.jpg","null","",NA,NA,NA,NA,""
"image-keyboard-response",565,447018,"0.0-3.184-2.184","wluc2hctgut2hlm",799,"162.csv","","null","resources/images/coin2.png","null","",NA,NA,NA,NA,""
"image-keyboard-response",566,448207,"0.0-3.185-0.185","wluc2hctgut2hlm",799,"162.csv","","1187.2999999523163","resources/trios/L2T1A3.jpg","38","restless",0.3,0.9,0.4,0.925323603176509,"false"
"image-keyboard-response",567,448613,"0.0-3.185-1.185","wluc2hctgut2hlm",799,"162.csv","","null","resources/maskTrios/BT1B.jpg","null","",NA,NA,NA,NA,""
"image-keyboard-response",568,449818,"0.0-3.185-2.185","wluc2hctgut2hlm",799,"162.csv","","null","resources/images/fishbone.png","null","",NA,NA,NA,NA,""
"image-keyboard-response",569,450463,"0.0-3.186-0.186","wluc2hctgut2hlm",799,"162.csv","","643.5999999046326","resources/trios/L2T4A3.jpg","38","restless",0.3,0.9,0.4,0.182678263529345,"true"
"image-keyboard-response",570,450868,"0.0-3.186-1.186","wluc2hctgut2hlm",799,"162.csv","","null","resources/maskTrios/BT4B.jpg","null","",NA,NA,NA,NA,""
"image-keyboard-response",571,452074,"0.0-3.186-2.186","wluc2hctgut2hlm",799,"162.csv","","null","resources/images/coin2.png","null","",NA,NA,NA,NA,""
"image-keyboard-response",572,452622,"0.0-3.187-0.187","wluc2hctgut2hlm",799,"162.csv","","546.3000000715256","resources/trios/L4T4A1.jpg","38","restless",0.3,0.9,0.4,0.594544242637079,"true"
"image-keyboard-response",573,453026,"0.0-3.187-1.187","wluc2hctgut2hlm",799,"162.csv","","null","resources/maskTrios/BT4B.jpg","null","",NA,NA,NA,NA,""
"image-keyboard-response",574,454229,"0.0-3.187-2.187","wluc2hctgut2hlm",799,"162.csv","","null","resources/images/coin2.png","null","",NA,NA,NA,NA,""
"image-keyboard-response",575,455803,"0.0-3.188-0.188","wluc2hctgut2hlm",799,"162.csv","","1572.3999999761581","resources/trios/L2T1A1.jpg","39","restless",0.3,0.8,0.4,0.916702332470957,"false"
"image-keyboard-response",576,456207,"0.0-3.188-1.188","wluc2hctgut2hlm",799,"162.csv","","null","resources/maskTrios/BBA1.jpg","null","",NA,NA,NA,NA,""
"image-keyboard-response",577,457412,"0.0-3.188-2.188","wluc2hctgut2hlm",799,"162.csv","","null","resources/images/fishbone.png","null","",NA,NA,NA,NA,""
"image-keyboard-response",578,458068,"0.0-3.189-0.189","wluc2hctgut2hlm",799,"162.csv","","654.1000000238419","resources/trios/L2T1A3.jpg","38","restless",0.3,0.8,0.4,0.846317039803304,"false"
"image-keyboard-response",579,458474,"0.0-3.189-1.189","wluc2hctgut2hlm",799,"162.csv","","null","resources/maskTrios/BT1B.jpg","null","",NA,NA,NA,NA,""
"image-keyboard-response",580,459679,"0.0-3.189-2.189","wluc2hctgut2hlm",799,"162.csv","","null","resources/images/fishbone.png","null","",NA,NA,NA,NA,""
"image-keyboard-response",581,460243,"0.0-3.190-0.190","wluc2hctgut2hlm",799,"162.csv","","562.3000000715256","resources/trios/L4T4A1.jpg","37","restless",0.3,0.8,0.4,0.810554764075383,"false"
"image-keyboard-response",582,460644,"0.0-3.190-1.190","wluc2hctgut2hlm",799,"162.csv","","null","resources/maskTrios/L4BB.jpg","null","",NA,NA,NA,NA,""
"image-keyboard-response",583,461850,"0.0-3.190-2.190","wluc2hctgut2hlm",799,"162.csv","","null","resources/images/fishbone.png","null","",NA,NA,NA,NA,""
"image-keyboard-response",584,462150,"0.0-3.191-0.191","wluc2hctgut2hlm",799,"162.csv","","298.5","resources/trios/L4T4A1.jpg","39","restless",0.3,0.8,0.4,0.934340121833619,"false"
"image-keyboard-response",585,462554,"0.0-3.191-1.191","wluc2hctgut2hlm",799,"162.csv","","null","resources/maskTrios/BBA1.jpg","null","",NA,NA,NA,NA,""
"image-keyboard-response",586,463759,"0.0-3.191-2.191","wluc2hctgut2hlm",799,"162.csv","","null","resources/images/fishbone.png","null","",NA,NA,NA,NA,""
"image-keyboard-response",587,464318,"0.0-3.192-0.192","wluc2hctgut2hlm",799,"162.csv","","556.7999999523163","resources/trios/L4T4A3.jpg","38","restless",0.2,0.8,0.4,0.133787973964347,"true"
"image-keyboard-response",588,464719,"0.0-3.192-1.192","wluc2hctgut2hlm",799,"162.csv","","null","resources/maskTrios/BT4B.jpg","null","",NA,NA,NA,NA,""
"image-keyboard-response",589,465925,"0.0-3.192-2.192","wluc2hctgut2hlm",799,"162.csv","","null","resources/images/coin2.png","null","",NA,NA,NA,NA,""
"image-keyboard-response",590,466262,"0.0-3.193-0.193","wluc2hctgut2hlm",799,"162.csv","","335.7000000476837","resources/trios/L2T1A3.jpg","38","restless",0.3,0.8,0.3,0.497477836661341,"true"
"image-keyboard-response",591,466666,"0.0-3.193-1.193","wluc2hctgut2hlm",799,"162.csv","","null","resources/maskTrios/BT1B.jpg","null","",NA,NA,NA,NA,""
"image-keyboard-response",592,467871,"0.0-3.193-2.193","wluc2hctgut2hlm",799,"162.csv","","null","resources/images/coin2.png","null","",NA,NA,NA,NA,""
"image-keyboard-response",593,468255,"0.0-3.194-0.194","wluc2hctgut2hlm",799,"162.csv","","382.2999999523163","resources/trios/L4T1A3.jpg","38","restless",0.3,0.8,0.3,0.238285435814406,"true"
"image-keyboard-response",594,468661,"0.0-3.194-1.194","wluc2hctgut2hlm",799,"162.csv","","null","resources/maskTrios/BT1B.jpg","null","",NA,NA,NA,NA,""
"image-keyboard-response",595,469866,"0.0-3.194-2.194","wluc2hctgut2hlm",799,"162.csv","","null","resources/images/coin2.png","null","",NA,NA,NA,NA,""
"image-keyboard-response",596,470169,"0.0-3.195-0.195","wluc2hctgut2hlm",799,"162.csv","","301.39999997615814","resources/trios/L4T4A1.jpg","38","restless",0.3,0.8,0.3,0.254484453476208,"true"
"image-keyboard-response",597,470575,"0.0-3.195-1.195","wluc2hctgut2hlm",799,"162.csv","","null","resources/maskTrios/BT4B.jpg","null","",NA,NA,NA,NA,""
"image-keyboard-response",598,471781,"0.0-3.195-2.195","wluc2hctgut2hlm",799,"162.csv","","null","resources/images/coin2.png","null","",NA,NA,NA,NA,""
"image-keyboard-response",599,472115,"0.0-3.196-0.196","wluc2hctgut2hlm",799,"162.csv","","332.60000002384186","resources/trios/L2T4A1.jpg","38","restless",0.4,0.8,0.3,0.142374970443774,"true"
"image-keyboard-response",600,472517,"0.0-3.196-1.196","wluc2hctgut2hlm",799,"162.csv","","null","resources/maskTrios/BT4B.jpg","null","",NA,NA,NA,NA,""
"image-keyboard-response",601,473722,"0.0-3.196-2.196","wluc2hctgut2hlm",799,"162.csv","","null","resources/images/coin2.png","null","",NA,NA,NA,NA,""
"image-keyboard-response",602,473980,"0.0-3.197-0.197","wluc2hctgut2hlm",799,"162.csv","","256.59999990463257","resources/trios/L4T4A3.jpg","38","restless",0.4,0.8,0.3,0.0331558201520477,"true"
"image-keyboard-response",603,474383,"0.0-3.197-1.197","wluc2hctgut2hlm",799,"162.csv","","null","resources/maskTrios/BT4B.jpg","null","",NA,NA,NA,NA,""
"image-keyboard-response",604,475588,"0.0-3.197-2.197","wluc2hctgut2hlm",799,"162.csv","","null","resources/images/coin2.png","null","",NA,NA,NA,NA,""
"image-keyboard-response",605,475909,"0.0-3.198-0.198","wluc2hctgut2hlm",799,"162.csv","","318.7000000476837","resources/trios/L2T4A3.jpg","38","restless",0.3,0.8,0.4,0.556031227502346,"true"
"image-keyboard-response",606,476314,"0.0-3.198-1.198","wluc2hctgut2hlm",799,"162.csv","","null","resources/maskTrios/BT4B.jpg","null","",NA,NA,NA,NA,""
