"trial_type","trial_index","time_elapsed","internal_node_id","subject","participantCode","walkNumber","success","rt","stimulus","key_press","test_part","leftProb","midProb","rightProb","generatedNum","correct"
"pavlovia",0,952,"0.0-0.0","r3a8kd6jh5ne2a8",446,"40.csv","","","","","",NA,NA,NA,NA,""
"fullscreen",1,4635,"0.0-1.0","r3a8kd6jh5ne2a8",446,"40.csv","true","","","","",NA,NA,NA,NA,""
"html-keyboard-response",2,8907,"0.0-2.0-0.0","r3a8kd6jh5ne2a8",446,"40.csv","","4270.300000011921","<p><font size='6'>Arrrgh!</p></font><p>Can you be the best pirate? Try to find lots of gold! But beware, some islands have more gold than others, and over time, the island with the most gold may change. Can YOU figure it out? </p><font size='6'>GOOD LUCK, CAPTAIN!!!</font><p>Press any key to begin</p>","32","",NA,NA,NA,NA,""
"image-keyboard-response",3,11912,"0.0-2.0-1.0","r3a8kd6jh5ne2a8",446,"40.csv","","null","resources/image_sets/111.png","null","",NA,NA,NA,NA,""
"image-keyboard-response",4,19084,"0.0-2.0-2.0","r3a8kd6jh5ne2a8",446,"40.csv","","7170","resources/image_sets/left_highlight.png","37","",NA,NA,NA,NA,""
"image-keyboard-response",5,23035,"0.0-2.0-3.0","r3a8kd6jh5ne2a8",446,"40.csv","","3950.0999999940395","resources/image_sets/mid_highlight.png","38","",NA,NA,NA,NA,""
"image-keyboard-response",6,24799,"0.0-2.0-4.0","r3a8kd6jh5ne2a8",446,"40.csv","","1761.9000000059605","resources/image_sets/right_highlight.png","39","",NA,NA,NA,NA,""
"image-keyboard-response",7,26583,"0.0-2.0-5.0","r3a8kd6jh5ne2a8",446,"40.csv","","1782.800000011921","resources/image_sets/111.png","13","",NA,NA,NA,NA,""
"image-keyboard-response",8,33846,"0.0-2.0-6.0","r3a8kd6jh5ne2a8",446,"40.csv","","7261.5999999940395","resources/images/coin2.png","13","",NA,NA,NA,NA,""
"image-keyboard-response",9,37161,"0.0-2.0-7.0","r3a8kd6jh5ne2a8",446,"40.csv","","3313.199999988079","resources/images/fishbone.png","13","",NA,NA,NA,NA,""
"html-keyboard-response",10,42259,"0.0-2.0-8.0","r3a8kd6jh5ne2a8",446,"40.csv","","5096.0999999940395","<p>Your first journey will be a long one, but you will get a well deserved break at the end</p><p>After the break you will have four more journeys, but each will be much shorter than the first, and you will have breaks in between each</p><p>Press Enter to begin</p>","13","",NA,NA,NA,NA,""
"image-keyboard-response",11,46817,"0.0-3.0-0.0","r3a8kd6jh5ne2a8",446,"40.csv","","4553.4000000059605","resources/trios/L2T1A3.jpg","38","restless",0.7,0.3,0.9,0.557577662344032,"false"
"image-keyboard-response",12,47224,"0.0-3.0-1.0","r3a8kd6jh5ne2a8",446,"40.csv","","null","resources/maskTrios/BT1B.jpg","null","",NA,NA,NA,NA,""
"image-keyboard-response",13,48432,"0.0-3.0-2.0","r3a8kd6jh5ne2a8",446,"40.csv","","null","resources/images/fishbone.png","null","",NA,NA,NA,NA,""
"image-keyboard-response",14,50882,"0.0-3.1-0.1","r3a8kd6jh5ne2a8",446,"40.csv","","2447.2999999821186","resources/trios/L2T1A3.jpg","37","restless",0.7,0.3,0.9,0.824656437192306,"false"
"image-keyboard-response",15,51287,"0.0-3.1-1.1","r3a8kd6jh5ne2a8",446,"40.csv","","null","resources/maskTrios/L2BB.jpg","null","",NA,NA,NA,NA,""
"image-keyboard-response",16,52494,"0.0-3.1-2.1","r3a8kd6jh5ne2a8",446,"40.csv","","null","resources/images/fishbone.png","null","",NA,NA,NA,NA,""
"image-keyboard-response",17,53222,"0.0-3.2-0.2","r3a8kd6jh5ne2a8",446,"40.csv","","724.5999999940395","resources/trios/L2T1A3.jpg","39","restless",0.7,0.3,0.8,0.330945415871298,"true"
"image-keyboard-response",18,53629,"0.0-3.2-1.2","r3a8kd6jh5ne2a8",446,"40.csv","","null","resources/maskTrios/BBA3.jpg","null","",NA,NA,NA,NA,""
"image-keyboard-response",19,54837,"0.0-3.2-2.2","r3a8kd6jh5ne2a8",446,"40.csv","","null","resources/images/coin2.png","null","",NA,NA,NA,NA,""
"image-keyboard-response",20,57304,"0.0-3.3-0.3","r3a8kd6jh5ne2a8",446,"40.csv","","2464.9000000059605","resources/trios/L2T2A2.jpg","37","restless",0.7,0.3,0.8,0.449213090306332,"true"
"image-keyboard-response",21,57712,"0.0-3.3-1.3","r3a8kd6jh5ne2a8",446,"40.csv","","null","resources/maskTrios/L2BB.jpg","null","",NA,NA,NA,NA,""
"image-keyboard-response",22,58919,"0.0-3.3-2.3","r3a8kd6jh5ne2a8",446,"40.csv","","null","resources/images/coin2.png","null","",NA,NA,NA,NA,""
"image-keyboard-response",23,59650,"0.0-3.4-0.4","r3a8kd6jh5ne2a8",446,"40.csv","","728.5999999940395","resources/trios/L1T1A3.jpg","38","restless",0.8,0.4,0.8,0.922595122605701,"false"
"image-keyboard-response",24,60057,"0.0-3.4-1.4","r3a8kd6jh5ne2a8",446,"40.csv","","null","resources/maskTrios/BT1B.jpg","null","",NA,NA,NA,NA,""
"image-keyboard-response",25,61263,"0.0-3.4-2.4","r3a8kd6jh5ne2a8",446,"40.csv","","null","resources/images/fishbone.png","null","",NA,NA,NA,NA,""
"image-keyboard-response",26,61834,"0.0-3.5-0.5","r3a8kd6jh5ne2a8",446,"40.csv","","569.2999999821186","resources/trios/L2T1A3.jpg","37","restless",0.8,0.3,0.8,0.447555334851836,"true"
"image-keyboard-response",27,62242,"0.0-3.5-1.5","r3a8kd6jh5ne2a8",446,"40.csv","","null","resources/maskTrios/L2BB.jpg","null","",NA,NA,NA,NA,""
"image-keyboard-response",28,63449,"0.0-3.5-2.5","r3a8kd6jh5ne2a8",446,"40.csv","","null","resources/images/coin2.png","null","",NA,NA,NA,NA,""
"image-keyboard-response",29,65112,"0.0-3.6-0.6","r3a8kd6jh5ne2a8",446,"40.csv","","1660.5","resources/trios/L1T1A3.jpg","38","restless",0.8,0.3,0.8,0.596885405888543,"false"
"image-keyboard-response",30,65519,"0.0-3.6-1.6","r3a8kd6jh5ne2a8",446,"40.csv","","null","resources/maskTrios/BT1B.jpg","null","",NA,NA,NA,NA,""
"image-keyboard-response",31,66726,"0.0-3.6-2.6","r3a8kd6jh5ne2a8",446,"40.csv","","null","resources/images/fishbone.png","null","",NA,NA,NA,NA,""
"image-keyboard-response",32,67361,"0.0-3.7-0.7","r3a8kd6jh5ne2a8",446,"40.csv","","632.0999999940395","resources/trios/L1T2A3.jpg","37","restless",0.8,0.3,0.8,0.731228964496574,"true"
"image-keyboard-response",33,67768,"0.0-3.7-1.7","r3a8kd6jh5ne2a8",446,"40.csv","","null","resources/maskTrios/L1BB.jpg","null","",NA,NA,NA,NA,""
"image-keyboard-response",34,68975,"0.0-3.7-2.7","r3a8kd6jh5ne2a8",446,"40.csv","","null","resources/images/coin2.png","null","",NA,NA,NA,NA,""
"image-keyboard-response",35,70082,"0.0-3.8-0.8","r3a8kd6jh5ne2a8",446,"40.csv","","1104.7000000178814","resources/trios/L2T2A3.jpg","37","restless",0.8,0.3,0.7,0.578552212716285,"true"
"image-keyboard-response",36,70485,"0.0-3.8-1.8","r3a8kd6jh5ne2a8",446,"40.csv","","null","resources/maskTrios/L2BB.jpg","null","",NA,NA,NA,NA,""
"image-keyboard-response",37,71692,"0.0-3.8-2.8","r3a8kd6jh5ne2a8",446,"40.csv","","null","resources/images/coin2.png","null","",NA,NA,NA,NA,""
"image-keyboard-response",38,72350,"0.0-3.9-0.9","r3a8kd6jh5ne2a8",446,"40.csv","","655.5999999940395","resources/trios/L2T2A3.jpg","37","restless",0.8,0.3,0.7,0.256229555670844,"true"
"image-keyboard-response",39,72757,"0.0-3.9-1.9","r3a8kd6jh5ne2a8",446,"40.csv","","null","resources/maskTrios/L2BB.jpg","null","",NA,NA,NA,NA,""
"image-keyboard-response",40,73964,"0.0-3.9-2.9","r3a8kd6jh5ne2a8",446,"40.csv","","null","resources/images/coin2.png","null","",NA,NA,NA,NA,""
"image-keyboard-response",41,74381,"0.0-3.10-0.10","r3a8kd6jh5ne2a8",446,"40.csv","","414.2000000178814","resources/trios/L1T2A3.jpg","37","restless",0.9,0.3,0.7,0.889514759692213,"true"
"image-keyboard-response",42,74788,"0.0-3.10-1.10","r3a8kd6jh5ne2a8",446,"40.csv","","null","resources/maskTrios/L1BB.jpg","null","",NA,NA,NA,NA,""
"image-keyboard-response",43,75995,"0.0-3.10-2.10","r3a8kd6jh5ne2a8",446,"40.csv","","null","resources/images/coin2.png","null","",NA,NA,NA,NA,""
"image-keyboard-response",44,76399,"0.0-3.11-0.11","r3a8kd6jh5ne2a8",446,"40.csv","","401.69999998807907","resources/trios/L2T2A3.jpg","37","restless",0.9,0.3,0.7,0.352972415992903,"true"
"image-keyboard-response",45,76806,"0.0-3.11-1.11","r3a8kd6jh5ne2a8",446,"40.csv","","null","resources/maskTrios/L2BB.jpg","null","",NA,NA,NA,NA,""
"image-keyboard-response",46,78014,"0.0-3.11-2.11","r3a8kd6jh5ne2a8",446,"40.csv","","null","resources/images/coin2.png","null","",NA,NA,NA,NA,""
"image-keyboard-response",47,78410,"0.0-3.12-0.12","r3a8kd6jh5ne2a8",446,"40.csv","","394.69999998807907","resources/trios/L1T2A3.jpg","37","restless",0.9,0.3,0.7,0.995515541367942,"false"
"image-keyboard-response",48,78812,"0.0-3.12-1.12","r3a8kd6jh5ne2a8",446,"40.csv","","null","resources/maskTrios/L1BB.jpg","null","",NA,NA,NA,NA,""
"image-keyboard-response",49,80016,"0.0-3.12-2.12","r3a8kd6jh5ne2a8",446,"40.csv","","null","resources/images/fishbone.png","null","",NA,NA,NA,NA,""
"image-keyboard-response",50,80498,"0.0-3.13-0.13","r3a8kd6jh5ne2a8",446,"40.csv","","479.5","resources/trios/L1T1A2.jpg","39","restless",0.9,0.3,0.7,0.978315410675535,"false"
"image-keyboard-response",51,80904,"0.0-3.13-1.13","r3a8kd6jh5ne2a8",446,"40.csv","","null","resources/maskTrios/BBA2.jpg","null","",NA,NA,NA,NA,""
"image-keyboard-response",52,82107,"0.0-3.13-2.13","r3a8kd6jh5ne2a8",446,"40.csv","","null","resources/images/fishbone.png","null","",NA,NA,NA,NA,""
"image-keyboard-response",53,82701,"0.0-3.14-0.14","r3a8kd6jh5ne2a8",446,"40.csv","","591.5999999940395","resources/trios/L2T2A3.jpg","38","restless",0.8,0.3,0.7,0.889008465580256,"false"
"image-keyboard-response",54,83107,"0.0-3.14-1.14","r3a8kd6jh5ne2a8",446,"40.csv","","null","resources/maskTrios/BT2B.jpg","null","",NA,NA,NA,NA,""
"image-keyboard-response",55,84314,"0.0-3.14-2.14","r3a8kd6jh5ne2a8",446,"40.csv","","null","resources/images/fishbone.png","null","",NA,NA,NA,NA,""
"image-keyboard-response",56,84716,"0.0-3.15-0.15","r3a8kd6jh5ne2a8",446,"40.csv","","400.59999999403954","resources/trios/L1T1A2.jpg","37","restless",0.8,0.3,0.7,0.125864352257632,"true"
"image-keyboard-response",57,85123,"0.0-3.15-1.15","r3a8kd6jh5ne2a8",446,"40.csv","","null","resources/maskTrios/L1BB.jpg","null","",NA,NA,NA,NA,""
"image-keyboard-response",58,86330,"0.0-3.15-2.15","r3a8kd6jh5ne2a8",446,"40.csv","","null","resources/images/coin2.png","null","",NA,NA,NA,NA,""
"image-keyboard-response",59,86812,"0.0-3.16-0.16","r3a8kd6jh5ne2a8",446,"40.csv","","480.40000000596046","resources/trios/L1T2A3.jpg","37","restless",0.8,0.2,0.7,0.607947314557429,"true"
"image-keyboard-response",60,87215,"0.0-3.16-1.16","r3a8kd6jh5ne2a8",446,"40.csv","","null","resources/maskTrios/L1BB.jpg","null","",NA,NA,NA,NA,""
"image-keyboard-response",61,88418,"0.0-3.16-2.16","r3a8kd6jh5ne2a8",446,"40.csv","","null","resources/images/coin2.png","null","",NA,NA,NA,NA,""
"image-keyboard-response",62,89152,"0.0-3.17-0.17","r3a8kd6jh5ne2a8",446,"40.csv","","732","resources/trios/L2T1A3.jpg","37","restless",0.8,0.2,0.7,0.672637579276762,"true"
"image-keyboard-response",63,89558,"0.0-3.17-1.17","r3a8kd6jh5ne2a8",446,"40.csv","","null","resources/maskTrios/L2BB.jpg","null","",NA,NA,NA,NA,""
"image-keyboard-response",64,90765,"0.0-3.17-2.17","r3a8kd6jh5ne2a8",446,"40.csv","","null","resources/images/coin2.png","null","",NA,NA,NA,NA,""
"image-keyboard-response",65,91136,"0.0-3.18-0.18","r3a8kd6jh5ne2a8",446,"40.csv","","368.40000000596046","resources/trios/L2T1A3.jpg","37","restless",0.8,0.2,0.7,0.111335811725465,"true"
"image-keyboard-response",66,91543,"0.0-3.18-1.18","r3a8kd6jh5ne2a8",446,"40.csv","","null","resources/maskTrios/L2BB.jpg","null","",NA,NA,NA,NA,""
"image-keyboard-response",67,92750,"0.0-3.18-2.18","r3a8kd6jh5ne2a8",446,"40.csv","","null","resources/images/coin2.png","null","",NA,NA,NA,NA,""
"image-keyboard-response",68,94141,"0.0-3.19-0.19","r3a8kd6jh5ne2a8",446,"40.csv","","1389.4000000059605","resources/trios/L1T2A2.jpg","37","restless",0.8,0.2,0.7,0.64861780446689,"true"
"image-keyboard-response",69,94549,"0.0-3.19-1.19","r3a8kd6jh5ne2a8",446,"40.csv","","null","resources/maskTrios/L1BB.jpg","null","",NA,NA,NA,NA,""
"image-keyboard-response",70,95753,"0.0-3.19-2.19","r3a8kd6jh5ne2a8",446,"40.csv","","null","resources/images/coin2.png","null","",NA,NA,NA,NA,""
"image-keyboard-response",71,96147,"0.0-3.20-0.20","r3a8kd6jh5ne2a8",446,"40.csv","","391.5","resources/trios/L2T1A2.jpg","37","restless",0.8,0.1,0.7,0.577694618333393,"true"
"image-keyboard-response",72,96554,"0.0-3.20-1.20","r3a8kd6jh5ne2a8",446,"40.csv","","null","resources/maskTrios/L2BB.jpg","null","",NA,NA,NA,NA,""
"image-keyboard-response",73,97761,"0.0-3.20-2.20","r3a8kd6jh5ne2a8",446,"40.csv","","null","resources/images/coin2.png","null","",NA,NA,NA,NA,""
"image-keyboard-response",74,98110,"0.0-3.21-0.21","r3a8kd6jh5ne2a8",446,"40.csv","","346.19999998807907","resources/trios/L2T1A2.jpg","37","restless",0.8,0.1,0.7,0.0477104754500621,"true"
"image-keyboard-response",75,98514,"0.0-3.21-1.21","r3a8kd6jh5ne2a8",446,"40.csv","","null","resources/maskTrios/L2BB.jpg","null","",NA,NA,NA,NA,""
"image-keyboard-response",76,99717,"0.0-3.21-2.21","r3a8kd6jh5ne2a8",446,"40.csv","","null","resources/images/coin2.png","null","",NA,NA,NA,NA,""
"image-keyboard-response",77,102000,"0.0-3.22-0.22","r3a8kd6jh5ne2a8",446,"40.csv","","2280.9000000059605","resources/trios/L1T2A2.jpg","37","restless",0.8,0.1,0.7,0.453533453296861,"true"
"image-keyboard-response",78,102406,"0.0-3.22-1.22","r3a8kd6jh5ne2a8",446,"40.csv","","null","resources/maskTrios/L1BB.jpg","null","",NA,NA,NA,NA,""
"image-keyboard-response",79,103613,"0.0-3.22-2.22","r3a8kd6jh5ne2a8",446,"40.csv","","null","resources/images/coin2.png","null","",NA,NA,NA,NA,""
"image-keyboard-response",80,104074,"0.0-3.23-0.23","r3a8kd6jh5ne2a8",446,"40.csv","","458.7999999821186","resources/trios/L2T1A2.jpg","37","restless",0.8,0.1,0.7,0.184381802828158,"true"
"image-keyboard-response",81,104482,"0.0-3.23-1.23","r3a8kd6jh5ne2a8",446,"40.csv","","null","resources/maskTrios/L2BB.jpg","null","",NA,NA,NA,NA,""
"image-keyboard-response",82,105689,"0.0-3.23-2.23","r3a8kd6jh5ne2a8",446,"40.csv","","null","resources/images/coin2.png","null","",NA,NA,NA,NA,""
"image-keyboard-response",83,105805,"0.0-3.24-0.24","r3a8kd6jh5ne2a8",446,"40.csv","","113.59999999403954","resources/trios/L2T1A3.jpg","37","restless",0.8,0.1,0.7,0.252276267509273,"true"
"image-keyboard-response",84,106211,"0.0-3.24-1.24","r3a8kd6jh5ne2a8",446,"40.csv","","null","resources/maskTrios/L2BB.jpg","null","",NA,NA,NA,NA,""
"image-keyboard-response",85,107418,"0.0-3.24-2.24","r3a8kd6jh5ne2a8",446,"40.csv","","null","resources/images/coin2.png","null","",NA,NA,NA,NA,""
"image-keyboard-response",86,107567,"0.0-3.25-0.25","r3a8kd6jh5ne2a8",446,"40.csv","","146.59999999403954","resources/trios/L2T1A3.jpg","37","restless",0.8,0.1,0.7,0.0594725131901415,"true"
"image-keyboard-response",87,107973,"0.0-3.25-1.25","r3a8kd6jh5ne2a8",446,"40.csv","","null","resources/maskTrios/L2BB.jpg","null","",NA,NA,NA,NA,""
"image-keyboard-response",88,109180,"0.0-3.25-2.25","r3a8kd6jh5ne2a8",446,"40.csv","","null","resources/images/coin2.png","null","",NA,NA,NA,NA,""
"image-keyboard-response",89,110104,"0.0-3.26-0.26","r3a8kd6jh5ne2a8",446,"40.csv","","921.3000000119209","resources/trios/L2T2A3.jpg","37","restless",0.8,0.1,0.7,0.257825714314037,"true"
"image-keyboard-response",90,110511,"0.0-3.26-1.26","r3a8kd6jh5ne2a8",446,"40.csv","","null","resources/maskTrios/L2BB.jpg","null","",NA,NA,NA,NA,""
"image-keyboard-response",91,111718,"0.0-3.26-2.26","r3a8kd6jh5ne2a8",446,"40.csv","","null","resources/images/coin2.png","null","",NA,NA,NA,NA,""
"image-keyboard-response",92,112090,"0.0-3.27-0.27","r3a8kd6jh5ne2a8",446,"40.csv","","369.5","resources/trios/L2T1A3.jpg","37","restless",0.8,0.1,0.8,0.730942752296032,"true"
"image-keyboard-response",93,112494,"0.0-3.27-1.27","r3a8kd6jh5ne2a8",446,"40.csv","","null","resources/maskTrios/L2BB.jpg","null","",NA,NA,NA,NA,""
"image-keyboard-response",94,113701,"0.0-3.27-2.27","r3a8kd6jh5ne2a8",446,"40.csv","","null","resources/images/coin2.png","null","",NA,NA,NA,NA,""
"image-keyboard-response",95,114346,"0.0-3.28-0.28","r3a8kd6jh5ne2a8",446,"40.csv","","642.6999999880791","resources/trios/L1T2A3.jpg","37","restless",0.8,0.1,0.8,0.452650052786806,"true"
"image-keyboard-response",96,114753,"0.0-3.28-1.28","r3a8kd6jh5ne2a8",446,"40.csv","","null","resources/maskTrios/L1BB.jpg","null","",NA,NA,NA,NA,""
"image-keyboard-response",97,115960,"0.0-3.28-2.28","r3a8kd6jh5ne2a8",446,"40.csv","","null","resources/images/coin2.png","null","",NA,NA,NA,NA,""
"image-keyboard-response",98,116372,"0.0-3.29-0.29","r3a8kd6jh5ne2a8",446,"40.csv","","409.7999999821186","resources/trios/L2T2A3.jpg","37","restless",0.7,0.2,0.8,0.790780922170646,"false"
"image-keyboard-response",99,116779,"0.0-3.29-1.29","r3a8kd6jh5ne2a8",446,"40.csv","","null","resources/maskTrios/L2BB.jpg","null","",NA,NA,NA,NA,""
"image-keyboard-response",100,117986,"0.0-3.29-2.29","r3a8kd6jh5ne2a8",446,"40.csv","","null","resources/images/fishbone.png","null","",NA,NA,NA,NA,""
"image-keyboard-response",101,118489,"0.0-3.30-0.30","r3a8kd6jh5ne2a8",446,"40.csv","","500.19999998807907","resources/trios/L1T1A3.jpg","37","restless",0.7,0.2,0.8,0.49387371374974,"true"
"image-keyboard-response",102,118896,"0.0-3.30-1.30","r3a8kd6jh5ne2a8",446,"40.csv","","null","resources/maskTrios/L1BB.jpg","null","",NA,NA,NA,NA,""
"image-keyboard-response",103,120103,"0.0-3.30-2.30","r3a8kd6jh5ne2a8",446,"40.csv","","null","resources/images/coin2.png","null","",NA,NA,NA,NA,""
"image-keyboard-response",104,122085,"0.0-3.31-0.31","r3a8kd6jh5ne2a8",446,"40.csv","","1979","resources/trios/L1T1A2.jpg","37","restless",0.7,0.2,0.8,0.314852983885676,"true"
"image-keyboard-response",105,122491,"0.0-3.31-1.31","r3a8kd6jh5ne2a8",446,"40.csv","","null","resources/maskTrios/L1BB.jpg","null","",NA,NA,NA,NA,""
"image-keyboard-response",106,123698,"0.0-3.31-2.31","r3a8kd6jh5ne2a8",446,"40.csv","","null","resources/images/coin2.png","null","",NA,NA,NA,NA,""
"image-keyboard-response",107,124222,"0.0-3.32-0.32","r3a8kd6jh5ne2a8",446,"40.csv","","521.7000000178814","resources/trios/L2T1A2.jpg","37","restless",0.6,0.2,0.8,0.996946606171941,"false"
"image-keyboard-response",108,124629,"0.0-3.32-1.32","r3a8kd6jh5ne2a8",446,"40.csv","","null","resources/maskTrios/L2BB.jpg","null","",NA,NA,NA,NA,""
"image-keyboard-response",109,125833,"0.0-3.32-2.32","r3a8kd6jh5ne2a8",446,"40.csv","","null","resources/images/fishbone.png","null","",NA,NA,NA,NA,""
"image-keyboard-response",110,126295,"0.0-3.33-0.33","r3a8kd6jh5ne2a8",446,"40.csv","","460.5","resources/trios/L1T1A2.jpg","38","restless",0.6,0.2,0.8,0.405914060791222,"false"
"image-keyboard-response",111,126703,"0.0-3.33-1.33","r3a8kd6jh5ne2a8",446,"40.csv","","null","resources/maskTrios/BT1B.jpg","null","",NA,NA,NA,NA,""
"image-keyboard-response",112,127910,"0.0-3.33-2.33","r3a8kd6jh5ne2a8",446,"40.csv","","null","resources/images/fishbone.png","null","",NA,NA,NA,NA,""
"image-keyboard-response",113,128205,"0.0-3.34-0.34","r3a8kd6jh5ne2a8",446,"40.csv","","293.40000000596046","resources/trios/L2T1A2.jpg","37","restless",0.6,0.2,0.8,0.265032861812373,"true"
"image-keyboard-response",114,128610,"0.0-3.34-1.34","r3a8kd6jh5ne2a8",446,"40.csv","","null","resources/maskTrios/L2BB.jpg","null","",NA,NA,NA,NA,""
"image-keyboard-response",115,129817,"0.0-3.34-2.34","r3a8kd6jh5ne2a8",446,"40.csv","","null","resources/images/coin2.png","null","",NA,NA,NA,NA,""
"image-keyboard-response",116,130172,"0.0-3.35-0.35","r3a8kd6jh5ne2a8",446,"40.csv","","352.7000000178814","resources/trios/L1T1A2.jpg","37","restless",0.6,0.2,0.8,0.98751911844578,"false"
"image-keyboard-response",117,130575,"0.0-3.35-1.35","r3a8kd6jh5ne2a8",446,"40.csv","","null","resources/maskTrios/L1BB.jpg","null","",NA,NA,NA,NA,""
"image-keyboard-response",118,131777,"0.0-3.35-2.35","r3a8kd6jh5ne2a8",446,"40.csv","","null","resources/images/fishbone.png","null","",NA,NA,NA,NA,""
"image-keyboard-response",119,132333,"0.0-3.36-0.36","r3a8kd6jh5ne2a8",446,"40.csv","","554.2000000178814","resources/trios/L1T2A2.jpg","37","restless",0.6,0.2,0.8,0.55165925655047,"true"
"image-keyboard-response",120,132740,"0.0-3.36-1.36","r3a8kd6jh5ne2a8",446,"40.csv","","null","resources/maskTrios/L1BB.jpg","null","",NA,NA,NA,NA,""
"image-keyboard-response",121,133947,"0.0-3.36-2.36","r3a8kd6jh5ne2a8",446,"40.csv","","null","resources/images/coin2.png","null","",NA,NA,NA,NA,""
"image-keyboard-response",122,134453,"0.0-3.37-0.37","r3a8kd6jh5ne2a8",446,"40.csv","","503.7000000178814","resources/trios/L2T2A2.jpg","38","restless",0.6,0.2,0.8,0.623972502979721,"false"
"image-keyboard-response",123,134860,"0.0-3.37-1.37","r3a8kd6jh5ne2a8",446,"40.csv","","null","resources/maskTrios/BT2B.jpg","null","",NA,NA,NA,NA,""
"image-keyboard-response",124,136067,"0.0-3.37-2.37","r3a8kd6jh5ne2a8",446,"40.csv","","null","resources/images/fishbone.png","null","",NA,NA,NA,NA,""
"image-keyboard-response",125,136404,"0.0-3.38-0.38","r3a8kd6jh5ne2a8",446,"40.csv","","335.69999998807907","resources/trios/L1T1A3.jpg","39","restless",0.6,0.2,0.8,0.280117109382279,"true"
"image-keyboard-response",126,136812,"0.0-3.38-1.38","r3a8kd6jh5ne2a8",446,"40.csv","","null","resources/maskTrios/BBA3.jpg","null","",NA,NA,NA,NA,""
"image-keyboard-response",127,138019,"0.0-3.38-2.38","r3a8kd6jh5ne2a8",446,"40.csv","","null","resources/images/coin2.png","null","",NA,NA,NA,NA,""
"image-keyboard-response",128,139014,"0.0-3.39-0.39","r3a8kd6jh5ne2a8",446,"40.csv","","992.6999999880791","resources/trios/L1T1A3.jpg","37","restless",0.6,0.2,0.7,0.977056852817185,"false"
"image-keyboard-response",129,139421,"0.0-3.39-1.39","r3a8kd6jh5ne2a8",446,"40.csv","","null","resources/maskTrios/L1BB.jpg","null","",NA,NA,NA,NA,""
"image-keyboard-response",130,140626,"0.0-3.39-2.39","r3a8kd6jh5ne2a8",446,"40.csv","","null","resources/images/fishbone.png","null","",NA,NA,NA,NA,""
"image-keyboard-response",131,141284,"0.0-3.40-0.40","r3a8kd6jh5ne2a8",446,"40.csv","","656","resources/trios/L1T2A2.jpg","39","restless",0.6,0.2,0.7,0.750751620808333,"false"
"image-keyboard-response",132,141692,"0.0-3.40-1.40","r3a8kd6jh5ne2a8",446,"40.csv","","null","resources/maskTrios/BBA2.jpg","null","",NA,NA,NA,NA,""
"image-keyboard-response",133,142899,"0.0-3.40-2.40","r3a8kd6jh5ne2a8",446,"40.csv","","null","resources/images/fishbone.png","null","",NA,NA,NA,NA,""
"image-keyboard-response",134,143278,"0.0-3.41-0.41","r3a8kd6jh5ne2a8",446,"40.csv","","377.2999999821186","resources/trios/L1T1A3.jpg","38","restless",0.6,0.2,0.7,0.511052972279434,"false"
"image-keyboard-response",135,143685,"0.0-3.41-1.41","r3a8kd6jh5ne2a8",446,"40.csv","","null","resources/maskTrios/BT1B.jpg","null","",NA,NA,NA,NA,""
"image-keyboard-response",136,144892,"0.0-3.41-2.41","r3a8kd6jh5ne2a8",446,"40.csv","","null","resources/images/fishbone.png","null","",NA,NA,NA,NA,""
"image-keyboard-response",137,145369,"0.0-3.42-0.42","r3a8kd6jh5ne2a8",446,"40.csv","","475.30000001192093","resources/trios/L2T2A2.jpg","37","restless",0.5,0.2,0.6,0.288094932949278,"true"
"image-keyboard-response",138,145775,"0.0-3.42-1.42","r3a8kd6jh5ne2a8",446,"40.csv","","null","resources/maskTrios/L2BB.jpg","null","",NA,NA,NA,NA,""
"image-keyboard-response",139,146979,"0.0-3.42-2.42","r3a8kd6jh5ne2a8",446,"40.csv","","null","resources/images/coin2.png","null","",NA,NA,NA,NA,""
"image-keyboard-response",140,147641,"0.0-3.43-0.43","r3a8kd6jh5ne2a8",446,"40.csv","","659.3000000119209","resources/trios/L1T2A3.jpg","37","restless",0.4,0.2,0.6,0.668027875747189,"false"
"image-keyboard-response",141,148048,"0.0-3.43-1.43","r3a8kd6jh5ne2a8",446,"40.csv","","null","resources/maskTrios/L1BB.jpg","null","",NA,NA,NA,NA,""
"image-keyboard-response",142,149255,"0.0-3.43-2.43","r3a8kd6jh5ne2a8",446,"40.csv","","null","resources/images/fishbone.png","null","",NA,NA,NA,NA,""
"image-keyboard-response",143,149652,"0.0-3.44-0.44","r3a8kd6jh5ne2a8",446,"40.csv","","394.30000001192093","resources/trios/L2T2A2.jpg","39","restless",0.4,0.2,0.6,0.806704852942254,"false"
"image-keyboard-response",144,150059,"0.0-3.44-1.44","r3a8kd6jh5ne2a8",446,"40.csv","","null","resources/maskTrios/BBA2.jpg","null","",NA,NA,NA,NA,""
"image-keyboard-response",145,151266,"0.0-3.44-2.44","r3a8kd6jh5ne2a8",446,"40.csv","","null","resources/images/fishbone.png","null","",NA,NA,NA,NA,""
"image-keyboard-response",146,151682,"0.0-3.45-0.45","r3a8kd6jh5ne2a8",446,"40.csv","","413.5","resources/trios/L2T1A3.jpg","38","restless",0.4,0.2,0.6,0.313002979463465,"false"
"image-keyboard-response",147,152089,"0.0-3.45-1.45","r3a8kd6jh5ne2a8",446,"40.csv","","null","resources/maskTrios/BT1B.jpg","null","",NA,NA,NA,NA,""
"image-keyboard-response",148,153294,"0.0-3.45-2.45","r3a8kd6jh5ne2a8",446,"40.csv","","null","resources/images/fishbone.png","null","",NA,NA,NA,NA,""
"image-keyboard-response",149,153644,"0.0-3.46-0.46","r3a8kd6jh5ne2a8",446,"40.csv","","348","resources/trios/L1T1A3.jpg","37","restless",0.4,0.2,0.6,0.706783254812827,"false"
"image-keyboard-response",150,154051,"0.0-3.46-1.46","r3a8kd6jh5ne2a8",446,"40.csv","","null","resources/maskTrios/L1BB.jpg","null","",NA,NA,NA,NA,""
"image-keyboard-response",151,155258,"0.0-3.46-2.46","r3a8kd6jh5ne2a8",446,"40.csv","","null","resources/images/fishbone.png","null","",NA,NA,NA,NA,""
"image-keyboard-response",152,155370,"0.0-3.47-0.47","r3a8kd6jh5ne2a8",446,"40.csv","","109.40000000596046","resources/trios/L2T2A3.jpg","37","restless",0.4,0.2,0.6,0.543171610632857,"false"
"image-keyboard-response",153,155775,"0.0-3.47-1.47","r3a8kd6jh5ne2a8",446,"40.csv","","null","resources/maskTrios/L2BB.jpg","null","",NA,NA,NA,NA,""
"image-keyboard-response",154,156978,"0.0-3.47-2.47","r3a8kd6jh5ne2a8",446,"40.csv","","null","resources/images/fishbone.png","null","",NA,NA,NA,NA,""
"image-keyboard-response",155,157292,"0.0-3.48-0.48","r3a8kd6jh5ne2a8",446,"40.csv","","312","resources/trios/L2T1A2.jpg","38","restless",0.4,0.2,0.6,0.175057693325589,"true"
"image-keyboard-response",156,157699,"0.0-3.48-1.48","r3a8kd6jh5ne2a8",446,"40.csv","","null","resources/maskTrios/BT1B.jpg","null","",NA,NA,NA,NA,""
"image-keyboard-response",157,158907,"0.0-3.48-2.48","r3a8kd6jh5ne2a8",446,"40.csv","","null","resources/images/coin2.png","null","",NA,NA,NA,NA,""
"image-keyboard-response",158,159723,"0.0-3.49-0.49","r3a8kd6jh5ne2a8",446,"40.csv","","814.1999999880791","resources/trios/L1T1A3.jpg","38","restless",0.4,0.2,0.6,0.123772189477498,"true"
"image-keyboard-response",159,160130,"0.0-3.49-1.49","r3a8kd6jh5ne2a8",446,"40.csv","","null","resources/maskTrios/BT1B.jpg","null","",NA,NA,NA,NA,""
"image-keyboard-response",160,161333,"0.0-3.49-2.49","r3a8kd6jh5ne2a8",446,"40.csv","","null","resources/images/coin2.png","null","",NA,NA,NA,NA,""
"image-keyboard-response",161,163054,"0.0-3.50-0.50","r3a8kd6jh5ne2a8",446,"40.csv","","1718.7999999821186","resources/trios/L2T1A2.jpg","39","restless",0.4,0.2,0.5,0.77961781040038,"false"
"image-keyboard-response",162,163460,"0.0-3.50-1.50","r3a8kd6jh5ne2a8",446,"40.csv","","null","resources/maskTrios/BBA2.jpg","null","",NA,NA,NA,NA,""
"image-keyboard-response",163,164667,"0.0-3.50-2.50","r3a8kd6jh5ne2a8",446,"40.csv","","null","resources/images/fishbone.png","null","",NA,NA,NA,NA,""
"image-keyboard-response",164,165145,"0.0-3.51-0.51","r3a8kd6jh5ne2a8",446,"40.csv","","475.19999998807907","resources/trios/L1T2A2.jpg","38","restless",0.4,0.2,0.5,0.378607694372884,"false"
"image-keyboard-response",165,165552,"0.0-3.51-1.51","r3a8kd6jh5ne2a8",446,"40.csv","","null","resources/maskTrios/BT2B.jpg","null","",NA,NA,NA,NA,""
"image-keyboard-response",166,166759,"0.0-3.51-2.51","r3a8kd6jh5ne2a8",446,"40.csv","","null","resources/images/fishbone.png","null","",NA,NA,NA,NA,""
"image-keyboard-response",167,167545,"0.0-3.52-0.52","r3a8kd6jh5ne2a8",446,"40.csv","","783.5","resources/trios/L1T1A2.jpg","37","restless",0.4,0.2,0.5,0.525374829699194,"false"
"image-keyboard-response",168,167952,"0.0-3.52-1.52","r3a8kd6jh5ne2a8",446,"40.csv","","null","resources/maskTrios/L1BB.jpg","null","",NA,NA,NA,NA,""
"image-keyboard-response",169,169154,"0.0-3.52-2.52","r3a8kd6jh5ne2a8",446,"40.csv","","null","resources/images/fishbone.png","null","",NA,NA,NA,NA,""
"image-keyboard-response",170,169629,"0.0-3.53-0.53","r3a8kd6jh5ne2a8",446,"40.csv","","472.60000002384186","resources/trios/L1T2A2.jpg","39","restless",0.4,0.2,0.5,0.245824767688102,"true"
"image-keyboard-response",171,170036,"0.0-3.53-1.53","r3a8kd6jh5ne2a8",446,"40.csv","","null","resources/maskTrios/BBA2.jpg","null","",NA,NA,NA,NA,""
"image-keyboard-response",172,171243,"0.0-3.53-2.53","r3a8kd6jh5ne2a8",446,"40.csv","","null","resources/images/coin2.png","null","",NA,NA,NA,NA,""
"image-keyboard-response",173,172207,"0.0-3.54-0.54","r3a8kd6jh5ne2a8",446,"40.csv","","961.8000000119209","resources/trios/L2T1A2.jpg","39","restless",0.3,0.2,0.5,0.401485163500419,"true"
"image-keyboard-response",174,172615,"0.0-3.54-1.54","r3a8kd6jh5ne2a8",446,"40.csv","","null","resources/maskTrios/BBA2.jpg","null","",NA,NA,NA,NA,""
"image-keyboard-response",175,173822,"0.0-3.54-2.54","r3a8kd6jh5ne2a8",446,"40.csv","","null","resources/images/coin2.png","null","",NA,NA,NA,NA,""
"image-keyboard-response",176,174283,"0.0-3.55-0.55","r3a8kd6jh5ne2a8",446,"40.csv","","458.7000000178814","resources/trios/L1T1A3.jpg","39","restless",0.3,0.2,0.5,0.25062113288212,"true"
"image-keyboard-response",177,174690,"0.0-3.55-1.55","r3a8kd6jh5ne2a8",446,"40.csv","","null","resources/maskTrios/BBA3.jpg","null","",NA,NA,NA,NA,""
"image-keyboard-response",178,175897,"0.0-3.55-2.55","r3a8kd6jh5ne2a8",446,"40.csv","","null","resources/images/coin2.png","null","",NA,NA,NA,NA,""
"image-keyboard-response",179,176567,"0.0-3.56-0.56","r3a8kd6jh5ne2a8",446,"40.csv","","667.8000000119209","resources/trios/L1T1A3.jpg","39","restless",0.3,0.2,0.4,0.352070368812264,"true"
"image-keyboard-response",180,176972,"0.0-3.56-1.56","r3a8kd6jh5ne2a8",446,"40.csv","","null","resources/maskTrios/BBA3.jpg","null","",NA,NA,NA,NA,""
"image-keyboard-response",181,178179,"0.0-3.56-2.56","r3a8kd6jh5ne2a8",446,"40.csv","","null","resources/images/coin2.png","null","",NA,NA,NA,NA,""
"image-keyboard-response",182,178531,"0.0-3.57-0.57","r3a8kd6jh5ne2a8",446,"40.csv","","350","resources/trios/L2T1A3.jpg","39","restless",0.3,0.2,0.4,0.222259488419869,"true"
"image-keyboard-response",183,178938,"0.0-3.57-1.57","r3a8kd6jh5ne2a8",446,"40.csv","","null","resources/maskTrios/BBA3.jpg","null","",NA,NA,NA,NA,""
"image-keyboard-response",184,180141,"0.0-3.57-2.57","r3a8kd6jh5ne2a8",446,"40.csv","","null","resources/images/coin2.png","null","",NA,NA,NA,NA,""
"image-keyboard-response",185,180874,"0.0-3.58-0.58","r3a8kd6jh5ne2a8",446,"40.csv","","730.9000000059605","resources/trios/L2T2A2.jpg","39","restless",0.3,0.2,0.4,0.569982173186286,"false"
"image-keyboard-response",186,181281,"0.0-3.58-1.58","r3a8kd6jh5ne2a8",446,"40.csv","","null","resources/maskTrios/BBA2.jpg","null","",NA,NA,NA,NA,""
"image-keyboard-response",187,182488,"0.0-3.58-2.58","r3a8kd6jh5ne2a8",446,"40.csv","","null","resources/images/fishbone.png","null","",NA,NA,NA,NA,""
"image-keyboard-response",188,183035,"0.0-3.59-0.59","r3a8kd6jh5ne2a8",446,"40.csv","","544.5999999940395","resources/trios/L2T1A3.jpg","39","restless",0.3,0.2,0.4,0.148509799525379,"true"
"image-keyboard-response",189,183442,"0.0-3.59-1.59","r3a8kd6jh5ne2a8",446,"40.csv","","null","resources/maskTrios/BBA3.jpg","null","",NA,NA,NA,NA,""
"image-keyboard-response",190,184650,"0.0-3.59-2.59","r3a8kd6jh5ne2a8",446,"40.csv","","null","resources/images/coin2.png","null","",NA,NA,NA,NA,""
"image-keyboard-response",191,185210,"0.0-3.60-0.60","r3a8kd6jh5ne2a8",446,"40.csv","","558.7000000178814","resources/trios/L2T1A3.jpg","39","restless",0.3,0.2,0.5,0.0873136464386706,"true"
"image-keyboard-response",192,185617,"0.0-3.60-1.60","r3a8kd6jh5ne2a8",446,"40.csv","","null","resources/maskTrios/BBA3.jpg","null","",NA,NA,NA,NA,""
"image-keyboard-response",193,186824,"0.0-3.60-2.60","r3a8kd6jh5ne2a8",446,"40.csv","","null","resources/images/coin2.png","null","",NA,NA,NA,NA,""
"image-keyboard-response",194,187120,"0.0-3.61-0.61","r3a8kd6jh5ne2a8",446,"40.csv","","294","resources/trios/L2T2A3.jpg","39","restless",0.3,0.2,0.5,0.993479778109344,"false"
"image-keyboard-response",195,187522,"0.0-3.61-1.61","r3a8kd6jh5ne2a8",446,"40.csv","","null","resources/maskTrios/BBA3.jpg","null","",NA,NA,NA,NA,""
"image-keyboard-response",196,188727,"0.0-3.61-2.61","r3a8kd6jh5ne2a8",446,"40.csv","","null","resources/images/fishbone.png","null","",NA,NA,NA,NA,""
"image-keyboard-response",197,189409,"0.0-3.62-0.62","r3a8kd6jh5ne2a8",446,"40.csv","","679.5999999940395","resources/trios/L2T1A2.jpg","37","restless",0.3,0.2,0.5,0.285607738387426,"true"
"image-keyboard-response",198,189816,"0.0-3.62-1.62","r3a8kd6jh5ne2a8",446,"40.csv","","null","resources/maskTrios/L2BB.jpg","null","",NA,NA,NA,NA,""
"image-keyboard-response",199,191024,"0.0-3.62-2.62","r3a8kd6jh5ne2a8",446,"40.csv","","null","resources/images/coin2.png","null","",NA,NA,NA,NA,""
"image-keyboard-response",200,191422,"0.0-3.63-0.63","r3a8kd6jh5ne2a8",446,"40.csv","","396","resources/trios/L2T1A3.jpg","39","restless",0.3,0.2,0.5,0.608684305317139,"false"
"image-keyboard-response",201,191827,"0.0-3.63-1.63","r3a8kd6jh5ne2a8",446,"40.csv","","null","resources/maskTrios/BBA3.jpg","null","",NA,NA,NA,NA,""
"image-keyboard-response",202,193034,"0.0-3.63-2.63","r3a8kd6jh5ne2a8",446,"40.csv","","null","resources/images/fishbone.png","null","",NA,NA,NA,NA,""
"image-keyboard-response",203,193453,"0.0-3.64-0.64","r3a8kd6jh5ne2a8",446,"40.csv","","417.19999998807907","resources/trios/L1T2A3.jpg","37","restless",0.3,0.2,0.5,0.761684574819511,"false"
"image-keyboard-response",204,193861,"0.0-3.64-1.64","r3a8kd6jh5ne2a8",446,"40.csv","","null","resources/maskTrios/L1BB.jpg","null","",NA,NA,NA,NA,""
"image-keyboard-response",205,195066,"0.0-3.64-2.64","r3a8kd6jh5ne2a8",446,"40.csv","","null","resources/images/fishbone.png","null","",NA,NA,NA,NA,""
"image-keyboard-response",206,195801,"0.0-3.65-0.65","r3a8kd6jh5ne2a8",446,"40.csv","","733.0999999940395","resources/trios/L1T1A3.jpg","38","restless",0.3,0.2,0.5,0.454252351776522,"false"
"image-keyboard-response",207,196208,"0.0-3.65-1.65","r3a8kd6jh5ne2a8",446,"40.csv","","null","resources/maskTrios/BT1B.jpg","null","",NA,NA,NA,NA,""
"image-keyboard-response",208,197414,"0.0-3.65-2.65","r3a8kd6jh5ne2a8",446,"40.csv","","null","resources/images/fishbone.png","null","",NA,NA,NA,NA,""
"image-keyboard-response",209,197950,"0.0-3.66-0.66","r3a8kd6jh5ne2a8",446,"40.csv","","533.5999999940395","resources/trios/L2T2A3.jpg","37","restless",0.3,0.2,0.5,0.704536838029949,"false"
"image-keyboard-response",210,198357,"0.0-3.66-1.66","r3a8kd6jh5ne2a8",446,"40.csv","","null","resources/maskTrios/L2BB.jpg","null","",NA,NA,NA,NA,""
"image-keyboard-response",211,199563,"0.0-3.66-2.66","r3a8kd6jh5ne2a8",446,"40.csv","","null","resources/images/fishbone.png","null","",NA,NA,NA,NA,""
"image-keyboard-response",212,199927,"0.0-3.67-0.67","r3a8kd6jh5ne2a8",446,"40.csv","","363.69999998807907","resources/trios/L1T2A3.jpg","39","restless",0.3,0.2,0.5,0.243896906242954,"true"
"image-keyboard-response",213,200334,"0.0-3.67-1.67","r3a8kd6jh5ne2a8",446,"40.csv","","null","resources/maskTrios/BBA3.jpg","null","",NA,NA,NA,NA,""
"image-keyboard-response",214,201541,"0.0-3.67-2.67","r3a8kd6jh5ne2a8",446,"40.csv","","null","resources/images/coin2.png","null","",NA,NA,NA,NA,""
"image-keyboard-response",215,203496,"0.0-3.68-0.68","r3a8kd6jh5ne2a8",446,"40.csv","","1952.5999999940395","resources/trios/L2T2A2.jpg","39","restless",0.3,0.2,0.5,0.778083474577017,"false"
"image-keyboard-response",216,203899,"0.0-3.68-1.68","r3a8kd6jh5ne2a8",446,"40.csv","","null","resources/maskTrios/BBA2.jpg","null","",NA,NA,NA,NA,""
"image-keyboard-response",217,205106,"0.0-3.68-2.68","r3a8kd6jh5ne2a8",446,"40.csv","","null","resources/images/fishbone.png","null","",NA,NA,NA,NA,""
"image-keyboard-response",218,205251,"0.0-3.69-0.69","r3a8kd6jh5ne2a8",446,"40.csv","","142.30000001192093","resources/trios/L2T2A2.jpg","38","restless",0.3,0.2,0.5,0.878549993829784,"false"
"image-keyboard-response",219,205658,"0.0-3.69-1.69","r3a8kd6jh5ne2a8",446,"40.csv","","null","resources/maskTrios/BT2B.jpg","null","",NA,NA,NA,NA,""
"image-keyboard-response",220,206861,"0.0-3.69-2.69","r3a8kd6jh5ne2a8",446,"40.csv","","null","resources/images/fishbone.png","null","",NA,NA,NA,NA,""
"image-keyboard-response",221,207516,"0.0-3.70-0.70","r3a8kd6jh5ne2a8",446,"40.csv","","652.8000000119209","resources/trios/L1T1A3.jpg","39","restless",0.3,0.2,0.5,0.458888633729704,"true"
"image-keyboard-response",222,207923,"0.0-3.70-1.70","r3a8kd6jh5ne2a8",446,"40.csv","","null","resources/maskTrios/BBA3.jpg","null","",NA,NA,NA,NA,""
"image-keyboard-response",223,209128,"0.0-3.70-2.70","r3a8kd6jh5ne2a8",446,"40.csv","","null","resources/images/coin2.png","null","",NA,NA,NA,NA,""
"image-keyboard-response",224,209597,"0.0-3.71-0.71","r3a8kd6jh5ne2a8",446,"40.csv","","466.7999999821186","resources/trios/L1T1A3.jpg","39","restless",0.3,0.2,0.5,0.193133835200624,"true"
"image-keyboard-response",225,210004,"0.0-3.71-1.71","r3a8kd6jh5ne2a8",446,"40.csv","","null","resources/maskTrios/BBA3.jpg","null","",NA,NA,NA,NA,""
"image-keyboard-response",226,211207,"0.0-3.71-2.71","r3a8kd6jh5ne2a8",446,"40.csv","","null","resources/images/coin2.png","null","",NA,NA,NA,NA,""
"image-keyboard-response",227,211675,"0.0-3.72-0.72","r3a8kd6jh5ne2a8",446,"40.csv","","466.09999999403954","resources/trios/L1T2A3.jpg","39","restless",0.4,0.3,0.5,0.643073978424731,"false"
"image-keyboard-response",228,212083,"0.0-3.72-1.72","r3a8kd6jh5ne2a8",446,"40.csv","","null","resources/maskTrios/BBA3.jpg","null","",NA,NA,NA,NA,""
"image-keyboard-response",229,213290,"0.0-3.72-2.72","r3a8kd6jh5ne2a8",446,"40.csv","","null","resources/images/fishbone.png","null","",NA,NA,NA,NA,""
"image-keyboard-response",230,214048,"0.0-3.73-0.73","r3a8kd6jh5ne2a8",446,"40.csv","","756.4000000059605","resources/trios/L2T2A3.jpg","37","restless",0.4,0.3,0.5,0.979175428588896,"false"
"image-keyboard-response",231,214453,"0.0-3.73-1.73","r3a8kd6jh5ne2a8",446,"40.csv","","null","resources/maskTrios/L2BB.jpg","null","",NA,NA,NA,NA,""
"image-keyboard-response",232,215660,"0.0-3.73-2.73","r3a8kd6jh5ne2a8",446,"40.csv","","null","resources/images/fishbone.png","null","",NA,NA,NA,NA,""
"image-keyboard-response",233,216087,"0.0-3.74-0.74","r3a8kd6jh5ne2a8",446,"40.csv","","424.7000000178814","resources/trios/L2T2A3.jpg","38","restless",0.4,0.3,0.5,0.488744618474562,"false"
"image-keyboard-response",234,216490,"0.0-3.74-1.74","r3a8kd6jh5ne2a8",446,"40.csv","","null","resources/maskTrios/BT2B.jpg","null","",NA,NA,NA,NA,""
"image-keyboard-response",235,217697,"0.0-3.74-2.74","r3a8kd6jh5ne2a8",446,"40.csv","","null","resources/images/fishbone.png","null","",NA,NA,NA,NA,""
"image-keyboard-response",236,218504,"0.0-3.75-0.75","r3a8kd6jh5ne2a8",446,"40.csv","","804.5999999940395","resources/trios/L1T2A3.jpg","39","restless",0.5,0.3,0.5,0.372785227106701,"true"
"image-keyboard-response",237,218911,"0.0-3.75-1.75","r3a8kd6jh5ne2a8",446,"40.csv","","null","resources/maskTrios/BBA3.jpg","null","",NA,NA,NA,NA,""
"image-keyboard-response",238,220118,"0.0-3.75-2.75","r3a8kd6jh5ne2a8",446,"40.csv","","null","resources/images/coin2.png","null","",NA,NA,NA,NA,""
"image-keyboard-response",239,220386,"0.0-3.76-0.76","r3a8kd6jh5ne2a8",446,"40.csv","","265.69999998807907","resources/trios/L1T2A2.jpg","39","restless",0.5,0.3,0.5,0.415771014200448,"true"
"image-keyboard-response",240,220793,"0.0-3.76-1.76","r3a8kd6jh5ne2a8",446,"40.csv","","null","resources/maskTrios/BBA2.jpg","null","",NA,NA,NA,NA,""
"image-keyboard-response",241,222000,"0.0-3.76-2.76","r3a8kd6jh5ne2a8",446,"40.csv","","null","resources/images/coin2.png","null","",NA,NA,NA,NA,""
"image-keyboard-response",242,222012,"0.0-3.77-0.77","r3a8kd6jh5ne2a8",446,"40.csv","","10.299999982118607","resources/trios/L1T2A3.jpg","39","restless",0.5,0.4,0.5,0.670642834976093,"false"
"image-keyboard-response",243,222419,"0.0-3.77-1.77","r3a8kd6jh5ne2a8",446,"40.csv","","null","resources/maskTrios/BBA3.jpg","null","",NA,NA,NA,NA,""
"image-keyboard-response",244,223626,"0.0-3.77-2.77","r3a8kd6jh5ne2a8",446,"40.csv","","null","resources/images/fishbone.png","null","",NA,NA,NA,NA,""
"image-keyboard-response",245,224007,"0.0-3.78-0.78","r3a8kd6jh5ne2a8",446,"40.csv","","379.30000001192093","resources/trios/L2T1A2.jpg","37","restless",0.5,0.4,0.5,0.0594491179923746,"true"
"image-keyboard-response",246,224414,"0.0-3.78-1.78","r3a8kd6jh5ne2a8",446,"40.csv","","null","resources/maskTrios/L2BB.jpg","null","",NA,NA,NA,NA,""
"image-keyboard-response",247,225621,"0.0-3.78-2.78","r3a8kd6jh5ne2a8",446,"40.csv","","null","resources/images/coin2.png","null","",NA,NA,NA,NA,""
"image-keyboard-response",248,227977,"0.0-3.79-0.79","r3a8kd6jh5ne2a8",446,"40.csv","","2354.0999999940395","resources/trios/L2T1A2.jpg","37","restless",0.5,0.4,0.5,0.909107096529446,"false"
"image-keyboard-response",249,228384,"0.0-3.79-1.79","r3a8kd6jh5ne2a8",446,"40.csv","","null","resources/maskTrios/L2BB.jpg","null","",NA,NA,NA,NA,""
"image-keyboard-response",250,229591,"0.0-3.79-2.79","r3a8kd6jh5ne2a8",446,"40.csv","","null","resources/images/fishbone.png","null","",NA,NA,NA,NA,""
"image-keyboard-response",251,230870,"0.0-3.80-0.80","r3a8kd6jh5ne2a8",446,"40.csv","","1276.2000000178814","resources/trios/L1T1A3.jpg","38","restless",0.5,0.4,0.5,0.196773001298821,"true"
"image-keyboard-response",252,231277,"0.0-3.80-1.80","r3a8kd6jh5ne2a8",446,"40.csv","","null","resources/maskTrios/BT1B.jpg","null","",NA,NA,NA,NA,""
"image-keyboard-response",253,232484,"0.0-3.80-2.80","r3a8kd6jh5ne2a8",446,"40.csv","","null","resources/images/coin2.png","null","",NA,NA,NA,NA,""
"image-keyboard-response",254,234862,"0.0-3.81-0.81","r3a8kd6jh5ne2a8",446,"40.csv","","2375.600000023842","resources/trios/L2T1A2.jpg","38","restless",0.5,0.4,0.5,0.604630264282427,"false"
"image-keyboard-response",255,235267,"0.0-3.81-1.81","r3a8kd6jh5ne2a8",446,"40.csv","","null","resources/maskTrios/BT1B.jpg","null","",NA,NA,NA,NA,""
"image-keyboard-response",256,236474,"0.0-3.81-2.81","r3a8kd6jh5ne2a8",446,"40.csv","","null","resources/images/fishbone.png","null","",NA,NA,NA,NA,""
"image-keyboard-response",257,237526,"0.0-3.82-0.82","r3a8kd6jh5ne2a8",446,"40.csv","","1050","resources/trios/L1T1A3.jpg","38","restless",0.5,0.4,0.4,0.949967879926043,"false"
"image-keyboard-response",258,237933,"0.0-3.82-1.82","r3a8kd6jh5ne2a8",446,"40.csv","","null","resources/maskTrios/BT1B.jpg","null","",NA,NA,NA,NA,""
"image-keyboard-response",259,239135,"0.0-3.82-2.82","r3a8kd6jh5ne2a8",446,"40.csv","","null","resources/images/fishbone.png","null","",NA,NA,NA,NA,""
"image-keyboard-response",260,239527,"0.0-3.83-0.83","r3a8kd6jh5ne2a8",446,"40.csv","","389.09999999403954","resources/trios/L2T1A3.jpg","39","restless",0.5,0.4,0.4,0.869550700958084,"false"
"image-keyboard-response",261,239934,"0.0-3.83-1.83","r3a8kd6jh5ne2a8",446,"40.csv","","null","resources/maskTrios/BBA3.jpg","null","",NA,NA,NA,NA,""
"image-keyboard-response",262,241141,"0.0-3.83-2.83","r3a8kd6jh5ne2a8",446,"40.csv","","null","resources/images/fishbone.png","null","",NA,NA,NA,NA,""
"image-keyboard-response",263,241760,"0.0-3.84-0.84","r3a8kd6jh5ne2a8",446,"40.csv","","617.3000000119209","resources/trios/L1T1A3.jpg","39","restless",0.5,0.4,0.4,0.415260331839755,"false"
"image-keyboard-response",264,242168,"0.0-3.84-1.84","r3a8kd6jh5ne2a8",446,"40.csv","","null","resources/maskTrios/BBA3.jpg","null","",NA,NA,NA,NA,""
"image-keyboard-response",265,243375,"0.0-3.84-2.84","r3a8kd6jh5ne2a8",446,"40.csv","","null","resources/images/fishbone.png","null","",NA,NA,NA,NA,""
"image-keyboard-response",266,243762,"0.0-3.85-0.85","r3a8kd6jh5ne2a8",446,"40.csv","","385.5","resources/trios/L2T2A2.jpg","37","restless",0.5,0.4,0.4,0.507283253826309,"false"
"image-keyboard-response",267,244170,"0.0-3.85-1.85","r3a8kd6jh5ne2a8",446,"40.csv","","null","resources/maskTrios/L2BB.jpg","null","",NA,NA,NA,NA,""
"image-keyboard-response",268,245377,"0.0-3.85-2.85","r3a8kd6jh5ne2a8",446,"40.csv","","null","resources/images/fishbone.png","null","",NA,NA,NA,NA,""
"image-keyboard-response",269,246162,"0.0-3.86-0.86","r3a8kd6jh5ne2a8",446,"40.csv","","783.5999999940395","resources/trios/L1T2A3.jpg","38","restless",0.5,0.4,0.4,0.411176441079934,"false"
"image-keyboard-response",270,246568,"0.0-3.86-1.86","r3a8kd6jh5ne2a8",446,"40.csv","","null","resources/maskTrios/BT2B.jpg","null","",NA,NA,NA,NA,""
"image-keyboard-response",271,247775,"0.0-3.86-2.86","r3a8kd6jh5ne2a8",446,"40.csv","","null","resources/images/fishbone.png","null","",NA,NA,NA,NA,""
"image-keyboard-response",272,257366,"0.0-3.87-0.87","r3a8kd6jh5ne2a8",446,"40.csv","","9588.800000011921","resources/trios/L1T1A2.jpg","37","restless",0.5,0.4,0.4,0.183839105791086,"true"
"image-keyboard-response",273,257771,"0.0-3.87-1.87","r3a8kd6jh5ne2a8",446,"40.csv","","null","resources/maskTrios/L1BB.jpg","null","",NA,NA,NA,NA,""
"image-keyboard-response",274,258973,"0.0-3.87-2.87","r3a8kd6jh5ne2a8",446,"40.csv","","null","resources/images/coin2.png","null","",NA,NA,NA,NA,""
"image-keyboard-response",275,259919,"0.0-3.88-0.88","r3a8kd6jh5ne2a8",446,"40.csv","","944.5","resources/trios/L2T2A2.jpg","37","restless",0.5,0.5,0.4,0.396317111758667,"true"
"image-keyboard-response",276,260324,"0.0-3.88-1.88","r3a8kd6jh5ne2a8",446,"40.csv","","null","resources/maskTrios/L2BB.jpg","null","",NA,NA,NA,NA,""
"image-keyboard-response",277,261530,"0.0-3.88-2.88","r3a8kd6jh5ne2a8",446,"40.csv","","null","resources/images/coin2.png","null","",NA,NA,NA,NA,""
"image-keyboard-response",278,263419,"0.0-3.89-0.89","r3a8kd6jh5ne2a8",446,"40.csv","","1887.199999988079","resources/trios/L1T1A3.jpg","37","restless",0.5,0.5,0.5,0.272928648671154,"true"
"image-keyboard-response",279,263822,"0.0-3.89-1.89","r3a8kd6jh5ne2a8",446,"40.csv","","null","resources/maskTrios/L1BB.jpg","null","",NA,NA,NA,NA,""
"image-keyboard-response",280,265025,"0.0-3.89-2.89","r3a8kd6jh5ne2a8",446,"40.csv","","null","resources/images/coin2.png","null","",NA,NA,NA,NA,""
"image-keyboard-response",281,267826,"0.0-3.90-0.90","r3a8kd6jh5ne2a8",446,"40.csv","","2798.9000000059605","resources/trios/L1T2A3.jpg","37","restless",0.5,0.5,0.5,0.157902532388086,"true"
"image-keyboard-response",282,268234,"0.0-3.90-1.90","r3a8kd6jh5ne2a8",446,"40.csv","","null","resources/maskTrios/L1BB.jpg","null","",NA,NA,NA,NA,""
"image-keyboard-response",283,269441,"0.0-3.90-2.90","r3a8kd6jh5ne2a8",446,"40.csv","","null","resources/images/coin2.png","null","",NA,NA,NA,NA,""
"image-keyboard-response",284,269844,"0.0-3.91-0.91","r3a8kd6jh5ne2a8",446,"40.csv","","400.40000000596046","resources/trios/L2T2A2.jpg","37","restless",0.5,0.5,0.5,0.857813626550215,"false"
"image-keyboard-response",285,270252,"0.0-3.91-1.91","r3a8kd6jh5ne2a8",446,"40.csv","","null","resources/maskTrios/L2BB.jpg","null","",NA,NA,NA,NA,""
"image-keyboard-response",286,271454,"0.0-3.91-2.91","r3a8kd6jh5ne2a8",446,"40.csv","","null","resources/images/fishbone.png","null","",NA,NA,NA,NA,""
"image-keyboard-response",287,271969,"0.0-3.92-0.92","r3a8kd6jh5ne2a8",446,"40.csv","","512.7000000178814","resources/trios/L2T1A2.jpg","38","restless",0.5,0.5,0.5,0.88063690283004,"false"
"image-keyboard-response",288,272376,"0.0-3.92-1.92","r3a8kd6jh5ne2a8",446,"40.csv","","null","resources/maskTrios/BT1B.jpg","null","",NA,NA,NA,NA,""
"image-keyboard-response",289,273583,"0.0-3.92-2.92","r3a8kd6jh5ne2a8",446,"40.csv","","null","resources/images/fishbone.png","null","",NA,NA,NA,NA,""
"image-keyboard-response",290,273876,"0.0-3.93-0.93","r3a8kd6jh5ne2a8",446,"40.csv","","290.80000001192093","resources/trios/L1T1A3.jpg","39","restless",0.5,0.5,0.5,0.46546493170993,"true"
"image-keyboard-response",291,274283,"0.0-3.93-1.93","r3a8kd6jh5ne2a8",446,"40.csv","","null","resources/maskTrios/BBA3.jpg","null","",NA,NA,NA,NA,""
"image-keyboard-response",292,275487,"0.0-3.93-2.93","r3a8kd6jh5ne2a8",446,"40.csv","","null","resources/images/coin2.png","null","",NA,NA,NA,NA,""
"image-keyboard-response",293,276059,"0.0-3.94-0.94","r3a8kd6jh5ne2a8",446,"40.csv","","569.9000000059605","resources/trios/L1T2A3.jpg","39","restless",0.5,0.5,0.5,0.852383457272919,"false"
"image-keyboard-response",294,276464,"0.0-3.94-1.94","r3a8kd6jh5ne2a8",446,"40.csv","","null","resources/maskTrios/BBA3.jpg","null","",NA,NA,NA,NA,""
"image-keyboard-response",295,277668,"0.0-3.94-2.94","r3a8kd6jh5ne2a8",446,"40.csv","","null","resources/images/fishbone.png","null","",NA,NA,NA,NA,""
"image-keyboard-response",296,278116,"0.0-3.95-0.95","r3a8kd6jh5ne2a8",446,"40.csv","","446.2999999821186","resources/trios/L1T2A2.jpg","37","restless",0.5,0.5,0.5,0.62410872595328,"false"
"image-keyboard-response",297,278523,"0.0-3.95-1.95","r3a8kd6jh5ne2a8",446,"40.csv","","null","resources/maskTrios/L1BB.jpg","null","",NA,NA,NA,NA,""
"image-keyboard-response",298,279730,"0.0-3.95-2.95","r3a8kd6jh5ne2a8",446,"40.csv","","null","resources/images/fishbone.png","null","",NA,NA,NA,NA,""
"image-keyboard-response",299,280024,"0.0-3.96-0.96","r3a8kd6jh5ne2a8",446,"40.csv","","291.69999998807907","resources/trios/L1T1A3.jpg","38","restless",0.5,0.5,0.5,0.623279011512443,"false"
"image-keyboard-response",300,280431,"0.0-3.96-1.96","r3a8kd6jh5ne2a8",446,"40.csv","","null","resources/maskTrios/BT1B.jpg","null","",NA,NA,NA,NA,""
"image-keyboard-response",301,281638,"0.0-3.96-2.96","r3a8kd6jh5ne2a8",446,"40.csv","","null","resources/images/fishbone.png","null","",NA,NA,NA,NA,""
"image-keyboard-response",302,281945,"0.0-3.97-0.97","r3a8kd6jh5ne2a8",446,"40.csv","","305.09999999403954","resources/trios/L2T1A3.jpg","39","restless",0.5,0.5,0.5,0.0179177878504806,"true"
"image-keyboard-response",303,282352,"0.0-3.97-1.97","r3a8kd6jh5ne2a8",446,"40.csv","","null","resources/maskTrios/BBA3.jpg","null","",NA,NA,NA,NA,""
"image-keyboard-response",304,283559,"0.0-3.97-2.97","r3a8kd6jh5ne2a8",446,"40.csv","","null","resources/images/coin2.png","null","",NA,NA,NA,NA,""
"image-keyboard-response",305,283824,"0.0-3.98-0.98","r3a8kd6jh5ne2a8",446,"40.csv","","262.90000000596046","resources/trios/L1T1A2.jpg","39","restless",0.5,0.5,0.5,0.207043333523567,"true"
"image-keyboard-response",306,284229,"0.0-3.98-1.98","r3a8kd6jh5ne2a8",446,"40.csv","","null","resources/maskTrios/BBA2.jpg","null","",NA,NA,NA,NA,""
"image-keyboard-response",307,285432,"0.0-3.98-2.98","r3a8kd6jh5ne2a8",446,"40.csv","","null","resources/images/coin2.png","null","",NA,NA,NA,NA,""
"image-keyboard-response",308,285896,"0.0-3.99-0.99","r3a8kd6jh5ne2a8",446,"40.csv","","461.5","resources/trios/L1T2A2.jpg","39","restless",0.5,0.5,0.5,0.67459233210113,"false"
"image-keyboard-response",309,286303,"0.0-3.99-1.99","r3a8kd6jh5ne2a8",446,"40.csv","","null","resources/maskTrios/BBA2.jpg","null","",NA,NA,NA,NA,""
"image-keyboard-response",310,287510,"0.0-3.99-2.99","r3a8kd6jh5ne2a8",446,"40.csv","","null","resources/images/fishbone.png","null","",NA,NA,NA,NA,""
"image-keyboard-response",311,287978,"0.0-3.100-0.100","r3a8kd6jh5ne2a8",446,"40.csv","","465.80000001192093","resources/trios/L1T1A2.jpg","37","restless",0.5,0.5,0.5,0.818954001823413,"false"
"image-keyboard-response",312,288385,"0.0-3.100-1.100","r3a8kd6jh5ne2a8",446,"40.csv","","null","resources/maskTrios/L1BB.jpg","null","",NA,NA,NA,NA,""
"image-keyboard-response",313,289592,"0.0-3.100-2.100","r3a8kd6jh5ne2a8",446,"40.csv","","null","resources/images/fishbone.png","null","",NA,NA,NA,NA,""
"image-keyboard-response",314,290118,"0.0-3.101-0.101","r3a8kd6jh5ne2a8",446,"40.csv","","523.4000000059605","resources/trios/L1T2A3.jpg","38","restless",0.6,0.5,0.5,0.454029408553163,"true"
"image-keyboard-response",315,290525,"0.0-3.101-1.101","r3a8kd6jh5ne2a8",446,"40.csv","","null","resources/maskTrios/BT2B.jpg","null","",NA,NA,NA,NA,""
"image-keyboard-response",316,291732,"0.0-3.101-2.101","r3a8kd6jh5ne2a8",446,"40.csv","","null","resources/images/coin2.png","null","",NA,NA,NA,NA,""
"image-keyboard-response",317,292226,"0.0-3.102-0.102","r3a8kd6jh5ne2a8",446,"40.csv","","492.60000002384186","resources/trios/L2T1A2.jpg","38","restless",0.6,0.5,0.5,0.0827958113959275,"true"
"image-keyboard-response",318,292630,"0.0-3.102-1.102","r3a8kd6jh5ne2a8",446,"40.csv","","null","resources/maskTrios/BT1B.jpg","null","",NA,NA,NA,NA,""
"image-keyboard-response",319,293836,"0.0-3.102-2.102","r3a8kd6jh5ne2a8",446,"40.csv","","null","resources/images/coin2.png","null","",NA,NA,NA,NA,""
"image-keyboard-response",320,298484,"0.0-3.103-0.103","r3a8kd6jh5ne2a8",446,"40.csv","","4645","resources/trios/L2T1A2.jpg","37","restless",0.7,0.5,0.5,0.223421312779706,"true"
"image-keyboard-response",321,298890,"0.0-3.103-1.103","r3a8kd6jh5ne2a8",446,"40.csv","","null","resources/maskTrios/L2BB.jpg","null","",NA,NA,NA,NA,""
"image-keyboard-response",322,300096,"0.0-3.103-2.103","r3a8kd6jh5ne2a8",446,"40.csv","","null","resources/images/coin2.png","null","",NA,NA,NA,NA,""
"image-keyboard-response",323,300617,"0.0-3.104-0.104","r3a8kd6jh5ne2a8",446,"40.csv","","518.4000000059605","resources/trios/L1T1A2.jpg","37","restless",0.7,0.5,0.5,0.295904404727441,"true"
"image-keyboard-response",324,301024,"0.0-3.104-1.104","r3a8kd6jh5ne2a8",446,"40.csv","","null","resources/maskTrios/L1BB.jpg","null","",NA,NA,NA,NA,""
"image-keyboard-response",325,302230,"0.0-3.104-2.104","r3a8kd6jh5ne2a8",446,"40.csv","","null","resources/images/coin2.png","null","",NA,NA,NA,NA,""
"image-keyboard-response",326,302853,"0.0-3.105-0.105","r3a8kd6jh5ne2a8",446,"40.csv","","620.9000000059605","resources/trios/L2T1A2.jpg","37","restless",0.7,0.5,0.5,0.431165915211061,"true"
"image-keyboard-response",327,303255,"0.0-3.105-1.105","r3a8kd6jh5ne2a8",446,"40.csv","","null","resources/maskTrios/L2BB.jpg","null","",NA,NA,NA,NA,""
"image-keyboard-response",328,304462,"0.0-3.105-2.105","r3a8kd6jh5ne2a8",446,"40.csv","","null","resources/images/coin2.png","null","",NA,NA,NA,NA,""
"image-keyboard-response",329,305427,"0.0-3.106-0.106","r3a8kd6jh5ne2a8",446,"40.csv","","962.8000000119209","resources/trios/L1T1A2.jpg","37","restless",0.7,0.5,0.5,0.223560350738101,"true"
"image-keyboard-response",330,305832,"0.0-3.106-1.106","r3a8kd6jh5ne2a8",446,"40.csv","","null","resources/maskTrios/L1BB.jpg","null","",NA,NA,NA,NA,""
"image-keyboard-response",331,307036,"0.0-3.106-2.106","r3a8kd6jh5ne2a8",446,"40.csv","","null","resources/images/coin2.png","null","",NA,NA,NA,NA,""
"image-keyboard-response",332,311848,"0.0-3.107-0.107","r3a8kd6jh5ne2a8",446,"40.csv","","4809.700000017881","resources/trios/L1T1A2.jpg","37","restless",0.6,0.5,0.5,0.387962362762684,"true"
"image-keyboard-response",333,312254,"0.0-3.107-1.107","r3a8kd6jh5ne2a8",446,"40.csv","","null","resources/maskTrios/L1BB.jpg","null","",NA,NA,NA,NA,""
"image-keyboard-response",334,313461,"0.0-3.107-2.107","r3a8kd6jh5ne2a8",446,"40.csv","","null","resources/images/coin2.png","null","",NA,NA,NA,NA,""
"image-keyboard-response",335,318051,"0.0-3.108-0.108","r3a8kd6jh5ne2a8",446,"40.csv","","4588","resources/trios/L1T1A3.jpg","37","restless",0.6,0.5,0.5,0.005508087390665,"true"
"image-keyboard-response",336,318457,"0.0-3.108-1.108","r3a8kd6jh5ne2a8",446,"40.csv","","null","resources/maskTrios/L1BB.jpg","null","",NA,NA,NA,NA,""
"image-keyboard-response",337,319663,"0.0-3.108-2.108","r3a8kd6jh5ne2a8",446,"40.csv","","null","resources/images/coin2.png","null","",NA,NA,NA,NA,""
"image-keyboard-response",338,326932,"0.0-3.109-0.109","r3a8kd6jh5ne2a8",446,"40.csv","","7268.100000023842","resources/trios/L1T2A2.jpg","37","restless",0.6,0.5,0.5,0.16548861005816,"true"
"image-keyboard-response",339,327336,"0.0-3.109-1.109","r3a8kd6jh5ne2a8",446,"40.csv","","null","resources/maskTrios/L1BB.jpg","null","",NA,NA,NA,NA,""
"image-keyboard-response",340,328538,"0.0-3.109-2.109","r3a8kd6jh5ne2a8",446,"40.csv","","null","resources/images/coin2.png","null","",NA,NA,NA,NA,""
"image-keyboard-response",341,330641,"0.0-3.110-0.110","r3a8kd6jh5ne2a8",446,"40.csv","","2100.5999999940395","resources/trios/L2T1A2.jpg","37","restless",0.6,0.5,0.5,0.902075435851822,"false"
"image-keyboard-response",342,331047,"0.0-3.110-1.110","r3a8kd6jh5ne2a8",446,"40.csv","","null","resources/maskTrios/L2BB.jpg","null","",NA,NA,NA,NA,""
"image-keyboard-response",343,332254,"0.0-3.110-2.110","r3a8kd6jh5ne2a8",446,"40.csv","","null","resources/images/fishbone.png","null","",NA,NA,NA,NA,""
"image-keyboard-response",344,337394,"0.0-3.111-0.111","r3a8kd6jh5ne2a8",446,"40.csv","","5137.9000000059605","resources/trios/L2T1A3.jpg","37","restless",0.6,0.5,0.5,0.913596015633464,"false"
"image-keyboard-response",345,337801,"0.0-3.111-1.111","r3a8kd6jh5ne2a8",446,"40.csv","","null","resources/maskTrios/L2BB.jpg","null","",NA,NA,NA,NA,""
"image-keyboard-response",346,339005,"0.0-3.111-2.111","r3a8kd6jh5ne2a8",446,"40.csv","","null","resources/images/fishbone.png","null","",NA,NA,NA,NA,""
"image-keyboard-response",347,341295,"0.0-3.112-0.112","r3a8kd6jh5ne2a8",446,"40.csv","","2287.699999988079","resources/trios/L1T1A3.jpg","38","restless",0.6,0.5,0.5,0.653375869434023,"false"
"image-keyboard-response",348,341702,"0.0-3.112-1.112","r3a8kd6jh5ne2a8",446,"40.csv","","null","resources/maskTrios/BT1B.jpg","null","",NA,NA,NA,NA,""
"image-keyboard-response",349,342909,"0.0-3.112-2.112","r3a8kd6jh5ne2a8",446,"40.csv","","null","resources/images/fishbone.png","null","",NA,NA,NA,NA,""
"image-keyboard-response",350,346548,"0.0-3.113-0.113","r3a8kd6jh5ne2a8",446,"40.csv","","3636.300000011921","resources/trios/L2T2A3.jpg","38","restless",0.6,0.5,0.6,0.744369098883748,"false"
"image-keyboard-response",351,346955,"0.0-3.113-1.113","r3a8kd6jh5ne2a8",446,"40.csv","","null","resources/maskTrios/BT2B.jpg","null","",NA,NA,NA,NA,""
"image-keyboard-response",352,348159,"0.0-3.113-2.113","r3a8kd6jh5ne2a8",446,"40.csv","","null","resources/images/fishbone.png","null","",NA,NA,NA,NA,""
"image-keyboard-response",353,348723,"0.0-3.114-0.114","r3a8kd6jh5ne2a8",446,"40.csv","","561.5","resources/trios/L2T2A2.jpg","39","restless",0.6,0.5,0.6,0.248559023295305,"true"
"image-keyboard-response",354,349130,"0.0-3.114-1.114","r3a8kd6jh5ne2a8",446,"40.csv","","null","resources/maskTrios/BBA2.jpg","null","",NA,NA,NA,NA,""
"image-keyboard-response",355,350338,"0.0-3.114-2.114","r3a8kd6jh5ne2a8",446,"40.csv","","null","resources/images/coin2.png","null","",NA,NA,NA,NA,""
"image-keyboard-response",356,352485,"0.0-3.115-0.115","r3a8kd6jh5ne2a8",446,"40.csv","","2145.5","resources/trios/L1T2A3.jpg","39","restless",0.6,0.5,0.6,0.510348516745057,"true"
"image-keyboard-response",357,352889,"0.0-3.115-1.115","r3a8kd6jh5ne2a8",446,"40.csv","","null","resources/maskTrios/BBA3.jpg","null","",NA,NA,NA,NA,""
"image-keyboard-response",358,354096,"0.0-3.115-2.115","r3a8kd6jh5ne2a8",446,"40.csv","","null","resources/images/coin2.png","null","",NA,NA,NA,NA,""
"image-keyboard-response",359,354706,"0.0-3.116-0.116","r3a8kd6jh5ne2a8",446,"40.csv","","607.4000000059605","resources/trios/L2T2A2.jpg","39","restless",0.6,0.5,0.6,0.399941903426602,"true"
"image-keyboard-response",360,355110,"0.0-3.116-1.116","r3a8kd6jh5ne2a8",446,"40.csv","","null","resources/maskTrios/BBA2.jpg","null","",NA,NA,NA,NA,""
"image-keyboard-response",361,356318,"0.0-3.116-2.116","r3a8kd6jh5ne2a8",446,"40.csv","","null","resources/images/coin2.png","null","",NA,NA,NA,NA,""
"image-keyboard-response",362,356486,"0.0-3.117-0.117","r3a8kd6jh5ne2a8",446,"40.csv","","166.39999997615814","resources/trios/L1T1A2.jpg","39","restless",0.6,0.5,0.6,0.681537350493281,"false"
"image-keyboard-response",363,356894,"0.0-3.117-1.117","r3a8kd6jh5ne2a8",446,"40.csv","","null","resources/maskTrios/BBA2.jpg","null","",NA,NA,NA,NA,""
"image-keyboard-response",364,358096,"0.0-3.117-2.117","r3a8kd6jh5ne2a8",446,"40.csv","","null","resources/images/fishbone.png","null","",NA,NA,NA,NA,""
"image-keyboard-response",365,358405,"0.0-3.118-0.118","r3a8kd6jh5ne2a8",446,"40.csv","","307","resources/trios/L1T2A2.jpg","37","restless",0.6,0.5,0.6,0.717254663933375,"false"
"image-keyboard-response",366,358812,"0.0-3.118-1.118","r3a8kd6jh5ne2a8",446,"40.csv","","null","resources/maskTrios/L1BB.jpg","null","",NA,NA,NA,NA,""
"image-keyboard-response",367,360017,"0.0-3.118-2.118","r3a8kd6jh5ne2a8",446,"40.csv","","null","resources/images/fishbone.png","null","",NA,NA,NA,NA,""
"image-keyboard-response",368,360356,"0.0-3.119-0.119","r3a8kd6jh5ne2a8",446,"40.csv","","337","resources/trios/L1T2A3.jpg","38","restless",0.6,0.5,0.6,0.568590063417063,"false"
"image-keyboard-response",369,360763,"0.0-3.119-1.119","r3a8kd6jh5ne2a8",446,"40.csv","","null","resources/maskTrios/BT2B.jpg","null","",NA,NA,NA,NA,""
"image-keyboard-response",370,361969,"0.0-3.119-2.119","r3a8kd6jh5ne2a8",446,"40.csv","","null","resources/images/fishbone.png","null","",NA,NA,NA,NA,""
"image-keyboard-response",371,364669,"0.0-3.120-0.120","r3a8kd6jh5ne2a8",446,"40.csv","","2698.0999999940395","resources/trios/L2T1A3.jpg","38","restless",0.6,0.6,0.6,0.918264834092667,"false"
"image-keyboard-response",372,365076,"0.0-3.120-1.120","r3a8kd6jh5ne2a8",446,"40.csv","","null","resources/maskTrios/BT1B.jpg","null","",NA,NA,NA,NA,""
"image-keyboard-response",373,366278,"0.0-3.120-2.120","r3a8kd6jh5ne2a8",446,"40.csv","","null","resources/images/fishbone.png","null","",NA,NA,NA,NA,""
"image-keyboard-response",374,369156,"0.0-3.121-0.121","r3a8kd6jh5ne2a8",446,"40.csv","","2875.300000011921","resources/trios/L2T1A3.jpg","37","restless",0.6,0.6,0.6,0.0487940583355297,"true"
"image-keyboard-response",375,369563,"0.0-3.121-1.121","r3a8kd6jh5ne2a8",446,"40.csv","","null","resources/maskTrios/L2BB.jpg","null","",NA,NA,NA,NA,""
"image-keyboard-response",376,370770,"0.0-3.121-2.121","r3a8kd6jh5ne2a8",446,"40.csv","","null","resources/images/coin2.png","null","",NA,NA,NA,NA,""
"image-keyboard-response",377,380272,"0.0-3.122-0.122","r3a8kd6jh5ne2a8",446,"40.csv","","9499.09999999404","resources/trios/L1T2A2.jpg","37","restless",0.6,0.6,0.6,0.824414242520302,"false"
"image-keyboard-response",378,380679,"0.0-3.122-1.122","r3a8kd6jh5ne2a8",446,"40.csv","","null","resources/maskTrios/L1BB.jpg","null","",NA,NA,NA,NA,""
"image-keyboard-response",379,381886,"0.0-3.122-2.122","r3a8kd6jh5ne2a8",446,"40.csv","","null","resources/images/fishbone.png","null","",NA,NA,NA,NA,""
"image-keyboard-response",380,382984,"0.0-3.123-0.123","r3a8kd6jh5ne2a8",446,"40.csv","","1096.0999999940395","resources/trios/L2T2A3.jpg","37","restless",0.6,0.6,0.6,0.629173753842126,"false"
"image-keyboard-response",381,383389,"0.0-3.123-1.123","r3a8kd6jh5ne2a8",446,"40.csv","","null","resources/maskTrios/L2BB.jpg","null","",NA,NA,NA,NA,""
"image-keyboard-response",382,384593,"0.0-3.123-2.123","r3a8kd6jh5ne2a8",446,"40.csv","","null","resources/images/fishbone.png","null","",NA,NA,NA,NA,""
"image-keyboard-response",383,385182,"0.0-3.124-0.124","r3a8kd6jh5ne2a8",446,"40.csv","","587.4000000059605","resources/trios/L1T2A3.jpg","39","restless",0.6,0.6,0.6,0.414587471911484,"true"
"image-keyboard-response",384,385590,"0.0-3.124-1.124","r3a8kd6jh5ne2a8",446,"40.csv","","null","resources/maskTrios/BBA3.jpg","null","",NA,NA,NA,NA,""
"image-keyboard-response",385,386797,"0.0-3.124-2.124","r3a8kd6jh5ne2a8",446,"40.csv","","null","resources/images/coin2.png","null","",NA,NA,NA,NA,""
"image-keyboard-response",386,387134,"0.0-3.125-0.125","r3a8kd6jh5ne2a8",446,"40.csv","","334.80000001192093","resources/trios/L2T2A3.jpg","39","restless",0.6,0.6,0.7,0.551121160753597,"true"
"image-keyboard-response",387,387537,"0.0-3.125-1.125","r3a8kd6jh5ne2a8",446,"40.csv","","null","resources/maskTrios/BBA3.jpg","null","",NA,NA,NA,NA,""
"image-keyboard-response",388,388742,"0.0-3.125-2.125","r3a8kd6jh5ne2a8",446,"40.csv","","null","resources/images/coin2.png","null","",NA,NA,NA,NA,""
"image-keyboard-response",389,389104,"0.0-3.126-0.126","r3a8kd6jh5ne2a8",446,"40.csv","","360.19999998807907","resources/trios/L1T1A2.jpg","39","restless",0.6,0.6,0.7,0.560423543878068,"true"
"image-keyboard-response",390,389512,"0.0-3.126-1.126","r3a8kd6jh5ne2a8",446,"40.csv","","null","resources/maskTrios/BBA2.jpg","null","",NA,NA,NA,NA,""
"image-keyboard-response",391,390719,"0.0-3.126-2.126","r3a8kd6jh5ne2a8",446,"40.csv","","null","resources/images/coin2.png","null","",NA,NA,NA,NA,""
"image-keyboard-response",392,391280,"0.0-3.127-0.127","r3a8kd6jh5ne2a8",446,"40.csv","","559.2999999821186","resources/trios/L1T2A2.jpg","39","restless",0.6,0.6,0.7,0.0473805356692962,"true"
"image-keyboard-response",393,391688,"0.0-3.127-1.127","r3a8kd6jh5ne2a8",446,"40.csv","","null","resources/maskTrios/BBA2.jpg","null","",NA,NA,NA,NA,""
"image-keyboard-response",394,392895,"0.0-3.127-2.127","r3a8kd6jh5ne2a8",446,"40.csv","","null","resources/images/coin2.png","null","",NA,NA,NA,NA,""
"image-keyboard-response",395,393214,"0.0-3.128-0.128","r3a8kd6jh5ne2a8",446,"40.csv","","316.90000000596046","resources/trios/L2T1A3.jpg","39","restless",0.6,0.6,0.7,0.0756177717460145,"true"
"image-keyboard-response",396,393621,"0.0-3.128-1.128","r3a8kd6jh5ne2a8",446,"40.csv","","null","resources/maskTrios/BBA3.jpg","null","",NA,NA,NA,NA,""
"image-keyboard-response",397,394828,"0.0-3.128-2.128","r3a8kd6jh5ne2a8",446,"40.csv","","null","resources/images/coin2.png","null","",NA,NA,NA,NA,""
"image-keyboard-response",398,395116,"0.0-3.129-0.129","r3a8kd6jh5ne2a8",446,"40.csv","","285","resources/trios/L2T2A2.jpg","39","restless",0.6,0.5,0.7,0.684461355326824,"true"
"image-keyboard-response",399,395523,"0.0-3.129-1.129","r3a8kd6jh5ne2a8",446,"40.csv","","null","resources/maskTrios/BBA2.jpg","null","",NA,NA,NA,NA,""
"image-keyboard-response",400,396730,"0.0-3.129-2.129","r3a8kd6jh5ne2a8",446,"40.csv","","null","resources/images/coin2.png","null","",NA,NA,NA,NA,""
"image-keyboard-response",401,396977,"0.0-3.130-0.130","r3a8kd6jh5ne2a8",446,"40.csv","","245.09999999403954","resources/trios/L2T2A3.jpg","39","restless",0.6,0.5,0.7,0.822456358303938,"false"
"image-keyboard-response",402,397385,"0.0-3.130-1.130","r3a8kd6jh5ne2a8",446,"40.csv","","null","resources/maskTrios/BBA3.jpg","null","",NA,NA,NA,NA,""
"image-keyboard-response",403,398592,"0.0-3.130-2.130","r3a8kd6jh5ne2a8",446,"40.csv","","null","resources/images/fishbone.png","null","",NA,NA,NA,NA,""
"image-keyboard-response",404,399156,"0.0-3.131-0.131","r3a8kd6jh5ne2a8",446,"40.csv","","562.0999999940395","resources/trios/L1T2A2.jpg","37","restless",0.6,0.5,0.8,0.347311222099287,"true"
"image-keyboard-response",405,399563,"0.0-3.131-1.131","r3a8kd6jh5ne2a8",446,"40.csv","","null","resources/maskTrios/L1BB.jpg","null","",NA,NA,NA,NA,""
"image-keyboard-response",406,400770,"0.0-3.131-2.131","r3a8kd6jh5ne2a8",446,"40.csv","","null","resources/images/coin2.png","null","",NA,NA,NA,NA,""
"image-keyboard-response",407,401888,"0.0-3.132-0.132","r3a8kd6jh5ne2a8",446,"40.csv","","1115.5999999940395","resources/trios/L1T2A2.jpg","37","restless",0.6,0.5,0.7,0.0778754262724315,"true"
"image-keyboard-response",408,402295,"0.0-3.132-1.132","r3a8kd6jh5ne2a8",446,"40.csv","","null","resources/maskTrios/L1BB.jpg","null","",NA,NA,NA,NA,""
"image-keyboard-response",409,403502,"0.0-3.132-2.132","r3a8kd6jh5ne2a8",446,"40.csv","","null","resources/images/coin2.png","null","",NA,NA,NA,NA,""
"image-keyboard-response",410,404352,"0.0-3.133-0.133","r3a8kd6jh5ne2a8",446,"40.csv","","847.6999999880791","resources/trios/L1T1A3.jpg","37","restless",0.6,0.5,0.8,0.410418173814622,"true"
"image-keyboard-response",411,404760,"0.0-3.133-1.133","r3a8kd6jh5ne2a8",446,"40.csv","","null","resources/maskTrios/L1BB.jpg","null","",NA,NA,NA,NA,""
"image-keyboard-response",412,405967,"0.0-3.133-2.133","r3a8kd6jh5ne2a8",446,"40.csv","","null","resources/images/coin2.png","null","",NA,NA,NA,NA,""
"image-keyboard-response",413,409180,"0.0-3.134-0.134","r3a8kd6jh5ne2a8",446,"40.csv","","3210.5","resources/trios/L2T2A2.jpg","37","restless",0.6,0.5,0.8,0.276062083792627,"true"
"image-keyboard-response",414,409587,"0.0-3.134-1.134","r3a8kd6jh5ne2a8",446,"40.csv","","null","resources/maskTrios/L2BB.jpg","null","",NA,NA,NA,NA,""
"image-keyboard-response",415,410794,"0.0-3.134-2.134","r3a8kd6jh5ne2a8",446,"40.csv","","null","resources/images/coin2.png","null","",NA,NA,NA,NA,""
"image-keyboard-response",416,411229,"0.0-3.135-0.135","r3a8kd6jh5ne2a8",446,"40.csv","","432.60000002384186","resources/trios/L1T1A3.jpg","37","restless",0.6,0.5,0.8,0.658763127399728,"false"
"image-keyboard-response",417,411636,"0.0-3.135-1.135","r3a8kd6jh5ne2a8",446,"40.csv","","null","resources/maskTrios/L1BB.jpg","null","",NA,NA,NA,NA,""
"image-keyboard-response",418,412843,"0.0-3.135-2.135","r3a8kd6jh5ne2a8",446,"40.csv","","null","resources/images/fishbone.png","null","",NA,NA,NA,NA,""
"image-keyboard-response",419,413301,"0.0-3.136-0.136","r3a8kd6jh5ne2a8",446,"40.csv","","456.19999998807907","resources/trios/L2T2A3.jpg","39","restless",0.6,0.5,0.8,0.804357993999525,"false"
"image-keyboard-response",420,413708,"0.0-3.136-1.136","r3a8kd6jh5ne2a8",446,"40.csv","","null","resources/maskTrios/BBA3.jpg","null","",NA,NA,NA,NA,""
"image-keyboard-response",421,414913,"0.0-3.136-2.136","r3a8kd6jh5ne2a8",446,"40.csv","","null","resources/images/fishbone.png","null","",NA,NA,NA,NA,""
"image-keyboard-response",422,415957,"0.0-3.137-0.137","r3a8kd6jh5ne2a8",446,"40.csv","","1042.4000000059605","resources/trios/L2T1A3.jpg","38","restless",0.6,0.5,0.8,0.746648391418515,"false"
"image-keyboard-response",423,416361,"0.0-3.137-1.137","r3a8kd6jh5ne2a8",446,"40.csv","","null","resources/maskTrios/BT1B.jpg","null","",NA,NA,NA,NA,""
"image-keyboard-response",424,417566,"0.0-3.137-2.137","r3a8kd6jh5ne2a8",446,"40.csv","","null","resources/images/fishbone.png","null","",NA,NA,NA,NA,""
"image-keyboard-response",425,418284,"0.0-3.138-0.138","r3a8kd6jh5ne2a8",446,"40.csv","","715.7000000178814","resources/trios/L1T1A3.jpg","37","restless",0.6,0.5,0.8,0.731954131346641,"false"
"image-keyboard-response",426,418691,"0.0-3.138-1.138","r3a8kd6jh5ne2a8",446,"40.csv","","null","resources/maskTrios/L1BB.jpg","null","",NA,NA,NA,NA,""
"image-keyboard-response",427,419894,"0.0-3.138-2.138","r3a8kd6jh5ne2a8",446,"40.csv","","null","resources/images/fishbone.png","null","",NA,NA,NA,NA,""
"image-keyboard-response",428,420268,"0.0-3.139-0.139","r3a8kd6jh5ne2a8",446,"40.csv","","371.5","resources/trios/L1T2A2.jpg","39","restless",0.6,0.5,0.8,0.0614646167357791,"true"
"image-keyboard-response",429,420675,"0.0-3.139-1.139","r3a8kd6jh5ne2a8",446,"40.csv","","null","resources/maskTrios/BBA2.jpg","null","",NA,NA,NA,NA,""
"image-keyboard-response",430,421883,"0.0-3.139-2.139","r3a8kd6jh5ne2a8",446,"40.csv","","null","resources/images/coin2.png","null","",NA,NA,NA,NA,""
"image-keyboard-response",431,422300,"0.0-3.140-0.140","r3a8kd6jh5ne2a8",446,"40.csv","","414.69999998807907","resources/trios/L1T2A3.jpg","39","restless",0.6,0.5,0.8,0.379617750310093,"true"
"image-keyboard-response",432,422707,"0.0-3.140-1.140","r3a8kd6jh5ne2a8",446,"40.csv","","null","resources/maskTrios/BBA3.jpg","null","",NA,NA,NA,NA,""
"image-keyboard-response",433,423914,"0.0-3.140-2.140","r3a8kd6jh5ne2a8",446,"40.csv","","null","resources/images/coin2.png","null","",NA,NA,NA,NA,""
"image-keyboard-response",434,424255,"0.0-3.141-0.141","r3a8kd6jh5ne2a8",446,"40.csv","","338.5","resources/trios/L2T1A3.jpg","39","restless",0.6,0.5,0.8,0.606720586934769,"true"
"image-keyboard-response",435,424663,"0.0-3.141-1.141","r3a8kd6jh5ne2a8",446,"40.csv","","null","resources/maskTrios/BBA3.jpg","null","",NA,NA,NA,NA,""
"image-keyboard-response",436,425870,"0.0-3.141-2.141","r3a8kd6jh5ne2a8",446,"40.csv","","null","resources/images/coin2.png","null","",NA,NA,NA,NA,""
"image-keyboard-response",437,426185,"0.0-3.142-0.142","r3a8kd6jh5ne2a8",446,"40.csv","","312.80000001192093","resources/trios/L2T1A3.jpg","39","restless",0.6,0.5,0.8,0.0848224485490878,"true"
"image-keyboard-response",438,426592,"0.0-3.142-1.142","r3a8kd6jh5ne2a8",446,"40.csv","","null","resources/maskTrios/BBA3.jpg","null","",NA,NA,NA,NA,""
"image-keyboard-response",439,427799,"0.0-3.142-2.142","r3a8kd6jh5ne2a8",446,"40.csv","","null","resources/images/coin2.png","null","",NA,NA,NA,NA,""
"image-keyboard-response",440,428335,"0.0-3.143-0.143","r3a8kd6jh5ne2a8",446,"40.csv","","533.2999999821186","resources/trios/L1T1A3.jpg","39","restless",0.6,0.5,0.8,0.667307723877369,"true"
"image-keyboard-response",441,428739,"0.0-3.143-1.143","r3a8kd6jh5ne2a8",446,"40.csv","","null","resources/maskTrios/BBA3.jpg","null","",NA,NA,NA,NA,""
"image-keyboard-response",442,429942,"0.0-3.143-2.143","r3a8kd6jh5ne2a8",446,"40.csv","","null","resources/images/coin2.png","null","",NA,NA,NA,NA,""
"image-keyboard-response",443,430846,"0.0-3.144-0.144","r3a8kd6jh5ne2a8",446,"40.csv","","901.9000000059605","resources/trios/L1T1A3.jpg","37","restless",0.6,0.5,0.8,0.880465162959752,"false"
"image-keyboard-response",444,431253,"0.0-3.144-1.144","r3a8kd6jh5ne2a8",446,"40.csv","","null","resources/maskTrios/L1BB.jpg","null","",NA,NA,NA,NA,""
"image-keyboard-response",445,432460,"0.0-3.144-2.144","r3a8kd6jh5ne2a8",446,"40.csv","","null","resources/images/fishbone.png","null","",NA,NA,NA,NA,""
"image-keyboard-response",446,432801,"0.0-3.145-0.145","r3a8kd6jh5ne2a8",446,"40.csv","","338.5","resources/trios/L1T2A3.jpg","39","restless",0.6,0.5,0.8,0.0273832080979646,"true"
"image-keyboard-response",447,433208,"0.0-3.145-1.145","r3a8kd6jh5ne2a8",446,"40.csv","","null","resources/maskTrios/BBA3.jpg","null","",NA,NA,NA,NA,""
"image-keyboard-response",448,434415,"0.0-3.145-2.145","r3a8kd6jh5ne2a8",446,"40.csv","","null","resources/images/coin2.png","null","",NA,NA,NA,NA,""
"image-keyboard-response",449,434768,"0.0-3.146-0.146","r3a8kd6jh5ne2a8",446,"40.csv","","350.80000001192093","resources/trios/L2T1A2.jpg","39","restless",0.6,0.5,0.7,0.419229093527001,"true"
"image-keyboard-response",450,435173,"0.0-3.146-1.146","r3a8kd6jh5ne2a8",446,"40.csv","","null","resources/maskTrios/BBA2.jpg","null","",NA,NA,NA,NA,""
"image-keyboard-response",451,436380,"0.0-3.146-2.146","r3a8kd6jh5ne2a8",446,"40.csv","","null","resources/images/coin2.png","null","",NA,NA,NA,NA,""
"image-keyboard-response",452,437439,"0.0-3.147-0.147","r3a8kd6jh5ne2a8",446,"40.csv","","1056.699999988079","resources/trios/L2T1A2.jpg","39","restless",0.6,0.5,0.6,0.0814281119154556,"true"
"image-keyboard-response",453,437846,"0.0-3.147-1.147","r3a8kd6jh5ne2a8",446,"40.csv","","null","resources/maskTrios/BBA2.jpg","null","",NA,NA,NA,NA,""
"image-keyboard-response",454,439053,"0.0-3.147-2.147","r3a8kd6jh5ne2a8",446,"40.csv","","null","resources/images/coin2.png","null","",NA,NA,NA,NA,""
"image-keyboard-response",455,440164,"0.0-3.148-0.148","r3a8kd6jh5ne2a8",446,"40.csv","","1109.4000000059605","resources/trios/L2T2A2.jpg","39","restless",0.6,0.4,0.6,0.125562780118374,"true"
"image-keyboard-response",456,440571,"0.0-3.148-1.148","r3a8kd6jh5ne2a8",446,"40.csv","","null","resources/maskTrios/BBA2.jpg","null","",NA,NA,NA,NA,""
"image-keyboard-response",457,441776,"0.0-3.148-2.148","r3a8kd6jh5ne2a8",446,"40.csv","","null","resources/images/coin2.png","null","",NA,NA,NA,NA,""
"image-keyboard-response",458,442119,"0.0-3.149-0.149","r3a8kd6jh5ne2a8",446,"40.csv","","340.19999998807907","resources/trios/L1T1A2.jpg","39","restless",0.6,0.4,0.6,0.431437627993354,"true"
"image-keyboard-response",459,442524,"0.0-3.149-1.149","r3a8kd6jh5ne2a8",446,"40.csv","","null","resources/maskTrios/BBA2.jpg","null","",NA,NA,NA,NA,""
"image-keyboard-response",460,443732,"0.0-3.149-2.149","r3a8kd6jh5ne2a8",446,"40.csv","","null","resources/images/coin2.png","null","",NA,NA,NA,NA,""
"image-keyboard-response",461,444050,"0.0-3.150-0.150","r3a8kd6jh5ne2a8",446,"40.csv","","316.19999998807907","resources/trios/L2T1A2.jpg","39","restless",0.6,0.4,0.6,0.506818063814302,"true"
"image-keyboard-response",462,444457,"0.0-3.150-1.150","r3a8kd6jh5ne2a8",446,"40.csv","","null","resources/maskTrios/BBA2.jpg","null","",NA,NA,NA,NA,""
"image-keyboard-response",463,445665,"0.0-3.150-2.150","r3a8kd6jh5ne2a8",446,"40.csv","","null","resources/images/coin2.png","null","",NA,NA,NA,NA,""
"image-keyboard-response",464,445831,"0.0-3.151-0.151","r3a8kd6jh5ne2a8",446,"40.csv","","164.30000001192093","resources/trios/L2T1A3.jpg","39","restless",0.6,0.5,0.6,0.0352799066472482,"true"
"image-keyboard-response",465,446239,"0.0-3.151-1.151","r3a8kd6jh5ne2a8",446,"40.csv","","null","resources/maskTrios/BBA3.jpg","null","",NA,NA,NA,NA,""
"image-keyboard-response",466,447446,"0.0-3.151-2.151","r3a8kd6jh5ne2a8",446,"40.csv","","null","resources/images/coin2.png","null","",NA,NA,NA,NA,""
"image-keyboard-response",467,447827,"0.0-3.152-0.152","r3a8kd6jh5ne2a8",446,"40.csv","","378.69999998807907","resources/trios/L2T2A3.jpg","39","restless",0.6,0.5,0.5,0.501144297276595,"false"
"image-keyboard-response",468,448230,"0.0-3.152-1.152","r3a8kd6jh5ne2a8",446,"40.csv","","null","resources/maskTrios/BBA3.jpg","null","",NA,NA,NA,NA,""
"image-keyboard-response",469,449437,"0.0-3.152-2.152","r3a8kd6jh5ne2a8",446,"40.csv","","null","resources/images/fishbone.png","null","",NA,NA,NA,NA,""
"image-keyboard-response",470,450352,"0.0-3.153-0.153","r3a8kd6jh5ne2a8",446,"40.csv","","912.5999999940395","resources/trios/L2T2A3.jpg","37","restless",0.6,0.5,0.5,0.411037020629658,"true"
"image-keyboard-response",471,450756,"0.0-3.153-1.153","r3a8kd6jh5ne2a8",446,"40.csv","","null","resources/maskTrios/L2BB.jpg","null","",NA,NA,NA,NA,""
"image-keyboard-response",472,451963,"0.0-3.153-2.153","r3a8kd6jh5ne2a8",446,"40.csv","","null","resources/images/coin2.png","null","",NA,NA,NA,NA,""
"image-keyboard-response",473,452429,"0.0-3.154-0.154","r3a8kd6jh5ne2a8",446,"40.csv","","463.40000000596046","resources/trios/L1T2A2.jpg","37","restless",0.6,0.5,0.5,0.687723634567643,"false"
"image-keyboard-response",474,452836,"0.0-3.154-1.154","r3a8kd6jh5ne2a8",446,"40.csv","","null","resources/maskTrios/L1BB.jpg","null","",NA,NA,NA,NA,""
"image-keyboard-response",475,454043,"0.0-3.154-2.154","r3a8kd6jh5ne2a8",446,"40.csv","","null","resources/images/fishbone.png","null","",NA,NA,NA,NA,""
"image-keyboard-response",476,454327,"0.0-3.155-0.155","r3a8kd6jh5ne2a8",446,"40.csv","","281.60000002384186","resources/trios/L2T2A3.jpg","39","restless",0.6,0.5,0.5,0.758827199735284,"false"
"image-keyboard-response",477,454733,"0.0-3.155-1.155","r3a8kd6jh5ne2a8",446,"40.csv","","null","resources/maskTrios/BBA3.jpg","null","",NA,NA,NA,NA,""
"image-keyboard-response",478,455936,"0.0-3.155-2.155","r3a8kd6jh5ne2a8",446,"40.csv","","null","resources/images/fishbone.png","null","",NA,NA,NA,NA,""
"image-keyboard-response",479,456221,"0.0-3.156-0.156","r3a8kd6jh5ne2a8",446,"40.csv","","281.2000000178814","resources/trios/L2T1A2.jpg","38","restless",0.6,0.5,0.5,0.943797323623444,"false"
"image-keyboard-response",480,456628,"0.0-3.156-1.156","r3a8kd6jh5ne2a8",446,"40.csv","","null","resources/maskTrios/BT1B.jpg","null","",NA,NA,NA,NA,""
"image-keyboard-response",481,457830,"0.0-3.156-2.156","r3a8kd6jh5ne2a8",446,"40.csv","","null","resources/images/fishbone.png","null","",NA,NA,NA,NA,""
"image-keyboard-response",482,458444,"0.0-3.157-0.157","r3a8kd6jh5ne2a8",446,"40.csv","","611.1999999880791","resources/trios/L1T2A2.jpg","39","restless",0.6,0.5,0.5,0.847464693882838,"false"
"image-keyboard-response",483,458849,"0.0-3.157-1.157","r3a8kd6jh5ne2a8",446,"40.csv","","null","resources/maskTrios/BBA2.jpg","null","",NA,NA,NA,NA,""
"image-keyboard-response",484,460055,"0.0-3.157-2.157","r3a8kd6jh5ne2a8",446,"40.csv","","null","resources/images/fishbone.png","null","",NA,NA,NA,NA,""
"image-keyboard-response",485,460494,"0.0-3.158-0.158","r3a8kd6jh5ne2a8",446,"40.csv","","435.59999999403954","resources/trios/L2T2A2.jpg","37","restless",0.6,0.6,0.5,0.856259309791634,"false"
"image-keyboard-response",486,460901,"0.0-3.158-1.158","r3a8kd6jh5ne2a8",446,"40.csv","","null","resources/maskTrios/L2BB.jpg","null","",NA,NA,NA,NA,""
"image-keyboard-response",487,462108,"0.0-3.158-2.158","r3a8kd6jh5ne2a8",446,"40.csv","","null","resources/images/fishbone.png","null","",NA,NA,NA,NA,""
"image-keyboard-response",488,462711,"0.0-3.159-0.159","r3a8kd6jh5ne2a8",446,"40.csv","","601.0999999940395","resources/trios/L2T2A3.jpg","38","restless",0.6,0.6,0.5,0.00976637555034543,"true"
"image-keyboard-response",489,463119,"0.0-3.159-1.159","r3a8kd6jh5ne2a8",446,"40.csv","","null","resources/maskTrios/BT2B.jpg","null","",NA,NA,NA,NA,""
"image-keyboard-response",490,464326,"0.0-3.159-2.159","r3a8kd6jh5ne2a8",446,"40.csv","","null","resources/images/coin2.png","null","",NA,NA,NA,NA,""
"image-keyboard-response",491,464938,"0.0-3.160-0.160","r3a8kd6jh5ne2a8",446,"40.csv","","609.9000000059605","resources/trios/L1T1A2.jpg","38","restless",0.6,0.6,0.5,0.690800532077005,"false"
"image-keyboard-response",492,465340,"0.0-3.160-1.160","r3a8kd6jh5ne2a8",446,"40.csv","","null","resources/maskTrios/BT1B.jpg","null","",NA,NA,NA,NA,""
"image-keyboard-response",493,466547,"0.0-3.160-2.160","r3a8kd6jh5ne2a8",446,"40.csv","","null","resources/images/fishbone.png","null","",NA,NA,NA,NA,""
"image-keyboard-response",494,466886,"0.0-3.161-0.161","r3a8kd6jh5ne2a8",446,"40.csv","","336.89999997615814","resources/trios/L1T2A2.jpg","39","restless",0.6,0.6,0.5,0.412970530998509,"true"
"image-keyboard-response",495,467293,"0.0-3.161-1.161","r3a8kd6jh5ne2a8",446,"40.csv","","null","resources/maskTrios/BBA2.jpg","null","",NA,NA,NA,NA,""
"image-keyboard-response",496,468500,"0.0-3.161-2.161","r3a8kd6jh5ne2a8",446,"40.csv","","null","resources/images/coin2.png","null","",NA,NA,NA,NA,""
"image-keyboard-response",497,468872,"0.0-3.162-0.162","r3a8kd6jh5ne2a8",446,"40.csv","","370.2000000178814","resources/trios/L2T2A2.jpg","39","restless",0.6,0.6,0.5,0.113736495085139,"true"
"image-keyboard-response",498,469276,"0.0-3.162-1.162","r3a8kd6jh5ne2a8",446,"40.csv","","null","resources/maskTrios/BBA2.jpg","null","",NA,NA,NA,NA,""
"image-keyboard-response",499,470483,"0.0-3.162-2.162","r3a8kd6jh5ne2a8",446,"40.csv","","null","resources/images/coin2.png","null","",NA,NA,NA,NA,""
"image-keyboard-response",500,470899,"0.0-3.163-0.163","r3a8kd6jh5ne2a8",446,"40.csv","","413.40000000596046","resources/trios/L2T2A3.jpg","39","restless",0.5,0.6,0.5,0.53059793784193,"false"
"image-keyboard-response",501,471302,"0.0-3.163-1.163","r3a8kd6jh5ne2a8",446,"40.csv","","null","resources/maskTrios/BBA3.jpg","null","",NA,NA,NA,NA,""
"image-keyboard-response",502,472509,"0.0-3.163-2.163","r3a8kd6jh5ne2a8",446,"40.csv","","null","resources/images/fishbone.png","null","",NA,NA,NA,NA,""
"image-keyboard-response",503,473626,"0.0-3.164-0.164","r3a8kd6jh5ne2a8",446,"40.csv","","1114.300000011921","resources/trios/L2T2A2.jpg","37","restless",0.4,0.6,0.5,0.60840984344596,"false"
"image-keyboard-response",504,474033,"0.0-3.164-1.164","r3a8kd6jh5ne2a8",446,"40.csv","","null","resources/maskTrios/L2BB.jpg","null","",NA,NA,NA,NA,""
"image-keyboard-response",505,475240,"0.0-3.164-2.164","r3a8kd6jh5ne2a8",446,"40.csv","","null","resources/images/fishbone.png","null","",NA,NA,NA,NA,""
"image-keyboard-response",506,475661,"0.0-3.165-0.165","r3a8kd6jh5ne2a8",446,"40.csv","","418.59999999403954","resources/trios/L2T2A3.jpg","37","restless",0.4,0.5,0.5,0.484305434849133,"false"
"image-keyboard-response",507,476064,"0.0-3.165-1.165","r3a8kd6jh5ne2a8",446,"40.csv","","null","resources/maskTrios/L2BB.jpg","null","",NA,NA,NA,NA,""
"image-keyboard-response",508,477268,"0.0-3.165-2.165","r3a8kd6jh5ne2a8",446,"40.csv","","null","resources/images/fishbone.png","null","",NA,NA,NA,NA,""
"image-keyboard-response",509,477616,"0.0-3.166-0.166","r3a8kd6jh5ne2a8",446,"40.csv","","345.19999998807907","resources/trios/L2T2A2.jpg","37","restless",0.4,0.5,0.5,0.619017517850277,"false"
"image-keyboard-response",510,478022,"0.0-3.166-1.166","r3a8kd6jh5ne2a8",446,"40.csv","","null","resources/maskTrios/L2BB.jpg","null","",NA,NA,NA,NA,""
"image-keyboard-response",511,479229,"0.0-3.166-2.166","r3a8kd6jh5ne2a8",446,"40.csv","","null","resources/images/fishbone.png","null","",NA,NA,NA,NA,""
"image-keyboard-response",512,479649,"0.0-3.167-0.167","r3a8kd6jh5ne2a8",446,"40.csv","","417.09999999403954","resources/trios/L2T1A2.jpg","39","restless",0.4,0.5,0.5,0.11129050261008,"true"
"image-keyboard-response",513,480052,"0.0-3.167-1.167","r3a8kd6jh5ne2a8",446,"40.csv","","null","resources/maskTrios/BBA2.jpg","null","",NA,NA,NA,NA,""
"image-keyboard-response",514,481260,"0.0-3.167-2.167","r3a8kd6jh5ne2a8",446,"40.csv","","null","resources/images/coin2.png","null","",NA,NA,NA,NA,""
"image-keyboard-response",515,481679,"0.0-3.168-0.168","r3a8kd6jh5ne2a8",446,"40.csv","","416.80000001192093","resources/trios/L2T1A2.jpg","39","restless",0.4,0.5,0.5,0.341972081121358,"true"
"image-keyboard-response",516,482082,"0.0-3.168-1.168","r3a8kd6jh5ne2a8",446,"40.csv","","null","resources/maskTrios/BBA2.jpg","null","",NA,NA,NA,NA,""
"image-keyboard-response",517,483290,"0.0-3.168-2.168","r3a8kd6jh5ne2a8",446,"40.csv","","null","resources/images/coin2.png","null","",NA,NA,NA,NA,""
"image-keyboard-response",518,484029,"0.0-3.169-0.169","r3a8kd6jh5ne2a8",446,"40.csv","","736.8000000119209","resources/trios/L2T1A3.jpg","39","restless",0.3,0.6,0.5,0.0624852916379997,"true"
"image-keyboard-response",519,484435,"0.0-3.169-1.169","r3a8kd6jh5ne2a8",446,"40.csv","","null","resources/maskTrios/BBA3.jpg","null","",NA,NA,NA,NA,""
"image-keyboard-response",520,485642,"0.0-3.169-2.169","r3a8kd6jh5ne2a8",446,"40.csv","","null","resources/images/coin2.png","null","",NA,NA,NA,NA,""
"image-keyboard-response",521,485780,"0.0-3.170-0.170","r3a8kd6jh5ne2a8",446,"40.csv","","135","resources/trios/L1T1A2.jpg","39","restless",0.3,0.6,0.5,0.635734886384759,"false"
"image-keyboard-response",522,486185,"0.0-3.170-1.170","r3a8kd6jh5ne2a8",446,"40.csv","","null","resources/maskTrios/BBA2.jpg","null","",NA,NA,NA,NA,""
"image-keyboard-response",523,487388,"0.0-3.170-2.170","r3a8kd6jh5ne2a8",446,"40.csv","","null","resources/images/fishbone.png","null","",NA,NA,NA,NA,""
"image-keyboard-response",524,487506,"0.0-3.171-0.171","r3a8kd6jh5ne2a8",446,"40.csv","","116.2999999821186","resources/trios/L1T2A2.jpg","38","restless",0.3,0.6,0.5,0.225062564676473,"true"
"image-keyboard-response",525,487914,"0.0-3.171-1.171","r3a8kd6jh5ne2a8",446,"40.csv","","null","resources/maskTrios/BT2B.jpg","null","",NA,NA,NA,NA,""
"image-keyboard-response",526,489118,"0.0-3.171-2.171","r3a8kd6jh5ne2a8",446,"40.csv","","null","resources/images/coin2.png","null","",NA,NA,NA,NA,""
"image-keyboard-response",527,492082,"0.0-3.172-0.172","r3a8kd6jh5ne2a8",446,"40.csv","","2961.199999988079","resources/trios/L2T1A2.jpg","38","restless",0.3,0.6,0.5,0.0855793768078565,"true"
"image-keyboard-response",528,492488,"0.0-3.172-1.172","r3a8kd6jh5ne2a8",446,"40.csv","","null","resources/maskTrios/BT1B.jpg","null","",NA,NA,NA,NA,""
"image-keyboard-response",529,493691,"0.0-3.172-2.172","r3a8kd6jh5ne2a8",446,"40.csv","","null","resources/images/coin2.png","null","",NA,NA,NA,NA,""
"image-keyboard-response",530,493872,"0.0-3.173-0.173","r3a8kd6jh5ne2a8",446,"40.csv","","178.5","resources/trios/L1T2A2.jpg","39","restless",0.3,0.6,0.5,0.334343361900118,"true"
"image-keyboard-response",531,494279,"0.0-3.173-1.173","r3a8kd6jh5ne2a8",446,"40.csv","","null","resources/maskTrios/BBA2.jpg","null","",NA,NA,NA,NA,""
"image-keyboard-response",532,495484,"0.0-3.173-2.173","r3a8kd6jh5ne2a8",446,"40.csv","","null","resources/images/coin2.png","null","",NA,NA,NA,NA,""
"image-keyboard-response",533,496197,"0.0-3.174-0.174","r3a8kd6jh5ne2a8",446,"40.csv","","710.8000000119209","resources/trios/L2T1A2.jpg","39","restless",0.2,0.6,0.5,0.443908314403115,"true"
"image-keyboard-response",534,496604,"0.0-3.174-1.174","r3a8kd6jh5ne2a8",446,"40.csv","","null","resources/maskTrios/BBA2.jpg","null","",NA,NA,NA,NA,""
"image-keyboard-response",535,497810,"0.0-3.174-2.174","r3a8kd6jh5ne2a8",446,"40.csv","","null","resources/images/coin2.png","null","",NA,NA,NA,NA,""
"image-keyboard-response",536,498130,"0.0-3.175-0.175","r3a8kd6jh5ne2a8",446,"40.csv","","318.40000000596046","resources/trios/L2T1A2.jpg","39","restless",0.2,0.6,0.5,0.0638147094469372,"true"
"image-keyboard-response",537,498538,"0.0-3.175-1.175","r3a8kd6jh5ne2a8",446,"40.csv","","null","resources/maskTrios/BBA2.jpg","null","",NA,NA,NA,NA,""
"image-keyboard-response",538,499739,"0.0-3.175-2.175","r3a8kd6jh5ne2a8",446,"40.csv","","null","resources/images/coin2.png","null","",NA,NA,NA,NA,""
"image-keyboard-response",539,500073,"0.0-3.176-0.176","r3a8kd6jh5ne2a8",446,"40.csv","","333.40000000596046","resources/trios/L2T2A3.jpg","39","restless",0.2,0.6,0.4,0.4495584887747,"false"
"image-keyboard-response",540,500478,"0.0-3.176-1.176","r3a8kd6jh5ne2a8",446,"40.csv","","null","resources/maskTrios/BBA3.jpg","null","",NA,NA,NA,NA,""
"image-keyboard-response",541,501684,"0.0-3.176-2.176","r3a8kd6jh5ne2a8",446,"40.csv","","null","resources/images/fishbone.png","null","",NA,NA,NA,NA,""
"image-keyboard-response",542,502896,"0.0-3.177-0.177","r3a8kd6jh5ne2a8",446,"40.csv","","1209.5999999940395","resources/trios/L1T1A3.jpg","37","restless",0.2,0.6,0.4,0.972099764206338,"false"
"image-keyboard-response",543,503302,"0.0-3.177-1.177","r3a8kd6jh5ne2a8",446,"40.csv","","null","resources/maskTrios/L1BB.jpg","null","",NA,NA,NA,NA,""
"image-keyboard-response",544,504509,"0.0-3.177-2.177","r3a8kd6jh5ne2a8",446,"40.csv","","null","resources/images/fishbone.png","null","",NA,NA,NA,NA,""
"image-keyboard-response",545,505614,"0.0-3.178-0.178","r3a8kd6jh5ne2a8",446,"40.csv","","1102.9000000059605","resources/trios/L1T2A3.jpg","38","restless",0.2,0.6,0.4,0.0286070030108698,"true"
"image-keyboard-response",546,506022,"0.0-3.178-1.178","r3a8kd6jh5ne2a8",446,"40.csv","","null","resources/maskTrios/BT2B.jpg","null","",NA,NA,NA,NA,""
"image-keyboard-response",547,507229,"0.0-3.178-2.178","r3a8kd6jh5ne2a8",446,"40.csv","","null","resources/images/coin2.png","null","",NA,NA,NA,NA,""
"image-keyboard-response",548,507263,"0.0-3.179-0.179","r3a8kd6jh5ne2a8",446,"40.csv","","31.799999982118607","resources/trios/L2T1A2.jpg","39","restless",0.2,0.6,0.4,0.0809224715587327,"true"
"image-keyboard-response",549,507670,"0.0-3.179-1.179","r3a8kd6jh5ne2a8",446,"40.csv","","null","resources/maskTrios/BBA2.jpg","null","",NA,NA,NA,NA,""
"image-keyboard-response",550,508877,"0.0-3.179-2.179","r3a8kd6jh5ne2a8",446,"40.csv","","null","resources/images/coin2.png","null","",NA,NA,NA,NA,""
"image-keyboard-response",551,509491,"0.0-3.180-0.180","r3a8kd6jh5ne2a8",446,"40.csv","","612.1000000238419","resources/trios/L2T2A3.jpg","39","restless",0.2,0.6,0.4,0.863425342775059,"false"
"image-keyboard-response",552,509898,"0.0-3.180-1.180","r3a8kd6jh5ne2a8",446,"40.csv","","null","resources/maskTrios/BBA3.jpg","null","",NA,NA,NA,NA,""
"image-keyboard-response",553,511102,"0.0-3.180-2.180","r3a8kd6jh5ne2a8",446,"40.csv","","null","resources/images/fishbone.png","null","",NA,NA,NA,NA,""
"image-keyboard-response",554,511911,"0.0-3.181-0.181","r3a8kd6jh5ne2a8",446,"40.csv","","807.4000000059605","resources/trios/L2T1A2.jpg","38","restless",0.2,0.7,0.4,0.426856075821429,"true"
"image-keyboard-response",555,512318,"0.0-3.181-1.181","r3a8kd6jh5ne2a8",446,"40.csv","","null","resources/maskTrios/BT1B.jpg","null","",NA,NA,NA,NA,""
"image-keyboard-response",556,513526,"0.0-3.181-2.181","r3a8kd6jh5ne2a8",446,"40.csv","","null","resources/images/coin2.png","null","",NA,NA,NA,NA,""
"image-keyboard-response",557,513879,"0.0-3.182-0.182","r3a8kd6jh5ne2a8",446,"40.csv","","351.19999998807907","resources/trios/L1T1A2.jpg","37","restless",0.2,0.7,0.4,0.655308681928394,"false"
"image-keyboard-response",558,514284,"0.0-3.182-1.182","r3a8kd6jh5ne2a8",446,"40.csv","","null","resources/maskTrios/L1BB.jpg","null","",NA,NA,NA,NA,""
"image-keyboard-response",559,515491,"0.0-3.182-2.182","r3a8kd6jh5ne2a8",446,"40.csv","","null","resources/images/fishbone.png","null","",NA,NA,NA,NA,""
"image-keyboard-response",560,515943,"0.0-3.183-0.183","r3a8kd6jh5ne2a8",446,"40.csv","","449.69999998807907","resources/trios/L1T1A2.jpg","38","restless",0.2,0.7,0.4,0.946130767806261,"false"
"image-keyboard-response",561,516351,"0.0-3.183-1.183","r3a8kd6jh5ne2a8",446,"40.csv","","null","resources/maskTrios/BT1B.jpg","null","",NA,NA,NA,NA,""
"image-keyboard-response",562,517556,"0.0-3.183-2.183","r3a8kd6jh5ne2a8",446,"40.csv","","null","resources/images/fishbone.png","null","",NA,NA,NA,NA,""
"image-keyboard-response",563,517604,"0.0-3.184-0.184","r3a8kd6jh5ne2a8",446,"40.csv","","45.70000001788139","resources/trios/L2T1A3.jpg","39","restless",0.2,0.7,0.4,0.633878540932814,"false"
"image-keyboard-response",564,518010,"0.0-3.184-1.184","r3a8kd6jh5ne2a8",446,"40.csv","","null","resources/maskTrios/BBA3.jpg","null","",NA,NA,NA,NA,""
"image-keyboard-response",565,519217,"0.0-3.184-2.184","r3a8kd6jh5ne2a8",446,"40.csv","","null","resources/images/fishbone.png","null","",NA,NA,NA,NA,""
"image-keyboard-response",566,519701,"0.0-3.185-0.185","r3a8kd6jh5ne2a8",446,"40.csv","","481.5","resources/trios/L2T2A3.jpg","37","restless",0.2,0.7,0.4,0.686872433088461,"false"
"image-keyboard-response",567,520109,"0.0-3.185-1.185","r3a8kd6jh5ne2a8",446,"40.csv","","null","resources/maskTrios/L2BB.jpg","null","",NA,NA,NA,NA,""
"image-keyboard-response",568,521314,"0.0-3.185-2.185","r3a8kd6jh5ne2a8",446,"40.csv","","null","resources/images/fishbone.png","null","",NA,NA,NA,NA,""
"image-keyboard-response",569,522966,"0.0-3.186-0.186","r3a8kd6jh5ne2a8",446,"40.csv","","1649.2999999821186","resources/trios/L1T1A3.jpg","38","restless",0.2,0.7,0.4,0.327530820671537,"true"
"image-keyboard-response",570,523370,"0.0-3.186-1.186","r3a8kd6jh5ne2a8",446,"40.csv","","null","resources/maskTrios/BT1B.jpg","null","",NA,NA,NA,NA,""
"image-keyboard-response",571,524574,"0.0-3.186-2.186","r3a8kd6jh5ne2a8",446,"40.csv","","null","resources/images/coin2.png","null","",NA,NA,NA,NA,""
"image-keyboard-response",572,525536,"0.0-3.187-0.187","r3a8kd6jh5ne2a8",446,"40.csv","","959.0999999940395","resources/trios/L1T2A2.jpg","38","restless",0.2,0.7,0.4,0.41690123081803,"true"
"image-keyboard-response",573,525943,"0.0-3.187-1.187","r3a8kd6jh5ne2a8",446,"40.csv","","null","resources/maskTrios/BT2B.jpg","null","",NA,NA,NA,NA,""
"image-keyboard-response",574,527151,"0.0-3.187-2.187","r3a8kd6jh5ne2a8",446,"40.csv","","null","resources/images/coin2.png","null","",NA,NA,NA,NA,""
"image-keyboard-response",575,528432,"0.0-3.188-0.188","r3a8kd6jh5ne2a8",446,"40.csv","","1278.699999988079","resources/trios/L1T1A3.jpg","38","restless",0.2,0.7,0.4,0.0347762404280858,"true"
"image-keyboard-response",576,528839,"0.0-3.188-1.188","r3a8kd6jh5ne2a8",446,"40.csv","","null","resources/maskTrios/BT1B.jpg","null","",NA,NA,NA,NA,""
"image-keyboard-response",577,530047,"0.0-3.188-2.188","r3a8kd6jh5ne2a8",446,"40.csv","","null","resources/images/coin2.png","null","",NA,NA,NA,NA,""
"image-keyboard-response",578,531317,"0.0-3.189-0.189","r3a8kd6jh5ne2a8",446,"40.csv","","1267.4000000059605","resources/trios/L2T2A3.jpg","38","restless",0.2,0.7,0.4,0.631996647282332,"true"
"image-keyboard-response",579,531724,"0.0-3.189-1.189","r3a8kd6jh5ne2a8",446,"40.csv","","null","resources/maskTrios/BT2B.jpg","null","",NA,NA,NA,NA,""
"image-keyboard-response",580,532932,"0.0-3.189-2.189","r3a8kd6jh5ne2a8",446,"40.csv","","null","resources/images/coin2.png","null","",NA,NA,NA,NA,""
"image-keyboard-response",581,533385,"0.0-3.190-0.190","r3a8kd6jh5ne2a8",446,"40.csv","","451","resources/trios/L1T2A3.jpg","38","restless",0.2,0.7,0.4,0.799091994664418,"false"
"image-keyboard-response",582,533792,"0.0-3.190-1.190","r3a8kd6jh5ne2a8",446,"40.csv","","null","resources/maskTrios/BT2B.jpg","null","",NA,NA,NA,NA,""
"image-keyboard-response",583,535000,"0.0-3.190-2.190","r3a8kd6jh5ne2a8",446,"40.csv","","null","resources/images/fishbone.png","null","",NA,NA,NA,NA,""
"image-keyboard-response",584,535624,"0.0-3.191-0.191","r3a8kd6jh5ne2a8",446,"40.csv","","621.8000000119209","resources/trios/L2T1A2.jpg","38","restless",0.2,0.7,0.4,0.0888273925214511,"true"
"image-keyboard-response",585,536027,"0.0-3.191-1.191","r3a8kd6jh5ne2a8",446,"40.csv","","null","resources/maskTrios/BT1B.jpg","null","",NA,NA,NA,NA,""
"image-keyboard-response",586,537231,"0.0-3.191-2.191","r3a8kd6jh5ne2a8",446,"40.csv","","null","resources/images/coin2.png","null","",NA,NA,NA,NA,""
"image-keyboard-response",587,538754,"0.0-3.192-0.192","r3a8kd6jh5ne2a8",446,"40.csv","","1522.0999999940395","resources/trios/L2T1A2.jpg","38","restless",0.2,0.7,0.4,0.140769938258213,"true"
"image-keyboard-response",588,539161,"0.0-3.192-1.192","r3a8kd6jh5ne2a8",446,"40.csv","","null","resources/maskTrios/BT1B.jpg","null","",NA,NA,NA,NA,""
"image-keyboard-response",589,540363,"0.0-3.192-2.192","r3a8kd6jh5ne2a8",446,"40.csv","","null","resources/images/coin2.png","null","",NA,NA,NA,NA,""
"image-keyboard-response",590,541340,"0.0-3.193-0.193","r3a8kd6jh5ne2a8",446,"40.csv","","974.1999999880791","resources/trios/L1T1A3.jpg","38","restless",0.3,0.7,0.4,0.759052722169675,"false"
"image-keyboard-response",591,541747,"0.0-3.193-1.193","r3a8kd6jh5ne2a8",446,"40.csv","","null","resources/maskTrios/BT1B.jpg","null","",NA,NA,NA,NA,""
"image-keyboard-response",592,542954,"0.0-3.193-2.193","r3a8kd6jh5ne2a8",446,"40.csv","","null","resources/images/fishbone.png","null","",NA,NA,NA,NA,""
"image-keyboard-response",593,545141,"0.0-3.194-0.194","r3a8kd6jh5ne2a8",446,"40.csv","","2184.5999999940395","resources/trios/L2T2A2.jpg","38","restless",0.3,0.7,0.4,0.374651579837675,"true"
"image-keyboard-response",594,545549,"0.0-3.194-1.194","r3a8kd6jh5ne2a8",446,"40.csv","","null","resources/maskTrios/BT2B.jpg","null","",NA,NA,NA,NA,""
"image-keyboard-response",595,546756,"0.0-3.194-2.194","r3a8kd6jh5ne2a8",446,"40.csv","","null","resources/images/coin2.png","null","",NA,NA,NA,NA,""
"image-keyboard-response",596,580114,"0.0-3.195-0.195","r3a8kd6jh5ne2a8",446,"40.csv","","33355.69999998808","resources/trios/L1T1A2.jpg","39","restless",0.3,0.8,0.4,0.662850085399378,"false"
"image-keyboard-response",597,580518,"0.0-3.195-1.195","r3a8kd6jh5ne2a8",446,"40.csv","","null","resources/maskTrios/BBA2.jpg","null","",NA,NA,NA,NA,""
"image-keyboard-response",598,581720,"0.0-3.195-2.195","r3a8kd6jh5ne2a8",446,"40.csv","","null","resources/images/fishbone.png","null","",NA,NA,NA,NA,""
"image-keyboard-response",599,582449,"0.0-3.196-0.196","r3a8kd6jh5ne2a8",446,"40.csv","","727","resources/trios/L2T2A3.jpg","38","restless",0.3,0.7,0.4,0.907907583111782,"false"
"image-keyboard-response",600,582856,"0.0-3.196-1.196","r3a8kd6jh5ne2a8",446,"40.csv","","null","resources/maskTrios/BT2B.jpg","null","",NA,NA,NA,NA,""
"image-keyboard-response",601,584063,"0.0-3.196-2.196","r3a8kd6jh5ne2a8",446,"40.csv","","null","resources/images/fishbone.png","null","",NA,NA,NA,NA,""
"image-keyboard-response",602,584400,"0.0-3.197-0.197","r3a8kd6jh5ne2a8",446,"40.csv","","334.7000000178814","resources/trios/L2T1A2.jpg","37","restless",0.3,0.7,0.4,0.363487754527057,"false"
"image-keyboard-response",603,584807,"0.0-3.197-1.197","r3a8kd6jh5ne2a8",446,"40.csv","","null","resources/maskTrios/L2BB.jpg","null","",NA,NA,NA,NA,""
"image-keyboard-response",604,586012,"0.0-3.197-2.197","r3a8kd6jh5ne2a8",446,"40.csv","","null","resources/images/fishbone.png","null","",NA,NA,NA,NA,""
"image-keyboard-response",605,586694,"0.0-3.198-0.198","r3a8kd6jh5ne2a8",446,"40.csv","","679.6000000238419","resources/trios/L1T1A3.jpg","38","restless",0.3,0.7,0.4,0.722520311483019,"false"
"image-keyboard-response",606,587098,"0.0-3.198-1.198","r3a8kd6jh5ne2a8",446,"40.csv","","null","resources/maskTrios/BT1B.jpg","null","",NA,NA,NA,NA,""
"image-keyboard-response",607,588302,"0.0-3.198-2.198","r3a8kd6jh5ne2a8",446,"40.csv","","null","resources/images/fishbone.png","null","",NA,NA,NA,NA,""
"image-keyboard-response",608,588759,"0.0-3.199-0.199","r3a8kd6jh5ne2a8",446,"40.csv","","454.89999997615814","resources/trios/L2T1A2.jpg","39","restless",0.3,0.7,0.4,0.261987805530771,"true"
"image-keyboard-response",609,589162,"0.0-3.199-1.199","r3a8kd6jh5ne2a8",446,"40.csv","","null","resources/maskTrios/BBA2.jpg","null","",NA,NA,NA,NA,""
