"trial_type","trial_index","time_elapsed","internal_node_id","subject","participantCode","walkNumber","success","rt","stimulus","key_press","test_part","leftProb","midProb","rightProb","generatedNum","correct"
"pavlovia",0,1127,"0.0-0.0","ch7ea5apb04t9w6",786,"84.csv","","","","","",NA,NA,NA,NA,""
"fullscreen",1,5823,"0.0-1.0","ch7ea5apb04t9w6",786,"84.csv","true","","","","",NA,NA,NA,NA,""
"html-keyboard-response",2,32163,"0.0-2.0-0.0","ch7ea5apb04t9w6",786,"84.csv","","26339.100000023842","<p><font size='6'>Arrrgh!</p></font><p>Can you be the best pirate? Try to find lots of gold! But beware, some islands have more gold than others, and over time, the island with the most gold may change. Can YOU figure it out? </p><font size='6'>GOOD LUCK, CAPTAIN!!!</font><p>Press any key to begin</p>","32","",NA,NA,NA,NA,""
"image-keyboard-response",3,35170,"0.0-2.0-1.0","ch7ea5apb04t9w6",786,"84.csv","","null","resources/image_sets/111.png","null","",NA,NA,NA,NA,""
"image-keyboard-response",4,40100,"0.0-2.0-2.0","ch7ea5apb04t9w6",786,"84.csv","","4927.300000011921","resources/image_sets/left_highlight.png","37","",NA,NA,NA,NA,""
"image-keyboard-response",5,43548,"0.0-2.0-3.0","ch7ea5apb04t9w6",786,"84.csv","","3447.300000011921","resources/image_sets/mid_highlight.png","38","",NA,NA,NA,NA,""
"image-keyboard-response",6,44394,"0.0-2.0-4.0","ch7ea5apb04t9w6",786,"84.csv","","844.6000000238419","resources/image_sets/right_highlight.png","39","",NA,NA,NA,NA,""
"image-keyboard-response",7,53891,"0.0-2.0-5.0","ch7ea5apb04t9w6",786,"84.csv","","9495.199999988079","resources/image_sets/111.png","13","",NA,NA,NA,NA,""
"image-keyboard-response",8,56662,"0.0-2.0-6.0","ch7ea5apb04t9w6",786,"84.csv","","2769.400000035763","resources/images/coin2.png","13","",NA,NA,NA,NA,""
"image-keyboard-response",9,58659,"0.0-2.0-7.0","ch7ea5apb04t9w6",786,"84.csv","","1996.199999988079","resources/images/fishbone.png","13","",NA,NA,NA,NA,""
"html-keyboard-response",10,68804,"0.0-2.0-8.0","ch7ea5apb04t9w6",786,"84.csv","","10144.399999976158","<p>Your first journey will be a long one, but you will get a well deserved break at the end</p><p>After the break you will have four more journeys, but each will be much shorter than the first, and you will have breaks in between each</p><p>Press Enter to begin</p>","13","",NA,NA,NA,NA,""
"image-keyboard-response",11,70435,"0.0-3.0-0.0","ch7ea5apb04t9w6",786,"84.csv","","1628.6000000238419","resources/trios/L2T4A2.jpg","38","restless",0.9,0.3,0.7,0.432144954342012,"false"
"image-keyboard-response",12,70846,"0.0-3.0-1.0","ch7ea5apb04t9w6",786,"84.csv","","null","resources/maskTrios/BT4B.jpg","null","",NA,NA,NA,NA,""
"image-keyboard-response",13,72054,"0.0-3.0-2.0","ch7ea5apb04t9w6",786,"84.csv","","null","resources/images/fishbone.png","null","",NA,NA,NA,NA,""
"image-keyboard-response",14,74478,"0.0-3.1-0.1","ch7ea5apb04t9w6",786,"84.csv","","2422.899999976158","resources/trios/L2T1A1.jpg","38","restless",0.9,0.3,0.8,0.597639919977501,"false"
"image-keyboard-response",15,74888,"0.0-3.1-1.1","ch7ea5apb04t9w6",786,"84.csv","","null","resources/maskTrios/BT1B.jpg","null","",NA,NA,NA,NA,""
"image-keyboard-response",16,76093,"0.0-3.1-2.1","ch7ea5apb04t9w6",786,"84.csv","","null","resources/images/fishbone.png","null","",NA,NA,NA,NA,""
"image-keyboard-response",17,78267,"0.0-3.2-0.2","ch7ea5apb04t9w6",786,"84.csv","","2172.5","resources/trios/L2T1A2.jpg","37","restless",0.9,0.3,0.8,0.955645171904575,"false"
"image-keyboard-response",18,78678,"0.0-3.2-1.2","ch7ea5apb04t9w6",786,"84.csv","","null","resources/maskTrios/L2BB.jpg","null","",NA,NA,NA,NA,""
"image-keyboard-response",19,79886,"0.0-3.2-2.2","ch7ea5apb04t9w6",786,"84.csv","","null","resources/images/fishbone.png","null","",NA,NA,NA,NA,""
"image-keyboard-response",20,81156,"0.0-3.3-0.3","ch7ea5apb04t9w6",786,"84.csv","","1268.1000000238419","resources/trios/L4T4A2.jpg","38","restless",0.8,0.3,0.8,0.352705444664055,"false"
"image-keyboard-response",21,81565,"0.0-3.3-1.3","ch7ea5apb04t9w6",786,"84.csv","","null","resources/maskTrios/BT4B.jpg","null","",NA,NA,NA,NA,""
"image-keyboard-response",22,82774,"0.0-3.3-2.3","ch7ea5apb04t9w6",786,"84.csv","","null","resources/images/fishbone.png","null","",NA,NA,NA,NA,""
"image-keyboard-response",23,84465,"0.0-3.4-0.4","ch7ea5apb04t9w6",786,"84.csv","","1688.8999999761581","resources/trios/L2T4A2.jpg","37","restless",0.8,0.3,0.8,0.641823824605794,"true"
"image-keyboard-response",24,84870,"0.0-3.4-1.4","ch7ea5apb04t9w6",786,"84.csv","","null","resources/maskTrios/L2BB.jpg","null","",NA,NA,NA,NA,""
"image-keyboard-response",25,86078,"0.0-3.4-2.4","ch7ea5apb04t9w6",786,"84.csv","","null","resources/images/coin2.png","null","",NA,NA,NA,NA,""
"image-keyboard-response",26,87420,"0.0-3.5-0.5","ch7ea5apb04t9w6",786,"84.csv","","1339.9000000357628","resources/trios/L2T4A2.jpg","38","restless",0.8,0.3,0.9,0.529119100484845,"false"
"image-keyboard-response",27,87830,"0.0-3.5-1.5","ch7ea5apb04t9w6",786,"84.csv","","null","resources/maskTrios/BT4B.jpg","null","",NA,NA,NA,NA,""
"image-keyboard-response",28,89038,"0.0-3.5-2.5","ch7ea5apb04t9w6",786,"84.csv","","null","resources/images/fishbone.png","null","",NA,NA,NA,NA,""
"image-keyboard-response",29,90037,"0.0-3.6-0.6","ch7ea5apb04t9w6",786,"84.csv","","997.1000000238419","resources/trios/L4T4A2.jpg","37","restless",0.7,0.3,0.9,0.805030740811708,"false"
"image-keyboard-response",30,90446,"0.0-3.6-1.6","ch7ea5apb04t9w6",786,"84.csv","","null","resources/maskTrios/L4BB.jpg","null","",NA,NA,NA,NA,""
"image-keyboard-response",31,91654,"0.0-3.6-2.6","ch7ea5apb04t9w6",786,"84.csv","","null","resources/images/fishbone.png","null","",NA,NA,NA,NA,""
"image-keyboard-response",32,93694,"0.0-3.7-0.7","ch7ea5apb04t9w6",786,"84.csv","","2038","resources/trios/L2T1A2.jpg","37","restless",0.7,0.3,0.9,0.211835410685165,"true"
"image-keyboard-response",33,94102,"0.0-3.7-1.7","ch7ea5apb04t9w6",786,"84.csv","","null","resources/maskTrios/L2BB.jpg","null","",NA,NA,NA,NA,""
"image-keyboard-response",34,95310,"0.0-3.7-2.7","ch7ea5apb04t9w6",786,"84.csv","","null","resources/images/coin2.png","null","",NA,NA,NA,NA,""
"image-keyboard-response",35,96599,"0.0-3.8-0.8","ch7ea5apb04t9w6",786,"84.csv","","1286.8999999761581","resources/trios/L2T4A2.jpg","37","restless",0.6,0.3,0.9,0.142283871622968,"true"
"image-keyboard-response",36,97005,"0.0-3.8-1.8","ch7ea5apb04t9w6",786,"84.csv","","null","resources/maskTrios/L2BB.jpg","null","",NA,NA,NA,NA,""
"image-keyboard-response",37,98214,"0.0-3.8-2.8","ch7ea5apb04t9w6",786,"84.csv","","null","resources/images/coin2.png","null","",NA,NA,NA,NA,""
"image-keyboard-response",38,99534,"0.0-3.9-0.9","ch7ea5apb04t9w6",786,"84.csv","","1317.9000000357628","resources/trios/L2T1A2.jpg","37","restless",0.5,0.3,0.9,0.553460054577154,"false"
"image-keyboard-response",39,99942,"0.0-3.9-1.9","ch7ea5apb04t9w6",786,"84.csv","","null","resources/maskTrios/L2BB.jpg","null","",NA,NA,NA,NA,""
"image-keyboard-response",40,101149,"0.0-3.9-2.9","ch7ea5apb04t9w6",786,"84.csv","","null","resources/images/fishbone.png","null","",NA,NA,NA,NA,""
"image-keyboard-response",41,102279,"0.0-3.10-0.10","ch7ea5apb04t9w6",786,"84.csv","","1128.199999988079","resources/trios/L4T1A1.jpg","38","restless",0.5,0.2,0.9,0.730399878575274,"false"
"image-keyboard-response",42,102685,"0.0-3.10-1.10","ch7ea5apb04t9w6",786,"84.csv","","null","resources/maskTrios/BT1B.jpg","null","",NA,NA,NA,NA,""
"image-keyboard-response",43,103892,"0.0-3.10-2.10","ch7ea5apb04t9w6",786,"84.csv","","null","resources/images/fishbone.png","null","",NA,NA,NA,NA,""
"image-keyboard-response",44,104371,"0.0-3.11-0.11","ch7ea5apb04t9w6",786,"84.csv","","477","resources/trios/L2T4A1.jpg","39","restless",0.5,0.2,0.9,0.670104233864524,"true"
"image-keyboard-response",45,104781,"0.0-3.11-1.11","ch7ea5apb04t9w6",786,"84.csv","","null","resources/maskTrios/BBA1.jpg","null","",NA,NA,NA,NA,""
"image-keyboard-response",46,105992,"0.0-3.11-2.11","ch7ea5apb04t9w6",786,"84.csv","","null","resources/images/coin2.png","null","",NA,NA,NA,NA,""
"image-keyboard-response",47,106734,"0.0-3.12-0.12","ch7ea5apb04t9w6",786,"84.csv","","740.4000000357628","resources/trios/L4T1A2.jpg","39","restless",0.5,0.2,0.9,0.858831420820921,"true"
"image-keyboard-response",48,107141,"0.0-3.12-1.12","ch7ea5apb04t9w6",786,"84.csv","","null","resources/maskTrios/BBA2.jpg","null","",NA,NA,NA,NA,""
"image-keyboard-response",49,108349,"0.0-3.12-2.12","ch7ea5apb04t9w6",786,"84.csv","","null","resources/images/coin2.png","null","",NA,NA,NA,NA,""
"image-keyboard-response",50,109805,"0.0-3.13-0.13","ch7ea5apb04t9w6",786,"84.csv","","1454.300000011921","resources/trios/L4T1A2.jpg","39","restless",0.5,0.2,0.9,0.333775139087594,"true"
"image-keyboard-response",51,110212,"0.0-3.13-1.13","ch7ea5apb04t9w6",786,"84.csv","","null","resources/maskTrios/BBA2.jpg","null","",NA,NA,NA,NA,""
"image-keyboard-response",52,111423,"0.0-3.13-2.13","ch7ea5apb04t9w6",786,"84.csv","","null","resources/images/coin2.png","null","",NA,NA,NA,NA,""
"image-keyboard-response",53,112074,"0.0-3.14-0.14","ch7ea5apb04t9w6",786,"84.csv","","648.6999999880791","resources/trios/L2T4A1.jpg","38","restless",0.5,0.3,0.9,0.998372197664832,"false"
"image-keyboard-response",54,112485,"0.0-3.14-1.14","ch7ea5apb04t9w6",786,"84.csv","","null","resources/maskTrios/BT4B.jpg","null","",NA,NA,NA,NA,""
"image-keyboard-response",55,113693,"0.0-3.14-2.14","ch7ea5apb04t9w6",786,"84.csv","","null","resources/images/fishbone.png","null","",NA,NA,NA,NA,""
"image-keyboard-response",56,114912,"0.0-3.15-0.15","ch7ea5apb04t9w6",786,"84.csv","","1216.699999988079","resources/trios/L4T1A1.jpg","39","restless",0.5,0.3,0.9,0.555373793110994,"true"
"image-keyboard-response",57,115316,"0.0-3.15-1.15","ch7ea5apb04t9w6",786,"84.csv","","null","resources/maskTrios/BBA1.jpg","null","",NA,NA,NA,NA,""
"image-keyboard-response",58,116525,"0.0-3.15-2.15","ch7ea5apb04t9w6",786,"84.csv","","null","resources/images/coin2.png","null","",NA,NA,NA,NA,""
"image-keyboard-response",59,117584,"0.0-3.16-0.16","ch7ea5apb04t9w6",786,"84.csv","","1057.7999999523163","resources/trios/L4T1A2.jpg","39","restless",0.5,0.3,0.9,0.807103289526142,"true"
"image-keyboard-response",60,117989,"0.0-3.16-1.16","ch7ea5apb04t9w6",786,"84.csv","","null","resources/maskTrios/BBA2.jpg","null","",NA,NA,NA,NA,""
"image-keyboard-response",61,119197,"0.0-3.16-2.16","ch7ea5apb04t9w6",786,"84.csv","","null","resources/images/coin2.png","null","",NA,NA,NA,NA,""
"image-keyboard-response",62,120331,"0.0-3.17-0.17","ch7ea5apb04t9w6",786,"84.csv","","1131.4000000357628","resources/trios/L2T4A2.jpg","39","restless",0.5,0.3,0.9,0.689614997038385,"true"
"image-keyboard-response",63,120733,"0.0-3.17-1.17","ch7ea5apb04t9w6",786,"84.csv","","null","resources/maskTrios/BBA2.jpg","null","",NA,NA,NA,NA,""
"image-keyboard-response",64,121941,"0.0-3.17-2.17","ch7ea5apb04t9w6",786,"84.csv","","null","resources/images/coin2.png","null","",NA,NA,NA,NA,""
"image-keyboard-response",65,122743,"0.0-3.18-0.18","ch7ea5apb04t9w6",786,"84.csv","","800.5","resources/trios/L2T4A1.jpg","37","restless",0.5,0.3,0.9,0.219198601311741,"true"
"image-keyboard-response",66,123149,"0.0-3.18-1.18","ch7ea5apb04t9w6",786,"84.csv","","null","resources/maskTrios/L2BB.jpg","null","",NA,NA,NA,NA,""
"image-keyboard-response",67,124357,"0.0-3.18-2.18","ch7ea5apb04t9w6",786,"84.csv","","null","resources/images/coin2.png","null","",NA,NA,NA,NA,""
"image-keyboard-response",68,125447,"0.0-3.19-0.19","ch7ea5apb04t9w6",786,"84.csv","","1088.8999999761581","resources/trios/L2T4A1.jpg","39","restless",0.5,0.4,0.9,0.765464707810315,"true"
"image-keyboard-response",69,125853,"0.0-3.19-1.19","ch7ea5apb04t9w6",786,"84.csv","","null","resources/maskTrios/BBA1.jpg","null","",NA,NA,NA,NA,""
"image-keyboard-response",70,127061,"0.0-3.19-2.19","ch7ea5apb04t9w6",786,"84.csv","","null","resources/images/coin2.png","null","",NA,NA,NA,NA,""
"image-keyboard-response",71,128023,"0.0-3.20-0.20","ch7ea5apb04t9w6",786,"84.csv","","960.8000000119209","resources/trios/L4T4A1.jpg","38","restless",0.5,0.4,0.9,0.0741046750646366,"true"
"image-keyboard-response",72,128428,"0.0-3.20-1.20","ch7ea5apb04t9w6",786,"84.csv","","null","resources/maskTrios/BT4B.jpg","null","",NA,NA,NA,NA,""
"image-keyboard-response",73,129635,"0.0-3.20-2.20","ch7ea5apb04t9w6",786,"84.csv","","null","resources/images/coin2.png","null","",NA,NA,NA,NA,""
"image-keyboard-response",74,130674,"0.0-3.21-0.21","ch7ea5apb04t9w6",786,"84.csv","","1036.3999999761581","resources/trios/L2T4A2.jpg","39","restless",0.5,0.4,0.9,0.966003112916954,"false"
"image-keyboard-response",75,131085,"0.0-3.21-1.21","ch7ea5apb04t9w6",786,"84.csv","","null","resources/maskTrios/BBA2.jpg","null","",NA,NA,NA,NA,""
"image-keyboard-response",76,132293,"0.0-3.21-2.21","ch7ea5apb04t9w6",786,"84.csv","","null","resources/images/fishbone.png","null","",NA,NA,NA,NA,""
"image-keyboard-response",77,133218,"0.0-3.22-0.22","ch7ea5apb04t9w6",786,"84.csv","","922.6999999880791","resources/trios/L4T1A2.jpg","38","restless",0.5,0.4,0.9,0.915652794451763,"false"
"image-keyboard-response",78,133628,"0.0-3.22-1.22","ch7ea5apb04t9w6",786,"84.csv","","null","resources/maskTrios/BT1B.jpg","null","",NA,NA,NA,NA,""
"image-keyboard-response",79,134837,"0.0-3.22-2.22","ch7ea5apb04t9w6",786,"84.csv","","null","resources/images/fishbone.png","null","",NA,NA,NA,NA,""
"image-keyboard-response",80,135563,"0.0-3.23-0.23","ch7ea5apb04t9w6",786,"84.csv","","724.1999999880791","resources/trios/L4T4A2.jpg","39","restless",0.5,0.4,0.9,0.162871574494515,"true"
"image-keyboard-response",81,135972,"0.0-3.23-1.23","ch7ea5apb04t9w6",786,"84.csv","","null","resources/maskTrios/BBA2.jpg","null","",NA,NA,NA,NA,""
"image-keyboard-response",82,137181,"0.0-3.23-2.23","ch7ea5apb04t9w6",786,"84.csv","","null","resources/images/coin2.png","null","",NA,NA,NA,NA,""
"image-keyboard-response",83,138087,"0.0-3.24-0.24","ch7ea5apb04t9w6",786,"84.csv","","904.1999999880791","resources/trios/L4T1A1.jpg","37","restless",0.5,0.4,0.9,0.224682621130897,"true"
"image-keyboard-response",84,138493,"0.0-3.24-1.24","ch7ea5apb04t9w6",786,"84.csv","","null","resources/maskTrios/L4BB.jpg","null","",NA,NA,NA,NA,""
"image-keyboard-response",85,139701,"0.0-3.24-2.24","ch7ea5apb04t9w6",786,"84.csv","","null","resources/images/coin2.png","null","",NA,NA,NA,NA,""
"image-keyboard-response",86,140251,"0.0-3.25-0.25","ch7ea5apb04t9w6",786,"84.csv","","547.8000000119209","resources/trios/L4T1A2.jpg","38","restless",0.5,0.4,0.9,0.0827377326565784,"true"
"image-keyboard-response",87,140661,"0.0-3.25-1.25","ch7ea5apb04t9w6",786,"84.csv","","null","resources/maskTrios/BT1B.jpg","null","",NA,NA,NA,NA,""
"image-keyboard-response",88,141868,"0.0-3.25-2.25","ch7ea5apb04t9w6",786,"84.csv","","null","resources/images/coin2.png","null","",NA,NA,NA,NA,""
"image-keyboard-response",89,142515,"0.0-3.26-0.26","ch7ea5apb04t9w6",786,"84.csv","","644.8000000119209","resources/trios/L4T4A2.jpg","39","restless",0.5,0.4,0.9,0.686608634826151,"true"
"image-keyboard-response",90,142928,"0.0-3.26-1.26","ch7ea5apb04t9w6",786,"84.csv","","null","resources/maskTrios/BBA2.jpg","null","",NA,NA,NA,NA,""
"image-keyboard-response",91,144135,"0.0-3.26-2.26","ch7ea5apb04t9w6",786,"84.csv","","null","resources/images/coin2.png","null","",NA,NA,NA,NA,""
"image-keyboard-response",92,144813,"0.0-3.27-0.27","ch7ea5apb04t9w6",786,"84.csv","","676.0999999642372","resources/trios/L2T1A1.jpg","37","restless",0.5,0.5,0.9,0.667018406883398,"false"
"image-keyboard-response",93,145221,"0.0-3.27-1.27","ch7ea5apb04t9w6",786,"84.csv","","null","resources/maskTrios/L2BB.jpg","null","",NA,NA,NA,NA,""
"image-keyboard-response",94,146427,"0.0-3.27-2.27","ch7ea5apb04t9w6",786,"84.csv","","null","resources/images/fishbone.png","null","",NA,NA,NA,NA,""
"image-keyboard-response",95,147096,"0.0-3.28-0.28","ch7ea5apb04t9w6",786,"84.csv","","666.8000000119209","resources/trios/L4T4A2.jpg","38","restless",0.5,0.5,0.9,0.36253260325785,"true"
"image-keyboard-response",96,147500,"0.0-3.28-1.28","ch7ea5apb04t9w6",786,"84.csv","","null","resources/maskTrios/BT4B.jpg","null","",NA,NA,NA,NA,""
"image-keyboard-response",97,148710,"0.0-3.28-2.28","ch7ea5apb04t9w6",786,"84.csv","","null","resources/images/coin2.png","null","",NA,NA,NA,NA,""
"image-keyboard-response",98,149182,"0.0-3.29-0.29","ch7ea5apb04t9w6",786,"84.csv","","470.7999999523163","resources/trios/L2T4A2.jpg","39","restless",0.5,0.5,0.8,0.326807807397938,"true"
"image-keyboard-response",99,149588,"0.0-3.29-1.29","ch7ea5apb04t9w6",786,"84.csv","","null","resources/maskTrios/BBA2.jpg","null","",NA,NA,NA,NA,""
"image-keyboard-response",100,150797,"0.0-3.29-2.29","ch7ea5apb04t9w6",786,"84.csv","","null","resources/images/coin2.png","null","",NA,NA,NA,NA,""
"image-keyboard-response",101,151655,"0.0-3.30-0.30","ch7ea5apb04t9w6",786,"84.csv","","855.9000000357628","resources/trios/L4T4A1.jpg","39","restless",0.5,0.5,0.9,0.836181249234535,"true"
"image-keyboard-response",102,152060,"0.0-3.30-1.30","ch7ea5apb04t9w6",786,"84.csv","","null","resources/maskTrios/BBA1.jpg","null","",NA,NA,NA,NA,""
"image-keyboard-response",103,153268,"0.0-3.30-2.30","ch7ea5apb04t9w6",786,"84.csv","","null","resources/images/coin2.png","null","",NA,NA,NA,NA,""
"image-keyboard-response",104,154180,"0.0-3.31-0.31","ch7ea5apb04t9w6",786,"84.csv","","909.8999999761581","resources/trios/L2T4A2.jpg","38","restless",0.5,0.5,0.9,0.30332446941843,"true"
"image-keyboard-response",105,154588,"0.0-3.31-1.31","ch7ea5apb04t9w6",786,"84.csv","","null","resources/maskTrios/BT4B.jpg","null","",NA,NA,NA,NA,""
"image-keyboard-response",106,155796,"0.0-3.31-2.31","ch7ea5apb04t9w6",786,"84.csv","","null","resources/images/coin2.png","null","",NA,NA,NA,NA,""
"image-keyboard-response",107,156760,"0.0-3.32-0.32","ch7ea5apb04t9w6",786,"84.csv","","961.9000000357628","resources/trios/L2T1A2.jpg","37","restless",0.5,0.5,0.9,0.984404490645997,"false"
"image-keyboard-response",108,157163,"0.0-3.32-1.32","ch7ea5apb04t9w6",786,"84.csv","","null","resources/maskTrios/L2BB.jpg","null","",NA,NA,NA,NA,""
"image-keyboard-response",109,158372,"0.0-3.32-2.32","ch7ea5apb04t9w6",786,"84.csv","","null","resources/images/fishbone.png","null","",NA,NA,NA,NA,""
"image-keyboard-response",110,159140,"0.0-3.33-0.33","ch7ea5apb04t9w6",786,"84.csv","","765.8000000119209","resources/trios/L2T1A2.jpg","38","restless",0.5,0.5,0.9,0.160393721543817,"true"
"image-keyboard-response",111,159548,"0.0-3.33-1.33","ch7ea5apb04t9w6",786,"84.csv","","null","resources/maskTrios/BT1B.jpg","null","",NA,NA,NA,NA,""
"image-keyboard-response",112,160756,"0.0-3.33-2.33","ch7ea5apb04t9w6",786,"84.csv","","null","resources/images/coin2.png","null","",NA,NA,NA,NA,""
"image-keyboard-response",113,161484,"0.0-3.34-0.34","ch7ea5apb04t9w6",786,"84.csv","","726.1999999880791","resources/trios/L4T1A2.jpg","39","restless",0.5,0.5,0.9,0.355883977680234,"true"
"image-keyboard-response",114,161892,"0.0-3.34-1.34","ch7ea5apb04t9w6",786,"84.csv","","null","resources/maskTrios/BBA2.jpg","null","",NA,NA,NA,NA,""
"image-keyboard-response",115,163102,"0.0-3.34-2.34","ch7ea5apb04t9w6",786,"84.csv","","null","resources/images/coin2.png","null","",NA,NA,NA,NA,""
"image-keyboard-response",116,163697,"0.0-3.35-0.35","ch7ea5apb04t9w6",786,"84.csv","","592.5","resources/trios/L4T1A1.jpg","39","restless",0.5,0.5,0.9,0.167832386689574,"true"
"image-keyboard-response",117,164100,"0.0-3.35-1.35","ch7ea5apb04t9w6",786,"84.csv","","null","resources/maskTrios/BBA1.jpg","null","",NA,NA,NA,NA,""
"image-keyboard-response",118,165308,"0.0-3.35-2.35","ch7ea5apb04t9w6",786,"84.csv","","null","resources/images/coin2.png","null","",NA,NA,NA,NA,""
"image-keyboard-response",119,165763,"0.0-3.36-0.36","ch7ea5apb04t9w6",786,"84.csv","","452.30000001192093","resources/trios/L4T4A1.jpg","38","restless",0.5,0.5,0.9,0.480590627373213,"true"
"image-keyboard-response",120,166172,"0.0-3.36-1.36","ch7ea5apb04t9w6",786,"84.csv","","null","resources/maskTrios/BT4B.jpg","null","",NA,NA,NA,NA,""
"image-keyboard-response",121,167380,"0.0-3.36-2.36","ch7ea5apb04t9w6",786,"84.csv","","null","resources/images/coin2.png","null","",NA,NA,NA,NA,""
"image-keyboard-response",122,167853,"0.0-3.37-0.37","ch7ea5apb04t9w6",786,"84.csv","","470.60000002384186","resources/trios/L2T4A2.jpg","37","restless",0.5,0.5,0.9,0.352478707580355,"true"
"image-keyboard-response",123,168260,"0.0-3.37-1.37","ch7ea5apb04t9w6",786,"84.csv","","null","resources/maskTrios/L2BB.jpg","null","",NA,NA,NA,NA,""
"image-keyboard-response",124,169468,"0.0-3.37-2.37","ch7ea5apb04t9w6",786,"84.csv","","null","resources/images/coin2.png","null","",NA,NA,NA,NA,""
"image-keyboard-response",125,170955,"0.0-3.38-0.38","ch7ea5apb04t9w6",786,"84.csv","","1485.199999988079","resources/trios/L2T4A1.jpg","37","restless",0.5,0.5,0.9,0.866822500121085,"false"
"image-keyboard-response",126,171364,"0.0-3.38-1.38","ch7ea5apb04t9w6",786,"84.csv","","null","resources/maskTrios/L2BB.jpg","null","",NA,NA,NA,NA,""
"image-keyboard-response",127,172572,"0.0-3.38-2.38","ch7ea5apb04t9w6",786,"84.csv","","null","resources/images/fishbone.png","null","",NA,NA,NA,NA,""
"image-keyboard-response",128,173117,"0.0-3.39-0.39","ch7ea5apb04t9w6",786,"84.csv","","543","resources/trios/L4T4A2.jpg","38","restless",0.5,0.5,0.9,0.466661294060297,"true"
"image-keyboard-response",129,173524,"0.0-3.39-1.39","ch7ea5apb04t9w6",786,"84.csv","","null","resources/maskTrios/BT4B.jpg","null","",NA,NA,NA,NA,""
"image-keyboard-response",130,174731,"0.0-3.39-2.39","ch7ea5apb04t9w6",786,"84.csv","","null","resources/images/coin2.png","null","",NA,NA,NA,NA,""
"image-keyboard-response",131,175118,"0.0-3.40-0.40","ch7ea5apb04t9w6",786,"84.csv","","384.60000002384186","resources/trios/L2T1A1.jpg","39","restless",0.5,0.5,0.9,0.599967251659874,"true"
"image-keyboard-response",132,175523,"0.0-3.40-1.40","ch7ea5apb04t9w6",786,"84.csv","","null","resources/maskTrios/BBA1.jpg","null","",NA,NA,NA,NA,""
"image-keyboard-response",133,176732,"0.0-3.40-2.40","ch7ea5apb04t9w6",786,"84.csv","","null","resources/images/coin2.png","null","",NA,NA,NA,NA,""
"image-keyboard-response",134,177542,"0.0-3.41-0.41","ch7ea5apb04t9w6",786,"84.csv","","808.3000000119209","resources/trios/L4T4A2.jpg","39","restless",0.5,0.5,0.9,0.626974251993234,"true"
"image-keyboard-response",135,177948,"0.0-3.41-1.41","ch7ea5apb04t9w6",786,"84.csv","","null","resources/maskTrios/BBA2.jpg","null","",NA,NA,NA,NA,""
"image-keyboard-response",136,179156,"0.0-3.41-2.41","ch7ea5apb04t9w6",786,"84.csv","","null","resources/images/coin2.png","null","",NA,NA,NA,NA,""
"image-keyboard-response",137,179591,"0.0-3.42-0.42","ch7ea5apb04t9w6",786,"84.csv","","434.5","resources/trios/L2T1A1.jpg","38","restless",0.5,0.4,0.9,0.188951787223336,"true"
"image-keyboard-response",138,179995,"0.0-3.42-1.42","ch7ea5apb04t9w6",786,"84.csv","","null","resources/maskTrios/BT1B.jpg","null","",NA,NA,NA,NA,""
"image-keyboard-response",139,181204,"0.0-3.42-2.42","ch7ea5apb04t9w6",786,"84.csv","","null","resources/images/coin2.png","null","",NA,NA,NA,NA,""
"image-keyboard-response",140,181760,"0.0-3.43-0.43","ch7ea5apb04t9w6",786,"84.csv","","553.6999999880791","resources/trios/L4T4A2.jpg","37","restless",0.5,0.4,0.9,0.950264190495633,"false"
"image-keyboard-response",141,182163,"0.0-3.43-1.43","ch7ea5apb04t9w6",786,"84.csv","","null","resources/maskTrios/L4BB.jpg","null","",NA,NA,NA,NA,""
"image-keyboard-response",142,183372,"0.0-3.43-2.43","ch7ea5apb04t9w6",786,"84.csv","","null","resources/images/fishbone.png","null","",NA,NA,NA,NA,""
"image-keyboard-response",143,183828,"0.0-3.44-0.44","ch7ea5apb04t9w6",786,"84.csv","","453.5999999642372","resources/trios/L2T1A2.jpg","38","restless",0.5,0.4,0.9,0.155219324399984,"true"
"image-keyboard-response",144,184236,"0.0-3.44-1.44","ch7ea5apb04t9w6",786,"84.csv","","null","resources/maskTrios/BT1B.jpg","null","",NA,NA,NA,NA,""
"image-keyboard-response",145,185443,"0.0-3.44-2.44","ch7ea5apb04t9w6",786,"84.csv","","null","resources/images/coin2.png","null","",NA,NA,NA,NA,""
"image-keyboard-response",146,185936,"0.0-3.45-0.45","ch7ea5apb04t9w6",786,"84.csv","","490.5","resources/trios/L4T4A1.jpg","39","restless",0.6,0.4,0.8,0.96337352966691,"false"
"image-keyboard-response",147,186348,"0.0-3.45-1.45","ch7ea5apb04t9w6",786,"84.csv","","null","resources/maskTrios/BBA1.jpg","null","",NA,NA,NA,NA,""
"image-keyboard-response",148,187556,"0.0-3.45-2.45","ch7ea5apb04t9w6",786,"84.csv","","null","resources/images/fishbone.png","null","",NA,NA,NA,NA,""
"image-keyboard-response",149,188892,"0.0-3.46-0.46","ch7ea5apb04t9w6",786,"84.csv","","1333.7999999523163","resources/trios/L4T4A2.jpg","38","restless",0.6,0.4,0.8,0.141210413671721,"true"
"image-keyboard-response",150,189300,"0.0-3.46-1.46","ch7ea5apb04t9w6",786,"84.csv","","null","resources/maskTrios/BT4B.jpg","null","",NA,NA,NA,NA,""
"image-keyboard-response",151,190507,"0.0-3.46-2.46","ch7ea5apb04t9w6",786,"84.csv","","null","resources/images/coin2.png","null","",NA,NA,NA,NA,""
"image-keyboard-response",152,191397,"0.0-3.47-0.47","ch7ea5apb04t9w6",786,"84.csv","","887.0999999642372","resources/trios/L2T4A1.jpg","38","restless",0.6,0.4,0.8,0.836735639718404,"false"
"image-keyboard-response",153,191804,"0.0-3.47-1.47","ch7ea5apb04t9w6",786,"84.csv","","null","resources/maskTrios/BT4B.jpg","null","",NA,NA,NA,NA,""
"image-keyboard-response",154,193012,"0.0-3.47-2.47","ch7ea5apb04t9w6",786,"84.csv","","null","resources/images/fishbone.png","null","",NA,NA,NA,NA,""
"image-keyboard-response",155,193496,"0.0-3.48-0.48","ch7ea5apb04t9w6",786,"84.csv","","481.69999998807907","resources/trios/L2T1A1.jpg","39","restless",0.6,0.4,0.8,0.187725783497176,"true"
"image-keyboard-response",156,193900,"0.0-3.48-1.48","ch7ea5apb04t9w6",786,"84.csv","","null","resources/maskTrios/BBA1.jpg","null","",NA,NA,NA,NA,""
"image-keyboard-response",157,195108,"0.0-3.48-2.48","ch7ea5apb04t9w6",786,"84.csv","","null","resources/images/coin2.png","null","",NA,NA,NA,NA,""
"image-keyboard-response",158,195619,"0.0-3.49-0.49","ch7ea5apb04t9w6",786,"84.csv","","509.4000000357628","resources/trios/L4T4A1.jpg","37","restless",0.6,0.4,0.8,0.9855961748647,"false"
"image-keyboard-response",159,196027,"0.0-3.49-1.49","ch7ea5apb04t9w6",786,"84.csv","","null","resources/maskTrios/L4BB.jpg","null","",NA,NA,NA,NA,""
"image-keyboard-response",160,197234,"0.0-3.49-2.49","ch7ea5apb04t9w6",786,"84.csv","","null","resources/images/fishbone.png","null","",NA,NA,NA,NA,""
"image-keyboard-response",161,197607,"0.0-3.50-0.50","ch7ea5apb04t9w6",786,"84.csv","","371","resources/trios/L4T4A2.jpg","38","restless",0.6,0.4,0.9,0.45250541830647,"false"
"image-keyboard-response",162,198011,"0.0-3.50-1.50","ch7ea5apb04t9w6",786,"84.csv","","null","resources/maskTrios/BT4B.jpg","null","",NA,NA,NA,NA,""
"image-keyboard-response",163,199219,"0.0-3.50-2.50","ch7ea5apb04t9w6",786,"84.csv","","null","resources/images/fishbone.png","null","",NA,NA,NA,NA,""
"image-keyboard-response",164,199732,"0.0-3.51-0.51","ch7ea5apb04t9w6",786,"84.csv","","509.89999997615814","resources/trios/L2T4A2.jpg","39","restless",0.6,0.4,0.9,0.584848580848609,"true"
"image-keyboard-response",165,200139,"0.0-3.51-1.51","ch7ea5apb04t9w6",786,"84.csv","","null","resources/maskTrios/BBA2.jpg","null","",NA,NA,NA,NA,""
"image-keyboard-response",166,201347,"0.0-3.51-2.51","ch7ea5apb04t9w6",786,"84.csv","","null","resources/images/coin2.png","null","",NA,NA,NA,NA,""
"image-keyboard-response",167,201796,"0.0-3.52-0.52","ch7ea5apb04t9w6",786,"84.csv","","446","resources/trios/L2T4A1.jpg","39","restless",0.6,0.4,0.9,0.580482087764973,"true"
"image-keyboard-response",168,202203,"0.0-3.52-1.52","ch7ea5apb04t9w6",786,"84.csv","","null","resources/maskTrios/BBA1.jpg","null","",NA,NA,NA,NA,""
"image-keyboard-response",169,203410,"0.0-3.52-2.52","ch7ea5apb04t9w6",786,"84.csv","","null","resources/images/coin2.png","null","",NA,NA,NA,NA,""
"image-keyboard-response",170,203980,"0.0-3.53-0.53","ch7ea5apb04t9w6",786,"84.csv","","567.6000000238419","resources/trios/L2T1A2.jpg","38","restless",0.6,0.4,0.9,0.841395327882994,"false"
"image-keyboard-response",171,204387,"0.0-3.53-1.53","ch7ea5apb04t9w6",786,"84.csv","","null","resources/maskTrios/BT1B.jpg","null","",NA,NA,NA,NA,""
"image-keyboard-response",172,205595,"0.0-3.53-2.53","ch7ea5apb04t9w6",786,"84.csv","","null","resources/images/fishbone.png","null","",NA,NA,NA,NA,""
"image-keyboard-response",173,206067,"0.0-3.54-0.54","ch7ea5apb04t9w6",786,"84.csv","","469.5999999642372","resources/trios/L4T1A2.jpg","37","restless",0.6,0.4,0.9,0.838497323046152,"false"
"image-keyboard-response",174,206475,"0.0-3.54-1.54","ch7ea5apb04t9w6",786,"84.csv","","null","resources/maskTrios/L4BB.jpg","null","",NA,NA,NA,NA,""
"image-keyboard-response",175,207682,"0.0-3.54-2.54","ch7ea5apb04t9w6",786,"84.csv","","null","resources/images/fishbone.png","null","",NA,NA,NA,NA,""
"image-keyboard-response",176,208025,"0.0-3.55-0.55","ch7ea5apb04t9w6",786,"84.csv","","340.89999997615814","resources/trios/L2T1A2.jpg","39","restless",0.7,0.4,0.9,0.116616142409921,"true"
"image-keyboard-response",177,208435,"0.0-3.55-1.55","ch7ea5apb04t9w6",786,"84.csv","","null","resources/maskTrios/BBA2.jpg","null","",NA,NA,NA,NA,""
"image-keyboard-response",178,209644,"0.0-3.55-2.55","ch7ea5apb04t9w6",786,"84.csv","","null","resources/images/coin2.png","null","",NA,NA,NA,NA,""
"image-keyboard-response",179,210043,"0.0-3.56-0.56","ch7ea5apb04t9w6",786,"84.csv","","397.89999997615814","resources/trios/L4T4A2.jpg","39","restless",0.7,0.4,0.9,0.724936803595724,"true"
"image-keyboard-response",180,210451,"0.0-3.56-1.56","ch7ea5apb04t9w6",786,"84.csv","","null","resources/maskTrios/BBA2.jpg","null","",NA,NA,NA,NA,""
"image-keyboard-response",181,211659,"0.0-3.56-2.56","ch7ea5apb04t9w6",786,"84.csv","","null","resources/images/coin2.png","null","",NA,NA,NA,NA,""
"image-keyboard-response",182,212438,"0.0-3.57-0.57","ch7ea5apb04t9w6",786,"84.csv","","776.6999999880791","resources/trios/L2T1A1.jpg","38","restless",0.8,0.4,0.9,0.888962112567478,"false"
"image-keyboard-response",183,212843,"0.0-3.57-1.57","ch7ea5apb04t9w6",786,"84.csv","","null","resources/maskTrios/BT1B.jpg","null","",NA,NA,NA,NA,""
"image-keyboard-response",184,214051,"0.0-3.57-2.57","ch7ea5apb04t9w6",786,"84.csv","","null","resources/images/fishbone.png","null","",NA,NA,NA,NA,""
"image-keyboard-response",185,214375,"0.0-3.58-0.58","ch7ea5apb04t9w6",786,"84.csv","","321.4000000357628","resources/trios/L4T1A1.jpg","39","restless",0.8,0.4,0.9,0.860334546741473,"true"
"image-keyboard-response",186,214779,"0.0-3.58-1.58","ch7ea5apb04t9w6",786,"84.csv","","null","resources/maskTrios/BBA1.jpg","null","",NA,NA,NA,NA,""
"image-keyboard-response",187,215989,"0.0-3.58-2.58","ch7ea5apb04t9w6",786,"84.csv","","null","resources/images/coin2.png","null","",NA,NA,NA,NA,""
"image-keyboard-response",188,217112,"0.0-3.59-0.59","ch7ea5apb04t9w6",786,"84.csv","","1120.3999999761581","resources/trios/L2T4A2.jpg","39","restless",0.8,0.4,0.9,0.881507721264937,"true"
"image-keyboard-response",189,217523,"0.0-3.59-1.59","ch7ea5apb04t9w6",786,"84.csv","","null","resources/maskTrios/BBA2.jpg","null","",NA,NA,NA,NA,""
"image-keyboard-response",190,218731,"0.0-3.59-2.59","ch7ea5apb04t9w6",786,"84.csv","","null","resources/images/coin2.png","null","",NA,NA,NA,NA,""
"image-keyboard-response",191,219386,"0.0-3.60-0.60","ch7ea5apb04t9w6",786,"84.csv","","652.5999999642372","resources/trios/L4T4A2.jpg","37","restless",0.8,0.4,0.9,0.774407294398174,"true"
"image-keyboard-response",192,219795,"0.0-3.60-1.60","ch7ea5apb04t9w6",786,"84.csv","","null","resources/maskTrios/L4BB.jpg","null","",NA,NA,NA,NA,""
"image-keyboard-response",193,221007,"0.0-3.60-2.60","ch7ea5apb04t9w6",786,"84.csv","","null","resources/images/coin2.png","null","",NA,NA,NA,NA,""
"image-keyboard-response",194,221780,"0.0-3.61-0.61","ch7ea5apb04t9w6",786,"84.csv","","771.5","resources/trios/L4T4A1.jpg","37","restless",0.8,0.4,0.9,0.460156385248127,"true"
"image-keyboard-response",195,222187,"0.0-3.61-1.61","ch7ea5apb04t9w6",786,"84.csv","","null","resources/maskTrios/L4BB.jpg","null","",NA,NA,NA,NA,""
"image-keyboard-response",196,223395,"0.0-3.61-2.61","ch7ea5apb04t9w6",786,"84.csv","","null","resources/images/coin2.png","null","",NA,NA,NA,NA,""
"image-keyboard-response",197,223783,"0.0-3.62-0.62","ch7ea5apb04t9w6",786,"84.csv","","385.60000002384186","resources/trios/L4T4A2.jpg","38","restless",0.8,0.4,0.9,0.0070201663073679,"true"
"image-keyboard-response",198,224188,"0.0-3.62-1.62","ch7ea5apb04t9w6",786,"84.csv","","null","resources/maskTrios/BT4B.jpg","null","",NA,NA,NA,NA,""
"image-keyboard-response",199,225395,"0.0-3.62-2.62","ch7ea5apb04t9w6",786,"84.csv","","null","resources/images/coin2.png","null","",NA,NA,NA,NA,""
"image-keyboard-response",200,226170,"0.0-3.63-0.63","ch7ea5apb04t9w6",786,"84.csv","","772.7999999523163","resources/trios/L2T1A2.jpg","38","restless",0.8,0.4,0.9,0.671186265479183,"false"
"image-keyboard-response",201,226579,"0.0-3.63-1.63","ch7ea5apb04t9w6",786,"84.csv","","null","resources/maskTrios/BT1B.jpg","null","",NA,NA,NA,NA,""
"image-keyboard-response",202,227787,"0.0-3.63-2.63","ch7ea5apb04t9w6",786,"84.csv","","null","resources/images/fishbone.png","null","",NA,NA,NA,NA,""
"image-keyboard-response",203,228181,"0.0-3.64-0.64","ch7ea5apb04t9w6",786,"84.csv","","392.60000002384186","resources/trios/L2T4A1.jpg","39","restless",0.8,0.4,0.9,0.128029135199245,"true"
"image-keyboard-response",204,228587,"0.0-3.64-1.64","ch7ea5apb04t9w6",786,"84.csv","","null","resources/maskTrios/BBA1.jpg","null","",NA,NA,NA,NA,""
"image-keyboard-response",205,229795,"0.0-3.64-2.64","ch7ea5apb04t9w6",786,"84.csv","","null","resources/images/coin2.png","null","",NA,NA,NA,NA,""
"image-keyboard-response",206,230270,"0.0-3.65-0.65","ch7ea5apb04t9w6",786,"84.csv","","472.7999999523163","resources/trios/L4T4A2.jpg","39","restless",0.8,0.4,0.9,0.79397094055094,"true"
"image-keyboard-response",207,230676,"0.0-3.65-1.65","ch7ea5apb04t9w6",786,"84.csv","","null","resources/maskTrios/BBA2.jpg","null","",NA,NA,NA,NA,""
"image-keyboard-response",208,231883,"0.0-3.65-2.65","ch7ea5apb04t9w6",786,"84.csv","","null","resources/images/coin2.png","null","",NA,NA,NA,NA,""
"image-keyboard-response",209,232207,"0.0-3.66-0.66","ch7ea5apb04t9w6",786,"84.csv","","321.69999998807907","resources/trios/L4T1A2.jpg","37","restless",0.8,0.4,0.9,0.441593049510173,"true"
"image-keyboard-response",210,232610,"0.0-3.66-1.66","ch7ea5apb04t9w6",786,"84.csv","","null","resources/maskTrios/L4BB.jpg","null","",NA,NA,NA,NA,""
"image-keyboard-response",211,233819,"0.0-3.66-2.66","ch7ea5apb04t9w6",786,"84.csv","","null","resources/images/coin2.png","null","",NA,NA,NA,NA,""
"image-keyboard-response",212,234488,"0.0-3.67-0.67","ch7ea5apb04t9w6",786,"84.csv","","667.8999999761581","resources/trios/L4T4A1.jpg","38","restless",0.8,0.5,0.9,0.61099765921271,"false"
"image-keyboard-response",213,234898,"0.0-3.67-1.67","ch7ea5apb04t9w6",786,"84.csv","","null","resources/maskTrios/BT4B.jpg","null","",NA,NA,NA,NA,""
"image-keyboard-response",214,236107,"0.0-3.67-2.67","ch7ea5apb04t9w6",786,"84.csv","","null","resources/images/fishbone.png","null","",NA,NA,NA,NA,""
"image-keyboard-response",215,236426,"0.0-3.68-0.68","ch7ea5apb04t9w6",786,"84.csv","","317.39999997615814","resources/trios/L4T1A1.jpg","37","restless",0.7,0.5,0.9,0.515403201945823,"true"
"image-keyboard-response",216,236835,"0.0-3.68-1.68","ch7ea5apb04t9w6",786,"84.csv","","null","resources/maskTrios/L4BB.jpg","null","",NA,NA,NA,NA,""
"image-keyboard-response",217,238043,"0.0-3.68-2.68","ch7ea5apb04t9w6",786,"84.csv","","null","resources/images/coin2.png","null","",NA,NA,NA,NA,""
"image-keyboard-response",218,238435,"0.0-3.69-0.69","ch7ea5apb04t9w6",786,"84.csv","","390.5","resources/trios/L4T4A2.jpg","39","restless",0.7,0.5,0.9,0.602142099601553,"true"
"image-keyboard-response",219,238842,"0.0-3.69-1.69","ch7ea5apb04t9w6",786,"84.csv","","null","resources/maskTrios/BBA2.jpg","null","",NA,NA,NA,NA,""
"image-keyboard-response",220,240051,"0.0-3.69-2.69","ch7ea5apb04t9w6",786,"84.csv","","null","resources/images/coin2.png","null","",NA,NA,NA,NA,""
"image-keyboard-response",221,240394,"0.0-3.70-0.70","ch7ea5apb04t9w6",786,"84.csv","","341.30000001192093","resources/trios/L4T4A2.jpg","37","restless",0.7,0.5,0.9,0.322664599044009,"true"
"image-keyboard-response",222,240802,"0.0-3.70-1.70","ch7ea5apb04t9w6",786,"84.csv","","null","resources/maskTrios/L4BB.jpg","null","",NA,NA,NA,NA,""
"image-keyboard-response",223,242010,"0.0-3.70-2.70","ch7ea5apb04t9w6",786,"84.csv","","null","resources/images/coin2.png","null","",NA,NA,NA,NA,""
"image-keyboard-response",224,242379,"0.0-3.71-0.71","ch7ea5apb04t9w6",786,"84.csv","","367.30000001192093","resources/trios/L4T1A1.jpg","38","restless",0.6,0.5,0.9,0.748381806663894,"false"
"image-keyboard-response",225,242787,"0.0-3.71-1.71","ch7ea5apb04t9w6",786,"84.csv","","null","resources/maskTrios/BT1B.jpg","null","",NA,NA,NA,NA,""
"image-keyboard-response",226,243994,"0.0-3.71-2.71","ch7ea5apb04t9w6",786,"84.csv","","null","resources/images/fishbone.png","null","",NA,NA,NA,NA,""
"image-keyboard-response",227,244497,"0.0-3.72-0.72","ch7ea5apb04t9w6",786,"84.csv","","500.60000002384186","resources/trios/L4T1A2.jpg","39","restless",0.6,0.5,0.8,0.523890309927347,"true"
"image-keyboard-response",228,244907,"0.0-3.72-1.72","ch7ea5apb04t9w6",786,"84.csv","","null","resources/maskTrios/BBA2.jpg","null","",NA,NA,NA,NA,""
"image-keyboard-response",229,246114,"0.0-3.72-2.72","ch7ea5apb04t9w6",786,"84.csv","","null","resources/images/coin2.png","null","",NA,NA,NA,NA,""
"image-keyboard-response",230,246765,"0.0-3.73-0.73","ch7ea5apb04t9w6",786,"84.csv","","648.3999999761581","resources/trios/L4T1A1.jpg","37","restless",0.7,0.5,0.8,0.257578103874941,"true"
"image-keyboard-response",231,247171,"0.0-3.73-1.73","ch7ea5apb04t9w6",786,"84.csv","","null","resources/maskTrios/L4BB.jpg","null","",NA,NA,NA,NA,""
"image-keyboard-response",232,248378,"0.0-3.73-2.73","ch7ea5apb04t9w6",786,"84.csv","","null","resources/images/coin2.png","null","",NA,NA,NA,NA,""
"image-keyboard-response",233,248961,"0.0-3.74-0.74","ch7ea5apb04t9w6",786,"84.csv","","580.5999999642372","resources/trios/L2T4A2.jpg","39","restless",0.6,0.5,0.8,0.983768250606548,"false"
"image-keyboard-response",234,249370,"0.0-3.74-1.74","ch7ea5apb04t9w6",786,"84.csv","","null","resources/maskTrios/BBA2.jpg","null","",NA,NA,NA,NA,""
"image-keyboard-response",235,250578,"0.0-3.74-2.74","ch7ea5apb04t9w6",786,"84.csv","","null","resources/images/fishbone.png","null","",NA,NA,NA,NA,""
"image-keyboard-response",236,251190,"0.0-3.75-0.75","ch7ea5apb04t9w6",786,"84.csv","","610","resources/trios/L2T1A1.jpg","37","restless",0.6,0.5,0.8,0.189141657573128,"true"
"image-keyboard-response",237,251594,"0.0-3.75-1.75","ch7ea5apb04t9w6",786,"84.csv","","null","resources/maskTrios/L2BB.jpg","null","",NA,NA,NA,NA,""
"image-keyboard-response",238,252802,"0.0-3.75-2.75","ch7ea5apb04t9w6",786,"84.csv","","null","resources/images/coin2.png","null","",NA,NA,NA,NA,""
"image-keyboard-response",239,253287,"0.0-3.76-0.76","ch7ea5apb04t9w6",786,"84.csv","","482.9000000357628","resources/trios/L4T4A1.jpg","38","restless",0.6,0.5,0.8,0.194946188039882,"true"
"image-keyboard-response",240,253698,"0.0-3.76-1.76","ch7ea5apb04t9w6",786,"84.csv","","null","resources/maskTrios/BT4B.jpg","null","",NA,NA,NA,NA,""
"image-keyboard-response",241,254905,"0.0-3.76-2.76","ch7ea5apb04t9w6",786,"84.csv","","null","resources/images/coin2.png","null","",NA,NA,NA,NA,""
"image-keyboard-response",242,255291,"0.0-3.77-0.77","ch7ea5apb04t9w6",786,"84.csv","","384.19999998807907","resources/trios/L4T1A2.jpg","38","restless",0.6,0.5,0.8,0.067381904815518,"true"
"image-keyboard-response",243,255699,"0.0-3.77-1.77","ch7ea5apb04t9w6",786,"84.csv","","null","resources/maskTrios/BT1B.jpg","null","",NA,NA,NA,NA,""
"image-keyboard-response",244,256906,"0.0-3.77-2.77","ch7ea5apb04t9w6",786,"84.csv","","null","resources/images/coin2.png","null","",NA,NA,NA,NA,""
"image-keyboard-response",245,257444,"0.0-3.78-0.78","ch7ea5apb04t9w6",786,"84.csv","","535.8000000119209","resources/trios/L4T4A1.jpg","37","restless",0.6,0.5,0.9,0.178806794328434,"true"
"image-keyboard-response",246,257850,"0.0-3.78-1.78","ch7ea5apb04t9w6",786,"84.csv","","null","resources/maskTrios/L4BB.jpg","null","",NA,NA,NA,NA,""
"image-keyboard-response",247,259058,"0.0-3.78-2.78","ch7ea5apb04t9w6",786,"84.csv","","null","resources/images/coin2.png","null","",NA,NA,NA,NA,""
"image-keyboard-response",248,259284,"0.0-3.79-0.79","ch7ea5apb04t9w6",786,"84.csv","","223.4000000357628","resources/trios/L2T4A1.jpg","38","restless",0.6,0.5,0.9,0.771711033166278,"false"
"image-keyboard-response",249,259690,"0.0-3.79-1.79","ch7ea5apb04t9w6",786,"84.csv","","null","resources/maskTrios/BT4B.jpg","null","",NA,NA,NA,NA,""
"image-keyboard-response",250,260898,"0.0-3.79-2.79","ch7ea5apb04t9w6",786,"84.csv","","null","resources/images/fishbone.png","null","",NA,NA,NA,NA,""
"image-keyboard-response",251,261181,"0.0-3.80-0.80","ch7ea5apb04t9w6",786,"84.csv","","280.60000002384186","resources/trios/L4T4A2.jpg","39","restless",0.6,0.5,0.9,0.561126271342111,"true"
"image-keyboard-response",252,261586,"0.0-3.80-1.80","ch7ea5apb04t9w6",786,"84.csv","","null","resources/maskTrios/BBA2.jpg","null","",NA,NA,NA,NA,""
"image-keyboard-response",253,262794,"0.0-3.80-2.80","ch7ea5apb04t9w6",786,"84.csv","","null","resources/images/coin2.png","null","",NA,NA,NA,NA,""
"image-keyboard-response",254,263065,"0.0-3.81-0.81","ch7ea5apb04t9w6",786,"84.csv","","269","resources/trios/L2T1A1.jpg","39","restless",0.6,0.6,0.9,0.819029296208212,"true"
"image-keyboard-response",255,263474,"0.0-3.81-1.81","ch7ea5apb04t9w6",786,"84.csv","","null","resources/maskTrios/BBA1.jpg","null","",NA,NA,NA,NA,""
"image-keyboard-response",256,264682,"0.0-3.81-2.81","ch7ea5apb04t9w6",786,"84.csv","","null","resources/images/coin2.png","null","",NA,NA,NA,NA,""
"image-keyboard-response",257,265136,"0.0-3.82-0.82","ch7ea5apb04t9w6",786,"84.csv","","451.39999997615814","resources/trios/L2T1A1.jpg","37","restless",0.6,0.6,0.9,0.63537056402483,"false"
"image-keyboard-response",258,265546,"0.0-3.82-1.82","ch7ea5apb04t9w6",786,"84.csv","","null","resources/maskTrios/L2BB.jpg","null","",NA,NA,NA,NA,""
"image-keyboard-response",259,266754,"0.0-3.82-2.82","ch7ea5apb04t9w6",786,"84.csv","","null","resources/images/fishbone.png","null","",NA,NA,NA,NA,""
"image-keyboard-response",260,267320,"0.0-3.83-0.83","ch7ea5apb04t9w6",786,"84.csv","","563.1000000238419","resources/trios/L2T4A2.jpg","39","restless",0.6,0.6,0.9,0.138681778905333,"true"
"image-keyboard-response",261,267730,"0.0-3.83-1.83","ch7ea5apb04t9w6",786,"84.csv","","null","resources/maskTrios/BBA2.jpg","null","",NA,NA,NA,NA,""
"image-keyboard-response",262,268938,"0.0-3.83-2.83","ch7ea5apb04t9w6",786,"84.csv","","null","resources/images/coin2.png","null","",NA,NA,NA,NA,""
"image-keyboard-response",263,269446,"0.0-3.84-0.84","ch7ea5apb04t9w6",786,"84.csv","","506.2999999523163","resources/trios/L2T1A2.jpg","39","restless",0.6,0.6,0.9,0.505687469693375,"true"
"image-keyboard-response",264,269850,"0.0-3.84-1.84","ch7ea5apb04t9w6",786,"84.csv","","null","resources/maskTrios/BBA2.jpg","null","",NA,NA,NA,NA,""
"image-keyboard-response",265,271061,"0.0-3.84-2.84","ch7ea5apb04t9w6",786,"84.csv","","null","resources/images/coin2.png","null","",NA,NA,NA,NA,""
"image-keyboard-response",266,271612,"0.0-3.85-0.85","ch7ea5apb04t9w6",786,"84.csv","","548.2000000476837","resources/trios/L2T1A2.jpg","38","restless",0.6,0.7,0.9,0.130786470242963,"true"
"image-keyboard-response",267,272018,"0.0-3.85-1.85","ch7ea5apb04t9w6",786,"84.csv","","null","resources/maskTrios/BT1B.jpg","null","",NA,NA,NA,NA,""
"image-keyboard-response",268,273226,"0.0-3.85-2.85","ch7ea5apb04t9w6",786,"84.csv","","null","resources/images/coin2.png","null","",NA,NA,NA,NA,""
"image-keyboard-response",269,273596,"0.0-3.86-0.86","ch7ea5apb04t9w6",786,"84.csv","","369.2000000476837","resources/trios/L4T4A2.jpg","38","restless",0.6,0.7,0.9,0.920697673258433,"false"
"image-keyboard-response",270,274002,"0.0-3.86-1.86","ch7ea5apb04t9w6",786,"84.csv","","null","resources/maskTrios/BT4B.jpg","null","",NA,NA,NA,NA,""
"image-keyboard-response",271,275209,"0.0-3.86-2.86","ch7ea5apb04t9w6",786,"84.csv","","null","resources/images/fishbone.png","null","",NA,NA,NA,NA,""
"image-keyboard-response",272,275831,"0.0-3.87-0.87","ch7ea5apb04t9w6",786,"84.csv","","620.6000000238419","resources/trios/L4T4A1.jpg","37","restless",0.6,0.7,0.8,0.0485799120349875,"true"
"image-keyboard-response",273,276242,"0.0-3.87-1.87","ch7ea5apb04t9w6",786,"84.csv","","null","resources/maskTrios/L4BB.jpg","null","",NA,NA,NA,NA,""
"image-keyboard-response",274,277450,"0.0-3.87-2.87","ch7ea5apb04t9w6",786,"84.csv","","null","resources/images/coin2.png","null","",NA,NA,NA,NA,""
"image-keyboard-response",275,278340,"0.0-3.88-0.88","ch7ea5apb04t9w6",786,"84.csv","","888.2000000476837","resources/trios/L2T4A2.jpg","37","restless",0.6,0.7,0.8,0.146533935413959,"true"
"image-keyboard-response",276,278746,"0.0-3.88-1.88","ch7ea5apb04t9w6",786,"84.csv","","null","resources/maskTrios/L2BB.jpg","null","",NA,NA,NA,NA,""
"image-keyboard-response",277,279954,"0.0-3.88-2.88","ch7ea5apb04t9w6",786,"84.csv","","null","resources/images/coin2.png","null","",NA,NA,NA,NA,""
"image-keyboard-response",278,280902,"0.0-3.89-0.89","ch7ea5apb04t9w6",786,"84.csv","","946.3999999761581","resources/trios/L4T4A1.jpg","39","restless",0.6,0.7,0.8,0.44735019472921,"true"
"image-keyboard-response",279,281314,"0.0-3.89-1.89","ch7ea5apb04t9w6",786,"84.csv","","null","resources/maskTrios/BBA1.jpg","null","",NA,NA,NA,NA,""
"image-keyboard-response",280,282521,"0.0-3.89-2.89","ch7ea5apb04t9w6",786,"84.csv","","null","resources/images/coin2.png","null","",NA,NA,NA,NA,""
"image-keyboard-response",281,282841,"0.0-3.90-0.90","ch7ea5apb04t9w6",786,"84.csv","","318.10000002384186","resources/trios/L2T4A1.jpg","39","restless",0.7,0.7,0.7,0.582479750765381,"true"
"image-keyboard-response",282,283249,"0.0-3.90-1.90","ch7ea5apb04t9w6",786,"84.csv","","null","resources/maskTrios/BBA1.jpg","null","",NA,NA,NA,NA,""
"image-keyboard-response",283,284458,"0.0-3.90-2.90","ch7ea5apb04t9w6",786,"84.csv","","null","resources/images/coin2.png","null","",NA,NA,NA,NA,""
"image-keyboard-response",284,284934,"0.0-3.91-0.91","ch7ea5apb04t9w6",786,"84.csv","","474.5","resources/trios/L4T4A2.jpg","39","restless",0.7,0.7,0.7,0.493934391580414,"true"
"image-keyboard-response",285,285338,"0.0-3.91-1.91","ch7ea5apb04t9w6",786,"84.csv","","null","resources/maskTrios/BBA2.jpg","null","",NA,NA,NA,NA,""
"image-keyboard-response",286,286545,"0.0-3.91-2.91","ch7ea5apb04t9w6",786,"84.csv","","null","resources/images/coin2.png","null","",NA,NA,NA,NA,""
"image-keyboard-response",287,286873,"0.0-3.92-0.92","ch7ea5apb04t9w6",786,"84.csv","","326","resources/trios/L2T4A2.jpg","38","restless",0.7,0.7,0.6,0.942307355924239,"false"
"image-keyboard-response",288,287282,"0.0-3.92-1.92","ch7ea5apb04t9w6",786,"84.csv","","null","resources/maskTrios/BT4B.jpg","null","",NA,NA,NA,NA,""
"image-keyboard-response",289,288490,"0.0-3.92-2.92","ch7ea5apb04t9w6",786,"84.csv","","null","resources/images/fishbone.png","null","",NA,NA,NA,NA,""
"image-keyboard-response",290,288758,"0.0-3.93-0.93","ch7ea5apb04t9w6",786,"84.csv","","266.39999997615814","resources/trios/L4T4A1.jpg","39","restless",0.7,0.7,0.6,0.657201341667737,"false"
"image-keyboard-response",291,289170,"0.0-3.93-1.93","ch7ea5apb04t9w6",786,"84.csv","","null","resources/maskTrios/BBA1.jpg","null","",NA,NA,NA,NA,""
"image-keyboard-response",292,290378,"0.0-3.93-2.93","ch7ea5apb04t9w6",786,"84.csv","","null","resources/images/fishbone.png","null","",NA,NA,NA,NA,""
"image-keyboard-response",293,290647,"0.0-3.94-0.94","ch7ea5apb04t9w6",786,"84.csv","","267.19999998807907","resources/trios/L2T4A2.jpg","37","restless",0.7,0.7,0.6,0.933335874827723,"false"
"image-keyboard-response",294,291061,"0.0-3.94-1.94","ch7ea5apb04t9w6",786,"84.csv","","null","resources/maskTrios/L2BB.jpg","null","",NA,NA,NA,NA,""
"image-keyboard-response",295,292265,"0.0-3.94-2.94","ch7ea5apb04t9w6",786,"84.csv","","null","resources/images/fishbone.png","null","",NA,NA,NA,NA,""
"image-keyboard-response",296,292590,"0.0-3.95-0.95","ch7ea5apb04t9w6",786,"84.csv","","323.30000001192093","resources/trios/L2T4A1.jpg","39","restless",0.7,0.7,0.6,0.0526281899329648,"true"
"image-keyboard-response",297,292993,"0.0-3.95-1.95","ch7ea5apb04t9w6",786,"84.csv","","null","resources/maskTrios/BBA1.jpg","null","",NA,NA,NA,NA,""
"image-keyboard-response",298,294201,"0.0-3.95-2.95","ch7ea5apb04t9w6",786,"84.csv","","null","resources/images/coin2.png","null","",NA,NA,NA,NA,""
"image-keyboard-response",299,294418,"0.0-3.96-0.96","ch7ea5apb04t9w6",786,"84.csv","","214.30000001192093","resources/trios/L2T4A1.jpg","39","restless",0.7,0.7,0.6,0.792433428674031,"false"
"image-keyboard-response",300,294825,"0.0-3.96-1.96","ch7ea5apb04t9w6",786,"84.csv","","null","resources/maskTrios/BBA1.jpg","null","",NA,NA,NA,NA,""
"image-keyboard-response",301,296033,"0.0-3.96-2.96","ch7ea5apb04t9w6",786,"84.csv","","null","resources/images/fishbone.png","null","",NA,NA,NA,NA,""
"image-keyboard-response",302,296593,"0.0-3.97-0.97","ch7ea5apb04t9w6",786,"84.csv","","557.5","resources/trios/L2T4A2.jpg","38","restless",0.7,0.7,0.6,0.287987236763378,"true"
"image-keyboard-response",303,297001,"0.0-3.97-1.97","ch7ea5apb04t9w6",786,"84.csv","","null","resources/maskTrios/BT4B.jpg","null","",NA,NA,NA,NA,""
"image-keyboard-response",304,298209,"0.0-3.97-2.97","ch7ea5apb04t9w6",786,"84.csv","","null","resources/images/coin2.png","null","",NA,NA,NA,NA,""
"image-keyboard-response",305,298900,"0.0-3.98-0.98","ch7ea5apb04t9w6",786,"84.csv","","688.3000000119209","resources/trios/L2T4A1.jpg","38","restless",0.6,0.7,0.6,0.484128666406757,"true"
"image-keyboard-response",306,299305,"0.0-3.98-1.98","ch7ea5apb04t9w6",786,"84.csv","","null","resources/maskTrios/BT4B.jpg","null","",NA,NA,NA,NA,""
"image-keyboard-response",307,300513,"0.0-3.98-2.98","ch7ea5apb04t9w6",786,"84.csv","","null","resources/images/coin2.png","null","",NA,NA,NA,NA,""
"image-keyboard-response",308,301558,"0.0-3.99-0.99","ch7ea5apb04t9w6",786,"84.csv","","1043.0999999642372","resources/trios/L2T4A2.jpg","38","restless",0.6,0.7,0.6,0.392157502333698,"true"
"image-keyboard-response",309,301960,"0.0-3.99-1.99","ch7ea5apb04t9w6",786,"84.csv","","null","resources/maskTrios/BT4B.jpg","null","",NA,NA,NA,NA,""
"image-keyboard-response",310,303170,"0.0-3.99-2.99","ch7ea5apb04t9w6",786,"84.csv","","null","resources/images/coin2.png","null","",NA,NA,NA,NA,""
"image-keyboard-response",311,303485,"0.0-3.100-0.100","ch7ea5apb04t9w6",786,"84.csv","","313.30000001192093","resources/trios/L2T1A2.jpg","39","restless",0.5,0.6,0.6,0.12950630316353,"true"
"image-keyboard-response",312,303888,"0.0-3.100-1.100","ch7ea5apb04t9w6",786,"84.csv","","null","resources/maskTrios/BBA2.jpg","null","",NA,NA,NA,NA,""
"image-keyboard-response",313,305097,"0.0-3.100-2.100","ch7ea5apb04t9w6",786,"84.csv","","null","resources/images/coin2.png","null","",NA,NA,NA,NA,""
"image-keyboard-response",314,305514,"0.0-3.101-0.101","ch7ea5apb04t9w6",786,"84.csv","","415.2999999523163","resources/trios/L4T1A2.jpg","38","restless",0.4,0.6,0.6,0.344851161538765,"true"
"image-keyboard-response",315,305924,"0.0-3.101-1.101","ch7ea5apb04t9w6",786,"84.csv","","null","resources/maskTrios/BT1B.jpg","null","",NA,NA,NA,NA,""
"image-keyboard-response",316,307128,"0.0-3.101-2.101","ch7ea5apb04t9w6",786,"84.csv","","null","resources/images/coin2.png","null","",NA,NA,NA,NA,""
"image-keyboard-response",317,307562,"0.0-3.102-0.102","ch7ea5apb04t9w6",786,"84.csv","","431.60000002384186","resources/trios/L2T1A2.jpg","37","restless",0.4,0.6,0.6,0.744279161202548,"false"
"image-keyboard-response",318,307969,"0.0-3.102-1.102","ch7ea5apb04t9w6",786,"84.csv","","null","resources/maskTrios/L2BB.jpg","null","",NA,NA,NA,NA,""
"image-keyboard-response",319,309177,"0.0-3.102-2.102","ch7ea5apb04t9w6",786,"84.csv","","null","resources/images/fishbone.png","null","",NA,NA,NA,NA,""
"image-keyboard-response",320,309613,"0.0-3.103-0.103","ch7ea5apb04t9w6",786,"84.csv","","433.69999998807907","resources/trios/L2T4A2.jpg","38","restless",0.4,0.6,0.6,0.658451984519403,"false"
"image-keyboard-response",321,310017,"0.0-3.103-1.103","ch7ea5apb04t9w6",786,"84.csv","","null","resources/maskTrios/BT4B.jpg","null","",NA,NA,NA,NA,""
"image-keyboard-response",322,311225,"0.0-3.103-2.103","ch7ea5apb04t9w6",786,"84.csv","","null","resources/images/fishbone.png","null","",NA,NA,NA,NA,""
"image-keyboard-response",323,311730,"0.0-3.104-0.104","ch7ea5apb04t9w6",786,"84.csv","","502.5","resources/trios/L2T1A2.jpg","38","restless",0.4,0.6,0.6,0.653255672022198,"false"
"image-keyboard-response",324,312137,"0.0-3.104-1.104","ch7ea5apb04t9w6",786,"84.csv","","null","resources/maskTrios/BT1B.jpg","null","",NA,NA,NA,NA,""
"image-keyboard-response",325,313345,"0.0-3.104-2.104","ch7ea5apb04t9w6",786,"84.csv","","null","resources/images/fishbone.png","null","",NA,NA,NA,NA,""
"image-keyboard-response",326,313468,"0.0-3.105-0.105","ch7ea5apb04t9w6",786,"84.csv","","121.10000002384186","resources/trios/L4T1A1.jpg","39","restless",0.4,0.6,0.6,0.460014656298228,"true"
"image-keyboard-response",327,313873,"0.0-3.105-1.105","ch7ea5apb04t9w6",786,"84.csv","","null","resources/maskTrios/BBA1.jpg","null","",NA,NA,NA,NA,""
"image-keyboard-response",328,315081,"0.0-3.105-2.105","ch7ea5apb04t9w6",786,"84.csv","","null","resources/images/coin2.png","null","",NA,NA,NA,NA,""
"image-keyboard-response",329,315451,"0.0-3.106-0.106","ch7ea5apb04t9w6",786,"84.csv","","368.5","resources/trios/L4T1A1.jpg","39","restless",0.4,0.6,0.5,0.40836017320801,"true"
"image-keyboard-response",330,315857,"0.0-3.106-1.106","ch7ea5apb04t9w6",786,"84.csv","","null","resources/maskTrios/BBA1.jpg","null","",NA,NA,NA,NA,""
"image-keyboard-response",331,317064,"0.0-3.106-2.106","ch7ea5apb04t9w6",786,"84.csv","","null","resources/images/coin2.png","null","",NA,NA,NA,NA,""
"image-keyboard-response",332,317953,"0.0-3.107-0.107","ch7ea5apb04t9w6",786,"84.csv","","887","resources/trios/L2T1A1.jpg","39","restless",0.4,0.6,0.5,0.125351752467119,"true"
"image-keyboard-response",333,318360,"0.0-3.107-1.107","ch7ea5apb04t9w6",786,"84.csv","","null","resources/maskTrios/BBA1.jpg","null","",NA,NA,NA,NA,""
"image-keyboard-response",334,319569,"0.0-3.107-2.107","ch7ea5apb04t9w6",786,"84.csv","","null","resources/images/coin2.png","null","",NA,NA,NA,NA,""
"image-keyboard-response",335,320761,"0.0-3.108-0.108","ch7ea5apb04t9w6",786,"84.csv","","1189.7000000476837","resources/trios/L2T4A2.jpg","39","restless",0.5,0.7,0.5,0.885215680482356,"false"
"image-keyboard-response",336,321168,"0.0-3.108-1.108","ch7ea5apb04t9w6",786,"84.csv","","null","resources/maskTrios/BBA2.jpg","null","",NA,NA,NA,NA,""
"image-keyboard-response",337,322377,"0.0-3.108-2.108","ch7ea5apb04t9w6",786,"84.csv","","null","resources/images/fishbone.png","null","",NA,NA,NA,NA,""
"image-keyboard-response",338,322677,"0.0-3.109-0.109","ch7ea5apb04t9w6",786,"84.csv","","298.80000001192093","resources/trios/L2T1A2.jpg","38","restless",0.5,0.7,0.5,0.375020415731344,"true"
"image-keyboard-response",339,323089,"0.0-3.109-1.109","ch7ea5apb04t9w6",786,"84.csv","","null","resources/maskTrios/BT1B.jpg","null","",NA,NA,NA,NA,""
"image-keyboard-response",340,324297,"0.0-3.109-2.109","ch7ea5apb04t9w6",786,"84.csv","","null","resources/images/coin2.png","null","",NA,NA,NA,NA,""
"image-keyboard-response",341,325250,"0.0-3.110-0.110","ch7ea5apb04t9w6",786,"84.csv","","950.6000000238419","resources/trios/L2T1A2.jpg","38","restless",0.5,0.7,0.5,0.0637501101227451,"true"
"image-keyboard-response",342,325657,"0.0-3.110-1.110","ch7ea5apb04t9w6",786,"84.csv","","null","resources/maskTrios/BT1B.jpg","null","",NA,NA,NA,NA,""
"image-keyboard-response",343,326865,"0.0-3.110-2.110","ch7ea5apb04t9w6",786,"84.csv","","null","resources/images/coin2.png","null","",NA,NA,NA,NA,""
"image-keyboard-response",344,327344,"0.0-3.111-0.111","ch7ea5apb04t9w6",786,"84.csv","","477.30000001192093","resources/trios/L2T1A1.jpg","37","restless",0.5,0.7,0.5,0.406795690376232,"true"
"image-keyboard-response",345,327753,"0.0-3.111-1.111","ch7ea5apb04t9w6",786,"84.csv","","null","resources/maskTrios/L2BB.jpg","null","",NA,NA,NA,NA,""
"image-keyboard-response",346,328961,"0.0-3.111-2.111","ch7ea5apb04t9w6",786,"84.csv","","null","resources/images/coin2.png","null","",NA,NA,NA,NA,""
"image-keyboard-response",347,329450,"0.0-3.112-0.112","ch7ea5apb04t9w6",786,"84.csv","","486.60000002384186","resources/trios/L4T4A1.jpg","37","restless",0.5,0.7,0.5,0.703623528675028,"false"
"image-keyboard-response",348,329857,"0.0-3.112-1.112","ch7ea5apb04t9w6",786,"84.csv","","null","resources/maskTrios/L4BB.jpg","null","",NA,NA,NA,NA,""
"image-keyboard-response",349,331065,"0.0-3.112-2.112","ch7ea5apb04t9w6",786,"84.csv","","null","resources/images/fishbone.png","null","",NA,NA,NA,NA,""
"image-keyboard-response",350,331411,"0.0-3.113-0.113","ch7ea5apb04t9w6",786,"84.csv","","344.10000002384186","resources/trios/L2T1A1.jpg","38","restless",0.5,0.7,0.6,0.710755943703187,"false"
"image-keyboard-response",351,331817,"0.0-3.113-1.113","ch7ea5apb04t9w6",786,"84.csv","","null","resources/maskTrios/BT1B.jpg","null","",NA,NA,NA,NA,""
"image-keyboard-response",352,333025,"0.0-3.113-2.113","ch7ea5apb04t9w6",786,"84.csv","","null","resources/images/fishbone.png","null","",NA,NA,NA,NA,""
"image-keyboard-response",353,333352,"0.0-3.114-0.114","ch7ea5apb04t9w6",786,"84.csv","","325.30000001192093","resources/trios/L2T4A2.jpg","39","restless",0.5,0.7,0.6,0.351530243546339,"true"
"image-keyboard-response",354,333761,"0.0-3.114-1.114","ch7ea5apb04t9w6",786,"84.csv","","null","resources/maskTrios/BBA2.jpg","null","",NA,NA,NA,NA,""
"image-keyboard-response",355,334969,"0.0-3.114-2.114","ch7ea5apb04t9w6",786,"84.csv","","null","resources/images/coin2.png","null","",NA,NA,NA,NA,""
"image-keyboard-response",356,335518,"0.0-3.115-0.115","ch7ea5apb04t9w6",786,"84.csv","","547.3999999761581","resources/trios/L4T1A1.jpg","39","restless",0.5,0.7,0.5,0.573184088466115,"false"
"image-keyboard-response",357,335929,"0.0-3.115-1.115","ch7ea5apb04t9w6",786,"84.csv","","null","resources/maskTrios/BBA1.jpg","null","",NA,NA,NA,NA,""
"image-keyboard-response",358,337137,"0.0-3.115-2.115","ch7ea5apb04t9w6",786,"84.csv","","null","resources/images/fishbone.png","null","",NA,NA,NA,NA,""
"image-keyboard-response",359,337592,"0.0-3.116-0.116","ch7ea5apb04t9w6",786,"84.csv","","452.80000001192093","resources/trios/L2T1A1.jpg","37","restless",0.5,0.7,0.5,0.678584903493773,"false"
"image-keyboard-response",360,338001,"0.0-3.116-1.116","ch7ea5apb04t9w6",786,"84.csv","","null","resources/maskTrios/L2BB.jpg","null","",NA,NA,NA,NA,""
"image-keyboard-response",361,339209,"0.0-3.116-2.116","ch7ea5apb04t9w6",786,"84.csv","","null","resources/images/fishbone.png","null","",NA,NA,NA,NA,""
"image-keyboard-response",362,339550,"0.0-3.117-0.117","ch7ea5apb04t9w6",786,"84.csv","","339.10000002384186","resources/trios/L2T1A2.jpg","38","restless",0.5,0.6,0.5,0.275585318613374,"true"
"image-keyboard-response",363,339961,"0.0-3.117-1.117","ch7ea5apb04t9w6",786,"84.csv","","null","resources/maskTrios/BT1B.jpg","null","",NA,NA,NA,NA,""
"image-keyboard-response",364,341169,"0.0-3.117-2.117","ch7ea5apb04t9w6",786,"84.csv","","null","resources/images/coin2.png","null","",NA,NA,NA,NA,""
"image-keyboard-response",365,341688,"0.0-3.118-0.118","ch7ea5apb04t9w6",786,"84.csv","","517.1000000238419","resources/trios/L4T1A2.jpg","38","restless",0.5,0.6,0.5,0.0728534514249572,"true"
"image-keyboard-response",366,342096,"0.0-3.118-1.118","ch7ea5apb04t9w6",786,"84.csv","","null","resources/maskTrios/BT1B.jpg","null","",NA,NA,NA,NA,""
"image-keyboard-response",367,343304,"0.0-3.118-2.118","ch7ea5apb04t9w6",786,"84.csv","","null","resources/images/coin2.png","null","",NA,NA,NA,NA,""
"image-keyboard-response",368,343878,"0.0-3.119-0.119","ch7ea5apb04t9w6",786,"84.csv","","571.1999999880791","resources/trios/L4T4A2.jpg","38","restless",0.5,0.5,0.4,0.982621060661937,"false"
"image-keyboard-response",369,344289,"0.0-3.119-1.119","ch7ea5apb04t9w6",786,"84.csv","","null","resources/maskTrios/BT4B.jpg","null","",NA,NA,NA,NA,""
"image-keyboard-response",370,345500,"0.0-3.119-2.119","ch7ea5apb04t9w6",786,"84.csv","","null","resources/images/fishbone.png","null","",NA,NA,NA,NA,""
"image-keyboard-response",371,345809,"0.0-3.120-0.120","ch7ea5apb04t9w6",786,"84.csv","","308.5","resources/trios/L4T4A1.jpg","39","restless",0.6,0.5,0.4,0.709186728837222,"false"
"image-keyboard-response",372,346217,"0.0-3.120-1.120","ch7ea5apb04t9w6",786,"84.csv","","null","resources/maskTrios/BBA1.jpg","null","",NA,NA,NA,NA,""
"image-keyboard-response",373,347424,"0.0-3.120-2.120","ch7ea5apb04t9w6",786,"84.csv","","null","resources/images/fishbone.png","null","",NA,NA,NA,NA,""
"image-keyboard-response",374,347807,"0.0-3.121-0.121","ch7ea5apb04t9w6",786,"84.csv","","380.89999997615814","resources/trios/L2T4A1.jpg","37","restless",0.6,0.5,0.4,0.706549254736602,"false"
"image-keyboard-response",375,348216,"0.0-3.121-1.121","ch7ea5apb04t9w6",786,"84.csv","","null","resources/maskTrios/L2BB.jpg","null","",NA,NA,NA,NA,""
"image-keyboard-response",376,349424,"0.0-3.121-2.121","ch7ea5apb04t9w6",786,"84.csv","","null","resources/images/fishbone.png","null","",NA,NA,NA,NA,""
"image-keyboard-response",377,349738,"0.0-3.122-0.122","ch7ea5apb04t9w6",786,"84.csv","","311.89999997615814","resources/trios/L2T1A2.jpg","38","restless",0.6,0.5,0.4,0.592712280643138,"false"
"image-keyboard-response",378,350145,"0.0-3.122-1.122","ch7ea5apb04t9w6",786,"84.csv","","null","resources/maskTrios/BT1B.jpg","null","",NA,NA,NA,NA,""
"image-keyboard-response",379,351353,"0.0-3.122-2.122","ch7ea5apb04t9w6",786,"84.csv","","null","resources/images/fishbone.png","null","",NA,NA,NA,NA,""
"image-keyboard-response",380,351703,"0.0-3.123-0.123","ch7ea5apb04t9w6",786,"84.csv","","348","resources/trios/L2T4A1.jpg","37","restless",0.6,0.5,0.4,0.0656955486369675,"true"
"image-keyboard-response",381,352114,"0.0-3.123-1.123","ch7ea5apb04t9w6",786,"84.csv","","null","resources/maskTrios/L2BB.jpg","null","",NA,NA,NA,NA,""
"image-keyboard-response",382,353320,"0.0-3.123-2.123","ch7ea5apb04t9w6",786,"84.csv","","null","resources/images/coin2.png","null","",NA,NA,NA,NA,""
"image-keyboard-response",383,354379,"0.0-3.124-0.124","ch7ea5apb04t9w6",786,"84.csv","","1056.3999999761581","resources/trios/L4T1A1.jpg","39","restless",0.7,0.5,0.4,0.485971571840936,"false"
"image-keyboard-response",384,354784,"0.0-3.124-1.124","ch7ea5apb04t9w6",786,"84.csv","","null","resources/maskTrios/BBA1.jpg","null","",NA,NA,NA,NA,""
"image-keyboard-response",385,355992,"0.0-3.124-2.124","ch7ea5apb04t9w6",786,"84.csv","","null","resources/images/fishbone.png","null","",NA,NA,NA,NA,""
"image-keyboard-response",386,356570,"0.0-3.125-0.125","ch7ea5apb04t9w6",786,"84.csv","","576.0999999642372","resources/trios/L4T1A2.jpg","37","restless",0.7,0.5,0.4,0.46487143772591,"true"
"image-keyboard-response",387,356976,"0.0-3.125-1.125","ch7ea5apb04t9w6",786,"84.csv","","null","resources/maskTrios/L4BB.jpg","null","",NA,NA,NA,NA,""
"image-keyboard-response",388,358184,"0.0-3.125-2.125","ch7ea5apb04t9w6",786,"84.csv","","null","resources/images/coin2.png","null","",NA,NA,NA,NA,""
"image-keyboard-response",389,358558,"0.0-3.126-0.126","ch7ea5apb04t9w6",786,"84.csv","","371.60000002384186","resources/trios/L2T4A2.jpg","37","restless",0.7,0.5,0.4,0.763913174600596,"false"
"image-keyboard-response",390,358968,"0.0-3.126-1.126","ch7ea5apb04t9w6",786,"84.csv","","null","resources/maskTrios/L2BB.jpg","null","",NA,NA,NA,NA,""
"image-keyboard-response",391,360176,"0.0-3.126-2.126","ch7ea5apb04t9w6",786,"84.csv","","null","resources/images/fishbone.png","null","",NA,NA,NA,NA,""
"image-keyboard-response",392,360570,"0.0-3.127-0.127","ch7ea5apb04t9w6",786,"84.csv","","391.30000001192093","resources/trios/L2T4A2.jpg","38","restless",0.7,0.5,0.4,0.772598207104709,"false"
"image-keyboard-response",393,360976,"0.0-3.127-1.127","ch7ea5apb04t9w6",786,"84.csv","","null","resources/maskTrios/BT4B.jpg","null","",NA,NA,NA,NA,""
"image-keyboard-response",394,362184,"0.0-3.127-2.127","ch7ea5apb04t9w6",786,"84.csv","","null","resources/images/fishbone.png","null","",NA,NA,NA,NA,""
"image-keyboard-response",395,362616,"0.0-3.128-0.128","ch7ea5apb04t9w6",786,"84.csv","","429.69999998807907","resources/trios/L2T4A1.jpg","39","restless",0.7,0.5,0.4,0.0955865840461541,"true"
"image-keyboard-response",396,363024,"0.0-3.128-1.128","ch7ea5apb04t9w6",786,"84.csv","","null","resources/maskTrios/BBA1.jpg","null","",NA,NA,NA,NA,""
"image-keyboard-response",397,364232,"0.0-3.128-2.128","ch7ea5apb04t9w6",786,"84.csv","","null","resources/images/coin2.png","null","",NA,NA,NA,NA,""
"image-keyboard-response",398,364555,"0.0-3.129-0.129","ch7ea5apb04t9w6",786,"84.csv","","320.69999998807907","resources/trios/L4T1A2.jpg","39","restless",0.8,0.5,0.4,0.178241065820174,"true"
"image-keyboard-response",399,364960,"0.0-3.129-1.129","ch7ea5apb04t9w6",786,"84.csv","","null","resources/maskTrios/BBA2.jpg","null","",NA,NA,NA,NA,""
"image-keyboard-response",400,366168,"0.0-3.129-2.129","ch7ea5apb04t9w6",786,"84.csv","","null","resources/images/coin2.png","null","",NA,NA,NA,NA,""
"image-keyboard-response",401,366486,"0.0-3.130-0.130","ch7ea5apb04t9w6",786,"84.csv","","316.10000002384186","resources/trios/L2T1A2.jpg","37","restless",0.8,0.5,0.4,0.0707695351255124,"true"
"image-keyboard-response",402,366896,"0.0-3.130-1.130","ch7ea5apb04t9w6",786,"84.csv","","null","resources/maskTrios/L2BB.jpg","null","",NA,NA,NA,NA,""
"image-keyboard-response",403,368104,"0.0-3.130-2.130","ch7ea5apb04t9w6",786,"84.csv","","null","resources/images/coin2.png","null","",NA,NA,NA,NA,""
"image-keyboard-response",404,368234,"0.0-3.131-0.131","ch7ea5apb04t9w6",786,"84.csv","","128.0999999642372","resources/trios/L4T1A1.jpg","37","restless",0.8,0.5,0.4,0.266870406523337,"true"
"image-keyboard-response",405,368640,"0.0-3.131-1.131","ch7ea5apb04t9w6",786,"84.csv","","null","resources/maskTrios/L4BB.jpg","null","",NA,NA,NA,NA,""
"image-keyboard-response",406,369848,"0.0-3.131-2.131","ch7ea5apb04t9w6",786,"84.csv","","null","resources/images/coin2.png","null","",NA,NA,NA,NA,""
"image-keyboard-response",407,370162,"0.0-3.132-0.132","ch7ea5apb04t9w6",786,"84.csv","","312.39999997615814","resources/trios/L4T1A1.jpg","38","restless",0.8,0.5,0.4,0.530803047814181,"false"
"image-keyboard-response",408,370568,"0.0-3.132-1.132","ch7ea5apb04t9w6",786,"84.csv","","null","resources/maskTrios/BT1B.jpg","null","",NA,NA,NA,NA,""
"image-keyboard-response",409,371776,"0.0-3.132-2.132","ch7ea5apb04t9w6",786,"84.csv","","null","resources/images/fishbone.png","null","",NA,NA,NA,NA,""
"image-keyboard-response",410,372076,"0.0-3.133-0.133","ch7ea5apb04t9w6",786,"84.csv","","298.69999998807907","resources/trios/L2T4A1.jpg","39","restless",0.8,0.5,0.4,0.857189999908695,"false"
"image-keyboard-response",411,372480,"0.0-3.133-1.133","ch7ea5apb04t9w6",786,"84.csv","","null","resources/maskTrios/BBA1.jpg","null","",NA,NA,NA,NA,""
"image-keyboard-response",412,373688,"0.0-3.133-2.133","ch7ea5apb04t9w6",786,"84.csv","","null","resources/images/fishbone.png","null","",NA,NA,NA,NA,""
"image-keyboard-response",413,374092,"0.0-3.134-0.134","ch7ea5apb04t9w6",786,"84.csv","","402.4000000357628","resources/trios/L2T1A2.jpg","37","restless",0.8,0.5,0.4,0.422613199117642,"true"
"image-keyboard-response",414,374504,"0.0-3.134-1.134","ch7ea5apb04t9w6",786,"84.csv","","null","resources/maskTrios/L2BB.jpg","null","",NA,NA,NA,NA,""
"image-keyboard-response",415,375712,"0.0-3.134-2.134","ch7ea5apb04t9w6",786,"84.csv","","null","resources/images/coin2.png","null","",NA,NA,NA,NA,""
"image-keyboard-response",416,376059,"0.0-3.135-0.135","ch7ea5apb04t9w6",786,"84.csv","","345.2000000476837","resources/trios/L2T4A1.jpg","37","restless",0.7,0.5,0.4,0.458305563919063,"true"
"image-keyboard-response",417,376464,"0.0-3.135-1.135","ch7ea5apb04t9w6",786,"84.csv","","null","resources/maskTrios/L2BB.jpg","null","",NA,NA,NA,NA,""
"image-keyboard-response",418,377673,"0.0-3.135-2.135","ch7ea5apb04t9w6",786,"84.csv","","null","resources/images/coin2.png","null","",NA,NA,NA,NA,""
"image-keyboard-response",419,377939,"0.0-3.136-0.136","ch7ea5apb04t9w6",786,"84.csv","","263.69999998807907","resources/trios/L4T4A1.jpg","39","restless",0.7,0.5,0.4,0.590187288410015,"false"
"image-keyboard-response",420,378344,"0.0-3.136-1.136","ch7ea5apb04t9w6",786,"84.csv","","null","resources/maskTrios/BBA1.jpg","null","",NA,NA,NA,NA,""
"image-keyboard-response",421,379552,"0.0-3.136-2.136","ch7ea5apb04t9w6",786,"84.csv","","null","resources/images/fishbone.png","null","",NA,NA,NA,NA,""
"image-keyboard-response",422,380188,"0.0-3.137-0.137","ch7ea5apb04t9w6",786,"84.csv","","634.7999999523163","resources/trios/L4T4A2.jpg","39","restless",0.7,0.5,0.4,0.45686088917622,"false"
"image-keyboard-response",423,380592,"0.0-3.137-1.137","ch7ea5apb04t9w6",786,"84.csv","","null","resources/maskTrios/BBA2.jpg","null","",NA,NA,NA,NA,""
"image-keyboard-response",424,381799,"0.0-3.137-2.137","ch7ea5apb04t9w6",786,"84.csv","","null","resources/images/fishbone.png","null","",NA,NA,NA,NA,""
"image-keyboard-response",425,382174,"0.0-3.138-0.138","ch7ea5apb04t9w6",786,"84.csv","","372.5999999642372","resources/trios/L4T4A2.jpg","37","restless",0.7,0.5,0.4,0.488419307567537,"true"
"image-keyboard-response",426,382583,"0.0-3.138-1.138","ch7ea5apb04t9w6",786,"84.csv","","null","resources/maskTrios/L4BB.jpg","null","",NA,NA,NA,NA,""
"image-keyboard-response",427,383788,"0.0-3.138-2.138","ch7ea5apb04t9w6",786,"84.csv","","null","resources/images/coin2.png","null","",NA,NA,NA,NA,""
"image-keyboard-response",428,384248,"0.0-3.139-0.139","ch7ea5apb04t9w6",786,"84.csv","","459.4000000357628","resources/trios/L4T4A1.jpg","37","restless",0.7,0.5,0.3,0.748409860770932,"false"
"image-keyboard-response",429,384651,"0.0-3.139-1.139","ch7ea5apb04t9w6",786,"84.csv","","null","resources/maskTrios/L4BB.jpg","null","",NA,NA,NA,NA,""
"image-keyboard-response",430,385857,"0.0-3.139-2.139","ch7ea5apb04t9w6",786,"84.csv","","null","resources/images/fishbone.png","null","",NA,NA,NA,NA,""
"image-keyboard-response",431,386078,"0.0-3.140-0.140","ch7ea5apb04t9w6",786,"84.csv","","220.10000002384186","resources/trios/L4T1A2.jpg","38","restless",0.7,0.5,0.3,0.140958407080638,"true"
"image-keyboard-response",432,386489,"0.0-3.140-1.140","ch7ea5apb04t9w6",786,"84.csv","","null","resources/maskTrios/BT1B.jpg","null","",NA,NA,NA,NA,""
"image-keyboard-response",433,387695,"0.0-3.140-2.140","ch7ea5apb04t9w6",786,"84.csv","","null","resources/images/coin2.png","null","",NA,NA,NA,NA,""
"image-keyboard-response",434,388044,"0.0-3.141-0.141","ch7ea5apb04t9w6",786,"84.csv","","347.19999998807907","resources/trios/L4T4A1.jpg","38","restless",0.7,0.5,0.3,0.806068158724404,"false"
"image-keyboard-response",435,388454,"0.0-3.141-1.141","ch7ea5apb04t9w6",786,"84.csv","","null","resources/maskTrios/BT4B.jpg","null","",NA,NA,NA,NA,""
"image-keyboard-response",436,389662,"0.0-3.141-2.141","ch7ea5apb04t9w6",786,"84.csv","","null","resources/images/fishbone.png","null","",NA,NA,NA,NA,""
"image-keyboard-response",437,390045,"0.0-3.142-0.142","ch7ea5apb04t9w6",786,"84.csv","","381.60000002384186","resources/trios/L4T1A1.jpg","39","restless",0.6,0.5,0.3,0.308420646070354,"false"
"image-keyboard-response",438,390451,"0.0-3.142-1.142","ch7ea5apb04t9w6",786,"84.csv","","null","resources/maskTrios/BBA1.jpg","null","",NA,NA,NA,NA,""
"image-keyboard-response",439,391659,"0.0-3.142-2.142","ch7ea5apb04t9w6",786,"84.csv","","null","resources/images/fishbone.png","null","",NA,NA,NA,NA,""
"image-keyboard-response",440,391939,"0.0-3.143-0.143","ch7ea5apb04t9w6",786,"84.csv","","277.4000000357628","resources/trios/L4T4A2.jpg","37","restless",0.6,0.5,0.3,0.493929645834087,"true"
"image-keyboard-response",441,392348,"0.0-3.143-1.143","ch7ea5apb04t9w6",786,"84.csv","","null","resources/maskTrios/L4BB.jpg","null","",NA,NA,NA,NA,""
"image-keyboard-response",442,393553,"0.0-3.143-2.143","ch7ea5apb04t9w6",786,"84.csv","","null","resources/images/coin2.png","null","",NA,NA,NA,NA,""
"image-keyboard-response",443,394022,"0.0-3.144-0.144","ch7ea5apb04t9w6",786,"84.csv","","467.89999997615814","resources/trios/L2T4A1.jpg","37","restless",0.6,0.5,0.3,0.109314058703939,"true"
"image-keyboard-response",444,394432,"0.0-3.144-1.144","ch7ea5apb04t9w6",786,"84.csv","","null","resources/maskTrios/L2BB.jpg","null","",NA,NA,NA,NA,""
"image-keyboard-response",445,395638,"0.0-3.144-2.144","ch7ea5apb04t9w6",786,"84.csv","","null","resources/images/coin2.png","null","",NA,NA,NA,NA,""
"image-keyboard-response",446,396546,"0.0-3.145-0.145","ch7ea5apb04t9w6",786,"84.csv","","906","resources/trios/L2T4A1.jpg","39","restless",0.6,0.5,0.3,0.214696003159361,"true"
"image-keyboard-response",447,396957,"0.0-3.145-1.145","ch7ea5apb04t9w6",786,"84.csv","","null","resources/maskTrios/BBA1.jpg","null","",NA,NA,NA,NA,""
"image-keyboard-response",448,398165,"0.0-3.145-2.145","ch7ea5apb04t9w6",786,"84.csv","","null","resources/images/coin2.png","null","",NA,NA,NA,NA,""
"image-keyboard-response",449,398525,"0.0-3.146-0.146","ch7ea5apb04t9w6",786,"84.csv","","358.19999998807907","resources/trios/L4T4A2.jpg","39","restless",0.6,0.5,0.3,0.162242063376622,"true"
"image-keyboard-response",450,398931,"0.0-3.146-1.146","ch7ea5apb04t9w6",786,"84.csv","","null","resources/maskTrios/BBA2.jpg","null","",NA,NA,NA,NA,""
"image-keyboard-response",451,400138,"0.0-3.146-2.146","ch7ea5apb04t9w6",786,"84.csv","","null","resources/images/coin2.png","null","",NA,NA,NA,NA,""
"image-keyboard-response",452,400969,"0.0-3.147-0.147","ch7ea5apb04t9w6",786,"84.csv","","829.3000000119209","resources/trios/L4T1A2.jpg","37","restless",0.6,0.5,0.3,0.658152434737523,"false"
"image-keyboard-response",453,401379,"0.0-3.147-1.147","ch7ea5apb04t9w6",786,"84.csv","","null","resources/maskTrios/L4BB.jpg","null","",NA,NA,NA,NA,""
"image-keyboard-response",454,402586,"0.0-3.147-2.147","ch7ea5apb04t9w6",786,"84.csv","","null","resources/images/fishbone.png","null","",NA,NA,NA,NA,""
"image-keyboard-response",455,402877,"0.0-3.148-0.148","ch7ea5apb04t9w6",786,"84.csv","","289.10000002384186","resources/trios/L4T1A2.jpg","38","restless",0.6,0.5,0.3,0.298809765506159,"true"
"image-keyboard-response",456,403281,"0.0-3.148-1.148","ch7ea5apb04t9w6",786,"84.csv","","null","resources/maskTrios/BT1B.jpg","null","",NA,NA,NA,NA,""
"image-keyboard-response",457,404488,"0.0-3.148-2.148","ch7ea5apb04t9w6",786,"84.csv","","null","resources/images/coin2.png","null","",NA,NA,NA,NA,""
"image-keyboard-response",458,404704,"0.0-3.149-0.149","ch7ea5apb04t9w6",786,"84.csv","","213.19999998807907","resources/trios/L4T1A1.jpg","38","restless",0.6,0.5,0.3,0.657424516294478,"false"
"image-keyboard-response",459,405112,"0.0-3.149-1.149","ch7ea5apb04t9w6",786,"84.csv","","null","resources/maskTrios/BT1B.jpg","null","",NA,NA,NA,NA,""
"image-keyboard-response",460,406319,"0.0-3.149-2.149","ch7ea5apb04t9w6",786,"84.csv","","null","resources/images/fishbone.png","null","",NA,NA,NA,NA,""
"image-keyboard-response",461,406575,"0.0-3.150-0.150","ch7ea5apb04t9w6",786,"84.csv","","253.79999995231628","resources/trios/L4T4A1.jpg","39","restless",0.6,0.5,0.3,0.0181872337889504,"true"
"image-keyboard-response",462,406983,"0.0-3.150-1.150","ch7ea5apb04t9w6",786,"84.csv","","null","resources/maskTrios/BBA1.jpg","null","",NA,NA,NA,NA,""
"image-keyboard-response",463,408191,"0.0-3.150-2.150","ch7ea5apb04t9w6",786,"84.csv","","null","resources/images/coin2.png","null","",NA,NA,NA,NA,""
"image-keyboard-response",464,408555,"0.0-3.151-0.151","ch7ea5apb04t9w6",786,"84.csv","","362.4000000357628","resources/trios/L4T1A2.jpg","39","restless",0.6,0.5,0.3,0.530253025252329,"false"
"image-keyboard-response",465,408959,"0.0-3.151-1.151","ch7ea5apb04t9w6",786,"84.csv","","null","resources/maskTrios/BBA2.jpg","null","",NA,NA,NA,NA,""
"image-keyboard-response",466,410166,"0.0-3.151-2.151","ch7ea5apb04t9w6",786,"84.csv","","null","resources/images/fishbone.png","null","",NA,NA,NA,NA,""
"image-keyboard-response",467,410444,"0.0-3.152-0.152","ch7ea5apb04t9w6",786,"84.csv","","276.4000000357628","resources/trios/L4T4A2.jpg","37","restless",0.6,0.5,0.3,0.390953648691011,"true"
"image-keyboard-response",468,410856,"0.0-3.152-1.152","ch7ea5apb04t9w6",786,"84.csv","","null","resources/maskTrios/L4BB.jpg","null","",NA,NA,NA,NA,""
"image-keyboard-response",469,412062,"0.0-3.152-2.152","ch7ea5apb04t9w6",786,"84.csv","","null","resources/images/coin2.png","null","",NA,NA,NA,NA,""
"image-keyboard-response",470,412344,"0.0-3.153-0.153","ch7ea5apb04t9w6",786,"84.csv","","280.19999998807907","resources/trios/L2T4A2.jpg","37","restless",0.5,0.5,0.3,0.768473534159685,"false"
"image-keyboard-response",471,412749,"0.0-3.153-1.153","ch7ea5apb04t9w6",786,"84.csv","","null","resources/maskTrios/L2BB.jpg","null","",NA,NA,NA,NA,""
"image-keyboard-response",472,413958,"0.0-3.153-2.153","ch7ea5apb04t9w6",786,"84.csv","","null","resources/images/fishbone.png","null","",NA,NA,NA,NA,""
"image-keyboard-response",473,414312,"0.0-3.154-0.154","ch7ea5apb04t9w6",786,"84.csv","","352.5","resources/trios/L2T4A2.jpg","38","restless",0.5,0.6,0.3,0.041783244715939,"true"
"image-keyboard-response",474,414717,"0.0-3.154-1.154","ch7ea5apb04t9w6",786,"84.csv","","null","resources/maskTrios/BT4B.jpg","null","",NA,NA,NA,NA,""
"image-keyboard-response",475,415925,"0.0-3.154-2.154","ch7ea5apb04t9w6",786,"84.csv","","null","resources/images/coin2.png","null","",NA,NA,NA,NA,""
"image-keyboard-response",476,416244,"0.0-3.155-0.155","ch7ea5apb04t9w6",786,"84.csv","","316.89999997615814","resources/trios/L4T4A1.jpg","38","restless",0.5,0.6,0.3,0.305127311810326,"true"
"image-keyboard-response",477,416653,"0.0-3.155-1.155","ch7ea5apb04t9w6",786,"84.csv","","null","resources/maskTrios/BT4B.jpg","null","",NA,NA,NA,NA,""
"image-keyboard-response",478,417860,"0.0-3.155-2.155","ch7ea5apb04t9w6",786,"84.csv","","null","resources/images/coin2.png","null","",NA,NA,NA,NA,""
"image-keyboard-response",479,418163,"0.0-3.156-0.156","ch7ea5apb04t9w6",786,"84.csv","","301.5","resources/trios/L2T1A2.jpg","38","restless",0.5,0.6,0.3,0.508507623246333,"true"
"image-keyboard-response",480,418572,"0.0-3.156-1.156","ch7ea5apb04t9w6",786,"84.csv","","null","resources/maskTrios/BT1B.jpg","null","",NA,NA,NA,NA,""
"image-keyboard-response",481,419780,"0.0-3.156-2.156","ch7ea5apb04t9w6",786,"84.csv","","null","resources/images/coin2.png","null","",NA,NA,NA,NA,""
"image-keyboard-response",482,420561,"0.0-3.157-0.157","ch7ea5apb04t9w6",786,"84.csv","","779.1999999880791","resources/trios/L2T4A2.jpg","39","restless",0.5,0.6,0.3,0.309126182346577,"false"
"image-keyboard-response",483,420975,"0.0-3.157-1.157","ch7ea5apb04t9w6",786,"84.csv","","null","resources/maskTrios/BBA2.jpg","null","",NA,NA,NA,NA,""
"image-keyboard-response",484,422179,"0.0-3.157-2.157","ch7ea5apb04t9w6",786,"84.csv","","null","resources/images/fishbone.png","null","",NA,NA,NA,NA,""
"image-keyboard-response",485,422453,"0.0-3.158-0.158","ch7ea5apb04t9w6",786,"84.csv","","271.19999998807907","resources/trios/L4T1A1.jpg","37","restless",0.4,0.6,0.3,0.0684275881814658,"true"
"image-keyboard-response",486,422859,"0.0-3.158-1.158","ch7ea5apb04t9w6",786,"84.csv","","null","resources/maskTrios/L4BB.jpg","null","",NA,NA,NA,NA,""
"image-keyboard-response",487,424066,"0.0-3.158-2.158","ch7ea5apb04t9w6",786,"84.csv","","null","resources/images/coin2.png","null","",NA,NA,NA,NA,""
"image-keyboard-response",488,424486,"0.0-3.159-0.159","ch7ea5apb04t9w6",786,"84.csv","","417.89999997615814","resources/trios/L4T4A1.jpg","38","restless",0.4,0.6,0.3,0.653643315055924,"false"
"image-keyboard-response",489,424894,"0.0-3.159-1.159","ch7ea5apb04t9w6",786,"84.csv","","null","resources/maskTrios/BT4B.jpg","null","",NA,NA,NA,NA,""
"image-keyboard-response",490,426098,"0.0-3.159-2.159","ch7ea5apb04t9w6",786,"84.csv","","null","resources/images/fishbone.png","null","",NA,NA,NA,NA,""
"image-keyboard-response",491,426385,"0.0-3.160-0.160","ch7ea5apb04t9w6",786,"84.csv","","286.0999999642372","resources/trios/L2T1A1.jpg","37","restless",0.4,0.6,0.3,0.144150302898412,"true"
"image-keyboard-response",492,426796,"0.0-3.160-1.160","ch7ea5apb04t9w6",786,"84.csv","","null","resources/maskTrios/L2BB.jpg","null","",NA,NA,NA,NA,""
"image-keyboard-response",493,428002,"0.0-3.160-2.160","ch7ea5apb04t9w6",786,"84.csv","","null","resources/images/coin2.png","null","",NA,NA,NA,NA,""
"image-keyboard-response",494,428445,"0.0-3.161-0.161","ch7ea5apb04t9w6",786,"84.csv","","440.39999997615814","resources/trios/L4T1A2.jpg","37","restless",0.4,0.6,0.3,0.805608824160599,"false"
"image-keyboard-response",495,428852,"0.0-3.161-1.161","ch7ea5apb04t9w6",786,"84.csv","","null","resources/maskTrios/L4BB.jpg","null","",NA,NA,NA,NA,""
"image-keyboard-response",496,430058,"0.0-3.161-2.161","ch7ea5apb04t9w6",786,"84.csv","","null","resources/images/fishbone.png","null","",NA,NA,NA,NA,""
"image-keyboard-response",497,430421,"0.0-3.162-0.162","ch7ea5apb04t9w6",786,"84.csv","","360.9000000357628","resources/trios/L4T1A1.jpg","39","restless",0.4,0.6,0.3,0.949520509143389,"false"
"image-keyboard-response",498,430826,"0.0-3.162-1.162","ch7ea5apb04t9w6",786,"84.csv","","null","resources/maskTrios/BBA1.jpg","null","",NA,NA,NA,NA,""
"image-keyboard-response",499,432033,"0.0-3.162-2.162","ch7ea5apb04t9w6",786,"84.csv","","null","resources/images/fishbone.png","null","",NA,NA,NA,NA,""
"image-keyboard-response",500,432372,"0.0-3.163-0.163","ch7ea5apb04t9w6",786,"84.csv","","337.5","resources/trios/L2T1A1.jpg","39","restless",0.5,0.6,0.3,0.909555425451134,"false"
"image-keyboard-response",501,432778,"0.0-3.163-1.163","ch7ea5apb04t9w6",786,"84.csv","","null","resources/maskTrios/BBA1.jpg","null","",NA,NA,NA,NA,""
"image-keyboard-response",502,433985,"0.0-3.163-2.163","ch7ea5apb04t9w6",786,"84.csv","","null","resources/images/fishbone.png","null","",NA,NA,NA,NA,""
"image-keyboard-response",503,434242,"0.0-3.164-0.164","ch7ea5apb04t9w6",786,"84.csv","","254.80000001192093","resources/trios/L2T4A1.jpg","38","restless",0.5,0.6,0.3,0.906467999912041,"false"
"image-keyboard-response",504,434649,"0.0-3.164-1.164","ch7ea5apb04t9w6",786,"84.csv","","null","resources/maskTrios/BT4B.jpg","null","",NA,NA,NA,NA,""
"image-keyboard-response",505,435857,"0.0-3.164-2.164","ch7ea5apb04t9w6",786,"84.csv","","null","resources/images/fishbone.png","null","",NA,NA,NA,NA,""
"image-keyboard-response",506,436136,"0.0-3.165-0.165","ch7ea5apb04t9w6",786,"84.csv","","276.0999999642372","resources/trios/L4T4A1.jpg","38","restless",0.5,0.7,0.3,0.172588097279885,"true"
"image-keyboard-response",507,436546,"0.0-3.165-1.165","ch7ea5apb04t9w6",786,"84.csv","","null","resources/maskTrios/BT4B.jpg","null","",NA,NA,NA,NA,""
"image-keyboard-response",508,437753,"0.0-3.165-2.165","ch7ea5apb04t9w6",786,"84.csv","","null","resources/images/coin2.png","null","",NA,NA,NA,NA,""
"image-keyboard-response",509,438033,"0.0-3.166-0.166","ch7ea5apb04t9w6",786,"84.csv","","277.80000001192093","resources/trios/L4T4A2.jpg","38","restless",0.5,0.7,0.3,0.361029800218327,"true"
"image-keyboard-response",510,438441,"0.0-3.166-1.166","ch7ea5apb04t9w6",786,"84.csv","","null","resources/maskTrios/BT4B.jpg","null","",NA,NA,NA,NA,""
"image-keyboard-response",511,439649,"0.0-3.166-2.166","ch7ea5apb04t9w6",786,"84.csv","","null","resources/images/coin2.png","null","",NA,NA,NA,NA,""
"image-keyboard-response",512,439967,"0.0-3.167-0.167","ch7ea5apb04t9w6",786,"84.csv","","315.69999998807907","resources/trios/L2T4A2.jpg","37","restless",0.5,0.7,0.2,0.413974134699903,"true"
"image-keyboard-response",513,440377,"0.0-3.167-1.167","ch7ea5apb04t9w6",786,"84.csv","","null","resources/maskTrios/L2BB.jpg","null","",NA,NA,NA,NA,""
"image-keyboard-response",514,441585,"0.0-3.167-2.167","ch7ea5apb04t9w6",786,"84.csv","","null","resources/images/coin2.png","null","",NA,NA,NA,NA,""
"image-keyboard-response",515,441870,"0.0-3.168-0.168","ch7ea5apb04t9w6",786,"84.csv","","282.80000001192093","resources/trios/L2T4A2.jpg","37","restless",0.5,0.7,0.2,0.789326099636477,"false"
"image-keyboard-response",516,442281,"0.0-3.168-1.168","ch7ea5apb04t9w6",786,"84.csv","","null","resources/maskTrios/L2BB.jpg","null","",NA,NA,NA,NA,""
"image-keyboard-response",517,443489,"0.0-3.168-2.168","ch7ea5apb04t9w6",786,"84.csv","","null","resources/images/fishbone.png","null","",NA,NA,NA,NA,""
"image-keyboard-response",518,443567,"0.0-3.169-0.169","ch7ea5apb04t9w6",786,"84.csv","","76.39999997615814","resources/trios/L2T1A1.jpg","39","restless",0.5,0.7,0.2,0.933028198191654,"false"
"image-keyboard-response",519,443977,"0.0-3.169-1.169","ch7ea5apb04t9w6",786,"84.csv","","null","resources/maskTrios/BBA1.jpg","null","",NA,NA,NA,NA,""
"image-keyboard-response",520,445185,"0.0-3.169-2.169","ch7ea5apb04t9w6",786,"84.csv","","null","resources/images/fishbone.png","null","",NA,NA,NA,NA,""
"image-keyboard-response",521,445535,"0.0-3.170-0.170","ch7ea5apb04t9w6",786,"84.csv","","347.69999998807907","resources/trios/L2T4A2.jpg","37","restless",0.5,0.7,0.2,0.955025617747804,"false"
"image-keyboard-response",522,445944,"0.0-3.170-1.170","ch7ea5apb04t9w6",786,"84.csv","","null","resources/maskTrios/L2BB.jpg","null","",NA,NA,NA,NA,""
"image-keyboard-response",523,447153,"0.0-3.170-2.170","ch7ea5apb04t9w6",786,"84.csv","","null","resources/images/fishbone.png","null","",NA,NA,NA,NA,""
"image-keyboard-response",524,447461,"0.0-3.171-0.171","ch7ea5apb04t9w6",786,"84.csv","","306","resources/trios/L4T4A1.jpg","38","restless",0.5,0.7,0.2,0.987712398405747,"false"
"image-keyboard-response",525,447865,"0.0-3.171-1.171","ch7ea5apb04t9w6",786,"84.csv","","null","resources/maskTrios/BT4B.jpg","null","",NA,NA,NA,NA,""
"image-keyboard-response",526,449071,"0.0-3.171-2.171","ch7ea5apb04t9w6",786,"84.csv","","null","resources/images/fishbone.png","null","",NA,NA,NA,NA,""
"image-keyboard-response",527,449376,"0.0-3.172-0.172","ch7ea5apb04t9w6",786,"84.csv","","302","resources/trios/L2T4A1.jpg","39","restless",0.5,0.7,0.2,0.642674680420943,"false"
"image-keyboard-response",528,449784,"0.0-3.172-1.172","ch7ea5apb04t9w6",786,"84.csv","","null","resources/maskTrios/BBA1.jpg","null","",NA,NA,NA,NA,""
"image-keyboard-response",529,450992,"0.0-3.172-2.172","ch7ea5apb04t9w6",786,"84.csv","","null","resources/images/fishbone.png","null","",NA,NA,NA,NA,""
"image-keyboard-response",530,451431,"0.0-3.173-0.173","ch7ea5apb04t9w6",786,"84.csv","","436.2999999523163","resources/trios/L2T4A2.jpg","37","restless",0.5,0.7,0.2,0.0242284762874747,"true"
"image-keyboard-response",531,451840,"0.0-3.173-1.173","ch7ea5apb04t9w6",786,"84.csv","","null","resources/maskTrios/L2BB.jpg","null","",NA,NA,NA,NA,""
"image-keyboard-response",532,453048,"0.0-3.173-2.173","ch7ea5apb04t9w6",786,"84.csv","","null","resources/images/coin2.png","null","",NA,NA,NA,NA,""
"image-keyboard-response",533,453489,"0.0-3.174-0.174","ch7ea5apb04t9w6",786,"84.csv","","438.2999999523163","resources/trios/L4T4A2.jpg","37","restless",0.5,0.7,0.2,0.131711025994325,"true"
"image-keyboard-response",534,453896,"0.0-3.174-1.174","ch7ea5apb04t9w6",786,"84.csv","","null","resources/maskTrios/L4BB.jpg","null","",NA,NA,NA,NA,""
"image-keyboard-response",535,455104,"0.0-3.174-2.174","ch7ea5apb04t9w6",786,"84.csv","","null","resources/images/coin2.png","null","",NA,NA,NA,NA,""
"image-keyboard-response",536,455913,"0.0-3.175-0.175","ch7ea5apb04t9w6",786,"84.csv","","806.8999999761581","resources/trios/L4T1A2.jpg","39","restless",0.5,0.8,0.2,0.163819706652947,"true"
"image-keyboard-response",537,456320,"0.0-3.175-1.175","ch7ea5apb04t9w6",786,"84.csv","","null","resources/maskTrios/BBA2.jpg","null","",NA,NA,NA,NA,""
"image-keyboard-response",538,457527,"0.0-3.175-2.175","ch7ea5apb04t9w6",786,"84.csv","","null","resources/images/coin2.png","null","",NA,NA,NA,NA,""
"image-keyboard-response",539,457896,"0.0-3.176-0.176","ch7ea5apb04t9w6",786,"84.csv","","366.39999997615814","resources/trios/L2T1A2.jpg","39","restless",0.5,0.8,0.2,0.501836594667037,"false"
"image-keyboard-response",540,458304,"0.0-3.176-1.176","ch7ea5apb04t9w6",786,"84.csv","","null","resources/maskTrios/BBA2.jpg","null","",NA,NA,NA,NA,""
"image-keyboard-response",541,459511,"0.0-3.176-2.176","ch7ea5apb04t9w6",786,"84.csv","","null","resources/images/fishbone.png","null","",NA,NA,NA,NA,""
"image-keyboard-response",542,459841,"0.0-3.177-0.177","ch7ea5apb04t9w6",786,"84.csv","","327.4000000357628","resources/trios/L4T1A1.jpg","38","restless",0.5,0.9,0.2,0.608463811760221,"true"
"image-keyboard-response",543,460248,"0.0-3.177-1.177","ch7ea5apb04t9w6",786,"84.csv","","null","resources/maskTrios/BT1B.jpg","null","",NA,NA,NA,NA,""
"image-keyboard-response",544,461455,"0.0-3.177-2.177","ch7ea5apb04t9w6",786,"84.csv","","null","resources/images/coin2.png","null","",NA,NA,NA,NA,""
"image-keyboard-response",545,461736,"0.0-3.178-0.178","ch7ea5apb04t9w6",786,"84.csv","","278.39999997615814","resources/trios/L2T1A2.jpg","38","restless",0.5,0.9,0.2,0.461567429651312,"true"
"image-keyboard-response",546,462143,"0.0-3.178-1.178","ch7ea5apb04t9w6",786,"84.csv","","null","resources/maskTrios/BT1B.jpg","null","",NA,NA,NA,NA,""
"image-keyboard-response",547,463351,"0.0-3.178-2.178","ch7ea5apb04t9w6",786,"84.csv","","null","resources/images/coin2.png","null","",NA,NA,NA,NA,""
"image-keyboard-response",548,463794,"0.0-3.179-0.179","ch7ea5apb04t9w6",786,"84.csv","","440.2999999523163","resources/trios/L2T1A2.jpg","37","restless",0.5,0.8,0.2,0.560903335217766,"false"
"image-keyboard-response",549,464200,"0.0-3.179-1.179","ch7ea5apb04t9w6",786,"84.csv","","null","resources/maskTrios/L2BB.jpg","null","",NA,NA,NA,NA,""
"image-keyboard-response",550,465408,"0.0-3.179-2.179","ch7ea5apb04t9w6",786,"84.csv","","null","resources/images/fishbone.png","null","",NA,NA,NA,NA,""
"image-keyboard-response",551,466341,"0.0-3.180-0.180","ch7ea5apb04t9w6",786,"84.csv","","931","resources/trios/L2T1A2.jpg","39","restless",0.5,0.7,0.3,0.82982058588664,"false"
"image-keyboard-response",552,466744,"0.0-3.180-1.180","ch7ea5apb04t9w6",786,"84.csv","","null","resources/maskTrios/BBA2.jpg","null","",NA,NA,NA,NA,""
"image-keyboard-response",553,467952,"0.0-3.180-2.180","ch7ea5apb04t9w6",786,"84.csv","","null","resources/images/fishbone.png","null","",NA,NA,NA,NA,""
"image-keyboard-response",554,468262,"0.0-3.181-0.181","ch7ea5apb04t9w6",786,"84.csv","","308.69999998807907","resources/trios/L4T1A2.jpg","38","restless",0.5,0.7,0.4,0.490148055684512,"true"
"image-keyboard-response",555,468673,"0.0-3.181-1.181","ch7ea5apb04t9w6",786,"84.csv","","null","resources/maskTrios/BT1B.jpg","null","",NA,NA,NA,NA,""
"image-keyboard-response",556,469879,"0.0-3.181-2.181","ch7ea5apb04t9w6",786,"84.csv","","null","resources/images/coin2.png","null","",NA,NA,NA,NA,""
"image-keyboard-response",557,470481,"0.0-3.182-0.182","ch7ea5apb04t9w6",786,"84.csv","","599.6000000238419","resources/trios/L2T4A1.jpg","38","restless",0.5,0.7,0.4,0.418800558484916,"true"
"image-keyboard-response",558,470891,"0.0-3.182-1.182","ch7ea5apb04t9w6",786,"84.csv","","null","resources/maskTrios/BT4B.jpg","null","",NA,NA,NA,NA,""
"image-keyboard-response",559,472094,"0.0-3.182-2.182","ch7ea5apb04t9w6",786,"84.csv","","null","resources/images/coin2.png","null","",NA,NA,NA,NA,""
"image-keyboard-response",560,472839,"0.0-3.183-0.183","ch7ea5apb04t9w6",786,"84.csv","","742.8999999761581","resources/trios/L4T4A1.jpg","37","restless",0.5,0.7,0.4,0.733056773900891,"false"
"image-keyboard-response",561,473247,"0.0-3.183-1.183","ch7ea5apb04t9w6",786,"84.csv","","null","resources/maskTrios/L4BB.jpg","null","",NA,NA,NA,NA,""
"image-keyboard-response",562,474455,"0.0-3.183-2.183","ch7ea5apb04t9w6",786,"84.csv","","null","resources/images/fishbone.png","null","",NA,NA,NA,NA,""
"image-keyboard-response",563,474761,"0.0-3.184-0.184","ch7ea5apb04t9w6",786,"84.csv","","303.69999998807907","resources/trios/L2T1A1.jpg","38","restless",0.5,0.7,0.4,0.553534608507252,"true"
"image-keyboard-response",564,475167,"0.0-3.184-1.184","ch7ea5apb04t9w6",786,"84.csv","","null","resources/maskTrios/BT1B.jpg","null","",NA,NA,NA,NA,""
"image-keyboard-response",565,476378,"0.0-3.184-2.184","ch7ea5apb04t9w6",786,"84.csv","","null","resources/images/coin2.png","null","",NA,NA,NA,NA,""
"image-keyboard-response",566,476697,"0.0-3.185-0.185","ch7ea5apb04t9w6",786,"84.csv","","316.89999997615814","resources/trios/L2T1A1.jpg","39","restless",0.5,0.7,0.4,0.21905878802787,"true"
"image-keyboard-response",567,477104,"0.0-3.185-1.185","ch7ea5apb04t9w6",786,"84.csv","","null","resources/maskTrios/BBA1.jpg","null","",NA,NA,NA,NA,""
"image-keyboard-response",568,478311,"0.0-3.185-2.185","ch7ea5apb04t9w6",786,"84.csv","","null","resources/images/coin2.png","null","",NA,NA,NA,NA,""
"image-keyboard-response",569,479194,"0.0-3.186-0.186","ch7ea5apb04t9w6",786,"84.csv","","881.1999999880791","resources/trios/L2T4A1.jpg","37","restless",0.5,0.7,0.3,0.095234579707935,"true"
"image-keyboard-response",570,479598,"0.0-3.186-1.186","ch7ea5apb04t9w6",786,"84.csv","","null","resources/maskTrios/L2BB.jpg","null","",NA,NA,NA,NA,""
"image-keyboard-response",571,480807,"0.0-3.186-2.186","ch7ea5apb04t9w6",786,"84.csv","","null","resources/images/coin2.png","null","",NA,NA,NA,NA,""
"image-keyboard-response",572,481106,"0.0-3.187-0.187","ch7ea5apb04t9w6",786,"84.csv","","297.0999999642372","resources/trios/L4T4A1.jpg","38","restless",0.5,0.7,0.4,0.639165461281187,"true"
"image-keyboard-response",573,481511,"0.0-3.187-1.187","ch7ea5apb04t9w6",786,"84.csv","","null","resources/maskTrios/BT4B.jpg","null","",NA,NA,NA,NA,""
"image-keyboard-response",574,482719,"0.0-3.187-2.187","ch7ea5apb04t9w6",786,"84.csv","","null","resources/images/coin2.png","null","",NA,NA,NA,NA,""
"image-keyboard-response",575,483009,"0.0-3.188-0.188","ch7ea5apb04t9w6",786,"84.csv","","287.69999998807907","resources/trios/L2T4A2.jpg","39","restless",0.5,0.6,0.4,0.0598436743229831,"true"
"image-keyboard-response",576,483415,"0.0-3.188-1.188","ch7ea5apb04t9w6",786,"84.csv","","null","resources/maskTrios/BBA2.jpg","null","",NA,NA,NA,NA,""
"image-keyboard-response",577,484623,"0.0-3.188-2.188","ch7ea5apb04t9w6",786,"84.csv","","null","resources/images/coin2.png","null","",NA,NA,NA,NA,""
"image-keyboard-response",578,485005,"0.0-3.189-0.189","ch7ea5apb04t9w6",786,"84.csv","","380.10000002384186","resources/trios/L4T1A1.jpg","37","restless",0.5,0.6,0.4,0.716742731473092,"false"
"image-keyboard-response",579,485415,"0.0-3.189-1.189","ch7ea5apb04t9w6",786,"84.csv","","null","resources/maskTrios/L4BB.jpg","null","",NA,NA,NA,NA,""
"image-keyboard-response",580,486623,"0.0-3.189-2.189","ch7ea5apb04t9w6",786,"84.csv","","null","resources/images/fishbone.png","null","",NA,NA,NA,NA,""
"image-keyboard-response",581,486947,"0.0-3.190-0.190","ch7ea5apb04t9w6",786,"84.csv","","321.9000000357628","resources/trios/L4T4A1.jpg","38","restless",0.5,0.6,0.3,0.883859918151722,"false"
"image-keyboard-response",582,487351,"0.0-3.190-1.190","ch7ea5apb04t9w6",786,"84.csv","","null","resources/maskTrios/BT4B.jpg","null","",NA,NA,NA,NA,""
"image-keyboard-response",583,488559,"0.0-3.190-2.190","ch7ea5apb04t9w6",786,"84.csv","","null","resources/images/fishbone.png","null","",NA,NA,NA,NA,""
"image-keyboard-response",584,488769,"0.0-3.191-0.191","ch7ea5apb04t9w6",786,"84.csv","","207.89999997615814","resources/trios/L2T1A1.jpg","39","restless",0.5,0.6,0.3,0.693699563560071,"false"
"image-keyboard-response",585,489175,"0.0-3.191-1.191","ch7ea5apb04t9w6",786,"84.csv","","null","resources/maskTrios/BBA1.jpg","null","",NA,NA,NA,NA,""
"image-keyboard-response",586,490383,"0.0-3.191-2.191","ch7ea5apb04t9w6",786,"84.csv","","null","resources/images/fishbone.png","null","",NA,NA,NA,NA,""
"image-keyboard-response",587,492695,"0.0-3.192-0.192","ch7ea5apb04t9w6",786,"84.csv","","2309.5","resources/trios/L4T4A2.jpg","37","restless",0.4,0.6,0.3,0.112538420306196,"true"
"image-keyboard-response",588,493102,"0.0-3.192-1.192","ch7ea5apb04t9w6",786,"84.csv","","null","resources/maskTrios/L4BB.jpg","null","",NA,NA,NA,NA,""
"image-keyboard-response",589,494311,"0.0-3.192-2.192","ch7ea5apb04t9w6",786,"84.csv","","null","resources/images/coin2.png","null","",NA,NA,NA,NA,""
"image-keyboard-response",590,494705,"0.0-3.193-0.193","ch7ea5apb04t9w6",786,"84.csv","","392.60000002384186","resources/trios/L2T1A1.jpg","39","restless",0.4,0.6,0.2,0.24804339502195,"false"
"image-keyboard-response",591,495111,"0.0-3.193-1.193","ch7ea5apb04t9w6",786,"84.csv","","null","resources/maskTrios/BBA1.jpg","null","",NA,NA,NA,NA,""
"image-keyboard-response",592,496319,"0.0-3.193-2.193","ch7ea5apb04t9w6",786,"84.csv","","null","resources/images/fishbone.png","null","",NA,NA,NA,NA,""
"image-keyboard-response",593,496532,"0.0-3.194-0.194","ch7ea5apb04t9w6",786,"84.csv","","210.5999999642372","resources/trios/L2T1A1.jpg","38","restless",0.4,0.6,0.2,0.55403451094851,"true"
"image-keyboard-response",594,496943,"0.0-3.194-1.194","ch7ea5apb04t9w6",786,"84.csv","","null","resources/maskTrios/BT1B.jpg","null","",NA,NA,NA,NA,""
"image-keyboard-response",595,498151,"0.0-3.194-2.194","ch7ea5apb04t9w6",786,"84.csv","","null","resources/images/coin2.png","null","",NA,NA,NA,NA,""
"image-keyboard-response",596,506790,"0.0-3.195-0.195","ch7ea5apb04t9w6",786,"84.csv","","8636.800000011921","resources/trios/L4T1A1.jpg","39","restless",0.4,0.6,0.2,0.44038195198051,"false"
"image-keyboard-response",597,507198,"0.0-3.195-1.195","ch7ea5apb04t9w6",786,"84.csv","","null","resources/maskTrios/BBA1.jpg","null","",NA,NA,NA,NA,""
"image-keyboard-response",598,508406,"0.0-3.195-2.195","ch7ea5apb04t9w6",786,"84.csv","","null","resources/images/fishbone.png","null","",NA,NA,NA,NA,""
"image-keyboard-response",599,508604,"0.0-3.196-0.196","ch7ea5apb04t9w6",786,"84.csv","","195.69999998807907","resources/trios/L4T4A2.jpg","37","restless",0.4,0.6,0.2,0.588108652284437,"false"
"image-keyboard-response",600,509014,"0.0-3.196-1.196","ch7ea5apb04t9w6",786,"84.csv","","null","resources/maskTrios/L4BB.jpg","null","",NA,NA,NA,NA,""
"image-keyboard-response",601,510226,"0.0-3.196-2.196","ch7ea5apb04t9w6",786,"84.csv","","null","resources/images/fishbone.png","null","",NA,NA,NA,NA,""
"image-keyboard-response",602,518575,"0.0-3.197-0.197","ch7ea5apb04t9w6",786,"84.csv","","8347.799999952316","resources/trios/L4T4A2.jpg","37","restless",0.4,0.6,0.2,0.652578496182043,"false"
"image-keyboard-response",603,518982,"0.0-3.197-1.197","ch7ea5apb04t9w6",786,"84.csv","","null","resources/maskTrios/L4BB.jpg","null","",NA,NA,NA,NA,""
"image-keyboard-response",604,520189,"0.0-3.197-2.197","ch7ea5apb04t9w6",786,"84.csv","","null","resources/images/fishbone.png","null","",NA,NA,NA,NA,""
"image-keyboard-response",605,523983,"0.0-3.198-0.198","ch7ea5apb04t9w6",786,"84.csv","","3792","resources/trios/L2T4A1.jpg","39","restless",0.4,0.6,0.2,0.457723784298887,"false"
"image-keyboard-response",606,524389,"0.0-3.198-1.198","ch7ea5apb04t9w6",786,"84.csv","","null","resources/maskTrios/BBA1.jpg","null","",NA,NA,NA,NA,""
"image-keyboard-response",607,525596,"0.0-3.198-2.198","ch7ea5apb04t9w6",786,"84.csv","","null","resources/images/fishbone.png","null","",NA,NA,NA,NA,""
"image-keyboard-response",608,525990,"0.0-3.199-0.199","ch7ea5apb04t9w6",786,"84.csv","","391.69999998807907","resources/trios/L4T1A1.jpg","38","restless",0.3,0.6,0.3,0.265677009889373,"true"
