"trial_type","trial_index","time_elapsed","internal_node_id","subject","participantCode","walkNumber","success","rt","stimulus","key_press","test_part","leftProb","midProb","rightProb","generatedNum","correct"
"pavlovia",0,919,"0.0-0.0","n5hk5lctbdssf1t",804,"137.csv","","","","","",NA,NA,NA,NA,""
"fullscreen",1,10421,"0.0-1.0","n5hk5lctbdssf1t",804,"137.csv","true","","","","",NA,NA,NA,NA,""
"html-keyboard-response",2,22629,"0.0-2.0-0.0","n5hk5lctbdssf1t",804,"137.csv","","12192.599999904633","<p><font size='6'>Arrrgh!</p></font><p>Can you be the best pirate? Try to find lots of gold! But beware, some islands have more gold than others, and over time, the island with the most gold may change. Can YOU figure it out? </p><font size='6'>GOOD LUCK, CAPTAIN!!!</font><p>Press any key to begin</p>","32","",NA,NA,NA,NA,""
"image-keyboard-response",3,25634,"0.0-2.0-1.0","n5hk5lctbdssf1t",804,"137.csv","","null","resources/image_sets/111.png","null","",NA,NA,NA,NA,""
"image-keyboard-response",4,37072,"0.0-2.0-2.0","n5hk5lctbdssf1t",804,"137.csv","","11436.399999856949","resources/image_sets/left_highlight.png","37","",NA,NA,NA,NA,""
"image-keyboard-response",5,41019,"0.0-2.0-3.0","n5hk5lctbdssf1t",804,"137.csv","","3946","resources/image_sets/mid_highlight.png","38","",NA,NA,NA,NA,""
"image-keyboard-response",6,44789,"0.0-2.0-4.0","n5hk5lctbdssf1t",804,"137.csv","","3768.100000143051","resources/image_sets/right_highlight.png","39","",NA,NA,NA,NA,""
"image-keyboard-response",7,52615,"0.0-2.0-5.0","n5hk5lctbdssf1t",804,"137.csv","","7824.299999952316","resources/image_sets/111.png","13","",NA,NA,NA,NA,""
"image-keyboard-response",8,57849,"0.0-2.0-6.0","n5hk5lctbdssf1t",804,"137.csv","","5231.299999952316","resources/images/coin2.png","13","",NA,NA,NA,NA,""
"image-keyboard-response",9,60733,"0.0-2.0-7.0","n5hk5lctbdssf1t",804,"137.csv","","2882.5999999046326","resources/images/fishbone.png","13","",NA,NA,NA,NA,""
"html-keyboard-response",10,62647,"0.0-2.0-8.0","n5hk5lctbdssf1t",804,"137.csv","","1912.4000000953674","<p>Your first journey will be a long one, but you will get a well deserved break at the end</p><p>After the break you will have four more journeys, but each will be much shorter than the first, and you will have breaks in between each</p><p>Press Enter to begin</p>","13","",NA,NA,NA,NA,""
"image-keyboard-response",11,63413,"0.0-3.0-0.0","n5hk5lctbdssf1t",804,"137.csv","","764.7000000476837","resources/trios/L2T1A3.jpg","37","restless",0.3,0.7,0.9,0.453701868246324,"false"
"image-keyboard-response",12,63817,"0.0-3.0-1.0","n5hk5lctbdssf1t",804,"137.csv","","null","resources/maskTrios/L2BB.jpg","null","",NA,NA,NA,NA,""
"image-keyboard-response",13,65024,"0.0-3.0-2.0","n5hk5lctbdssf1t",804,"137.csv","","null","resources/images/fishbone.png","null","",NA,NA,NA,NA,""
"image-keyboard-response",14,75339,"0.0-3.1-0.1","n5hk5lctbdssf1t",804,"137.csv","","10313","resources/trios/L2T2A3.jpg","37","restless",0.3,0.6,0.9,0.543717558393865,"false"
"image-keyboard-response",15,75743,"0.0-3.1-1.1","n5hk5lctbdssf1t",804,"137.csv","","null","resources/maskTrios/L2BB.jpg","null","",NA,NA,NA,NA,""
"image-keyboard-response",16,76949,"0.0-3.1-2.1","n5hk5lctbdssf1t",804,"137.csv","","null","resources/images/fishbone.png","null","",NA,NA,NA,NA,""
"image-keyboard-response",17,77599,"0.0-3.2-0.2","n5hk5lctbdssf1t",804,"137.csv","","648.5","resources/trios/L1T2A2.jpg","39","restless",0.3,0.6,0.9,0.137912463161027,"true"
"image-keyboard-response",18,78002,"0.0-3.2-1.2","n5hk5lctbdssf1t",804,"137.csv","","null","resources/maskTrios/BBA2.jpg","null","",NA,NA,NA,NA,""
"image-keyboard-response",19,79209,"0.0-3.2-2.2","n5hk5lctbdssf1t",804,"137.csv","","null","resources/images/coin2.png","null","",NA,NA,NA,NA,""
"image-keyboard-response",20,80432,"0.0-3.3-0.3","n5hk5lctbdssf1t",804,"137.csv","","1221.7000000476837","resources/trios/L1T1A3.jpg","38","restless",0.4,0.6,0.9,0.301963239159763,"true"
"image-keyboard-response",21,80839,"0.0-3.3-1.3","n5hk5lctbdssf1t",804,"137.csv","","null","resources/maskTrios/BT1B.jpg","null","",NA,NA,NA,NA,""
"image-keyboard-response",22,82045,"0.0-3.3-2.3","n5hk5lctbdssf1t",804,"137.csv","","null","resources/images/coin2.png","null","",NA,NA,NA,NA,""
"image-keyboard-response",23,82586,"0.0-3.4-0.4","n5hk5lctbdssf1t",804,"137.csv","","538.8999998569489","resources/trios/L2T1A3.jpg","38","restless",0.4,0.6,0.9,0.729897287833139,"false"
"image-keyboard-response",24,82993,"0.0-3.4-1.4","n5hk5lctbdssf1t",804,"137.csv","","null","resources/maskTrios/BT1B.jpg","null","",NA,NA,NA,NA,""
"image-keyboard-response",25,84199,"0.0-3.4-2.4","n5hk5lctbdssf1t",804,"137.csv","","null","resources/images/fishbone.png","null","",NA,NA,NA,NA,""
"image-keyboard-response",26,84704,"0.0-3.5-0.5","n5hk5lctbdssf1t",804,"137.csv","","503.7000000476837","resources/trios/L1T1A3.jpg","37","restless",0.4,0.6,0.9,0.723362488529487,"false"
"image-keyboard-response",27,85110,"0.0-3.5-1.5","n5hk5lctbdssf1t",804,"137.csv","","null","resources/maskTrios/L1BB.jpg","null","",NA,NA,NA,NA,""
"image-keyboard-response",28,86316,"0.0-3.5-2.5","n5hk5lctbdssf1t",804,"137.csv","","null","resources/images/fishbone.png","null","",NA,NA,NA,NA,""
"image-keyboard-response",29,86637,"0.0-3.6-0.6","n5hk5lctbdssf1t",804,"137.csv","","319.39999985694885","resources/trios/L2T1A2.jpg","37","restless",0.4,0.6,0.9,0.238228367418784,"true"
"image-keyboard-response",30,87041,"0.0-3.6-1.6","n5hk5lctbdssf1t",804,"137.csv","","null","resources/maskTrios/L2BB.jpg","null","",NA,NA,NA,NA,""
"image-keyboard-response",31,88248,"0.0-3.6-2.6","n5hk5lctbdssf1t",804,"137.csv","","null","resources/images/coin2.png","null","",NA,NA,NA,NA,""
"image-keyboard-response",32,88674,"0.0-3.7-0.7","n5hk5lctbdssf1t",804,"137.csv","","424.40000009536743","resources/trios/L1T2A2.jpg","38","restless",0.4,0.6,0.9,0.780455927819262,"false"
"image-keyboard-response",33,89080,"0.0-3.7-1.7","n5hk5lctbdssf1t",804,"137.csv","","null","resources/maskTrios/BT2B.jpg","null","",NA,NA,NA,NA,""
"image-keyboard-response",34,90286,"0.0-3.7-2.7","n5hk5lctbdssf1t",804,"137.csv","","null","resources/images/fishbone.png","null","",NA,NA,NA,NA,""
"image-keyboard-response",35,90727,"0.0-3.8-0.8","n5hk5lctbdssf1t",804,"137.csv","","439.7000000476837","resources/trios/L1T2A2.jpg","39","restless",0.4,0.6,0.9,0.885595329958047,"true"
"image-keyboard-response",36,91129,"0.0-3.8-1.8","n5hk5lctbdssf1t",804,"137.csv","","null","resources/maskTrios/BBA2.jpg","null","",NA,NA,NA,NA,""
"image-keyboard-response",37,92333,"0.0-3.8-2.8","n5hk5lctbdssf1t",804,"137.csv","","null","resources/images/coin2.png","null","",NA,NA,NA,NA,""
"image-keyboard-response",38,92964,"0.0-3.9-0.9","n5hk5lctbdssf1t",804,"137.csv","","629","resources/trios/L1T2A3.jpg","37","restless",0.4,0.6,0.9,0.116376390930944,"true"
"image-keyboard-response",39,93366,"0.0-3.9-1.9","n5hk5lctbdssf1t",804,"137.csv","","null","resources/maskTrios/L1BB.jpg","null","",NA,NA,NA,NA,""
"image-keyboard-response",40,94572,"0.0-3.9-2.9","n5hk5lctbdssf1t",804,"137.csv","","null","resources/images/coin2.png","null","",NA,NA,NA,NA,""
"image-keyboard-response",41,94810,"0.0-3.10-0.10","n5hk5lctbdssf1t",804,"137.csv","","236.30000019073486","resources/trios/L1T1A2.jpg","38","restless",0.4,0.6,0.9,0.941657848366072,"false"
"image-keyboard-response",42,95217,"0.0-3.10-1.10","n5hk5lctbdssf1t",804,"137.csv","","null","resources/maskTrios/BT1B.jpg","null","",NA,NA,NA,NA,""
"image-keyboard-response",43,96419,"0.0-3.10-2.10","n5hk5lctbdssf1t",804,"137.csv","","null","resources/images/fishbone.png","null","",NA,NA,NA,NA,""
"image-keyboard-response",44,96623,"0.0-3.11-0.11","n5hk5lctbdssf1t",804,"137.csv","","202.59999990463257","resources/trios/L2T1A3.jpg","37","restless",0.4,0.6,0.9,0.523468572378067,"false"
"image-keyboard-response",45,97027,"0.0-3.11-1.11","n5hk5lctbdssf1t",804,"137.csv","","null","resources/maskTrios/L2BB.jpg","null","",NA,NA,NA,NA,""
"image-keyboard-response",46,98233,"0.0-3.11-2.11","n5hk5lctbdssf1t",804,"137.csv","","null","resources/images/fishbone.png","null","",NA,NA,NA,NA,""
"image-keyboard-response",47,98583,"0.0-3.12-0.12","n5hk5lctbdssf1t",804,"137.csv","","348.7999999523163","resources/trios/L1T2A3.jpg","39","restless",0.4,0.6,0.9,0.817103071876197,"true"
"image-keyboard-response",48,98986,"0.0-3.12-1.12","n5hk5lctbdssf1t",804,"137.csv","","null","resources/maskTrios/BBA3.jpg","null","",NA,NA,NA,NA,""
"image-keyboard-response",49,100192,"0.0-3.12-2.12","n5hk5lctbdssf1t",804,"137.csv","","null","resources/images/coin2.png","null","",NA,NA,NA,NA,""
"image-keyboard-response",50,100740,"0.0-3.13-0.13","n5hk5lctbdssf1t",804,"137.csv","","546.2000000476837","resources/trios/L2T2A3.jpg","38","restless",0.4,0.6,0.9,0.655151949601725,"false"
"image-keyboard-response",51,101145,"0.0-3.13-1.13","n5hk5lctbdssf1t",804,"137.csv","","null","resources/maskTrios/BT2B.jpg","null","",NA,NA,NA,NA,""
"image-keyboard-response",52,102350,"0.0-3.13-2.13","n5hk5lctbdssf1t",804,"137.csv","","null","resources/images/fishbone.png","null","",NA,NA,NA,NA,""
"image-keyboard-response",53,102671,"0.0-3.14-0.14","n5hk5lctbdssf1t",804,"137.csv","","319.2999999523163","resources/trios/L2T1A3.jpg","37","restless",0.4,0.6,0.9,0.425527821679176,"false"
"image-keyboard-response",54,103073,"0.0-3.14-1.14","n5hk5lctbdssf1t",804,"137.csv","","null","resources/maskTrios/L2BB.jpg","null","",NA,NA,NA,NA,""
"image-keyboard-response",55,104275,"0.0-3.14-2.14","n5hk5lctbdssf1t",804,"137.csv","","null","resources/images/fishbone.png","null","",NA,NA,NA,NA,""
"image-keyboard-response",56,106303,"0.0-3.15-0.15","n5hk5lctbdssf1t",804,"137.csv","","2026","resources/trios/L2T2A3.jpg","38","restless",0.4,0.6,0.9,0.233728985190842,"true"
"image-keyboard-response",57,106710,"0.0-3.15-1.15","n5hk5lctbdssf1t",804,"137.csv","","null","resources/maskTrios/BT2B.jpg","null","",NA,NA,NA,NA,""
"image-keyboard-response",58,107912,"0.0-3.15-2.15","n5hk5lctbdssf1t",804,"137.csv","","null","resources/images/coin2.png","null","",NA,NA,NA,NA,""
"image-keyboard-response",59,108233,"0.0-3.16-0.16","n5hk5lctbdssf1t",804,"137.csv","","319.7999999523163","resources/trios/L2T1A2.jpg","39","restless",0.4,0.6,0.9,0.665714317802292,"true"
"image-keyboard-response",60,108637,"0.0-3.16-1.16","n5hk5lctbdssf1t",804,"137.csv","","null","resources/maskTrios/BBA2.jpg","null","",NA,NA,NA,NA,""
"image-keyboard-response",61,109840,"0.0-3.16-2.16","n5hk5lctbdssf1t",804,"137.csv","","null","resources/images/coin2.png","null","",NA,NA,NA,NA,""
"image-keyboard-response",62,110077,"0.0-3.17-0.17","n5hk5lctbdssf1t",804,"137.csv","","235.70000004768372","resources/trios/L2T2A2.jpg","38","restless",0.4,0.6,0.8,0.729147639984374,"false"
"image-keyboard-response",63,110483,"0.0-3.17-1.17","n5hk5lctbdssf1t",804,"137.csv","","null","resources/maskTrios/BT2B.jpg","null","",NA,NA,NA,NA,""
"image-keyboard-response",64,111686,"0.0-3.17-2.17","n5hk5lctbdssf1t",804,"137.csv","","null","resources/images/fishbone.png","null","",NA,NA,NA,NA,""
"image-keyboard-response",65,111940,"0.0-3.18-0.18","n5hk5lctbdssf1t",804,"137.csv","","253.59999990463257","resources/trios/L2T2A3.jpg","37","restless",0.4,0.6,0.7,0.3072538887293,"true"
"image-keyboard-response",66,112343,"0.0-3.18-1.18","n5hk5lctbdssf1t",804,"137.csv","","null","resources/maskTrios/L2BB.jpg","null","",NA,NA,NA,NA,""
"image-keyboard-response",67,113545,"0.0-3.18-2.18","n5hk5lctbdssf1t",804,"137.csv","","null","resources/images/coin2.png","null","",NA,NA,NA,NA,""
"image-keyboard-response",68,113864,"0.0-3.19-0.19","n5hk5lctbdssf1t",804,"137.csv","","317.40000009536743","resources/trios/L1T2A3.jpg","37","restless",0.4,0.6,0.7,0.655288217285679,"false"
"image-keyboard-response",69,114268,"0.0-3.19-1.19","n5hk5lctbdssf1t",804,"137.csv","","null","resources/maskTrios/L1BB.jpg","null","",NA,NA,NA,NA,""
"image-keyboard-response",70,115470,"0.0-3.19-2.19","n5hk5lctbdssf1t",804,"137.csv","","null","resources/images/fishbone.png","null","",NA,NA,NA,NA,""
"image-keyboard-response",71,115742,"0.0-3.20-0.20","n5hk5lctbdssf1t",804,"137.csv","","271.09999990463257","resources/trios/L1T1A2.jpg","39","restless",0.4,0.6,0.7,0.952038467795978,"false"
"image-keyboard-response",72,116148,"0.0-3.20-1.20","n5hk5lctbdssf1t",804,"137.csv","","null","resources/maskTrios/BBA2.jpg","null","",NA,NA,NA,NA,""
"image-keyboard-response",73,117352,"0.0-3.20-2.20","n5hk5lctbdssf1t",804,"137.csv","","null","resources/images/fishbone.png","null","",NA,NA,NA,NA,""
"image-keyboard-response",74,121616,"0.0-3.21-0.21","n5hk5lctbdssf1t",804,"137.csv","","4262.700000047684","resources/trios/L1T2A2.jpg","39","restless",0.4,0.6,0.7,0.786072859540021,"false"
"image-keyboard-response",75,122020,"0.0-3.21-1.21","n5hk5lctbdssf1t",804,"137.csv","","null","resources/maskTrios/BBA2.jpg","null","",NA,NA,NA,NA,""
"image-keyboard-response",76,123226,"0.0-3.21-2.21","n5hk5lctbdssf1t",804,"137.csv","","null","resources/images/fishbone.png","null","",NA,NA,NA,NA,""
"image-keyboard-response",77,124794,"0.0-3.22-0.22","n5hk5lctbdssf1t",804,"137.csv","","1566.1000001430511","resources/trios/L2T2A3.jpg","38","restless",0.4,0.5,0.7,0.87929841132705,"false"
"image-keyboard-response",78,125197,"0.0-3.22-1.22","n5hk5lctbdssf1t",804,"137.csv","","null","resources/maskTrios/BT2B.jpg","null","",NA,NA,NA,NA,""
"image-keyboard-response",79,126402,"0.0-3.22-2.22","n5hk5lctbdssf1t",804,"137.csv","","null","resources/images/fishbone.png","null","",NA,NA,NA,NA,""
"image-keyboard-response",80,127220,"0.0-3.23-0.23","n5hk5lctbdssf1t",804,"137.csv","","816.5999999046326","resources/trios/L2T1A3.jpg","37","restless",0.4,0.5,0.7,0.141666415954147,"true"
"image-keyboard-response",81,127628,"0.0-3.23-1.23","n5hk5lctbdssf1t",804,"137.csv","","null","resources/maskTrios/L2BB.jpg","null","",NA,NA,NA,NA,""
"image-keyboard-response",82,128832,"0.0-3.23-2.23","n5hk5lctbdssf1t",804,"137.csv","","null","resources/images/coin2.png","null","",NA,NA,NA,NA,""
"image-keyboard-response",83,136566,"0.0-3.24-0.24","n5hk5lctbdssf1t",804,"137.csv","","7732.299999952316","resources/trios/L1T2A2.jpg","39","restless",0.4,0.5,0.7,0.689705935108239,"true"
"image-keyboard-response",84,136970,"0.0-3.24-1.24","n5hk5lctbdssf1t",804,"137.csv","","null","resources/maskTrios/BBA2.jpg","null","",NA,NA,NA,NA,""
"image-keyboard-response",85,138177,"0.0-3.24-2.24","n5hk5lctbdssf1t",804,"137.csv","","null","resources/images/coin2.png","null","",NA,NA,NA,NA,""
"image-keyboard-response",86,138617,"0.0-3.25-0.25","n5hk5lctbdssf1t",804,"137.csv","","438.80000019073486","resources/trios/L1T2A3.jpg","37","restless",0.4,0.5,0.7,0.278779500678294,"true"
"image-keyboard-response",87,139020,"0.0-3.25-1.25","n5hk5lctbdssf1t",804,"137.csv","","null","resources/maskTrios/L1BB.jpg","null","",NA,NA,NA,NA,""
"image-keyboard-response",88,140227,"0.0-3.25-2.25","n5hk5lctbdssf1t",804,"137.csv","","null","resources/images/coin2.png","null","",NA,NA,NA,NA,""
"image-keyboard-response",89,140237,"0.0-3.26-0.26","n5hk5lctbdssf1t",804,"137.csv","","8.599999904632568","resources/trios/L2T1A2.jpg","38","restless",0.4,0.5,0.7,0.187729548935365,"true"
"image-keyboard-response",90,140643,"0.0-3.26-1.26","n5hk5lctbdssf1t",804,"137.csv","","null","resources/maskTrios/BT1B.jpg","null","",NA,NA,NA,NA,""
"image-keyboard-response",91,141850,"0.0-3.26-2.26","n5hk5lctbdssf1t",804,"137.csv","","null","resources/images/coin2.png","null","",NA,NA,NA,NA,""
"image-keyboard-response",92,142208,"0.0-3.27-0.27","n5hk5lctbdssf1t",804,"137.csv","","356.89999985694885","resources/trios/L1T1A2.jpg","37","restless",0.4,0.5,0.7,0.22985130473632,"true"
"image-keyboard-response",93,142615,"0.0-3.27-1.27","n5hk5lctbdssf1t",804,"137.csv","","null","resources/maskTrios/L1BB.jpg","null","",NA,NA,NA,NA,""
"image-keyboard-response",94,143818,"0.0-3.27-2.27","n5hk5lctbdssf1t",804,"137.csv","","null","resources/images/coin2.png","null","",NA,NA,NA,NA,""
"image-keyboard-response",95,143845,"0.0-3.28-0.28","n5hk5lctbdssf1t",804,"137.csv","","26","resources/trios/L2T2A2.jpg","38","restless",0.5,0.5,0.7,0.729753512672587,"false"
"image-keyboard-response",96,144253,"0.0-3.28-1.28","n5hk5lctbdssf1t",804,"137.csv","","null","resources/maskTrios/BT2B.jpg","null","",NA,NA,NA,NA,""
"image-keyboard-response",97,145454,"0.0-3.28-2.28","n5hk5lctbdssf1t",804,"137.csv","","null","resources/images/fishbone.png","null","",NA,NA,NA,NA,""
"image-keyboard-response",98,145841,"0.0-3.29-0.29","n5hk5lctbdssf1t",804,"137.csv","","385.2000000476837","resources/trios/L1T1A2.jpg","37","restless",0.5,0.5,0.7,0.597338241023537,"false"
"image-keyboard-response",99,146248,"0.0-3.29-1.29","n5hk5lctbdssf1t",804,"137.csv","","null","resources/maskTrios/L1BB.jpg","null","",NA,NA,NA,NA,""
"image-keyboard-response",100,147450,"0.0-3.29-2.29","n5hk5lctbdssf1t",804,"137.csv","","null","resources/images/fishbone.png","null","",NA,NA,NA,NA,""
"image-keyboard-response",101,147468,"0.0-3.30-0.30","n5hk5lctbdssf1t",804,"137.csv","","16.09999990463257","resources/trios/L2T1A2.jpg","39","restless",0.5,0.5,0.7,0.165572084329048,"true"
"image-keyboard-response",102,147871,"0.0-3.30-1.30","n5hk5lctbdssf1t",804,"137.csv","","null","resources/maskTrios/BBA2.jpg","null","",NA,NA,NA,NA,""
"image-keyboard-response",103,149074,"0.0-3.30-2.30","n5hk5lctbdssf1t",804,"137.csv","","null","resources/images/coin2.png","null","",NA,NA,NA,NA,""
"image-keyboard-response",104,149458,"0.0-3.31-0.31","n5hk5lctbdssf1t",804,"137.csv","","382.5","resources/trios/L1T2A2.jpg","38","restless",0.5,0.5,0.7,0.829844327166054,"false"
"image-keyboard-response",105,149867,"0.0-3.31-1.31","n5hk5lctbdssf1t",804,"137.csv","","null","resources/maskTrios/BT2B.jpg","null","",NA,NA,NA,NA,""
"image-keyboard-response",106,151071,"0.0-3.31-2.31","n5hk5lctbdssf1t",804,"137.csv","","null","resources/images/fishbone.png","null","",NA,NA,NA,NA,""
"image-keyboard-response",107,151392,"0.0-3.32-0.32","n5hk5lctbdssf1t",804,"137.csv","","319.7999999523163","resources/trios/L2T1A3.jpg","37","restless",0.5,0.5,0.7,0.833746649130355,"false"
"image-keyboard-response",108,151799,"0.0-3.32-1.32","n5hk5lctbdssf1t",804,"137.csv","","null","resources/maskTrios/L2BB.jpg","null","",NA,NA,NA,NA,""
"image-keyboard-response",109,153001,"0.0-3.32-2.32","n5hk5lctbdssf1t",804,"137.csv","","null","resources/images/fishbone.png","null","",NA,NA,NA,NA,""
"image-keyboard-response",110,153288,"0.0-3.33-0.33","n5hk5lctbdssf1t",804,"137.csv","","285.80000019073486","resources/trios/L2T2A3.jpg","39","restless",0.5,0.5,0.7,0.355333689724985,"true"
"image-keyboard-response",111,153690,"0.0-3.33-1.33","n5hk5lctbdssf1t",804,"137.csv","","null","resources/maskTrios/BBA3.jpg","null","",NA,NA,NA,NA,""
"image-keyboard-response",112,154892,"0.0-3.33-2.33","n5hk5lctbdssf1t",804,"137.csv","","null","resources/images/coin2.png","null","",NA,NA,NA,NA,""
"image-keyboard-response",113,155236,"0.0-3.34-0.34","n5hk5lctbdssf1t",804,"137.csv","","342.5","resources/trios/L2T2A3.jpg","39","restless",0.5,0.5,0.8,0.891977327663128,"false"
"image-keyboard-response",114,155639,"0.0-3.34-1.34","n5hk5lctbdssf1t",804,"137.csv","","null","resources/maskTrios/BBA3.jpg","null","",NA,NA,NA,NA,""
"image-keyboard-response",115,156843,"0.0-3.34-2.34","n5hk5lctbdssf1t",804,"137.csv","","null","resources/images/fishbone.png","null","",NA,NA,NA,NA,""
"image-keyboard-response",116,157211,"0.0-3.35-0.35","n5hk5lctbdssf1t",804,"137.csv","","366.2999999523163","resources/trios/L1T1A3.jpg","38","restless",0.5,0.5,0.8,0.0282278815679429,"true"
"image-keyboard-response",117,157613,"0.0-3.35-1.35","n5hk5lctbdssf1t",804,"137.csv","","null","resources/maskTrios/BT1B.jpg","null","",NA,NA,NA,NA,""
"image-keyboard-response",118,158819,"0.0-3.35-2.35","n5hk5lctbdssf1t",804,"137.csv","","null","resources/images/coin2.png","null","",NA,NA,NA,NA,""
"image-keyboard-response",119,159179,"0.0-3.36-0.36","n5hk5lctbdssf1t",804,"137.csv","","357.59999990463257","resources/trios/L2T1A3.jpg","39","restless",0.5,0.5,0.8,0.313578310677728,"true"
"image-keyboard-response",120,159584,"0.0-3.36-1.36","n5hk5lctbdssf1t",804,"137.csv","","null","resources/maskTrios/BBA3.jpg","null","",NA,NA,NA,NA,""
"image-keyboard-response",121,160788,"0.0-3.36-2.36","n5hk5lctbdssf1t",804,"137.csv","","null","resources/images/coin2.png","null","",NA,NA,NA,NA,""
"image-keyboard-response",122,161100,"0.0-3.37-0.37","n5hk5lctbdssf1t",804,"137.csv","","310.09999990463257","resources/trios/L1T1A3.jpg","38","restless",0.5,0.5,0.7,0.369209213841188,"true"
"image-keyboard-response",123,161504,"0.0-3.37-1.37","n5hk5lctbdssf1t",804,"137.csv","","null","resources/maskTrios/BT1B.jpg","null","",NA,NA,NA,NA,""
"image-keyboard-response",124,162711,"0.0-3.37-2.37","n5hk5lctbdssf1t",804,"137.csv","","null","resources/images/coin2.png","null","",NA,NA,NA,NA,""
"image-keyboard-response",125,163002,"0.0-3.38-0.38","n5hk5lctbdssf1t",804,"137.csv","","289.39999985694885","resources/trios/L2T2A3.jpg","39","restless",0.5,0.5,0.7,0.49822839546598,"true"
"image-keyboard-response",126,163405,"0.0-3.38-1.38","n5hk5lctbdssf1t",804,"137.csv","","null","resources/maskTrios/BBA3.jpg","null","",NA,NA,NA,NA,""
"image-keyboard-response",127,164607,"0.0-3.38-2.38","n5hk5lctbdssf1t",804,"137.csv","","null","resources/images/coin2.png","null","",NA,NA,NA,NA,""
"image-keyboard-response",128,164866,"0.0-3.39-0.39","n5hk5lctbdssf1t",804,"137.csv","","257.40000009536743","resources/trios/L2T1A2.jpg","38","restless",0.5,0.5,0.7,0.265939217858517,"true"
"image-keyboard-response",129,165272,"0.0-3.39-1.39","n5hk5lctbdssf1t",804,"137.csv","","null","resources/maskTrios/BT1B.jpg","null","",NA,NA,NA,NA,""
"image-keyboard-response",130,166479,"0.0-3.39-2.39","n5hk5lctbdssf1t",804,"137.csv","","null","resources/images/coin2.png","null","",NA,NA,NA,NA,""
"image-keyboard-response",131,166843,"0.0-3.40-0.40","n5hk5lctbdssf1t",804,"137.csv","","361.90000009536743","resources/trios/L2T2A2.jpg","39","restless",0.5,0.5,0.7,0.597983895002029,"true"
"image-keyboard-response",132,167250,"0.0-3.40-1.40","n5hk5lctbdssf1t",804,"137.csv","","null","resources/maskTrios/BBA2.jpg","null","",NA,NA,NA,NA,""
"image-keyboard-response",133,168456,"0.0-3.40-2.40","n5hk5lctbdssf1t",804,"137.csv","","null","resources/images/coin2.png","null","",NA,NA,NA,NA,""
"image-keyboard-response",134,168699,"0.0-3.41-0.41","n5hk5lctbdssf1t",804,"137.csv","","241.70000004768372","resources/trios/L2T2A2.jpg","38","restless",0.5,0.5,0.7,0.899070592424938,"false"
"image-keyboard-response",135,169102,"0.0-3.41-1.41","n5hk5lctbdssf1t",804,"137.csv","","null","resources/maskTrios/BT2B.jpg","null","",NA,NA,NA,NA,""
"image-keyboard-response",136,170305,"0.0-3.41-2.41","n5hk5lctbdssf1t",804,"137.csv","","null","resources/images/fishbone.png","null","",NA,NA,NA,NA,""
"image-keyboard-response",137,170647,"0.0-3.42-0.42","n5hk5lctbdssf1t",804,"137.csv","","340.7999999523163","resources/trios/L1T1A2.jpg","39","restless",0.5,0.5,0.7,0.732224011802999,"false"
"image-keyboard-response",138,171054,"0.0-3.42-1.42","n5hk5lctbdssf1t",804,"137.csv","","null","resources/maskTrios/BBA2.jpg","null","",NA,NA,NA,NA,""
"image-keyboard-response",139,172256,"0.0-3.42-2.42","n5hk5lctbdssf1t",804,"137.csv","","null","resources/images/fishbone.png","null","",NA,NA,NA,NA,""
"image-keyboard-response",140,172654,"0.0-3.43-0.43","n5hk5lctbdssf1t",804,"137.csv","","396.60000014305115","resources/trios/L2T1A2.jpg","37","restless",0.5,0.6,0.7,0.381232873005664,"true"
"image-keyboard-response",141,173056,"0.0-3.43-1.43","n5hk5lctbdssf1t",804,"137.csv","","null","resources/maskTrios/L2BB.jpg","null","",NA,NA,NA,NA,""
"image-keyboard-response",142,174263,"0.0-3.43-2.43","n5hk5lctbdssf1t",804,"137.csv","","null","resources/images/coin2.png","null","",NA,NA,NA,NA,""
"image-keyboard-response",143,174915,"0.0-3.44-0.44","n5hk5lctbdssf1t",804,"137.csv","","650.5","resources/trios/L2T1A3.jpg","38","restless",0.6,0.6,0.7,0.938155685552924,"false"
"image-keyboard-response",144,175321,"0.0-3.44-1.44","n5hk5lctbdssf1t",804,"137.csv","","null","resources/maskTrios/BT1B.jpg","null","",NA,NA,NA,NA,""
"image-keyboard-response",145,176524,"0.0-3.44-2.44","n5hk5lctbdssf1t",804,"137.csv","","null","resources/images/fishbone.png","null","",NA,NA,NA,NA,""
"image-keyboard-response",146,176870,"0.0-3.45-0.45","n5hk5lctbdssf1t",804,"137.csv","","343.89999985694885","resources/trios/L2T1A3.jpg","37","restless",0.6,0.6,0.7,0.966524337634272,"false"
"image-keyboard-response",147,177277,"0.0-3.45-1.45","n5hk5lctbdssf1t",804,"137.csv","","null","resources/maskTrios/L2BB.jpg","null","",NA,NA,NA,NA,""
"image-keyboard-response",148,178482,"0.0-3.45-2.45","n5hk5lctbdssf1t",804,"137.csv","","null","resources/images/fishbone.png","null","",NA,NA,NA,NA,""
"image-keyboard-response",149,178846,"0.0-3.46-0.46","n5hk5lctbdssf1t",804,"137.csv","","363","resources/trios/L2T1A3.jpg","38","restless",0.6,0.6,0.7,0.721129602222713,"false"
"image-keyboard-response",150,179254,"0.0-3.46-1.46","n5hk5lctbdssf1t",804,"137.csv","","null","resources/maskTrios/BT1B.jpg","null","",NA,NA,NA,NA,""
"image-keyboard-response",151,180456,"0.0-3.46-2.46","n5hk5lctbdssf1t",804,"137.csv","","null","resources/images/fishbone.png","null","",NA,NA,NA,NA,""
"image-keyboard-response",152,180719,"0.0-3.47-0.47","n5hk5lctbdssf1t",804,"137.csv","","261.2999999523163","resources/trios/L2T2A2.jpg","39","restless",0.6,0.6,0.7,0.483452726832902,"true"
"image-keyboard-response",153,181124,"0.0-3.47-1.47","n5hk5lctbdssf1t",804,"137.csv","","null","resources/maskTrios/BBA2.jpg","null","",NA,NA,NA,NA,""
"image-keyboard-response",154,182326,"0.0-3.47-2.47","n5hk5lctbdssf1t",804,"137.csv","","null","resources/images/coin2.png","null","",NA,NA,NA,NA,""
"image-keyboard-response",155,182679,"0.0-3.48-0.48","n5hk5lctbdssf1t",804,"137.csv","","350.5","resources/trios/L1T2A2.jpg","39","restless",0.6,0.6,0.6,0.144172597357141,"true"
"image-keyboard-response",156,183083,"0.0-3.48-1.48","n5hk5lctbdssf1t",804,"137.csv","","null","resources/maskTrios/BBA2.jpg","null","",NA,NA,NA,NA,""
"image-keyboard-response",157,184288,"0.0-3.48-2.48","n5hk5lctbdssf1t",804,"137.csv","","null","resources/images/coin2.png","null","",NA,NA,NA,NA,""
"image-keyboard-response",158,184659,"0.0-3.49-0.49","n5hk5lctbdssf1t",804,"137.csv","","369.7999999523163","resources/trios/L2T1A3.jpg","37","restless",0.6,0.6,0.6,0.401162578415379,"true"
"image-keyboard-response",159,185065,"0.0-3.49-1.49","n5hk5lctbdssf1t",804,"137.csv","","null","resources/maskTrios/L2BB.jpg","null","",NA,NA,NA,NA,""
"image-keyboard-response",160,186267,"0.0-3.49-2.49","n5hk5lctbdssf1t",804,"137.csv","","null","resources/images/coin2.png","null","",NA,NA,NA,NA,""
"image-keyboard-response",161,186543,"0.0-3.50-0.50","n5hk5lctbdssf1t",804,"137.csv","","274.19999980926514","resources/trios/L1T2A2.jpg","39","restless",0.6,0.6,0.6,0.301241283359556,"true"
"image-keyboard-response",162,186951,"0.0-3.50-1.50","n5hk5lctbdssf1t",804,"137.csv","","null","resources/maskTrios/BBA2.jpg","null","",NA,NA,NA,NA,""
"image-keyboard-response",163,188155,"0.0-3.50-2.50","n5hk5lctbdssf1t",804,"137.csv","","null","resources/images/coin2.png","null","",NA,NA,NA,NA,""
"image-keyboard-response",164,188638,"0.0-3.51-0.51","n5hk5lctbdssf1t",804,"137.csv","","481","resources/trios/L2T1A3.jpg","37","restless",0.6,0.6,0.6,0.296912048494977,"true"
"image-keyboard-response",165,189043,"0.0-3.51-1.51","n5hk5lctbdssf1t",804,"137.csv","","null","resources/maskTrios/L2BB.jpg","null","",NA,NA,NA,NA,""
"image-keyboard-response",166,190250,"0.0-3.51-2.51","n5hk5lctbdssf1t",804,"137.csv","","null","resources/images/coin2.png","null","",NA,NA,NA,NA,""
"image-keyboard-response",167,190499,"0.0-3.52-0.52","n5hk5lctbdssf1t",804,"137.csv","","247.89999985694885","resources/trios/L2T1A3.jpg","39","restless",0.6,0.6,0.6,0.788308957316388,"false"
"image-keyboard-response",168,190905,"0.0-3.52-1.52","n5hk5lctbdssf1t",804,"137.csv","","null","resources/maskTrios/BBA3.jpg","null","",NA,NA,NA,NA,""
"image-keyboard-response",169,192109,"0.0-3.52-2.52","n5hk5lctbdssf1t",804,"137.csv","","null","resources/images/fishbone.png","null","",NA,NA,NA,NA,""
"image-keyboard-response",170,192160,"0.0-3.53-0.53","n5hk5lctbdssf1t",804,"137.csv","","49.299999952316284","resources/trios/L2T1A2.jpg","38","restless",0.6,0.6,0.7,0.818128459768159,"false"
"image-keyboard-response",171,192563,"0.0-3.53-1.53","n5hk5lctbdssf1t",804,"137.csv","","null","resources/maskTrios/BT1B.jpg","null","",NA,NA,NA,NA,""
"image-keyboard-response",172,193766,"0.0-3.53-2.53","n5hk5lctbdssf1t",804,"137.csv","","null","resources/images/fishbone.png","null","",NA,NA,NA,NA,""
"image-keyboard-response",173,194041,"0.0-3.54-0.54","n5hk5lctbdssf1t",804,"137.csv","","273","resources/trios/L2T1A2.jpg","37","restless",0.6,0.6,0.7,0.244217047867972,"true"
"image-keyboard-response",174,194448,"0.0-3.54-1.54","n5hk5lctbdssf1t",804,"137.csv","","null","resources/maskTrios/L2BB.jpg","null","",NA,NA,NA,NA,""
"image-keyboard-response",175,195654,"0.0-3.54-2.54","n5hk5lctbdssf1t",804,"137.csv","","null","resources/images/coin2.png","null","",NA,NA,NA,NA,""
"image-keyboard-response",176,195840,"0.0-3.55-0.55","n5hk5lctbdssf1t",804,"137.csv","","183.40000009536743","resources/trios/L2T2A3.jpg","37","restless",0.6,0.6,0.7,0.983045494574467,"false"
"image-keyboard-response",177,196247,"0.0-3.55-1.55","n5hk5lctbdssf1t",804,"137.csv","","null","resources/maskTrios/L2BB.jpg","null","",NA,NA,NA,NA,""
"image-keyboard-response",178,197453,"0.0-3.55-2.55","n5hk5lctbdssf1t",804,"137.csv","","null","resources/images/fishbone.png","null","",NA,NA,NA,NA,""
"image-keyboard-response",179,197701,"0.0-3.56-0.56","n5hk5lctbdssf1t",804,"137.csv","","247.09999990463257","resources/trios/L2T1A2.jpg","37","restless",0.6,0.6,0.8,0.493485745260545,"true"
"image-keyboard-response",180,198105,"0.0-3.56-1.56","n5hk5lctbdssf1t",804,"137.csv","","null","resources/maskTrios/L2BB.jpg","null","",NA,NA,NA,NA,""
"image-keyboard-response",181,199310,"0.0-3.56-2.56","n5hk5lctbdssf1t",804,"137.csv","","null","resources/images/coin2.png","null","",NA,NA,NA,NA,""
"image-keyboard-response",182,201110,"0.0-3.57-0.57","n5hk5lctbdssf1t",804,"137.csv","","1797.4000000953674","resources/trios/L1T2A3.jpg","37","restless",0.6,0.6,0.8,0.825507601400536,"false"
"image-keyboard-response",183,201513,"0.0-3.57-1.57","n5hk5lctbdssf1t",804,"137.csv","","null","resources/maskTrios/L1BB.jpg","null","",NA,NA,NA,NA,""
"image-keyboard-response",184,202720,"0.0-3.57-2.57","n5hk5lctbdssf1t",804,"137.csv","","null","resources/images/fishbone.png","null","",NA,NA,NA,NA,""
"image-keyboard-response",185,203319,"0.0-3.58-0.58","n5hk5lctbdssf1t",804,"137.csv","","598","resources/trios/L2T2A3.jpg","39","restless",0.6,0.6,0.8,0.733198040985827,"true"
"image-keyboard-response",186,203725,"0.0-3.58-1.58","n5hk5lctbdssf1t",804,"137.csv","","null","resources/maskTrios/BBA3.jpg","null","",NA,NA,NA,NA,""
"image-keyboard-response",187,204928,"0.0-3.58-2.58","n5hk5lctbdssf1t",804,"137.csv","","null","resources/images/coin2.png","null","",NA,NA,NA,NA,""
"image-keyboard-response",188,205683,"0.0-3.59-0.59","n5hk5lctbdssf1t",804,"137.csv","","753.6000001430511","resources/trios/L2T2A3.jpg","38","restless",0.7,0.6,0.8,0.0882272924035183,"true"
"image-keyboard-response",189,206086,"0.0-3.59-1.59","n5hk5lctbdssf1t",804,"137.csv","","null","resources/maskTrios/BT2B.jpg","null","",NA,NA,NA,NA,""
"image-keyboard-response",190,207291,"0.0-3.59-2.59","n5hk5lctbdssf1t",804,"137.csv","","null","resources/images/coin2.png","null","",NA,NA,NA,NA,""
"image-keyboard-response",191,207656,"0.0-3.60-0.60","n5hk5lctbdssf1t",804,"137.csv","","362.10000014305115","resources/trios/L1T2A3.jpg","38","restless",0.7,0.6,0.8,0.488091040711677,"true"
"image-keyboard-response",192,208059,"0.0-3.60-1.60","n5hk5lctbdssf1t",804,"137.csv","","null","resources/maskTrios/BT2B.jpg","null","",NA,NA,NA,NA,""
"image-keyboard-response",193,209262,"0.0-3.60-2.60","n5hk5lctbdssf1t",804,"137.csv","","null","resources/images/coin2.png","null","",NA,NA,NA,NA,""
"image-keyboard-response",194,209626,"0.0-3.61-0.61","n5hk5lctbdssf1t",804,"137.csv","","362.60000014305115","resources/trios/L2T1A3.jpg","38","restless",0.7,0.6,0.8,0.471594671383279,"true"
"image-keyboard-response",195,210029,"0.0-3.61-1.61","n5hk5lctbdssf1t",804,"137.csv","","null","resources/maskTrios/BT1B.jpg","null","",NA,NA,NA,NA,""
"image-keyboard-response",196,211235,"0.0-3.61-2.61","n5hk5lctbdssf1t",804,"137.csv","","null","resources/images/coin2.png","null","",NA,NA,NA,NA,""
"image-keyboard-response",197,211324,"0.0-3.62-0.62","n5hk5lctbdssf1t",804,"137.csv","","87.20000004768372","resources/trios/L2T1A3.jpg","38","restless",0.7,0.6,0.8,0.227016517615602,"true"
"image-keyboard-response",198,211726,"0.0-3.62-1.62","n5hk5lctbdssf1t",804,"137.csv","","null","resources/maskTrios/BT1B.jpg","null","",NA,NA,NA,NA,""
"image-keyboard-response",199,212929,"0.0-3.62-2.62","n5hk5lctbdssf1t",804,"137.csv","","null","resources/images/coin2.png","null","",NA,NA,NA,NA,""
"image-keyboard-response",200,213372,"0.0-3.63-0.63","n5hk5lctbdssf1t",804,"137.csv","","442","resources/trios/L1T2A2.jpg","38","restless",0.7,0.6,0.8,0.44504743807769,"true"
"image-keyboard-response",201,213776,"0.0-3.63-1.63","n5hk5lctbdssf1t",804,"137.csv","","null","resources/maskTrios/BT2B.jpg","null","",NA,NA,NA,NA,""
"image-keyboard-response",202,214982,"0.0-3.63-2.63","n5hk5lctbdssf1t",804,"137.csv","","null","resources/images/coin2.png","null","",NA,NA,NA,NA,""
"image-keyboard-response",203,215216,"0.0-3.64-0.64","n5hk5lctbdssf1t",804,"137.csv","","232.79999995231628","resources/trios/L1T2A3.jpg","38","restless",0.7,0.6,0.8,0.0564202658683868,"true"
"image-keyboard-response",204,215623,"0.0-3.64-1.64","n5hk5lctbdssf1t",804,"137.csv","","null","resources/maskTrios/BT2B.jpg","null","",NA,NA,NA,NA,""
"image-keyboard-response",205,216826,"0.0-3.64-2.64","n5hk5lctbdssf1t",804,"137.csv","","null","resources/images/coin2.png","null","",NA,NA,NA,NA,""
"image-keyboard-response",206,216906,"0.0-3.65-0.65","n5hk5lctbdssf1t",804,"137.csv","","77.60000014305115","resources/trios/L1T2A3.jpg","38","restless",0.7,0.6,0.8,0.817903379513705,"false"
"image-keyboard-response",207,217310,"0.0-3.65-1.65","n5hk5lctbdssf1t",804,"137.csv","","null","resources/maskTrios/BT2B.jpg","null","",NA,NA,NA,NA,""
"image-keyboard-response",208,218516,"0.0-3.65-2.65","n5hk5lctbdssf1t",804,"137.csv","","null","resources/images/fishbone.png","null","",NA,NA,NA,NA,""
"image-keyboard-response",209,219208,"0.0-3.66-0.66","n5hk5lctbdssf1t",804,"137.csv","","690.9000000953674","resources/trios/L2T2A2.jpg","39","restless",0.7,0.6,0.8,0.613383996987903,"true"
"image-keyboard-response",210,219610,"0.0-3.66-1.66","n5hk5lctbdssf1t",804,"137.csv","","null","resources/maskTrios/BBA2.jpg","null","",NA,NA,NA,NA,""
"image-keyboard-response",211,220813,"0.0-3.66-2.66","n5hk5lctbdssf1t",804,"137.csv","","null","resources/images/coin2.png","null","",NA,NA,NA,NA,""
"image-keyboard-response",212,221214,"0.0-3.67-0.67","n5hk5lctbdssf1t",804,"137.csv","","399.2000000476837","resources/trios/L2T2A2.jpg","39","restless",0.7,0.6,0.8,0.361301477299101,"true"
"image-keyboard-response",213,221620,"0.0-3.67-1.67","n5hk5lctbdssf1t",804,"137.csv","","null","resources/maskTrios/BBA2.jpg","null","",NA,NA,NA,NA,""
"image-keyboard-response",214,222827,"0.0-3.67-2.67","n5hk5lctbdssf1t",804,"137.csv","","null","resources/images/coin2.png","null","",NA,NA,NA,NA,""
"image-keyboard-response",215,223247,"0.0-3.68-0.68","n5hk5lctbdssf1t",804,"137.csv","","418.7000000476837","resources/trios/L1T1A2.jpg","39","restless",0.7,0.6,0.7,0.271552736692691,"true"
"image-keyboard-response",216,223651,"0.0-3.68-1.68","n5hk5lctbdssf1t",804,"137.csv","","null","resources/maskTrios/BBA2.jpg","null","",NA,NA,NA,NA,""
"image-keyboard-response",217,224856,"0.0-3.68-2.68","n5hk5lctbdssf1t",804,"137.csv","","null","resources/images/coin2.png","null","",NA,NA,NA,NA,""
"image-keyboard-response",218,225243,"0.0-3.69-0.69","n5hk5lctbdssf1t",804,"137.csv","","385.10000014305115","resources/trios/L2T2A2.jpg","39","restless",0.7,0.6,0.7,0.292454082659715,"true"
"image-keyboard-response",219,225650,"0.0-3.69-1.69","n5hk5lctbdssf1t",804,"137.csv","","null","resources/maskTrios/BBA2.jpg","null","",NA,NA,NA,NA,""
"image-keyboard-response",220,226857,"0.0-3.69-2.69","n5hk5lctbdssf1t",804,"137.csv","","null","resources/images/coin2.png","null","",NA,NA,NA,NA,""
"image-keyboard-response",221,227024,"0.0-3.70-0.70","n5hk5lctbdssf1t",804,"137.csv","","165.89999985694885","resources/trios/L1T1A2.jpg","39","restless",0.7,0.6,0.7,0.690304707820723,"true"
"image-keyboard-response",222,227427,"0.0-3.70-1.70","n5hk5lctbdssf1t",804,"137.csv","","null","resources/maskTrios/BBA2.jpg","null","",NA,NA,NA,NA,""
"image-keyboard-response",223,228633,"0.0-3.70-2.70","n5hk5lctbdssf1t",804,"137.csv","","null","resources/images/coin2.png","null","",NA,NA,NA,NA,""
"image-keyboard-response",224,231984,"0.0-3.71-0.71","n5hk5lctbdssf1t",804,"137.csv","","3350.0999999046326","resources/trios/L2T2A2.jpg","39","restless",0.7,0.6,0.7,0.694111555634618,"true"
"image-keyboard-response",225,232392,"0.0-3.71-1.71","n5hk5lctbdssf1t",804,"137.csv","","null","resources/maskTrios/BBA2.jpg","null","",NA,NA,NA,NA,""
"image-keyboard-response",226,233594,"0.0-3.71-2.71","n5hk5lctbdssf1t",804,"137.csv","","null","resources/images/coin2.png","null","",NA,NA,NA,NA,""
"image-keyboard-response",227,235708,"0.0-3.72-0.72","n5hk5lctbdssf1t",804,"137.csv","","2112.5","resources/trios/L1T1A2.jpg","39","restless",0.7,0.6,0.7,0.244980095485017,"true"
"image-keyboard-response",228,236110,"0.0-3.72-1.72","n5hk5lctbdssf1t",804,"137.csv","","null","resources/maskTrios/BBA2.jpg","null","",NA,NA,NA,NA,""
"image-keyboard-response",229,237312,"0.0-3.72-2.72","n5hk5lctbdssf1t",804,"137.csv","","null","resources/images/coin2.png","null","",NA,NA,NA,NA,""
"image-keyboard-response",230,239912,"0.0-3.73-0.73","n5hk5lctbdssf1t",804,"137.csv","","2598.7000000476837","resources/trios/L2T2A2.jpg","38","restless",0.7,0.6,0.7,0.136681884224825,"true"
"image-keyboard-response",231,240316,"0.0-3.73-1.73","n5hk5lctbdssf1t",804,"137.csv","","null","resources/maskTrios/BT2B.jpg","null","",NA,NA,NA,NA,""
"image-keyboard-response",232,241523,"0.0-3.73-2.73","n5hk5lctbdssf1t",804,"137.csv","","null","resources/images/coin2.png","null","",NA,NA,NA,NA,""
"image-keyboard-response",233,243168,"0.0-3.74-0.74","n5hk5lctbdssf1t",804,"137.csv","","1643.2999999523163","resources/trios/L2T2A2.jpg","38","restless",0.7,0.6,0.6,0.743379379061097,"false"
"image-keyboard-response",234,243573,"0.0-3.74-1.74","n5hk5lctbdssf1t",804,"137.csv","","null","resources/maskTrios/BT2B.jpg","null","",NA,NA,NA,NA,""
"image-keyboard-response",235,244779,"0.0-3.74-2.74","n5hk5lctbdssf1t",804,"137.csv","","null","resources/images/fishbone.png","null","",NA,NA,NA,NA,""
"image-keyboard-response",236,244882,"0.0-3.75-0.75","n5hk5lctbdssf1t",804,"137.csv","","102","resources/trios/L2T2A3.jpg","37","restless",0.7,0.6,0.6,0.116612572615449,"true"
"image-keyboard-response",237,245290,"0.0-3.75-1.75","n5hk5lctbdssf1t",804,"137.csv","","null","resources/maskTrios/L2BB.jpg","null","",NA,NA,NA,NA,""
"image-keyboard-response",238,246495,"0.0-3.75-2.75","n5hk5lctbdssf1t",804,"137.csv","","null","resources/images/coin2.png","null","",NA,NA,NA,NA,""
"image-keyboard-response",239,246791,"0.0-3.76-0.76","n5hk5lctbdssf1t",804,"137.csv","","294.09999990463257","resources/trios/L1T1A2.jpg","39","restless",0.8,0.6,0.6,0.232934990147071,"true"
"image-keyboard-response",240,247195,"0.0-3.76-1.76","n5hk5lctbdssf1t",804,"137.csv","","null","resources/maskTrios/BBA2.jpg","null","",NA,NA,NA,NA,""
"image-keyboard-response",241,248398,"0.0-3.76-2.76","n5hk5lctbdssf1t",804,"137.csv","","null","resources/images/coin2.png","null","",NA,NA,NA,NA,""
"image-keyboard-response",242,249687,"0.0-3.77-0.77","n5hk5lctbdssf1t",804,"137.csv","","1286.3999998569489","resources/trios/L1T1A2.jpg","37","restless",0.8,0.6,0.6,0.0242637696018979,"true"
"image-keyboard-response",243,250091,"0.0-3.77-1.77","n5hk5lctbdssf1t",804,"137.csv","","null","resources/maskTrios/L1BB.jpg","null","",NA,NA,NA,NA,""
"image-keyboard-response",244,251296,"0.0-3.77-2.77","n5hk5lctbdssf1t",804,"137.csv","","null","resources/images/coin2.png","null","",NA,NA,NA,NA,""
"image-keyboard-response",245,251690,"0.0-3.78-0.78","n5hk5lctbdssf1t",804,"137.csv","","391.7999999523163","resources/trios/L2T2A2.jpg","37","restless",0.8,0.6,0.6,0.722263459204564,"true"
"image-keyboard-response",246,252092,"0.0-3.78-1.78","n5hk5lctbdssf1t",804,"137.csv","","null","resources/maskTrios/L2BB.jpg","null","",NA,NA,NA,NA,""
"image-keyboard-response",247,253296,"0.0-3.78-2.78","n5hk5lctbdssf1t",804,"137.csv","","null","resources/images/coin2.png","null","",NA,NA,NA,NA,""
"image-keyboard-response",248,253394,"0.0-3.79-0.79","n5hk5lctbdssf1t",804,"137.csv","","96.90000009536743","resources/trios/L1T1A2.jpg","39","restless",0.8,0.6,0.6,0.139697777089006,"true"
"image-keyboard-response",249,253796,"0.0-3.79-1.79","n5hk5lctbdssf1t",804,"137.csv","","null","resources/maskTrios/BBA2.jpg","null","",NA,NA,NA,NA,""
"image-keyboard-response",250,254999,"0.0-3.79-2.79","n5hk5lctbdssf1t",804,"137.csv","","null","resources/images/coin2.png","null","",NA,NA,NA,NA,""
"image-keyboard-response",251,258173,"0.0-3.80-0.80","n5hk5lctbdssf1t",804,"137.csv","","3172.5","resources/trios/L1T1A2.jpg","39","restless",0.8,0.6,0.6,0.643732417144106,"false"
"image-keyboard-response",252,258574,"0.0-3.80-1.80","n5hk5lctbdssf1t",804,"137.csv","","null","resources/maskTrios/BBA2.jpg","null","",NA,NA,NA,NA,""
"image-keyboard-response",253,259779,"0.0-3.80-2.80","n5hk5lctbdssf1t",804,"137.csv","","null","resources/images/fishbone.png","null","",NA,NA,NA,NA,""
"image-keyboard-response",254,260310,"0.0-3.81-0.81","n5hk5lctbdssf1t",804,"137.csv","","529.7999999523163","resources/trios/L2T1A3.jpg","38","restless",0.8,0.6,0.5,0.305817261369189,"true"
"image-keyboard-response",255,260713,"0.0-3.81-1.81","n5hk5lctbdssf1t",804,"137.csv","","null","resources/maskTrios/BT1B.jpg","null","",NA,NA,NA,NA,""
"image-keyboard-response",256,261920,"0.0-3.81-2.81","n5hk5lctbdssf1t",804,"137.csv","","null","resources/images/coin2.png","null","",NA,NA,NA,NA,""
"image-keyboard-response",257,262253,"0.0-3.82-0.82","n5hk5lctbdssf1t",804,"137.csv","","331.40000009536743","resources/trios/L2T1A3.jpg","37","restless",0.8,0.6,0.5,0.12095136855437,"true"
"image-keyboard-response",258,262657,"0.0-3.82-1.82","n5hk5lctbdssf1t",804,"137.csv","","null","resources/maskTrios/L2BB.jpg","null","",NA,NA,NA,NA,""
"image-keyboard-response",259,263864,"0.0-3.82-2.82","n5hk5lctbdssf1t",804,"137.csv","","null","resources/images/coin2.png","null","",NA,NA,NA,NA,""
"image-keyboard-response",260,264762,"0.0-3.83-0.83","n5hk5lctbdssf1t",804,"137.csv","","897.5","resources/trios/L2T2A2.jpg","38","restless",0.8,0.6,0.5,0.108541684152049,"true"
"image-keyboard-response",261,265168,"0.0-3.83-1.83","n5hk5lctbdssf1t",804,"137.csv","","null","resources/maskTrios/BT2B.jpg","null","",NA,NA,NA,NA,""
"image-keyboard-response",262,266374,"0.0-3.83-2.83","n5hk5lctbdssf1t",804,"137.csv","","null","resources/images/coin2.png","null","",NA,NA,NA,NA,""
"image-keyboard-response",263,267284,"0.0-3.84-0.84","n5hk5lctbdssf1t",804,"137.csv","","908.1000001430511","resources/trios/L2T1A3.jpg","37","restless",0.8,0.6,0.5,0.601684631115397,"true"
"image-keyboard-response",264,267691,"0.0-3.84-1.84","n5hk5lctbdssf1t",804,"137.csv","","null","resources/maskTrios/L2BB.jpg","null","",NA,NA,NA,NA,""
"image-keyboard-response",265,268897,"0.0-3.84-2.84","n5hk5lctbdssf1t",804,"137.csv","","null","resources/images/coin2.png","null","",NA,NA,NA,NA,""
"image-keyboard-response",266,269094,"0.0-3.85-0.85","n5hk5lctbdssf1t",804,"137.csv","","195.20000004768372","resources/trios/L2T1A3.jpg","38","restless",0.7,0.6,0.5,0.819801510818411,"false"
"image-keyboard-response",267,269497,"0.0-3.85-1.85","n5hk5lctbdssf1t",804,"137.csv","","null","resources/maskTrios/BT1B.jpg","null","",NA,NA,NA,NA,""
"image-keyboard-response",268,270700,"0.0-3.85-2.85","n5hk5lctbdssf1t",804,"137.csv","","null","resources/images/fishbone.png","null","",NA,NA,NA,NA,""
"image-keyboard-response",269,270711,"0.0-3.86-0.86","n5hk5lctbdssf1t",804,"137.csv","","9.100000143051147","resources/trios/L2T1A2.jpg","37","restless",0.7,0.6,0.4,0.850014088436569,"false"
"image-keyboard-response",270,271116,"0.0-3.86-1.86","n5hk5lctbdssf1t",804,"137.csv","","null","resources/maskTrios/L2BB.jpg","null","",NA,NA,NA,NA,""
"image-keyboard-response",271,272318,"0.0-3.86-2.86","n5hk5lctbdssf1t",804,"137.csv","","null","resources/images/fishbone.png","null","",NA,NA,NA,NA,""
"image-keyboard-response",272,272321,"0.0-3.87-0.87","n5hk5lctbdssf1t",804,"137.csv","","1.5","resources/trios/L2T1A2.jpg","39","restless",0.7,0.6,0.4,0.417573485750109,"false"
"image-keyboard-response",273,272728,"0.0-3.87-1.87","n5hk5lctbdssf1t",804,"137.csv","","null","resources/maskTrios/BBA2.jpg","null","",NA,NA,NA,NA,""
"image-keyboard-response",274,273931,"0.0-3.87-2.87","n5hk5lctbdssf1t",804,"137.csv","","null","resources/images/fishbone.png","null","",NA,NA,NA,NA,""
"image-keyboard-response",275,274261,"0.0-3.88-0.88","n5hk5lctbdssf1t",804,"137.csv","","328.2999999523163","resources/trios/L1T2A3.jpg","39","restless",0.7,0.6,0.4,0.479896668871663,"false"
"image-keyboard-response",276,274665,"0.0-3.88-1.88","n5hk5lctbdssf1t",804,"137.csv","","null","resources/maskTrios/BBA3.jpg","null","",NA,NA,NA,NA,""
"image-keyboard-response",277,275867,"0.0-3.88-2.88","n5hk5lctbdssf1t",804,"137.csv","","null","resources/images/fishbone.png","null","",NA,NA,NA,NA,""
"image-keyboard-response",278,278450,"0.0-3.89-0.89","n5hk5lctbdssf1t",804,"137.csv","","2580.7999999523163","resources/trios/L2T2A2.jpg","38","restless",0.7,0.6,0.4,0.407445030864909,"true"
"image-keyboard-response",279,278857,"0.0-3.89-1.89","n5hk5lctbdssf1t",804,"137.csv","","null","resources/maskTrios/BT2B.jpg","null","",NA,NA,NA,NA,""
"image-keyboard-response",280,280058,"0.0-3.89-2.89","n5hk5lctbdssf1t",804,"137.csv","","null","resources/images/coin2.png","null","",NA,NA,NA,NA,""
"image-keyboard-response",281,284962,"0.0-3.90-0.90","n5hk5lctbdssf1t",804,"137.csv","","4902.200000047684","resources/trios/L2T2A2.jpg","38","restless",0.7,0.6,0.4,0.182853811905635,"true"
"image-keyboard-response",282,285363,"0.0-3.90-1.90","n5hk5lctbdssf1t",804,"137.csv","","null","resources/maskTrios/BT2B.jpg","null","",NA,NA,NA,NA,""
"image-keyboard-response",283,286569,"0.0-3.90-2.90","n5hk5lctbdssf1t",804,"137.csv","","null","resources/images/coin2.png","null","",NA,NA,NA,NA,""
"image-keyboard-response",284,287162,"0.0-3.91-0.91","n5hk5lctbdssf1t",804,"137.csv","","591.4000000953674","resources/trios/L1T2A3.jpg","38","restless",0.7,0.6,0.4,0.0560562907895297,"true"
"image-keyboard-response",285,287566,"0.0-3.91-1.91","n5hk5lctbdssf1t",804,"137.csv","","null","resources/maskTrios/BT2B.jpg","null","",NA,NA,NA,NA,""
"image-keyboard-response",286,288772,"0.0-3.91-2.91","n5hk5lctbdssf1t",804,"137.csv","","null","resources/images/coin2.png","null","",NA,NA,NA,NA,""
"image-keyboard-response",287,289509,"0.0-3.92-0.92","n5hk5lctbdssf1t",804,"137.csv","","735.1999998092651","resources/trios/L1T1A3.jpg","38","restless",0.7,0.6,0.4,0.456464546969937,"true"
"image-keyboard-response",288,289915,"0.0-3.92-1.92","n5hk5lctbdssf1t",804,"137.csv","","null","resources/maskTrios/BT1B.jpg","null","",NA,NA,NA,NA,""
"image-keyboard-response",289,291122,"0.0-3.92-2.92","n5hk5lctbdssf1t",804,"137.csv","","null","resources/images/coin2.png","null","",NA,NA,NA,NA,""
"image-keyboard-response",290,291384,"0.0-3.93-0.93","n5hk5lctbdssf1t",804,"137.csv","","260.89999985694885","resources/trios/L1T2A2.jpg","37","restless",0.7,0.6,0.4,0.356589328289503,"true"
"image-keyboard-response",291,291791,"0.0-3.93-1.93","n5hk5lctbdssf1t",804,"137.csv","","null","resources/maskTrios/L1BB.jpg","null","",NA,NA,NA,NA,""
"image-keyboard-response",292,292998,"0.0-3.93-2.93","n5hk5lctbdssf1t",804,"137.csv","","null","resources/images/coin2.png","null","",NA,NA,NA,NA,""
"image-keyboard-response",293,293904,"0.0-3.94-0.94","n5hk5lctbdssf1t",804,"137.csv","","904.9000000953674","resources/trios/L2T2A3.jpg","38","restless",0.8,0.6,0.4,0.527174627836974,"true"
"image-keyboard-response",294,294312,"0.0-3.94-1.94","n5hk5lctbdssf1t",804,"137.csv","","null","resources/maskTrios/BT2B.jpg","null","",NA,NA,NA,NA,""
"image-keyboard-response",295,295516,"0.0-3.94-2.94","n5hk5lctbdssf1t",804,"137.csv","","null","resources/images/coin2.png","null","",NA,NA,NA,NA,""
"image-keyboard-response",296,296090,"0.0-3.95-0.95","n5hk5lctbdssf1t",804,"137.csv","","572.2999999523163","resources/trios/L1T1A3.jpg","37","restless",0.8,0.6,0.4,0.720126802286691,"true"
"image-keyboard-response",297,296492,"0.0-3.95-1.95","n5hk5lctbdssf1t",804,"137.csv","","null","resources/maskTrios/L1BB.jpg","null","",NA,NA,NA,NA,""
"image-keyboard-response",298,297693,"0.0-3.95-2.95","n5hk5lctbdssf1t",804,"137.csv","","null","resources/images/coin2.png","null","",NA,NA,NA,NA,""
"image-keyboard-response",299,300340,"0.0-3.96-0.96","n5hk5lctbdssf1t",804,"137.csv","","2645.4000000953674","resources/trios/L1T2A2.jpg","38","restless",0.8,0.6,0.4,0.418608543446181,"true"
"image-keyboard-response",300,300749,"0.0-3.96-1.96","n5hk5lctbdssf1t",804,"137.csv","","null","resources/maskTrios/BT2B.jpg","null","",NA,NA,NA,NA,""
"image-keyboard-response",301,301950,"0.0-3.96-2.96","n5hk5lctbdssf1t",804,"137.csv","","null","resources/images/coin2.png","null","",NA,NA,NA,NA,""
"image-keyboard-response",302,302478,"0.0-3.97-0.97","n5hk5lctbdssf1t",804,"137.csv","","526.2000000476837","resources/trios/L2T2A3.jpg","37","restless",0.8,0.6,0.4,0.618790316624958,"true"
"image-keyboard-response",303,302883,"0.0-3.97-1.97","n5hk5lctbdssf1t",804,"137.csv","","null","resources/maskTrios/L2BB.jpg","null","",NA,NA,NA,NA,""
"image-keyboard-response",304,304085,"0.0-3.97-2.97","n5hk5lctbdssf1t",804,"137.csv","","null","resources/images/coin2.png","null","",NA,NA,NA,NA,""
"image-keyboard-response",305,306365,"0.0-3.98-0.98","n5hk5lctbdssf1t",804,"137.csv","","2279","resources/trios/L1T2A2.jpg","38","restless",0.8,0.6,0.5,0.878418126054873,"false"
"image-keyboard-response",306,306770,"0.0-3.98-1.98","n5hk5lctbdssf1t",804,"137.csv","","null","resources/maskTrios/BT2B.jpg","null","",NA,NA,NA,NA,""
"image-keyboard-response",307,307976,"0.0-3.98-2.98","n5hk5lctbdssf1t",804,"137.csv","","null","resources/images/fishbone.png","null","",NA,NA,NA,NA,""
"image-keyboard-response",308,308277,"0.0-3.99-0.99","n5hk5lctbdssf1t",804,"137.csv","","299.90000009536743","resources/trios/L1T1A2.jpg","37","restless",0.9,0.5,0.5,0.485002862242197,"true"
"image-keyboard-response",309,308684,"0.0-3.99-1.99","n5hk5lctbdssf1t",804,"137.csv","","null","resources/maskTrios/L1BB.jpg","null","",NA,NA,NA,NA,""
"image-keyboard-response",310,309890,"0.0-3.99-2.99","n5hk5lctbdssf1t",804,"137.csv","","null","resources/images/coin2.png","null","",NA,NA,NA,NA,""
"image-keyboard-response",311,312200,"0.0-3.100-0.100","n5hk5lctbdssf1t",804,"137.csv","","2308.5","resources/trios/L1T1A2.jpg","39","restless",0.9,0.5,0.5,0.672600356575798,"false"
"image-keyboard-response",312,312605,"0.0-3.100-1.100","n5hk5lctbdssf1t",804,"137.csv","","null","resources/maskTrios/BBA2.jpg","null","",NA,NA,NA,NA,""
"image-keyboard-response",313,313809,"0.0-3.100-2.100","n5hk5lctbdssf1t",804,"137.csv","","null","resources/images/fishbone.png","null","",NA,NA,NA,NA,""
"image-keyboard-response",314,372828,"0.0-3.101-0.101","n5hk5lctbdssf1t",804,"137.csv","","59016.40000009537","resources/trios/L1T1A3.jpg","38","restless",0.9,0.5,0.5,0.393667284424929,"true"
"image-keyboard-response",315,373236,"0.0-3.101-1.101","n5hk5lctbdssf1t",804,"137.csv","","null","resources/maskTrios/BT1B.jpg","null","",NA,NA,NA,NA,""
"image-keyboard-response",316,374439,"0.0-3.101-2.101","n5hk5lctbdssf1t",804,"137.csv","","null","resources/images/coin2.png","null","",NA,NA,NA,NA,""
"image-keyboard-response",317,374811,"0.0-3.102-0.102","n5hk5lctbdssf1t",804,"137.csv","","369.80000019073486","resources/trios/L2T1A2.jpg","37","restless",0.8,0.5,0.5,0.359589909426832,"true"
"image-keyboard-response",318,375218,"0.0-3.102-1.102","n5hk5lctbdssf1t",804,"137.csv","","null","resources/maskTrios/L2BB.jpg","null","",NA,NA,NA,NA,""
"image-keyboard-response",319,376421,"0.0-3.102-2.102","n5hk5lctbdssf1t",804,"137.csv","","null","resources/images/coin2.png","null","",NA,NA,NA,NA,""
"image-keyboard-response",320,376725,"0.0-3.103-0.103","n5hk5lctbdssf1t",804,"137.csv","","302.09999990463257","resources/trios/L2T2A3.jpg","38","restless",0.8,0.5,0.5,0.222249374309476,"true"
"image-keyboard-response",321,377128,"0.0-3.103-1.103","n5hk5lctbdssf1t",804,"137.csv","","null","resources/maskTrios/BT2B.jpg","null","",NA,NA,NA,NA,""
"image-keyboard-response",322,378333,"0.0-3.103-2.103","n5hk5lctbdssf1t",804,"137.csv","","null","resources/images/coin2.png","null","",NA,NA,NA,NA,""
"image-keyboard-response",323,378788,"0.0-3.104-0.104","n5hk5lctbdssf1t",804,"137.csv","","453.2000000476837","resources/trios/L2T2A3.jpg","38","restless",0.8,0.5,0.5,0.715313086223175,"false"
"image-keyboard-response",324,379191,"0.0-3.104-1.104","n5hk5lctbdssf1t",804,"137.csv","","null","resources/maskTrios/BT2B.jpg","null","",NA,NA,NA,NA,""
"image-keyboard-response",325,380394,"0.0-3.104-2.104","n5hk5lctbdssf1t",804,"137.csv","","null","resources/images/fishbone.png","null","",NA,NA,NA,NA,""
"image-keyboard-response",326,380543,"0.0-3.105-0.105","n5hk5lctbdssf1t",804,"137.csv","","147.20000004768372","resources/trios/L1T2A2.jpg","38","restless",0.8,0.5,0.5,0.23465498822863,"true"
"image-keyboard-response",327,380949,"0.0-3.105-1.105","n5hk5lctbdssf1t",804,"137.csv","","null","resources/maskTrios/BT2B.jpg","null","",NA,NA,NA,NA,""
"image-keyboard-response",328,382152,"0.0-3.105-2.105","n5hk5lctbdssf1t",804,"137.csv","","null","resources/images/coin2.png","null","",NA,NA,NA,NA,""
"image-keyboard-response",329,382180,"0.0-3.106-0.106","n5hk5lctbdssf1t",804,"137.csv","","25.90000009536743","resources/trios/L2T1A2.jpg","38","restless",0.8,0.5,0.5,0.330304219522083,"true"
"image-keyboard-response",330,382586,"0.0-3.106-1.106","n5hk5lctbdssf1t",804,"137.csv","","null","resources/maskTrios/BT1B.jpg","null","",NA,NA,NA,NA,""
"image-keyboard-response",331,383790,"0.0-3.106-2.106","n5hk5lctbdssf1t",804,"137.csv","","null","resources/images/coin2.png","null","",NA,NA,NA,NA,""
"image-keyboard-response",332,383837,"0.0-3.107-0.107","n5hk5lctbdssf1t",804,"137.csv","","45.69999980926514","resources/trios/L1T1A2.jpg","38","restless",0.8,0.5,0.5,0.218255997769222,"true"
"image-keyboard-response",333,384239,"0.0-3.107-1.107","n5hk5lctbdssf1t",804,"137.csv","","null","resources/maskTrios/BT1B.jpg","null","",NA,NA,NA,NA,""
"image-keyboard-response",334,385442,"0.0-3.107-2.107","n5hk5lctbdssf1t",804,"137.csv","","null","resources/images/coin2.png","null","",NA,NA,NA,NA,""
"image-keyboard-response",335,385530,"0.0-3.108-0.108","n5hk5lctbdssf1t",804,"137.csv","","86.5","resources/trios/L2T2A2.jpg","38","restless",0.8,0.5,0.5,0.932568246063993,"false"
"image-keyboard-response",336,385933,"0.0-3.108-1.108","n5hk5lctbdssf1t",804,"137.csv","","null","resources/maskTrios/BT2B.jpg","null","",NA,NA,NA,NA,""
"image-keyboard-response",337,387135,"0.0-3.108-2.108","n5hk5lctbdssf1t",804,"137.csv","","null","resources/images/fishbone.png","null","",NA,NA,NA,NA,""
"image-keyboard-response",338,387234,"0.0-3.109-0.109","n5hk5lctbdssf1t",804,"137.csv","","98.20000004768372","resources/trios/L1T1A3.jpg","38","restless",0.8,0.5,0.5,0.85091047979964,"false"
"image-keyboard-response",339,387639,"0.0-3.109-1.109","n5hk5lctbdssf1t",804,"137.csv","","null","resources/maskTrios/BT1B.jpg","null","",NA,NA,NA,NA,""
"image-keyboard-response",340,388845,"0.0-3.109-2.109","n5hk5lctbdssf1t",804,"137.csv","","null","resources/images/fishbone.png","null","",NA,NA,NA,NA,""
"image-keyboard-response",341,388864,"0.0-3.110-0.110","n5hk5lctbdssf1t",804,"137.csv","","17.299999952316284","resources/trios/L2T2A2.jpg","38","restless",0.8,0.4,0.5,0.400184167960914,"false"
"image-keyboard-response",342,389271,"0.0-3.110-1.110","n5hk5lctbdssf1t",804,"137.csv","","null","resources/maskTrios/BT2B.jpg","null","",NA,NA,NA,NA,""
"image-keyboard-response",343,390474,"0.0-3.110-2.110","n5hk5lctbdssf1t",804,"137.csv","","null","resources/images/fishbone.png","null","",NA,NA,NA,NA,""
"image-keyboard-response",344,390536,"0.0-3.111-0.111","n5hk5lctbdssf1t",804,"137.csv","","60.700000047683716","resources/trios/L1T2A2.jpg","38","restless",0.8,0.4,0.5,0.154548346843947,"true"
"image-keyboard-response",345,390942,"0.0-3.111-1.111","n5hk5lctbdssf1t",804,"137.csv","","null","resources/maskTrios/BT2B.jpg","null","",NA,NA,NA,NA,""
"image-keyboard-response",346,392145,"0.0-3.111-2.111","n5hk5lctbdssf1t",804,"137.csv","","null","resources/images/coin2.png","null","",NA,NA,NA,NA,""
"image-keyboard-response",347,392185,"0.0-3.112-0.112","n5hk5lctbdssf1t",804,"137.csv","","38.200000047683716","resources/trios/L2T2A2.jpg","38","restless",0.8,0.4,0.4,0.158236585489457,"true"
"image-keyboard-response",348,392591,"0.0-3.112-1.112","n5hk5lctbdssf1t",804,"137.csv","","null","resources/maskTrios/BT2B.jpg","null","",NA,NA,NA,NA,""
"image-keyboard-response",349,393795,"0.0-3.112-2.112","n5hk5lctbdssf1t",804,"137.csv","","null","resources/images/coin2.png","null","",NA,NA,NA,NA,""
"image-keyboard-response",350,393812,"0.0-3.113-0.113","n5hk5lctbdssf1t",804,"137.csv","","15.900000095367432","resources/trios/L1T2A2.jpg","38","restless",0.8,0.4,0.4,0.0238554546314893,"true"
"image-keyboard-response",351,394218,"0.0-3.113-1.113","n5hk5lctbdssf1t",804,"137.csv","","null","resources/maskTrios/BT2B.jpg","null","",NA,NA,NA,NA,""
"image-keyboard-response",352,395424,"0.0-3.113-2.113","n5hk5lctbdssf1t",804,"137.csv","","null","resources/images/coin2.png","null","",NA,NA,NA,NA,""
"image-keyboard-response",353,395437,"0.0-3.114-0.114","n5hk5lctbdssf1t",804,"137.csv","","11.5","resources/trios/L2T2A2.jpg","38","restless",0.8,0.4,0.4,0.25623141781925,"true"
"image-keyboard-response",354,395840,"0.0-3.114-1.114","n5hk5lctbdssf1t",804,"137.csv","","null","resources/maskTrios/BT2B.jpg","null","",NA,NA,NA,NA,""
"image-keyboard-response",355,397045,"0.0-3.114-2.114","n5hk5lctbdssf1t",804,"137.csv","","null","resources/images/coin2.png","null","",NA,NA,NA,NA,""
"image-keyboard-response",356,397166,"0.0-3.115-0.115","n5hk5lctbdssf1t",804,"137.csv","","120.20000004768372","resources/trios/L2T2A3.jpg","38","restless",0.8,0.4,0.4,0.829129701912928,"false"
"image-keyboard-response",357,397572,"0.0-3.115-1.115","n5hk5lctbdssf1t",804,"137.csv","","null","resources/maskTrios/BT2B.jpg","null","",NA,NA,NA,NA,""
"image-keyboard-response",358,398773,"0.0-3.115-2.115","n5hk5lctbdssf1t",804,"137.csv","","null","resources/images/fishbone.png","null","",NA,NA,NA,NA,""
"image-keyboard-response",359,398958,"0.0-3.116-0.116","n5hk5lctbdssf1t",804,"137.csv","","183","resources/trios/L2T1A3.jpg","38","restless",0.8,0.4,0.4,0.053463374753832,"true"
"image-keyboard-response",360,399365,"0.0-3.116-1.116","n5hk5lctbdssf1t",804,"137.csv","","null","resources/maskTrios/BT1B.jpg","null","",NA,NA,NA,NA,""
"image-keyboard-response",361,400566,"0.0-3.116-2.116","n5hk5lctbdssf1t",804,"137.csv","","null","resources/images/coin2.png","null","",NA,NA,NA,NA,""
"image-keyboard-response",362,400569,"0.0-3.117-0.117","n5hk5lctbdssf1t",804,"137.csv","","0.5","resources/trios/L1T2A2.jpg","38","restless",0.8,0.4,0.4,0.81709002866253,"false"
"image-keyboard-response",363,400972,"0.0-3.117-1.117","n5hk5lctbdssf1t",804,"137.csv","","null","resources/maskTrios/BT2B.jpg","null","",NA,NA,NA,NA,""
"image-keyboard-response",364,402175,"0.0-3.117-2.117","n5hk5lctbdssf1t",804,"137.csv","","null","resources/images/fishbone.png","null","",NA,NA,NA,NA,""
"image-keyboard-response",365,402371,"0.0-3.118-0.118","n5hk5lctbdssf1t",804,"137.csv","","194.70000004768372","resources/trios/L1T2A2.jpg","38","restless",0.8,0.4,0.4,0.275579541664184,"true"
"image-keyboard-response",366,402775,"0.0-3.118-1.118","n5hk5lctbdssf1t",804,"137.csv","","null","resources/maskTrios/BT2B.jpg","null","",NA,NA,NA,NA,""
"image-keyboard-response",367,403979,"0.0-3.118-2.118","n5hk5lctbdssf1t",804,"137.csv","","null","resources/images/coin2.png","null","",NA,NA,NA,NA,""
"image-keyboard-response",368,404030,"0.0-3.119-0.119","n5hk5lctbdssf1t",804,"137.csv","","49","resources/trios/L2T2A3.jpg","38","restless",0.8,0.3,0.4,0.619736828172841,"false"
"image-keyboard-response",369,404437,"0.0-3.119-1.119","n5hk5lctbdssf1t",804,"137.csv","","null","resources/maskTrios/BT2B.jpg","null","",NA,NA,NA,NA,""
"image-keyboard-response",370,405640,"0.0-3.119-2.119","n5hk5lctbdssf1t",804,"137.csv","","null","resources/images/fishbone.png","null","",NA,NA,NA,NA,""
"image-keyboard-response",371,407683,"0.0-3.120-0.120","n5hk5lctbdssf1t",804,"137.csv","","2041.2000000476837","resources/trios/L1T2A2.jpg","38","restless",0.8,0.3,0.4,0.719164981436976,"false"
"image-keyboard-response",372,408086,"0.0-3.120-1.120","n5hk5lctbdssf1t",804,"137.csv","","null","resources/maskTrios/BT2B.jpg","null","",NA,NA,NA,NA,""
"image-keyboard-response",373,409292,"0.0-3.120-2.120","n5hk5lctbdssf1t",804,"137.csv","","null","resources/images/fishbone.png","null","",NA,NA,NA,NA,""
"image-keyboard-response",374,409314,"0.0-3.121-0.121","n5hk5lctbdssf1t",804,"137.csv","","20.299999952316284","resources/trios/L1T1A3.jpg","38","restless",0.8,0.3,0.4,0.340113482028101,"false"
"image-keyboard-response",375,409716,"0.0-3.121-1.121","n5hk5lctbdssf1t",804,"137.csv","","null","resources/maskTrios/BT1B.jpg","null","",NA,NA,NA,NA,""
"image-keyboard-response",376,410923,"0.0-3.121-2.121","n5hk5lctbdssf1t",804,"137.csv","","null","resources/images/fishbone.png","null","",NA,NA,NA,NA,""
"image-keyboard-response",377,410958,"0.0-3.122-0.122","n5hk5lctbdssf1t",804,"137.csv","","33.5","resources/trios/L2T1A3.jpg","38","restless",0.9,0.3,0.4,0.0521301653731108,"true"
"image-keyboard-response",378,411364,"0.0-3.122-1.122","n5hk5lctbdssf1t",804,"137.csv","","null","resources/maskTrios/BT1B.jpg","null","",NA,NA,NA,NA,""
"image-keyboard-response",379,412571,"0.0-3.122-2.122","n5hk5lctbdssf1t",804,"137.csv","","null","resources/images/coin2.png","null","",NA,NA,NA,NA,""
"image-keyboard-response",380,412642,"0.0-3.123-0.123","n5hk5lctbdssf1t",804,"137.csv","","69.60000014305115","resources/trios/L2T2A3.jpg","38","restless",0.9,0.3,0.4,0.694566277564511,"false"
"image-keyboard-response",381,413048,"0.0-3.123-1.123","n5hk5lctbdssf1t",804,"137.csv","","null","resources/maskTrios/BT2B.jpg","null","",NA,NA,NA,NA,""
"image-keyboard-response",382,414254,"0.0-3.123-2.123","n5hk5lctbdssf1t",804,"137.csv","","null","resources/images/fishbone.png","null","",NA,NA,NA,NA,""
"image-keyboard-response",383,414395,"0.0-3.124-0.124","n5hk5lctbdssf1t",804,"137.csv","","140.20000004768372","resources/trios/L1T1A2.jpg","38","restless",0.8,0.3,0.4,0.524550353094551,"false"
"image-keyboard-response",384,414798,"0.0-3.124-1.124","n5hk5lctbdssf1t",804,"137.csv","","null","resources/maskTrios/BT1B.jpg","null","",NA,NA,NA,NA,""
"image-keyboard-response",385,416000,"0.0-3.124-2.124","n5hk5lctbdssf1t",804,"137.csv","","null","resources/images/fishbone.png","null","",NA,NA,NA,NA,""
"image-keyboard-response",386,416045,"0.0-3.125-0.125","n5hk5lctbdssf1t",804,"137.csv","","44.09999990463257","resources/trios/L2T1A2.jpg","38","restless",0.8,0.3,0.4,0.206365748492071,"true"
"image-keyboard-response",387,416446,"0.0-3.125-1.125","n5hk5lctbdssf1t",804,"137.csv","","null","resources/maskTrios/BT1B.jpg","null","",NA,NA,NA,NA,""
"image-keyboard-response",388,417651,"0.0-3.125-2.125","n5hk5lctbdssf1t",804,"137.csv","","null","resources/images/coin2.png","null","",NA,NA,NA,NA,""
"image-keyboard-response",389,417709,"0.0-3.126-0.126","n5hk5lctbdssf1t",804,"137.csv","","56.10000014305115","resources/trios/L2T1A3.jpg","38","restless",0.8,0.3,0.4,0.844923515238794,"false"
"image-keyboard-response",390,418113,"0.0-3.126-1.126","n5hk5lctbdssf1t",804,"137.csv","","null","resources/maskTrios/BT1B.jpg","null","",NA,NA,NA,NA,""
"image-keyboard-response",391,419319,"0.0-3.126-2.126","n5hk5lctbdssf1t",804,"137.csv","","null","resources/images/fishbone.png","null","",NA,NA,NA,NA,""
"image-keyboard-response",392,419414,"0.0-3.127-0.127","n5hk5lctbdssf1t",804,"137.csv","","93.70000004768372","resources/trios/L2T2A3.jpg","38","restless",0.8,0.3,0.4,0.669369097718465,"false"
"image-keyboard-response",393,419816,"0.0-3.127-1.127","n5hk5lctbdssf1t",804,"137.csv","","null","resources/maskTrios/BT2B.jpg","null","",NA,NA,NA,NA,""
"image-keyboard-response",394,421018,"0.0-3.127-2.127","n5hk5lctbdssf1t",804,"137.csv","","null","resources/images/fishbone.png","null","",NA,NA,NA,NA,""
"image-keyboard-response",395,422410,"0.0-3.128-0.128","n5hk5lctbdssf1t",804,"137.csv","","1390.2000000476837","resources/trios/L1T1A3.jpg","38","restless",0.8,0.3,0.4,0.892114285745488,"false"
"image-keyboard-response",396,422812,"0.0-3.128-1.128","n5hk5lctbdssf1t",804,"137.csv","","null","resources/maskTrios/BT1B.jpg","null","",NA,NA,NA,NA,""
"image-keyboard-response",397,424018,"0.0-3.128-2.128","n5hk5lctbdssf1t",804,"137.csv","","null","resources/images/fishbone.png","null","",NA,NA,NA,NA,""
"image-keyboard-response",398,425716,"0.0-3.129-0.129","n5hk5lctbdssf1t",804,"137.csv","","1696.2000000476837","resources/trios/L2T1A2.jpg","38","restless",0.8,0.3,0.3,0.414637618539343,"false"
"image-keyboard-response",399,426123,"0.0-3.129-1.129","n5hk5lctbdssf1t",804,"137.csv","","null","resources/maskTrios/BT1B.jpg","null","",NA,NA,NA,NA,""
"image-keyboard-response",400,427327,"0.0-3.129-2.129","n5hk5lctbdssf1t",804,"137.csv","","null","resources/images/fishbone.png","null","",NA,NA,NA,NA,""
"image-keyboard-response",401,427485,"0.0-3.130-0.130","n5hk5lctbdssf1t",804,"137.csv","","156.19999980926514","resources/trios/L1T1A2.jpg","37","restless",0.8,0.3,0.3,0.702721803532885,"true"
"image-keyboard-response",402,427890,"0.0-3.130-1.130","n5hk5lctbdssf1t",804,"137.csv","","null","resources/maskTrios/L1BB.jpg","null","",NA,NA,NA,NA,""
"image-keyboard-response",403,429091,"0.0-3.130-2.130","n5hk5lctbdssf1t",804,"137.csv","","null","resources/images/coin2.png","null","",NA,NA,NA,NA,""
"image-keyboard-response",404,429178,"0.0-3.131-0.131","n5hk5lctbdssf1t",804,"137.csv","","86.20000004768372","resources/trios/L1T1A2.jpg","37","restless",0.8,0.3,0.3,0.0458081671679664,"true"
"image-keyboard-response",405,429580,"0.0-3.131-1.131","n5hk5lctbdssf1t",804,"137.csv","","null","resources/maskTrios/L1BB.jpg","null","",NA,NA,NA,NA,""
"image-keyboard-response",406,430782,"0.0-3.131-2.131","n5hk5lctbdssf1t",804,"137.csv","","null","resources/images/coin2.png","null","",NA,NA,NA,NA,""
"image-keyboard-response",407,430929,"0.0-3.132-0.132","n5hk5lctbdssf1t",804,"137.csv","","145.5","resources/trios/L1T1A2.jpg","37","restless",0.8,0.4,0.3,0.720306857098554,"true"
"image-keyboard-response",408,431335,"0.0-3.132-1.132","n5hk5lctbdssf1t",804,"137.csv","","null","resources/maskTrios/L1BB.jpg","null","",NA,NA,NA,NA,""
"image-keyboard-response",409,432541,"0.0-3.132-2.132","n5hk5lctbdssf1t",804,"137.csv","","null","resources/images/coin2.png","null","",NA,NA,NA,NA,""
"image-keyboard-response",410,432634,"0.0-3.133-0.133","n5hk5lctbdssf1t",804,"137.csv","","91.40000009536743","resources/trios/L2T1A2.jpg","37","restless",0.8,0.4,0.3,0.413743393783272,"true"
"image-keyboard-response",411,433037,"0.0-3.133-1.133","n5hk5lctbdssf1t",804,"137.csv","","null","resources/maskTrios/L2BB.jpg","null","",NA,NA,NA,NA,""
"image-keyboard-response",412,434241,"0.0-3.133-2.133","n5hk5lctbdssf1t",804,"137.csv","","null","resources/images/coin2.png","null","",NA,NA,NA,NA,""
"image-keyboard-response",413,434321,"0.0-3.134-0.134","n5hk5lctbdssf1t",804,"137.csv","","78","resources/trios/L1T2A3.jpg","37","restless",0.8,0.4,0.3,0.387877584067044,"true"
"image-keyboard-response",414,434727,"0.0-3.134-1.134","n5hk5lctbdssf1t",804,"137.csv","","null","resources/maskTrios/L1BB.jpg","null","",NA,NA,NA,NA,""
"image-keyboard-response",415,435929,"0.0-3.134-2.134","n5hk5lctbdssf1t",804,"137.csv","","null","resources/images/coin2.png","null","",NA,NA,NA,NA,""
"image-keyboard-response",416,436058,"0.0-3.135-0.135","n5hk5lctbdssf1t",804,"137.csv","","127.39999985694885","resources/trios/L1T2A3.jpg","38","restless",0.8,0.4,0.3,0.495728620312529,"false"
"image-keyboard-response",417,436460,"0.0-3.135-1.135","n5hk5lctbdssf1t",804,"137.csv","","null","resources/maskTrios/BT2B.jpg","null","",NA,NA,NA,NA,""
"image-keyboard-response",418,437664,"0.0-3.135-2.135","n5hk5lctbdssf1t",804,"137.csv","","null","resources/images/fishbone.png","null","",NA,NA,NA,NA,""
"image-keyboard-response",419,437680,"0.0-3.136-0.136","n5hk5lctbdssf1t",804,"137.csv","","14.5","resources/trios/L2T2A3.jpg","37","restless",0.8,0.4,0.3,0.733357352835704,"true"
"image-keyboard-response",420,438081,"0.0-3.136-1.136","n5hk5lctbdssf1t",804,"137.csv","","null","resources/maskTrios/L2BB.jpg","null","",NA,NA,NA,NA,""
"image-keyboard-response",421,439283,"0.0-3.136-2.136","n5hk5lctbdssf1t",804,"137.csv","","null","resources/images/coin2.png","null","",NA,NA,NA,NA,""
"image-keyboard-response",422,439491,"0.0-3.137-0.137","n5hk5lctbdssf1t",804,"137.csv","","206.09999990463257","resources/trios/L2T2A2.jpg","37","restless",0.8,0.4,0.3,0.704303469299412,"true"
"image-keyboard-response",423,439896,"0.0-3.137-1.137","n5hk5lctbdssf1t",804,"137.csv","","null","resources/maskTrios/L2BB.jpg","null","",NA,NA,NA,NA,""
"image-keyboard-response",424,441101,"0.0-3.137-2.137","n5hk5lctbdssf1t",804,"137.csv","","null","resources/images/coin2.png","null","",NA,NA,NA,NA,""
"image-keyboard-response",425,441110,"0.0-3.138-0.138","n5hk5lctbdssf1t",804,"137.csv","","8.299999952316284","resources/trios/L1T1A2.jpg","37","restless",0.8,0.4,0.3,0.704001474526579,"true"
"image-keyboard-response",426,441514,"0.0-3.138-1.138","n5hk5lctbdssf1t",804,"137.csv","","null","resources/maskTrios/L1BB.jpg","null","",NA,NA,NA,NA,""
"image-keyboard-response",427,442720,"0.0-3.138-2.138","n5hk5lctbdssf1t",804,"137.csv","","null","resources/images/coin2.png","null","",NA,NA,NA,NA,""
"image-keyboard-response",428,442758,"0.0-3.139-0.139","n5hk5lctbdssf1t",804,"137.csv","","36","resources/trios/L1T2A2.jpg","37","restless",0.8,0.3,0.3,0.813872259406877,"false"
"image-keyboard-response",429,443163,"0.0-3.139-1.139","n5hk5lctbdssf1t",804,"137.csv","","null","resources/maskTrios/L1BB.jpg","null","",NA,NA,NA,NA,""
"image-keyboard-response",430,444367,"0.0-3.139-2.139","n5hk5lctbdssf1t",804,"137.csv","","null","resources/images/fishbone.png","null","",NA,NA,NA,NA,""
"image-keyboard-response",431,444416,"0.0-3.140-0.140","n5hk5lctbdssf1t",804,"137.csv","","47.39999985694885","resources/trios/L2T2A2.jpg","37","restless",0.7,0.3,0.3,0.162985961044068,"true"
"image-keyboard-response",432,444819,"0.0-3.140-1.140","n5hk5lctbdssf1t",804,"137.csv","","null","resources/maskTrios/L2BB.jpg","null","",NA,NA,NA,NA,""
"image-keyboard-response",433,446023,"0.0-3.140-2.140","n5hk5lctbdssf1t",804,"137.csv","","null","resources/images/coin2.png","null","",NA,NA,NA,NA,""
"image-keyboard-response",434,446140,"0.0-3.141-0.141","n5hk5lctbdssf1t",804,"137.csv","","115.19999980926514","resources/trios/L2T1A2.jpg","37","restless",0.7,0.3,0.3,0.789841189040144,"false"
"image-keyboard-response",435,446545,"0.0-3.141-1.141","n5hk5lctbdssf1t",804,"137.csv","","null","resources/maskTrios/L2BB.jpg","null","",NA,NA,NA,NA,""
"image-keyboard-response",436,447747,"0.0-3.141-2.141","n5hk5lctbdssf1t",804,"137.csv","","null","resources/images/fishbone.png","null","",NA,NA,NA,NA,""
"image-keyboard-response",437,447808,"0.0-3.142-0.142","n5hk5lctbdssf1t",804,"137.csv","","59.200000047683716","resources/trios/L2T1A2.jpg","39","restless",0.7,0.3,0.3,0.0335890336015265,"true"
"image-keyboard-response",438,448210,"0.0-3.142-1.142","n5hk5lctbdssf1t",804,"137.csv","","null","resources/maskTrios/BBA2.jpg","null","",NA,NA,NA,NA,""
"image-keyboard-response",439,449414,"0.0-3.142-2.142","n5hk5lctbdssf1t",804,"137.csv","","null","resources/images/coin2.png","null","",NA,NA,NA,NA,""
"image-keyboard-response",440,449779,"0.0-3.143-0.143","n5hk5lctbdssf1t",804,"137.csv","","363.7000000476837","resources/trios/L1T2A3.jpg","39","restless",0.7,0.3,0.3,0.943291065508617,"false"
"image-keyboard-response",441,450181,"0.0-3.143-1.143","n5hk5lctbdssf1t",804,"137.csv","","null","resources/maskTrios/BBA3.jpg","null","",NA,NA,NA,NA,""
"image-keyboard-response",442,451384,"0.0-3.143-2.143","n5hk5lctbdssf1t",804,"137.csv","","null","resources/images/fishbone.png","null","",NA,NA,NA,NA,""
"image-keyboard-response",443,451479,"0.0-3.144-0.144","n5hk5lctbdssf1t",804,"137.csv","","93.09999990463257","resources/trios/L1T2A2.jpg","39","restless",0.7,0.4,0.3,0.911218547396641,"false"
"image-keyboard-response",444,451881,"0.0-3.144-1.144","n5hk5lctbdssf1t",804,"137.csv","","null","resources/maskTrios/BBA2.jpg","null","",NA,NA,NA,NA,""
"image-keyboard-response",445,453087,"0.0-3.144-2.144","n5hk5lctbdssf1t",804,"137.csv","","null","resources/images/fishbone.png","null","",NA,NA,NA,NA,""
"image-keyboard-response",446,455032,"0.0-3.145-0.145","n5hk5lctbdssf1t",804,"137.csv","","1943.6000001430511","resources/trios/L1T1A2.jpg","39","restless",0.7,0.4,0.3,0.467309115548652,"false"
"image-keyboard-response",447,455439,"0.0-3.145-1.145","n5hk5lctbdssf1t",804,"137.csv","","null","resources/maskTrios/BBA2.jpg","null","",NA,NA,NA,NA,""
"image-keyboard-response",448,456640,"0.0-3.145-2.145","n5hk5lctbdssf1t",804,"137.csv","","null","resources/images/fishbone.png","null","",NA,NA,NA,NA,""
"image-keyboard-response",449,457861,"0.0-3.146-0.146","n5hk5lctbdssf1t",804,"137.csv","","1219.7000000476837","resources/trios/L2T2A2.jpg","38","restless",0.7,0.4,0.3,0.984015135037956,"false"
"image-keyboard-response",450,458264,"0.0-3.146-1.146","n5hk5lctbdssf1t",804,"137.csv","","null","resources/maskTrios/BT2B.jpg","null","",NA,NA,NA,NA,""
"image-keyboard-response",451,459470,"0.0-3.146-2.146","n5hk5lctbdssf1t",804,"137.csv","","null","resources/images/fishbone.png","null","",NA,NA,NA,NA,""
"image-keyboard-response",452,459495,"0.0-3.147-0.147","n5hk5lctbdssf1t",804,"137.csv","","23.699999809265137","resources/trios/L1T2A2.jpg","38","restless",0.7,0.4,0.3,0.867486003248024,"false"
"image-keyboard-response",453,459898,"0.0-3.147-1.147","n5hk5lctbdssf1t",804,"137.csv","","null","resources/maskTrios/BT2B.jpg","null","",NA,NA,NA,NA,""
"image-keyboard-response",454,461099,"0.0-3.147-2.147","n5hk5lctbdssf1t",804,"137.csv","","null","resources/images/fishbone.png","null","",NA,NA,NA,NA,""
"image-keyboard-response",455,461104,"0.0-3.148-0.148","n5hk5lctbdssf1t",804,"137.csv","","2.299999952316284","resources/trios/L1T2A2.jpg","38","restless",0.7,0.5,0.3,0.896406024794252,"false"
"image-keyboard-response",456,461507,"0.0-3.148-1.148","n5hk5lctbdssf1t",804,"137.csv","","null","resources/maskTrios/BT2B.jpg","null","",NA,NA,NA,NA,""
"image-keyboard-response",457,462713,"0.0-3.148-2.148","n5hk5lctbdssf1t",804,"137.csv","","null","resources/images/fishbone.png","null","",NA,NA,NA,NA,""
"image-keyboard-response",458,462837,"0.0-3.149-0.149","n5hk5lctbdssf1t",804,"137.csv","","123.09999990463257","resources/trios/L2T1A2.jpg","38","restless",0.7,0.5,0.3,0.0985484145142201,"true"
"image-keyboard-response",459,463244,"0.0-3.149-1.149","n5hk5lctbdssf1t",804,"137.csv","","null","resources/maskTrios/BT1B.jpg","null","",NA,NA,NA,NA,""
"image-keyboard-response",460,464449,"0.0-3.149-2.149","n5hk5lctbdssf1t",804,"137.csv","","null","resources/images/coin2.png","null","",NA,NA,NA,NA,""
"image-keyboard-response",461,464539,"0.0-3.150-0.150","n5hk5lctbdssf1t",804,"137.csv","","89","resources/trios/L2T1A2.jpg","38","restless",0.7,0.5,0.3,0.679391897073605,"false"
"image-keyboard-response",462,464945,"0.0-3.150-1.150","n5hk5lctbdssf1t",804,"137.csv","","null","resources/maskTrios/BT1B.jpg","null","",NA,NA,NA,NA,""
"image-keyboard-response",463,466148,"0.0-3.150-2.150","n5hk5lctbdssf1t",804,"137.csv","","null","resources/images/fishbone.png","null","",NA,NA,NA,NA,""
"image-keyboard-response",464,466287,"0.0-3.151-0.151","n5hk5lctbdssf1t",804,"137.csv","","138.30000019073486","resources/trios/L1T1A2.jpg","38","restless",0.6,0.5,0.3,0.476604420792246,"true"
"image-keyboard-response",465,466693,"0.0-3.151-1.151","n5hk5lctbdssf1t",804,"137.csv","","null","resources/maskTrios/BT1B.jpg","null","",NA,NA,NA,NA,""
"image-keyboard-response",466,467896,"0.0-3.151-2.151","n5hk5lctbdssf1t",804,"137.csv","","null","resources/images/coin2.png","null","",NA,NA,NA,NA,""
"image-keyboard-response",467,467933,"0.0-3.152-0.152","n5hk5lctbdssf1t",804,"137.csv","","35","resources/trios/L2T2A2.jpg","38","restless",0.6,0.5,0.3,0.981430321742566,"false"
"image-keyboard-response",468,468335,"0.0-3.152-1.152","n5hk5lctbdssf1t",804,"137.csv","","null","resources/maskTrios/BT2B.jpg","null","",NA,NA,NA,NA,""
"image-keyboard-response",469,469540,"0.0-3.152-2.152","n5hk5lctbdssf1t",804,"137.csv","","null","resources/images/fishbone.png","null","",NA,NA,NA,NA,""
"image-keyboard-response",470,469618,"0.0-3.153-0.153","n5hk5lctbdssf1t",804,"137.csv","","75.5","resources/trios/L1T2A3.jpg","38","restless",0.5,0.5,0.3,0.0247346022191888,"true"
"image-keyboard-response",471,470023,"0.0-3.153-1.153","n5hk5lctbdssf1t",804,"137.csv","","null","resources/maskTrios/BT2B.jpg","null","",NA,NA,NA,NA,""
"image-keyboard-response",472,471226,"0.0-3.153-2.153","n5hk5lctbdssf1t",804,"137.csv","","null","resources/images/coin2.png","null","",NA,NA,NA,NA,""
"image-keyboard-response",473,471358,"0.0-3.154-0.154","n5hk5lctbdssf1t",804,"137.csv","","130.89999985694885","resources/trios/L2T1A3.jpg","38","restless",0.5,0.6,0.3,0.38522097198243,"true"
"image-keyboard-response",474,471761,"0.0-3.154-1.154","n5hk5lctbdssf1t",804,"137.csv","","null","resources/maskTrios/BT1B.jpg","null","",NA,NA,NA,NA,""
"image-keyboard-response",475,472964,"0.0-3.154-2.154","n5hk5lctbdssf1t",804,"137.csv","","null","resources/images/coin2.png","null","",NA,NA,NA,NA,""
"image-keyboard-response",476,472966,"0.0-3.155-0.155","n5hk5lctbdssf1t",804,"137.csv","","0.2999999523162842","resources/trios/L1T2A2.jpg","38","restless",0.5,0.6,0.3,0.320761811354523,"true"
"image-keyboard-response",477,473368,"0.0-3.155-1.155","n5hk5lctbdssf1t",804,"137.csv","","null","resources/maskTrios/BT2B.jpg","null","",NA,NA,NA,NA,""
"image-keyboard-response",478,474571,"0.0-3.155-2.155","n5hk5lctbdssf1t",804,"137.csv","","null","resources/images/coin2.png","null","",NA,NA,NA,NA,""
"image-keyboard-response",479,474576,"0.0-3.156-0.156","n5hk5lctbdssf1t",804,"137.csv","","2.5","resources/trios/L2T1A3.jpg","38","restless",0.5,0.6,0.2,0.138627008227893,"true"
"image-keyboard-response",480,474978,"0.0-3.156-1.156","n5hk5lctbdssf1t",804,"137.csv","","null","resources/maskTrios/BT1B.jpg","null","",NA,NA,NA,NA,""
"image-keyboard-response",481,476180,"0.0-3.156-2.156","n5hk5lctbdssf1t",804,"137.csv","","null","resources/images/coin2.png","null","",NA,NA,NA,NA,""
"image-keyboard-response",482,476211,"0.0-3.157-0.157","n5hk5lctbdssf1t",804,"137.csv","","30.59999990463257","resources/trios/L2T2A3.jpg","38","restless",0.4,0.6,0.2,0.240848607615443,"true"
"image-keyboard-response",483,476614,"0.0-3.157-1.157","n5hk5lctbdssf1t",804,"137.csv","","null","resources/maskTrios/BT2B.jpg","null","",NA,NA,NA,NA,""
"image-keyboard-response",484,477817,"0.0-3.157-2.157","n5hk5lctbdssf1t",804,"137.csv","","null","resources/images/coin2.png","null","",NA,NA,NA,NA,""
"image-keyboard-response",485,477854,"0.0-3.158-0.158","n5hk5lctbdssf1t",804,"137.csv","","36.09999990463257","resources/trios/L2T2A2.jpg","38","restless",0.4,0.7,0.2,0.211616354484143,"true"
"image-keyboard-response",486,478258,"0.0-3.158-1.158","n5hk5lctbdssf1t",804,"137.csv","","null","resources/maskTrios/BT2B.jpg","null","",NA,NA,NA,NA,""
"image-keyboard-response",487,479464,"0.0-3.158-2.158","n5hk5lctbdssf1t",804,"137.csv","","null","resources/images/coin2.png","null","",NA,NA,NA,NA,""
"image-keyboard-response",488,479611,"0.0-3.159-0.159","n5hk5lctbdssf1t",804,"137.csv","","145.59999990463257","resources/trios/L1T1A2.jpg","38","restless",0.4,0.7,0.1,0.723460788824462,"false"
"image-keyboard-response",489,480013,"0.0-3.159-1.159","n5hk5lctbdssf1t",804,"137.csv","","null","resources/maskTrios/BT1B.jpg","null","",NA,NA,NA,NA,""
"image-keyboard-response",490,481214,"0.0-3.159-2.159","n5hk5lctbdssf1t",804,"137.csv","","null","resources/images/fishbone.png","null","",NA,NA,NA,NA,""
"image-keyboard-response",491,481290,"0.0-3.160-0.160","n5hk5lctbdssf1t",804,"137.csv","","74.70000004768372","resources/trios/L1T2A2.jpg","38","restless",0.4,0.7,0.1,0.660048035071036,"true"
"image-keyboard-response",492,481692,"0.0-3.160-1.160","n5hk5lctbdssf1t",804,"137.csv","","null","resources/maskTrios/BT2B.jpg","null","",NA,NA,NA,NA,""
"image-keyboard-response",493,482897,"0.0-3.160-2.160","n5hk5lctbdssf1t",804,"137.csv","","null","resources/images/coin2.png","null","",NA,NA,NA,NA,""
"image-keyboard-response",494,483062,"0.0-3.161-0.161","n5hk5lctbdssf1t",804,"137.csv","","163.29999995231628","resources/trios/L1T1A3.jpg","38","restless",0.4,0.8,0.1,0.284425704791103,"true"
"image-keyboard-response",495,483464,"0.0-3.161-1.161","n5hk5lctbdssf1t",804,"137.csv","","null","resources/maskTrios/BT1B.jpg","null","",NA,NA,NA,NA,""
"image-keyboard-response",496,484669,"0.0-3.161-2.161","n5hk5lctbdssf1t",804,"137.csv","","null","resources/images/coin2.png","null","",NA,NA,NA,NA,""
"image-keyboard-response",497,484731,"0.0-3.162-0.162","n5hk5lctbdssf1t",804,"137.csv","","60.200000047683716","resources/trios/L2T1A3.jpg","38","restless",0.4,0.8,0.1,0.126588064181756,"true"
"image-keyboard-response",498,485133,"0.0-3.162-1.162","n5hk5lctbdssf1t",804,"137.csv","","null","resources/maskTrios/BT1B.jpg","null","",NA,NA,NA,NA,""
"image-keyboard-response",499,486335,"0.0-3.162-2.162","n5hk5lctbdssf1t",804,"137.csv","","null","resources/images/coin2.png","null","",NA,NA,NA,NA,""
"image-keyboard-response",500,486376,"0.0-3.163-0.163","n5hk5lctbdssf1t",804,"137.csv","","39.200000047683716","resources/trios/L1T2A3.jpg","38","restless",0.4,0.9,0.1,0.763467655855235,"true"
"image-keyboard-response",501,486780,"0.0-3.163-1.163","n5hk5lctbdssf1t",804,"137.csv","","null","resources/maskTrios/BT2B.jpg","null","",NA,NA,NA,NA,""
"image-keyboard-response",502,487986,"0.0-3.163-2.163","n5hk5lctbdssf1t",804,"137.csv","","null","resources/images/coin2.png","null","",NA,NA,NA,NA,""
"image-keyboard-response",503,488283,"0.0-3.164-0.164","n5hk5lctbdssf1t",804,"137.csv","","294.40000009536743","resources/trios/L1T2A2.jpg","38","restless",0.4,0.9,0.2,0.373760302192453,"true"
"image-keyboard-response",504,488689,"0.0-3.164-1.164","n5hk5lctbdssf1t",804,"137.csv","","null","resources/maskTrios/BT2B.jpg","null","",NA,NA,NA,NA,""
"image-keyboard-response",505,489894,"0.0-3.164-2.164","n5hk5lctbdssf1t",804,"137.csv","","null","resources/images/coin2.png","null","",NA,NA,NA,NA,""
"image-keyboard-response",506,489899,"0.0-3.165-0.165","n5hk5lctbdssf1t",804,"137.csv","","3","resources/trios/L1T2A3.jpg","38","restless",0.4,0.9,0.2,0.639870874851765,"true"
"image-keyboard-response",507,490306,"0.0-3.165-1.165","n5hk5lctbdssf1t",804,"137.csv","","null","resources/maskTrios/BT2B.jpg","null","",NA,NA,NA,NA,""
"image-keyboard-response",508,491513,"0.0-3.165-2.165","n5hk5lctbdssf1t",804,"137.csv","","null","resources/images/coin2.png","null","",NA,NA,NA,NA,""
"image-keyboard-response",509,491636,"0.0-3.166-0.166","n5hk5lctbdssf1t",804,"137.csv","","121.29999995231628","resources/trios/L2T1A3.jpg","38","restless",0.4,0.9,0.2,0.296926044547234,"true"
"image-keyboard-response",510,492042,"0.0-3.166-1.166","n5hk5lctbdssf1t",804,"137.csv","","null","resources/maskTrios/BT1B.jpg","null","",NA,NA,NA,NA,""
"image-keyboard-response",511,493248,"0.0-3.166-2.166","n5hk5lctbdssf1t",804,"137.csv","","null","resources/images/coin2.png","null","",NA,NA,NA,NA,""
"image-keyboard-response",512,493417,"0.0-3.167-0.167","n5hk5lctbdssf1t",804,"137.csv","","166.80000019073486","resources/trios/L2T1A3.jpg","38","restless",0.4,0.9,0.2,0.277292225770355,"true"
"image-keyboard-response",513,493821,"0.0-3.167-1.167","n5hk5lctbdssf1t",804,"137.csv","","null","resources/maskTrios/BT1B.jpg","null","",NA,NA,NA,NA,""
"image-keyboard-response",514,495028,"0.0-3.167-2.167","n5hk5lctbdssf1t",804,"137.csv","","null","resources/images/coin2.png","null","",NA,NA,NA,NA,""
"image-keyboard-response",515,495180,"0.0-3.168-0.168","n5hk5lctbdssf1t",804,"137.csv","","151.10000014305115","resources/trios/L2T2A2.jpg","38","restless",0.4,0.9,0.2,0.758633159117754,"true"
"image-keyboard-response",516,495587,"0.0-3.168-1.168","n5hk5lctbdssf1t",804,"137.csv","","null","resources/maskTrios/BT2B.jpg","null","",NA,NA,NA,NA,""
"image-keyboard-response",517,496793,"0.0-3.168-2.168","n5hk5lctbdssf1t",804,"137.csv","","null","resources/images/coin2.png","null","",NA,NA,NA,NA,""
"image-keyboard-response",518,496889,"0.0-3.169-0.169","n5hk5lctbdssf1t",804,"137.csv","","94","resources/trios/L2T1A3.jpg","38","restless",0.4,0.8,0.2,0.127072838988843,"true"
"image-keyboard-response",519,497293,"0.0-3.169-1.169","n5hk5lctbdssf1t",804,"137.csv","","null","resources/maskTrios/BT1B.jpg","null","",NA,NA,NA,NA,""
"image-keyboard-response",520,498499,"0.0-3.169-2.169","n5hk5lctbdssf1t",804,"137.csv","","null","resources/images/coin2.png","null","",NA,NA,NA,NA,""
"image-keyboard-response",521,498514,"0.0-3.170-0.170","n5hk5lctbdssf1t",804,"137.csv","","13.899999856948853","resources/trios/L2T1A2.jpg","38","restless",0.4,0.8,0.2,0.195665001378955,"true"
"image-keyboard-response",522,498916,"0.0-3.170-1.170","n5hk5lctbdssf1t",804,"137.csv","","null","resources/maskTrios/BT1B.jpg","null","",NA,NA,NA,NA,""
"image-keyboard-response",523,500118,"0.0-3.170-2.170","n5hk5lctbdssf1t",804,"137.csv","","null","resources/images/coin2.png","null","",NA,NA,NA,NA,""
"image-keyboard-response",524,500157,"0.0-3.171-0.171","n5hk5lctbdssf1t",804,"137.csv","","38","resources/trios/L1T2A2.jpg","38","restless",0.4,0.7,0.2,0.345589311807406,"true"
"image-keyboard-response",525,500562,"0.0-3.171-1.171","n5hk5lctbdssf1t",804,"137.csv","","null","resources/maskTrios/BT2B.jpg","null","",NA,NA,NA,NA,""
"image-keyboard-response",526,501764,"0.0-3.171-2.171","n5hk5lctbdssf1t",804,"137.csv","","null","resources/images/coin2.png","null","",NA,NA,NA,NA,""
"image-keyboard-response",527,501979,"0.0-3.172-0.172","n5hk5lctbdssf1t",804,"137.csv","","213.89999985694885","resources/trios/L2T1A2.jpg","38","restless",0.4,0.6,0.2,0.854847250006779,"false"
"image-keyboard-response",528,502381,"0.0-3.172-1.172","n5hk5lctbdssf1t",804,"137.csv","","null","resources/maskTrios/BT1B.jpg","null","",NA,NA,NA,NA,""
"image-keyboard-response",529,503587,"0.0-3.172-2.172","n5hk5lctbdssf1t",804,"137.csv","","null","resources/images/fishbone.png","null","",NA,NA,NA,NA,""
"image-keyboard-response",530,503671,"0.0-3.173-0.173","n5hk5lctbdssf1t",804,"137.csv","","82.59999990463257","resources/trios/L2T2A3.jpg","38","restless",0.4,0.6,0.2,0.566831810054276,"true"
"image-keyboard-response",531,504075,"0.0-3.173-1.173","n5hk5lctbdssf1t",804,"137.csv","","null","resources/maskTrios/BT2B.jpg","null","",NA,NA,NA,NA,""
"image-keyboard-response",532,505278,"0.0-3.173-2.173","n5hk5lctbdssf1t",804,"137.csv","","null","resources/images/coin2.png","null","",NA,NA,NA,NA,""
"image-keyboard-response",533,505384,"0.0-3.174-0.174","n5hk5lctbdssf1t",804,"137.csv","","103.20000004768372","resources/trios/L2T1A2.jpg","38","restless",0.4,0.6,0.3,0.601880069792709,"false"
"image-keyboard-response",534,505791,"0.0-3.174-1.174","n5hk5lctbdssf1t",804,"137.csv","","null","resources/maskTrios/BT1B.jpg","null","",NA,NA,NA,NA,""
"image-keyboard-response",535,506997,"0.0-3.174-2.174","n5hk5lctbdssf1t",804,"137.csv","","null","resources/images/fishbone.png","null","",NA,NA,NA,NA,""
"image-keyboard-response",536,507096,"0.0-3.175-0.175","n5hk5lctbdssf1t",804,"137.csv","","96.79999995231628","resources/trios/L1T1A3.jpg","38","restless",0.4,0.6,0.3,0.104433161345215,"true"
"image-keyboard-response",537,507499,"0.0-3.175-1.175","n5hk5lctbdssf1t",804,"137.csv","","null","resources/maskTrios/BT1B.jpg","null","",NA,NA,NA,NA,""
"image-keyboard-response",538,508701,"0.0-3.175-2.175","n5hk5lctbdssf1t",804,"137.csv","","null","resources/images/coin2.png","null","",NA,NA,NA,NA,""
"image-keyboard-response",539,509084,"0.0-3.176-0.176","n5hk5lctbdssf1t",804,"137.csv","","380.5","resources/trios/L2T1A3.jpg","38","restless",0.4,0.6,0.4,0.501078518609238,"true"
"image-keyboard-response",540,509489,"0.0-3.176-1.176","n5hk5lctbdssf1t",804,"137.csv","","null","resources/maskTrios/BT1B.jpg","null","",NA,NA,NA,NA,""
"image-keyboard-response",541,510694,"0.0-3.176-2.176","n5hk5lctbdssf1t",804,"137.csv","","null","resources/images/coin2.png","null","",NA,NA,NA,NA,""
"image-keyboard-response",542,510705,"0.0-3.177-0.177","n5hk5lctbdssf1t",804,"137.csv","","9.899999856948853","resources/trios/L2T1A2.jpg","38","restless",0.4,0.6,0.4,0.620867965400129,"false"
"image-keyboard-response",543,511111,"0.0-3.177-1.177","n5hk5lctbdssf1t",804,"137.csv","","null","resources/maskTrios/BT1B.jpg","null","",NA,NA,NA,NA,""
"image-keyboard-response",544,512315,"0.0-3.177-2.177","n5hk5lctbdssf1t",804,"137.csv","","null","resources/images/fishbone.png","null","",NA,NA,NA,NA,""
"image-keyboard-response",545,512426,"0.0-3.178-0.178","n5hk5lctbdssf1t",804,"137.csv","","109.5","resources/trios/L2T1A3.jpg","38","restless",0.4,0.6,0.4,0.800026123302864,"false"
"image-keyboard-response",546,512832,"0.0-3.178-1.178","n5hk5lctbdssf1t",804,"137.csv","","null","resources/maskTrios/BT1B.jpg","null","",NA,NA,NA,NA,""
"image-keyboard-response",547,514033,"0.0-3.178-2.178","n5hk5lctbdssf1t",804,"137.csv","","null","resources/images/fishbone.png","null","",NA,NA,NA,NA,""
"image-keyboard-response",548,514144,"0.0-3.179-0.179","n5hk5lctbdssf1t",804,"137.csv","","110.20000004768372","resources/trios/L1T2A3.jpg","38","restless",0.4,0.6,0.4,0.561153811083207,"true"
"image-keyboard-response",549,514549,"0.0-3.179-1.179","n5hk5lctbdssf1t",804,"137.csv","","null","resources/maskTrios/BT2B.jpg","null","",NA,NA,NA,NA,""
"image-keyboard-response",550,515750,"0.0-3.179-2.179","n5hk5lctbdssf1t",804,"137.csv","","null","resources/images/coin2.png","null","",NA,NA,NA,NA,""
"image-keyboard-response",551,515879,"0.0-3.180-0.180","n5hk5lctbdssf1t",804,"137.csv","","127.70000004768372","resources/trios/L1T2A2.jpg","38","restless",0.4,0.5,0.4,0.0283489261911769,"true"
"image-keyboard-response",552,516284,"0.0-3.180-1.180","n5hk5lctbdssf1t",804,"137.csv","","null","resources/maskTrios/BT2B.jpg","null","",NA,NA,NA,NA,""
"image-keyboard-response",553,517490,"0.0-3.180-2.180","n5hk5lctbdssf1t",804,"137.csv","","null","resources/images/coin2.png","null","",NA,NA,NA,NA,""
"image-keyboard-response",554,517531,"0.0-3.181-0.181","n5hk5lctbdssf1t",804,"137.csv","","39.200000047683716","resources/trios/L2T2A2.jpg","38","restless",0.4,0.5,0.4,0.586760425532232,"false"
"image-keyboard-response",555,517934,"0.0-3.181-1.181","n5hk5lctbdssf1t",804,"137.csv","","null","resources/maskTrios/BT2B.jpg","null","",NA,NA,NA,NA,""
"image-keyboard-response",556,519135,"0.0-3.181-2.181","n5hk5lctbdssf1t",804,"137.csv","","null","resources/images/fishbone.png","null","",NA,NA,NA,NA,""
"image-keyboard-response",557,519212,"0.0-3.182-0.182","n5hk5lctbdssf1t",804,"137.csv","","75.29999995231628","resources/trios/L2T1A2.jpg","38","restless",0.4,0.5,0.4,0.84532495212046,"false"
"image-keyboard-response",558,519616,"0.0-3.182-1.182","n5hk5lctbdssf1t",804,"137.csv","","null","resources/maskTrios/BT1B.jpg","null","",NA,NA,NA,NA,""
"image-keyboard-response",559,520817,"0.0-3.182-2.182","n5hk5lctbdssf1t",804,"137.csv","","null","resources/images/fishbone.png","null","",NA,NA,NA,NA,""
"image-keyboard-response",560,521028,"0.0-3.183-0.183","n5hk5lctbdssf1t",804,"137.csv","","209.09999990463257","resources/trios/L1T1A3.jpg","38","restless",0.4,0.5,0.4,0.459392427851595,"true"
"image-keyboard-response",561,521433,"0.0-3.183-1.183","n5hk5lctbdssf1t",804,"137.csv","","null","resources/maskTrios/BT1B.jpg","null","",NA,NA,NA,NA,""
"image-keyboard-response",562,522640,"0.0-3.183-2.183","n5hk5lctbdssf1t",804,"137.csv","","null","resources/images/coin2.png","null","",NA,NA,NA,NA,""
"image-keyboard-response",563,522833,"0.0-3.184-0.184","n5hk5lctbdssf1t",804,"137.csv","","191.40000009536743","resources/trios/L2T2A2.jpg","38","restless",0.4,0.5,0.4,0.821279658151638,"false"
"image-keyboard-response",564,523240,"0.0-3.184-1.184","n5hk5lctbdssf1t",804,"137.csv","","null","resources/maskTrios/BT2B.jpg","null","",NA,NA,NA,NA,""
"image-keyboard-response",565,524446,"0.0-3.184-2.184","n5hk5lctbdssf1t",804,"137.csv","","null","resources/images/fishbone.png","null","",NA,NA,NA,NA,""
"image-keyboard-response",566,524572,"0.0-3.185-0.185","n5hk5lctbdssf1t",804,"137.csv","","124.70000004768372","resources/trios/L2T2A3.jpg","38","restless",0.4,0.5,0.4,0.576646776971299,"false"
"image-keyboard-response",567,524975,"0.0-3.185-1.185","n5hk5lctbdssf1t",804,"137.csv","","null","resources/maskTrios/BT2B.jpg","null","",NA,NA,NA,NA,""
"image-keyboard-response",568,526181,"0.0-3.185-2.185","n5hk5lctbdssf1t",804,"137.csv","","null","resources/images/fishbone.png","null","",NA,NA,NA,NA,""
"image-keyboard-response",569,526366,"0.0-3.186-0.186","n5hk5lctbdssf1t",804,"137.csv","","183.29999995231628","resources/trios/L2T2A3.jpg","38","restless",0.4,0.5,0.4,0.330493369717486,"true"
"image-keyboard-response",570,526768,"0.0-3.186-1.186","n5hk5lctbdssf1t",804,"137.csv","","null","resources/maskTrios/BT2B.jpg","null","",NA,NA,NA,NA,""
"image-keyboard-response",571,527970,"0.0-3.186-2.186","n5hk5lctbdssf1t",804,"137.csv","","null","resources/images/coin2.png","null","",NA,NA,NA,NA,""
"image-keyboard-response",572,528102,"0.0-3.187-0.187","n5hk5lctbdssf1t",804,"137.csv","","129.79999995231628","resources/trios/L1T1A3.jpg","38","restless",0.4,0.5,0.4,0.685322612458269,"false"
"image-keyboard-response",573,528508,"0.0-3.187-1.187","n5hk5lctbdssf1t",804,"137.csv","","null","resources/maskTrios/BT1B.jpg","null","",NA,NA,NA,NA,""
"image-keyboard-response",574,529715,"0.0-3.187-2.187","n5hk5lctbdssf1t",804,"137.csv","","null","resources/images/fishbone.png","null","",NA,NA,NA,NA,""
"image-keyboard-response",575,529876,"0.0-3.188-0.188","n5hk5lctbdssf1t",804,"137.csv","","159.29999995231628","resources/trios/L1T1A3.jpg","38","restless",0.4,0.6,0.5,0.0647041651738209,"true"
"image-keyboard-response",576,530282,"0.0-3.188-1.188","n5hk5lctbdssf1t",804,"137.csv","","null","resources/maskTrios/BT1B.jpg","null","",NA,NA,NA,NA,""
"image-keyboard-response",577,531485,"0.0-3.188-2.188","n5hk5lctbdssf1t",804,"137.csv","","null","resources/images/coin2.png","null","",NA,NA,NA,NA,""
"image-keyboard-response",578,531494,"0.0-3.189-0.189","n5hk5lctbdssf1t",804,"137.csv","","7.299999952316284","resources/trios/L1T1A2.jpg","38","restless",0.4,0.6,0.6,0.570791837444445,"true"
"image-keyboard-response",579,531899,"0.0-3.189-1.189","n5hk5lctbdssf1t",804,"137.csv","","null","resources/maskTrios/BT1B.jpg","null","",NA,NA,NA,NA,""
"image-keyboard-response",580,533102,"0.0-3.189-2.189","n5hk5lctbdssf1t",804,"137.csv","","null","resources/images/coin2.png","null","",NA,NA,NA,NA,""
"image-keyboard-response",581,533157,"0.0-3.190-0.190","n5hk5lctbdssf1t",804,"137.csv","","54.10000014305115","resources/trios/L1T1A3.jpg","38","restless",0.4,0.6,0.6,0.4135074241073,"true"
"image-keyboard-response",582,533563,"0.0-3.190-1.190","n5hk5lctbdssf1t",804,"137.csv","","null","resources/maskTrios/BT1B.jpg","null","",NA,NA,NA,NA,""
"image-keyboard-response",583,534769,"0.0-3.190-2.190","n5hk5lctbdssf1t",804,"137.csv","","null","resources/images/coin2.png","null","",NA,NA,NA,NA,""
"image-keyboard-response",584,534830,"0.0-3.191-0.191","n5hk5lctbdssf1t",804,"137.csv","","60.299999952316284","resources/trios/L1T1A2.jpg","38","restless",0.4,0.6,0.5,0.718453850999162,"false"
"image-keyboard-response",585,535235,"0.0-3.191-1.191","n5hk5lctbdssf1t",804,"137.csv","","null","resources/maskTrios/BT1B.jpg","null","",NA,NA,NA,NA,""
"image-keyboard-response",586,536437,"0.0-3.191-2.191","n5hk5lctbdssf1t",804,"137.csv","","null","resources/images/fishbone.png","null","",NA,NA,NA,NA,""
"image-keyboard-response",587,536458,"0.0-3.192-0.192","n5hk5lctbdssf1t",804,"137.csv","","19.899999856948853","resources/trios/L2T2A3.jpg","38","restless",0.4,0.6,0.5,0.411655229143473,"true"
"image-keyboard-response",588,536860,"0.0-3.192-1.192","n5hk5lctbdssf1t",804,"137.csv","","null","resources/maskTrios/BT2B.jpg","null","",NA,NA,NA,NA,""
"image-keyboard-response",589,538066,"0.0-3.192-2.192","n5hk5lctbdssf1t",804,"137.csv","","null","resources/images/coin2.png","null","",NA,NA,NA,NA,""
"image-keyboard-response",590,538096,"0.0-3.193-0.193","n5hk5lctbdssf1t",804,"137.csv","","28.5","resources/trios/L2T2A3.jpg","38","restless",0.4,0.6,0.4,0.734077962750545,"false"
"image-keyboard-response",591,538502,"0.0-3.193-1.193","n5hk5lctbdssf1t",804,"137.csv","","null","resources/maskTrios/BT2B.jpg","null","",NA,NA,NA,NA,""
"image-keyboard-response",592,539709,"0.0-3.193-2.193","n5hk5lctbdssf1t",804,"137.csv","","null","resources/images/fishbone.png","null","",NA,NA,NA,NA,""
"image-keyboard-response",593,539798,"0.0-3.194-0.194","n5hk5lctbdssf1t",804,"137.csv","","87.89999985694885","resources/trios/L2T2A2.jpg","38","restless",0.4,0.6,0.4,0.907627817584399,"false"
"image-keyboard-response",594,540202,"0.0-3.194-1.194","n5hk5lctbdssf1t",804,"137.csv","","null","resources/maskTrios/BT2B.jpg","null","",NA,NA,NA,NA,""
"image-keyboard-response",595,541409,"0.0-3.194-2.194","n5hk5lctbdssf1t",804,"137.csv","","null","resources/images/fishbone.png","null","",NA,NA,NA,NA,""
"image-keyboard-response",596,541566,"0.0-3.195-0.195","n5hk5lctbdssf1t",804,"137.csv","","155.39999985694885","resources/trios/L1T2A2.jpg","38","restless",0.4,0.5,0.4,0.546177304432897,"false"
"image-keyboard-response",597,541969,"0.0-3.195-1.195","n5hk5lctbdssf1t",804,"137.csv","","null","resources/maskTrios/BT2B.jpg","null","",NA,NA,NA,NA,""
"image-keyboard-response",598,543175,"0.0-3.195-2.195","n5hk5lctbdssf1t",804,"137.csv","","null","resources/images/fishbone.png","null","",NA,NA,NA,NA,""
"image-keyboard-response",599,543262,"0.0-3.196-0.196","n5hk5lctbdssf1t",804,"137.csv","","85.5","resources/trios/L1T2A3.jpg","38","restless",0.4,0.5,0.4,0.0822867838559844,"true"
"image-keyboard-response",600,543669,"0.0-3.196-1.196","n5hk5lctbdssf1t",804,"137.csv","","null","resources/maskTrios/BT2B.jpg","null","",NA,NA,NA,NA,""
"image-keyboard-response",601,544875,"0.0-3.196-2.196","n5hk5lctbdssf1t",804,"137.csv","","null","resources/images/coin2.png","null","",NA,NA,NA,NA,""
"image-keyboard-response",602,544941,"0.0-3.197-0.197","n5hk5lctbdssf1t",804,"137.csv","","64.79999995231628","resources/trios/L2T1A3.jpg","38","restless",0.4,0.5,0.4,0.0216409911048068,"true"
"image-keyboard-response",603,545345,"0.0-3.197-1.197","n5hk5lctbdssf1t",804,"137.csv","","null","resources/maskTrios/BT1B.jpg","null","",NA,NA,NA,NA,""
"image-keyboard-response",604,546549,"0.0-3.197-2.197","n5hk5lctbdssf1t",804,"137.csv","","null","resources/images/coin2.png","null","",NA,NA,NA,NA,""
"image-keyboard-response",605,546555,"0.0-3.198-0.198","n5hk5lctbdssf1t",804,"137.csv","","3","resources/trios/L2T1A3.jpg","38","restless",0.4,0.5,0.4,0.654011660078013,"false"
"image-keyboard-response",606,546960,"0.0-3.198-1.198","n5hk5lctbdssf1t",804,"137.csv","","null","resources/maskTrios/BT1B.jpg","null","",NA,NA,NA,NA,""
