"trial_type","trial_index","time_elapsed","internal_node_id","subject","walkNumber","success","rt","stimulus","key_press","test_part","leftProb","midProb","rightProb","generatedNum","correct"
"pavlovia",0,1199,"0.0-0.0","etopr6r1loy4px6","143.csv","","","","","",NA,NA,NA,NA,""
"fullscreen",1,5105,"0.0-1.0","etopr6r1loy4px6","143.csv","true","","","","",NA,NA,NA,NA,""
"html-keyboard-response",2,15101,"0.0-2.0-0.0","etopr6r1loy4px6","143.csv","","9994","<p><font size='6'>Arrrgh!</p></font><p>Can you be the best pirate? Try to find lots of gold! But beware, some islands have more gold than others, and over time, the island with the most gold may change. Can YOU figure it out? </p><font size='6'>GOOD LUCK, CAPTAIN!!!</font><p>Press any key to begin</p>","32","",NA,NA,NA,NA,""
"image-keyboard-response",3,18111,"0.0-2.0-1.0","etopr6r1loy4px6","143.csv","","null","resources/image_sets/111.png","null","",NA,NA,NA,NA,""
"image-keyboard-response",4,22088,"0.0-2.0-2.0","etopr6r1loy4px6","143.csv","","3975.7000000476837","resources/image_sets/left_highlight.png","37","",NA,NA,NA,NA,""
"image-keyboard-response",5,24363,"0.0-2.0-3.0","etopr6r1loy4px6","143.csv","","2272.7000000476837","resources/image_sets/mid_highlight.png","38","",NA,NA,NA,NA,""
"image-keyboard-response",6,25710,"0.0-2.0-4.0","etopr6r1loy4px6","143.csv","","1345","resources/image_sets/right_highlight.png","39","",NA,NA,NA,NA,""
"image-keyboard-response",7,28562,"0.0-2.0-5.0","etopr6r1loy4px6","143.csv","","2851.2999999523163","resources/image_sets/111.png","13","",NA,NA,NA,NA,""
"image-keyboard-response",8,31719,"0.0-2.0-6.0","etopr6r1loy4px6","143.csv","","3155.5","resources/images/coin2.png","13","",NA,NA,NA,NA,""
"image-keyboard-response",9,33456,"0.0-2.0-7.0","etopr6r1loy4px6","143.csv","","1736.8000000715256","resources/images/fishbone.png","13","",NA,NA,NA,NA,""
"html-keyboard-response",10,41678,"0.0-2.0-8.0","etopr6r1loy4px6","143.csv","","8221.299999952316","<p>Your first journey will be a long one, but you will get a well deserved break at the end</p><p>After the break you will have four more journeys, but each will be much shorter than the first, and you will have breaks in between each</p><p>Press Enter to begin</p>","13","",NA,NA,NA,NA,""
"image-keyboard-response",11,42603,"0.0-3.0-0.0","etopr6r1loy4px6","143.csv","","922.7000000476837","resources/trios/L1T2A2.jpg","37","restless",0.9,0.3,0.7,0.98643592248902,"false"
"image-keyboard-response",12,43018,"0.0-3.0-1.0","etopr6r1loy4px6","143.csv","","null","resources/maskTrios/L1BB.jpg","null","",NA,NA,NA,NA,""
"image-keyboard-response",13,44221,"0.0-3.0-2.0","etopr6r1loy4px6","143.csv","","null","resources/images/fishbone.png","null","",NA,NA,NA,NA,""
"image-keyboard-response",14,46073,"0.0-3.1-0.1","etopr6r1loy4px6","143.csv","","1848.6000000238419","resources/trios/L1T4A1.jpg","38","restless",0.9,0.3,0.8,0.686082510289339,"false"
"image-keyboard-response",15,46479,"0.0-3.1-1.1","etopr6r1loy4px6","143.csv","","null","resources/maskTrios/BT4B.jpg","null","",NA,NA,NA,NA,""
"image-keyboard-response",16,47686,"0.0-3.1-2.1","etopr6r1loy4px6","143.csv","","null","resources/images/fishbone.png","null","",NA,NA,NA,NA,""
"image-keyboard-response",17,50242,"0.0-3.2-0.2","etopr6r1loy4px6","143.csv","","2553.4000000953674","resources/trios/L1T2A2.jpg","38","restless",0.9,0.3,0.8,0.24326152365775,"true"
"image-keyboard-response",18,50659,"0.0-3.2-1.2","etopr6r1loy4px6","143.csv","","null","resources/maskTrios/BT2B.jpg","null","",NA,NA,NA,NA,""
"image-keyboard-response",19,51884,"0.0-3.2-2.2","etopr6r1loy4px6","143.csv","","null","resources/images/coin2.png","null","",NA,NA,NA,NA,""
"image-keyboard-response",20,56228,"0.0-3.3-0.3","etopr6r1loy4px6","143.csv","","4341.699999928474","resources/trios/L1T4A1.jpg","39","restless",0.8,0.3,0.9,0.829154796045796,"true"
"image-keyboard-response",21,56643,"0.0-3.3-1.3","etopr6r1loy4px6","143.csv","","null","resources/maskTrios/BBA1.jpg","null","",NA,NA,NA,NA,""
"image-keyboard-response",22,57851,"0.0-3.3-2.3","etopr6r1loy4px6","143.csv","","null","resources/images/coin2.png","null","",NA,NA,NA,NA,""
"image-keyboard-response",23,59286,"0.0-3.4-0.4","etopr6r1loy4px6","143.csv","","1433.8000000715256","resources/trios/L4T2A2.jpg","38","restless",0.8,0.3,0.9,0.742337818770238,"false"
"image-keyboard-response",24,59693,"0.0-3.4-1.4","etopr6r1loy4px6","143.csv","","null","resources/maskTrios/BT2B.jpg","null","",NA,NA,NA,NA,""
"image-keyboard-response",25,60897,"0.0-3.4-2.4","etopr6r1loy4px6","143.csv","","null","resources/images/fishbone.png","null","",NA,NA,NA,NA,""
"image-keyboard-response",26,61964,"0.0-3.5-0.5","etopr6r1loy4px6","143.csv","","1065.7999999523163","resources/trios/L4T2A2.jpg","38","restless",0.8,0.3,0.9,0.409923952959194,"false"
"image-keyboard-response",27,62372,"0.0-3.5-1.5","etopr6r1loy4px6","143.csv","","null","resources/maskTrios/BT2B.jpg","null","",NA,NA,NA,NA,""
"image-keyboard-response",28,63584,"0.0-3.5-2.5","etopr6r1loy4px6","143.csv","","null","resources/images/fishbone.png","null","",NA,NA,NA,NA,""
"image-keyboard-response",29,68550,"0.0-3.6-0.6","etopr6r1loy4px6","143.csv","","4963.5","resources/trios/L4T2A1.jpg","39","restless",0.8,0.3,0.9,0.97400036443687,"false"
"image-keyboard-response",30,68957,"0.0-3.6-1.6","etopr6r1loy4px6","143.csv","","null","resources/maskTrios/BBA1.jpg","null","",NA,NA,NA,NA,""
"image-keyboard-response",31,70167,"0.0-3.6-2.6","etopr6r1loy4px6","143.csv","","null","resources/images/fishbone.png","null","",NA,NA,NA,NA,""
"image-keyboard-response",32,71128,"0.0-3.7-0.7","etopr6r1loy4px6","143.csv","","959.5","resources/trios/L1T4A1.jpg","37","restless",0.8,0.3,0.9,0.720044874994351,"true"
"image-keyboard-response",33,71531,"0.0-3.7-1.7","etopr6r1loy4px6","143.csv","","null","resources/maskTrios/L1BB.jpg","null","",NA,NA,NA,NA,""
"image-keyboard-response",34,72742,"0.0-3.7-2.7","etopr6r1loy4px6","143.csv","","null","resources/images/coin2.png","null","",NA,NA,NA,NA,""
"image-keyboard-response",35,75194,"0.0-3.8-0.8","etopr6r1loy4px6","143.csv","","2449.600000023842","resources/trios/L1T2A1.jpg","38","restless",0.7,0.3,0.9,0.218058309878333,"true"
"image-keyboard-response",36,75600,"0.0-3.8-1.8","etopr6r1loy4px6","143.csv","","null","resources/maskTrios/BT2B.jpg","null","",NA,NA,NA,NA,""
"image-keyboard-response",37,76808,"0.0-3.8-2.8","etopr6r1loy4px6","143.csv","","null","resources/images/coin2.png","null","",NA,NA,NA,NA,""
"image-keyboard-response",38,77229,"0.0-3.9-0.9","etopr6r1loy4px6","143.csv","","419.2999999523163","resources/trios/L4T4A1.jpg","39","restless",0.7,0.3,0.9,0.57706287908378,"true"
"image-keyboard-response",39,77638,"0.0-3.9-1.9","etopr6r1loy4px6","143.csv","","null","resources/maskTrios/BBA1.jpg","null","",NA,NA,NA,NA,""
"image-keyboard-response",40,78851,"0.0-3.9-2.9","etopr6r1loy4px6","143.csv","","null","resources/images/coin2.png","null","",NA,NA,NA,NA,""
"image-keyboard-response",41,79422,"0.0-3.10-0.10","etopr6r1loy4px6","143.csv","","569.3000000715256","resources/trios/L4T2A1.jpg","37","restless",0.7,0.3,0.9,0.263941463855353,"true"
"image-keyboard-response",42,79836,"0.0-3.10-1.10","etopr6r1loy4px6","143.csv","","null","resources/maskTrios/L4BB.jpg","null","",NA,NA,NA,NA,""
"image-keyboard-response",43,81041,"0.0-3.10-2.10","etopr6r1loy4px6","143.csv","","null","resources/images/coin2.png","null","",NA,NA,NA,NA,""
"image-keyboard-response",44,81330,"0.0-3.11-0.11","etopr6r1loy4px6","143.csv","","287.2999999523163","resources/trios/L1T4A2.jpg","38","restless",0.7,0.3,0.9,0.19565023576949,"true"
"image-keyboard-response",45,81748,"0.0-3.11-1.11","etopr6r1loy4px6","143.csv","","null","resources/maskTrios/BT4B.jpg","null","",NA,NA,NA,NA,""
"image-keyboard-response",46,82961,"0.0-3.11-2.11","etopr6r1loy4px6","143.csv","","null","resources/images/coin2.png","null","",NA,NA,NA,NA,""
"image-keyboard-response",47,83208,"0.0-3.12-0.12","etopr6r1loy4px6","143.csv","","245.39999997615814","resources/trios/L1T2A2.jpg","39","restless",0.7,0.3,0.9,0.324688603717393,"true"
"image-keyboard-response",48,83624,"0.0-3.12-1.12","etopr6r1loy4px6","143.csv","","null","resources/maskTrios/BBA2.jpg","null","",NA,NA,NA,NA,""
"image-keyboard-response",49,84829,"0.0-3.12-2.12","etopr6r1loy4px6","143.csv","","null","resources/images/coin2.png","null","",NA,NA,NA,NA,""
"image-keyboard-response",50,85048,"0.0-3.13-0.13","etopr6r1loy4px6","143.csv","","216.39999997615814","resources/trios/L1T2A2.jpg","37","restless",0.7,0.3,0.9,0.304226041394288,"true"
"image-keyboard-response",51,85464,"0.0-3.13-1.13","etopr6r1loy4px6","143.csv","","null","resources/maskTrios/L1BB.jpg","null","",NA,NA,NA,NA,""
"image-keyboard-response",52,86669,"0.0-3.13-2.13","etopr6r1loy4px6","143.csv","","null","resources/images/coin2.png","null","",NA,NA,NA,NA,""
"image-keyboard-response",53,86909,"0.0-3.14-0.14","etopr6r1loy4px6","143.csv","","238","resources/trios/L4T4A2.jpg","38","restless",0.7,0.3,0.9,0.702600736296039,"false"
"image-keyboard-response",54,87318,"0.0-3.14-1.14","etopr6r1loy4px6","143.csv","","null","resources/maskTrios/BT4B.jpg","null","",NA,NA,NA,NA,""
"image-keyboard-response",55,88522,"0.0-3.14-2.14","etopr6r1loy4px6","143.csv","","null","resources/images/fishbone.png","null","",NA,NA,NA,NA,""
"image-keyboard-response",56,91300,"0.0-3.15-0.15","etopr6r1loy4px6","143.csv","","2776.2000000476837","resources/trios/L1T2A1.jpg","38","restless",0.7,0.3,0.9,0.591068870127783,"false"
"image-keyboard-response",57,91716,"0.0-3.15-1.15","etopr6r1loy4px6","143.csv","","null","resources/maskTrios/BT2B.jpg","null","",NA,NA,NA,NA,""
"image-keyboard-response",58,92920,"0.0-3.15-2.15","etopr6r1loy4px6","143.csv","","null","resources/images/fishbone.png","null","",NA,NA,NA,NA,""
"image-keyboard-response",59,93323,"0.0-3.16-0.16","etopr6r1loy4px6","143.csv","","401.39999997615814","resources/trios/L4T2A1.jpg","37","restless",0.7,0.3,0.9,0.104421879111086,"true"
"image-keyboard-response",60,93742,"0.0-3.16-1.16","etopr6r1loy4px6","143.csv","","null","resources/maskTrios/L4BB.jpg","null","",NA,NA,NA,NA,""
"image-keyboard-response",61,94946,"0.0-3.16-2.16","etopr6r1loy4px6","143.csv","","null","resources/images/coin2.png","null","",NA,NA,NA,NA,""
"image-keyboard-response",62,95448,"0.0-3.17-0.17","etopr6r1loy4px6","143.csv","","499.39999997615814","resources/trios/L1T4A2.jpg","37","restless",0.7,0.3,0.9,0.745930790837384,"false"
"image-keyboard-response",63,95868,"0.0-3.17-1.17","etopr6r1loy4px6","143.csv","","null","resources/maskTrios/L1BB.jpg","null","",NA,NA,NA,NA,""
"image-keyboard-response",64,97079,"0.0-3.17-2.17","etopr6r1loy4px6","143.csv","","null","resources/images/fishbone.png","null","",NA,NA,NA,NA,""
"image-keyboard-response",65,97683,"0.0-3.18-0.18","etopr6r1loy4px6","143.csv","","602.6000000238419","resources/trios/L4T2A2.jpg","39","restless",0.8,0.2,0.8,0.94412527965886,"false"
"image-keyboard-response",66,98090,"0.0-3.18-1.18","etopr6r1loy4px6","143.csv","","null","resources/maskTrios/BBA2.jpg","null","",NA,NA,NA,NA,""
"image-keyboard-response",67,99297,"0.0-3.18-2.18","etopr6r1loy4px6","143.csv","","null","resources/images/fishbone.png","null","",NA,NA,NA,NA,""
"image-keyboard-response",68,100267,"0.0-3.19-0.19","etopr6r1loy4px6","143.csv","","968.5","resources/trios/L4T2A2.jpg","39","restless",0.8,0.2,0.8,0.52816533341664,"true"
"image-keyboard-response",69,100670,"0.0-3.19-1.19","etopr6r1loy4px6","143.csv","","null","resources/maskTrios/BBA2.jpg","null","",NA,NA,NA,NA,""
"image-keyboard-response",70,101875,"0.0-3.19-2.19","etopr6r1loy4px6","143.csv","","null","resources/images/coin2.png","null","",NA,NA,NA,NA,""
"image-keyboard-response",71,103091,"0.0-3.20-0.20","etopr6r1loy4px6","143.csv","","1213.7999999523163","resources/trios/L4T4A2.jpg","37","restless",0.8,0.2,0.8,0.842286084659524,"false"
"image-keyboard-response",72,103498,"0.0-3.20-1.20","etopr6r1loy4px6","143.csv","","null","resources/maskTrios/L4BB.jpg","null","",NA,NA,NA,NA,""
"image-keyboard-response",73,104700,"0.0-3.20-2.20","etopr6r1loy4px6","143.csv","","null","resources/images/fishbone.png","null","",NA,NA,NA,NA,""
"image-keyboard-response",74,105101,"0.0-3.21-0.21","etopr6r1loy4px6","143.csv","","398.39999997615814","resources/trios/L1T4A2.jpg","39","restless",0.8,0.2,0.7,0.0182823605312656,"true"
"image-keyboard-response",75,105520,"0.0-3.21-1.21","etopr6r1loy4px6","143.csv","","null","resources/maskTrios/BBA2.jpg","null","",NA,NA,NA,NA,""
"image-keyboard-response",76,106728,"0.0-3.21-2.21","etopr6r1loy4px6","143.csv","","null","resources/images/coin2.png","null","",NA,NA,NA,NA,""
"image-keyboard-response",77,107498,"0.0-3.22-0.22","etopr6r1loy4px6","143.csv","","768.1000000238419","resources/trios/L4T2A2.jpg","37","restless",0.8,0.2,0.7,0.300620302026118,"true"
"image-keyboard-response",78,107912,"0.0-3.22-1.22","etopr6r1loy4px6","143.csv","","null","resources/maskTrios/L4BB.jpg","null","",NA,NA,NA,NA,""
"image-keyboard-response",79,109116,"0.0-3.22-2.22","etopr6r1loy4px6","143.csv","","null","resources/images/coin2.png","null","",NA,NA,NA,NA,""
"image-keyboard-response",80,109531,"0.0-3.23-0.23","etopr6r1loy4px6","143.csv","","412.60000002384186","resources/trios/L4T2A2.jpg","37","restless",0.8,0.2,0.7,0.64769618243127,"true"
"image-keyboard-response",81,109957,"0.0-3.23-1.23","etopr6r1loy4px6","143.csv","","null","resources/maskTrios/L4BB.jpg","null","",NA,NA,NA,NA,""
"image-keyboard-response",82,111160,"0.0-3.23-2.23","etopr6r1loy4px6","143.csv","","null","resources/images/coin2.png","null","",NA,NA,NA,NA,""
"image-keyboard-response",83,111386,"0.0-3.24-0.24","etopr6r1loy4px6","143.csv","","223.80000007152557","resources/trios/L1T2A1.jpg","38","restless",0.8,0.3,0.7,0.594571483004873,"false"
"image-keyboard-response",84,111813,"0.0-3.24-1.24","etopr6r1loy4px6","143.csv","","null","resources/maskTrios/BT2B.jpg","null","",NA,NA,NA,NA,""
"image-keyboard-response",85,113015,"0.0-3.24-2.24","etopr6r1loy4px6","143.csv","","null","resources/images/fishbone.png","null","",NA,NA,NA,NA,""
"image-keyboard-response",86,113264,"0.0-3.25-0.25","etopr6r1loy4px6","143.csv","","246.89999997615814","resources/trios/L4T2A1.jpg","37","restless",0.8,0.3,0.7,0.312299785069384,"true"
"image-keyboard-response",87,113669,"0.0-3.25-1.25","etopr6r1loy4px6","143.csv","","null","resources/maskTrios/L4BB.jpg","null","",NA,NA,NA,NA,""
"image-keyboard-response",88,114873,"0.0-3.25-2.25","etopr6r1loy4px6","143.csv","","null","resources/images/coin2.png","null","",NA,NA,NA,NA,""
"image-keyboard-response",89,115577,"0.0-3.26-0.26","etopr6r1loy4px6","143.csv","","702.3999999761581","resources/trios/L4T2A2.jpg","37","restless",0.7,0.3,0.7,0.0344615901070384,"true"
"image-keyboard-response",90,115994,"0.0-3.26-1.26","etopr6r1loy4px6","143.csv","","null","resources/maskTrios/L4BB.jpg","null","",NA,NA,NA,NA,""
"image-keyboard-response",91,117197,"0.0-3.26-2.26","etopr6r1loy4px6","143.csv","","null","resources/images/coin2.png","null","",NA,NA,NA,NA,""
"image-keyboard-response",92,117438,"0.0-3.27-0.27","etopr6r1loy4px6","143.csv","","239.5","resources/trios/L4T4A2.jpg","37","restless",0.7,0.4,0.7,0.534759433725072,"true"
"image-keyboard-response",93,117845,"0.0-3.27-1.27","etopr6r1loy4px6","143.csv","","null","resources/maskTrios/L4BB.jpg","null","",NA,NA,NA,NA,""
"image-keyboard-response",94,119049,"0.0-3.27-2.27","etopr6r1loy4px6","143.csv","","null","resources/images/coin2.png","null","",NA,NA,NA,NA,""
"image-keyboard-response",95,119282,"0.0-3.28-0.28","etopr6r1loy4px6","143.csv","","231","resources/trios/L1T4A1.jpg","37","restless",0.6,0.4,0.7,0.772621775583892,"false"
"image-keyboard-response",96,119694,"0.0-3.28-1.28","etopr6r1loy4px6","143.csv","","null","resources/maskTrios/L1BB.jpg","null","",NA,NA,NA,NA,""
"image-keyboard-response",97,120901,"0.0-3.28-2.28","etopr6r1loy4px6","143.csv","","null","resources/images/fishbone.png","null","",NA,NA,NA,NA,""
"image-keyboard-response",98,126682,"0.0-3.29-0.29","etopr6r1loy4px6","143.csv","","5779.5","resources/trios/L1T4A1.jpg","38","restless",0.6,0.4,0.7,0.146015115033247,"true"
"image-keyboard-response",99,127086,"0.0-3.29-1.29","etopr6r1loy4px6","143.csv","","null","resources/maskTrios/BT4B.jpg","null","",NA,NA,NA,NA,""
"image-keyboard-response",100,128294,"0.0-3.29-2.29","etopr6r1loy4px6","143.csv","","null","resources/images/coin2.png","null","",NA,NA,NA,NA,""
"image-keyboard-response",101,132753,"0.0-3.30-0.30","etopr6r1loy4px6","143.csv","","4457.200000047684","resources/trios/L4T2A2.jpg","37","restless",0.6,0.4,0.6,0.145381882721572,"true"
"image-keyboard-response",102,133157,"0.0-3.30-1.30","etopr6r1loy4px6","143.csv","","null","resources/maskTrios/L4BB.jpg","null","",NA,NA,NA,NA,""
"image-keyboard-response",103,134362,"0.0-3.30-2.30","etopr6r1loy4px6","143.csv","","null","resources/images/coin2.png","null","",NA,NA,NA,NA,""
"image-keyboard-response",104,135279,"0.0-3.31-0.31","etopr6r1loy4px6","143.csv","","915.6000000238419","resources/trios/L4T2A1.jpg","37","restless",0.6,0.4,0.6,0.402786720210776,"true"
"image-keyboard-response",105,135692,"0.0-3.31-1.31","etopr6r1loy4px6","143.csv","","null","resources/maskTrios/L4BB.jpg","null","",NA,NA,NA,NA,""
"image-keyboard-response",106,136902,"0.0-3.31-2.31","etopr6r1loy4px6","143.csv","","null","resources/images/coin2.png","null","",NA,NA,NA,NA,""
"image-keyboard-response",107,137604,"0.0-3.32-0.32","etopr6r1loy4px6","143.csv","","699.8999999761581","resources/trios/L4T2A1.jpg","37","restless",0.6,0.4,0.6,0.633914873144469,"false"
"image-keyboard-response",108,138030,"0.0-3.32-1.32","etopr6r1loy4px6","143.csv","","null","resources/maskTrios/L4BB.jpg","null","",NA,NA,NA,NA,""
"image-keyboard-response",109,139240,"0.0-3.32-2.32","etopr6r1loy4px6","143.csv","","null","resources/images/fishbone.png","null","",NA,NA,NA,NA,""
"image-keyboard-response",110,140237,"0.0-3.33-0.33","etopr6r1loy4px6","143.csv","","995.8000000715256","resources/trios/L4T2A2.jpg","38","restless",0.6,0.4,0.6,0.956936701492619,"false"
"image-keyboard-response",111,140654,"0.0-3.33-1.33","etopr6r1loy4px6","143.csv","","null","resources/maskTrios/BT2B.jpg","null","",NA,NA,NA,NA,""
"image-keyboard-response",112,141857,"0.0-3.33-2.33","etopr6r1loy4px6","143.csv","","null","resources/images/fishbone.png","null","",NA,NA,NA,NA,""
"image-keyboard-response",113,143819,"0.0-3.34-0.34","etopr6r1loy4px6","143.csv","","1960.2000000476837","resources/trios/L1T4A1.jpg","39","restless",0.6,0.4,0.5,0.278005691454564,"true"
"image-keyboard-response",114,144236,"0.0-3.34-1.34","etopr6r1loy4px6","143.csv","","null","resources/maskTrios/BBA1.jpg","null","",NA,NA,NA,NA,""
"image-keyboard-response",115,145452,"0.0-3.34-2.34","etopr6r1loy4px6","143.csv","","null","resources/images/coin2.png","null","",NA,NA,NA,NA,""
"image-keyboard-response",116,148602,"0.0-3.35-0.35","etopr6r1loy4px6","143.csv","","3148","resources/trios/L1T2A1.jpg","38","restless",0.6,0.4,0.5,0.572864882908798,"false"
"image-keyboard-response",117,149007,"0.0-3.35-1.35","etopr6r1loy4px6","143.csv","","null","resources/maskTrios/BT2B.jpg","null","",NA,NA,NA,NA,""
"image-keyboard-response",118,150214,"0.0-3.35-2.35","etopr6r1loy4px6","143.csv","","null","resources/images/fishbone.png","null","",NA,NA,NA,NA,""
"image-keyboard-response",119,150850,"0.0-3.36-0.36","etopr6r1loy4px6","143.csv","","634.3999999761581","resources/trios/L1T2A1.jpg","39","restless",0.6,0.4,0.5,0.795666502782808,"false"
"image-keyboard-response",120,151258,"0.0-3.36-1.36","etopr6r1loy4px6","143.csv","","null","resources/maskTrios/BBA1.jpg","null","",NA,NA,NA,NA,""
"image-keyboard-response",121,152464,"0.0-3.36-2.36","etopr6r1loy4px6","143.csv","","null","resources/images/fishbone.png","null","",NA,NA,NA,NA,""
"image-keyboard-response",122,152812,"0.0-3.37-0.37","etopr6r1loy4px6","143.csv","","346.10000002384186","resources/trios/L1T4A2.jpg","37","restless",0.6,0.4,0.5,0.606927051671414,"false"
"image-keyboard-response",123,153223,"0.0-3.37-1.37","etopr6r1loy4px6","143.csv","","null","resources/maskTrios/L1BB.jpg","null","",NA,NA,NA,NA,""
"image-keyboard-response",124,154427,"0.0-3.37-2.37","etopr6r1loy4px6","143.csv","","null","resources/images/fishbone.png","null","",NA,NA,NA,NA,""
"image-keyboard-response",125,155093,"0.0-3.38-0.38","etopr6r1loy4px6","143.csv","","663.8000000715256","resources/trios/L4T4A1.jpg","37","restless",0.6,0.4,0.5,0.768697936218582,"false"
"image-keyboard-response",126,155506,"0.0-3.38-1.38","etopr6r1loy4px6","143.csv","","null","resources/maskTrios/L4BB.jpg","null","",NA,NA,NA,NA,""
"image-keyboard-response",127,156712,"0.0-3.38-2.38","etopr6r1loy4px6","143.csv","","null","resources/images/fishbone.png","null","",NA,NA,NA,NA,""
"image-keyboard-response",128,157305,"0.0-3.39-0.39","etopr6r1loy4px6","143.csv","","590.2000000476837","resources/trios/L1T2A1.jpg","37","restless",0.6,0.4,0.5,0.330873935876221,"true"
"image-keyboard-response",129,157713,"0.0-3.39-1.39","etopr6r1loy4px6","143.csv","","null","resources/maskTrios/L1BB.jpg","null","",NA,NA,NA,NA,""
"image-keyboard-response",130,158931,"0.0-3.39-2.39","etopr6r1loy4px6","143.csv","","null","resources/images/coin2.png","null","",NA,NA,NA,NA,""
"image-keyboard-response",131,160775,"0.0-3.40-0.40","etopr6r1loy4px6","143.csv","","1842.5","resources/trios/L1T4A1.jpg","37","restless",0.6,0.4,0.5,0.385794681990014,"true"
"image-keyboard-response",132,161178,"0.0-3.40-1.40","etopr6r1loy4px6","143.csv","","null","resources/maskTrios/L1BB.jpg","null","",NA,NA,NA,NA,""
"image-keyboard-response",133,162381,"0.0-3.40-2.40","etopr6r1loy4px6","143.csv","","null","resources/images/coin2.png","null","",NA,NA,NA,NA,""
"image-keyboard-response",134,164166,"0.0-3.41-0.41","etopr6r1loy4px6","143.csv","","1783.2999999523163","resources/trios/L4T2A1.jpg","39","restless",0.6,0.4,0.5,0.314974376702121,"true"
"image-keyboard-response",135,164572,"0.0-3.41-1.41","etopr6r1loy4px6","143.csv","","null","resources/maskTrios/BBA1.jpg","null","",NA,NA,NA,NA,""
"image-keyboard-response",136,165783,"0.0-3.41-2.41","etopr6r1loy4px6","143.csv","","null","resources/images/coin2.png","null","",NA,NA,NA,NA,""
"image-keyboard-response",137,168536,"0.0-3.42-0.42","etopr6r1loy4px6","143.csv","","2751.7000000476837","resources/trios/L1T4A1.jpg","39","restless",0.6,0.4,0.5,0.241459018227035,"true"
"image-keyboard-response",138,168944,"0.0-3.42-1.42","etopr6r1loy4px6","143.csv","","null","resources/maskTrios/BBA1.jpg","null","",NA,NA,NA,NA,""
"image-keyboard-response",139,170168,"0.0-3.42-2.42","etopr6r1loy4px6","143.csv","","null","resources/images/coin2.png","null","",NA,NA,NA,NA,""
"image-keyboard-response",140,171046,"0.0-3.43-0.43","etopr6r1loy4px6","143.csv","","876.1000000238419","resources/trios/L1T4A1.jpg","39","restless",0.6,0.4,0.5,0.429324178732444,"true"
"image-keyboard-response",141,171455,"0.0-3.43-1.43","etopr6r1loy4px6","143.csv","","null","resources/maskTrios/BBA1.jpg","null","",NA,NA,NA,NA,""
"image-keyboard-response",142,172677,"0.0-3.43-2.43","etopr6r1loy4px6","143.csv","","null","resources/images/coin2.png","null","",NA,NA,NA,NA,""
"image-keyboard-response",143,180705,"0.0-3.44-0.44","etopr6r1loy4px6","143.csv","","8025.800000071526","resources/trios/L4T2A2.jpg","38","restless",0.5,0.4,0.5,0.430058899702389,"false"
"image-keyboard-response",144,181111,"0.0-3.44-1.44","etopr6r1loy4px6","143.csv","","null","resources/maskTrios/BT2B.jpg","null","",NA,NA,NA,NA,""
"image-keyboard-response",145,182314,"0.0-3.44-2.44","etopr6r1loy4px6","143.csv","","null","resources/images/fishbone.png","null","",NA,NA,NA,NA,""
"image-keyboard-response",146,186347,"0.0-3.45-0.45","etopr6r1loy4px6","143.csv","","4031","resources/trios/L1T4A2.jpg","38","restless",0.5,0.4,0.5,0.048289085389049,"true"
"image-keyboard-response",147,186764,"0.0-3.45-1.45","etopr6r1loy4px6","143.csv","","null","resources/maskTrios/BT4B.jpg","null","",NA,NA,NA,NA,""
"image-keyboard-response",148,187971,"0.0-3.45-2.45","etopr6r1loy4px6","143.csv","","null","resources/images/coin2.png","null","",NA,NA,NA,NA,""
"image-keyboard-response",149,190835,"0.0-3.46-0.46","etopr6r1loy4px6","143.csv","","2862.600000023842","resources/trios/L4T2A1.jpg","39","restless",0.5,0.4,0.5,0.902580657343449,"false"
"image-keyboard-response",150,191242,"0.0-3.46-1.46","etopr6r1loy4px6","143.csv","","null","resources/maskTrios/BBA1.jpg","null","",NA,NA,NA,NA,""
"image-keyboard-response",151,192449,"0.0-3.46-2.46","etopr6r1loy4px6","143.csv","","null","resources/images/fishbone.png","null","",NA,NA,NA,NA,""
"image-keyboard-response",152,196743,"0.0-3.47-0.47","etopr6r1loy4px6","143.csv","","4291.399999976158","resources/trios/L4T4A2.jpg","37","restless",0.5,0.4,0.5,0.314289266472764,"true"
"image-keyboard-response",153,197151,"0.0-3.47-1.47","etopr6r1loy4px6","143.csv","","null","resources/maskTrios/L4BB.jpg","null","",NA,NA,NA,NA,""
"image-keyboard-response",154,198362,"0.0-3.47-2.47","etopr6r1loy4px6","143.csv","","null","resources/images/coin2.png","null","",NA,NA,NA,NA,""
"image-keyboard-response",155,200998,"0.0-3.48-0.48","etopr6r1loy4px6","143.csv","","2631.1999999284744","resources/trios/L1T4A1.jpg","39","restless",0.5,0.4,0.5,0.169923911903979,"true"
"image-keyboard-response",156,201423,"0.0-3.48-1.48","etopr6r1loy4px6","143.csv","","null","resources/maskTrios/BBA1.jpg","null","",NA,NA,NA,NA,""
"image-keyboard-response",157,202628,"0.0-3.48-2.48","etopr6r1loy4px6","143.csv","","null","resources/images/coin2.png","null","",NA,NA,NA,NA,""
"image-keyboard-response",158,204312,"0.0-3.49-0.49","etopr6r1loy4px6","143.csv","","1682.1999999284744","resources/trios/L1T4A1.jpg","39","restless",0.5,0.4,0.5,0.277672305119855,"true"
"image-keyboard-response",159,204734,"0.0-3.49-1.49","etopr6r1loy4px6","143.csv","","null","resources/maskTrios/BBA1.jpg","null","",NA,NA,NA,NA,""
"image-keyboard-response",160,205940,"0.0-3.49-2.49","etopr6r1loy4px6","143.csv","","null","resources/images/coin2.png","null","",NA,NA,NA,NA,""
"image-keyboard-response",161,208153,"0.0-3.50-0.50","etopr6r1loy4px6","143.csv","","2211","resources/trios/L4T2A1.jpg","39","restless",0.4,0.4,0.5,0.460280955714538,"true"
"image-keyboard-response",162,208568,"0.0-3.50-1.50","etopr6r1loy4px6","143.csv","","null","resources/maskTrios/BBA1.jpg","null","",NA,NA,NA,NA,""
"image-keyboard-response",163,209776,"0.0-3.50-2.50","etopr6r1loy4px6","143.csv","","null","resources/images/coin2.png","null","",NA,NA,NA,NA,""
"image-keyboard-response",164,212610,"0.0-3.51-0.51","etopr6r1loy4px6","143.csv","","2832.5","resources/trios/L1T2A2.jpg","38","restless",0.4,0.4,0.5,0.620110984719743,"false"
"image-keyboard-response",165,213018,"0.0-3.51-1.51","etopr6r1loy4px6","143.csv","","null","resources/maskTrios/BT2B.jpg","null","",NA,NA,NA,NA,""
"image-keyboard-response",166,214229,"0.0-3.51-2.51","etopr6r1loy4px6","143.csv","","null","resources/images/fishbone.png","null","",NA,NA,NA,NA,""
"image-keyboard-response",167,216462,"0.0-3.52-0.52","etopr6r1loy4px6","143.csv","","2230.5999999046326","resources/trios/L1T2A2.jpg","38","restless",0.4,0.4,0.5,0.772752941169886,"false"
"image-keyboard-response",168,216865,"0.0-3.52-1.52","etopr6r1loy4px6","143.csv","","null","resources/maskTrios/BT2B.jpg","null","",NA,NA,NA,NA,""
"image-keyboard-response",169,218075,"0.0-3.52-2.52","etopr6r1loy4px6","143.csv","","null","resources/images/fishbone.png","null","",NA,NA,NA,NA,""
"image-keyboard-response",170,222478,"0.0-3.53-0.53","etopr6r1loy4px6","143.csv","","4400.700000047684","resources/trios/L1T4A2.jpg","37","restless",0.4,0.4,0.6,0.716145776755502,"false"
"image-keyboard-response",171,222890,"0.0-3.53-1.53","etopr6r1loy4px6","143.csv","","null","resources/maskTrios/L1BB.jpg","null","",NA,NA,NA,NA,""
"image-keyboard-response",172,224105,"0.0-3.53-2.53","etopr6r1loy4px6","143.csv","","null","resources/images/fishbone.png","null","",NA,NA,NA,NA,""
"image-keyboard-response",173,228446,"0.0-3.54-0.54","etopr6r1loy4px6","143.csv","","4339.700000047684","resources/trios/L4T2A1.jpg","39","restless",0.4,0.4,0.6,0.441909604525921,"true"
"image-keyboard-response",174,228849,"0.0-3.54-1.54","etopr6r1loy4px6","143.csv","","null","resources/maskTrios/BBA1.jpg","null","",NA,NA,NA,NA,""
"image-keyboard-response",175,230052,"0.0-3.54-2.54","etopr6r1loy4px6","143.csv","","null","resources/images/coin2.png","null","",NA,NA,NA,NA,""
"image-keyboard-response",176,236431,"0.0-3.55-0.55","etopr6r1loy4px6","143.csv","","6377.400000095367","resources/trios/L1T2A1.jpg","39","restless",0.4,0.4,0.6,0.503089521071197,"true"
"image-keyboard-response",177,236841,"0.0-3.55-1.55","etopr6r1loy4px6","143.csv","","null","resources/maskTrios/BBA1.jpg","null","",NA,NA,NA,NA,""
"image-keyboard-response",178,238064,"0.0-3.55-2.55","etopr6r1loy4px6","143.csv","","null","resources/images/coin2.png","null","",NA,NA,NA,NA,""
"image-keyboard-response",179,239051,"0.0-3.56-0.56","etopr6r1loy4px6","143.csv","","984.3999999761581","resources/trios/L1T2A1.jpg","39","restless",0.4,0.5,0.5,0.460124469486962,"true"
"image-keyboard-response",180,239469,"0.0-3.56-1.56","etopr6r1loy4px6","143.csv","","null","resources/maskTrios/BBA1.jpg","null","",NA,NA,NA,NA,""
"image-keyboard-response",181,240674,"0.0-3.56-2.56","etopr6r1loy4px6","143.csv","","null","resources/images/coin2.png","null","",NA,NA,NA,NA,""
"image-keyboard-response",182,241476,"0.0-3.57-0.57","etopr6r1loy4px6","143.csv","","800.2000000476837","resources/trios/L1T2A2.jpg","39","restless",0.4,0.5,0.5,0.581600899750656,"false"
"image-keyboard-response",183,241897,"0.0-3.57-1.57","etopr6r1loy4px6","143.csv","","null","resources/maskTrios/BBA2.jpg","null","",NA,NA,NA,NA,""
"image-keyboard-response",184,243101,"0.0-3.57-2.57","etopr6r1loy4px6","143.csv","","null","resources/images/fishbone.png","null","",NA,NA,NA,NA,""
"image-keyboard-response",185,243875,"0.0-3.58-0.58","etopr6r1loy4px6","143.csv","","772","resources/trios/L4T4A1.jpg","39","restless",0.4,0.5,0.5,0.478823194450814,"true"
"image-keyboard-response",186,244287,"0.0-3.58-1.58","etopr6r1loy4px6","143.csv","","null","resources/maskTrios/BBA1.jpg","null","",NA,NA,NA,NA,""
"image-keyboard-response",187,245491,"0.0-3.58-2.58","etopr6r1loy4px6","143.csv","","null","resources/images/coin2.png","null","",NA,NA,NA,NA,""
"image-keyboard-response",188,248000,"0.0-3.59-0.59","etopr6r1loy4px6","143.csv","","2507.2000000476837","resources/trios/L1T2A2.jpg","37","restless",0.4,0.5,0.5,0.0393596157200684,"true"
"image-keyboard-response",189,248419,"0.0-3.59-1.59","etopr6r1loy4px6","143.csv","","null","resources/maskTrios/L1BB.jpg","null","",NA,NA,NA,NA,""
"image-keyboard-response",190,249633,"0.0-3.59-2.59","etopr6r1loy4px6","143.csv","","null","resources/images/coin2.png","null","",NA,NA,NA,NA,""
"image-keyboard-response",191,251449,"0.0-3.60-0.60","etopr6r1loy4px6","143.csv","","1814.8999999761581","resources/trios/L1T2A2.jpg","37","restless",0.4,0.5,0.5,0.766817781833601,"false"
"image-keyboard-response",192,251865,"0.0-3.60-1.60","etopr6r1loy4px6","143.csv","","null","resources/maskTrios/L1BB.jpg","null","",NA,NA,NA,NA,""
"image-keyboard-response",193,253069,"0.0-3.60-2.60","etopr6r1loy4px6","143.csv","","null","resources/images/fishbone.png","null","",NA,NA,NA,NA,""
"image-keyboard-response",194,255412,"0.0-3.61-0.61","etopr6r1loy4px6","143.csv","","2341.5","resources/trios/L1T4A2.jpg","38","restless",0.4,0.5,0.5,0.770239148101875,"false"
"image-keyboard-response",195,255823,"0.0-3.61-1.61","etopr6r1loy4px6","143.csv","","null","resources/maskTrios/BT4B.jpg","null","",NA,NA,NA,NA,""
"image-keyboard-response",196,257047,"0.0-3.61-2.61","etopr6r1loy4px6","143.csv","","null","resources/images/fishbone.png","null","",NA,NA,NA,NA,""
"image-keyboard-response",197,257667,"0.0-3.62-0.62","etopr6r1loy4px6","143.csv","","618.1999999284744","resources/trios/L1T2A2.jpg","37","restless",0.3,0.5,0.5,0.335803457325785,"false"
"image-keyboard-response",198,258073,"0.0-3.62-1.62","etopr6r1loy4px6","143.csv","","null","resources/maskTrios/L1BB.jpg","null","",NA,NA,NA,NA,""
"image-keyboard-response",199,259280,"0.0-3.62-2.62","etopr6r1loy4px6","143.csv","","null","resources/images/fishbone.png","null","",NA,NA,NA,NA,""
"image-keyboard-response",200,259665,"0.0-3.63-0.63","etopr6r1loy4px6","143.csv","","383.2000000476837","resources/trios/L4T2A1.jpg","39","restless",0.3,0.5,0.5,0.651843940513292,"false"
"image-keyboard-response",201,260080,"0.0-3.63-1.63","etopr6r1loy4px6","143.csv","","null","resources/maskTrios/BBA1.jpg","null","",NA,NA,NA,NA,""
"image-keyboard-response",202,261291,"0.0-3.63-2.63","etopr6r1loy4px6","143.csv","","null","resources/images/fishbone.png","null","",NA,NA,NA,NA,""
"image-keyboard-response",203,264721,"0.0-3.64-0.64","etopr6r1loy4px6","143.csv","","3428.2000000476837","resources/trios/L1T2A2.jpg","38","restless",0.3,0.5,0.6,0.391104443767631,"true"
"image-keyboard-response",204,265136,"0.0-3.64-1.64","etopr6r1loy4px6","143.csv","","null","resources/maskTrios/BT2B.jpg","null","",NA,NA,NA,NA,""
"image-keyboard-response",205,266359,"0.0-3.64-2.64","etopr6r1loy4px6","143.csv","","null","resources/images/coin2.png","null","",NA,NA,NA,NA,""
"image-keyboard-response",206,267047,"0.0-3.65-0.65","etopr6r1loy4px6","143.csv","","686","resources/trios/L4T2A2.jpg","38","restless",0.3,0.5,0.6,0.96210171085173,"false"
"image-keyboard-response",207,267464,"0.0-3.65-1.65","etopr6r1loy4px6","143.csv","","null","resources/maskTrios/BT2B.jpg","null","",NA,NA,NA,NA,""
"image-keyboard-response",208,268683,"0.0-3.65-2.65","etopr6r1loy4px6","143.csv","","null","resources/images/fishbone.png","null","",NA,NA,NA,NA,""
"image-keyboard-response",209,273250,"0.0-3.66-0.66","etopr6r1loy4px6","143.csv","","4565.800000071526","resources/trios/L1T4A2.jpg","37","restless",0.3,0.6,0.6,0.274127361139509,"true"
"image-keyboard-response",210,273666,"0.0-3.66-1.66","etopr6r1loy4px6","143.csv","","null","resources/maskTrios/L1BB.jpg","null","",NA,NA,NA,NA,""
"image-keyboard-response",211,274872,"0.0-3.66-2.66","etopr6r1loy4px6","143.csv","","null","resources/images/coin2.png","null","",NA,NA,NA,NA,""
"image-keyboard-response",212,278793,"0.0-3.67-0.67","etopr6r1loy4px6","143.csv","","3919.2999999523163","resources/trios/L1T2A1.jpg","37","restless",0.3,0.6,0.6,0.928880760126816,"false"
"image-keyboard-response",213,279200,"0.0-3.67-1.67","etopr6r1loy4px6","143.csv","","null","resources/maskTrios/L1BB.jpg","null","",NA,NA,NA,NA,""
"image-keyboard-response",214,280404,"0.0-3.67-2.67","etopr6r1loy4px6","143.csv","","null","resources/images/fishbone.png","null","",NA,NA,NA,NA,""
"image-keyboard-response",215,281375,"0.0-3.68-0.68","etopr6r1loy4px6","143.csv","","968.7000000476837","resources/trios/L1T4A1.jpg","39","restless",0.3,0.7,0.6,0.532275683846833,"true"
"image-keyboard-response",216,281786,"0.0-3.68-1.68","etopr6r1loy4px6","143.csv","","null","resources/maskTrios/BBA1.jpg","null","",NA,NA,NA,NA,""
"image-keyboard-response",217,282993,"0.0-3.68-2.68","etopr6r1loy4px6","143.csv","","null","resources/images/coin2.png","null","",NA,NA,NA,NA,""
"image-keyboard-response",218,283708,"0.0-3.69-0.69","etopr6r1loy4px6","143.csv","","713","resources/trios/L4T2A1.jpg","39","restless",0.3,0.7,0.7,0.306007563805955,"true"
"image-keyboard-response",219,284115,"0.0-3.69-1.69","etopr6r1loy4px6","143.csv","","null","resources/maskTrios/BBA1.jpg","null","",NA,NA,NA,NA,""
"image-keyboard-response",220,285320,"0.0-3.69-2.69","etopr6r1loy4px6","143.csv","","null","resources/images/coin2.png","null","",NA,NA,NA,NA,""
"image-keyboard-response",221,286951,"0.0-3.70-0.70","etopr6r1loy4px6","143.csv","","1628.1000000238419","resources/trios/L1T4A1.jpg","39","restless",0.3,0.7,0.7,0.654968096822244,"true"
"image-keyboard-response",222,287363,"0.0-3.70-1.70","etopr6r1loy4px6","143.csv","","null","resources/maskTrios/BBA1.jpg","null","",NA,NA,NA,NA,""
"image-keyboard-response",223,288580,"0.0-3.70-2.70","etopr6r1loy4px6","143.csv","","null","resources/images/coin2.png","null","",NA,NA,NA,NA,""
"image-keyboard-response",224,290206,"0.0-3.71-0.71","etopr6r1loy4px6","143.csv","","1624.3999999761581","resources/trios/L4T2A1.jpg","39","restless",0.2,0.7,0.7,0.994801634292344,"false"
"image-keyboard-response",225,290626,"0.0-3.71-1.71","etopr6r1loy4px6","143.csv","","null","resources/maskTrios/BBA1.jpg","null","",NA,NA,NA,NA,""
"image-keyboard-response",226,291829,"0.0-3.71-2.71","etopr6r1loy4px6","143.csv","","null","resources/images/fishbone.png","null","",NA,NA,NA,NA,""
"image-keyboard-response",227,292932,"0.0-3.72-0.72","etopr6r1loy4px6","143.csv","","1100.3000000715256","resources/trios/L4T2A1.jpg","37","restless",0.2,0.7,0.7,0.865002705545999,"false"
"image-keyboard-response",228,293343,"0.0-3.72-1.72","etopr6r1loy4px6","143.csv","","null","resources/maskTrios/L4BB.jpg","null","",NA,NA,NA,NA,""
"image-keyboard-response",229,294553,"0.0-3.72-2.72","etopr6r1loy4px6","143.csv","","null","resources/images/fishbone.png","null","",NA,NA,NA,NA,""
"image-keyboard-response",230,296208,"0.0-3.73-0.73","etopr6r1loy4px6","143.csv","","1652.6999999284744","resources/trios/L4T2A2.jpg","37","restless",0.2,0.7,0.7,0.840796653937919,"false"
"image-keyboard-response",231,296618,"0.0-3.73-1.73","etopr6r1loy4px6","143.csv","","null","resources/maskTrios/L4BB.jpg","null","",NA,NA,NA,NA,""
"image-keyboard-response",232,297829,"0.0-3.73-2.73","etopr6r1loy4px6","143.csv","","null","resources/images/fishbone.png","null","",NA,NA,NA,NA,""
"image-keyboard-response",233,299927,"0.0-3.74-0.74","etopr6r1loy4px6","143.csv","","2095.5","resources/trios/L1T2A1.jpg","38","restless",0.2,0.7,0.7,0.61442595657312,"true"
"image-keyboard-response",234,300343,"0.0-3.74-1.74","etopr6r1loy4px6","143.csv","","null","resources/maskTrios/BT2B.jpg","null","",NA,NA,NA,NA,""
"image-keyboard-response",235,301548,"0.0-3.74-2.74","etopr6r1loy4px6","143.csv","","null","resources/images/coin2.png","null","",NA,NA,NA,NA,""
"image-keyboard-response",236,302078,"0.0-3.75-0.75","etopr6r1loy4px6","143.csv","","528.1999999284744","resources/trios/L1T2A1.jpg","38","restless",0.3,0.7,0.7,0.607811121645128,"true"
"image-keyboard-response",237,302499,"0.0-3.75-1.75","etopr6r1loy4px6","143.csv","","null","resources/maskTrios/BT2B.jpg","null","",NA,NA,NA,NA,""
"image-keyboard-response",238,303708,"0.0-3.75-2.75","etopr6r1loy4px6","143.csv","","null","resources/images/coin2.png","null","",NA,NA,NA,NA,""
"image-keyboard-response",239,304898,"0.0-3.76-0.76","etopr6r1loy4px6","143.csv","","1187.6999999284744","resources/trios/L4T4A1.jpg","39","restless",0.3,0.7,0.7,0.439194212799675,"true"
"image-keyboard-response",240,305315,"0.0-3.76-1.76","etopr6r1loy4px6","143.csv","","null","resources/maskTrios/BBA1.jpg","null","",NA,NA,NA,NA,""
"image-keyboard-response",241,306532,"0.0-3.76-2.76","etopr6r1loy4px6","143.csv","","null","resources/images/coin2.png","null","",NA,NA,NA,NA,""
"image-keyboard-response",242,309238,"0.0-3.77-0.77","etopr6r1loy4px6","143.csv","","2704.5","resources/trios/L1T4A2.jpg","38","restless",0.3,0.7,0.7,0.0316732150212178,"true"
"image-keyboard-response",243,309644,"0.0-3.77-1.77","etopr6r1loy4px6","143.csv","","null","resources/maskTrios/BT4B.jpg","null","",NA,NA,NA,NA,""
"image-keyboard-response",244,310857,"0.0-3.77-2.77","etopr6r1loy4px6","143.csv","","null","resources/images/coin2.png","null","",NA,NA,NA,NA,""
"image-keyboard-response",245,313620,"0.0-3.78-0.78","etopr6r1loy4px6","143.csv","","2761","resources/trios/L4T4A2.jpg","37","restless",0.3,0.7,0.7,0.500595244281552,"false"
"image-keyboard-response",246,314025,"0.0-3.78-1.78","etopr6r1loy4px6","143.csv","","null","resources/maskTrios/L4BB.jpg","null","",NA,NA,NA,NA,""
"image-keyboard-response",247,315243,"0.0-3.78-2.78","etopr6r1loy4px6","143.csv","","null","resources/images/fishbone.png","null","",NA,NA,NA,NA,""
"image-keyboard-response",248,316375,"0.0-3.79-0.79","etopr6r1loy4px6","143.csv","","1129.2999999523163","resources/trios/L1T4A2.jpg","38","restless",0.3,0.7,0.7,0.0406216189439665,"true"
"image-keyboard-response",249,316783,"0.0-3.79-1.79","etopr6r1loy4px6","143.csv","","null","resources/maskTrios/BT4B.jpg","null","",NA,NA,NA,NA,""
"image-keyboard-response",250,318005,"0.0-3.79-2.79","etopr6r1loy4px6","143.csv","","null","resources/images/coin2.png","null","",NA,NA,NA,NA,""
"image-keyboard-response",251,318512,"0.0-3.80-0.80","etopr6r1loy4px6","143.csv","","504","resources/trios/L4T4A2.jpg","38","restless",0.3,0.7,0.7,0.416877350405089,"true"
"image-keyboard-response",252,318925,"0.0-3.80-1.80","etopr6r1loy4px6","143.csv","","null","resources/maskTrios/BT4B.jpg","null","",NA,NA,NA,NA,""
"image-keyboard-response",253,320141,"0.0-3.80-2.80","etopr6r1loy4px6","143.csv","","null","resources/images/coin2.png","null","",NA,NA,NA,NA,""
"image-keyboard-response",254,322666,"0.0-3.81-0.81","etopr6r1loy4px6","143.csv","","2522.399999976158","resources/trios/L4T4A1.jpg","39","restless",0.3,0.7,0.7,0.452286715681914,"true"
"image-keyboard-response",255,323075,"0.0-3.81-1.81","etopr6r1loy4px6","143.csv","","null","resources/maskTrios/BBA1.jpg","null","",NA,NA,NA,NA,""
"image-keyboard-response",256,324289,"0.0-3.81-2.81","etopr6r1loy4px6","143.csv","","null","resources/images/coin2.png","null","",NA,NA,NA,NA,""
"image-keyboard-response",257,332342,"0.0-3.82-0.82","etopr6r1loy4px6","143.csv","","8051.799999952316","resources/trios/L4T2A2.jpg","37","restless",0.3,0.7,0.7,0.036094536897348,"true"
"image-keyboard-response",258,332758,"0.0-3.82-1.82","etopr6r1loy4px6","143.csv","","null","resources/maskTrios/L4BB.jpg","null","",NA,NA,NA,NA,""
"image-keyboard-response",259,333975,"0.0-3.82-2.82","etopr6r1loy4px6","143.csv","","null","resources/images/coin2.png","null","",NA,NA,NA,NA,""
"image-keyboard-response",260,338220,"0.0-3.83-0.83","etopr6r1loy4px6","143.csv","","4243.5","resources/trios/L4T2A2.jpg","37","restless",0.3,0.7,0.7,0.0858655670439572,"true"
"image-keyboard-response",261,338623,"0.0-3.83-1.83","etopr6r1loy4px6","143.csv","","null","resources/maskTrios/L4BB.jpg","null","",NA,NA,NA,NA,""
"image-keyboard-response",262,339826,"0.0-3.83-2.83","etopr6r1loy4px6","143.csv","","null","resources/images/coin2.png","null","",NA,NA,NA,NA,""
"image-keyboard-response",263,342223,"0.0-3.84-0.84","etopr6r1loy4px6","143.csv","","2394.7000000476837","resources/trios/L1T2A2.jpg","38","restless",0.3,0.7,0.7,0.0222402662499057,"true"
"image-keyboard-response",264,342640,"0.0-3.84-1.84","etopr6r1loy4px6","143.csv","","null","resources/maskTrios/BT2B.jpg","null","",NA,NA,NA,NA,""
"image-keyboard-response",265,343843,"0.0-3.84-2.84","etopr6r1loy4px6","143.csv","","null","resources/images/coin2.png","null","",NA,NA,NA,NA,""
"image-keyboard-response",266,346836,"0.0-3.85-0.85","etopr6r1loy4px6","143.csv","","2991.100000023842","resources/trios/L4T2A1.jpg","39","restless",0.2,0.6,0.7,0.877136629103718,"false"
"image-keyboard-response",267,347254,"0.0-3.85-1.85","etopr6r1loy4px6","143.csv","","null","resources/maskTrios/BBA1.jpg","null","",NA,NA,NA,NA,""
"image-keyboard-response",268,348457,"0.0-3.85-2.85","etopr6r1loy4px6","143.csv","","null","resources/images/fishbone.png","null","",NA,NA,NA,NA,""
"image-keyboard-response",269,349651,"0.0-3.86-0.86","etopr6r1loy4px6","143.csv","","1192.4000000953674","resources/trios/L1T2A2.jpg","38","restless",0.2,0.6,0.7,0.0128072398884842,"true"
"image-keyboard-response",270,350072,"0.0-3.86-1.86","etopr6r1loy4px6","143.csv","","null","resources/maskTrios/BT2B.jpg","null","",NA,NA,NA,NA,""
"image-keyboard-response",271,351283,"0.0-3.86-2.86","etopr6r1loy4px6","143.csv","","null","resources/images/coin2.png","null","",NA,NA,NA,NA,""
"image-keyboard-response",272,352579,"0.0-3.87-0.87","etopr6r1loy4px6","143.csv","","1293.8999999761581","resources/trios/L4T2A2.jpg","38","restless",0.2,0.6,0.8,0.357293696283945,"true"
"image-keyboard-response",273,352988,"0.0-3.87-1.87","etopr6r1loy4px6","143.csv","","null","resources/maskTrios/BT2B.jpg","null","",NA,NA,NA,NA,""
"image-keyboard-response",274,354205,"0.0-3.87-2.87","etopr6r1loy4px6","143.csv","","null","resources/images/coin2.png","null","",NA,NA,NA,NA,""
"image-keyboard-response",275,357882,"0.0-3.88-0.88","etopr6r1loy4px6","143.csv","","3675.5999999046326","resources/trios/L4T4A1.jpg","39","restless",0.3,0.6,0.8,0.191058825803186,"true"
"image-keyboard-response",276,358293,"0.0-3.88-1.88","etopr6r1loy4px6","143.csv","","null","resources/maskTrios/BBA1.jpg","null","",NA,NA,NA,NA,""
"image-keyboard-response",277,359495,"0.0-3.88-2.88","etopr6r1loy4px6","143.csv","","null","resources/images/coin2.png","null","",NA,NA,NA,NA,""
"image-keyboard-response",278,365832,"0.0-3.89-0.89","etopr6r1loy4px6","143.csv","","6334.5","resources/trios/L1T4A2.jpg","37","restless",0.3,0.6,0.8,0.684497340470023,"false"
"image-keyboard-response",279,366247,"0.0-3.89-1.89","etopr6r1loy4px6","143.csv","","null","resources/maskTrios/L1BB.jpg","null","",NA,NA,NA,NA,""
"image-keyboard-response",280,367461,"0.0-3.89-2.89","etopr6r1loy4px6","143.csv","","null","resources/images/fishbone.png","null","",NA,NA,NA,NA,""
"image-keyboard-response",281,369149,"0.0-3.90-0.90","etopr6r1loy4px6","143.csv","","1686.1000000238419","resources/trios/L4T4A1.jpg","39","restless",0.3,0.6,0.8,0.522921785234854,"true"
"image-keyboard-response",282,369571,"0.0-3.90-1.90","etopr6r1loy4px6","143.csv","","null","resources/maskTrios/BBA1.jpg","null","",NA,NA,NA,NA,""
"image-keyboard-response",283,370776,"0.0-3.90-2.90","etopr6r1loy4px6","143.csv","","null","resources/images/coin2.png","null","",NA,NA,NA,NA,""
"image-keyboard-response",284,371725,"0.0-3.91-0.91","etopr6r1loy4px6","143.csv","","946.8000000715256","resources/trios/L4T4A2.jpg","38","restless",0.4,0.6,0.8,0.00581804339388969,"true"
"image-keyboard-response",285,372138,"0.0-3.91-1.91","etopr6r1loy4px6","143.csv","","null","resources/maskTrios/BT4B.jpg","null","",NA,NA,NA,NA,""
"image-keyboard-response",286,373342,"0.0-3.91-2.91","etopr6r1loy4px6","143.csv","","null","resources/images/coin2.png","null","",NA,NA,NA,NA,""
"image-keyboard-response",287,375351,"0.0-3.92-0.92","etopr6r1loy4px6","143.csv","","2007.6000000238419","resources/trios/L4T4A1.jpg","39","restless",0.4,0.6,0.8,0.470115132469248,"true"
"image-keyboard-response",288,375754,"0.0-3.92-1.92","etopr6r1loy4px6","143.csv","","null","resources/maskTrios/BBA1.jpg","null","",NA,NA,NA,NA,""
"image-keyboard-response",289,376961,"0.0-3.92-2.92","etopr6r1loy4px6","143.csv","","null","resources/images/coin2.png","null","",NA,NA,NA,NA,""
"image-keyboard-response",290,382382,"0.0-3.93-0.93","etopr6r1loy4px6","143.csv","","5418.600000023842","resources/trios/L1T2A2.jpg","38","restless",0.4,0.6,0.7,0.538018580350986,"true"
"image-keyboard-response",291,382795,"0.0-3.93-1.93","etopr6r1loy4px6","143.csv","","null","resources/maskTrios/BT2B.jpg","null","",NA,NA,NA,NA,""
"image-keyboard-response",292,384000,"0.0-3.93-2.93","etopr6r1loy4px6","143.csv","","null","resources/images/coin2.png","null","",NA,NA,NA,NA,""
"image-keyboard-response",293,385968,"0.0-3.94-0.94","etopr6r1loy4px6","143.csv","","1965.6999999284744","resources/trios/L1T4A2.jpg","38","restless",0.4,0.6,0.7,0.0961076965003034,"true"
"image-keyboard-response",294,386374,"0.0-3.94-1.94","etopr6r1loy4px6","143.csv","","null","resources/maskTrios/BT4B.jpg","null","",NA,NA,NA,NA,""
"image-keyboard-response",295,387593,"0.0-3.94-2.94","etopr6r1loy4px6","143.csv","","null","resources/images/coin2.png","null","",NA,NA,NA,NA,""
"image-keyboard-response",296,388365,"0.0-3.95-0.95","etopr6r1loy4px6","143.csv","","769.8000000715256","resources/trios/L4T2A1.jpg","38","restless",0.4,0.6,0.7,0.647526754710797,"false"
"image-keyboard-response",297,388798,"0.0-3.95-1.95","etopr6r1loy4px6","143.csv","","null","resources/maskTrios/BT2B.jpg","null","",NA,NA,NA,NA,""
"image-keyboard-response",298,390002,"0.0-3.95-2.95","etopr6r1loy4px6","143.csv","","null","resources/images/fishbone.png","null","",NA,NA,NA,NA,""
"image-keyboard-response",299,392270,"0.0-3.96-0.96","etopr6r1loy4px6","143.csv","","2265.899999976158","resources/trios/L4T2A2.jpg","37","restless",0.4,0.5,0.7,0.0139507295660291,"true"
"image-keyboard-response",300,392675,"0.0-3.96-1.96","etopr6r1loy4px6","143.csv","","null","resources/maskTrios/L4BB.jpg","null","",NA,NA,NA,NA,""
"image-keyboard-response",301,393891,"0.0-3.96-2.96","etopr6r1loy4px6","143.csv","","null","resources/images/coin2.png","null","",NA,NA,NA,NA,""
"image-keyboard-response",302,395502,"0.0-3.97-0.97","etopr6r1loy4px6","143.csv","","1609.6000000238419","resources/trios/L1T2A1.jpg","39","restless",0.4,0.5,0.7,0.226358539376301,"true"
"image-keyboard-response",303,395907,"0.0-3.97-1.97","etopr6r1loy4px6","143.csv","","null","resources/maskTrios/BBA1.jpg","null","",NA,NA,NA,NA,""
"image-keyboard-response",304,397116,"0.0-3.97-2.97","etopr6r1loy4px6","143.csv","","null","resources/images/coin2.png","null","",NA,NA,NA,NA,""
"image-keyboard-response",305,398809,"0.0-3.98-0.98","etopr6r1loy4px6","143.csv","","1690.8999999761581","resources/trios/L4T2A1.jpg","39","restless",0.4,0.5,0.7,0.80268136604803,"false"
"image-keyboard-response",306,399218,"0.0-3.98-1.98","etopr6r1loy4px6","143.csv","","null","resources/maskTrios/BBA1.jpg","null","",NA,NA,NA,NA,""
"image-keyboard-response",307,400422,"0.0-3.98-2.98","etopr6r1loy4px6","143.csv","","null","resources/images/fishbone.png","null","",NA,NA,NA,NA,""
"image-keyboard-response",308,401667,"0.0-3.99-0.99","etopr6r1loy4px6","143.csv","","1242.6000000238419","resources/trios/L1T2A2.jpg","38","restless",0.4,0.5,0.7,0.868740089628254,"false"
"image-keyboard-response",309,402087,"0.0-3.99-1.99","etopr6r1loy4px6","143.csv","","null","resources/maskTrios/BT2B.jpg","null","",NA,NA,NA,NA,""
"image-keyboard-response",310,403299,"0.0-3.99-2.99","etopr6r1loy4px6","143.csv","","null","resources/images/fishbone.png","null","",NA,NA,NA,NA,""
"image-keyboard-response",311,408484,"0.0-3.100-0.100","etopr6r1loy4px6","143.csv","","5182.699999928474","resources/trios/L1T4A2.jpg","37","restless",0.4,0.5,0.7,0.771514694319623,"false"
"image-keyboard-response",312,408893,"0.0-3.100-1.100","etopr6r1loy4px6","143.csv","","null","resources/maskTrios/L1BB.jpg","null","",NA,NA,NA,NA,""
"image-keyboard-response",313,410104,"0.0-3.100-2.100","etopr6r1loy4px6","143.csv","","null","resources/images/fishbone.png","null","",NA,NA,NA,NA,""
"image-keyboard-response",314,411924,"0.0-3.101-0.101","etopr6r1loy4px6","143.csv","","1818.2000000476837","resources/trios/L1T2A1.jpg","38","restless",0.4,0.5,0.7,0.630142481018873,"false"
"image-keyboard-response",315,412331,"0.0-3.101-1.101","etopr6r1loy4px6","143.csv","","null","resources/maskTrios/BT2B.jpg","null","",NA,NA,NA,NA,""
"image-keyboard-response",316,413541,"0.0-3.101-2.101","etopr6r1loy4px6","143.csv","","null","resources/images/fishbone.png","null","",NA,NA,NA,NA,""
"image-keyboard-response",317,414176,"0.0-3.102-0.102","etopr6r1loy4px6","143.csv","","633.7000000476837","resources/trios/L4T2A1.jpg","39","restless",0.4,0.5,0.7,0.987517347738811,"false"
"image-keyboard-response",318,414592,"0.0-3.102-1.102","etopr6r1loy4px6","143.csv","","null","resources/maskTrios/BBA1.jpg","null","",NA,NA,NA,NA,""
"image-keyboard-response",319,415796,"0.0-3.102-2.102","etopr6r1loy4px6","143.csv","","null","resources/images/fishbone.png","null","",NA,NA,NA,NA,""
"image-keyboard-response",320,416636,"0.0-3.103-0.103","etopr6r1loy4px6","143.csv","","838","resources/trios/L4T4A1.jpg","39","restless",0.4,0.5,0.7,0.588109315349883,"true"
"image-keyboard-response",321,417040,"0.0-3.103-1.103","etopr6r1loy4px6","143.csv","","null","resources/maskTrios/BBA1.jpg","null","",NA,NA,NA,NA,""
"image-keyboard-response",322,418251,"0.0-3.103-2.103","etopr6r1loy4px6","143.csv","","null","resources/images/coin2.png","null","",NA,NA,NA,NA,""
"image-keyboard-response",323,418774,"0.0-3.104-0.104","etopr6r1loy4px6","143.csv","","521.1000000238419","resources/trios/L4T4A1.jpg","39","restless",0.4,0.5,0.7,0.288646003346035,"true"
"image-keyboard-response",324,419187,"0.0-3.104-1.104","etopr6r1loy4px6","143.csv","","null","resources/maskTrios/BBA1.jpg","null","",NA,NA,NA,NA,""
"image-keyboard-response",325,420398,"0.0-3.104-2.104","etopr6r1loy4px6","143.csv","","null","resources/images/coin2.png","null","",NA,NA,NA,NA,""
"image-keyboard-response",326,422946,"0.0-3.105-0.105","etopr6r1loy4px6","143.csv","","2546.5","resources/trios/L4T2A2.jpg","38","restless",0.4,0.5,0.7,0.379278260500761,"true"
"image-keyboard-response",327,423360,"0.0-3.105-1.105","etopr6r1loy4px6","143.csv","","null","resources/maskTrios/BT2B.jpg","null","",NA,NA,NA,NA,""
"image-keyboard-response",328,424572,"0.0-3.105-2.105","etopr6r1loy4px6","143.csv","","null","resources/images/coin2.png","null","",NA,NA,NA,NA,""
"image-keyboard-response",329,425367,"0.0-3.106-0.106","etopr6r1loy4px6","143.csv","","791.8999999761581","resources/trios/L1T4A1.jpg","39","restless",0.4,0.5,0.7,0.156842607912892,"true"
"image-keyboard-response",330,425782,"0.0-3.106-1.106","etopr6r1loy4px6","143.csv","","null","resources/maskTrios/BBA1.jpg","null","",NA,NA,NA,NA,""
"image-keyboard-response",331,426998,"0.0-3.106-2.106","etopr6r1loy4px6","143.csv","","null","resources/images/coin2.png","null","",NA,NA,NA,NA,""
"image-keyboard-response",332,438892,"0.0-3.107-0.107","etopr6r1loy4px6","143.csv","","11891.900000095367","resources/trios/L4T2A2.jpg","37","restless",0.4,0.5,0.7,0.728315601021756,"false"
"image-keyboard-response",333,439301,"0.0-3.107-1.107","etopr6r1loy4px6","143.csv","","null","resources/maskTrios/L4BB.jpg","null","",NA,NA,NA,NA,""
"image-keyboard-response",334,440514,"0.0-3.107-2.107","etopr6r1loy4px6","143.csv","","null","resources/images/fishbone.png","null","",NA,NA,NA,NA,""
"image-keyboard-response",335,441323,"0.0-3.108-0.108","etopr6r1loy4px6","143.csv","","807","resources/trios/L4T4A1.jpg","39","restless",0.4,0.5,0.7,0.928986624204885,"false"
"image-keyboard-response",336,441730,"0.0-3.108-1.108","etopr6r1loy4px6","143.csv","","null","resources/maskTrios/BBA1.jpg","null","",NA,NA,NA,NA,""
"image-keyboard-response",337,442948,"0.0-3.108-2.108","etopr6r1loy4px6","143.csv","","null","resources/images/fishbone.png","null","",NA,NA,NA,NA,""
"image-keyboard-response",338,444884,"0.0-3.109-0.109","etopr6r1loy4px6","143.csv","","1934.1000000238419","resources/trios/L1T4A2.jpg","38","restless",0.4,0.5,0.7,0.71286833545851,"false"
"image-keyboard-response",339,445298,"0.0-3.109-1.109","etopr6r1loy4px6","143.csv","","null","resources/maskTrios/BT4B.jpg","null","",NA,NA,NA,NA,""
"image-keyboard-response",340,446519,"0.0-3.109-2.109","etopr6r1loy4px6","143.csv","","null","resources/images/fishbone.png","null","",NA,NA,NA,NA,""
"image-keyboard-response",341,447445,"0.0-3.110-0.110","etopr6r1loy4px6","143.csv","","923.8999999761581","resources/trios/L1T4A1.jpg","39","restless",0.4,0.5,0.7,0.0730051822073556,"true"
"image-keyboard-response",342,447854,"0.0-3.110-1.110","etopr6r1loy4px6","143.csv","","null","resources/maskTrios/BBA1.jpg","null","",NA,NA,NA,NA,""
"image-keyboard-response",343,449062,"0.0-3.110-2.110","etopr6r1loy4px6","143.csv","","null","resources/images/coin2.png","null","",NA,NA,NA,NA,""
"image-keyboard-response",344,452042,"0.0-3.111-0.111","etopr6r1loy4px6","143.csv","","2977.9000000953674","resources/trios/L4T2A2.jpg","38","restless",0.4,0.5,0.7,0.42504227132142,"true"
"image-keyboard-response",345,452461,"0.0-3.111-1.111","etopr6r1loy4px6","143.csv","","null","resources/maskTrios/BT2B.jpg","null","",NA,NA,NA,NA,""
"image-keyboard-response",346,453681,"0.0-3.111-2.111","etopr6r1loy4px6","143.csv","","null","resources/images/coin2.png","null","",NA,NA,NA,NA,""
"image-keyboard-response",347,456469,"0.0-3.112-0.112","etopr6r1loy4px6","143.csv","","2786.2999999523163","resources/trios/L1T2A2.jpg","37","restless",0.4,0.5,0.6,0.69664810390341,"false"
"image-keyboard-response",348,456885,"0.0-3.112-1.112","etopr6r1loy4px6","143.csv","","null","resources/maskTrios/L1BB.jpg","null","",NA,NA,NA,NA,""
"image-keyboard-response",349,458094,"0.0-3.112-2.112","etopr6r1loy4px6","143.csv","","null","resources/images/fishbone.png","null","",NA,NA,NA,NA,""
"image-keyboard-response",350,459463,"0.0-3.113-0.113","etopr6r1loy4px6","143.csv","","1366.3999999761581","resources/trios/L1T2A2.jpg","38","restless",0.4,0.5,0.6,0.476332766105476,"true"
"image-keyboard-response",351,459870,"0.0-3.113-1.113","etopr6r1loy4px6","143.csv","","null","resources/maskTrios/BT2B.jpg","null","",NA,NA,NA,NA,""
"image-keyboard-response",352,461073,"0.0-3.113-2.113","etopr6r1loy4px6","143.csv","","null","resources/images/coin2.png","null","",NA,NA,NA,NA,""
"image-keyboard-response",353,461898,"0.0-3.114-0.114","etopr6r1loy4px6","143.csv","","823.3000000715256","resources/trios/L4T4A1.jpg","39","restless",0.4,0.5,0.6,0.462869750804522,"true"
"image-keyboard-response",354,462310,"0.0-3.114-1.114","etopr6r1loy4px6","143.csv","","null","resources/maskTrios/BBA1.jpg","null","",NA,NA,NA,NA,""
"image-keyboard-response",355,463525,"0.0-3.114-2.114","etopr6r1loy4px6","143.csv","","null","resources/images/coin2.png","null","",NA,NA,NA,NA,""
"image-keyboard-response",356,464769,"0.0-3.115-0.115","etopr6r1loy4px6","143.csv","","1242.5","resources/trios/L1T2A2.jpg","38","restless",0.4,0.5,0.6,0.727324464723005,"false"
"image-keyboard-response",357,465172,"0.0-3.115-1.115","etopr6r1loy4px6","143.csv","","null","resources/maskTrios/BT2B.jpg","null","",NA,NA,NA,NA,""
"image-keyboard-response",358,466379,"0.0-3.115-2.115","etopr6r1loy4px6","143.csv","","null","resources/images/fishbone.png","null","",NA,NA,NA,NA,""
"image-keyboard-response",359,467502,"0.0-3.116-0.116","etopr6r1loy4px6","143.csv","","1121","resources/trios/L4T4A1.jpg","39","restless",0.4,0.5,0.6,0.477645678686907,"true"
"image-keyboard-response",360,467909,"0.0-3.116-1.116","etopr6r1loy4px6","143.csv","","null","resources/maskTrios/BBA1.jpg","null","",NA,NA,NA,NA,""
"image-keyboard-response",361,469125,"0.0-3.116-2.116","etopr6r1loy4px6","143.csv","","null","resources/images/coin2.png","null","",NA,NA,NA,NA,""
"image-keyboard-response",362,469706,"0.0-3.117-0.117","etopr6r1loy4px6","143.csv","","578.8999999761581","resources/trios/L4T2A1.jpg","39","restless",0.5,0.5,0.6,0.804293638136882,"false"
"image-keyboard-response",363,470110,"0.0-3.117-1.117","etopr6r1loy4px6","143.csv","","null","resources/maskTrios/BBA1.jpg","null","",NA,NA,NA,NA,""
"image-keyboard-response",364,471327,"0.0-3.117-2.117","etopr6r1loy4px6","143.csv","","null","resources/images/fishbone.png","null","",NA,NA,NA,NA,""
"image-keyboard-response",365,472769,"0.0-3.118-0.118","etopr6r1loy4px6","143.csv","","1439.6000000238419","resources/trios/L4T4A2.jpg","38","restless",0.5,0.5,0.6,0.168861762399006,"true"
"image-keyboard-response",366,473186,"0.0-3.118-1.118","etopr6r1loy4px6","143.csv","","null","resources/maskTrios/BT4B.jpg","null","",NA,NA,NA,NA,""
"image-keyboard-response",367,474391,"0.0-3.118-2.118","etopr6r1loy4px6","143.csv","","null","resources/images/coin2.png","null","",NA,NA,NA,NA,""
"image-keyboard-response",368,475068,"0.0-3.119-0.119","etopr6r1loy4px6","143.csv","","674.9000000953674","resources/trios/L4T2A1.jpg","38","restless",0.5,0.5,0.6,0.0369020190773315,"true"
"image-keyboard-response",369,475477,"0.0-3.119-1.119","etopr6r1loy4px6","143.csv","","null","resources/maskTrios/BT2B.jpg","null","",NA,NA,NA,NA,""
"image-keyboard-response",370,476681,"0.0-3.119-2.119","etopr6r1loy4px6","143.csv","","null","resources/images/coin2.png","null","",NA,NA,NA,NA,""
"image-keyboard-response",371,477248,"0.0-3.120-0.120","etopr6r1loy4px6","143.csv","","565.6000000238419","resources/trios/L4T2A2.jpg","38","restless",0.5,0.5,0.6,0.313792325698506,"true"
"image-keyboard-response",372,477657,"0.0-3.120-1.120","etopr6r1loy4px6","143.csv","","null","resources/maskTrios/BT2B.jpg","null","",NA,NA,NA,NA,""
"image-keyboard-response",373,478876,"0.0-3.120-2.120","etopr6r1loy4px6","143.csv","","null","resources/images/coin2.png","null","",NA,NA,NA,NA,""
"image-keyboard-response",374,479521,"0.0-3.121-0.121","etopr6r1loy4px6","143.csv","","642.7000000476837","resources/trios/L4T4A1.jpg","39","restless",0.5,0.4,0.7,0.504739300258734,"true"
"image-keyboard-response",375,479924,"0.0-3.121-1.121","etopr6r1loy4px6","143.csv","","null","resources/maskTrios/BBA1.jpg","null","",NA,NA,NA,NA,""
"image-keyboard-response",376,481142,"0.0-3.121-2.121","etopr6r1loy4px6","143.csv","","null","resources/images/coin2.png","null","",NA,NA,NA,NA,""
"image-keyboard-response",377,482588,"0.0-3.122-0.122","etopr6r1loy4px6","143.csv","","1444.8000000715256","resources/trios/L1T4A2.jpg","38","restless",0.5,0.4,0.7,0.267252626993156,"true"
"image-keyboard-response",378,482993,"0.0-3.122-1.122","etopr6r1loy4px6","143.csv","","null","resources/maskTrios/BT4B.jpg","null","",NA,NA,NA,NA,""
"image-keyboard-response",379,484217,"0.0-3.122-2.122","etopr6r1loy4px6","143.csv","","null","resources/images/coin2.png","null","",NA,NA,NA,NA,""
"image-keyboard-response",380,485368,"0.0-3.123-0.123","etopr6r1loy4px6","143.csv","","1147.5","resources/trios/L1T4A2.jpg","38","restless",0.5,0.4,0.7,0.879312984953177,"false"
"image-keyboard-response",381,485774,"0.0-3.123-1.123","etopr6r1loy4px6","143.csv","","null","resources/maskTrios/BT4B.jpg","null","",NA,NA,NA,NA,""
"image-keyboard-response",382,486976,"0.0-3.123-2.123","etopr6r1loy4px6","143.csv","","null","resources/images/fishbone.png","null","",NA,NA,NA,NA,""
"image-keyboard-response",383,488317,"0.0-3.124-0.124","etopr6r1loy4px6","143.csv","","1339.1000000238419","resources/trios/L4T2A2.jpg","38","restless",0.5,0.4,0.7,0.738031848241068,"false"
"image-keyboard-response",384,488733,"0.0-3.124-1.124","etopr6r1loy4px6","143.csv","","null","resources/maskTrios/BT2B.jpg","null","",NA,NA,NA,NA,""
"image-keyboard-response",385,489943,"0.0-3.124-2.124","etopr6r1loy4px6","143.csv","","null","resources/images/fishbone.png","null","",NA,NA,NA,NA,""
"image-keyboard-response",386,491565,"0.0-3.125-0.125","etopr6r1loy4px6","143.csv","","1620.2999999523163","resources/trios/L4T2A1.jpg","39","restless",0.5,0.4,0.7,0.261736673340512,"true"
"image-keyboard-response",387,491979,"0.0-3.125-1.125","etopr6r1loy4px6","143.csv","","null","resources/maskTrios/BBA1.jpg","null","",NA,NA,NA,NA,""
"image-keyboard-response",388,493189,"0.0-3.125-2.125","etopr6r1loy4px6","143.csv","","null","resources/images/coin2.png","null","",NA,NA,NA,NA,""
"image-keyboard-response",389,493604,"0.0-3.126-0.126","etopr6r1loy4px6","143.csv","","413.10000002384186","resources/trios/L1T2A1.jpg","39","restless",0.5,0.4,0.7,0.832984411582058,"false"
"image-keyboard-response",390,494008,"0.0-3.126-1.126","etopr6r1loy4px6","143.csv","","null","resources/maskTrios/BBA1.jpg","null","",NA,NA,NA,NA,""
"image-keyboard-response",391,495216,"0.0-3.126-2.126","etopr6r1loy4px6","143.csv","","null","resources/images/fishbone.png","null","",NA,NA,NA,NA,""
"image-keyboard-response",392,495777,"0.0-3.127-0.127","etopr6r1loy4px6","143.csv","","559.5","resources/trios/L4T4A1.jpg","39","restless",0.5,0.4,0.7,0.75457274428249,"false"
"image-keyboard-response",393,496185,"0.0-3.127-1.127","etopr6r1loy4px6","143.csv","","null","resources/maskTrios/BBA1.jpg","null","",NA,NA,NA,NA,""
"image-keyboard-response",394,497388,"0.0-3.127-2.127","etopr6r1loy4px6","143.csv","","null","resources/images/fishbone.png","null","",NA,NA,NA,NA,""
"image-keyboard-response",395,497943,"0.0-3.128-0.128","etopr6r1loy4px6","143.csv","","552.6000000238419","resources/trios/L4T4A1.jpg","39","restless",0.5,0.4,0.7,0.509794438387235,"true"
"image-keyboard-response",396,498349,"0.0-3.128-1.128","etopr6r1loy4px6","143.csv","","null","resources/maskTrios/BBA1.jpg","null","",NA,NA,NA,NA,""
"image-keyboard-response",397,499568,"0.0-3.128-2.128","etopr6r1loy4px6","143.csv","","null","resources/images/coin2.png","null","",NA,NA,NA,NA,""
"image-keyboard-response",398,500833,"0.0-3.129-0.129","etopr6r1loy4px6","143.csv","","1262.6000000238419","resources/trios/L1T4A2.jpg","37","restless",0.6,0.4,0.6,0.742158705181814,"false"
"image-keyboard-response",399,501240,"0.0-3.129-1.129","etopr6r1loy4px6","143.csv","","null","resources/maskTrios/L1BB.jpg","null","",NA,NA,NA,NA,""
"image-keyboard-response",400,502457,"0.0-3.129-2.129","etopr6r1loy4px6","143.csv","","null","resources/images/fishbone.png","null","",NA,NA,NA,NA,""
"image-keyboard-response",401,503009,"0.0-3.130-0.130","etopr6r1loy4px6","143.csv","","549.8999999761581","resources/trios/L4T2A1.jpg","39","restless",0.6,0.4,0.6,0.714248262564385,"false"
"image-keyboard-response",402,503413,"0.0-3.130-1.130","etopr6r1loy4px6","143.csv","","null","resources/maskTrios/BBA1.jpg","null","",NA,NA,NA,NA,""
"image-keyboard-response",403,504623,"0.0-3.130-2.130","etopr6r1loy4px6","143.csv","","null","resources/images/fishbone.png","null","",NA,NA,NA,NA,""
"image-keyboard-response",404,505168,"0.0-3.131-0.131","etopr6r1loy4px6","143.csv","","542.6000000238419","resources/trios/L1T2A1.jpg","38","restless",0.6,0.3,0.6,0.580600266183777,"false"
"image-keyboard-response",405,505589,"0.0-3.131-1.131","etopr6r1loy4px6","143.csv","","null","resources/maskTrios/BT2B.jpg","null","",NA,NA,NA,NA,""
"image-keyboard-response",406,506792,"0.0-3.131-2.131","etopr6r1loy4px6","143.csv","","null","resources/images/fishbone.png","null","",NA,NA,NA,NA,""
"image-keyboard-response",407,508171,"0.0-3.132-0.132","etopr6r1loy4px6","143.csv","","1377.2000000476837","resources/trios/L1T2A2.jpg","39","restless",0.6,0.3,0.6,0.618536236292632,"false"
"image-keyboard-response",408,508579,"0.0-3.132-1.132","etopr6r1loy4px6","143.csv","","null","resources/maskTrios/BBA2.jpg","null","",NA,NA,NA,NA,""
"image-keyboard-response",409,509785,"0.0-3.132-2.132","etopr6r1loy4px6","143.csv","","null","resources/images/fishbone.png","null","",NA,NA,NA,NA,""
"image-keyboard-response",410,510112,"0.0-3.133-0.133","etopr6r1loy4px6","143.csv","","324.10000002384186","resources/trios/L4T2A1.jpg","38","restless",0.6,0.3,0.6,0.557219342750621,"false"
"image-keyboard-response",411,510523,"0.0-3.133-1.133","etopr6r1loy4px6","143.csv","","null","resources/maskTrios/BT2B.jpg","null","",NA,NA,NA,NA,""
"image-keyboard-response",412,511729,"0.0-3.133-2.133","etopr6r1loy4px6","143.csv","","null","resources/images/fishbone.png","null","",NA,NA,NA,NA,""
"image-keyboard-response",413,512343,"0.0-3.134-0.134","etopr6r1loy4px6","143.csv","","611.0999999046326","resources/trios/L1T2A2.jpg","37","restless",0.6,0.3,0.6,0.992419651170569,"false"
"image-keyboard-response",414,512764,"0.0-3.134-1.134","etopr6r1loy4px6","143.csv","","null","resources/maskTrios/L1BB.jpg","null","",NA,NA,NA,NA,""
"image-keyboard-response",415,513981,"0.0-3.134-2.134","etopr6r1loy4px6","143.csv","","null","resources/images/fishbone.png","null","",NA,NA,NA,NA,""
"image-keyboard-response",416,514760,"0.0-3.135-0.135","etopr6r1loy4px6","143.csv","","776.8999999761581","resources/trios/L1T4A2.jpg","37","restless",0.6,0.2,0.6,0.375293229492904,"true"
"image-keyboard-response",417,515171,"0.0-3.135-1.135","etopr6r1loy4px6","143.csv","","null","resources/maskTrios/L1BB.jpg","null","",NA,NA,NA,NA,""
"image-keyboard-response",418,516390,"0.0-3.135-2.135","etopr6r1loy4px6","143.csv","","null","resources/images/coin2.png","null","",NA,NA,NA,NA,""
"image-keyboard-response",419,518180,"0.0-3.136-0.136","etopr6r1loy4px6","143.csv","","1788.5","resources/trios/L4T2A2.jpg","37","restless",0.6,0.2,0.6,0.0804958237740709,"true"
"image-keyboard-response",420,518585,"0.0-3.136-1.136","etopr6r1loy4px6","143.csv","","null","resources/maskTrios/L4BB.jpg","null","",NA,NA,NA,NA,""
"image-keyboard-response",421,519798,"0.0-3.136-2.136","etopr6r1loy4px6","143.csv","","null","resources/images/coin2.png","null","",NA,NA,NA,NA,""
"image-keyboard-response",422,521278,"0.0-3.137-0.137","etopr6r1loy4px6","143.csv","","1477.8999999761581","resources/trios/L1T4A1.jpg","39","restless",0.6,0.2,0.6,0.783495981761274,"false"
"image-keyboard-response",423,521686,"0.0-3.137-1.137","etopr6r1loy4px6","143.csv","","null","resources/maskTrios/BBA1.jpg","null","",NA,NA,NA,NA,""
"image-keyboard-response",424,522889,"0.0-3.137-2.137","etopr6r1loy4px6","143.csv","","null","resources/images/fishbone.png","null","",NA,NA,NA,NA,""
"image-keyboard-response",425,523830,"0.0-3.138-0.138","etopr6r1loy4px6","143.csv","","938.5","resources/trios/L4T2A1.jpg","39","restless",0.5,0.3,0.6,0.516002641433644,"true"
"image-keyboard-response",426,524252,"0.0-3.138-1.138","etopr6r1loy4px6","143.csv","","null","resources/maskTrios/BBA1.jpg","null","",NA,NA,NA,NA,""
"image-keyboard-response",427,525462,"0.0-3.138-2.138","etopr6r1loy4px6","143.csv","","null","resources/images/coin2.png","null","",NA,NA,NA,NA,""
"image-keyboard-response",428,526162,"0.0-3.139-0.139","etopr6r1loy4px6","143.csv","","697.8999999761581","resources/trios/L4T4A1.jpg","39","restless",0.5,0.2,0.6,0.311978834205928,"true"
"image-keyboard-response",429,526569,"0.0-3.139-1.139","etopr6r1loy4px6","143.csv","","null","resources/maskTrios/BBA1.jpg","null","",NA,NA,NA,NA,""
"image-keyboard-response",430,527774,"0.0-3.139-2.139","etopr6r1loy4px6","143.csv","","null","resources/images/coin2.png","null","",NA,NA,NA,NA,""
"image-keyboard-response",431,530121,"0.0-3.140-0.140","etopr6r1loy4px6","143.csv","","2345.600000023842","resources/trios/L4T2A1.jpg","39","restless",0.5,0.2,0.6,0.0774865086682675,"true"
"image-keyboard-response",432,530535,"0.0-3.140-1.140","etopr6r1loy4px6","143.csv","","null","resources/maskTrios/BBA1.jpg","null","",NA,NA,NA,NA,""
"image-keyboard-response",433,531752,"0.0-3.140-2.140","etopr6r1loy4px6","143.csv","","null","resources/images/coin2.png","null","",NA,NA,NA,NA,""
"image-keyboard-response",434,532669,"0.0-3.141-0.141","etopr6r1loy4px6","143.csv","","914.8000000715256","resources/trios/L4T2A1.jpg","39","restless",0.5,0.2,0.6,0.271181690089649,"true"
"image-keyboard-response",435,533076,"0.0-3.141-1.141","etopr6r1loy4px6","143.csv","","null","resources/maskTrios/BBA1.jpg","null","",NA,NA,NA,NA,""
"image-keyboard-response",436,534281,"0.0-3.141-2.141","etopr6r1loy4px6","143.csv","","null","resources/images/coin2.png","null","",NA,NA,NA,NA,""
"image-keyboard-response",437,537858,"0.0-3.142-0.142","etopr6r1loy4px6","143.csv","","3575","resources/trios/L4T2A2.jpg","38","restless",0.5,0.2,0.6,0.832869172837273,"false"
"image-keyboard-response",438,538277,"0.0-3.142-1.142","etopr6r1loy4px6","143.csv","","null","resources/maskTrios/BT2B.jpg","null","",NA,NA,NA,NA,""
"image-keyboard-response",439,539480,"0.0-3.142-2.142","etopr6r1loy4px6","143.csv","","null","resources/images/fishbone.png","null","",NA,NA,NA,NA,""
"image-keyboard-response",440,540201,"0.0-3.143-0.143","etopr6r1loy4px6","143.csv","","719.7999999523163","resources/trios/L4T2A2.jpg","37","restless",0.5,0.2,0.6,0.137377784768218,"true"
"image-keyboard-response",441,540607,"0.0-3.143-1.143","etopr6r1loy4px6","143.csv","","null","resources/maskTrios/L4BB.jpg","null","",NA,NA,NA,NA,""
"image-keyboard-response",442,541823,"0.0-3.143-2.143","etopr6r1loy4px6","143.csv","","null","resources/images/coin2.png","null","",NA,NA,NA,NA,""
"image-keyboard-response",443,543822,"0.0-3.144-0.144","etopr6r1loy4px6","143.csv","","1996.3000000715256","resources/trios/L1T4A2.jpg","37","restless",0.5,0.2,0.5,0.403040052662603,"true"
"image-keyboard-response",444,544234,"0.0-3.144-1.144","etopr6r1loy4px6","143.csv","","null","resources/maskTrios/L1BB.jpg","null","",NA,NA,NA,NA,""
"image-keyboard-response",445,545450,"0.0-3.144-2.144","etopr6r1loy4px6","143.csv","","null","resources/images/coin2.png","null","",NA,NA,NA,NA,""
"image-keyboard-response",446,546326,"0.0-3.145-0.145","etopr6r1loy4px6","143.csv","","874.2000000476837","resources/trios/L4T4A1.jpg","37","restless",0.5,0.2,0.4,0.287167404678115,"true"
"image-keyboard-response",447,546743,"0.0-3.145-1.145","etopr6r1loy4px6","143.csv","","null","resources/maskTrios/L4BB.jpg","null","",NA,NA,NA,NA,""
"image-keyboard-response",448,547952,"0.0-3.145-2.145","etopr6r1loy4px6","143.csv","","null","resources/images/coin2.png","null","",NA,NA,NA,NA,""
"image-keyboard-response",449,551156,"0.0-3.146-0.146","etopr6r1loy4px6","143.csv","","3201.5","resources/trios/L1T4A2.jpg","37","restless",0.4,0.2,0.4,0.402074865549526,"false"
"image-keyboard-response",450,551566,"0.0-3.146-1.146","etopr6r1loy4px6","143.csv","","null","resources/maskTrios/L1BB.jpg","null","",NA,NA,NA,NA,""
"image-keyboard-response",451,552793,"0.0-3.146-2.146","etopr6r1loy4px6","143.csv","","null","resources/images/fishbone.png","null","",NA,NA,NA,NA,""
"image-keyboard-response",452,554509,"0.0-3.147-0.147","etopr6r1loy4px6","143.csv","","1713.3000000715256","resources/trios/L4T2A1.jpg","39","restless",0.4,0.3,0.4,0.797711498906126,"false"
"image-keyboard-response",453,554919,"0.0-3.147-1.147","etopr6r1loy4px6","143.csv","","null","resources/maskTrios/BBA1.jpg","null","",NA,NA,NA,NA,""
"image-keyboard-response",454,556133,"0.0-3.147-2.147","etopr6r1loy4px6","143.csv","","null","resources/images/fishbone.png","null","",NA,NA,NA,NA,""
"image-keyboard-response",455,556695,"0.0-3.148-0.148","etopr6r1loy4px6","143.csv","","560.1000000238419","resources/trios/L1T2A1.jpg","39","restless",0.4,0.3,0.4,0.44873450755604,"false"
"image-keyboard-response",456,557104,"0.0-3.148-1.148","etopr6r1loy4px6","143.csv","","null","resources/maskTrios/BBA1.jpg","null","",NA,NA,NA,NA,""
"image-keyboard-response",457,558308,"0.0-3.148-2.148","etopr6r1loy4px6","143.csv","","null","resources/images/fishbone.png","null","",NA,NA,NA,NA,""
"image-keyboard-response",458,559672,"0.0-3.149-0.149","etopr6r1loy4px6","143.csv","","1362","resources/trios/L1T4A2.jpg","37","restless",0.4,0.3,0.4,0.416201513607649,"false"
"image-keyboard-response",459,560092,"0.0-3.149-1.149","etopr6r1loy4px6","143.csv","","null","resources/maskTrios/L1BB.jpg","null","",NA,NA,NA,NA,""
"image-keyboard-response",460,561298,"0.0-3.149-2.149","etopr6r1loy4px6","143.csv","","null","resources/images/fishbone.png","null","",NA,NA,NA,NA,""
"image-keyboard-response",461,561816,"0.0-3.150-0.150","etopr6r1loy4px6","143.csv","","515.3999999761581","resources/trios/L1T2A2.jpg","38","restless",0.4,0.3,0.4,0.256990569954958,"true"
"image-keyboard-response",462,562220,"0.0-3.150-1.150","etopr6r1loy4px6","143.csv","","null","resources/maskTrios/BT2B.jpg","null","",NA,NA,NA,NA,""
"image-keyboard-response",463,563425,"0.0-3.150-2.150","etopr6r1loy4px6","143.csv","","null","resources/images/coin2.png","null","",NA,NA,NA,NA,""
"image-keyboard-response",464,564063,"0.0-3.151-0.151","etopr6r1loy4px6","143.csv","","635.5","resources/trios/L1T2A1.jpg","38","restless",0.4,0.4,0.4,0.182669559799402,"true"
"image-keyboard-response",465,564466,"0.0-3.151-1.151","etopr6r1loy4px6","143.csv","","null","resources/maskTrios/BT2B.jpg","null","",NA,NA,NA,NA,""
"image-keyboard-response",466,565672,"0.0-3.151-2.151","etopr6r1loy4px6","143.csv","","null","resources/images/coin2.png","null","",NA,NA,NA,NA,""
"image-keyboard-response",467,576649,"0.0-3.152-0.152","etopr6r1loy4px6","143.csv","","10974.5","resources/trios/L4T4A1.jpg","39","restless",0.5,0.4,0.4,0.601746354046476,"false"
"image-keyboard-response",468,577054,"0.0-3.152-1.152","etopr6r1loy4px6","143.csv","","null","resources/maskTrios/BBA1.jpg","null","",NA,NA,NA,NA,""
"image-keyboard-response",469,578267,"0.0-3.152-2.152","etopr6r1loy4px6","143.csv","","null","resources/images/fishbone.png","null","",NA,NA,NA,NA,""
"image-keyboard-response",470,579051,"0.0-3.153-0.153","etopr6r1loy4px6","143.csv","","782.3000000715256","resources/trios/L1T2A1.jpg","39","restless",0.5,0.4,0.4,0.558968798049955,"false"
"image-keyboard-response",471,579462,"0.0-3.153-1.153","etopr6r1loy4px6","143.csv","","null","resources/maskTrios/BBA1.jpg","null","",NA,NA,NA,NA,""
"image-keyboard-response",472,580680,"0.0-3.153-2.153","etopr6r1loy4px6","143.csv","","null","resources/images/fishbone.png","null","",NA,NA,NA,NA,""
"image-keyboard-response",473,582251,"0.0-3.154-0.154","etopr6r1loy4px6","143.csv","","1568.2999999523163","resources/trios/L1T2A1.jpg","39","restless",0.5,0.4,0.5,0.842518984928105,"false"
"image-keyboard-response",474,582658,"0.0-3.154-1.154","etopr6r1loy4px6","143.csv","","null","resources/maskTrios/BBA1.jpg","null","",NA,NA,NA,NA,""
"image-keyboard-response",475,583873,"0.0-3.154-2.154","etopr6r1loy4px6","143.csv","","null","resources/images/fishbone.png","null","",NA,NA,NA,NA,""
"image-keyboard-response",476,585281,"0.0-3.155-0.155","etopr6r1loy4px6","143.csv","","1406.7000000476837","resources/trios/L1T2A2.jpg","38","restless",0.5,0.4,0.4,0.122700078422051,"true"
"image-keyboard-response",477,585688,"0.0-3.155-1.155","etopr6r1loy4px6","143.csv","","null","resources/maskTrios/BT2B.jpg","null","",NA,NA,NA,NA,""
"image-keyboard-response",478,586916,"0.0-3.155-2.155","etopr6r1loy4px6","143.csv","","null","resources/images/coin2.png","null","",NA,NA,NA,NA,""
"image-keyboard-response",479,589180,"0.0-3.156-0.156","etopr6r1loy4px6","143.csv","","2261.8000000715256","resources/trios/L1T4A1.jpg","39","restless",0.5,0.4,0.4,0.700494501645442,"false"
"image-keyboard-response",480,589596,"0.0-3.156-1.156","etopr6r1loy4px6","143.csv","","null","resources/maskTrios/BBA1.jpg","null","",NA,NA,NA,NA,""
"image-keyboard-response",481,590817,"0.0-3.156-2.156","etopr6r1loy4px6","143.csv","","null","resources/images/fishbone.png","null","",NA,NA,NA,NA,""
"image-keyboard-response",482,591269,"0.0-3.157-0.157","etopr6r1loy4px6","143.csv","","449.89999997615814","resources/trios/L1T2A1.jpg","38","restless",0.5,0.4,0.4,0.714914702349469,"false"
"image-keyboard-response",483,591682,"0.0-3.157-1.157","etopr6r1loy4px6","143.csv","","null","resources/maskTrios/BT2B.jpg","null","",NA,NA,NA,NA,""
"image-keyboard-response",484,592898,"0.0-3.157-2.157","etopr6r1loy4px6","143.csv","","null","resources/images/fishbone.png","null","",NA,NA,NA,NA,""
"image-keyboard-response",485,593529,"0.0-3.158-0.158","etopr6r1loy4px6","143.csv","","629.9000000953674","resources/trios/L4T4A2.jpg","37","restless",0.5,0.4,0.4,0.711123081526587,"false"
"image-keyboard-response",486,593934,"0.0-3.158-1.158","etopr6r1loy4px6","143.csv","","null","resources/maskTrios/L4BB.jpg","null","",NA,NA,NA,NA,""
"image-keyboard-response",487,595155,"0.0-3.158-2.158","etopr6r1loy4px6","143.csv","","null","resources/images/fishbone.png","null","",NA,NA,NA,NA,""
"image-keyboard-response",488,595895,"0.0-3.159-0.159","etopr6r1loy4px6","143.csv","","737.6000000238419","resources/trios/L1T2A2.jpg","38","restless",0.5,0.4,0.4,0.818879659776008,"false"
"image-keyboard-response",489,596314,"0.0-3.159-1.159","etopr6r1loy4px6","143.csv","","null","resources/maskTrios/BT2B.jpg","null","",NA,NA,NA,NA,""
"image-keyboard-response",490,597531,"0.0-3.159-2.159","etopr6r1loy4px6","143.csv","","null","resources/images/fishbone.png","null","",NA,NA,NA,NA,""
"image-keyboard-response",491,598588,"0.0-3.160-0.160","etopr6r1loy4px6","143.csv","","1055.5999999046326","resources/trios/L4T4A1.jpg","39","restless",0.5,0.3,0.4,0.369599745438619,"true"
"image-keyboard-response",492,599006,"0.0-3.160-1.160","etopr6r1loy4px6","143.csv","","null","resources/maskTrios/BBA1.jpg","null","",NA,NA,NA,NA,""
"image-keyboard-response",493,600222,"0.0-3.160-2.160","etopr6r1loy4px6","143.csv","","null","resources/images/coin2.png","null","",NA,NA,NA,NA,""
"image-keyboard-response",494,605707,"0.0-3.161-0.161","etopr6r1loy4px6","143.csv","","5482.900000095367","resources/trios/L1T4A1.jpg","39","restless",0.5,0.3,0.4,0.659983469389872,"false"
"image-keyboard-response",495,606128,"0.0-3.161-1.161","etopr6r1loy4px6","143.csv","","null","resources/maskTrios/BBA1.jpg","null","",NA,NA,NA,NA,""
"image-keyboard-response",496,607338,"0.0-3.161-2.161","etopr6r1loy4px6","143.csv","","null","resources/images/fishbone.png","null","",NA,NA,NA,NA,""
"image-keyboard-response",497,608482,"0.0-3.162-0.162","etopr6r1loy4px6","143.csv","","1141.6000000238419","resources/trios/L1T2A1.jpg","37","restless",0.5,0.4,0.4,0.0295887633930141,"true"
"image-keyboard-response",498,608901,"0.0-3.162-1.162","etopr6r1loy4px6","143.csv","","null","resources/maskTrios/L1BB.jpg","null","",NA,NA,NA,NA,""
"image-keyboard-response",499,610106,"0.0-3.162-2.162","etopr6r1loy4px6","143.csv","","null","resources/images/coin2.png","null","",NA,NA,NA,NA,""
"image-keyboard-response",500,612368,"0.0-3.163-0.163","etopr6r1loy4px6","143.csv","","2261","resources/trios/L4T2A1.jpg","39","restless",0.5,0.4,0.5,0.351338015517361,"true"
"image-keyboard-response",501,612782,"0.0-3.163-1.163","etopr6r1loy4px6","143.csv","","null","resources/maskTrios/BBA1.jpg","null","",NA,NA,NA,NA,""
"image-keyboard-response",502,613998,"0.0-3.163-2.163","etopr6r1loy4px6","143.csv","","null","resources/images/coin2.png","null","",NA,NA,NA,NA,""
"image-keyboard-response",503,615628,"0.0-3.164-0.164","etopr6r1loy4px6","143.csv","","1629","resources/trios/L1T2A2.jpg","37","restless",0.5,0.4,0.5,0.818248214141095,"false"
"image-keyboard-response",504,616037,"0.0-3.164-1.164","etopr6r1loy4px6","143.csv","","null","resources/maskTrios/L1BB.jpg","null","",NA,NA,NA,NA,""
"image-keyboard-response",505,617251,"0.0-3.164-2.164","etopr6r1loy4px6","143.csv","","null","resources/images/fishbone.png","null","",NA,NA,NA,NA,""
"image-keyboard-response",506,617656,"0.0-3.165-0.165","etopr6r1loy4px6","143.csv","","402.5","resources/trios/L4T2A1.jpg","39","restless",0.5,0.4,0.5,0.0865783006884762,"true"
"image-keyboard-response",507,618060,"0.0-3.165-1.165","etopr6r1loy4px6","143.csv","","null","resources/maskTrios/BBA1.jpg","null","",NA,NA,NA,NA,""
"image-keyboard-response",508,619263,"0.0-3.165-2.165","etopr6r1loy4px6","143.csv","","null","resources/images/coin2.png","null","",NA,NA,NA,NA,""
"image-keyboard-response",509,619964,"0.0-3.166-0.166","etopr6r1loy4px6","143.csv","","699","resources/trios/L4T4A1.jpg","39","restless",0.5,0.4,0.5,0.175895543904341,"true"
"image-keyboard-response",510,620377,"0.0-3.166-1.166","etopr6r1loy4px6","143.csv","","null","resources/maskTrios/BBA1.jpg","null","",NA,NA,NA,NA,""
"image-keyboard-response",511,621579,"0.0-3.166-2.166","etopr6r1loy4px6","143.csv","","null","resources/images/coin2.png","null","",NA,NA,NA,NA,""
"image-keyboard-response",512,624207,"0.0-3.167-0.167","etopr6r1loy4px6","143.csv","","2625.3000000715256","resources/trios/L1T4A1.jpg","39","restless",0.5,0.4,0.5,0.90570172468426,"false"
"image-keyboard-response",513,624616,"0.0-3.167-1.167","etopr6r1loy4px6","143.csv","","null","resources/maskTrios/BBA1.jpg","null","",NA,NA,NA,NA,""
"image-keyboard-response",514,625820,"0.0-3.167-2.167","etopr6r1loy4px6","143.csv","","null","resources/images/fishbone.png","null","",NA,NA,NA,NA,""
"image-keyboard-response",515,626329,"0.0-3.168-0.168","etopr6r1loy4px6","143.csv","","507.7000000476837","resources/trios/L4T2A1.jpg","39","restless",0.5,0.4,0.5,0.856985642392583,"false"
"image-keyboard-response",516,626736,"0.0-3.168-1.168","etopr6r1loy4px6","143.csv","","null","resources/maskTrios/BBA1.jpg","null","",NA,NA,NA,NA,""
"image-keyboard-response",517,627951,"0.0-3.168-2.168","etopr6r1loy4px6","143.csv","","null","resources/images/fishbone.png","null","",NA,NA,NA,NA,""
"image-keyboard-response",518,628678,"0.0-3.169-0.169","etopr6r1loy4px6","143.csv","","725.1999999284744","resources/trios/L4T4A2.jpg","38","restless",0.5,0.5,0.5,0.68335446598862,"false"
"image-keyboard-response",519,629098,"0.0-3.169-1.169","etopr6r1loy4px6","143.csv","","null","resources/maskTrios/BT4B.jpg","null","",NA,NA,NA,NA,""
"image-keyboard-response",520,630315,"0.0-3.169-2.169","etopr6r1loy4px6","143.csv","","null","resources/images/fishbone.png","null","",NA,NA,NA,NA,""
"image-keyboard-response",521,630738,"0.0-3.170-0.170","etopr6r1loy4px6","143.csv","","420.7000000476837","resources/trios/L1T4A2.jpg","39","restless",0.5,0.6,0.5,0.468673289627455,"true"
"image-keyboard-response",522,631142,"0.0-3.170-1.170","etopr6r1loy4px6","143.csv","","null","resources/maskTrios/BBA2.jpg","null","",NA,NA,NA,NA,""
"image-keyboard-response",523,632358,"0.0-3.170-2.170","etopr6r1loy4px6","143.csv","","null","resources/images/coin2.png","null","",NA,NA,NA,NA,""
"image-keyboard-response",524,632983,"0.0-3.171-0.171","etopr6r1loy4px6","143.csv","","622.8999999761581","resources/trios/L1T2A1.jpg","39","restless",0.5,0.6,0.5,0.0056448292891409,"true"
"image-keyboard-response",525,633396,"0.0-3.171-1.171","etopr6r1loy4px6","143.csv","","null","resources/maskTrios/BBA1.jpg","null","",NA,NA,NA,NA,""
"image-keyboard-response",526,634600,"0.0-3.171-2.171","etopr6r1loy4px6","143.csv","","null","resources/images/coin2.png","null","",NA,NA,NA,NA,""
"image-keyboard-response",527,634879,"0.0-3.172-0.172","etopr6r1loy4px6","143.csv","","277.39999997615814","resources/trios/L1T2A1.jpg","38","restless",0.5,0.6,0.5,0.694975081086854,"false"
"image-keyboard-response",528,635302,"0.0-3.172-1.172","etopr6r1loy4px6","143.csv","","null","resources/maskTrios/BT2B.jpg","null","",NA,NA,NA,NA,""
"image-keyboard-response",529,636507,"0.0-3.172-2.172","etopr6r1loy4px6","143.csv","","null","resources/images/fishbone.png","null","",NA,NA,NA,NA,""
"image-keyboard-response",530,636749,"0.0-3.173-0.173","etopr6r1loy4px6","143.csv","","239.69999992847443","resources/trios/L1T4A2.jpg","39","restless",0.5,0.6,0.5,0.875545870188482,"false"
"image-keyboard-response",531,637158,"0.0-3.173-1.173","etopr6r1loy4px6","143.csv","","null","resources/maskTrios/BBA2.jpg","null","",NA,NA,NA,NA,""
"image-keyboard-response",532,638360,"0.0-3.173-2.173","etopr6r1loy4px6","143.csv","","null","resources/images/fishbone.png","null","",NA,NA,NA,NA,""
"image-keyboard-response",533,639086,"0.0-3.174-0.174","etopr6r1loy4px6","143.csv","","723.5","resources/trios/L1T4A2.jpg","38","restless",0.5,0.6,0.5,0.850737629000181,"false"
"image-keyboard-response",534,639497,"0.0-3.174-1.174","etopr6r1loy4px6","143.csv","","null","resources/maskTrios/BT4B.jpg","null","",NA,NA,NA,NA,""
"image-keyboard-response",535,640719,"0.0-3.174-2.174","etopr6r1loy4px6","143.csv","","null","resources/images/fishbone.png","null","",NA,NA,NA,NA,""
"image-keyboard-response",536,641080,"0.0-3.175-0.175","etopr6r1loy4px6","143.csv","","359.7000000476837","resources/trios/L1T2A2.jpg","37","restless",0.5,0.6,0.5,0.603433644855713,"false"
"image-keyboard-response",537,641493,"0.0-3.175-1.175","etopr6r1loy4px6","143.csv","","null","resources/maskTrios/L1BB.jpg","null","",NA,NA,NA,NA,""
"image-keyboard-response",538,642709,"0.0-3.175-2.175","etopr6r1loy4px6","143.csv","","null","resources/images/fishbone.png","null","",NA,NA,NA,NA,""
"image-keyboard-response",539,642894,"0.0-3.176-0.176","etopr6r1loy4px6","143.csv","","183.29999995231628","resources/trios/L1T2A2.jpg","37","restless",0.5,0.6,0.5,0.0210754295105611,"true"
"image-keyboard-response",540,643302,"0.0-3.176-1.176","etopr6r1loy4px6","143.csv","","null","resources/maskTrios/L1BB.jpg","null","",NA,NA,NA,NA,""
"image-keyboard-response",541,644507,"0.0-3.176-2.176","etopr6r1loy4px6","143.csv","","null","resources/images/coin2.png","null","",NA,NA,NA,NA,""
"image-keyboard-response",542,644942,"0.0-3.177-0.177","etopr6r1loy4px6","143.csv","","433.1999999284744","resources/trios/L1T4A2.jpg","37","restless",0.5,0.6,0.5,0.457299728160389,"true"
"image-keyboard-response",543,645361,"0.0-3.177-1.177","etopr6r1loy4px6","143.csv","","null","resources/maskTrios/L1BB.jpg","null","",NA,NA,NA,NA,""
"image-keyboard-response",544,646574,"0.0-3.177-2.177","etopr6r1loy4px6","143.csv","","null","resources/images/coin2.png","null","",NA,NA,NA,NA,""
"image-keyboard-response",545,646725,"0.0-3.178-0.178","etopr6r1loy4px6","143.csv","","148.69999992847443","resources/trios/L4T4A2.jpg","37","restless",0.5,0.6,0.6,0.357604851396337,"true"
"image-keyboard-response",546,647140,"0.0-3.178-1.178","etopr6r1loy4px6","143.csv","","null","resources/maskTrios/L4BB.jpg","null","",NA,NA,NA,NA,""
"image-keyboard-response",547,648345,"0.0-3.178-2.178","etopr6r1loy4px6","143.csv","","null","resources/images/coin2.png","null","",NA,NA,NA,NA,""
"image-keyboard-response",548,648553,"0.0-3.179-0.179","etopr6r1loy4px6","143.csv","","206.20000004768372","resources/trios/L1T2A1.jpg","37","restless",0.5,0.6,0.6,0.206103354759181,"true"
"image-keyboard-response",549,648963,"0.0-3.179-1.179","etopr6r1loy4px6","143.csv","","null","resources/maskTrios/L1BB.jpg","null","",NA,NA,NA,NA,""
"image-keyboard-response",550,650169,"0.0-3.179-2.179","etopr6r1loy4px6","143.csv","","null","resources/images/coin2.png","null","",NA,NA,NA,NA,""
"image-keyboard-response",551,650383,"0.0-3.180-0.180","etopr6r1loy4px6","143.csv","","212.20000004768372","resources/trios/L1T2A2.jpg","37","restless",0.5,0.6,0.6,0.984665245547844,"false"
"image-keyboard-response",552,650801,"0.0-3.180-1.180","etopr6r1loy4px6","143.csv","","null","resources/maskTrios/L1BB.jpg","null","",NA,NA,NA,NA,""
"image-keyboard-response",553,652007,"0.0-3.180-2.180","etopr6r1loy4px6","143.csv","","null","resources/images/fishbone.png","null","",NA,NA,NA,NA,""
"image-keyboard-response",554,652233,"0.0-3.181-0.181","etopr6r1loy4px6","143.csv","","223.70000004768372","resources/trios/L1T4A2.jpg","37","restless",0.6,0.6,0.6,0.496980878630014,"true"
"image-keyboard-response",555,652640,"0.0-3.181-1.181","etopr6r1loy4px6","143.csv","","null","resources/maskTrios/L1BB.jpg","null","",NA,NA,NA,NA,""
"image-keyboard-response",556,653847,"0.0-3.181-2.181","etopr6r1loy4px6","143.csv","","null","resources/images/coin2.png","null","",NA,NA,NA,NA,""
"image-keyboard-response",557,653904,"0.0-3.182-0.182","etopr6r1loy4px6","143.csv","","54.799999952316284","resources/trios/L4T2A2.jpg","37","restless",0.6,0.6,0.6,0.304841714686308,"true"
"image-keyboard-response",558,654315,"0.0-3.182-1.182","etopr6r1loy4px6","143.csv","","null","resources/maskTrios/L4BB.jpg","null","",NA,NA,NA,NA,""
"image-keyboard-response",559,655526,"0.0-3.182-2.182","etopr6r1loy4px6","143.csv","","null","resources/images/coin2.png","null","",NA,NA,NA,NA,""
"image-keyboard-response",560,655560,"0.0-3.183-0.183","etopr6r1loy4px6","143.csv","","31.799999952316284","resources/trios/L1T2A1.jpg","37","restless",0.6,0.6,0.6,0.118905598123922,"true"
"image-keyboard-response",561,655977,"0.0-3.183-1.183","etopr6r1loy4px6","143.csv","","null","resources/maskTrios/L1BB.jpg","null","",NA,NA,NA,NA,""
"image-keyboard-response",562,657182,"0.0-3.183-2.183","etopr6r1loy4px6","143.csv","","null","resources/images/coin2.png","null","",NA,NA,NA,NA,""
"image-keyboard-response",563,657375,"0.0-3.184-0.184","etopr6r1loy4px6","143.csv","","191.40000009536743","resources/trios/L4T2A1.jpg","37","restless",0.6,0.6,0.6,0.861482798744666,"false"
"image-keyboard-response",564,657790,"0.0-3.184-1.184","etopr6r1loy4px6","143.csv","","null","resources/maskTrios/L4BB.jpg","null","",NA,NA,NA,NA,""
"image-keyboard-response",565,658994,"0.0-3.184-2.184","etopr6r1loy4px6","143.csv","","null","resources/images/fishbone.png","null","",NA,NA,NA,NA,""
"image-keyboard-response",566,659210,"0.0-3.185-0.185","etopr6r1loy4px6","143.csv","","214.29999995231628","resources/trios/L4T2A1.jpg","37","restless",0.6,0.6,0.6,0.93555981230505,"false"
"image-keyboard-response",567,659613,"0.0-3.185-1.185","etopr6r1loy4px6","143.csv","","null","resources/maskTrios/L4BB.jpg","null","",NA,NA,NA,NA,""
"image-keyboard-response",568,660822,"0.0-3.185-2.185","etopr6r1loy4px6","143.csv","","null","resources/images/fishbone.png","null","",NA,NA,NA,NA,""
"image-keyboard-response",569,661083,"0.0-3.186-0.186","etopr6r1loy4px6","143.csv","","258.89999997615814","resources/trios/L1T2A1.jpg","37","restless",0.6,0.5,0.6,0.377182567830507,"true"
"image-keyboard-response",570,661494,"0.0-3.186-1.186","etopr6r1loy4px6","143.csv","","null","resources/maskTrios/L1BB.jpg","null","",NA,NA,NA,NA,""
"image-keyboard-response",571,662704,"0.0-3.186-2.186","etopr6r1loy4px6","143.csv","","null","resources/images/coin2.png","null","",NA,NA,NA,NA,""
"image-keyboard-response",572,662943,"0.0-3.187-0.187","etopr6r1loy4px6","143.csv","","237.09999990463257","resources/trios/L4T4A2.jpg","37","restless",0.6,0.5,0.6,0.451292373618602,"true"
"image-keyboard-response",573,663372,"0.0-3.187-1.187","etopr6r1loy4px6","143.csv","","null","resources/maskTrios/L4BB.jpg","null","",NA,NA,NA,NA,""
"image-keyboard-response",574,664582,"0.0-3.187-2.187","etopr6r1loy4px6","143.csv","","null","resources/images/coin2.png","null","",NA,NA,NA,NA,""
"image-keyboard-response",575,664876,"0.0-3.188-0.188","etopr6r1loy4px6","143.csv","","291.7000000476837","resources/trios/L1T4A1.jpg","37","restless",0.7,0.5,0.7,0.0203790748335728,"true"
"image-keyboard-response",576,665293,"0.0-3.188-1.188","etopr6r1loy4px6","143.csv","","null","resources/maskTrios/L1BB.jpg","null","",NA,NA,NA,NA,""
"image-keyboard-response",577,666498,"0.0-3.188-2.188","etopr6r1loy4px6","143.csv","","null","resources/images/coin2.png","null","",NA,NA,NA,NA,""
"image-keyboard-response",578,666748,"0.0-3.189-0.189","etopr6r1loy4px6","143.csv","","248.60000002384186","resources/trios/L1T2A2.jpg","37","restless",0.7,0.5,0.7,0.854318358444732,"false"
"image-keyboard-response",579,667155,"0.0-3.189-1.189","etopr6r1loy4px6","143.csv","","null","resources/maskTrios/L1BB.jpg","null","",NA,NA,NA,NA,""
"image-keyboard-response",580,668360,"0.0-3.189-2.189","etopr6r1loy4px6","143.csv","","null","resources/images/fishbone.png","null","",NA,NA,NA,NA,""
"image-keyboard-response",581,668623,"0.0-3.190-0.190","etopr6r1loy4px6","143.csv","","261.2999999523163","resources/trios/L1T4A2.jpg","37","restless",0.7,0.5,0.7,0.560360798495543,"true"
"image-keyboard-response",582,669028,"0.0-3.190-1.190","etopr6r1loy4px6","143.csv","","null","resources/maskTrios/L1BB.jpg","null","",NA,NA,NA,NA,""
"image-keyboard-response",583,670248,"0.0-3.190-2.190","etopr6r1loy4px6","143.csv","","null","resources/images/coin2.png","null","",NA,NA,NA,NA,""
"image-keyboard-response",584,670458,"0.0-3.191-0.191","etopr6r1loy4px6","143.csv","","208.80000007152557","resources/trios/L1T2A2.jpg","37","restless",0.7,0.5,0.7,0.209590152136714,"true"
"image-keyboard-response",585,670874,"0.0-3.191-1.191","etopr6r1loy4px6","143.csv","","null","resources/maskTrios/L1BB.jpg","null","",NA,NA,NA,NA,""
"image-keyboard-response",586,672090,"0.0-3.191-2.191","etopr6r1loy4px6","143.csv","","null","resources/images/coin2.png","null","",NA,NA,NA,NA,""
"image-keyboard-response",587,672236,"0.0-3.192-0.192","etopr6r1loy4px6","143.csv","","144.89999997615814","resources/trios/L1T2A1.jpg","37","restless",0.7,0.5,0.7,0.807284331565662,"false"
"image-keyboard-response",588,672655,"0.0-3.192-1.192","etopr6r1loy4px6","143.csv","","null","resources/maskTrios/L1BB.jpg","null","",NA,NA,NA,NA,""
"image-keyboard-response",589,673860,"0.0-3.192-2.192","etopr6r1loy4px6","143.csv","","null","resources/images/fishbone.png","null","",NA,NA,NA,NA,""
"image-keyboard-response",590,675377,"0.0-3.193-0.193","etopr6r1loy4px6","143.csv","","1514.7999999523163","resources/trios/L4T4A1.jpg","38","restless",0.7,0.5,0.7,0.188090806700148,"true"
"image-keyboard-response",591,675783,"0.0-3.193-1.193","etopr6r1loy4px6","143.csv","","null","resources/maskTrios/BT4B.jpg","null","",NA,NA,NA,NA,""
"image-keyboard-response",592,676987,"0.0-3.193-2.193","etopr6r1loy4px6","143.csv","","null","resources/images/coin2.png","null","",NA,NA,NA,NA,""
"image-keyboard-response",593,677207,"0.0-3.194-0.194","etopr6r1loy4px6","143.csv","","217.89999997615814","resources/trios/L4T4A2.jpg","38","restless",0.7,0.5,0.7,0.638183505502099,"false"
"image-keyboard-response",594,677613,"0.0-3.194-1.194","etopr6r1loy4px6","143.csv","","null","resources/maskTrios/BT4B.jpg","null","",NA,NA,NA,NA,""
"image-keyboard-response",595,678822,"0.0-3.194-2.194","etopr6r1loy4px6","143.csv","","null","resources/images/fishbone.png","null","",NA,NA,NA,NA,""
"image-keyboard-response",596,679055,"0.0-3.195-0.195","etopr6r1loy4px6","143.csv","","231","resources/trios/L1T2A1.jpg","38","restless",0.7,0.5,0.7,0.901476670405215,"false"
"image-keyboard-response",597,679463,"0.0-3.195-1.195","etopr6r1loy4px6","143.csv","","null","resources/maskTrios/BT2B.jpg","null","",NA,NA,NA,NA,""
"image-keyboard-response",598,680667,"0.0-3.195-2.195","etopr6r1loy4px6","143.csv","","null","resources/images/fishbone.png","null","",NA,NA,NA,NA,""
"image-keyboard-response",599,680812,"0.0-3.196-0.196","etopr6r1loy4px6","143.csv","","143.10000002384186","resources/trios/L1T4A1.jpg","38","restless",0.7,0.5,0.7,0.916270195341218,"false"
"image-keyboard-response",600,681221,"0.0-3.196-1.196","etopr6r1loy4px6","143.csv","","null","resources/maskTrios/BT4B.jpg","null","",NA,NA,NA,NA,""
"image-keyboard-response",601,682430,"0.0-3.196-2.196","etopr6r1loy4px6","143.csv","","null","resources/images/fishbone.png","null","",NA,NA,NA,NA,""
"image-keyboard-response",602,683446,"0.0-3.197-0.197","etopr6r1loy4px6","143.csv","","1014.6000000238419","resources/trios/L4T4A1.jpg","39","restless",0.7,0.5,0.7,0.799413537629916,"false"
"image-keyboard-response",603,683858,"0.0-3.197-1.197","etopr6r1loy4px6","143.csv","","null","resources/maskTrios/BBA1.jpg","null","",NA,NA,NA,NA,""
"image-keyboard-response",604,685079,"0.0-3.197-2.197","etopr6r1loy4px6","143.csv","","null","resources/images/fishbone.png","null","",NA,NA,NA,NA,""
"image-keyboard-response",605,685725,"0.0-3.198-0.198","etopr6r1loy4px6","143.csv","","643.3000000715256","resources/trios/L4T2A2.jpg","39","restless",0.7,0.5,0.7,0.0472598441990271,"true"
"image-keyboard-response",606,686136,"0.0-3.198-1.198","etopr6r1loy4px6","143.csv","","null","resources/maskTrios/BBA2.jpg","null","",NA,NA,NA,NA,""
"image-keyboard-response",607,687354,"0.0-3.198-2.198","etopr6r1loy4px6","143.csv","","null","resources/images/coin2.png","null","",NA,NA,NA,NA,""
"image-keyboard-response",608,687586,"0.0-3.199-0.199","etopr6r1loy4px6","143.csv","","229.70000004768372","resources/trios/L1T2A1.jpg","39","restless",0.7,0.5,0.7,0.295844720117739,"true"
"image-keyboard-response",609,687991,"0.0-3.199-1.199","etopr6r1loy4px6","143.csv","","null","resources/maskTrios/BBA1.jpg","null","",NA,NA,NA,NA,""
"image-keyboard-response",610,689195,"0.0-3.199-2.199","etopr6r1loy4px6","143.csv","","null","resources/images/coin2.png","null","",NA,NA,NA,NA,""
"image-keyboard-response",611,689464,"0.0-3.200-0.200","etopr6r1loy4px6","143.csv","","267.39999997615814","resources/trios/L4T4A2.jpg","39","restless",0.7,0.5,0.7,0.805374654143435,"false"
"image-keyboard-response",612,689877,"0.0-3.200-1.200","etopr6r1loy4px6","143.csv","","null","resources/maskTrios/BBA2.jpg","null","",NA,NA,NA,NA,""
"image-keyboard-response",613,691101,"0.0-3.200-2.200","etopr6r1loy4px6","143.csv","","null","resources/images/fishbone.png","null","",NA,NA,NA,NA,""
"image-keyboard-response",614,691196,"0.0-3.201-0.201","etopr6r1loy4px6","143.csv","","92.69999992847443","resources/trios/L4T2A1.jpg","39","restless",0.7,0.5,0.7,0.303066626526097,"true"
"image-keyboard-response",615,691602,"0.0-3.201-1.201","etopr6r1loy4px6","143.csv","","null","resources/maskTrios/BBA1.jpg","null","",NA,NA,NA,NA,""
"image-keyboard-response",616,692807,"0.0-3.201-2.201","etopr6r1loy4px6","143.csv","","null","resources/images/coin2.png","null","",NA,NA,NA,NA,""
"image-keyboard-response",617,693003,"0.0-3.202-0.202","etopr6r1loy4px6","143.csv","","194","resources/trios/L4T2A1.jpg","39","restless",0.7,0.5,0.7,0.840049764844677,"false"
"image-keyboard-response",618,693409,"0.0-3.202-1.202","etopr6r1loy4px6","143.csv","","null","resources/maskTrios/BBA1.jpg","null","",NA,NA,NA,NA,""
"image-keyboard-response",619,694614,"0.0-3.202-2.202","etopr6r1loy4px6","143.csv","","null","resources/images/fishbone.png","null","",NA,NA,NA,NA,""
"image-keyboard-response",620,694819,"0.0-3.203-0.203","etopr6r1loy4px6","143.csv","","203.70000004768372","resources/trios/L1T4A2.jpg","37","restless",0.6,0.5,0.7,0.602983602004127,"false"
"image-keyboard-response",621,695222,"0.0-3.203-1.203","etopr6r1loy4px6","143.csv","","null","resources/maskTrios/L1BB.jpg","null","",NA,NA,NA,NA,""
