"trial_type","trial_index","time_elapsed","internal_node_id","subject","participantCode","walkNumber","success","rt","stimulus","key_press","test_part","leftProb","midProb","rightProb","generatedNum","correct"
"pavlovia",0,2681,"0.0-0.0","qtjs3j2eeobth4f",309,"31.csv","","","","","",NA,NA,NA,NA,""
"fullscreen",1,6763,"0.0-1.0","qtjs3j2eeobth4f",309,"31.csv","true","","","","",NA,NA,NA,NA,""
"html-keyboard-response",2,10536,"0.0-2.0-0.0","qtjs3j2eeobth4f",309,"31.csv","","3771.4000000953674","<p><font size='6'>Arrrgh!</p></font><p>Can you be the best pirate? Try to find lots of gold! But beware, some islands have more gold than others, and over time, the island with the most gold may change. Can YOU figure it out? </p><font size='6'>GOOD LUCK, CAPTAIN!!!</font><p>Press any key to begin</p>","32","",NA,NA,NA,NA,""
"image-keyboard-response",3,13547,"0.0-2.0-1.0","qtjs3j2eeobth4f",309,"31.csv","","null","resources/image_sets/111.png","null","",NA,NA,NA,NA,""
"image-keyboard-response",4,19945,"0.0-2.0-2.0","qtjs3j2eeobth4f",309,"31.csv","","6397","resources/image_sets/left_highlight.png","37","",NA,NA,NA,NA,""
"image-keyboard-response",5,22877,"0.0-2.0-3.0","qtjs3j2eeobth4f",309,"31.csv","","2930.9000000953674","resources/image_sets/mid_highlight.png","38","",NA,NA,NA,NA,""
"image-keyboard-response",6,23735,"0.0-2.0-4.0","qtjs3j2eeobth4f",309,"31.csv","","857.3999998569489","resources/image_sets/right_highlight.png","39","",NA,NA,NA,NA,""
"image-keyboard-response",7,29912,"0.0-2.0-5.0","qtjs3j2eeobth4f",309,"31.csv","","6175.700000047684","resources/image_sets/111.png","13","",NA,NA,NA,NA,""
"image-keyboard-response",8,32880,"0.0-2.0-6.0","qtjs3j2eeobth4f",309,"31.csv","","2967.5","resources/images/coin2.png","13","",NA,NA,NA,NA,""
"image-keyboard-response",9,35020,"0.0-2.0-7.0","qtjs3j2eeobth4f",309,"31.csv","","2138.9000000953674","resources/images/fishbone.png","13","",NA,NA,NA,NA,""
"html-keyboard-response",10,39016,"0.0-2.0-8.0","qtjs3j2eeobth4f",309,"31.csv","","3995.9000000953674","<p>Your first journey will be a long one, but you will get a well deserved break at the end</p><p>After the break you will have four more journeys, but each will be much shorter than the first, and you will have breaks in between each</p><p>Press Enter to begin</p>","13","",NA,NA,NA,NA,""
"image-keyboard-response",11,42527,"0.0-3.0-0.0","qtjs3j2eeobth4f",309,"31.csv","","3509.899999856949","resources/trios/L1T1A1.jpg","38","restless",0.7,0.9,0.3,0.419313933095372,"true"
"image-keyboard-response",12,42943,"0.0-3.0-1.0","qtjs3j2eeobth4f",309,"31.csv","","null","resources/maskTrios/BT1B.jpg","null","",NA,NA,NA,NA,""
"image-keyboard-response",13,44169,"0.0-3.0-2.0","qtjs3j2eeobth4f",309,"31.csv","","null","resources/images/coin2.png","null","",NA,NA,NA,NA,""
"image-keyboard-response",14,51656,"0.0-3.1-0.1","qtjs3j2eeobth4f",309,"31.csv","","7483.800000190735","resources/trios/L2T2A3.jpg","37","restless",0.7,0.9,0.3,0.425144022021255,"true"
"image-keyboard-response",15,52066,"0.0-3.1-1.1","qtjs3j2eeobth4f",309,"31.csv","","null","resources/maskTrios/L2BB.jpg","null","",NA,NA,NA,NA,""
"image-keyboard-response",16,53276,"0.0-3.1-2.1","qtjs3j2eeobth4f",309,"31.csv","","null","resources/images/coin2.png","null","",NA,NA,NA,NA,""
"image-keyboard-response",17,56679,"0.0-3.2-0.2","qtjs3j2eeobth4f",309,"31.csv","","3400.9000000953674","resources/trios/L1T2A3.jpg","38","restless",0.7,0.9,0.3,0.880328845636108,"true"
"image-keyboard-response",18,57085,"0.0-3.2-1.2","qtjs3j2eeobth4f",309,"31.csv","","null","resources/maskTrios/BT2B.jpg","null","",NA,NA,NA,NA,""
"image-keyboard-response",19,58296,"0.0-3.2-2.2","qtjs3j2eeobth4f",309,"31.csv","","null","resources/images/coin2.png","null","",NA,NA,NA,NA,""
"image-keyboard-response",20,61622,"0.0-3.3-0.3","qtjs3j2eeobth4f",309,"31.csv","","3324.2999999523163","resources/trios/L2T2A3.jpg","37","restless",0.7,0.9,0.3,0.328016906748826,"true"
"image-keyboard-response",21,62038,"0.0-3.3-1.3","qtjs3j2eeobth4f",309,"31.csv","","null","resources/maskTrios/L2BB.jpg","null","",NA,NA,NA,NA,""
"image-keyboard-response",22,63252,"0.0-3.3-2.3","qtjs3j2eeobth4f",309,"31.csv","","null","resources/images/coin2.png","null","",NA,NA,NA,NA,""
"image-keyboard-response",23,65030,"0.0-3.4-0.4","qtjs3j2eeobth4f",309,"31.csv","","1776.2999999523163","resources/trios/L2T2A3.jpg","38","restless",0.8,0.8,0.3,0.581520240721019,"true"
"image-keyboard-response",24,65440,"0.0-3.4-1.4","qtjs3j2eeobth4f",309,"31.csv","","null","resources/maskTrios/BT2B.jpg","null","",NA,NA,NA,NA,""
"image-keyboard-response",25,66656,"0.0-3.4-2.4","qtjs3j2eeobth4f",309,"31.csv","","null","resources/images/coin2.png","null","",NA,NA,NA,NA,""
"image-keyboard-response",26,67769,"0.0-3.5-0.5","qtjs3j2eeobth4f",309,"31.csv","","1111.5","resources/trios/L2T1A1.jpg","38","restless",0.8,0.8,0.2,0.400136121157707,"true"
"image-keyboard-response",27,68182,"0.0-3.5-1.5","qtjs3j2eeobth4f",309,"31.csv","","null","resources/maskTrios/BT1B.jpg","null","",NA,NA,NA,NA,""
"image-keyboard-response",28,69389,"0.0-3.5-2.5","qtjs3j2eeobth4f",309,"31.csv","","null","resources/images/coin2.png","null","",NA,NA,NA,NA,""
"image-keyboard-response",29,71364,"0.0-3.6-0.6","qtjs3j2eeobth4f",309,"31.csv","","1973.7000000476837","resources/trios/L1T1A3.jpg","38","restless",0.8,0.8,0.2,0.740097594936513,"true"
"image-keyboard-response",30,71771,"0.0-3.6-1.6","qtjs3j2eeobth4f",309,"31.csv","","null","resources/maskTrios/BT1B.jpg","null","",NA,NA,NA,NA,""
"image-keyboard-response",31,72992,"0.0-3.6-2.6","qtjs3j2eeobth4f",309,"31.csv","","null","resources/images/coin2.png","null","",NA,NA,NA,NA,""
"image-keyboard-response",32,73977,"0.0-3.7-0.7","qtjs3j2eeobth4f",309,"31.csv","","983.0999999046326","resources/trios/L2T2A3.jpg","37","restless",0.7,0.8,0.2,0.0882905876602842,"true"
"image-keyboard-response",33,74388,"0.0-3.7-1.7","qtjs3j2eeobth4f",309,"31.csv","","null","resources/maskTrios/L2BB.jpg","null","",NA,NA,NA,NA,""
"image-keyboard-response",34,75601,"0.0-3.7-2.7","qtjs3j2eeobth4f",309,"31.csv","","null","resources/images/coin2.png","null","",NA,NA,NA,NA,""
"image-keyboard-response",35,76092,"0.0-3.8-0.8","qtjs3j2eeobth4f",309,"31.csv","","488.7999999523163","resources/trios/L2T1A3.jpg","38","restless",0.7,0.8,0.2,0.0905737671535374,"true"
"image-keyboard-response",36,76512,"0.0-3.8-1.8","qtjs3j2eeobth4f",309,"31.csv","","null","resources/maskTrios/BT1B.jpg","null","",NA,NA,NA,NA,""
"image-keyboard-response",37,77735,"0.0-3.8-2.8","qtjs3j2eeobth4f",309,"31.csv","","null","resources/images/coin2.png","null","",NA,NA,NA,NA,""
"image-keyboard-response",38,78160,"0.0-3.9-0.9","qtjs3j2eeobth4f",309,"31.csv","","423.89999985694885","resources/trios/L2T1A1.jpg","38","restless",0.8,0.7,0.2,0.358316144027792,"true"
"image-keyboard-response",39,78572,"0.0-3.9-1.9","qtjs3j2eeobth4f",309,"31.csv","","null","resources/maskTrios/BT1B.jpg","null","",NA,NA,NA,NA,""
"image-keyboard-response",40,79774,"0.0-3.9-2.9","qtjs3j2eeobth4f",309,"31.csv","","null","resources/images/coin2.png","null","",NA,NA,NA,NA,""
"image-keyboard-response",41,80562,"0.0-3.10-0.10","qtjs3j2eeobth4f",309,"31.csv","","786.6999998092651","resources/trios/L2T2A3.jpg","37","restless",0.8,0.7,0.2,0.602533608982005,"true"
"image-keyboard-response",42,80982,"0.0-3.10-1.10","qtjs3j2eeobth4f",309,"31.csv","","null","resources/maskTrios/L2BB.jpg","null","",NA,NA,NA,NA,""
"image-keyboard-response",43,82189,"0.0-3.10-2.10","qtjs3j2eeobth4f",309,"31.csv","","null","resources/images/coin2.png","null","",NA,NA,NA,NA,""
"image-keyboard-response",44,82828,"0.0-3.11-0.11","qtjs3j2eeobth4f",309,"31.csv","","637.1000001430511","resources/trios/L2T2A1.jpg","37","restless",0.8,0.7,0.2,0.130667692803482,"true"
"image-keyboard-response",45,83247,"0.0-3.11-1.11","qtjs3j2eeobth4f",309,"31.csv","","null","resources/maskTrios/L2BB.jpg","null","",NA,NA,NA,NA,""
"image-keyboard-response",46,84463,"0.0-3.11-2.11","qtjs3j2eeobth4f",309,"31.csv","","null","resources/images/coin2.png","null","",NA,NA,NA,NA,""
"image-keyboard-response",47,84956,"0.0-3.12-0.12","qtjs3j2eeobth4f",309,"31.csv","","491.5","resources/trios/L1T2A3.jpg","38","restless",0.8,0.7,0.2,0.252280289875892,"true"
"image-keyboard-response",48,85365,"0.0-3.12-1.12","qtjs3j2eeobth4f",309,"31.csv","","null","resources/maskTrios/BT2B.jpg","null","",NA,NA,NA,NA,""
"image-keyboard-response",49,86582,"0.0-3.12-2.12","qtjs3j2eeobth4f",309,"31.csv","","null","resources/images/coin2.png","null","",NA,NA,NA,NA,""
"image-keyboard-response",50,86910,"0.0-3.13-0.13","qtjs3j2eeobth4f",309,"31.csv","","325.7999999523163","resources/trios/L2T1A3.jpg","38","restless",0.8,0.7,0.2,0.85612432290356,"false"
"image-keyboard-response",51,87327,"0.0-3.13-1.13","qtjs3j2eeobth4f",309,"31.csv","","null","resources/maskTrios/BT1B.jpg","null","",NA,NA,NA,NA,""
"image-keyboard-response",52,88534,"0.0-3.13-2.13","qtjs3j2eeobth4f",309,"31.csv","","null","resources/images/fishbone.png","null","",NA,NA,NA,NA,""
"image-keyboard-response",53,89650,"0.0-3.14-0.14","qtjs3j2eeobth4f",309,"31.csv","","1113.9000000953674","resources/trios/L2T2A3.jpg","37","restless",0.8,0.7,0.2,0.661051142036952,"true"
"image-keyboard-response",54,90072,"0.0-3.14-1.14","qtjs3j2eeobth4f",309,"31.csv","","null","resources/maskTrios/L2BB.jpg","null","",NA,NA,NA,NA,""
"image-keyboard-response",55,91290,"0.0-3.14-2.14","qtjs3j2eeobth4f",309,"31.csv","","null","resources/images/coin2.png","null","",NA,NA,NA,NA,""
"image-keyboard-response",56,93545,"0.0-3.15-0.15","qtjs3j2eeobth4f",309,"31.csv","","2254.0999999046326","resources/trios/L2T1A3.jpg","38","restless",0.8,0.7,0.2,0.320954945751905,"true"
"image-keyboard-response",57,93955,"0.0-3.15-1.15","qtjs3j2eeobth4f",309,"31.csv","","null","resources/maskTrios/BT1B.jpg","null","",NA,NA,NA,NA,""
"image-keyboard-response",58,95164,"0.0-3.15-2.15","qtjs3j2eeobth4f",309,"31.csv","","null","resources/images/coin2.png","null","",NA,NA,NA,NA,""
"image-keyboard-response",59,95829,"0.0-3.16-0.16","qtjs3j2eeobth4f",309,"31.csv","","663.7999999523163","resources/trios/L2T2A3.jpg","38","restless",0.8,0.7,0.2,0.248985753268135,"true"
"image-keyboard-response",60,96242,"0.0-3.16-1.16","qtjs3j2eeobth4f",309,"31.csv","","null","resources/maskTrios/BT2B.jpg","null","",NA,NA,NA,NA,""
"image-keyboard-response",61,97464,"0.0-3.16-2.16","qtjs3j2eeobth4f",309,"31.csv","","null","resources/images/coin2.png","null","",NA,NA,NA,NA,""
"image-keyboard-response",62,97903,"0.0-3.17-0.17","qtjs3j2eeobth4f",309,"31.csv","","437.5","resources/trios/L2T1A3.jpg","38","restless",0.8,0.7,0.2,0.355604728781911,"true"
"image-keyboard-response",63,98310,"0.0-3.17-1.17","qtjs3j2eeobth4f",309,"31.csv","","null","resources/maskTrios/BT1B.jpg","null","",NA,NA,NA,NA,""
"image-keyboard-response",64,99525,"0.0-3.17-2.17","qtjs3j2eeobth4f",309,"31.csv","","null","resources/images/coin2.png","null","",NA,NA,NA,NA,""
"image-keyboard-response",65,99880,"0.0-3.18-0.18","qtjs3j2eeobth4f",309,"31.csv","","353.89999985694885","resources/trios/L1T2A1.jpg","38","restless",0.8,0.7,0.2,0.606688965936788,"true"
"image-keyboard-response",66,100294,"0.0-3.18-1.18","qtjs3j2eeobth4f",309,"31.csv","","null","resources/maskTrios/BT2B.jpg","null","",NA,NA,NA,NA,""
"image-keyboard-response",67,101512,"0.0-3.18-2.18","qtjs3j2eeobth4f",309,"31.csv","","null","resources/images/coin2.png","null","",NA,NA,NA,NA,""
"image-keyboard-response",68,101845,"0.0-3.19-0.19","qtjs3j2eeobth4f",309,"31.csv","","331.10000014305115","resources/trios/L1T2A3.jpg","38","restless",0.8,0.6,0.1,0.812193782368203,"false"
"image-keyboard-response",69,102261,"0.0-3.19-1.19","qtjs3j2eeobth4f",309,"31.csv","","null","resources/maskTrios/BT2B.jpg","null","",NA,NA,NA,NA,""
"image-keyboard-response",70,103466,"0.0-3.19-2.19","qtjs3j2eeobth4f",309,"31.csv","","null","resources/images/fishbone.png","null","",NA,NA,NA,NA,""
"image-keyboard-response",71,103793,"0.0-3.20-0.20","qtjs3j2eeobth4f",309,"31.csv","","325.5","resources/trios/L1T2A3.jpg","38","restless",0.8,0.6,0.1,0.844575108472481,"false"
"image-keyboard-response",72,104209,"0.0-3.20-1.20","qtjs3j2eeobth4f",309,"31.csv","","null","resources/maskTrios/BT2B.jpg","null","",NA,NA,NA,NA,""
"image-keyboard-response",73,105424,"0.0-3.20-2.20","qtjs3j2eeobth4f",309,"31.csv","","null","resources/images/fishbone.png","null","",NA,NA,NA,NA,""
"image-keyboard-response",74,105737,"0.0-3.21-0.21","qtjs3j2eeobth4f",309,"31.csv","","311.39999985694885","resources/trios/L1T2A1.jpg","38","restless",0.9,0.7,0.2,0.853088995334264,"false"
"image-keyboard-response",75,106150,"0.0-3.21-1.21","qtjs3j2eeobth4f",309,"31.csv","","null","resources/maskTrios/BT2B.jpg","null","",NA,NA,NA,NA,""
"image-keyboard-response",76,107360,"0.0-3.21-2.21","qtjs3j2eeobth4f",309,"31.csv","","null","resources/images/fishbone.png","null","",NA,NA,NA,NA,""
"image-keyboard-response",77,107669,"0.0-3.22-0.22","qtjs3j2eeobth4f",309,"31.csv","","307.5","resources/trios/L1T1A1.jpg","38","restless",0.8,0.7,0.2,0.00802798599557719,"true"
"image-keyboard-response",78,108086,"0.0-3.22-1.22","qtjs3j2eeobth4f",309,"31.csv","","null","resources/maskTrios/BT1B.jpg","null","",NA,NA,NA,NA,""
"image-keyboard-response",79,109293,"0.0-3.22-2.22","qtjs3j2eeobth4f",309,"31.csv","","null","resources/images/coin2.png","null","",NA,NA,NA,NA,""
"image-keyboard-response",80,109701,"0.0-3.23-0.23","qtjs3j2eeobth4f",309,"31.csv","","406.5","resources/trios/L2T1A3.jpg","38","restless",0.8,0.7,0.2,0.561259906045876,"true"
"image-keyboard-response",81,110113,"0.0-3.23-1.23","qtjs3j2eeobth4f",309,"31.csv","","null","resources/maskTrios/BT1B.jpg","null","",NA,NA,NA,NA,""
"image-keyboard-response",82,111323,"0.0-3.23-2.23","qtjs3j2eeobth4f",309,"31.csv","","null","resources/images/coin2.png","null","",NA,NA,NA,NA,""
"image-keyboard-response",83,111625,"0.0-3.24-0.24","qtjs3j2eeobth4f",309,"31.csv","","299.59999990463257","resources/trios/L1T1A1.jpg","38","restless",0.8,0.6,0.2,0.53981178086955,"true"
"image-keyboard-response",84,112038,"0.0-3.24-1.24","qtjs3j2eeobth4f",309,"31.csv","","null","resources/maskTrios/BT1B.jpg","null","",NA,NA,NA,NA,""
"image-keyboard-response",85,113255,"0.0-3.24-2.24","qtjs3j2eeobth4f",309,"31.csv","","null","resources/images/coin2.png","null","",NA,NA,NA,NA,""
"image-keyboard-response",86,113575,"0.0-3.25-0.25","qtjs3j2eeobth4f",309,"31.csv","","318.2999999523163","resources/trios/L2T1A3.jpg","38","restless",0.8,0.5,0.1,0.0830606661869631,"true"
"image-keyboard-response",87,113981,"0.0-3.25-1.25","qtjs3j2eeobth4f",309,"31.csv","","null","resources/maskTrios/BT1B.jpg","null","",NA,NA,NA,NA,""
"image-keyboard-response",88,115197,"0.0-3.25-2.25","qtjs3j2eeobth4f",309,"31.csv","","null","resources/images/coin2.png","null","",NA,NA,NA,NA,""
"image-keyboard-response",89,115558,"0.0-3.26-0.26","qtjs3j2eeobth4f",309,"31.csv","","360.2000000476837","resources/trios/L2T1A3.jpg","38","restless",0.8,0.5,0.1,0.157824033214568,"true"
"image-keyboard-response",90,115975,"0.0-3.26-1.26","qtjs3j2eeobth4f",309,"31.csv","","null","resources/maskTrios/BT1B.jpg","null","",NA,NA,NA,NA,""
"image-keyboard-response",91,117189,"0.0-3.26-2.26","qtjs3j2eeobth4f",309,"31.csv","","null","resources/images/coin2.png","null","",NA,NA,NA,NA,""
"image-keyboard-response",92,117533,"0.0-3.27-0.27","qtjs3j2eeobth4f",309,"31.csv","","342.59999990463257","resources/trios/L2T2A1.jpg","37","restless",0.7,0.5,0.1,0.943086563229496,"false"
"image-keyboard-response",93,117947,"0.0-3.27-1.27","qtjs3j2eeobth4f",309,"31.csv","","null","resources/maskTrios/L2BB.jpg","null","",NA,NA,NA,NA,""
"image-keyboard-response",94,119154,"0.0-3.27-2.27","qtjs3j2eeobth4f",309,"31.csv","","null","resources/images/fishbone.png","null","",NA,NA,NA,NA,""
"image-keyboard-response",95,119454,"0.0-3.28-0.28","qtjs3j2eeobth4f",309,"31.csv","","298.2000000476837","resources/trios/L2T1A1.jpg","38","restless",0.7,0.5,0.1,0.46956794469233,"true"
"image-keyboard-response",96,119864,"0.0-3.28-1.28","qtjs3j2eeobth4f",309,"31.csv","","null","resources/maskTrios/BT1B.jpg","null","",NA,NA,NA,NA,""
"image-keyboard-response",97,121087,"0.0-3.28-2.28","qtjs3j2eeobth4f",309,"31.csv","","null","resources/images/coin2.png","null","",NA,NA,NA,NA,""
"image-keyboard-response",98,121430,"0.0-3.29-0.29","qtjs3j2eeobth4f",309,"31.csv","","341.2999999523163","resources/trios/L1T1A3.jpg","38","restless",0.7,0.6,0.1,0.553783982831015,"true"
"image-keyboard-response",99,121849,"0.0-3.29-1.29","qtjs3j2eeobth4f",309,"31.csv","","null","resources/maskTrios/BT1B.jpg","null","",NA,NA,NA,NA,""
"image-keyboard-response",100,123065,"0.0-3.29-2.29","qtjs3j2eeobth4f",309,"31.csv","","null","resources/images/coin2.png","null","",NA,NA,NA,NA,""
"image-keyboard-response",101,123406,"0.0-3.30-0.30","qtjs3j2eeobth4f",309,"31.csv","","339.5","resources/trios/L1T1A1.jpg","39","restless",0.7,0.5,0.1,0.932829502034293,"false"
"image-keyboard-response",102,123812,"0.0-3.30-1.30","qtjs3j2eeobth4f",309,"31.csv","","null","resources/maskTrios/BBA1.jpg","null","",NA,NA,NA,NA,""
"image-keyboard-response",103,125025,"0.0-3.30-2.30","qtjs3j2eeobth4f",309,"31.csv","","null","resources/images/fishbone.png","null","",NA,NA,NA,NA,""
"image-keyboard-response",104,125391,"0.0-3.31-0.31","qtjs3j2eeobth4f",309,"31.csv","","364.2999999523163","resources/trios/L2T2A1.jpg","38","restless",0.7,0.5,0.1,0.79519756023733,"false"
"image-keyboard-response",105,125804,"0.0-3.31-1.31","qtjs3j2eeobth4f",309,"31.csv","","null","resources/maskTrios/BT2B.jpg","null","",NA,NA,NA,NA,""
"image-keyboard-response",106,127024,"0.0-3.31-2.31","qtjs3j2eeobth4f",309,"31.csv","","null","resources/images/fishbone.png","null","",NA,NA,NA,NA,""
"image-keyboard-response",107,127126,"0.0-3.32-0.32","qtjs3j2eeobth4f",309,"31.csv","","101","resources/trios/L2T1A3.jpg","38","restless",0.7,0.5,0.1,0.660520391179874,"false"
"image-keyboard-response",108,127533,"0.0-3.32-1.32","qtjs3j2eeobth4f",309,"31.csv","","null","resources/maskTrios/BT1B.jpg","null","",NA,NA,NA,NA,""
"image-keyboard-response",109,128745,"0.0-3.32-2.32","qtjs3j2eeobth4f",309,"31.csv","","null","resources/images/fishbone.png","null","",NA,NA,NA,NA,""
"image-keyboard-response",110,129013,"0.0-3.33-0.33","qtjs3j2eeobth4f",309,"31.csv","","266.10000014305115","resources/trios/L2T1A1.jpg","37","restless",0.7,0.5,0.1,0.189538770808082,"true"
"image-keyboard-response",111,129429,"0.0-3.33-1.33","qtjs3j2eeobth4f",309,"31.csv","","null","resources/maskTrios/L2BB.jpg","null","",NA,NA,NA,NA,""
"image-keyboard-response",112,130644,"0.0-3.33-2.33","qtjs3j2eeobth4f",309,"31.csv","","null","resources/images/coin2.png","null","",NA,NA,NA,NA,""
"image-keyboard-response",113,130945,"0.0-3.34-0.34","qtjs3j2eeobth4f",309,"31.csv","","299.10000014305115","resources/trios/L1T1A3.jpg","37","restless",0.7,0.5,0.1,0.953194572420842,"false"
"image-keyboard-response",114,131358,"0.0-3.34-1.34","qtjs3j2eeobth4f",309,"31.csv","","null","resources/maskTrios/L1BB.jpg","null","",NA,NA,NA,NA,""
"image-keyboard-response",115,132569,"0.0-3.34-2.34","qtjs3j2eeobth4f",309,"31.csv","","null","resources/images/fishbone.png","null","",NA,NA,NA,NA,""
"image-keyboard-response",116,132810,"0.0-3.35-0.35","qtjs3j2eeobth4f",309,"31.csv","","240.10000014305115","resources/trios/L2T2A3.jpg","38","restless",0.7,0.5,0.1,0.662307592096225,"false"
"image-keyboard-response",117,133220,"0.0-3.35-1.35","qtjs3j2eeobth4f",309,"31.csv","","null","resources/maskTrios/BT2B.jpg","null","",NA,NA,NA,NA,""
"image-keyboard-response",118,134428,"0.0-3.35-2.35","qtjs3j2eeobth4f",309,"31.csv","","null","resources/images/fishbone.png","null","",NA,NA,NA,NA,""
"image-keyboard-response",119,134671,"0.0-3.36-0.36","qtjs3j2eeobth4f",309,"31.csv","","240.60000014305115","resources/trios/L2T1A3.jpg","38","restless",0.7,0.4,0.1,0.991599144735444,"false"
"image-keyboard-response",120,135080,"0.0-3.36-1.36","qtjs3j2eeobth4f",309,"31.csv","","null","resources/maskTrios/BT1B.jpg","null","",NA,NA,NA,NA,""
"image-keyboard-response",121,136286,"0.0-3.36-2.36","qtjs3j2eeobth4f",309,"31.csv","","null","resources/images/fishbone.png","null","",NA,NA,NA,NA,""
"image-keyboard-response",122,136526,"0.0-3.37-0.37","qtjs3j2eeobth4f",309,"31.csv","","238.20000004768372","resources/trios/L2T1A3.jpg","38","restless",0.7,0.4,0.1,0.941824181399792,"false"
"image-keyboard-response",123,136936,"0.0-3.37-1.37","qtjs3j2eeobth4f",309,"31.csv","","null","resources/maskTrios/BT1B.jpg","null","",NA,NA,NA,NA,""
"image-keyboard-response",124,138151,"0.0-3.37-2.37","qtjs3j2eeobth4f",309,"31.csv","","null","resources/images/fishbone.png","null","",NA,NA,NA,NA,""
"image-keyboard-response",125,138437,"0.0-3.38-0.38","qtjs3j2eeobth4f",309,"31.csv","","284.10000014305115","resources/trios/L2T2A3.jpg","37","restless",0.7,0.4,0.2,0.932650397630366,"false"
"image-keyboard-response",126,138852,"0.0-3.38-1.38","qtjs3j2eeobth4f",309,"31.csv","","null","resources/maskTrios/L2BB.jpg","null","",NA,NA,NA,NA,""
"image-keyboard-response",127,140067,"0.0-3.38-2.38","qtjs3j2eeobth4f",309,"31.csv","","null","resources/images/fishbone.png","null","",NA,NA,NA,NA,""
"image-keyboard-response",128,140353,"0.0-3.39-0.39","qtjs3j2eeobth4f",309,"31.csv","","284.5","resources/trios/L1T1A3.jpg","38","restless",0.7,0.3,0.2,0.0312212374881229,"true"
"image-keyboard-response",129,140763,"0.0-3.39-1.39","qtjs3j2eeobth4f",309,"31.csv","","null","resources/maskTrios/BT1B.jpg","null","",NA,NA,NA,NA,""
"image-keyboard-response",130,141976,"0.0-3.39-2.39","qtjs3j2eeobth4f",309,"31.csv","","null","resources/images/coin2.png","null","",NA,NA,NA,NA,""
"image-keyboard-response",131,142218,"0.0-3.40-0.40","qtjs3j2eeobth4f",309,"31.csv","","240.89999985694885","resources/trios/L2T2A3.jpg","38","restless",0.7,0.3,0.2,0.772308624320234,"false"
"image-keyboard-response",132,142637,"0.0-3.40-1.40","qtjs3j2eeobth4f",309,"31.csv","","null","resources/maskTrios/BT2B.jpg","null","",NA,NA,NA,NA,""
"image-keyboard-response",133,143854,"0.0-3.40-2.40","qtjs3j2eeobth4f",309,"31.csv","","null","resources/images/fishbone.png","null","",NA,NA,NA,NA,""
"image-keyboard-response",134,144364,"0.0-3.41-0.41","qtjs3j2eeobth4f",309,"31.csv","","508.2000000476837","resources/trios/L2T1A3.jpg","38","restless",0.7,0.3,0.2,0.732565484654292,"false"
"image-keyboard-response",135,144782,"0.0-3.41-1.41","qtjs3j2eeobth4f",309,"31.csv","","null","resources/maskTrios/BT1B.jpg","null","",NA,NA,NA,NA,""
"image-keyboard-response",136,145994,"0.0-3.41-2.41","qtjs3j2eeobth4f",309,"31.csv","","null","resources/images/fishbone.png","null","",NA,NA,NA,NA,""
"image-keyboard-response",137,146215,"0.0-3.42-0.42","qtjs3j2eeobth4f",309,"31.csv","","218","resources/trios/L1T2A1.jpg","39","restless",0.7,0.3,0.2,0.334112271639806,"false"
"image-keyboard-response",138,146631,"0.0-3.42-1.42","qtjs3j2eeobth4f",309,"31.csv","","null","resources/maskTrios/BBA1.jpg","null","",NA,NA,NA,NA,""
"image-keyboard-response",139,147848,"0.0-3.42-2.42","qtjs3j2eeobth4f",309,"31.csv","","null","resources/images/fishbone.png","null","",NA,NA,NA,NA,""
"image-keyboard-response",140,148038,"0.0-3.43-0.43","qtjs3j2eeobth4f",309,"31.csv","","189.79999995231628","resources/trios/L2T2A3.jpg","38","restless",0.7,0.3,0.2,0.698363830340831,"false"
"image-keyboard-response",141,148453,"0.0-3.43-1.43","qtjs3j2eeobth4f",309,"31.csv","","null","resources/maskTrios/BT2B.jpg","null","",NA,NA,NA,NA,""
"image-keyboard-response",142,149673,"0.0-3.43-2.43","qtjs3j2eeobth4f",309,"31.csv","","null","resources/images/fishbone.png","null","",NA,NA,NA,NA,""
"image-keyboard-response",143,149914,"0.0-3.44-0.44","qtjs3j2eeobth4f",309,"31.csv","","239.19999980926514","resources/trios/L1T2A1.jpg","38","restless",0.7,0.3,0.2,0.462224953573019,"false"
"image-keyboard-response",144,150326,"0.0-3.44-1.44","qtjs3j2eeobth4f",309,"31.csv","","null","resources/maskTrios/BT2B.jpg","null","",NA,NA,NA,NA,""
"image-keyboard-response",145,151539,"0.0-3.44-2.44","qtjs3j2eeobth4f",309,"31.csv","","null","resources/images/fishbone.png","null","",NA,NA,NA,NA,""
"image-keyboard-response",146,152037,"0.0-3.45-0.45","qtjs3j2eeobth4f",309,"31.csv","","495.5","resources/trios/L1T1A1.jpg","38","restless",0.7,0.3,0.2,0.00584507863364281,"true"
"image-keyboard-response",147,152454,"0.0-3.45-1.45","qtjs3j2eeobth4f",309,"31.csv","","null","resources/maskTrios/BT1B.jpg","null","",NA,NA,NA,NA,""
"image-keyboard-response",148,153663,"0.0-3.45-2.45","qtjs3j2eeobth4f",309,"31.csv","","null","resources/images/coin2.png","null","",NA,NA,NA,NA,""
"image-keyboard-response",149,154340,"0.0-3.46-0.46","qtjs3j2eeobth4f",309,"31.csv","","675.2999999523163","resources/trios/L2T2A3.jpg","37","restless",0.7,0.3,0.2,0.925102650702847,"false"
"image-keyboard-response",150,154749,"0.0-3.46-1.46","qtjs3j2eeobth4f",309,"31.csv","","null","resources/maskTrios/L2BB.jpg","null","",NA,NA,NA,NA,""
"image-keyboard-response",151,155965,"0.0-3.46-2.46","qtjs3j2eeobth4f",309,"31.csv","","null","resources/images/fishbone.png","null","",NA,NA,NA,NA,""
"image-keyboard-response",152,156429,"0.0-3.47-0.47","qtjs3j2eeobth4f",309,"31.csv","","462","resources/trios/L2T1A1.jpg","38","restless",0.7,0.3,0.1,0.198223256467388,"true"
"image-keyboard-response",153,156846,"0.0-3.47-1.47","qtjs3j2eeobth4f",309,"31.csv","","null","resources/maskTrios/BT1B.jpg","null","",NA,NA,NA,NA,""
"image-keyboard-response",154,158064,"0.0-3.47-2.47","qtjs3j2eeobth4f",309,"31.csv","","null","resources/images/coin2.png","null","",NA,NA,NA,NA,""
"image-keyboard-response",155,158936,"0.0-3.48-0.48","qtjs3j2eeobth4f",309,"31.csv","","870.2999999523163","resources/trios/L2T2A3.jpg","37","restless",0.7,0.4,0.1,0.806811854980193,"false"
"image-keyboard-response",156,159354,"0.0-3.48-1.48","qtjs3j2eeobth4f",309,"31.csv","","null","resources/maskTrios/L2BB.jpg","null","",NA,NA,NA,NA,""
"image-keyboard-response",157,160568,"0.0-3.48-2.48","qtjs3j2eeobth4f",309,"31.csv","","null","resources/images/fishbone.png","null","",NA,NA,NA,NA,""
"image-keyboard-response",158,160685,"0.0-3.49-0.49","qtjs3j2eeobth4f",309,"31.csv","","115.59999990463257","resources/trios/L2T1A3.jpg","38","restless",0.7,0.4,0.1,0.886721120083431,"false"
"image-keyboard-response",159,161095,"0.0-3.49-1.49","qtjs3j2eeobth4f",309,"31.csv","","null","resources/maskTrios/BT1B.jpg","null","",NA,NA,NA,NA,""
"image-keyboard-response",160,162307,"0.0-3.49-2.49","qtjs3j2eeobth4f",309,"31.csv","","null","resources/images/fishbone.png","null","",NA,NA,NA,NA,""
"image-keyboard-response",161,162628,"0.0-3.50-0.50","qtjs3j2eeobth4f",309,"31.csv","","319.5","resources/trios/L1T1A3.jpg","39","restless",0.7,0.5,0.1,0.102639638479573,"false"
"image-keyboard-response",162,163046,"0.0-3.50-1.50","qtjs3j2eeobth4f",309,"31.csv","","null","resources/maskTrios/BBA3.jpg","null","",NA,NA,NA,NA,""
"image-keyboard-response",163,164261,"0.0-3.50-2.50","qtjs3j2eeobth4f",309,"31.csv","","null","resources/images/fishbone.png","null","",NA,NA,NA,NA,""
"image-keyboard-response",164,164327,"0.0-3.51-0.51","qtjs3j2eeobth4f",309,"31.csv","","64.79999995231628","resources/trios/L1T1A3.jpg","38","restless",0.7,0.5,0.1,0.747416243385198,"false"
"image-keyboard-response",165,164744,"0.0-3.51-1.51","qtjs3j2eeobth4f",309,"31.csv","","null","resources/maskTrios/BT1B.jpg","null","",NA,NA,NA,NA,""
"image-keyboard-response",166,165955,"0.0-3.51-2.51","qtjs3j2eeobth4f",309,"31.csv","","null","resources/images/fishbone.png","null","",NA,NA,NA,NA,""
"image-keyboard-response",167,166188,"0.0-3.52-0.52","qtjs3j2eeobth4f",309,"31.csv","","231.20000004768372","resources/trios/L1T1A3.jpg","38","restless",0.7,0.5,0.1,0.888596453423786,"false"
"image-keyboard-response",168,166599,"0.0-3.52-1.52","qtjs3j2eeobth4f",309,"31.csv","","null","resources/maskTrios/BT1B.jpg","null","",NA,NA,NA,NA,""
"image-keyboard-response",169,167816,"0.0-3.52-2.52","qtjs3j2eeobth4f",309,"31.csv","","null","resources/images/fishbone.png","null","",NA,NA,NA,NA,""
"image-keyboard-response",170,168065,"0.0-3.53-0.53","qtjs3j2eeobth4f",309,"31.csv","","246.70000004768372","resources/trios/L2T1A3.jpg","38","restless",0.8,0.5,0.1,0.401420036541719,"true"
"image-keyboard-response",171,168483,"0.0-3.53-1.53","qtjs3j2eeobth4f",309,"31.csv","","null","resources/maskTrios/BT1B.jpg","null","",NA,NA,NA,NA,""
"image-keyboard-response",172,169696,"0.0-3.53-2.53","qtjs3j2eeobth4f",309,"31.csv","","null","resources/images/coin2.png","null","",NA,NA,NA,NA,""
"image-keyboard-response",173,170456,"0.0-3.54-0.54","qtjs3j2eeobth4f",309,"31.csv","","758.4000000953674","resources/trios/L2T2A1.jpg","37","restless",0.8,0.5,0.1,0.234463090357075,"true"
"image-keyboard-response",174,170887,"0.0-3.54-1.54","qtjs3j2eeobth4f",309,"31.csv","","null","resources/maskTrios/L2BB.jpg","null","",NA,NA,NA,NA,""
"image-keyboard-response",175,172102,"0.0-3.54-2.54","qtjs3j2eeobth4f",309,"31.csv","","null","resources/images/coin2.png","null","",NA,NA,NA,NA,""
"image-keyboard-response",176,172486,"0.0-3.55-0.55","qtjs3j2eeobth4f",309,"31.csv","","382.7000000476837","resources/trios/L2T1A1.jpg","37","restless",0.8,0.5,0.1,0.582263989224252,"true"
"image-keyboard-response",177,172892,"0.0-3.55-1.55","qtjs3j2eeobth4f",309,"31.csv","","null","resources/maskTrios/L2BB.jpg","null","",NA,NA,NA,NA,""
"image-keyboard-response",178,174109,"0.0-3.55-2.55","qtjs3j2eeobth4f",309,"31.csv","","null","resources/images/coin2.png","null","",NA,NA,NA,NA,""
"image-keyboard-response",179,174472,"0.0-3.56-0.56","qtjs3j2eeobth4f",309,"31.csv","","360.40000009536743","resources/trios/L1T2A1.jpg","37","restless",0.8,0.5,0.1,0.847745474904946,"false"
"image-keyboard-response",180,174888,"0.0-3.56-1.56","qtjs3j2eeobth4f",309,"31.csv","","null","resources/maskTrios/L1BB.jpg","null","",NA,NA,NA,NA,""
"image-keyboard-response",181,176102,"0.0-3.56-2.56","qtjs3j2eeobth4f",309,"31.csv","","null","resources/images/fishbone.png","null","",NA,NA,NA,NA,""
"image-keyboard-response",182,176522,"0.0-3.57-0.57","qtjs3j2eeobth4f",309,"31.csv","","418.59999990463257","resources/trios/L1T2A3.jpg","38","restless",0.8,0.5,0.1,0.537092724695149,"false"
"image-keyboard-response",183,176933,"0.0-3.57-1.57","qtjs3j2eeobth4f",309,"31.csv","","null","resources/maskTrios/BT2B.jpg","null","",NA,NA,NA,NA,""
"image-keyboard-response",184,178147,"0.0-3.57-2.57","qtjs3j2eeobth4f",309,"31.csv","","null","resources/images/fishbone.png","null","",NA,NA,NA,NA,""
"image-keyboard-response",185,178483,"0.0-3.58-0.58","qtjs3j2eeobth4f",309,"31.csv","","335.40000009536743","resources/trios/L1T1A3.jpg","38","restless",0.8,0.5,0.2,0.289736212129098,"true"
"image-keyboard-response",186,178894,"0.0-3.58-1.58","qtjs3j2eeobth4f",309,"31.csv","","null","resources/maskTrios/BT1B.jpg","null","",NA,NA,NA,NA,""
"image-keyboard-response",187,180109,"0.0-3.58-2.58","qtjs3j2eeobth4f",309,"31.csv","","null","resources/images/coin2.png","null","",NA,NA,NA,NA,""
"image-keyboard-response",188,180397,"0.0-3.59-0.59","qtjs3j2eeobth4f",309,"31.csv","","286.5","resources/trios/L2T2A3.jpg","37","restless",0.8,0.6,0.2,0.927751800385997,"false"
"image-keyboard-response",189,180808,"0.0-3.59-1.59","qtjs3j2eeobth4f",309,"31.csv","","null","resources/maskTrios/L2BB.jpg","null","",NA,NA,NA,NA,""
"image-keyboard-response",190,182022,"0.0-3.59-2.59","qtjs3j2eeobth4f",309,"31.csv","","null","resources/images/fishbone.png","null","",NA,NA,NA,NA,""
"image-keyboard-response",191,182235,"0.0-3.60-0.60","qtjs3j2eeobth4f",309,"31.csv","","211.10000014305115","resources/trios/L1T1A1.jpg","38","restless",0.8,0.6,0.2,0.160793747216793,"true"
"image-keyboard-response",192,182656,"0.0-3.60-1.60","qtjs3j2eeobth4f",309,"31.csv","","null","resources/maskTrios/BT1B.jpg","null","",NA,NA,NA,NA,""
"image-keyboard-response",193,183860,"0.0-3.60-2.60","qtjs3j2eeobth4f",309,"31.csv","","null","resources/images/coin2.png","null","",NA,NA,NA,NA,""
"image-keyboard-response",194,184234,"0.0-3.61-0.61","qtjs3j2eeobth4f",309,"31.csv","","373","resources/trios/L1T1A1.jpg","38","restless",0.9,0.6,0.2,0.306586504999907,"true"
"image-keyboard-response",195,184649,"0.0-3.61-1.61","qtjs3j2eeobth4f",309,"31.csv","","null","resources/maskTrios/BT1B.jpg","null","",NA,NA,NA,NA,""
"image-keyboard-response",196,185860,"0.0-3.61-2.61","qtjs3j2eeobth4f",309,"31.csv","","null","resources/images/coin2.png","null","",NA,NA,NA,NA,""
"image-keyboard-response",197,186162,"0.0-3.62-0.62","qtjs3j2eeobth4f",309,"31.csv","","300.2999999523163","resources/trios/L1T1A3.jpg","38","restless",0.9,0.6,0.2,0.643399560568358,"false"
"image-keyboard-response",198,186583,"0.0-3.62-1.62","qtjs3j2eeobth4f",309,"31.csv","","null","resources/maskTrios/BT1B.jpg","null","",NA,NA,NA,NA,""
"image-keyboard-response",199,187798,"0.0-3.62-2.62","qtjs3j2eeobth4f",309,"31.csv","","null","resources/images/fishbone.png","null","",NA,NA,NA,NA,""
"image-keyboard-response",200,188032,"0.0-3.63-0.63","qtjs3j2eeobth4f",309,"31.csv","","232.5","resources/trios/L1T2A1.jpg","38","restless",0.8,0.6,0.2,0.465008847672528,"true"
"image-keyboard-response",201,188446,"0.0-3.63-1.63","qtjs3j2eeobth4f",309,"31.csv","","null","resources/maskTrios/BT2B.jpg","null","",NA,NA,NA,NA,""
"image-keyboard-response",202,189654,"0.0-3.63-2.63","qtjs3j2eeobth4f",309,"31.csv","","null","resources/images/coin2.png","null","",NA,NA,NA,NA,""
"image-keyboard-response",203,189970,"0.0-3.64-0.64","qtjs3j2eeobth4f",309,"31.csv","","313.7999999523163","resources/trios/L2T1A3.jpg","38","restless",0.8,0.6,0.2,0.00155874763135788,"true"
"image-keyboard-response",204,190383,"0.0-3.64-1.64","qtjs3j2eeobth4f",309,"31.csv","","null","resources/maskTrios/BT1B.jpg","null","",NA,NA,NA,NA,""
"image-keyboard-response",205,191594,"0.0-3.64-2.64","qtjs3j2eeobth4f",309,"31.csv","","null","resources/images/coin2.png","null","",NA,NA,NA,NA,""
"image-keyboard-response",206,192052,"0.0-3.65-0.65","qtjs3j2eeobth4f",309,"31.csv","","455.7999999523163","resources/trios/L2T2A3.jpg","37","restless",0.7,0.6,0.2,0.453839656067317,"true"
"image-keyboard-response",207,192465,"0.0-3.65-1.65","qtjs3j2eeobth4f",309,"31.csv","","null","resources/maskTrios/L2BB.jpg","null","",NA,NA,NA,NA,""
"image-keyboard-response",208,193677,"0.0-3.65-2.65","qtjs3j2eeobth4f",309,"31.csv","","null","resources/images/coin2.png","null","",NA,NA,NA,NA,""
"image-keyboard-response",209,193808,"0.0-3.66-0.66","qtjs3j2eeobth4f",309,"31.csv","","128.89999985694885","resources/trios/L2T1A3.jpg","37","restless",0.7,0.6,0.2,0.143168635327494,"true"
"image-keyboard-response",210,194222,"0.0-3.66-1.66","qtjs3j2eeobth4f",309,"31.csv","","null","resources/maskTrios/L2BB.jpg","null","",NA,NA,NA,NA,""
"image-keyboard-response",211,195437,"0.0-3.66-2.66","qtjs3j2eeobth4f",309,"31.csv","","null","resources/images/coin2.png","null","",NA,NA,NA,NA,""
"image-keyboard-response",212,195650,"0.0-3.67-0.67","qtjs3j2eeobth4f",309,"31.csv","","211.5","resources/trios/L1T2A1.jpg","37","restless",0.7,0.6,0.2,0.0565623070985257,"true"
"image-keyboard-response",213,196072,"0.0-3.67-1.67","qtjs3j2eeobth4f",309,"31.csv","","null","resources/maskTrios/L1BB.jpg","null","",NA,NA,NA,NA,""
"image-keyboard-response",214,197283,"0.0-3.67-2.67","qtjs3j2eeobth4f",309,"31.csv","","null","resources/images/coin2.png","null","",NA,NA,NA,NA,""
"image-keyboard-response",215,197518,"0.0-3.68-0.68","qtjs3j2eeobth4f",309,"31.csv","","233.10000014305115","resources/trios/L1T1A3.jpg","38","restless",0.7,0.6,0.2,0.868247701937477,"false"
"image-keyboard-response",216,197935,"0.0-3.68-1.68","qtjs3j2eeobth4f",309,"31.csv","","null","resources/maskTrios/BT1B.jpg","null","",NA,NA,NA,NA,""
"image-keyboard-response",217,199144,"0.0-3.68-2.68","qtjs3j2eeobth4f",309,"31.csv","","null","resources/images/fishbone.png","null","",NA,NA,NA,NA,""
"image-keyboard-response",218,199216,"0.0-3.69-0.69","qtjs3j2eeobth4f",309,"31.csv","","71.09999990463257","resources/trios/L2T1A1.jpg","37","restless",0.7,0.6,0.2,0.338417222124443,"true"
"image-keyboard-response",219,199630,"0.0-3.69-1.69","qtjs3j2eeobth4f",309,"31.csv","","null","resources/maskTrios/L2BB.jpg","null","",NA,NA,NA,NA,""
"image-keyboard-response",220,200848,"0.0-3.69-2.69","qtjs3j2eeobth4f",309,"31.csv","","null","resources/images/coin2.png","null","",NA,NA,NA,NA,""
"image-keyboard-response",221,201049,"0.0-3.70-0.70","qtjs3j2eeobth4f",309,"31.csv","","199.90000009536743","resources/trios/L1T2A3.jpg","37","restless",0.7,0.6,0.2,0.681983588620848,"true"
"image-keyboard-response",222,201468,"0.0-3.70-1.70","qtjs3j2eeobth4f",309,"31.csv","","null","resources/maskTrios/L1BB.jpg","null","",NA,NA,NA,NA,""
"image-keyboard-response",223,202674,"0.0-3.70-2.70","qtjs3j2eeobth4f",309,"31.csv","","null","resources/images/coin2.png","null","",NA,NA,NA,NA,""
"image-keyboard-response",224,202874,"0.0-3.71-0.71","qtjs3j2eeobth4f",309,"31.csv","","198.09999990463257","resources/trios/L2T1A1.jpg","37","restless",0.7,0.6,0.2,0.381026411660769,"true"
"image-keyboard-response",225,203295,"0.0-3.71-1.71","qtjs3j2eeobth4f",309,"31.csv","","null","resources/maskTrios/L2BB.jpg","null","",NA,NA,NA,NA,""
"image-keyboard-response",226,204503,"0.0-3.71-2.71","qtjs3j2eeobth4f",309,"31.csv","","null","resources/images/coin2.png","null","",NA,NA,NA,NA,""
"image-keyboard-response",227,204673,"0.0-3.72-0.72","qtjs3j2eeobth4f",309,"31.csv","","167.89999985694885","resources/trios/L2T1A3.jpg","37","restless",0.7,0.6,0.2,0.724995266825304,"false"
"image-keyboard-response",228,205096,"0.0-3.72-1.72","qtjs3j2eeobth4f",309,"31.csv","","null","resources/maskTrios/L2BB.jpg","null","",NA,NA,NA,NA,""
"image-keyboard-response",229,206308,"0.0-3.72-2.72","qtjs3j2eeobth4f",309,"31.csv","","null","resources/images/fishbone.png","null","",NA,NA,NA,NA,""
"image-keyboard-response",230,206628,"0.0-3.73-0.73","qtjs3j2eeobth4f",309,"31.csv","","318.2999999523163","resources/trios/L2T2A3.jpg","38","restless",0.7,0.6,0.2,0.89760146145523,"false"
"image-keyboard-response",231,207037,"0.0-3.73-1.73","qtjs3j2eeobth4f",309,"31.csv","","null","resources/maskTrios/BT2B.jpg","null","",NA,NA,NA,NA,""
"image-keyboard-response",232,208248,"0.0-3.73-2.73","qtjs3j2eeobth4f",309,"31.csv","","null","resources/images/fishbone.png","null","",NA,NA,NA,NA,""
"image-keyboard-response",233,208451,"0.0-3.74-0.74","qtjs3j2eeobth4f",309,"31.csv","","202.29999995231628","resources/trios/L1T1A1.jpg","38","restless",0.7,0.5,0.2,0.0270317250690657,"true"
"image-keyboard-response",234,208868,"0.0-3.74-1.74","qtjs3j2eeobth4f",309,"31.csv","","null","resources/maskTrios/BT1B.jpg","null","",NA,NA,NA,NA,""
"image-keyboard-response",235,210085,"0.0-3.74-2.74","qtjs3j2eeobth4f",309,"31.csv","","null","resources/images/coin2.png","null","",NA,NA,NA,NA,""
"image-keyboard-response",236,210336,"0.0-3.75-0.75","qtjs3j2eeobth4f",309,"31.csv","","249.70000004768372","resources/trios/L2T1A1.jpg","38","restless",0.7,0.5,0.2,0.778536108435651,"false"
"image-keyboard-response",237,210749,"0.0-3.75-1.75","qtjs3j2eeobth4f",309,"31.csv","","null","resources/maskTrios/BT1B.jpg","null","",NA,NA,NA,NA,""
"image-keyboard-response",238,211956,"0.0-3.75-2.75","qtjs3j2eeobth4f",309,"31.csv","","null","resources/images/fishbone.png","null","",NA,NA,NA,NA,""
"image-keyboard-response",239,212192,"0.0-3.76-0.76","qtjs3j2eeobth4f",309,"31.csv","","235","resources/trios/L2T2A3.jpg","38","restless",0.7,0.5,0.2,0.306542528111089,"true"
"image-keyboard-response",240,212607,"0.0-3.76-1.76","qtjs3j2eeobth4f",309,"31.csv","","null","resources/maskTrios/BT2B.jpg","null","",NA,NA,NA,NA,""
"image-keyboard-response",241,213812,"0.0-3.76-2.76","qtjs3j2eeobth4f",309,"31.csv","","null","resources/images/coin2.png","null","",NA,NA,NA,NA,""
"image-keyboard-response",242,214049,"0.0-3.77-0.77","qtjs3j2eeobth4f",309,"31.csv","","236","resources/trios/L2T1A3.jpg","38","restless",0.8,0.5,0.2,0.641671921820048,"false"
"image-keyboard-response",243,214460,"0.0-3.77-1.77","qtjs3j2eeobth4f",309,"31.csv","","null","resources/maskTrios/BT1B.jpg","null","",NA,NA,NA,NA,""
"image-keyboard-response",244,215672,"0.0-3.77-2.77","qtjs3j2eeobth4f",309,"31.csv","","null","resources/images/fishbone.png","null","",NA,NA,NA,NA,""
"image-keyboard-response",245,215888,"0.0-3.78-0.78","qtjs3j2eeobth4f",309,"31.csv","","215.5","resources/trios/L1T1A1.jpg","38","restless",0.8,0.5,0.2,0.487021881284095,"true"
"image-keyboard-response",246,216309,"0.0-3.78-1.78","qtjs3j2eeobth4f",309,"31.csv","","null","resources/maskTrios/BT1B.jpg","null","",NA,NA,NA,NA,""
"image-keyboard-response",247,217515,"0.0-3.78-2.78","qtjs3j2eeobth4f",309,"31.csv","","null","resources/images/coin2.png","null","",NA,NA,NA,NA,""
"image-keyboard-response",248,217817,"0.0-3.79-0.79","qtjs3j2eeobth4f",309,"31.csv","","301.60000014305115","resources/trios/L2T2A1.jpg","37","restless",0.9,0.5,0.2,0.605343252761824,"true"
"image-keyboard-response",249,218239,"0.0-3.79-1.79","qtjs3j2eeobth4f",309,"31.csv","","null","resources/maskTrios/L2BB.jpg","null","",NA,NA,NA,NA,""
"image-keyboard-response",250,219446,"0.0-3.79-2.79","qtjs3j2eeobth4f",309,"31.csv","","null","resources/images/coin2.png","null","",NA,NA,NA,NA,""
"image-keyboard-response",251,219699,"0.0-3.80-0.80","qtjs3j2eeobth4f",309,"31.csv","","251.60000014305115","resources/trios/L1T1A3.jpg","38","restless",0.9,0.5,0.2,0.0464646608078112,"true"
"image-keyboard-response",252,220109,"0.0-3.80-1.80","qtjs3j2eeobth4f",309,"31.csv","","null","resources/maskTrios/BT1B.jpg","null","",NA,NA,NA,NA,""
"image-keyboard-response",253,221315,"0.0-3.80-2.80","qtjs3j2eeobth4f",309,"31.csv","","null","resources/images/coin2.png","null","",NA,NA,NA,NA,""
"image-keyboard-response",254,221459,"0.0-3.81-0.81","qtjs3j2eeobth4f",309,"31.csv","","142.5","resources/trios/L2T2A1.jpg","37","restless",0.9,0.5,0.2,0.300942289131807,"true"
"image-keyboard-response",255,221867,"0.0-3.81-1.81","qtjs3j2eeobth4f",309,"31.csv","","null","resources/maskTrios/L2BB.jpg","null","",NA,NA,NA,NA,""
"image-keyboard-response",256,223077,"0.0-3.81-2.81","qtjs3j2eeobth4f",309,"31.csv","","null","resources/images/coin2.png","null","",NA,NA,NA,NA,""
"image-keyboard-response",257,223301,"0.0-3.82-0.82","qtjs3j2eeobth4f",309,"31.csv","","221.79999995231628","resources/trios/L2T1A1.jpg","38","restless",0.9,0.5,0.2,0.928614533556134,"false"
"image-keyboard-response",258,223716,"0.0-3.82-1.82","qtjs3j2eeobth4f",309,"31.csv","","null","resources/maskTrios/BT1B.jpg","null","",NA,NA,NA,NA,""
"image-keyboard-response",259,224924,"0.0-3.82-2.82","qtjs3j2eeobth4f",309,"31.csv","","null","resources/images/fishbone.png","null","",NA,NA,NA,NA,""
"image-keyboard-response",260,225162,"0.0-3.83-0.83","qtjs3j2eeobth4f",309,"31.csv","","236.79999995231628","resources/trios/L1T1A1.jpg","38","restless",0.9,0.5,0.2,0.350452398471423,"true"
"image-keyboard-response",261,225574,"0.0-3.83-1.83","qtjs3j2eeobth4f",309,"31.csv","","null","resources/maskTrios/BT1B.jpg","null","",NA,NA,NA,NA,""
"image-keyboard-response",262,226782,"0.0-3.83-2.83","qtjs3j2eeobth4f",309,"31.csv","","null","resources/images/coin2.png","null","",NA,NA,NA,NA,""
"image-keyboard-response",263,226983,"0.0-3.84-0.84","qtjs3j2eeobth4f",309,"31.csv","","198.80000019073486","resources/trios/L2T2A3.jpg","37","restless",0.9,0.5,0.3,0.878222817809199,"true"
"image-keyboard-response",264,227400,"0.0-3.84-1.84","qtjs3j2eeobth4f",309,"31.csv","","null","resources/maskTrios/L2BB.jpg","null","",NA,NA,NA,NA,""
"image-keyboard-response",265,228617,"0.0-3.84-2.84","qtjs3j2eeobth4f",309,"31.csv","","null","resources/images/coin2.png","null","",NA,NA,NA,NA,""
"image-keyboard-response",266,228750,"0.0-3.85-0.85","qtjs3j2eeobth4f",309,"31.csv","","131.5","resources/trios/L2T1A3.jpg","37","restless",0.9,0.5,0.3,0.661948744249564,"true"
"image-keyboard-response",267,229162,"0.0-3.85-1.85","qtjs3j2eeobth4f",309,"31.csv","","null","resources/maskTrios/L2BB.jpg","null","",NA,NA,NA,NA,""
"image-keyboard-response",268,230371,"0.0-3.85-2.85","qtjs3j2eeobth4f",309,"31.csv","","null","resources/images/coin2.png","null","",NA,NA,NA,NA,""
"image-keyboard-response",269,230590,"0.0-3.86-0.86","qtjs3j2eeobth4f",309,"31.csv","","218.20000004768372","resources/trios/L1T1A1.jpg","37","restless",0.9,0.5,0.4,0.596496980155696,"true"
"image-keyboard-response",270,231006,"0.0-3.86-1.86","qtjs3j2eeobth4f",309,"31.csv","","null","resources/maskTrios/L1BB.jpg","null","",NA,NA,NA,NA,""
"image-keyboard-response",271,232216,"0.0-3.86-2.86","qtjs3j2eeobth4f",309,"31.csv","","null","resources/images/coin2.png","null","",NA,NA,NA,NA,""
"image-keyboard-response",272,232360,"0.0-3.87-0.87","qtjs3j2eeobth4f",309,"31.csv","","142.40000009536743","resources/trios/L2T1A3.jpg","38","restless",0.9,0.4,0.4,0.718222248258017,"false"
"image-keyboard-response",273,232778,"0.0-3.87-1.87","qtjs3j2eeobth4f",309,"31.csv","","null","resources/maskTrios/BT1B.jpg","null","",NA,NA,NA,NA,""
"image-keyboard-response",274,233992,"0.0-3.87-2.87","qtjs3j2eeobth4f",309,"31.csv","","null","resources/images/fishbone.png","null","",NA,NA,NA,NA,""
"image-keyboard-response",275,234126,"0.0-3.88-0.88","qtjs3j2eeobth4f",309,"31.csv","","131.39999985694885","resources/trios/L1T2A3.jpg","38","restless",0.9,0.4,0.4,0.346082203088879,"true"
"image-keyboard-response",276,234536,"0.0-3.88-1.88","qtjs3j2eeobth4f",309,"31.csv","","null","resources/maskTrios/BT2B.jpg","null","",NA,NA,NA,NA,""
"image-keyboard-response",277,235749,"0.0-3.88-2.88","qtjs3j2eeobth4f",309,"31.csv","","null","resources/images/coin2.png","null","",NA,NA,NA,NA,""
"image-keyboard-response",278,235765,"0.0-3.89-0.89","qtjs3j2eeobth4f",309,"31.csv","","15.200000047683716","resources/trios/L2T2A3.jpg","38","restless",0.9,0.4,0.4,0.264772002950593,"true"
"image-keyboard-response",279,236184,"0.0-3.89-1.89","qtjs3j2eeobth4f",309,"31.csv","","null","resources/maskTrios/BT2B.jpg","null","",NA,NA,NA,NA,""
"image-keyboard-response",280,237394,"0.0-3.89-2.89","qtjs3j2eeobth4f",309,"31.csv","","null","resources/images/coin2.png","null","",NA,NA,NA,NA,""
"image-keyboard-response",281,237582,"0.0-3.90-0.90","qtjs3j2eeobth4f",309,"31.csv","","185.59999990463257","resources/trios/L2T1A1.jpg","38","restless",0.9,0.4,0.4,0.10972209634319,"true"
"image-keyboard-response",282,237999,"0.0-3.90-1.90","qtjs3j2eeobth4f",309,"31.csv","","null","resources/maskTrios/BT1B.jpg","null","",NA,NA,NA,NA,""
"image-keyboard-response",283,239215,"0.0-3.90-2.90","qtjs3j2eeobth4f",309,"31.csv","","null","resources/images/coin2.png","null","",NA,NA,NA,NA,""
"image-keyboard-response",284,239266,"0.0-3.91-0.91","qtjs3j2eeobth4f",309,"31.csv","","49.40000009536743","resources/trios/L1T2A3.jpg","38","restless",0.8,0.4,0.5,0.219342609095463,"true"
"image-keyboard-response",285,239679,"0.0-3.91-1.91","qtjs3j2eeobth4f",309,"31.csv","","null","resources/maskTrios/BT2B.jpg","null","",NA,NA,NA,NA,""
"image-keyboard-response",286,240883,"0.0-3.91-2.91","qtjs3j2eeobth4f",309,"31.csv","","null","resources/images/coin2.png","null","",NA,NA,NA,NA,""
"image-keyboard-response",287,241061,"0.0-3.92-0.92","qtjs3j2eeobth4f",309,"31.csv","","176.20000004768372","resources/trios/L1T1A3.jpg","38","restless",0.8,0.4,0.5,0.57772647553373,"false"
"image-keyboard-response",288,241471,"0.0-3.92-1.92","qtjs3j2eeobth4f",309,"31.csv","","null","resources/maskTrios/BT1B.jpg","null","",NA,NA,NA,NA,""
"image-keyboard-response",289,242677,"0.0-3.92-2.92","qtjs3j2eeobth4f",309,"31.csv","","null","resources/images/fishbone.png","null","",NA,NA,NA,NA,""
"image-keyboard-response",290,242798,"0.0-3.93-0.93","qtjs3j2eeobth4f",309,"31.csv","","119","resources/trios/L1T2A1.jpg","38","restless",0.8,0.4,0.5,0.258970254103587,"true"
"image-keyboard-response",291,243208,"0.0-3.93-1.93","qtjs3j2eeobth4f",309,"31.csv","","null","resources/maskTrios/BT2B.jpg","null","",NA,NA,NA,NA,""
"image-keyboard-response",292,244422,"0.0-3.93-2.93","qtjs3j2eeobth4f",309,"31.csv","","null","resources/images/coin2.png","null","",NA,NA,NA,NA,""
"image-keyboard-response",293,244801,"0.0-3.94-0.94","qtjs3j2eeobth4f",309,"31.csv","","377.2999999523163","resources/trios/L1T1A3.jpg","38","restless",0.8,0.4,0.5,0.469311043962911,"false"
"image-keyboard-response",294,245215,"0.0-3.94-1.94","qtjs3j2eeobth4f",309,"31.csv","","null","resources/maskTrios/BT1B.jpg","null","",NA,NA,NA,NA,""
"image-keyboard-response",295,246430,"0.0-3.94-2.94","qtjs3j2eeobth4f",309,"31.csv","","null","resources/images/fishbone.png","null","",NA,NA,NA,NA,""
"image-keyboard-response",296,246624,"0.0-3.95-0.95","qtjs3j2eeobth4f",309,"31.csv","","192.90000009536743","resources/trios/L1T2A3.jpg","38","restless",0.7,0.4,0.5,0.360627436707754,"true"
"image-keyboard-response",297,247045,"0.0-3.95-1.95","qtjs3j2eeobth4f",309,"31.csv","","null","resources/maskTrios/BT2B.jpg","null","",NA,NA,NA,NA,""
"image-keyboard-response",298,248251,"0.0-3.95-2.95","qtjs3j2eeobth4f",309,"31.csv","","null","resources/images/coin2.png","null","",NA,NA,NA,NA,""
"image-keyboard-response",299,248369,"0.0-3.96-0.96","qtjs3j2eeobth4f",309,"31.csv","","116.10000014305115","resources/trios/L1T2A1.jpg","38","restless",0.7,0.4,0.6,0.596444721950395,"false"
"image-keyboard-response",300,248780,"0.0-3.96-1.96","qtjs3j2eeobth4f",309,"31.csv","","null","resources/maskTrios/BT2B.jpg","null","",NA,NA,NA,NA,""
"image-keyboard-response",301,249999,"0.0-3.96-2.96","qtjs3j2eeobth4f",309,"31.csv","","null","resources/images/fishbone.png","null","",NA,NA,NA,NA,""
"image-keyboard-response",302,250111,"0.0-3.97-0.97","qtjs3j2eeobth4f",309,"31.csv","","110.5","resources/trios/L2T2A1.jpg","37","restless",0.7,0.5,0.6,0.708793115592078,"false"
"image-keyboard-response",303,250525,"0.0-3.97-1.97","qtjs3j2eeobth4f",309,"31.csv","","null","resources/maskTrios/L2BB.jpg","null","",NA,NA,NA,NA,""
"image-keyboard-response",304,251738,"0.0-3.97-2.97","qtjs3j2eeobth4f",309,"31.csv","","null","resources/images/fishbone.png","null","",NA,NA,NA,NA,""
"image-keyboard-response",305,252091,"0.0-3.98-0.98","qtjs3j2eeobth4f",309,"31.csv","","351.7000000476837","resources/trios/L1T1A1.jpg","38","restless",0.7,0.5,0.6,0.14653766047357,"true"
"image-keyboard-response",306,252511,"0.0-3.98-1.98","qtjs3j2eeobth4f",309,"31.csv","","null","resources/maskTrios/BT1B.jpg","null","",NA,NA,NA,NA,""
"image-keyboard-response",307,253714,"0.0-3.98-2.98","qtjs3j2eeobth4f",309,"31.csv","","null","resources/images/coin2.png","null","",NA,NA,NA,NA,""
"image-keyboard-response",308,254173,"0.0-3.99-0.99","qtjs3j2eeobth4f",309,"31.csv","","457.2000000476837","resources/trios/L1T2A3.jpg","38","restless",0.7,0.5,0.6,0.0767255110857186,"true"
"image-keyboard-response",309,254592,"0.0-3.99-1.99","qtjs3j2eeobth4f",309,"31.csv","","null","resources/maskTrios/BT2B.jpg","null","",NA,NA,NA,NA,""
"image-keyboard-response",310,255806,"0.0-3.99-2.99","qtjs3j2eeobth4f",309,"31.csv","","null","resources/images/coin2.png","null","",NA,NA,NA,NA,""
"image-keyboard-response",311,256001,"0.0-3.100-0.100","qtjs3j2eeobth4f",309,"31.csv","","194.20000004768372","resources/trios/L1T2A3.jpg","37","restless",0.7,0.5,0.6,0.695705974256169,"true"
"image-keyboard-response",312,256413,"0.0-3.100-1.100","qtjs3j2eeobth4f",309,"31.csv","","null","resources/maskTrios/L1BB.jpg","null","",NA,NA,NA,NA,""
"image-keyboard-response",313,257621,"0.0-3.100-2.100","qtjs3j2eeobth4f",309,"31.csv","","null","resources/images/coin2.png","null","",NA,NA,NA,NA,""
"image-keyboard-response",314,257823,"0.0-3.101-0.101","qtjs3j2eeobth4f",309,"31.csv","","200.5","resources/trios/L2T1A3.jpg","37","restless",0.7,0.5,0.6,0.580734000362176,"true"
"image-keyboard-response",315,258226,"0.0-3.101-1.101","qtjs3j2eeobth4f",309,"31.csv","","null","resources/maskTrios/L2BB.jpg","null","",NA,NA,NA,NA,""
"image-keyboard-response",316,259445,"0.0-3.101-2.101","qtjs3j2eeobth4f",309,"31.csv","","null","resources/images/coin2.png","null","",NA,NA,NA,NA,""
"image-keyboard-response",317,259456,"0.0-3.102-0.102","qtjs3j2eeobth4f",309,"31.csv","","9.599999904632568","resources/trios/L1T1A1.jpg","37","restless",0.7,0.5,0.7,0.580161630751054,"true"
"image-keyboard-response",318,259880,"0.0-3.102-1.102","qtjs3j2eeobth4f",309,"31.csv","","null","resources/maskTrios/L1BB.jpg","null","",NA,NA,NA,NA,""
"image-keyboard-response",319,261092,"0.0-3.102-2.102","qtjs3j2eeobth4f",309,"31.csv","","null","resources/images/coin2.png","null","",NA,NA,NA,NA,""
"image-keyboard-response",320,261175,"0.0-3.103-0.103","qtjs3j2eeobth4f",309,"31.csv","","81.40000009536743","resources/trios/L2T1A1.jpg","37","restless",0.7,0.6,0.7,0.229250464405459,"true"
"image-keyboard-response",321,261587,"0.0-3.103-1.103","qtjs3j2eeobth4f",309,"31.csv","","null","resources/maskTrios/L2BB.jpg","null","",NA,NA,NA,NA,""
"image-keyboard-response",322,262798,"0.0-3.103-2.103","qtjs3j2eeobth4f",309,"31.csv","","null","resources/images/coin2.png","null","",NA,NA,NA,NA,""
"image-keyboard-response",323,262829,"0.0-3.104-0.104","qtjs3j2eeobth4f",309,"31.csv","","30.700000047683716","resources/trios/L1T1A3.jpg","37","restless",0.7,0.6,0.7,0.643949010619446,"true"
"image-keyboard-response",324,263245,"0.0-3.104-1.104","qtjs3j2eeobth4f",309,"31.csv","","null","resources/maskTrios/L1BB.jpg","null","",NA,NA,NA,NA,""
"image-keyboard-response",325,264451,"0.0-3.104-2.104","qtjs3j2eeobth4f",309,"31.csv","","null","resources/images/coin2.png","null","",NA,NA,NA,NA,""
"image-keyboard-response",326,264474,"0.0-3.105-0.105","qtjs3j2eeobth4f",309,"31.csv","","22.09999990463257","resources/trios/L1T2A3.jpg","37","restless",0.7,0.6,0.7,0.140027227405525,"true"
"image-keyboard-response",327,264890,"0.0-3.105-1.105","qtjs3j2eeobth4f",309,"31.csv","","null","resources/maskTrios/L1BB.jpg","null","",NA,NA,NA,NA,""
"image-keyboard-response",328,266100,"0.0-3.105-2.105","qtjs3j2eeobth4f",309,"31.csv","","null","resources/images/coin2.png","null","",NA,NA,NA,NA,""
"image-keyboard-response",329,266236,"0.0-3.106-0.106","qtjs3j2eeobth4f",309,"31.csv","","134.60000014305115","resources/trios/L2T1A1.jpg","37","restless",0.6,0.5,0.6,0.793372999756336,"false"
"image-keyboard-response",330,266654,"0.0-3.106-1.106","qtjs3j2eeobth4f",309,"31.csv","","null","resources/maskTrios/L2BB.jpg","null","",NA,NA,NA,NA,""
"image-keyboard-response",331,267861,"0.0-3.106-2.106","qtjs3j2eeobth4f",309,"31.csv","","null","resources/images/fishbone.png","null","",NA,NA,NA,NA,""
"image-keyboard-response",332,267911,"0.0-3.107-0.107","qtjs3j2eeobth4f",309,"31.csv","","48.5","resources/trios/L2T1A1.jpg","37","restless",0.6,0.5,0.6,0.120368150775487,"true"
"image-keyboard-response",333,268322,"0.0-3.107-1.107","qtjs3j2eeobth4f",309,"31.csv","","null","resources/maskTrios/L2BB.jpg","null","",NA,NA,NA,NA,""
"image-keyboard-response",334,269534,"0.0-3.107-2.107","qtjs3j2eeobth4f",309,"31.csv","","null","resources/images/coin2.png","null","",NA,NA,NA,NA,""
"image-keyboard-response",335,269737,"0.0-3.108-0.108","qtjs3j2eeobth4f",309,"31.csv","","200.90000009536743","resources/trios/L2T1A1.jpg","38","restless",0.6,0.5,0.6,0.939425357195708,"false"
"image-keyboard-response",336,270159,"0.0-3.108-1.108","qtjs3j2eeobth4f",309,"31.csv","","null","resources/maskTrios/BT1B.jpg","null","",NA,NA,NA,NA,""
"image-keyboard-response",337,271364,"0.0-3.108-2.108","qtjs3j2eeobth4f",309,"31.csv","","null","resources/images/fishbone.png","null","",NA,NA,NA,NA,""
"image-keyboard-response",338,271576,"0.0-3.109-0.109","qtjs3j2eeobth4f",309,"31.csv","","210.5","resources/trios/L1T2A1.jpg","37","restless",0.6,0.5,0.6,0.653560927232641,"false"
"image-keyboard-response",339,271997,"0.0-3.109-1.109","qtjs3j2eeobth4f",309,"31.csv","","null","resources/maskTrios/L1BB.jpg","null","",NA,NA,NA,NA,""
"image-keyboard-response",340,273203,"0.0-3.109-2.109","qtjs3j2eeobth4f",309,"31.csv","","null","resources/images/fishbone.png","null","",NA,NA,NA,NA,""
"image-keyboard-response",341,273204,"0.0-3.110-0.110","qtjs3j2eeobth4f",309,"31.csv","","0.20000004768371582","resources/trios/L1T1A1.jpg","37","restless",0.6,0.5,0.6,0.14383220525557,"true"
"image-keyboard-response",342,273623,"0.0-3.110-1.110","qtjs3j2eeobth4f",309,"31.csv","","null","resources/maskTrios/L1BB.jpg","null","",NA,NA,NA,NA,""
"image-keyboard-response",343,274830,"0.0-3.110-2.110","qtjs3j2eeobth4f",309,"31.csv","","null","resources/images/coin2.png","null","",NA,NA,NA,NA,""
"image-keyboard-response",344,274853,"0.0-3.111-0.111","qtjs3j2eeobth4f",309,"31.csv","","22.199999809265137","resources/trios/L2T1A3.jpg","37","restless",0.6,0.5,0.6,0.268227061098246,"true"
"image-keyboard-response",345,275264,"0.0-3.111-1.111","qtjs3j2eeobth4f",309,"31.csv","","null","resources/maskTrios/L2BB.jpg","null","",NA,NA,NA,NA,""
"image-keyboard-response",346,276488,"0.0-3.111-2.111","qtjs3j2eeobth4f",309,"31.csv","","null","resources/images/coin2.png","null","",NA,NA,NA,NA,""
"image-keyboard-response",347,276509,"0.0-3.112-0.112","qtjs3j2eeobth4f",309,"31.csv","","19","resources/trios/L1T2A3.jpg","37","restless",0.6,0.5,0.6,0.435704021733378,"true"
"image-keyboard-response",348,276922,"0.0-3.112-1.112","qtjs3j2eeobth4f",309,"31.csv","","null","resources/maskTrios/L1BB.jpg","null","",NA,NA,NA,NA,""
"image-keyboard-response",349,278139,"0.0-3.112-2.112","qtjs3j2eeobth4f",309,"31.csv","","null","resources/images/coin2.png","null","",NA,NA,NA,NA,""
"image-keyboard-response",350,278209,"0.0-3.113-0.113","qtjs3j2eeobth4f",309,"31.csv","","67.90000009536743","resources/trios/L2T1A3.jpg","37","restless",0.6,0.5,0.6,0.908991131051244,"false"
"image-keyboard-response",351,278619,"0.0-3.113-1.113","qtjs3j2eeobth4f",309,"31.csv","","null","resources/maskTrios/L2BB.jpg","null","",NA,NA,NA,NA,""
"image-keyboard-response",352,279834,"0.0-3.113-2.113","qtjs3j2eeobth4f",309,"31.csv","","null","resources/images/fishbone.png","null","",NA,NA,NA,NA,""
"image-keyboard-response",353,280030,"0.0-3.114-0.114","qtjs3j2eeobth4f",309,"31.csv","","194.5","resources/trios/L1T1A1.jpg","37","restless",0.6,0.5,0.6,0.457171909658934,"true"
"image-keyboard-response",354,280441,"0.0-3.114-1.114","qtjs3j2eeobth4f",309,"31.csv","","null","resources/maskTrios/L1BB.jpg","null","",NA,NA,NA,NA,""
"image-keyboard-response",355,281650,"0.0-3.114-2.114","qtjs3j2eeobth4f",309,"31.csv","","null","resources/images/coin2.png","null","",NA,NA,NA,NA,""
"image-keyboard-response",356,281853,"0.0-3.115-0.115","qtjs3j2eeobth4f",309,"31.csv","","202.20000004768372","resources/trios/L1T2A3.jpg","37","restless",0.6,0.5,0.6,0.952023567279458,"false"
"image-keyboard-response",357,282261,"0.0-3.115-1.115","qtjs3j2eeobth4f",309,"31.csv","","null","resources/maskTrios/L1BB.jpg","null","",NA,NA,NA,NA,""
"image-keyboard-response",358,283467,"0.0-3.115-2.115","qtjs3j2eeobth4f",309,"31.csv","","null","resources/images/fishbone.png","null","",NA,NA,NA,NA,""
"image-keyboard-response",359,283607,"0.0-3.116-0.116","qtjs3j2eeobth4f",309,"31.csv","","138.69999980926514","resources/trios/L2T1A3.jpg","37","restless",0.6,0.5,0.6,0.163580593635661,"true"
"image-keyboard-response",360,284022,"0.0-3.116-1.116","qtjs3j2eeobth4f",309,"31.csv","","null","resources/maskTrios/L2BB.jpg","null","",NA,NA,NA,NA,""
"image-keyboard-response",361,285234,"0.0-3.116-2.116","qtjs3j2eeobth4f",309,"31.csv","","null","resources/images/coin2.png","null","",NA,NA,NA,NA,""
"image-keyboard-response",362,285278,"0.0-3.117-0.117","qtjs3j2eeobth4f",309,"31.csv","","42.5","resources/trios/L2T2A1.jpg","37","restless",0.6,0.5,0.6,0.209978422984485,"true"
"image-keyboard-response",363,285699,"0.0-3.117-1.117","qtjs3j2eeobth4f",309,"31.csv","","null","resources/maskTrios/L2BB.jpg","null","",NA,NA,NA,NA,""
"image-keyboard-response",364,286920,"0.0-3.117-2.117","qtjs3j2eeobth4f",309,"31.csv","","null","resources/images/coin2.png","null","",NA,NA,NA,NA,""
"image-keyboard-response",365,287112,"0.0-3.118-0.118","qtjs3j2eeobth4f",309,"31.csv","","190","resources/trios/L1T1A1.jpg","38","restless",0.6,0.5,0.6,0.539484481685629,"false"
"image-keyboard-response",366,287537,"0.0-3.118-1.118","qtjs3j2eeobth4f",309,"31.csv","","null","resources/maskTrios/BT1B.jpg","null","",NA,NA,NA,NA,""
"image-keyboard-response",367,288758,"0.0-3.118-2.118","qtjs3j2eeobth4f",309,"31.csv","","null","resources/images/fishbone.png","null","",NA,NA,NA,NA,""
"image-keyboard-response",368,288865,"0.0-3.119-0.119","qtjs3j2eeobth4f",309,"31.csv","","105.79999995231628","resources/trios/L1T2A1.jpg","38","restless",0.5,0.5,0.6,0.795859153330879,"false"
"image-keyboard-response",369,289282,"0.0-3.119-1.119","qtjs3j2eeobth4f",309,"31.csv","","null","resources/maskTrios/BT2B.jpg","null","",NA,NA,NA,NA,""
"image-keyboard-response",370,290491,"0.0-3.119-2.119","qtjs3j2eeobth4f",309,"31.csv","","null","resources/images/fishbone.png","null","",NA,NA,NA,NA,""
"image-keyboard-response",371,290770,"0.0-3.120-0.120","qtjs3j2eeobth4f",309,"31.csv","","276.7000000476837","resources/trios/L2T1A3.jpg","38","restless",0.4,0.5,0.6,0.688716606183554,"false"
"image-keyboard-response",372,291189,"0.0-3.120-1.120","qtjs3j2eeobth4f",309,"31.csv","","null","resources/maskTrios/BT1B.jpg","null","",NA,NA,NA,NA,""
"image-keyboard-response",373,292402,"0.0-3.120-2.120","qtjs3j2eeobth4f",309,"31.csv","","null","resources/images/fishbone.png","null","",NA,NA,NA,NA,""
"image-keyboard-response",374,292470,"0.0-3.121-0.121","qtjs3j2eeobth4f",309,"31.csv","","65.20000004768372","resources/trios/L1T1A3.jpg","37","restless",0.4,0.5,0.6,0.629410665031263,"false"
"image-keyboard-response",375,292883,"0.0-3.121-1.121","qtjs3j2eeobth4f",309,"31.csv","","null","resources/maskTrios/L1BB.jpg","null","",NA,NA,NA,NA,""
"image-keyboard-response",376,294095,"0.0-3.121-2.121","qtjs3j2eeobth4f",309,"31.csv","","null","resources/images/fishbone.png","null","",NA,NA,NA,NA,""
"image-keyboard-response",377,294294,"0.0-3.122-0.122","qtjs3j2eeobth4f",309,"31.csv","","196.89999985694885","resources/trios/L1T1A1.jpg","37","restless",0.4,0.5,0.6,0.523851914010788,"false"
"image-keyboard-response",378,294701,"0.0-3.122-1.122","qtjs3j2eeobth4f",309,"31.csv","","null","resources/maskTrios/L1BB.jpg","null","",NA,NA,NA,NA,""
"image-keyboard-response",379,295921,"0.0-3.122-2.122","qtjs3j2eeobth4f",309,"31.csv","","null","resources/images/fishbone.png","null","",NA,NA,NA,NA,""
"image-keyboard-response",380,295945,"0.0-3.123-0.123","qtjs3j2eeobth4f",309,"31.csv","","22.700000047683716","resources/trios/L1T2A3.jpg","38","restless",0.4,0.4,0.6,0.132571067198892,"true"
"image-keyboard-response",381,296369,"0.0-3.123-1.123","qtjs3j2eeobth4f",309,"31.csv","","null","resources/maskTrios/BT2B.jpg","null","",NA,NA,NA,NA,""
"image-keyboard-response",382,297579,"0.0-3.123-2.123","qtjs3j2eeobth4f",309,"31.csv","","null","resources/images/coin2.png","null","",NA,NA,NA,NA,""
"image-keyboard-response",383,297750,"0.0-3.124-0.124","qtjs3j2eeobth4f",309,"31.csv","","169.59999990463257","resources/trios/L1T2A1.jpg","38","restless",0.4,0.4,0.6,0.247039344404704,"true"
"image-keyboard-response",384,298163,"0.0-3.124-1.124","qtjs3j2eeobth4f",309,"31.csv","","null","resources/maskTrios/BT2B.jpg","null","",NA,NA,NA,NA,""
"image-keyboard-response",385,299372,"0.0-3.124-2.124","qtjs3j2eeobth4f",309,"31.csv","","null","resources/images/coin2.png","null","",NA,NA,NA,NA,""
"image-keyboard-response",386,299567,"0.0-3.125-0.125","qtjs3j2eeobth4f",309,"31.csv","","193.59999990463257","resources/trios/L2T1A3.jpg","38","restless",0.4,0.4,0.6,0.917863616556015,"false"
"image-keyboard-response",387,299980,"0.0-3.125-1.125","qtjs3j2eeobth4f",309,"31.csv","","null","resources/maskTrios/BT1B.jpg","null","",NA,NA,NA,NA,""
"image-keyboard-response",388,301190,"0.0-3.125-2.125","qtjs3j2eeobth4f",309,"31.csv","","null","resources/images/fishbone.png","null","",NA,NA,NA,NA,""
"image-keyboard-response",389,301324,"0.0-3.126-0.126","qtjs3j2eeobth4f",309,"31.csv","","133.39999985694885","resources/trios/L2T1A1.jpg","38","restless",0.4,0.4,0.6,0.244904771692354,"true"
"image-keyboard-response",390,301732,"0.0-3.126-1.126","qtjs3j2eeobth4f",309,"31.csv","","null","resources/maskTrios/BT1B.jpg","null","",NA,NA,NA,NA,""
"image-keyboard-response",391,302942,"0.0-3.126-2.126","qtjs3j2eeobth4f",309,"31.csv","","null","resources/images/coin2.png","null","",NA,NA,NA,NA,""
"image-keyboard-response",392,303139,"0.0-3.127-0.127","qtjs3j2eeobth4f",309,"31.csv","","194.80000019073486","resources/trios/L2T2A3.jpg","38","restless",0.4,0.3,0.6,0.389711125836411,"false"
"image-keyboard-response",393,303549,"0.0-3.127-1.127","qtjs3j2eeobth4f",309,"31.csv","","null","resources/maskTrios/BT2B.jpg","null","",NA,NA,NA,NA,""
"image-keyboard-response",394,304762,"0.0-3.127-2.127","qtjs3j2eeobth4f",309,"31.csv","","null","resources/images/fishbone.png","null","",NA,NA,NA,NA,""
"image-keyboard-response",395,304861,"0.0-3.128-0.128","qtjs3j2eeobth4f",309,"31.csv","","96.10000014305115","resources/trios/L1T2A1.jpg","37","restless",0.4,0.3,0.6,0.526467427159399,"false"
"image-keyboard-response",396,305276,"0.0-3.128-1.128","qtjs3j2eeobth4f",309,"31.csv","","null","resources/maskTrios/L1BB.jpg","null","",NA,NA,NA,NA,""
"image-keyboard-response",397,306489,"0.0-3.128-2.128","qtjs3j2eeobth4f",309,"31.csv","","null","resources/images/fishbone.png","null","",NA,NA,NA,NA,""
"image-keyboard-response",398,306706,"0.0-3.129-0.129","qtjs3j2eeobth4f",309,"31.csv","","215.29999995231628","resources/trios/L1T2A1.jpg","37","restless",0.4,0.3,0.6,0.999308153199216,"false"
"image-keyboard-response",399,307124,"0.0-3.129-1.129","qtjs3j2eeobth4f",309,"31.csv","","null","resources/maskTrios/L1BB.jpg","null","",NA,NA,NA,NA,""
"image-keyboard-response",400,308330,"0.0-3.129-2.129","qtjs3j2eeobth4f",309,"31.csv","","null","resources/images/fishbone.png","null","",NA,NA,NA,NA,""
"image-keyboard-response",401,308688,"0.0-3.130-0.130","qtjs3j2eeobth4f",309,"31.csv","","356.69999980926514","resources/trios/L1T1A1.jpg","38","restless",0.4,0.3,0.6,0.399286148660882,"false"
"image-keyboard-response",402,309105,"0.0-3.130-1.130","qtjs3j2eeobth4f",309,"31.csv","","null","resources/maskTrios/BT1B.jpg","null","",NA,NA,NA,NA,""
"image-keyboard-response",403,310318,"0.0-3.130-2.130","qtjs3j2eeobth4f",309,"31.csv","","null","resources/images/fishbone.png","null","",NA,NA,NA,NA,""
"image-keyboard-response",404,310463,"0.0-3.131-0.131","qtjs3j2eeobth4f",309,"31.csv","","144.79999995231628","resources/trios/L1T2A3.jpg","37","restless",0.4,0.3,0.5,0.0753975491677554,"true"
"image-keyboard-response",405,310877,"0.0-3.131-1.131","qtjs3j2eeobth4f",309,"31.csv","","null","resources/maskTrios/L1BB.jpg","null","",NA,NA,NA,NA,""
"image-keyboard-response",406,312093,"0.0-3.131-2.131","qtjs3j2eeobth4f",309,"31.csv","","null","resources/images/coin2.png","null","",NA,NA,NA,NA,""
"image-keyboard-response",407,312269,"0.0-3.132-0.132","qtjs3j2eeobth4f",309,"31.csv","","174.60000014305115","resources/trios/L2T2A1.jpg","37","restless",0.4,0.3,0.6,0.581343913633203,"false"
"image-keyboard-response",408,312683,"0.0-3.132-1.132","qtjs3j2eeobth4f",309,"31.csv","","null","resources/maskTrios/L2BB.jpg","null","",NA,NA,NA,NA,""
"image-keyboard-response",409,313905,"0.0-3.132-2.132","qtjs3j2eeobth4f",309,"31.csv","","null","resources/images/fishbone.png","null","",NA,NA,NA,NA,""
"image-keyboard-response",410,314097,"0.0-3.133-0.133","qtjs3j2eeobth4f",309,"31.csv","","190.90000009536743","resources/trios/L2T1A1.jpg","37","restless",0.4,0.2,0.6,0.970252944785261,"false"
"image-keyboard-response",411,314510,"0.0-3.133-1.133","qtjs3j2eeobth4f",309,"31.csv","","null","resources/maskTrios/L2BB.jpg","null","",NA,NA,NA,NA,""
"image-keyboard-response",412,315720,"0.0-3.133-2.133","qtjs3j2eeobth4f",309,"31.csv","","null","resources/images/fishbone.png","null","",NA,NA,NA,NA,""
"image-keyboard-response",413,315862,"0.0-3.134-0.134","qtjs3j2eeobth4f",309,"31.csv","","140.10000014305115","resources/trios/L2T1A1.jpg","37","restless",0.3,0.2,0.6,0.871732206766733,"false"
"image-keyboard-response",414,316267,"0.0-3.134-1.134","qtjs3j2eeobth4f",309,"31.csv","","null","resources/maskTrios/L2BB.jpg","null","",NA,NA,NA,NA,""
"image-keyboard-response",415,317487,"0.0-3.134-2.134","qtjs3j2eeobth4f",309,"31.csv","","null","resources/images/fishbone.png","null","",NA,NA,NA,NA,""
"image-keyboard-response",416,317501,"0.0-3.135-0.135","qtjs3j2eeobth4f",309,"31.csv","","12.799999952316284","resources/trios/L2T1A3.jpg","37","restless",0.4,0.2,0.6,0.798050386048735,"false"
"image-keyboard-response",417,317920,"0.0-3.135-1.135","qtjs3j2eeobth4f",309,"31.csv","","null","resources/maskTrios/L2BB.jpg","null","",NA,NA,NA,NA,""
"image-keyboard-response",418,319130,"0.0-3.135-2.135","qtjs3j2eeobth4f",309,"31.csv","","null","resources/images/fishbone.png","null","",NA,NA,NA,NA,""
"image-keyboard-response",419,319323,"0.0-3.136-0.136","qtjs3j2eeobth4f",309,"31.csv","","191.30000019073486","resources/trios/L2T2A3.jpg","37","restless",0.4,0.2,0.6,0.459763542379652,"false"
"image-keyboard-response",420,319738,"0.0-3.136-1.136","qtjs3j2eeobth4f",309,"31.csv","","null","resources/maskTrios/L2BB.jpg","null","",NA,NA,NA,NA,""
"image-keyboard-response",421,320959,"0.0-3.136-2.136","qtjs3j2eeobth4f",309,"31.csv","","null","resources/images/fishbone.png","null","",NA,NA,NA,NA,""
"image-keyboard-response",422,321155,"0.0-3.137-0.137","qtjs3j2eeobth4f",309,"31.csv","","194.60000014305115","resources/trios/L2T2A1.jpg","38","restless",0.4,0.2,0.5,0.73802763075186,"false"
"image-keyboard-response",423,321564,"0.0-3.137-1.137","qtjs3j2eeobth4f",309,"31.csv","","null","resources/maskTrios/BT2B.jpg","null","",NA,NA,NA,NA,""
"image-keyboard-response",424,322770,"0.0-3.137-2.137","qtjs3j2eeobth4f",309,"31.csv","","null","resources/images/fishbone.png","null","",NA,NA,NA,NA,""
"image-keyboard-response",425,323030,"0.0-3.138-0.138","qtjs3j2eeobth4f",309,"31.csv","","259.2000000476837","resources/trios/L2T1A1.jpg","37","restless",0.4,0.2,0.5,0.896235790430129,"false"
"image-keyboard-response",426,323435,"0.0-3.138-1.138","qtjs3j2eeobth4f",309,"31.csv","","null","resources/maskTrios/L2BB.jpg","null","",NA,NA,NA,NA,""
"image-keyboard-response",427,324649,"0.0-3.138-2.138","qtjs3j2eeobth4f",309,"31.csv","","null","resources/images/fishbone.png","null","",NA,NA,NA,NA,""
"image-keyboard-response",428,324652,"0.0-3.139-0.139","qtjs3j2eeobth4f",309,"31.csv","","0.19999980926513672","resources/trios/L1T2A3.jpg","38","restless",0.4,0.2,0.6,0.953178769740571,"false"
"image-keyboard-response",429,325069,"0.0-3.139-1.139","qtjs3j2eeobth4f",309,"31.csv","","null","resources/maskTrios/BT2B.jpg","null","",NA,NA,NA,NA,""
"image-keyboard-response",430,326280,"0.0-3.139-2.139","qtjs3j2eeobth4f",309,"31.csv","","null","resources/images/fishbone.png","null","",NA,NA,NA,NA,""
"image-keyboard-response",431,326664,"0.0-3.140-0.140","qtjs3j2eeobth4f",309,"31.csv","","382.7000000476837","resources/trios/L1T2A3.jpg","38","restless",0.4,0.3,0.6,0.780050892216051,"false"
"image-keyboard-response",432,327088,"0.0-3.140-1.140","qtjs3j2eeobth4f",309,"31.csv","","null","resources/maskTrios/BT2B.jpg","null","",NA,NA,NA,NA,""
"image-keyboard-response",433,328311,"0.0-3.140-2.140","qtjs3j2eeobth4f",309,"31.csv","","null","resources/images/fishbone.png","null","",NA,NA,NA,NA,""
"image-keyboard-response",434,330190,"0.0-3.141-0.141","qtjs3j2eeobth4f",309,"31.csv","","1877.2999999523163","resources/trios/L2T1A3.jpg","38","restless",0.4,0.3,0.6,0.244020841528172,"true"
"image-keyboard-response",435,330597,"0.0-3.141-1.141","qtjs3j2eeobth4f",309,"31.csv","","null","resources/maskTrios/BT1B.jpg","null","",NA,NA,NA,NA,""
"image-keyboard-response",436,331814,"0.0-3.141-2.141","qtjs3j2eeobth4f",309,"31.csv","","null","resources/images/coin2.png","null","",NA,NA,NA,NA,""
"image-keyboard-response",437,332724,"0.0-3.142-0.142","qtjs3j2eeobth4f",309,"31.csv","","908.7000000476837","resources/trios/L2T2A1.jpg","37","restless",0.4,0.3,0.6,0.60156762998339,"false"
"image-keyboard-response",438,333143,"0.0-3.142-1.142","qtjs3j2eeobth4f",309,"31.csv","","null","resources/maskTrios/L2BB.jpg","null","",NA,NA,NA,NA,""
"image-keyboard-response",439,334348,"0.0-3.142-2.142","qtjs3j2eeobth4f",309,"31.csv","","null","resources/images/fishbone.png","null","",NA,NA,NA,NA,""
"image-keyboard-response",440,334722,"0.0-3.143-0.143","qtjs3j2eeobth4f",309,"31.csv","","373.40000009536743","resources/trios/L2T2A1.jpg","38","restless",0.4,0.3,0.6,0.223624587395263,"true"
"image-keyboard-response",441,335142,"0.0-3.143-1.143","qtjs3j2eeobth4f",309,"31.csv","","null","resources/maskTrios/BT2B.jpg","null","",NA,NA,NA,NA,""
"image-keyboard-response",442,336355,"0.0-3.143-2.143","qtjs3j2eeobth4f",309,"31.csv","","null","resources/images/coin2.png","null","",NA,NA,NA,NA,""
"image-keyboard-response",443,336765,"0.0-3.144-0.144","qtjs3j2eeobth4f",309,"31.csv","","408.2000000476837","resources/trios/L1T1A1.jpg","37","restless",0.4,0.3,0.7,0.579137177701112,"false"
"image-keyboard-response",444,337175,"0.0-3.144-1.144","qtjs3j2eeobth4f",309,"31.csv","","null","resources/maskTrios/L1BB.jpg","null","",NA,NA,NA,NA,""
"image-keyboard-response",445,338378,"0.0-3.144-2.144","qtjs3j2eeobth4f",309,"31.csv","","null","resources/images/fishbone.png","null","",NA,NA,NA,NA,""
"image-keyboard-response",446,338571,"0.0-3.145-0.145","qtjs3j2eeobth4f",309,"31.csv","","192.20000004768372","resources/trios/L1T1A1.jpg","38","restless",0.4,0.3,0.7,0.918927435325312,"false"
"image-keyboard-response",447,338981,"0.0-3.145-1.145","qtjs3j2eeobth4f",309,"31.csv","","null","resources/maskTrios/BT1B.jpg","null","",NA,NA,NA,NA,""
"image-keyboard-response",448,340196,"0.0-3.145-2.145","qtjs3j2eeobth4f",309,"31.csv","","null","resources/images/fishbone.png","null","",NA,NA,NA,NA,""
"image-keyboard-response",449,340392,"0.0-3.146-0.146","qtjs3j2eeobth4f",309,"31.csv","","195.09999990463257","resources/trios/L1T2A1.jpg","39","restless",0.4,0.4,0.7,0.822871695914868,"false"
"image-keyboard-response",450,340802,"0.0-3.146-1.146","qtjs3j2eeobth4f",309,"31.csv","","null","resources/maskTrios/BBA1.jpg","null","",NA,NA,NA,NA,""
"image-keyboard-response",451,342017,"0.0-3.146-2.146","qtjs3j2eeobth4f",309,"31.csv","","null","resources/images/fishbone.png","null","",NA,NA,NA,NA,""
"image-keyboard-response",452,342210,"0.0-3.147-0.147","qtjs3j2eeobth4f",309,"31.csv","","191.60000014305115","resources/trios/L1T2A1.jpg","39","restless",0.4,0.5,0.7,0.562176163519053,"true"
"image-keyboard-response",453,342620,"0.0-3.147-1.147","qtjs3j2eeobth4f",309,"31.csv","","null","resources/maskTrios/BBA1.jpg","null","",NA,NA,NA,NA,""
"image-keyboard-response",454,343831,"0.0-3.147-2.147","qtjs3j2eeobth4f",309,"31.csv","","null","resources/images/coin2.png","null","",NA,NA,NA,NA,""
"image-keyboard-response",455,344015,"0.0-3.148-0.148","qtjs3j2eeobth4f",309,"31.csv","","182.40000009536743","resources/trios/L1T2A3.jpg","39","restless",0.4,0.5,0.7,0.327717937149023,"true"
"image-keyboard-response",456,344420,"0.0-3.148-1.148","qtjs3j2eeobth4f",309,"31.csv","","null","resources/maskTrios/BBA3.jpg","null","",NA,NA,NA,NA,""
"image-keyboard-response",457,345629,"0.0-3.148-2.148","qtjs3j2eeobth4f",309,"31.csv","","null","resources/images/coin2.png","null","",NA,NA,NA,NA,""
"image-keyboard-response",458,345882,"0.0-3.149-0.149","qtjs3j2eeobth4f",309,"31.csv","","251.40000009536743","resources/trios/L1T1A3.jpg","39","restless",0.4,0.5,0.7,0.733784876912069,"false"
"image-keyboard-response",459,346302,"0.0-3.149-1.149","qtjs3j2eeobth4f",309,"31.csv","","null","resources/maskTrios/BBA3.jpg","null","",NA,NA,NA,NA,""
"image-keyboard-response",460,347507,"0.0-3.149-2.149","qtjs3j2eeobth4f",309,"31.csv","","null","resources/images/fishbone.png","null","",NA,NA,NA,NA,""
"image-keyboard-response",461,347707,"0.0-3.150-0.150","qtjs3j2eeobth4f",309,"31.csv","","197.80000019073486","resources/trios/L2T2A3.jpg","37","restless",0.4,0.5,0.8,0.0254664715866049,"true"
"image-keyboard-response",462,348129,"0.0-3.150-1.150","qtjs3j2eeobth4f",309,"31.csv","","null","resources/maskTrios/L2BB.jpg","null","",NA,NA,NA,NA,""
"image-keyboard-response",463,349344,"0.0-3.150-2.150","qtjs3j2eeobth4f",309,"31.csv","","null","resources/images/coin2.png","null","",NA,NA,NA,NA,""
"image-keyboard-response",464,349459,"0.0-3.151-0.151","qtjs3j2eeobth4f",309,"31.csv","","114.30000019073486","resources/trios/L1T2A3.jpg","38","restless",0.4,0.5,0.8,0.309495487437994,"true"
"image-keyboard-response",465,349871,"0.0-3.151-1.151","qtjs3j2eeobth4f",309,"31.csv","","null","resources/maskTrios/BT2B.jpg","null","",NA,NA,NA,NA,""
"image-keyboard-response",466,351082,"0.0-3.151-2.151","qtjs3j2eeobth4f",309,"31.csv","","null","resources/images/coin2.png","null","",NA,NA,NA,NA,""
"image-keyboard-response",467,351285,"0.0-3.152-0.152","qtjs3j2eeobth4f",309,"31.csv","","201.5","resources/trios/L1T1A1.jpg","39","restless",0.4,0.5,0.8,0.815198654158171,"false"
"image-keyboard-response",468,351697,"0.0-3.152-1.152","qtjs3j2eeobth4f",309,"31.csv","","null","resources/maskTrios/BBA1.jpg","null","",NA,NA,NA,NA,""
"image-keyboard-response",469,352919,"0.0-3.152-2.152","qtjs3j2eeobth4f",309,"31.csv","","null","resources/images/fishbone.png","null","",NA,NA,NA,NA,""
"image-keyboard-response",470,353117,"0.0-3.153-0.153","qtjs3j2eeobth4f",309,"31.csv","","195.89999985694885","resources/trios/L1T1A3.jpg","38","restless",0.4,0.5,0.8,0.270866012243211,"true"
"image-keyboard-response",471,353526,"0.0-3.153-1.153","qtjs3j2eeobth4f",309,"31.csv","","null","resources/maskTrios/BT1B.jpg","null","",NA,NA,NA,NA,""
"image-keyboard-response",472,354736,"0.0-3.153-2.153","qtjs3j2eeobth4f",309,"31.csv","","null","resources/images/coin2.png","null","",NA,NA,NA,NA,""
"image-keyboard-response",473,354824,"0.0-3.154-0.154","qtjs3j2eeobth4f",309,"31.csv","","86.79999995231628","resources/trios/L1T2A3.jpg","39","restless",0.4,0.5,0.8,0.0784955351599455,"true"
"image-keyboard-response",474,355249,"0.0-3.154-1.154","qtjs3j2eeobth4f",309,"31.csv","","null","resources/maskTrios/BBA3.jpg","null","",NA,NA,NA,NA,""
"image-keyboard-response",475,356465,"0.0-3.154-2.154","qtjs3j2eeobth4f",309,"31.csv","","null","resources/images/coin2.png","null","",NA,NA,NA,NA,""
"image-keyboard-response",476,356677,"0.0-3.155-0.155","qtjs3j2eeobth4f",309,"31.csv","","210","resources/trios/L2T2A3.jpg","39","restless",0.4,0.5,0.8,0.428803670787084,"true"
"image-keyboard-response",477,357085,"0.0-3.155-1.155","qtjs3j2eeobth4f",309,"31.csv","","null","resources/maskTrios/BBA3.jpg","null","",NA,NA,NA,NA,""
"image-keyboard-response",478,358295,"0.0-3.155-2.155","qtjs3j2eeobth4f",309,"31.csv","","null","resources/images/coin2.png","null","",NA,NA,NA,NA,""
"image-keyboard-response",479,358477,"0.0-3.156-0.156","qtjs3j2eeobth4f",309,"31.csv","","180.19999980926514","resources/trios/L2T1A3.jpg","38","restless",0.4,0.5,0.8,0.186517069628094,"true"
"image-keyboard-response",480,358886,"0.0-3.156-1.156","qtjs3j2eeobth4f",309,"31.csv","","null","resources/maskTrios/BT1B.jpg","null","",NA,NA,NA,NA,""
"image-keyboard-response",481,360098,"0.0-3.156-2.156","qtjs3j2eeobth4f",309,"31.csv","","null","resources/images/coin2.png","null","",NA,NA,NA,NA,""
"image-keyboard-response",482,360264,"0.0-3.157-0.157","qtjs3j2eeobth4f",309,"31.csv","","164.5","resources/trios/L2T2A3.jpg","39","restless",0.4,0.5,0.8,0.327612395367148,"true"
"image-keyboard-response",483,360679,"0.0-3.157-1.157","qtjs3j2eeobth4f",309,"31.csv","","null","resources/maskTrios/BBA3.jpg","null","",NA,NA,NA,NA,""
"image-keyboard-response",484,361886,"0.0-3.157-2.157","qtjs3j2eeobth4f",309,"31.csv","","null","resources/images/coin2.png","null","",NA,NA,NA,NA,""
"image-keyboard-response",485,362063,"0.0-3.158-0.158","qtjs3j2eeobth4f",309,"31.csv","","175.10000014305115","resources/trios/L1T1A1.jpg","38","restless",0.4,0.5,0.8,0.828158841048745,"false"
"image-keyboard-response",486,362472,"0.0-3.158-1.158","qtjs3j2eeobth4f",309,"31.csv","","null","resources/maskTrios/BT1B.jpg","null","",NA,NA,NA,NA,""
"image-keyboard-response",487,363680,"0.0-3.158-2.158","qtjs3j2eeobth4f",309,"31.csv","","null","resources/images/fishbone.png","null","",NA,NA,NA,NA,""
"image-keyboard-response",488,363888,"0.0-3.159-0.159","qtjs3j2eeobth4f",309,"31.csv","","206","resources/trios/L2T1A3.jpg","37","restless",0.4,0.4,0.8,0.154829410070203,"true"
"image-keyboard-response",489,364300,"0.0-3.159-1.159","qtjs3j2eeobth4f",309,"31.csv","","null","resources/maskTrios/L2BB.jpg","null","",NA,NA,NA,NA,""
"image-keyboard-response",490,365513,"0.0-3.159-2.159","qtjs3j2eeobth4f",309,"31.csv","","null","resources/images/coin2.png","null","",NA,NA,NA,NA,""
"image-keyboard-response",491,365721,"0.0-3.160-0.160","qtjs3j2eeobth4f",309,"31.csv","","206.20000004768372","resources/trios/L2T1A1.jpg","39","restless",0.4,0.4,0.8,0.378683891298105,"true"
"image-keyboard-response",492,366133,"0.0-3.160-1.160","qtjs3j2eeobth4f",309,"31.csv","","null","resources/maskTrios/BBA1.jpg","null","",NA,NA,NA,NA,""
"image-keyboard-response",493,367344,"0.0-3.160-2.160","qtjs3j2eeobth4f",309,"31.csv","","null","resources/images/coin2.png","null","",NA,NA,NA,NA,""
"image-keyboard-response",494,367359,"0.0-3.161-0.161","qtjs3j2eeobth4f",309,"31.csv","","13.700000047683716","resources/trios/L1T2A1.jpg","38","restless",0.4,0.4,0.7,0.17614072485875,"true"
"image-keyboard-response",495,367776,"0.0-3.161-1.161","qtjs3j2eeobth4f",309,"31.csv","","null","resources/maskTrios/BT2B.jpg","null","",NA,NA,NA,NA,""
"image-keyboard-response",496,368985,"0.0-3.161-2.161","qtjs3j2eeobth4f",309,"31.csv","","null","resources/images/coin2.png","null","",NA,NA,NA,NA,""
"image-keyboard-response",497,369205,"0.0-3.162-0.162","qtjs3j2eeobth4f",309,"31.csv","","218.5","resources/trios/L1T2A1.jpg","39","restless",0.4,0.4,0.7,0.817567450613355,"false"
"image-keyboard-response",498,369624,"0.0-3.162-1.162","qtjs3j2eeobth4f",309,"31.csv","","null","resources/maskTrios/BBA1.jpg","null","",NA,NA,NA,NA,""
"image-keyboard-response",499,370838,"0.0-3.162-2.162","qtjs3j2eeobth4f",309,"31.csv","","null","resources/images/fishbone.png","null","",NA,NA,NA,NA,""
"image-keyboard-response",500,371026,"0.0-3.163-0.163","qtjs3j2eeobth4f",309,"31.csv","","187.10000014305115","resources/trios/L1T1A3.jpg","38","restless",0.4,0.4,0.7,0.236845701797265,"true"
"image-keyboard-response",501,371439,"0.0-3.163-1.163","qtjs3j2eeobth4f",309,"31.csv","","null","resources/maskTrios/BT1B.jpg","null","",NA,NA,NA,NA,""
"image-keyboard-response",502,372642,"0.0-3.163-2.163","qtjs3j2eeobth4f",309,"31.csv","","null","resources/images/coin2.png","null","",NA,NA,NA,NA,""
"image-keyboard-response",503,372752,"0.0-3.164-0.164","qtjs3j2eeobth4f",309,"31.csv","","108.69999980926514","resources/trios/L1T2A1.jpg","39","restless",0.4,0.4,0.7,0.537065336348616,"true"
"image-keyboard-response",504,373171,"0.0-3.164-1.164","qtjs3j2eeobth4f",309,"31.csv","","null","resources/maskTrios/BBA1.jpg","null","",NA,NA,NA,NA,""
"image-keyboard-response",505,374382,"0.0-3.164-2.164","qtjs3j2eeobth4f",309,"31.csv","","null","resources/images/coin2.png","null","",NA,NA,NA,NA,""
"image-keyboard-response",506,374587,"0.0-3.165-0.165","qtjs3j2eeobth4f",309,"31.csv","","203.39999985694885","resources/trios/L2T2A1.jpg","39","restless",0.4,0.5,0.7,0.973781208782848,"false"
"image-keyboard-response",507,375007,"0.0-3.165-1.165","qtjs3j2eeobth4f",309,"31.csv","","null","resources/maskTrios/BBA1.jpg","null","",NA,NA,NA,NA,""
"image-keyboard-response",508,376222,"0.0-3.165-2.165","qtjs3j2eeobth4f",309,"31.csv","","null","resources/images/fishbone.png","null","",NA,NA,NA,NA,""
"image-keyboard-response",509,376439,"0.0-3.166-0.166","qtjs3j2eeobth4f",309,"31.csv","","215.5","resources/trios/L2T1A1.jpg","39","restless",0.4,0.5,0.7,0.53931099250147,"true"
"image-keyboard-response",510,376846,"0.0-3.166-1.166","qtjs3j2eeobth4f",309,"31.csv","","null","resources/maskTrios/BBA1.jpg","null","",NA,NA,NA,NA,""
"image-keyboard-response",511,378053,"0.0-3.166-2.166","qtjs3j2eeobth4f",309,"31.csv","","null","resources/images/coin2.png","null","",NA,NA,NA,NA,""
"image-keyboard-response",512,378333,"0.0-3.167-0.167","qtjs3j2eeobth4f",309,"31.csv","","279.10000014305115","resources/trios/L2T1A3.jpg","38","restless",0.4,0.5,0.7,0.745136852525532,"false"
"image-keyboard-response",513,378749,"0.0-3.167-1.167","qtjs3j2eeobth4f",309,"31.csv","","null","resources/maskTrios/BT1B.jpg","null","",NA,NA,NA,NA,""
"image-keyboard-response",514,379963,"0.0-3.167-2.167","qtjs3j2eeobth4f",309,"31.csv","","null","resources/images/fishbone.png","null","",NA,NA,NA,NA,""
"image-keyboard-response",515,380236,"0.0-3.168-0.168","qtjs3j2eeobth4f",309,"31.csv","","271.40000009536743","resources/trios/L1T2A1.jpg","37","restless",0.4,0.5,0.8,0.448995227881035,"false"
"image-keyboard-response",516,380645,"0.0-3.168-1.168","qtjs3j2eeobth4f",309,"31.csv","","null","resources/maskTrios/L1BB.jpg","null","",NA,NA,NA,NA,""
"image-keyboard-response",517,381853,"0.0-3.168-2.168","qtjs3j2eeobth4f",309,"31.csv","","null","resources/images/fishbone.png","null","",NA,NA,NA,NA,""
"image-keyboard-response",518,382000,"0.0-3.169-0.169","qtjs3j2eeobth4f",309,"31.csv","","145.09999990463257","resources/trios/L2T1A3.jpg","37","restless",0.4,0.5,0.8,0.83840399087253,"false"
"image-keyboard-response",519,382410,"0.0-3.169-1.169","qtjs3j2eeobth4f",309,"31.csv","","null","resources/maskTrios/L2BB.jpg","null","",NA,NA,NA,NA,""
"image-keyboard-response",520,383616,"0.0-3.169-2.169","qtjs3j2eeobth4f",309,"31.csv","","null","resources/images/fishbone.png","null","",NA,NA,NA,NA,""
"image-keyboard-response",521,383863,"0.0-3.170-0.170","qtjs3j2eeobth4f",309,"31.csv","","245.39999985694885","resources/trios/L1T2A1.jpg","38","restless",0.4,0.5,0.8,0.901844038128428,"false"
"image-keyboard-response",522,384272,"0.0-3.170-1.170","qtjs3j2eeobth4f",309,"31.csv","","null","resources/maskTrios/BT2B.jpg","null","",NA,NA,NA,NA,""
"image-keyboard-response",523,385485,"0.0-3.170-2.170","qtjs3j2eeobth4f",309,"31.csv","","null","resources/images/fishbone.png","null","",NA,NA,NA,NA,""
"image-keyboard-response",524,385533,"0.0-3.171-0.171","qtjs3j2eeobth4f",309,"31.csv","","47","resources/trios/L2T2A3.jpg","39","restless",0.4,0.5,0.8,0.0570903324648571,"true"
"image-keyboard-response",525,385949,"0.0-3.171-1.171","qtjs3j2eeobth4f",309,"31.csv","","null","resources/maskTrios/BBA3.jpg","null","",NA,NA,NA,NA,""
"image-keyboard-response",526,387161,"0.0-3.171-2.171","qtjs3j2eeobth4f",309,"31.csv","","null","resources/images/coin2.png","null","",NA,NA,NA,NA,""
"image-keyboard-response",527,387459,"0.0-3.172-0.172","qtjs3j2eeobth4f",309,"31.csv","","296.10000014305115","resources/trios/L1T2A1.jpg","39","restless",0.4,0.5,0.8,0.939118844702529,"false"
"image-keyboard-response",528,387873,"0.0-3.172-1.172","qtjs3j2eeobth4f",309,"31.csv","","null","resources/maskTrios/BBA1.jpg","null","",NA,NA,NA,NA,""
"image-keyboard-response",529,389095,"0.0-3.172-2.172","qtjs3j2eeobth4f",309,"31.csv","","null","resources/images/fishbone.png","null","",NA,NA,NA,NA,""
"image-keyboard-response",530,389283,"0.0-3.173-0.173","qtjs3j2eeobth4f",309,"31.csv","","186.29999995231628","resources/trios/L1T1A1.jpg","39","restless",0.4,0.5,0.8,0.632891682012432,"true"
"image-keyboard-response",531,389702,"0.0-3.173-1.173","qtjs3j2eeobth4f",309,"31.csv","","null","resources/maskTrios/BBA1.jpg","null","",NA,NA,NA,NA,""
"image-keyboard-response",532,390915,"0.0-3.173-2.173","qtjs3j2eeobth4f",309,"31.csv","","null","resources/images/coin2.png","null","",NA,NA,NA,NA,""
"image-keyboard-response",533,391088,"0.0-3.174-0.174","qtjs3j2eeobth4f",309,"31.csv","","171.20000004768372","resources/trios/L1T1A3.jpg","39","restless",0.4,0.5,0.8,0.978981263746304,"false"
"image-keyboard-response",534,391502,"0.0-3.174-1.174","qtjs3j2eeobth4f",309,"31.csv","","null","resources/maskTrios/BBA3.jpg","null","",NA,NA,NA,NA,""
"image-keyboard-response",535,392721,"0.0-3.174-2.174","qtjs3j2eeobth4f",309,"31.csv","","null","resources/images/fishbone.png","null","",NA,NA,NA,NA,""
"image-keyboard-response",536,392959,"0.0-3.175-0.175","qtjs3j2eeobth4f",309,"31.csv","","236.29999995231628","resources/trios/L1T2A1.jpg","38","restless",0.4,0.5,0.9,0.812193753157367,"false"
"image-keyboard-response",537,393370,"0.0-3.175-1.175","qtjs3j2eeobth4f",309,"31.csv","","null","resources/maskTrios/BT2B.jpg","null","",NA,NA,NA,NA,""
"image-keyboard-response",538,394589,"0.0-3.175-2.175","qtjs3j2eeobth4f",309,"31.csv","","null","resources/images/fishbone.png","null","",NA,NA,NA,NA,""
"image-keyboard-response",539,394770,"0.0-3.176-0.176","qtjs3j2eeobth4f",309,"31.csv","","180.10000014305115","resources/trios/L1T2A3.jpg","38","restless",0.4,0.5,0.9,0.196484197135554,"true"
"image-keyboard-response",540,395192,"0.0-3.176-1.176","qtjs3j2eeobth4f",309,"31.csv","","null","resources/maskTrios/BT2B.jpg","null","",NA,NA,NA,NA,""
"image-keyboard-response",541,396416,"0.0-3.176-2.176","qtjs3j2eeobth4f",309,"31.csv","","null","resources/images/coin2.png","null","",NA,NA,NA,NA,""
"image-keyboard-response",542,396642,"0.0-3.177-0.177","qtjs3j2eeobth4f",309,"31.csv","","224.29999995231628","resources/trios/L2T1A1.jpg","37","restless",0.4,0.5,0.9,0.115840771469439,"true"
"image-keyboard-response",543,397066,"0.0-3.177-1.177","qtjs3j2eeobth4f",309,"31.csv","","null","resources/maskTrios/L2BB.jpg","null","",NA,NA,NA,NA,""
"image-keyboard-response",544,398274,"0.0-3.177-2.177","qtjs3j2eeobth4f",309,"31.csv","","null","resources/images/coin2.png","null","",NA,NA,NA,NA,""
"image-keyboard-response",545,398477,"0.0-3.178-0.178","qtjs3j2eeobth4f",309,"31.csv","","201.40000009536743","resources/trios/L1T2A1.jpg","39","restless",0.4,0.5,0.9,0.954336742961974,"false"
"image-keyboard-response",546,398895,"0.0-3.178-1.178","qtjs3j2eeobth4f",309,"31.csv","","null","resources/maskTrios/BBA1.jpg","null","",NA,NA,NA,NA,""
"image-keyboard-response",547,400110,"0.0-3.178-2.178","qtjs3j2eeobth4f",309,"31.csv","","null","resources/images/fishbone.png","null","",NA,NA,NA,NA,""
"image-keyboard-response",548,400247,"0.0-3.179-0.179","qtjs3j2eeobth4f",309,"31.csv","","134.89999985694885","resources/trios/L2T2A1.jpg","38","restless",0.4,0.5,0.9,0.521327825826367,"false"
"image-keyboard-response",549,400653,"0.0-3.179-1.179","qtjs3j2eeobth4f",309,"31.csv","","null","resources/maskTrios/BT2B.jpg","null","",NA,NA,NA,NA,""
"image-keyboard-response",550,401863,"0.0-3.179-2.179","qtjs3j2eeobth4f",309,"31.csv","","null","resources/images/fishbone.png","null","",NA,NA,NA,NA,""
"image-keyboard-response",551,402151,"0.0-3.180-0.180","qtjs3j2eeobth4f",309,"31.csv","","286.5","resources/trios/L1T2A3.jpg","38","restless",0.4,0.6,0.9,0.0768852671660054,"true"
"image-keyboard-response",552,402560,"0.0-3.180-1.180","qtjs3j2eeobth4f",309,"31.csv","","null","resources/maskTrios/BT2B.jpg","null","",NA,NA,NA,NA,""
"image-keyboard-response",553,403784,"0.0-3.180-2.180","qtjs3j2eeobth4f",309,"31.csv","","null","resources/images/coin2.png","null","",NA,NA,NA,NA,""
"image-keyboard-response",554,404122,"0.0-3.181-0.181","qtjs3j2eeobth4f",309,"31.csv","","335.80000019073486","resources/trios/L1T2A1.jpg","38","restless",0.4,0.6,0.9,0.293515856460052,"true"
"image-keyboard-response",555,404531,"0.0-3.181-1.181","qtjs3j2eeobth4f",309,"31.csv","","null","resources/maskTrios/BT2B.jpg","null","",NA,NA,NA,NA,""
"image-keyboard-response",556,405746,"0.0-3.181-2.181","qtjs3j2eeobth4f",309,"31.csv","","null","resources/images/coin2.png","null","",NA,NA,NA,NA,""
"image-keyboard-response",557,405987,"0.0-3.182-0.182","qtjs3j2eeobth4f",309,"31.csv","","239.5","resources/trios/L1T2A3.jpg","38","restless",0.4,0.6,0.8,0.826447915998117,"false"
"image-keyboard-response",558,406399,"0.0-3.182-1.182","qtjs3j2eeobth4f",309,"31.csv","","null","resources/maskTrios/BT2B.jpg","null","",NA,NA,NA,NA,""
"image-keyboard-response",559,407613,"0.0-3.182-2.182","qtjs3j2eeobth4f",309,"31.csv","","null","resources/images/fishbone.png","null","",NA,NA,NA,NA,""
"image-keyboard-response",560,407840,"0.0-3.183-0.183","qtjs3j2eeobth4f",309,"31.csv","","226","resources/trios/L1T2A1.jpg","38","restless",0.4,0.6,0.8,0.920971636911306,"false"
"image-keyboard-response",561,408250,"0.0-3.183-1.183","qtjs3j2eeobth4f",309,"31.csv","","null","resources/maskTrios/BT2B.jpg","null","",NA,NA,NA,NA,""
"image-keyboard-response",562,409474,"0.0-3.183-2.183","qtjs3j2eeobth4f",309,"31.csv","","null","resources/images/fishbone.png","null","",NA,NA,NA,NA,""
"image-keyboard-response",563,409737,"0.0-3.184-0.184","qtjs3j2eeobth4f",309,"31.csv","","262","resources/trios/L1T1A1.jpg","38","restless",0.4,0.6,0.8,0.293398244551918,"true"
"image-keyboard-response",564,410155,"0.0-3.184-1.184","qtjs3j2eeobth4f",309,"31.csv","","null","resources/maskTrios/BT1B.jpg","null","",NA,NA,NA,NA,""
"image-keyboard-response",565,411362,"0.0-3.184-2.184","qtjs3j2eeobth4f",309,"31.csv","","null","resources/images/coin2.png","null","",NA,NA,NA,NA,""
"image-keyboard-response",566,411579,"0.0-3.185-0.185","qtjs3j2eeobth4f",309,"31.csv","","215.20000004768372","resources/trios/L1T1A3.jpg","39","restless",0.5,0.6,0.8,0.649565652585207,"true"
"image-keyboard-response",567,412000,"0.0-3.185-1.185","qtjs3j2eeobth4f",309,"31.csv","","null","resources/maskTrios/BBA3.jpg","null","",NA,NA,NA,NA,""
"image-keyboard-response",568,413224,"0.0-3.185-2.185","qtjs3j2eeobth4f",309,"31.csv","","null","resources/images/coin2.png","null","",NA,NA,NA,NA,""
"image-keyboard-response",569,413502,"0.0-3.186-0.186","qtjs3j2eeobth4f",309,"31.csv","","276.2000000476837","resources/trios/L2T2A3.jpg","37","restless",0.4,0.6,0.8,0.786200153919832,"false"
"image-keyboard-response",570,413909,"0.0-3.186-1.186","qtjs3j2eeobth4f",309,"31.csv","","null","resources/maskTrios/L2BB.jpg","null","",NA,NA,NA,NA,""
"image-keyboard-response",571,415122,"0.0-3.186-2.186","qtjs3j2eeobth4f",309,"31.csv","","null","resources/images/fishbone.png","null","",NA,NA,NA,NA,""
"image-keyboard-response",572,415374,"0.0-3.187-0.187","qtjs3j2eeobth4f",309,"31.csv","","250.09999990463257","resources/trios/L2T2A3.jpg","39","restless",0.4,0.6,0.8,0.235042979763402,"true"
"image-keyboard-response",573,415786,"0.0-3.187-1.187","qtjs3j2eeobth4f",309,"31.csv","","null","resources/maskTrios/BBA3.jpg","null","",NA,NA,NA,NA,""
"image-keyboard-response",574,417000,"0.0-3.187-2.187","qtjs3j2eeobth4f",309,"31.csv","","null","resources/images/coin2.png","null","",NA,NA,NA,NA,""
"image-keyboard-response",575,417178,"0.0-3.188-0.188","qtjs3j2eeobth4f",309,"31.csv","","176.10000014305115","resources/trios/L1T2A1.jpg","39","restless",0.4,0.6,0.7,0.308739578237827,"true"
"image-keyboard-response",576,417588,"0.0-3.188-1.188","qtjs3j2eeobth4f",309,"31.csv","","null","resources/maskTrios/BBA1.jpg","null","",NA,NA,NA,NA,""
"image-keyboard-response",577,418805,"0.0-3.188-2.188","qtjs3j2eeobth4f",309,"31.csv","","null","resources/images/coin2.png","null","",NA,NA,NA,NA,""
"image-keyboard-response",578,418987,"0.0-3.189-0.189","qtjs3j2eeobth4f",309,"31.csv","","179.29999995231628","resources/trios/L1T2A3.jpg","39","restless",0.4,0.6,0.7,0.320289740111587,"true"
"image-keyboard-response",579,419395,"0.0-3.189-1.189","qtjs3j2eeobth4f",309,"31.csv","","null","resources/maskTrios/BBA3.jpg","null","",NA,NA,NA,NA,""
"image-keyboard-response",580,420611,"0.0-3.189-2.189","qtjs3j2eeobth4f",309,"31.csv","","null","resources/images/coin2.png","null","",NA,NA,NA,NA,""
"image-keyboard-response",581,420833,"0.0-3.190-0.190","qtjs3j2eeobth4f",309,"31.csv","","220.29999995231628","resources/trios/L2T2A1.jpg","39","restless",0.4,0.6,0.6,0.432664217731314,"true"
"image-keyboard-response",582,421243,"0.0-3.190-1.190","qtjs3j2eeobth4f",309,"31.csv","","null","resources/maskTrios/BBA1.jpg","null","",NA,NA,NA,NA,""
"image-keyboard-response",583,422453,"0.0-3.190-2.190","qtjs3j2eeobth4f",309,"31.csv","","null","resources/images/coin2.png","null","",NA,NA,NA,NA,""
"image-keyboard-response",584,422613,"0.0-3.191-0.191","qtjs3j2eeobth4f",309,"31.csv","","158.5","resources/trios/L2T1A1.jpg","39","restless",0.4,0.6,0.6,0.0629976506195236,"true"
"image-keyboard-response",585,423026,"0.0-3.191-1.191","qtjs3j2eeobth4f",309,"31.csv","","null","resources/maskTrios/BBA1.jpg","null","",NA,NA,NA,NA,""
"image-keyboard-response",586,424240,"0.0-3.191-2.191","qtjs3j2eeobth4f",309,"31.csv","","null","resources/images/coin2.png","null","",NA,NA,NA,NA,""
"image-keyboard-response",587,424373,"0.0-3.192-0.192","qtjs3j2eeobth4f",309,"31.csv","","131.09999990463257","resources/trios/L1T1A3.jpg","39","restless",0.4,0.6,0.6,0.785306526867895,"false"
"image-keyboard-response",588,424785,"0.0-3.192-1.192","qtjs3j2eeobth4f",309,"31.csv","","null","resources/maskTrios/BBA3.jpg","null","",NA,NA,NA,NA,""
"image-keyboard-response",589,426007,"0.0-3.192-2.192","qtjs3j2eeobth4f",309,"31.csv","","null","resources/images/fishbone.png","null","",NA,NA,NA,NA,""
"image-keyboard-response",590,426276,"0.0-3.193-0.193","qtjs3j2eeobth4f",309,"31.csv","","268.09999990463257","resources/trios/L1T2A3.jpg","39","restless",0.4,0.6,0.6,0.230506407176082,"true"
"image-keyboard-response",591,426684,"0.0-3.193-1.193","qtjs3j2eeobth4f",309,"31.csv","","null","resources/maskTrios/BBA3.jpg","null","",NA,NA,NA,NA,""
"image-keyboard-response",592,427886,"0.0-3.193-2.193","qtjs3j2eeobth4f",309,"31.csv","","null","resources/images/coin2.png","null","",NA,NA,NA,NA,""
"image-keyboard-response",593,428207,"0.0-3.194-0.194","qtjs3j2eeobth4f",309,"31.csv","","318.7999999523163","resources/trios/L2T2A3.jpg","39","restless",0.5,0.6,0.6,0.27917503470151,"true"
"image-keyboard-response",594,428625,"0.0-3.194-1.194","qtjs3j2eeobth4f",309,"31.csv","","null","resources/maskTrios/BBA3.jpg","null","",NA,NA,NA,NA,""
"image-keyboard-response",595,429839,"0.0-3.194-2.194","qtjs3j2eeobth4f",309,"31.csv","","null","resources/images/coin2.png","null","",NA,NA,NA,NA,""
"image-keyboard-response",596,430046,"0.0-3.195-0.195","qtjs3j2eeobth4f",309,"31.csv","","205.29999995231628","resources/trios/L2T1A1.jpg","38","restless",0.5,0.6,0.6,0.360979667719665,"true"
"image-keyboard-response",597,430457,"0.0-3.195-1.195","qtjs3j2eeobth4f",309,"31.csv","","null","resources/maskTrios/BT1B.jpg","null","",NA,NA,NA,NA,""
"image-keyboard-response",598,431669,"0.0-3.195-2.195","qtjs3j2eeobth4f",309,"31.csv","","null","resources/images/coin2.png","null","",NA,NA,NA,NA,""
"image-keyboard-response",599,431874,"0.0-3.196-0.196","qtjs3j2eeobth4f",309,"31.csv","","203.29999995231628","resources/trios/L2T1A3.jpg","38","restless",0.5,0.6,0.6,0.353287555497898,"true"
"image-keyboard-response",600,432287,"0.0-3.196-1.196","qtjs3j2eeobth4f",309,"31.csv","","null","resources/maskTrios/BT1B.jpg","null","",NA,NA,NA,NA,""
"image-keyboard-response",601,433494,"0.0-3.196-2.196","qtjs3j2eeobth4f",309,"31.csv","","null","resources/images/coin2.png","null","",NA,NA,NA,NA,""
"image-keyboard-response",602,433685,"0.0-3.197-0.197","qtjs3j2eeobth4f",309,"31.csv","","189.29999995231628","resources/trios/L2T1A3.jpg","37","restless",0.5,0.6,0.6,0.656233578767295,"false"
"image-keyboard-response",603,434100,"0.0-3.197-1.197","qtjs3j2eeobth4f",309,"31.csv","","null","resources/maskTrios/L2BB.jpg","null","",NA,NA,NA,NA,""
"image-keyboard-response",604,435313,"0.0-3.197-2.197","qtjs3j2eeobth4f",309,"31.csv","","null","resources/images/fishbone.png","null","",NA,NA,NA,NA,""
"image-keyboard-response",605,435517,"0.0-3.198-0.198","qtjs3j2eeobth4f",309,"31.csv","","201","resources/trios/L1T2A3.jpg","38","restless",0.4,0.6,0.6,0.192670652967347,"true"
"image-keyboard-response",606,435936,"0.0-3.198-1.198","qtjs3j2eeobth4f",309,"31.csv","","null","resources/maskTrios/BT2B.jpg","null","",NA,NA,NA,NA,""
"image-keyboard-response",607,437146,"0.0-3.198-2.198","qtjs3j2eeobth4f",309,"31.csv","","null","resources/images/coin2.png","null","",NA,NA,NA,NA,""
"image-keyboard-response",608,437298,"0.0-3.199-0.199","qtjs3j2eeobth4f",309,"31.csv","","149.69999980926514","resources/trios/L2T2A3.jpg","38","restless",0.4,0.6,0.6,0.416429255044615,"true"
"image-keyboard-response",609,437720,"0.0-3.199-1.199","qtjs3j2eeobth4f",309,"31.csv","","null","resources/maskTrios/BT2B.jpg","null","",NA,NA,NA,NA,""
