"trial_type","trial_index","time_elapsed","internal_node_id","subject","participantCode","walkNumber","success","rt","stimulus","key_press","test_part","leftProb","midProb","rightProb","generatedNum","correct"
"pavlovia",0,1289,"0.0-0.0","qmscdneqdgsvgb8",111,"182.csv","","","","","",NA,NA,NA,NA,""
"fullscreen",1,4206,"0.0-1.0","qmscdneqdgsvgb8",111,"182.csv","true","","","","",NA,NA,NA,NA,""
"html-keyboard-response",2,9898,"0.0-2.0-0.0","qmscdneqdgsvgb8",111,"182.csv","","5639.084999987972","<p><font size='6'>Arrrgh!</p></font><p>Can you be the best pirate? Try to find lots of gold! But beware, some islands have more gold than others, and over time, the island with the most gold may change. Can YOU figure it out? </p><font size='6'>GOOD LUCK, CAPTAIN!!!</font><p>Press any key to begin</p>","32","",NA,NA,NA,NA,""
"image-keyboard-response",3,12904,"0.0-2.0-1.0","qmscdneqdgsvgb8",111,"182.csv","","null","resources/image_sets/111.png","null","",NA,NA,NA,NA,""
"image-keyboard-response",4,18147,"0.0-2.0-2.0","qmscdneqdgsvgb8",111,"182.csv","","5241.600000008475","resources/image_sets/left_highlight.png","37","",NA,NA,NA,NA,""
"image-keyboard-response",5,20375,"0.0-2.0-3.0","qmscdneqdgsvgb8",111,"182.csv","","2228.034999992815","resources/image_sets/mid_highlight.png","38","",NA,NA,NA,NA,""
"image-keyboard-response",6,21459,"0.0-2.0-4.0","qmscdneqdgsvgb8",111,"182.csv","","1082.3050000035437","resources/image_sets/right_highlight.png","39","",NA,NA,NA,NA,""
"image-keyboard-response",7,24907,"0.0-2.0-5.0","qmscdneqdgsvgb8",111,"182.csv","","3447.474999993574","resources/image_sets/111.png","13","",NA,NA,NA,NA,""
"image-keyboard-response",8,26575,"0.0-2.0-6.0","qmscdneqdgsvgb8",111,"182.csv","","1667.3999999911757","resources/images/coin2.png","13","",NA,NA,NA,NA,""
"image-keyboard-response",9,27768,"0.0-2.0-7.0","qmscdneqdgsvgb8",111,"182.csv","","1192.5649999902816","resources/images/fishbone.png","13","",NA,NA,NA,NA,""
"html-keyboard-response",10,33639,"0.0-2.0-8.0","qmscdneqdgsvgb8",111,"182.csv","","5869.584999993094","<p>Your first journey will be a long one, but you will get a well deserved break at the end</p><p>After the break you will have four more journeys, but each will be much shorter than the first, and you will have breaks in between each</p><p>Press Enter to begin</p>","13","",NA,NA,NA,NA,""
"image-keyboard-response",11,35804,"0.0-3.0-0.0","qmscdneqdgsvgb8",111,"182.csv","","2164.5900000003166","resources/trios/L2T2A1.jpg","38","restless",0.3,0.9,0.7,0.824169341787361,"true"
"image-keyboard-response",12,36210,"0.0-3.0-1.0","qmscdneqdgsvgb8",111,"182.csv","","null","resources/maskTrios/BT2B.jpg","null","",NA,NA,NA,NA,""
"image-keyboard-response",13,37417,"0.0-3.0-2.0","qmscdneqdgsvgb8",111,"182.csv","","null","resources/images/coin2.png","null","",NA,NA,NA,NA,""
"image-keyboard-response",14,41061,"0.0-3.1-0.1","qmscdneqdgsvgb8",111,"182.csv","","3642.5449999951525","resources/trios/L2T2A3.jpg","38","restless",0.3,0.9,0.7,0.944649660525775,"false"
"image-keyboard-response",15,41467,"0.0-3.1-1.1","qmscdneqdgsvgb8",111,"182.csv","","null","resources/maskTrios/BT2B.jpg","null","",NA,NA,NA,NA,""
"image-keyboard-response",16,42668,"0.0-3.1-2.1","qmscdneqdgsvgb8",111,"182.csv","","null","resources/images/fishbone.png","null","",NA,NA,NA,NA,""
"image-keyboard-response",17,43987,"0.0-3.2-0.2","qmscdneqdgsvgb8",111,"182.csv","","1317.4550000112504","resources/trios/L1T4A1.jpg","38","restless",0.3,0.9,0.7,0.317249036574419,"true"
"image-keyboard-response",18,44388,"0.0-3.2-1.2","qmscdneqdgsvgb8",111,"182.csv","","null","resources/maskTrios/BT4B.jpg","null","",NA,NA,NA,NA,""
"image-keyboard-response",19,45592,"0.0-3.2-2.2","qmscdneqdgsvgb8",111,"182.csv","","null","resources/images/coin2.png","null","",NA,NA,NA,NA,""
"image-keyboard-response",20,48257,"0.0-3.3-0.3","qmscdneqdgsvgb8",111,"182.csv","","2664.8149999964517","resources/trios/L2T2A3.jpg","37","restless",0.3,0.9,0.7,0.256557290129604,"true"
"image-keyboard-response",21,48663,"0.0-3.3-1.3","qmscdneqdgsvgb8",111,"182.csv","","null","resources/maskTrios/L2BB.jpg","null","",NA,NA,NA,NA,""
"image-keyboard-response",22,49868,"0.0-3.3-2.3","qmscdneqdgsvgb8",111,"182.csv","","null","resources/images/coin2.png","null","",NA,NA,NA,NA,""
"image-keyboard-response",23,51537,"0.0-3.4-0.4","qmscdneqdgsvgb8",111,"182.csv","","1668.3650000049965","resources/trios/L2T2A3.jpg","37","restless",0.4,0.8,0.7,0.770357375145338,"false"
"image-keyboard-response",24,51941,"0.0-3.4-1.4","qmscdneqdgsvgb8",111,"182.csv","","null","resources/maskTrios/L2BB.jpg","null","",NA,NA,NA,NA,""
"image-keyboard-response",25,53148,"0.0-3.4-2.4","qmscdneqdgsvgb8",111,"182.csv","","null","resources/images/fishbone.png","null","",NA,NA,NA,NA,""
"image-keyboard-response",26,54817,"0.0-3.5-0.5","qmscdneqdgsvgb8",111,"182.csv","","1668.4200000017881","resources/trios/L2T4A3.jpg","38","restless",0.4,0.8,0.7,0.805165870190064,"false"
"image-keyboard-response",27,55224,"0.0-3.5-1.5","qmscdneqdgsvgb8",111,"182.csv","","null","resources/maskTrios/BT4B.jpg","null","",NA,NA,NA,NA,""
"image-keyboard-response",28,56427,"0.0-3.5-2.5","qmscdneqdgsvgb8",111,"182.csv","","null","resources/images/fishbone.png","null","",NA,NA,NA,NA,""
"image-keyboard-response",29,58972,"0.0-3.6-0.6","qmscdneqdgsvgb8",111,"182.csv","","2542.8399999946123","resources/trios/L2T4A3.jpg","39","restless",0.4,0.8,0.7,0.88209283200518,"false"
"image-keyboard-response",30,59375,"0.0-3.6-1.6","qmscdneqdgsvgb8",111,"182.csv","","null","resources/maskTrios/BBA3.jpg","null","",NA,NA,NA,NA,""
"image-keyboard-response",31,60576,"0.0-3.6-2.6","qmscdneqdgsvgb8",111,"182.csv","","null","resources/images/fishbone.png","null","",NA,NA,NA,NA,""
"image-keyboard-response",32,61619,"0.0-3.7-0.7","qmscdneqdgsvgb8",111,"182.csv","","1041.7700000107288","resources/trios/L1T2A1.jpg","38","restless",0.4,0.8,0.7,0.812169438442183,"false"
"image-keyboard-response",33,62025,"0.0-3.7-1.7","qmscdneqdgsvgb8",111,"182.csv","","null","resources/maskTrios/BT2B.jpg","null","",NA,NA,NA,NA,""
"image-keyboard-response",34,63229,"0.0-3.7-2.7","qmscdneqdgsvgb8",111,"182.csv","","null","resources/images/fishbone.png","null","",NA,NA,NA,NA,""
"image-keyboard-response",35,64793,"0.0-3.8-0.8","qmscdneqdgsvgb8",111,"182.csv","","1562.7200000017183","resources/trios/L1T4A1.jpg","38","restless",0.4,0.8,0.6,0.796785412223968,"true"
"image-keyboard-response",36,65196,"0.0-3.8-1.8","qmscdneqdgsvgb8",111,"182.csv","","null","resources/maskTrios/BT4B.jpg","null","",NA,NA,NA,NA,""
"image-keyboard-response",37,66397,"0.0-3.8-2.8","qmscdneqdgsvgb8",111,"182.csv","","null","resources/images/coin2.png","null","",NA,NA,NA,NA,""
"image-keyboard-response",38,67315,"0.0-3.9-0.9","qmscdneqdgsvgb8",111,"182.csv","","916.4000000018859","resources/trios/L2T2A1.jpg","37","restless",0.4,0.8,0.6,0.616458526931785,"false"
"image-keyboard-response",39,67719,"0.0-3.9-1.9","qmscdneqdgsvgb8",111,"182.csv","","null","resources/maskTrios/L2BB.jpg","null","",NA,NA,NA,NA,""
"image-keyboard-response",40,68924,"0.0-3.9-2.9","qmscdneqdgsvgb8",111,"182.csv","","null","resources/images/fishbone.png","null","",NA,NA,NA,NA,""
"image-keyboard-response",41,69676,"0.0-3.10-0.10","qmscdneqdgsvgb8",111,"182.csv","","751.139999993029","resources/trios/L1T4A1.jpg","38","restless",0.4,0.8,0.6,0.989991074591514,"false"
"image-keyboard-response",42,70079,"0.0-3.10-1.10","qmscdneqdgsvgb8",111,"182.csv","","null","resources/maskTrios/BT4B.jpg","null","",NA,NA,NA,NA,""
"image-keyboard-response",43,71285,"0.0-3.10-2.10","qmscdneqdgsvgb8",111,"182.csv","","null","resources/images/fishbone.png","null","",NA,NA,NA,NA,""
"image-keyboard-response",44,72537,"0.0-3.11-0.11","qmscdneqdgsvgb8",111,"182.csv","","1250.450000006822","resources/trios/L1T4A3.jpg","38","restless",0.4,0.8,0.6,0.072459540600512,"true"
"image-keyboard-response",45,72942,"0.0-3.11-1.11","qmscdneqdgsvgb8",111,"182.csv","","null","resources/maskTrios/BT4B.jpg","null","",NA,NA,NA,NA,""
"image-keyboard-response",46,74146,"0.0-3.11-2.11","qmscdneqdgsvgb8",111,"182.csv","","null","resources/images/coin2.png","null","",NA,NA,NA,NA,""
"image-keyboard-response",47,74902,"0.0-3.12-0.12","qmscdneqdgsvgb8",111,"182.csv","","752.649999994901","resources/trios/L1T4A3.jpg","38","restless",0.4,0.8,0.6,0.0306632818778361,"true"
"image-keyboard-response",48,75304,"0.0-3.12-1.12","qmscdneqdgsvgb8",111,"182.csv","","null","resources/maskTrios/BT4B.jpg","null","",NA,NA,NA,NA,""
"image-keyboard-response",49,76510,"0.0-3.12-2.12","qmscdneqdgsvgb8",111,"182.csv","","null","resources/images/coin2.png","null","",NA,NA,NA,NA,""
"image-keyboard-response",50,76911,"0.0-3.13-0.13","qmscdneqdgsvgb8",111,"182.csv","","400.1250000001164","resources/trios/L1T4A1.jpg","38","restless",0.4,0.7,0.6,0.31499722099254,"true"
"image-keyboard-response",51,77313,"0.0-3.13-1.13","qmscdneqdgsvgb8",111,"182.csv","","null","resources/maskTrios/BT4B.jpg","null","",NA,NA,NA,NA,""
"image-keyboard-response",52,78517,"0.0-3.13-2.13","qmscdneqdgsvgb8",111,"182.csv","","null","resources/images/coin2.png","null","",NA,NA,NA,NA,""
"image-keyboard-response",53,79155,"0.0-3.14-0.14","qmscdneqdgsvgb8",111,"182.csv","","637.1349999972153","resources/trios/L1T4A1.jpg","38","restless",0.4,0.7,0.6,0.767384169746159,"false"
"image-keyboard-response",54,79562,"0.0-3.14-1.14","qmscdneqdgsvgb8",111,"182.csv","","null","resources/maskTrios/BT4B.jpg","null","",NA,NA,NA,NA,""
"image-keyboard-response",55,80769,"0.0-3.14-2.14","qmscdneqdgsvgb8",111,"182.csv","","null","resources/images/fishbone.png","null","",NA,NA,NA,NA,""
"image-keyboard-response",56,81746,"0.0-3.15-0.15","qmscdneqdgsvgb8",111,"182.csv","","975.6400000042049","resources/trios/L1T4A1.jpg","38","restless",0.4,0.7,0.6,0.910476602573578,"false"
"image-keyboard-response",57,82151,"0.0-3.15-1.15","qmscdneqdgsvgb8",111,"182.csv","","null","resources/maskTrios/BT4B.jpg","null","",NA,NA,NA,NA,""
"image-keyboard-response",58,83354,"0.0-3.15-2.15","qmscdneqdgsvgb8",111,"182.csv","","null","resources/images/fishbone.png","null","",NA,NA,NA,NA,""
"image-keyboard-response",59,85335,"0.0-3.16-0.16","qmscdneqdgsvgb8",111,"182.csv","","1979.5699999958742","resources/trios/L1T2A3.jpg","38","restless",0.4,0.7,0.7,0.860632916268617,"false"
"image-keyboard-response",60,85738,"0.0-3.16-1.16","qmscdneqdgsvgb8",111,"182.csv","","null","resources/maskTrios/BT2B.jpg","null","",NA,NA,NA,NA,""
"image-keyboard-response",61,86942,"0.0-3.16-2.16","qmscdneqdgsvgb8",111,"182.csv","","null","resources/images/fishbone.png","null","",NA,NA,NA,NA,""
"image-keyboard-response",62,88049,"0.0-3.17-0.17","qmscdneqdgsvgb8",111,"182.csv","","1105.954999991809","resources/trios/L2T4A3.jpg","39","restless",0.4,0.7,0.7,0.468822889880004,"true"
"image-keyboard-response",63,88455,"0.0-3.17-1.17","qmscdneqdgsvgb8",111,"182.csv","","null","resources/maskTrios/BBA3.jpg","null","",NA,NA,NA,NA,""
"image-keyboard-response",64,89659,"0.0-3.17-2.17","qmscdneqdgsvgb8",111,"182.csv","","null","resources/images/coin2.png","null","",NA,NA,NA,NA,""
"image-keyboard-response",65,90515,"0.0-3.18-0.18","qmscdneqdgsvgb8",111,"182.csv","","854.5449999946868","resources/trios/L2T2A3.jpg","39","restless",0.4,0.7,0.7,0.322220647371206,"true"
"image-keyboard-response",66,90917,"0.0-3.18-1.18","qmscdneqdgsvgb8",111,"182.csv","","null","resources/maskTrios/BBA3.jpg","null","",NA,NA,NA,NA,""
"image-keyboard-response",67,92121,"0.0-3.18-2.18","qmscdneqdgsvgb8",111,"182.csv","","null","resources/images/coin2.png","null","",NA,NA,NA,NA,""
"image-keyboard-response",68,92750,"0.0-3.19-0.19","qmscdneqdgsvgb8",111,"182.csv","","628.3150000090245","resources/trios/L2T2A3.jpg","39","restless",0.4,0.6,0.7,0.911266236209951,"false"
"image-keyboard-response",69,93154,"0.0-3.19-1.19","qmscdneqdgsvgb8",111,"182.csv","","null","resources/maskTrios/BBA3.jpg","null","",NA,NA,NA,NA,""
"image-keyboard-response",70,94355,"0.0-3.19-2.19","qmscdneqdgsvgb8",111,"182.csv","","null","resources/images/fishbone.png","null","",NA,NA,NA,NA,""
"image-keyboard-response",71,94797,"0.0-3.20-0.20","qmscdneqdgsvgb8",111,"182.csv","","440.77000000106636","resources/trios/L1T4A1.jpg","38","restless",0.4,0.6,0.7,0.479203371497291,"true"
"image-keyboard-response",72,95201,"0.0-3.20-1.20","qmscdneqdgsvgb8",111,"182.csv","","null","resources/maskTrios/BT4B.jpg","null","",NA,NA,NA,NA,""
"image-keyboard-response",73,96405,"0.0-3.20-2.20","qmscdneqdgsvgb8",111,"182.csv","","null","resources/images/coin2.png","null","",NA,NA,NA,NA,""
"image-keyboard-response",74,96885,"0.0-3.21-0.21","qmscdneqdgsvgb8",111,"182.csv","","478.5750000010012","resources/trios/L2T4A3.jpg","38","restless",0.4,0.6,0.7,0.804226689996546,"false"
"image-keyboard-response",75,97292,"0.0-3.21-1.21","qmscdneqdgsvgb8",111,"182.csv","","null","resources/maskTrios/BT4B.jpg","null","",NA,NA,NA,NA,""
"image-keyboard-response",76,98493,"0.0-3.21-2.21","qmscdneqdgsvgb8",111,"182.csv","","null","resources/images/fishbone.png","null","",NA,NA,NA,NA,""
"image-keyboard-response",77,99393,"0.0-3.22-0.22","qmscdneqdgsvgb8",111,"182.csv","","899.2599999910453","resources/trios/L2T2A1.jpg","37","restless",0.4,0.7,0.7,0.508629440020698,"false"
"image-keyboard-response",78,99799,"0.0-3.22-1.22","qmscdneqdgsvgb8",111,"182.csv","","null","resources/maskTrios/L2BB.jpg","null","",NA,NA,NA,NA,""
"image-keyboard-response",79,101005,"0.0-3.22-2.22","qmscdneqdgsvgb8",111,"182.csv","","null","resources/images/fishbone.png","null","",NA,NA,NA,NA,""
"image-keyboard-response",80,101860,"0.0-3.23-0.23","qmscdneqdgsvgb8",111,"182.csv","","852.9899999994086","resources/trios/L2T2A3.jpg","39","restless",0.4,0.7,0.7,0.1647972117813,"true"
"image-keyboard-response",81,102265,"0.0-3.23-1.23","qmscdneqdgsvgb8",111,"182.csv","","null","resources/maskTrios/BBA3.jpg","null","",NA,NA,NA,NA,""
"image-keyboard-response",82,103469,"0.0-3.23-2.23","qmscdneqdgsvgb8",111,"182.csv","","null","resources/images/coin2.png","null","",NA,NA,NA,NA,""
"image-keyboard-response",83,104575,"0.0-3.24-0.24","qmscdneqdgsvgb8",111,"182.csv","","1105.1749999896856","resources/trios/L1T4A3.jpg","38","restless",0.4,0.7,0.7,0.324965969303725,"true"
"image-keyboard-response",84,104981,"0.0-3.24-1.24","qmscdneqdgsvgb8",111,"182.csv","","null","resources/maskTrios/BT4B.jpg","null","",NA,NA,NA,NA,""
"image-keyboard-response",85,106186,"0.0-3.24-2.24","qmscdneqdgsvgb8",111,"182.csv","","null","resources/images/coin2.png","null","",NA,NA,NA,NA,""
"image-keyboard-response",86,107864,"0.0-3.25-0.25","qmscdneqdgsvgb8",111,"182.csv","","1676.4549999934388","resources/trios/L2T2A3.jpg","39","restless",0.4,0.7,0.7,0.766195893766463,"false"
"image-keyboard-response",87,108267,"0.0-3.25-1.25","qmscdneqdgsvgb8",111,"182.csv","","null","resources/maskTrios/BBA3.jpg","null","",NA,NA,NA,NA,""
"image-keyboard-response",88,109469,"0.0-3.25-2.25","qmscdneqdgsvgb8",111,"182.csv","","null","resources/images/fishbone.png","null","",NA,NA,NA,NA,""
"image-keyboard-response",89,109828,"0.0-3.26-0.26","qmscdneqdgsvgb8",111,"182.csv","","357.9099999915343","resources/trios/L2T4A3.jpg","38","restless",0.4,0.7,0.8,0.19200660854959,"true"
"image-keyboard-response",90,110230,"0.0-3.26-1.26","qmscdneqdgsvgb8",111,"182.csv","","null","resources/maskTrios/BT4B.jpg","null","",NA,NA,NA,NA,""
"image-keyboard-response",91,111436,"0.0-3.26-2.26","qmscdneqdgsvgb8",111,"182.csv","","null","resources/images/coin2.png","null","",NA,NA,NA,NA,""
"image-keyboard-response",92,111790,"0.0-3.27-0.27","qmscdneqdgsvgb8",111,"182.csv","","352.32999999425374","resources/trios/L1T2A3.jpg","37","restless",0.4,0.7,0.8,0.0653454323194191,"true"
"image-keyboard-response",93,112192,"0.0-3.27-1.27","qmscdneqdgsvgb8",111,"182.csv","","null","resources/maskTrios/L1BB.jpg","null","",NA,NA,NA,NA,""
"image-keyboard-response",94,113394,"0.0-3.27-2.27","qmscdneqdgsvgb8",111,"182.csv","","null","resources/images/coin2.png","null","",NA,NA,NA,NA,""
"image-keyboard-response",95,113986,"0.0-3.28-0.28","qmscdneqdgsvgb8",111,"182.csv","","590.9950000059325","resources/trios/L1T2A1.jpg","39","restless",0.4,0.7,0.8,0.533458553648398,"true"
"image-keyboard-response",96,114389,"0.0-3.28-1.28","qmscdneqdgsvgb8",111,"182.csv","","null","resources/maskTrios/BBA1.jpg","null","",NA,NA,NA,NA,""
"image-keyboard-response",97,115596,"0.0-3.28-2.28","qmscdneqdgsvgb8",111,"182.csv","","null","resources/images/coin2.png","null","",NA,NA,NA,NA,""
"image-keyboard-response",98,117355,"0.0-3.29-0.29","qmscdneqdgsvgb8",111,"182.csv","","1757.770000011078","resources/trios/L2T4A3.jpg","37","restless",0.4,0.7,0.9,0.422945762433482,"false"
"image-keyboard-response",99,117759,"0.0-3.29-1.29","qmscdneqdgsvgb8",111,"182.csv","","null","resources/maskTrios/L2BB.jpg","null","",NA,NA,NA,NA,""
"image-keyboard-response",100,118964,"0.0-3.29-2.29","qmscdneqdgsvgb8",111,"182.csv","","null","resources/images/fishbone.png","null","",NA,NA,NA,NA,""
"image-keyboard-response",101,121483,"0.0-3.30-0.30","qmscdneqdgsvgb8",111,"182.csv","","2517.4000000115484","resources/trios/L1T4A3.jpg","39","restless",0.4,0.7,0.9,0.440043837406932,"true"
"image-keyboard-response",102,121888,"0.0-3.30-1.30","qmscdneqdgsvgb8",111,"182.csv","","null","resources/maskTrios/BBA3.jpg","null","",NA,NA,NA,NA,""
"image-keyboard-response",103,123094,"0.0-3.30-2.30","qmscdneqdgsvgb8",111,"182.csv","","null","resources/images/coin2.png","null","",NA,NA,NA,NA,""
"image-keyboard-response",104,124478,"0.0-3.31-0.31","qmscdneqdgsvgb8",111,"182.csv","","1381.9100000109756","resources/trios/L2T4A1.jpg","38","restless",0.4,0.7,0.8,0.629393955033425,"true"
"image-keyboard-response",105,124881,"0.0-3.31-1.31","qmscdneqdgsvgb8",111,"182.csv","","null","resources/maskTrios/BT4B.jpg","null","",NA,NA,NA,NA,""
"image-keyboard-response",106,126086,"0.0-3.31-2.31","qmscdneqdgsvgb8",111,"182.csv","","null","resources/images/coin2.png","null","",NA,NA,NA,NA,""
"image-keyboard-response",107,127421,"0.0-3.32-0.32","qmscdneqdgsvgb8",111,"182.csv","","1333.3899999997811","resources/trios/L1T2A1.jpg","39","restless",0.4,0.7,0.8,0.0090263573526661,"true"
"image-keyboard-response",108,127823,"0.0-3.32-1.32","qmscdneqdgsvgb8",111,"182.csv","","null","resources/maskTrios/BBA1.jpg","null","",NA,NA,NA,NA,""
"image-keyboard-response",109,129028,"0.0-3.32-2.32","qmscdneqdgsvgb8",111,"182.csv","","null","resources/images/coin2.png","null","",NA,NA,NA,NA,""
"image-keyboard-response",110,129324,"0.0-3.33-0.33","qmscdneqdgsvgb8",111,"182.csv","","294.08500000135973","resources/trios/L2T2A1.jpg","38","restless",0.4,0.7,0.8,0.514315386515182,"true"
"image-keyboard-response",111,129730,"0.0-3.33-1.33","qmscdneqdgsvgb8",111,"182.csv","","null","resources/maskTrios/BT2B.jpg","null","",NA,NA,NA,NA,""
"image-keyboard-response",112,130933,"0.0-3.33-2.33","qmscdneqdgsvgb8",111,"182.csv","","null","resources/images/coin2.png","null","",NA,NA,NA,NA,""
"image-keyboard-response",113,131283,"0.0-3.34-0.34","qmscdneqdgsvgb8",111,"182.csv","","348.5800000053132","resources/trios/L2T2A1.jpg","39","restless",0.4,0.7,0.7,0.933589679834059,"false"
"image-keyboard-response",114,131685,"0.0-3.34-1.34","qmscdneqdgsvgb8",111,"182.csv","","null","resources/maskTrios/BBA1.jpg","null","",NA,NA,NA,NA,""
"image-keyboard-response",115,132887,"0.0-3.34-2.34","qmscdneqdgsvgb8",111,"182.csv","","null","resources/images/fishbone.png","null","",NA,NA,NA,NA,""
"image-keyboard-response",116,133184,"0.0-3.35-0.35","qmscdneqdgsvgb8",111,"182.csv","","294.7849999909522","resources/trios/L1T2A3.jpg","37","restless",0.4,0.7,0.7,0.867439293269958,"false"
"image-keyboard-response",117,133585,"0.0-3.35-1.35","qmscdneqdgsvgb8",111,"182.csv","","null","resources/maskTrios/L1BB.jpg","null","",NA,NA,NA,NA,""
"image-keyboard-response",118,134788,"0.0-3.35-2.35","qmscdneqdgsvgb8",111,"182.csv","","null","resources/images/fishbone.png","null","",NA,NA,NA,NA,""
"image-keyboard-response",119,135092,"0.0-3.36-0.36","qmscdneqdgsvgb8",111,"182.csv","","302.88499999733176","resources/trios/L2T4A1.jpg","37","restless",0.4,0.7,0.7,0.301933810941495,"true"
"image-keyboard-response",120,135495,"0.0-3.36-1.36","qmscdneqdgsvgb8",111,"182.csv","","null","resources/maskTrios/L2BB.jpg","null","",NA,NA,NA,NA,""
"image-keyboard-response",121,136701,"0.0-3.36-2.36","qmscdneqdgsvgb8",111,"182.csv","","null","resources/images/coin2.png","null","",NA,NA,NA,NA,""
"image-keyboard-response",122,137536,"0.0-3.37-0.37","qmscdneqdgsvgb8",111,"182.csv","","832.6249999954598","resources/trios/L1T4A3.jpg","38","restless",0.5,0.6,0.7,0.370463174744189,"true"
"image-keyboard-response",123,137941,"0.0-3.37-1.37","qmscdneqdgsvgb8",111,"182.csv","","null","resources/maskTrios/BT4B.jpg","null","",NA,NA,NA,NA,""
"image-keyboard-response",124,139143,"0.0-3.37-2.37","qmscdneqdgsvgb8",111,"182.csv","","null","resources/images/coin2.png","null","",NA,NA,NA,NA,""
"image-keyboard-response",125,139701,"0.0-3.38-0.38","qmscdneqdgsvgb8",111,"182.csv","","555.8500000042841","resources/trios/L1T4A1.jpg","39","restless",0.5,0.6,0.7,0.929671377587977,"false"
"image-keyboard-response",126,140106,"0.0-3.38-1.38","qmscdneqdgsvgb8",111,"182.csv","","null","resources/maskTrios/BBA1.jpg","null","",NA,NA,NA,NA,""
"image-keyboard-response",127,141309,"0.0-3.38-2.38","qmscdneqdgsvgb8",111,"182.csv","","null","resources/images/fishbone.png","null","",NA,NA,NA,NA,""
"image-keyboard-response",128,141718,"0.0-3.39-0.39","qmscdneqdgsvgb8",111,"182.csv","","407.37000000081025","resources/trios/L1T2A1.jpg","38","restless",0.5,0.6,0.7,0.211977714633959,"true"
"image-keyboard-response",129,142124,"0.0-3.39-1.39","qmscdneqdgsvgb8",111,"182.csv","","null","resources/maskTrios/BT2B.jpg","null","",NA,NA,NA,NA,""
"image-keyboard-response",130,143326,"0.0-3.39-2.39","qmscdneqdgsvgb8",111,"182.csv","","null","resources/images/coin2.png","null","",NA,NA,NA,NA,""
"image-keyboard-response",131,143816,"0.0-3.40-0.40","qmscdneqdgsvgb8",111,"182.csv","","489.17500000970904","resources/trios/L2T2A3.jpg","37","restless",0.5,0.6,0.7,0.520998260290244,"false"
"image-keyboard-response",132,144220,"0.0-3.40-1.40","qmscdneqdgsvgb8",111,"182.csv","","null","resources/maskTrios/L2BB.jpg","null","",NA,NA,NA,NA,""
"image-keyboard-response",133,145426,"0.0-3.40-2.40","qmscdneqdgsvgb8",111,"182.csv","","null","resources/images/fishbone.png","null","",NA,NA,NA,NA,""
"image-keyboard-response",134,146112,"0.0-3.41-0.41","qmscdneqdgsvgb8",111,"182.csv","","684.0749999973923","resources/trios/L2T4A3.jpg","38","restless",0.5,0.6,0.7,0.169162444358599,"true"
"image-keyboard-response",135,146515,"0.0-3.41-1.41","qmscdneqdgsvgb8",111,"182.csv","","null","resources/maskTrios/BT4B.jpg","null","",NA,NA,NA,NA,""
"image-keyboard-response",136,147717,"0.0-3.41-2.41","qmscdneqdgsvgb8",111,"182.csv","","null","resources/images/coin2.png","null","",NA,NA,NA,NA,""
"image-keyboard-response",137,148042,"0.0-3.42-0.42","qmscdneqdgsvgb8",111,"182.csv","","323.8800000108313","resources/trios/L2T2A3.jpg","39","restless",0.5,0.5,0.7,0.567142150039774,"true"
"image-keyboard-response",138,148446,"0.0-3.42-1.42","qmscdneqdgsvgb8",111,"182.csv","","null","resources/maskTrios/BBA3.jpg","null","",NA,NA,NA,NA,""
"image-keyboard-response",139,149650,"0.0-3.42-2.42","qmscdneqdgsvgb8",111,"182.csv","","null","resources/images/coin2.png","null","",NA,NA,NA,NA,""
"image-keyboard-response",140,150005,"0.0-3.43-0.43","qmscdneqdgsvgb8",111,"182.csv","","354.3549999885727","resources/trios/L2T2A1.jpg","38","restless",0.5,0.5,0.8,0.13922799060511,"true"
"image-keyboard-response",141,150407,"0.0-3.43-1.43","qmscdneqdgsvgb8",111,"182.csv","","null","resources/maskTrios/BT2B.jpg","null","",NA,NA,NA,NA,""
"image-keyboard-response",142,151612,"0.0-3.43-2.43","qmscdneqdgsvgb8",111,"182.csv","","null","resources/images/coin2.png","null","",NA,NA,NA,NA,""
"image-keyboard-response",143,151971,"0.0-3.44-0.44","qmscdneqdgsvgb8",111,"182.csv","","357.6949999987846","resources/trios/L2T4A3.jpg","37","restless",0.5,0.5,0.8,0.495289511572717,"true"
"image-keyboard-response",144,152376,"0.0-3.44-1.44","qmscdneqdgsvgb8",111,"182.csv","","null","resources/maskTrios/L2BB.jpg","null","",NA,NA,NA,NA,""
"image-keyboard-response",145,153581,"0.0-3.44-2.44","qmscdneqdgsvgb8",111,"182.csv","","null","resources/images/coin2.png","null","",NA,NA,NA,NA,""
"image-keyboard-response",146,153861,"0.0-3.45-0.45","qmscdneqdgsvgb8",111,"182.csv","","278.2199999928707","resources/trios/L1T4A3.jpg","39","restless",0.5,0.5,0.8,0.786073678423981,"true"
"image-keyboard-response",147,154265,"0.0-3.45-1.45","qmscdneqdgsvgb8",111,"182.csv","","null","resources/maskTrios/BBA3.jpg","null","",NA,NA,NA,NA,""
"image-keyboard-response",148,155468,"0.0-3.45-2.45","qmscdneqdgsvgb8",111,"182.csv","","null","resources/images/coin2.png","null","",NA,NA,NA,NA,""
"image-keyboard-response",149,155791,"0.0-3.46-0.46","qmscdneqdgsvgb8",111,"182.csv","","321.39499999175314","resources/trios/L2T2A1.jpg","39","restless",0.5,0.5,0.8,0.503458842754725,"true"
"image-keyboard-response",150,156196,"0.0-3.46-1.46","qmscdneqdgsvgb8",111,"182.csv","","null","resources/maskTrios/BBA1.jpg","null","",NA,NA,NA,NA,""
"image-keyboard-response",151,157401,"0.0-3.46-2.46","qmscdneqdgsvgb8",111,"182.csv","","null","resources/images/coin2.png","null","",NA,NA,NA,NA,""
"image-keyboard-response",152,157726,"0.0-3.47-0.47","qmscdneqdgsvgb8",111,"182.csv","","323.93499999307096","resources/trios/L2T4A1.jpg","37","restless",0.6,0.5,0.7,0.898785306517695,"false"
"image-keyboard-response",153,158130,"0.0-3.47-1.47","qmscdneqdgsvgb8",111,"182.csv","","null","resources/maskTrios/L2BB.jpg","null","",NA,NA,NA,NA,""
"image-keyboard-response",154,159332,"0.0-3.47-2.47","qmscdneqdgsvgb8",111,"182.csv","","null","resources/images/fishbone.png","null","",NA,NA,NA,NA,""
"image-keyboard-response",155,159707,"0.0-3.48-0.48","qmscdneqdgsvgb8",111,"182.csv","","373.59999999171123","resources/trios/L2T2A1.jpg","38","restless",0.6,0.5,0.7,0.831187674001043,"false"
"image-keyboard-response",156,160113,"0.0-3.48-1.48","qmscdneqdgsvgb8",111,"182.csv","","null","resources/maskTrios/BT2B.jpg","null","",NA,NA,NA,NA,""
"image-keyboard-response",157,161314,"0.0-3.48-2.48","qmscdneqdgsvgb8",111,"182.csv","","null","resources/images/fishbone.png","null","",NA,NA,NA,NA,""
"image-keyboard-response",158,161824,"0.0-3.49-0.49","qmscdneqdgsvgb8",111,"182.csv","","508.5949999920558","resources/trios/L2T4A3.jpg","39","restless",0.6,0.4,0.7,0.182434221410922,"true"
"image-keyboard-response",159,162230,"0.0-3.49-1.49","qmscdneqdgsvgb8",111,"182.csv","","null","resources/maskTrios/BBA3.jpg","null","",NA,NA,NA,NA,""
"image-keyboard-response",160,163435,"0.0-3.49-2.49","qmscdneqdgsvgb8",111,"182.csv","","null","resources/images/coin2.png","null","",NA,NA,NA,NA,""
"image-keyboard-response",161,163912,"0.0-3.50-0.50","qmscdneqdgsvgb8",111,"182.csv","","475.9650000050897","resources/trios/L1T2A1.jpg","38","restless",0.6,0.4,0.7,0.665492619931186,"false"
"image-keyboard-response",162,164314,"0.0-3.50-1.50","qmscdneqdgsvgb8",111,"182.csv","","null","resources/maskTrios/BT2B.jpg","null","",NA,NA,NA,NA,""
"image-keyboard-response",163,165519,"0.0-3.50-2.50","qmscdneqdgsvgb8",111,"182.csv","","null","resources/images/fishbone.png","null","",NA,NA,NA,NA,""
"image-keyboard-response",164,165886,"0.0-3.51-0.51","qmscdneqdgsvgb8",111,"182.csv","","365.32500000612345","resources/trios/L2T4A3.jpg","37","restless",0.6,0.4,0.7,0.777989700671934,"false"
"image-keyboard-response",165,166289,"0.0-3.51-1.51","qmscdneqdgsvgb8",111,"182.csv","","null","resources/maskTrios/L2BB.jpg","null","",NA,NA,NA,NA,""
"image-keyboard-response",166,167495,"0.0-3.51-2.51","qmscdneqdgsvgb8",111,"182.csv","","null","resources/images/fishbone.png","null","",NA,NA,NA,NA,""
"image-keyboard-response",167,168158,"0.0-3.52-0.52","qmscdneqdgsvgb8",111,"182.csv","","660.8049999922514","resources/trios/L2T4A1.jpg","37","restless",0.6,0.4,0.7,0.865883788873748,"false"
"image-keyboard-response",168,168564,"0.0-3.52-1.52","qmscdneqdgsvgb8",111,"182.csv","","null","resources/maskTrios/L2BB.jpg","null","",NA,NA,NA,NA,""
"image-keyboard-response",169,169768,"0.0-3.52-2.52","qmscdneqdgsvgb8",111,"182.csv","","null","resources/images/fishbone.png","null","",NA,NA,NA,NA,""
"image-keyboard-response",170,170250,"0.0-3.53-0.53","qmscdneqdgsvgb8",111,"182.csv","","481.29000001063105","resources/trios/L1T2A1.jpg","37","restless",0.6,0.4,0.7,0.403668112097556,"true"
"image-keyboard-response",171,170655,"0.0-3.53-1.53","qmscdneqdgsvgb8",111,"182.csv","","null","resources/maskTrios/L1BB.jpg","null","",NA,NA,NA,NA,""
"image-keyboard-response",172,171857,"0.0-3.53-2.53","qmscdneqdgsvgb8",111,"182.csv","","null","resources/images/coin2.png","null","",NA,NA,NA,NA,""
"image-keyboard-response",173,172259,"0.0-3.54-0.54","qmscdneqdgsvgb8",111,"182.csv","","399.92999999958556","resources/trios/L1T2A1.jpg","39","restless",0.6,0.4,0.7,0.919428312630717,"false"
"image-keyboard-response",174,172666,"0.0-3.54-1.54","qmscdneqdgsvgb8",111,"182.csv","","null","resources/maskTrios/BBA1.jpg","null","",NA,NA,NA,NA,""
"image-keyboard-response",175,173868,"0.0-3.54-2.54","qmscdneqdgsvgb8",111,"182.csv","","null","resources/images/fishbone.png","null","",NA,NA,NA,NA,""
"image-keyboard-response",176,174280,"0.0-3.55-0.55","qmscdneqdgsvgb8",111,"182.csv","","410.6200000096578","resources/trios/L2T4A1.jpg","38","restless",0.6,0.4,0.6,0.444487502773106,"false"
"image-keyboard-response",177,174683,"0.0-3.55-1.55","qmscdneqdgsvgb8",111,"182.csv","","null","resources/maskTrios/BT4B.jpg","null","",NA,NA,NA,NA,""
"image-keyboard-response",178,175886,"0.0-3.55-2.55","qmscdneqdgsvgb8",111,"182.csv","","null","resources/images/fishbone.png","null","",NA,NA,NA,NA,""
"image-keyboard-response",179,176549,"0.0-3.56-0.56","qmscdneqdgsvgb8",111,"182.csv","","661.6350000113016","resources/trios/L1T4A1.jpg","38","restless",0.6,0.4,0.6,0.318364901158865,"true"
"image-keyboard-response",180,176951,"0.0-3.56-1.56","qmscdneqdgsvgb8",111,"182.csv","","null","resources/maskTrios/BT4B.jpg","null","",NA,NA,NA,NA,""
"image-keyboard-response",181,178155,"0.0-3.56-2.56","qmscdneqdgsvgb8",111,"182.csv","","null","resources/images/coin2.png","null","",NA,NA,NA,NA,""
"image-keyboard-response",182,178666,"0.0-3.57-0.57","qmscdneqdgsvgb8",111,"182.csv","","510.32499999564607","resources/trios/L1T4A1.jpg","38","restless",0.6,0.4,0.6,0.998923997979957,"false"
"image-keyboard-response",183,179073,"0.0-3.57-1.57","qmscdneqdgsvgb8",111,"182.csv","","null","resources/maskTrios/BT4B.jpg","null","",NA,NA,NA,NA,""
"image-keyboard-response",184,180279,"0.0-3.57-2.57","qmscdneqdgsvgb8",111,"182.csv","","null","resources/images/fishbone.png","null","",NA,NA,NA,NA,""
"image-keyboard-response",185,180646,"0.0-3.58-0.58","qmscdneqdgsvgb8",111,"182.csv","","365.40000000968575","resources/trios/L1T4A1.jpg","39","restless",0.6,0.4,0.6,0.26847491572157,"true"
"image-keyboard-response",186,181052,"0.0-3.58-1.58","qmscdneqdgsvgb8",111,"182.csv","","null","resources/maskTrios/BBA1.jpg","null","",NA,NA,NA,NA,""
"image-keyboard-response",187,182255,"0.0-3.58-2.58","qmscdneqdgsvgb8",111,"182.csv","","null","resources/images/coin2.png","null","",NA,NA,NA,NA,""
"image-keyboard-response",188,182554,"0.0-3.59-0.59","qmscdneqdgsvgb8",111,"182.csv","","298.21500000252854","resources/trios/L2T4A1.jpg","39","restless",0.6,0.5,0.7,0.541482951681723,"true"
"image-keyboard-response",189,182960,"0.0-3.59-1.59","qmscdneqdgsvgb8",111,"182.csv","","null","resources/maskTrios/BBA1.jpg","null","",NA,NA,NA,NA,""
"image-keyboard-response",190,184162,"0.0-3.59-2.59","qmscdneqdgsvgb8",111,"182.csv","","null","resources/images/coin2.png","null","",NA,NA,NA,NA,""
"image-keyboard-response",191,184737,"0.0-3.60-0.60","qmscdneqdgsvgb8",111,"182.csv","","573.3199999958742","resources/trios/L1T2A1.jpg","37","restless",0.6,0.5,0.7,0.956444060548067,"false"
"image-keyboard-response",192,185144,"0.0-3.60-1.60","qmscdneqdgsvgb8",111,"182.csv","","null","resources/maskTrios/L1BB.jpg","null","",NA,NA,NA,NA,""
"image-keyboard-response",193,186345,"0.0-3.60-2.60","qmscdneqdgsvgb8",111,"182.csv","","null","resources/images/fishbone.png","null","",NA,NA,NA,NA,""
"image-keyboard-response",194,186881,"0.0-3.61-0.61","qmscdneqdgsvgb8",111,"182.csv","","534.3149999971502","resources/trios/L1T4A3.jpg","38","restless",0.6,0.5,0.7,0.713591702695259,"false"
"image-keyboard-response",195,187283,"0.0-3.61-1.61","qmscdneqdgsvgb8",111,"182.csv","","null","resources/maskTrios/BT4B.jpg","null","",NA,NA,NA,NA,""
"image-keyboard-response",196,188485,"0.0-3.61-2.61","qmscdneqdgsvgb8",111,"182.csv","","null","resources/images/fishbone.png","null","",NA,NA,NA,NA,""
"image-keyboard-response",197,188805,"0.0-3.62-0.62","qmscdneqdgsvgb8",111,"182.csv","","318.0199999915203","resources/trios/L1T2A3.jpg","38","restless",0.6,0.5,0.7,0.226863810079868,"true"
"image-keyboard-response",198,189207,"0.0-3.62-1.62","qmscdneqdgsvgb8",111,"182.csv","","null","resources/maskTrios/BT2B.jpg","null","",NA,NA,NA,NA,""
"image-keyboard-response",199,190413,"0.0-3.62-2.62","qmscdneqdgsvgb8",111,"182.csv","","null","resources/images/coin2.png","null","",NA,NA,NA,NA,""
"image-keyboard-response",200,191232,"0.0-3.63-0.63","qmscdneqdgsvgb8",111,"182.csv","","816.7000000103144","resources/trios/L1T2A1.jpg","39","restless",0.6,0.5,0.6,0.945275415368916,"false"
"image-keyboard-response",201,191634,"0.0-3.63-1.63","qmscdneqdgsvgb8",111,"182.csv","","null","resources/maskTrios/BBA1.jpg","null","",NA,NA,NA,NA,""
"image-keyboard-response",202,192840,"0.0-3.63-2.63","qmscdneqdgsvgb8",111,"182.csv","","null","resources/images/fishbone.png","null","",NA,NA,NA,NA,""
"image-keyboard-response",203,193400,"0.0-3.64-0.64","qmscdneqdgsvgb8",111,"182.csv","","558.6900000052992","resources/trios/L1T4A3.jpg","38","restless",0.6,0.5,0.6,0.0029712524134744,"true"
"image-keyboard-response",204,193805,"0.0-3.64-1.64","qmscdneqdgsvgb8",111,"182.csv","","null","resources/maskTrios/BT4B.jpg","null","",NA,NA,NA,NA,""
"image-keyboard-response",205,195008,"0.0-3.64-2.64","qmscdneqdgsvgb8",111,"182.csv","","null","resources/images/coin2.png","null","",NA,NA,NA,NA,""
"image-keyboard-response",206,196041,"0.0-3.65-0.65","qmscdneqdgsvgb8",111,"182.csv","","1031.6900000034366","resources/trios/L1T2A3.jpg","38","restless",0.6,0.5,0.6,0.794425343916189,"false"
"image-keyboard-response",207,196443,"0.0-3.65-1.65","qmscdneqdgsvgb8",111,"182.csv","","null","resources/maskTrios/BT2B.jpg","null","",NA,NA,NA,NA,""
"image-keyboard-response",208,197648,"0.0-3.65-2.65","qmscdneqdgsvgb8",111,"182.csv","","null","resources/images/fishbone.png","null","",NA,NA,NA,NA,""
"image-keyboard-response",209,198966,"0.0-3.66-0.66","qmscdneqdgsvgb8",111,"182.csv","","1316.6550000023562","resources/trios/L2T4A1.jpg","37","restless",0.6,0.5,0.6,0.0642963846655313,"true"
"image-keyboard-response",210,199368,"0.0-3.66-1.66","qmscdneqdgsvgb8",111,"182.csv","","null","resources/maskTrios/L2BB.jpg","null","",NA,NA,NA,NA,""
"image-keyboard-response",211,200571,"0.0-3.66-2.66","qmscdneqdgsvgb8",111,"182.csv","","null","resources/images/coin2.png","null","",NA,NA,NA,NA,""
"image-keyboard-response",212,201088,"0.0-3.67-0.67","qmscdneqdgsvgb8",111,"182.csv","","515.6449999922188","resources/trios/L1T4A3.jpg","39","restless",0.6,0.5,0.6,0.131831586115442,"true"
"image-keyboard-response",213,201491,"0.0-3.67-1.67","qmscdneqdgsvgb8",111,"182.csv","","null","resources/maskTrios/BBA3.jpg","null","",NA,NA,NA,NA,""
"image-keyboard-response",214,202693,"0.0-3.67-2.67","qmscdneqdgsvgb8",111,"182.csv","","null","resources/images/coin2.png","null","",NA,NA,NA,NA,""
"image-keyboard-response",215,204017,"0.0-3.68-0.68","qmscdneqdgsvgb8",111,"182.csv","","1320.865000001504","resources/trios/L1T4A3.jpg","38","restless",0.6,0.5,0.6,0.00553494561381984,"true"
"image-keyboard-response",216,204424,"0.0-3.68-1.68","qmscdneqdgsvgb8",111,"182.csv","","null","resources/maskTrios/BT4B.jpg","null","",NA,NA,NA,NA,""
"image-keyboard-response",217,205629,"0.0-3.68-2.68","qmscdneqdgsvgb8",111,"182.csv","","null","resources/images/coin2.png","null","",NA,NA,NA,NA,""
"image-keyboard-response",218,206948,"0.0-3.69-0.69","qmscdneqdgsvgb8",111,"182.csv","","1318.2149999920512","resources/trios/L2T4A3.jpg","37","restless",0.6,0.5,0.6,0.702723077744634,"false"
"image-keyboard-response",219,207350,"0.0-3.69-1.69","qmscdneqdgsvgb8",111,"182.csv","","null","resources/maskTrios/L2BB.jpg","null","",NA,NA,NA,NA,""
"image-keyboard-response",220,208551,"0.0-3.69-2.69","qmscdneqdgsvgb8",111,"182.csv","","null","resources/images/fishbone.png","null","",NA,NA,NA,NA,""
"image-keyboard-response",221,209496,"0.0-3.70-0.70","qmscdneqdgsvgb8",111,"182.csv","","944.1250000090804","resources/trios/L1T2A3.jpg","39","restless",0.6,0.5,0.6,0.768407395896762,"false"
"image-keyboard-response",222,209899,"0.0-3.70-1.70","qmscdneqdgsvgb8",111,"182.csv","","null","resources/maskTrios/BBA3.jpg","null","",NA,NA,NA,NA,""
"image-keyboard-response",223,211104,"0.0-3.70-2.70","qmscdneqdgsvgb8",111,"182.csv","","null","resources/images/fishbone.png","null","",NA,NA,NA,NA,""
"image-keyboard-response",224,211627,"0.0-3.71-0.71","qmscdneqdgsvgb8",111,"182.csv","","521.9749999960186","resources/trios/L2T4A3.jpg","38","restless",0.6,0.5,0.5,0.315330304107773,"true"
"image-keyboard-response",225,212033,"0.0-3.71-1.71","qmscdneqdgsvgb8",111,"182.csv","","null","resources/maskTrios/BT4B.jpg","null","",NA,NA,NA,NA,""
"image-keyboard-response",226,213235,"0.0-3.71-2.71","qmscdneqdgsvgb8",111,"182.csv","","null","resources/images/coin2.png","null","",NA,NA,NA,NA,""
"image-keyboard-response",227,213911,"0.0-3.72-0.72","qmscdneqdgsvgb8",111,"182.csv","","674.0399999980582","resources/trios/L1T4A1.jpg","38","restless",0.6,0.5,0.5,0.824955937225168,"false"
"image-keyboard-response",228,214313,"0.0-3.72-1.72","qmscdneqdgsvgb8",111,"182.csv","","null","resources/maskTrios/BT4B.jpg","null","",NA,NA,NA,NA,""
"image-keyboard-response",229,215516,"0.0-3.72-2.72","qmscdneqdgsvgb8",111,"182.csv","","null","resources/images/fishbone.png","null","",NA,NA,NA,NA,""
"image-keyboard-response",230,216070,"0.0-3.73-0.73","qmscdneqdgsvgb8",111,"182.csv","","552.8350000095088","resources/trios/L2T2A3.jpg","37","restless",0.6,0.5,0.5,0.584740980647367,"true"
"image-keyboard-response",231,216472,"0.0-3.73-1.73","qmscdneqdgsvgb8",111,"182.csv","","null","resources/maskTrios/L2BB.jpg","null","",NA,NA,NA,NA,""
"image-keyboard-response",232,217676,"0.0-3.73-2.73","qmscdneqdgsvgb8",111,"182.csv","","null","resources/images/coin2.png","null","",NA,NA,NA,NA,""
"image-keyboard-response",233,218314,"0.0-3.74-0.74","qmscdneqdgsvgb8",111,"182.csv","","637.0350000070175","resources/trios/L1T2A1.jpg","39","restless",0.6,0.5,0.5,0.609776165480536,"false"
"image-keyboard-response",234,218719,"0.0-3.74-1.74","qmscdneqdgsvgb8",111,"182.csv","","null","resources/maskTrios/BBA1.jpg","null","",NA,NA,NA,NA,""
"image-keyboard-response",235,219926,"0.0-3.74-2.74","qmscdneqdgsvgb8",111,"182.csv","","null","resources/images/fishbone.png","null","",NA,NA,NA,NA,""
"image-keyboard-response",236,220670,"0.0-3.75-0.75","qmscdneqdgsvgb8",111,"182.csv","","741.9599999993807","resources/trios/L1T2A3.jpg","37","restless",0.6,0.5,0.5,0.586675647385815,"true"
"image-keyboard-response",237,221076,"0.0-3.75-1.75","qmscdneqdgsvgb8",111,"182.csv","","null","resources/maskTrios/L1BB.jpg","null","",NA,NA,NA,NA,""
"image-keyboard-response",238,222278,"0.0-3.75-2.75","qmscdneqdgsvgb8",111,"182.csv","","null","resources/images/coin2.png","null","",NA,NA,NA,NA,""
"image-keyboard-response",239,223771,"0.0-3.76-0.76","qmscdneqdgsvgb8",111,"182.csv","","1491.5000000037253","resources/trios/L1T2A3.jpg","38","restless",0.6,0.5,0.5,0.879658628502448,"false"
"image-keyboard-response",240,224177,"0.0-3.76-1.76","qmscdneqdgsvgb8",111,"182.csv","","null","resources/maskTrios/BT2B.jpg","null","",NA,NA,NA,NA,""
"image-keyboard-response",241,225382,"0.0-3.76-2.76","qmscdneqdgsvgb8",111,"182.csv","","null","resources/images/fishbone.png","null","",NA,NA,NA,NA,""
"image-keyboard-response",242,226135,"0.0-3.77-0.77","qmscdneqdgsvgb8",111,"182.csv","","751.4900000096532","resources/trios/L1T4A3.jpg","39","restless",0.6,0.5,0.5,0.775421313044356,"false"
"image-keyboard-response",243,226540,"0.0-3.77-1.77","qmscdneqdgsvgb8",111,"182.csv","","null","resources/maskTrios/BBA3.jpg","null","",NA,NA,NA,NA,""
"image-keyboard-response",244,227746,"0.0-3.77-2.77","qmscdneqdgsvgb8",111,"182.csv","","null","resources/images/fishbone.png","null","",NA,NA,NA,NA,""
"image-keyboard-response",245,229175,"0.0-3.78-0.78","qmscdneqdgsvgb8",111,"182.csv","","1427.5300000008428","resources/trios/L2T2A3.jpg","39","restless",0.7,0.5,0.5,0.435963299475156,"true"
"image-keyboard-response",246,229581,"0.0-3.78-1.78","qmscdneqdgsvgb8",111,"182.csv","","null","resources/maskTrios/BBA3.jpg","null","",NA,NA,NA,NA,""
"image-keyboard-response",247,230784,"0.0-3.78-2.78","qmscdneqdgsvgb8",111,"182.csv","","null","resources/images/coin2.png","null","",NA,NA,NA,NA,""
"image-keyboard-response",248,231326,"0.0-3.79-0.79","qmscdneqdgsvgb8",111,"182.csv","","540.2299999987008","resources/trios/L2T2A1.jpg","38","restless",0.7,0.5,0.4,0.567134181285941,"false"
"image-keyboard-response",249,231732,"0.0-3.79-1.79","qmscdneqdgsvgb8",111,"182.csv","","null","resources/maskTrios/BT2B.jpg","null","",NA,NA,NA,NA,""
"image-keyboard-response",250,232937,"0.0-3.79-2.79","qmscdneqdgsvgb8",111,"182.csv","","null","resources/images/fishbone.png","null","",NA,NA,NA,NA,""
"image-keyboard-response",251,233331,"0.0-3.80-0.80","qmscdneqdgsvgb8",111,"182.csv","","391.8050000065705","resources/trios/L2T2A3.jpg","37","restless",0.7,0.5,0.4,0.0533311515456416,"true"
"image-keyboard-response",252,233733,"0.0-3.80-1.80","qmscdneqdgsvgb8",111,"182.csv","","null","resources/maskTrios/L2BB.jpg","null","",NA,NA,NA,NA,""
"image-keyboard-response",253,234937,"0.0-3.80-2.80","qmscdneqdgsvgb8",111,"182.csv","","null","resources/images/coin2.png","null","",NA,NA,NA,NA,""
"image-keyboard-response",254,235183,"0.0-3.81-0.81","qmscdneqdgsvgb8",111,"182.csv","","244.72999999125022","resources/trios/L2T4A3.jpg","39","restless",0.7,0.6,0.4,0.705754571440898,"false"
"image-keyboard-response",255,235587,"0.0-3.81-1.81","qmscdneqdgsvgb8",111,"182.csv","","null","resources/maskTrios/BBA3.jpg","null","",NA,NA,NA,NA,""
"image-keyboard-response",256,236792,"0.0-3.81-2.81","qmscdneqdgsvgb8",111,"182.csv","","null","resources/images/fishbone.png","null","",NA,NA,NA,NA,""
"image-keyboard-response",257,236871,"0.0-3.82-0.82","qmscdneqdgsvgb8",111,"182.csv","","77.6050000131363","resources/trios/L2T2A1.jpg","38","restless",0.6,0.6,0.4,0.026741994379605,"true"
"image-keyboard-response",258,237276,"0.0-3.82-1.82","qmscdneqdgsvgb8",111,"182.csv","","null","resources/maskTrios/BT2B.jpg","null","",NA,NA,NA,NA,""
"image-keyboard-response",259,238481,"0.0-3.82-2.82","qmscdneqdgsvgb8",111,"182.csv","","null","resources/images/coin2.png","null","",NA,NA,NA,NA,""
"image-keyboard-response",260,238770,"0.0-3.83-0.83","qmscdneqdgsvgb8",111,"182.csv","","287.94500000367407","resources/trios/L2T2A3.jpg","37","restless",0.6,0.6,0.4,0.244244531048112,"true"
"image-keyboard-response",261,239176,"0.0-3.83-1.83","qmscdneqdgsvgb8",111,"182.csv","","null","resources/maskTrios/L2BB.jpg","null","",NA,NA,NA,NA,""
"image-keyboard-response",262,240383,"0.0-3.83-2.83","qmscdneqdgsvgb8",111,"182.csv","","null","resources/images/coin2.png","null","",NA,NA,NA,NA,""
"image-keyboard-response",263,240815,"0.0-3.84-0.84","qmscdneqdgsvgb8",111,"182.csv","","430.65999999816995","resources/trios/L1T2A1.jpg","39","restless",0.5,0.6,0.4,0.441940874568332,"false"
"image-keyboard-response",264,241221,"0.0-3.84-1.84","qmscdneqdgsvgb8",111,"182.csv","","null","resources/maskTrios/BBA1.jpg","null","",NA,NA,NA,NA,""
"image-keyboard-response",265,242424,"0.0-3.84-2.84","qmscdneqdgsvgb8",111,"182.csv","","null","resources/images/fishbone.png","null","",NA,NA,NA,NA,""
"image-keyboard-response",266,242508,"0.0-3.85-0.85","qmscdneqdgsvgb8",111,"182.csv","","82.44499999273103","resources/trios/L1T4A3.jpg","38","restless",0.5,0.6,0.4,0.520611970505504,"true"
"image-keyboard-response",267,242914,"0.0-3.85-1.85","qmscdneqdgsvgb8",111,"182.csv","","null","resources/maskTrios/BT4B.jpg","null","",NA,NA,NA,NA,""
"image-keyboard-response",268,244120,"0.0-3.85-2.85","qmscdneqdgsvgb8",111,"182.csv","","null","resources/images/coin2.png","null","",NA,NA,NA,NA,""
"image-keyboard-response",269,244254,"0.0-3.86-0.86","qmscdneqdgsvgb8",111,"182.csv","","132.54999999480788","resources/trios/L1T4A3.jpg","38","restless",0.5,0.5,0.4,0.227364297001859,"true"
"image-keyboard-response",270,244660,"0.0-3.86-1.86","qmscdneqdgsvgb8",111,"182.csv","","null","resources/maskTrios/BT4B.jpg","null","",NA,NA,NA,NA,""
"image-keyboard-response",271,245863,"0.0-3.86-2.86","qmscdneqdgsvgb8",111,"182.csv","","null","resources/images/coin2.png","null","",NA,NA,NA,NA,""
"image-keyboard-response",272,245865,"0.0-3.87-0.87","qmscdneqdgsvgb8",111,"182.csv","","0.13000000035390258","resources/trios/L2T4A3.jpg","39","restless",0.5,0.5,0.3,0.853690281981892,"false"
"image-keyboard-response",273,246269,"0.0-3.87-1.87","qmscdneqdgsvgb8",111,"182.csv","","null","resources/maskTrios/BBA3.jpg","null","",NA,NA,NA,NA,""
"image-keyboard-response",274,247470,"0.0-3.87-2.87","qmscdneqdgsvgb8",111,"182.csv","","null","resources/images/fishbone.png","null","",NA,NA,NA,NA,""
"image-keyboard-response",275,247793,"0.0-3.88-0.88","qmscdneqdgsvgb8",111,"182.csv","","321.3549999927636","resources/trios/L2T2A1.jpg","37","restless",0.5,0.5,0.3,0.146215123918458,"true"
"image-keyboard-response",276,248197,"0.0-3.88-1.88","qmscdneqdgsvgb8",111,"182.csv","","null","resources/maskTrios/L2BB.jpg","null","",NA,NA,NA,NA,""
"image-keyboard-response",277,249399,"0.0-3.88-2.88","qmscdneqdgsvgb8",111,"182.csv","","null","resources/images/coin2.png","null","",NA,NA,NA,NA,""
"image-keyboard-response",278,249457,"0.0-3.89-0.89","qmscdneqdgsvgb8",111,"182.csv","","57.490000006509945","resources/trios/L2T4A1.jpg","38","restless",0.5,0.5,0.3,0.859640720287391,"false"
"image-keyboard-response",279,249859,"0.0-3.89-1.89","qmscdneqdgsvgb8",111,"182.csv","","null","resources/maskTrios/BT4B.jpg","null","",NA,NA,NA,NA,""
"image-keyboard-response",280,251065,"0.0-3.89-2.89","qmscdneqdgsvgb8",111,"182.csv","","null","resources/images/fishbone.png","null","",NA,NA,NA,NA,""
"image-keyboard-response",281,251177,"0.0-3.90-0.90","qmscdneqdgsvgb8",111,"182.csv","","110.20999999891501","resources/trios/L2T4A3.jpg","39","restless",0.5,0.5,0.2,0.876418583623879,"false"
"image-keyboard-response",282,251582,"0.0-3.90-1.90","qmscdneqdgsvgb8",111,"182.csv","","null","resources/maskTrios/BBA3.jpg","null","",NA,NA,NA,NA,""
"image-keyboard-response",283,252783,"0.0-3.90-2.90","qmscdneqdgsvgb8",111,"182.csv","","null","resources/images/fishbone.png","null","",NA,NA,NA,NA,""
"image-keyboard-response",284,252919,"0.0-3.91-0.91","qmscdneqdgsvgb8",111,"182.csv","","133.88000000850298","resources/trios/L2T4A1.jpg","37","restless",0.5,0.5,0.2,0.987436174964375,"false"
"image-keyboard-response",285,253325,"0.0-3.91-1.91","qmscdneqdgsvgb8",111,"182.csv","","null","resources/maskTrios/L2BB.jpg","null","",NA,NA,NA,NA,""
"image-keyboard-response",286,254526,"0.0-3.91-2.91","qmscdneqdgsvgb8",111,"182.csv","","null","resources/images/fishbone.png","null","",NA,NA,NA,NA,""
"image-keyboard-response",287,254660,"0.0-3.92-0.92","qmscdneqdgsvgb8",111,"182.csv","","133.2750000001397","resources/trios/L1T2A3.jpg","38","restless",0.5,0.5,0.2,0.855808994684473,"false"
"image-keyboard-response",288,255062,"0.0-3.92-1.92","qmscdneqdgsvgb8",111,"182.csv","","null","resources/maskTrios/BT2B.jpg","null","",NA,NA,NA,NA,""
"image-keyboard-response",289,256266,"0.0-3.92-2.92","qmscdneqdgsvgb8",111,"182.csv","","null","resources/images/fishbone.png","null","",NA,NA,NA,NA,""
"image-keyboard-response",290,256525,"0.0-3.93-0.93","qmscdneqdgsvgb8",111,"182.csv","","257.5749999959953","resources/trios/L2T4A3.jpg","39","restless",0.5,0.5,0.2,0.252600710817257,"false"
"image-keyboard-response",291,256927,"0.0-3.93-1.93","qmscdneqdgsvgb8",111,"182.csv","","null","resources/maskTrios/BBA3.jpg","null","",NA,NA,NA,NA,""
"image-keyboard-response",292,258130,"0.0-3.93-2.93","qmscdneqdgsvgb8",111,"182.csv","","null","resources/images/fishbone.png","null","",NA,NA,NA,NA,""
"image-keyboard-response",293,258521,"0.0-3.94-0.94","qmscdneqdgsvgb8",111,"182.csv","","390.07500000298023","resources/trios/L2T2A1.jpg","37","restless",0.5,0.5,0.2,0.0718319356273127,"true"
"image-keyboard-response",294,258925,"0.0-3.94-1.94","qmscdneqdgsvgb8",111,"182.csv","","null","resources/maskTrios/L2BB.jpg","null","",NA,NA,NA,NA,""
"image-keyboard-response",295,260127,"0.0-3.94-2.94","qmscdneqdgsvgb8",111,"182.csv","","null","resources/images/coin2.png","null","",NA,NA,NA,NA,""
"image-keyboard-response",296,260850,"0.0-3.95-0.95","qmscdneqdgsvgb8",111,"182.csv","","721.9649999897229","resources/trios/L1T2A3.jpg","38","restless",0.5,0.5,0.2,0.263542694733176,"true"
"image-keyboard-response",297,261256,"0.0-3.95-1.95","qmscdneqdgsvgb8",111,"182.csv","","null","resources/maskTrios/BT2B.jpg","null","",NA,NA,NA,NA,""
"image-keyboard-response",298,262460,"0.0-3.95-2.95","qmscdneqdgsvgb8",111,"182.csv","","null","resources/images/coin2.png","null","",NA,NA,NA,NA,""
"image-keyboard-response",299,262912,"0.0-3.96-0.96","qmscdneqdgsvgb8",111,"182.csv","","450.7149999990361","resources/trios/L2T2A1.jpg","38","restless",0.5,0.5,0.2,0.357900225320927,"true"
"image-keyboard-response",300,263316,"0.0-3.96-1.96","qmscdneqdgsvgb8",111,"182.csv","","null","resources/maskTrios/BT2B.jpg","null","",NA,NA,NA,NA,""
"image-keyboard-response",301,264521,"0.0-3.96-2.96","qmscdneqdgsvgb8",111,"182.csv","","null","resources/images/coin2.png","null","",NA,NA,NA,NA,""
"image-keyboard-response",302,265485,"0.0-3.97-0.97","qmscdneqdgsvgb8",111,"182.csv","","962.9750000021886","resources/trios/L1T4A1.jpg","38","restless",0.5,0.5,0.2,0.739937607736163,"false"
"image-keyboard-response",303,265889,"0.0-3.97-1.97","qmscdneqdgsvgb8",111,"182.csv","","null","resources/maskTrios/BT4B.jpg","null","",NA,NA,NA,NA,""
"image-keyboard-response",304,267092,"0.0-3.97-2.97","qmscdneqdgsvgb8",111,"182.csv","","null","resources/images/fishbone.png","null","",NA,NA,NA,NA,""
"image-keyboard-response",305,267747,"0.0-3.98-0.98","qmscdneqdgsvgb8",111,"182.csv","","654.6950000047218","resources/trios/L1T2A3.jpg","39","restless",0.5,0.5,0.1,0.107086377859353,"false"
"image-keyboard-response",306,268152,"0.0-3.98-1.98","qmscdneqdgsvgb8",111,"182.csv","","null","resources/maskTrios/BBA3.jpg","null","",NA,NA,NA,NA,""
"image-keyboard-response",307,269358,"0.0-3.98-2.98","qmscdneqdgsvgb8",111,"182.csv","","null","resources/images/fishbone.png","null","",NA,NA,NA,NA,""
"image-keyboard-response",308,269672,"0.0-3.99-0.99","qmscdneqdgsvgb8",111,"182.csv","","313.0950000049779","resources/trios/L1T4A1.jpg","37","restless",0.5,0.5,0.1,0.478060367333444,"true"
"image-keyboard-response",309,270077,"0.0-3.99-1.99","qmscdneqdgsvgb8",111,"182.csv","","null","resources/maskTrios/L1BB.jpg","null","",NA,NA,NA,NA,""
"image-keyboard-response",310,271283,"0.0-3.99-2.99","qmscdneqdgsvgb8",111,"182.csv","","null","resources/images/coin2.png","null","",NA,NA,NA,NA,""
"image-keyboard-response",311,272599,"0.0-3.100-0.100","qmscdneqdgsvgb8",111,"182.csv","","1314.94000001112","resources/trios/L2T4A3.jpg","37","restless",0.5,0.5,0.2,0.540048031298972,"false"
"image-keyboard-response",312,273001,"0.0-3.100-1.100","qmscdneqdgsvgb8",111,"182.csv","","null","resources/maskTrios/L2BB.jpg","null","",NA,NA,NA,NA,""
"image-keyboard-response",313,274207,"0.0-3.100-2.100","qmscdneqdgsvgb8",111,"182.csv","","null","resources/images/fishbone.png","null","",NA,NA,NA,NA,""
"image-keyboard-response",314,275204,"0.0-3.101-0.101","qmscdneqdgsvgb8",111,"182.csv","","995.0149999931455","resources/trios/L1T4A1.jpg","38","restless",0.5,0.5,0.2,0.483053040177372,"true"
"image-keyboard-response",315,275608,"0.0-3.101-1.101","qmscdneqdgsvgb8",111,"182.csv","","null","resources/maskTrios/BT4B.jpg","null","",NA,NA,NA,NA,""
"image-keyboard-response",316,276814,"0.0-3.101-2.101","qmscdneqdgsvgb8",111,"182.csv","","null","resources/images/coin2.png","null","",NA,NA,NA,NA,""
"image-keyboard-response",317,276839,"0.0-3.102-0.102","qmscdneqdgsvgb8",111,"182.csv","","23.34500000870321","resources/trios/L2T2A1.jpg","39","restless",0.5,0.5,0.2,0.0838930378099445,"true"
"image-keyboard-response",318,277247,"0.0-3.102-1.102","qmscdneqdgsvgb8",111,"182.csv","","null","resources/maskTrios/BBA1.jpg","null","",NA,NA,NA,NA,""
"image-keyboard-response",319,278450,"0.0-3.102-2.102","qmscdneqdgsvgb8",111,"182.csv","","null","resources/images/coin2.png","null","",NA,NA,NA,NA,""
"image-keyboard-response",320,279120,"0.0-3.103-0.103","qmscdneqdgsvgb8",111,"182.csv","","668.5849999921629","resources/trios/L1T2A1.jpg","37","restless",0.4,0.5,0.2,0.993551115171361,"false"
"image-keyboard-response",321,279521,"0.0-3.103-1.103","qmscdneqdgsvgb8",111,"182.csv","","null","resources/maskTrios/L1BB.jpg","null","",NA,NA,NA,NA,""
"image-keyboard-response",322,280723,"0.0-3.103-2.103","qmscdneqdgsvgb8",111,"182.csv","","null","resources/images/fishbone.png","null","",NA,NA,NA,NA,""
"image-keyboard-response",323,281523,"0.0-3.104-0.104","qmscdneqdgsvgb8",111,"182.csv","","799.4900000048801","resources/trios/L2T4A1.jpg","38","restless",0.4,0.5,0.2,0.519630619621105,"false"
"image-keyboard-response",324,281926,"0.0-3.104-1.104","qmscdneqdgsvgb8",111,"182.csv","","null","resources/maskTrios/BT4B.jpg","null","",NA,NA,NA,NA,""
"image-keyboard-response",325,283128,"0.0-3.104-2.104","qmscdneqdgsvgb8",111,"182.csv","","null","resources/images/fishbone.png","null","",NA,NA,NA,NA,""
"image-keyboard-response",326,284465,"0.0-3.105-0.105","qmscdneqdgsvgb8",111,"182.csv","","1335.015000004205","resources/trios/L1T4A1.jpg","39","restless",0.4,0.5,0.2,0.447434131726581,"false"
"image-keyboard-response",327,284871,"0.0-3.105-1.105","qmscdneqdgsvgb8",111,"182.csv","","null","resources/maskTrios/BBA1.jpg","null","",NA,NA,NA,NA,""
"image-keyboard-response",328,286076,"0.0-3.105-2.105","qmscdneqdgsvgb8",111,"182.csv","","null","resources/images/fishbone.png","null","",NA,NA,NA,NA,""
"image-keyboard-response",329,288431,"0.0-3.106-0.106","qmscdneqdgsvgb8",111,"182.csv","","2352.9149999958463","resources/trios/L1T4A1.jpg","38","restless",0.4,0.5,0.2,0.401661329872231,"true"
"image-keyboard-response",330,288834,"0.0-3.106-1.106","qmscdneqdgsvgb8",111,"182.csv","","null","resources/maskTrios/BT4B.jpg","null","",NA,NA,NA,NA,""
"image-keyboard-response",331,290040,"0.0-3.106-2.106","qmscdneqdgsvgb8",111,"182.csv","","null","resources/images/coin2.png","null","",NA,NA,NA,NA,""
"image-keyboard-response",332,291075,"0.0-3.107-0.107","qmscdneqdgsvgb8",111,"182.csv","","1033.5349999950267","resources/trios/L1T4A1.jpg","38","restless",0.4,0.5,0.3,0.533568085878376,"false"
"image-keyboard-response",333,291477,"0.0-3.107-1.107","qmscdneqdgsvgb8",111,"182.csv","","null","resources/maskTrios/BT4B.jpg","null","",NA,NA,NA,NA,""
"image-keyboard-response",334,292682,"0.0-3.107-2.107","qmscdneqdgsvgb8",111,"182.csv","","null","resources/images/fishbone.png","null","",NA,NA,NA,NA,""
"image-keyboard-response",335,294055,"0.0-3.108-0.108","qmscdneqdgsvgb8",111,"182.csv","","1371.7849999957252","resources/trios/L1T4A1.jpg","39","restless",0.5,0.5,0.3,0.545691667593186,"false"
"image-keyboard-response",336,294456,"0.0-3.108-1.108","qmscdneqdgsvgb8",111,"182.csv","","null","resources/maskTrios/BBA1.jpg","null","",NA,NA,NA,NA,""
"image-keyboard-response",337,295663,"0.0-3.108-2.108","qmscdneqdgsvgb8",111,"182.csv","","null","resources/images/fishbone.png","null","",NA,NA,NA,NA,""
"image-keyboard-response",338,296940,"0.0-3.109-0.109","qmscdneqdgsvgb8",111,"182.csv","","1274.8199999914505","resources/trios/L1T2A3.jpg","38","restless",0.5,0.6,0.3,0.317660779224514,"true"
"image-keyboard-response",339,297344,"0.0-3.109-1.109","qmscdneqdgsvgb8",111,"182.csv","","null","resources/maskTrios/BT2B.jpg","null","",NA,NA,NA,NA,""
"image-keyboard-response",340,298546,"0.0-3.109-2.109","qmscdneqdgsvgb8",111,"182.csv","","null","resources/images/coin2.png","null","",NA,NA,NA,NA,""
"image-keyboard-response",341,299826,"0.0-3.110-0.110","qmscdneqdgsvgb8",111,"182.csv","","1279.065000009723","resources/trios/L1T2A3.jpg","39","restless",0.5,0.7,0.3,0.77308232222849,"false"
"image-keyboard-response",342,300233,"0.0-3.110-1.110","qmscdneqdgsvgb8",111,"182.csv","","null","resources/maskTrios/BBA3.jpg","null","",NA,NA,NA,NA,""
"image-keyboard-response",343,301437,"0.0-3.110-2.110","qmscdneqdgsvgb8",111,"182.csv","","null","resources/images/fishbone.png","null","",NA,NA,NA,NA,""
"image-keyboard-response",344,302741,"0.0-3.111-0.111","qmscdneqdgsvgb8",111,"182.csv","","1302.4599999916973","resources/trios/L1T4A3.jpg","37","restless",0.5,0.7,0.3,0.686368250087962,"false"
"image-keyboard-response",345,303144,"0.0-3.111-1.111","qmscdneqdgsvgb8",111,"182.csv","","null","resources/maskTrios/L1BB.jpg","null","",NA,NA,NA,NA,""
"image-keyboard-response",346,304350,"0.0-3.111-2.111","qmscdneqdgsvgb8",111,"182.csv","","null","resources/images/fishbone.png","null","",NA,NA,NA,NA,""
"image-keyboard-response",347,306517,"0.0-3.112-0.112","qmscdneqdgsvgb8",111,"182.csv","","2165.485000004992","resources/trios/L2T2A3.jpg","39","restless",0.5,0.7,0.3,0.230577483316285,"true"
"image-keyboard-response",348,306920,"0.0-3.112-1.112","qmscdneqdgsvgb8",111,"182.csv","","null","resources/maskTrios/BBA3.jpg","null","",NA,NA,NA,NA,""
"image-keyboard-response",349,308123,"0.0-3.112-2.112","qmscdneqdgsvgb8",111,"182.csv","","null","resources/images/coin2.png","null","",NA,NA,NA,NA,""
"image-keyboard-response",350,308789,"0.0-3.113-0.113","qmscdneqdgsvgb8",111,"182.csv","","664.9000000033993","resources/trios/L2T2A3.jpg","39","restless",0.5,0.7,0.3,0.199970549547234,"true"
"image-keyboard-response",351,309192,"0.0-3.113-1.113","qmscdneqdgsvgb8",111,"182.csv","","null","resources/maskTrios/BBA3.jpg","null","",NA,NA,NA,NA,""
"image-keyboard-response",352,310394,"0.0-3.113-2.113","qmscdneqdgsvgb8",111,"182.csv","","null","resources/images/coin2.png","null","",NA,NA,NA,NA,""
"image-keyboard-response",353,311034,"0.0-3.114-0.114","qmscdneqdgsvgb8",111,"182.csv","","638.9250000065658","resources/trios/L2T4A1.jpg","38","restless",0.5,0.7,0.4,0.402564494016797,"true"
"image-keyboard-response",354,311442,"0.0-3.114-1.114","qmscdneqdgsvgb8",111,"182.csv","","null","resources/maskTrios/BT4B.jpg","null","",NA,NA,NA,NA,""
"image-keyboard-response",355,312646,"0.0-3.114-2.114","qmscdneqdgsvgb8",111,"182.csv","","null","resources/images/coin2.png","null","",NA,NA,NA,NA,""
"image-keyboard-response",356,312963,"0.0-3.115-0.115","qmscdneqdgsvgb8",111,"182.csv","","315.3350000065984","resources/trios/L1T2A3.jpg","38","restless",0.5,0.7,0.4,0.61504840557724,"true"
"image-keyboard-response",357,313366,"0.0-3.115-1.115","qmscdneqdgsvgb8",111,"182.csv","","null","resources/maskTrios/BT2B.jpg","null","",NA,NA,NA,NA,""
"image-keyboard-response",358,314571,"0.0-3.115-2.115","qmscdneqdgsvgb8",111,"182.csv","","null","resources/images/coin2.png","null","",NA,NA,NA,NA,""
"image-keyboard-response",359,314901,"0.0-3.116-0.116","qmscdneqdgsvgb8",111,"182.csv","","328.4199999907287","resources/trios/L1T2A1.jpg","39","restless",0.5,0.6,0.4,0.0578523957095525,"true"
"image-keyboard-response",360,315306,"0.0-3.116-1.116","qmscdneqdgsvgb8",111,"182.csv","","null","resources/maskTrios/BBA1.jpg","null","",NA,NA,NA,NA,""
"image-keyboard-response",361,316508,"0.0-3.116-2.116","qmscdneqdgsvgb8",111,"182.csv","","null","resources/images/coin2.png","null","",NA,NA,NA,NA,""
"image-keyboard-response",362,316868,"0.0-3.117-0.117","qmscdneqdgsvgb8",111,"182.csv","","359.03500000131316","resources/trios/L1T2A3.jpg","39","restless",0.5,0.6,0.4,0.819635366752242,"false"
"image-keyboard-response",363,317272,"0.0-3.117-1.117","qmscdneqdgsvgb8",111,"182.csv","","null","resources/maskTrios/BBA3.jpg","null","",NA,NA,NA,NA,""
"image-keyboard-response",364,318474,"0.0-3.117-2.117","qmscdneqdgsvgb8",111,"182.csv","","null","resources/images/fishbone.png","null","",NA,NA,NA,NA,""
"image-keyboard-response",365,318984,"0.0-3.118-0.118","qmscdneqdgsvgb8",111,"182.csv","","508.574999999837","resources/trios/L1T4A3.jpg","37","restless",0.5,0.6,0.4,0.331204629194956,"true"
"image-keyboard-response",366,319387,"0.0-3.118-1.118","qmscdneqdgsvgb8",111,"182.csv","","null","resources/maskTrios/L1BB.jpg","null","",NA,NA,NA,NA,""
"image-keyboard-response",367,320594,"0.0-3.118-2.118","qmscdneqdgsvgb8",111,"182.csv","","null","resources/images/coin2.png","null","",NA,NA,NA,NA,""
"image-keyboard-response",368,322401,"0.0-3.119-0.119","qmscdneqdgsvgb8",111,"182.csv","","1806.5650000062305","resources/trios/L1T4A1.jpg","38","restless",0.5,0.6,0.4,0.60364123775735,"false"
"image-keyboard-response",369,322807,"0.0-3.119-1.119","qmscdneqdgsvgb8",111,"182.csv","","null","resources/maskTrios/BT4B.jpg","null","",NA,NA,NA,NA,""
"image-keyboard-response",370,324010,"0.0-3.119-2.119","qmscdneqdgsvgb8",111,"182.csv","","null","resources/images/fishbone.png","null","",NA,NA,NA,NA,""
"image-keyboard-response",371,324597,"0.0-3.120-0.120","qmscdneqdgsvgb8",111,"182.csv","","586.1750000040047","resources/trios/L2T2A3.jpg","38","restless",0.5,0.6,0.4,0.326978128241997,"true"
"image-keyboard-response",372,324999,"0.0-3.120-1.120","qmscdneqdgsvgb8",111,"182.csv","","null","resources/maskTrios/BT2B.jpg","null","",NA,NA,NA,NA,""
"image-keyboard-response",373,326206,"0.0-3.120-2.120","qmscdneqdgsvgb8",111,"182.csv","","null","resources/images/coin2.png","null","",NA,NA,NA,NA,""
"image-keyboard-response",374,326923,"0.0-3.121-0.121","qmscdneqdgsvgb8",111,"182.csv","","715.7900000020163","resources/trios/L2T4A3.jpg","39","restless",0.5,0.6,0.3,0.562886369542054,"false"
"image-keyboard-response",375,327324,"0.0-3.121-1.121","qmscdneqdgsvgb8",111,"182.csv","","null","resources/maskTrios/BBA3.jpg","null","",NA,NA,NA,NA,""
"image-keyboard-response",376,328526,"0.0-3.121-2.121","qmscdneqdgsvgb8",111,"182.csv","","null","resources/images/fishbone.png","null","",NA,NA,NA,NA,""
"image-keyboard-response",377,329460,"0.0-3.122-0.122","qmscdneqdgsvgb8",111,"182.csv","","932.3049999948125","resources/trios/L2T2A1.jpg","39","restless",0.5,0.6,0.3,0.622183399279217,"false"
"image-keyboard-response",378,329863,"0.0-3.122-1.122","qmscdneqdgsvgb8",111,"182.csv","","null","resources/maskTrios/BBA1.jpg","null","",NA,NA,NA,NA,""
"image-keyboard-response",379,331069,"0.0-3.122-2.122","qmscdneqdgsvgb8",111,"182.csv","","null","resources/images/fishbone.png","null","",NA,NA,NA,NA,""
"image-keyboard-response",380,331641,"0.0-3.123-0.123","qmscdneqdgsvgb8",111,"182.csv","","570.6449999997858","resources/trios/L1T2A3.jpg","38","restless",0.5,0.6,0.3,0.214089468614756,"true"
"image-keyboard-response",381,332045,"0.0-3.123-1.123","qmscdneqdgsvgb8",111,"182.csv","","null","resources/maskTrios/BT2B.jpg","null","",NA,NA,NA,NA,""
"image-keyboard-response",382,333247,"0.0-3.123-2.123","qmscdneqdgsvgb8",111,"182.csv","","null","resources/images/coin2.png","null","",NA,NA,NA,NA,""
"image-keyboard-response",383,334036,"0.0-3.124-0.124","qmscdneqdgsvgb8",111,"182.csv","","788.075000004028","resources/trios/L2T4A3.jpg","38","restless",0.5,0.6,0.3,0.0160903807148844,"true"
"image-keyboard-response",384,334438,"0.0-3.124-1.124","qmscdneqdgsvgb8",111,"182.csv","","null","resources/maskTrios/BT4B.jpg","null","",NA,NA,NA,NA,""
"image-keyboard-response",385,335644,"0.0-3.124-2.124","qmscdneqdgsvgb8",111,"182.csv","","null","resources/images/coin2.png","null","",NA,NA,NA,NA,""
"image-keyboard-response",386,338132,"0.0-3.125-0.125","qmscdneqdgsvgb8",111,"182.csv","","2485.690000001341","resources/trios/L2T2A1.jpg","39","restless",0.5,0.6,0.3,0.704619051891904,"false"
"image-keyboard-response",387,338534,"0.0-3.125-1.125","qmscdneqdgsvgb8",111,"182.csv","","null","resources/maskTrios/BBA1.jpg","null","",NA,NA,NA,NA,""
"image-keyboard-response",388,339738,"0.0-3.125-2.125","qmscdneqdgsvgb8",111,"182.csv","","null","resources/images/fishbone.png","null","",NA,NA,NA,NA,""
"image-keyboard-response",389,341680,"0.0-3.126-0.126","qmscdneqdgsvgb8",111,"182.csv","","1939.9149999953806","resources/trios/L1T4A1.jpg","37","restless",0.5,0.6,0.3,0.2573019898443,"true"
"image-keyboard-response",390,342082,"0.0-3.126-1.126","qmscdneqdgsvgb8",111,"182.csv","","null","resources/maskTrios/L1BB.jpg","null","",NA,NA,NA,NA,""
"image-keyboard-response",391,343285,"0.0-3.126-2.126","qmscdneqdgsvgb8",111,"182.csv","","null","resources/images/coin2.png","null","",NA,NA,NA,NA,""
"image-keyboard-response",392,343762,"0.0-3.127-0.127","qmscdneqdgsvgb8",111,"182.csv","","475.01999999803957","resources/trios/L1T2A3.jpg","38","restless",0.5,0.6,0.3,0.672752723911902,"false"
"image-keyboard-response",393,344165,"0.0-3.127-1.127","qmscdneqdgsvgb8",111,"182.csv","","null","resources/maskTrios/BT2B.jpg","null","",NA,NA,NA,NA,""
"image-keyboard-response",394,345367,"0.0-3.127-2.127","qmscdneqdgsvgb8",111,"182.csv","","null","resources/images/fishbone.png","null","",NA,NA,NA,NA,""
"image-keyboard-response",395,345444,"0.0-3.128-0.128","qmscdneqdgsvgb8",111,"182.csv","","76.59500000590924","resources/trios/L2T4A3.jpg","39","restless",0.5,0.6,0.3,0.495677833343112,"false"
"image-keyboard-response",396,345850,"0.0-3.128-1.128","qmscdneqdgsvgb8",111,"182.csv","","null","resources/maskTrios/BBA3.jpg","null","",NA,NA,NA,NA,""
"image-keyboard-response",397,347054,"0.0-3.128-2.128","qmscdneqdgsvgb8",111,"182.csv","","null","resources/images/fishbone.png","null","",NA,NA,NA,NA,""
"image-keyboard-response",398,347293,"0.0-3.129-0.129","qmscdneqdgsvgb8",111,"182.csv","","237.8199999948265","resources/trios/L1T2A3.jpg","38","restless",0.5,0.6,0.3,0.180048855471601,"true"
"image-keyboard-response",399,347698,"0.0-3.129-1.129","qmscdneqdgsvgb8",111,"182.csv","","null","resources/maskTrios/BT2B.jpg","null","",NA,NA,NA,NA,""
"image-keyboard-response",400,348903,"0.0-3.129-2.129","qmscdneqdgsvgb8",111,"182.csv","","null","resources/images/coin2.png","null","",NA,NA,NA,NA,""
"image-keyboard-response",401,350679,"0.0-3.130-0.130","qmscdneqdgsvgb8",111,"182.csv","","1774.040000003879","resources/trios/L1T4A3.jpg","37","restless",0.5,0.6,0.3,0.0887394434076474,"true"
"image-keyboard-response",402,351084,"0.0-3.130-1.130","qmscdneqdgsvgb8",111,"182.csv","","null","resources/maskTrios/L1BB.jpg","null","",NA,NA,NA,NA,""
"image-keyboard-response",403,352288,"0.0-3.130-2.130","qmscdneqdgsvgb8",111,"182.csv","","null","resources/images/coin2.png","null","",NA,NA,NA,NA,""
"image-keyboard-response",404,353090,"0.0-3.131-0.131","qmscdneqdgsvgb8",111,"182.csv","","800.9200000087731","resources/trios/L1T2A1.jpg","39","restless",0.4,0.7,0.3,0.207843792110516,"true"
"image-keyboard-response",405,353495,"0.0-3.131-1.131","qmscdneqdgsvgb8",111,"182.csv","","null","resources/maskTrios/BBA1.jpg","null","",NA,NA,NA,NA,""
"image-keyboard-response",406,354698,"0.0-3.131-2.131","qmscdneqdgsvgb8",111,"182.csv","","null","resources/images/coin2.png","null","",NA,NA,NA,NA,""
"image-keyboard-response",407,354968,"0.0-3.132-0.132","qmscdneqdgsvgb8",111,"182.csv","","268.79999999073334","resources/trios/L2T2A3.jpg","39","restless",0.4,0.7,0.3,0.0295185656840511,"true"
"image-keyboard-response",408,355371,"0.0-3.132-1.132","qmscdneqdgsvgb8",111,"182.csv","","null","resources/maskTrios/BBA3.jpg","null","",NA,NA,NA,NA,""
"image-keyboard-response",409,356578,"0.0-3.132-2.132","qmscdneqdgsvgb8",111,"182.csv","","null","resources/images/coin2.png","null","",NA,NA,NA,NA,""
"image-keyboard-response",410,356835,"0.0-3.133-0.133","qmscdneqdgsvgb8",111,"182.csv","","255.51000000268687","resources/trios/L2T2A3.jpg","38","restless",0.4,0.7,0.3,0.315245361457399,"true"
"image-keyboard-response",411,357241,"0.0-3.133-1.133","qmscdneqdgsvgb8",111,"182.csv","","null","resources/maskTrios/BT2B.jpg","null","",NA,NA,NA,NA,""
"image-keyboard-response",412,358445,"0.0-3.133-2.133","qmscdneqdgsvgb8",111,"182.csv","","null","resources/images/coin2.png","null","",NA,NA,NA,NA,""
"image-keyboard-response",413,358872,"0.0-3.134-0.134","qmscdneqdgsvgb8",111,"182.csv","","425.26999999245163","resources/trios/L2T4A1.jpg","37","restless",0.4,0.6,0.3,0.314379565509953,"true"
"image-keyboard-response",414,359275,"0.0-3.134-1.134","qmscdneqdgsvgb8",111,"182.csv","","null","resources/maskTrios/L2BB.jpg","null","",NA,NA,NA,NA,""
"image-keyboard-response",415,360478,"0.0-3.134-2.134","qmscdneqdgsvgb8",111,"182.csv","","null","resources/images/coin2.png","null","",NA,NA,NA,NA,""
"image-keyboard-response",416,360780,"0.0-3.135-0.135","qmscdneqdgsvgb8",111,"182.csv","","300.95499999879394","resources/trios/L2T4A3.jpg","37","restless",0.4,0.7,0.3,0.32930777001753,"true"
"image-keyboard-response",417,361186,"0.0-3.135-1.135","qmscdneqdgsvgb8",111,"182.csv","","null","resources/maskTrios/L2BB.jpg","null","",NA,NA,NA,NA,""
"image-keyboard-response",418,362390,"0.0-3.135-2.135","qmscdneqdgsvgb8",111,"182.csv","","null","resources/images/coin2.png","null","",NA,NA,NA,NA,""
"image-keyboard-response",419,362827,"0.0-3.136-0.136","qmscdneqdgsvgb8",111,"182.csv","","435.82499999320135","resources/trios/L2T2A1.jpg","38","restless",0.4,0.7,0.4,0.212176774573674,"true"
"image-keyboard-response",420,363232,"0.0-3.136-1.136","qmscdneqdgsvgb8",111,"182.csv","","null","resources/maskTrios/BT2B.jpg","null","",NA,NA,NA,NA,""
"image-keyboard-response",421,364439,"0.0-3.136-2.136","qmscdneqdgsvgb8",111,"182.csv","","null","resources/images/coin2.png","null","",NA,NA,NA,NA,""
"image-keyboard-response",422,364842,"0.0-3.137-0.137","qmscdneqdgsvgb8",111,"182.csv","","401.2350000120932","resources/trios/L2T4A3.jpg","39","restless",0.4,0.7,0.4,0.67089429910179,"false"
"image-keyboard-response",423,365247,"0.0-3.137-1.137","qmscdneqdgsvgb8",111,"182.csv","","null","resources/maskTrios/BBA3.jpg","null","",NA,NA,NA,NA,""
"image-keyboard-response",424,366448,"0.0-3.137-2.137","qmscdneqdgsvgb8",111,"182.csv","","null","resources/images/fishbone.png","null","",NA,NA,NA,NA,""
"image-keyboard-response",425,366685,"0.0-3.138-0.138","qmscdneqdgsvgb8",111,"182.csv","","236.0049999988405","resources/trios/L1T4A3.jpg","38","restless",0.4,0.7,0.4,0.685507930855321,"true"
"image-keyboard-response",426,367088,"0.0-3.138-1.138","qmscdneqdgsvgb8",111,"182.csv","","null","resources/maskTrios/BT4B.jpg","null","",NA,NA,NA,NA,""
"image-keyboard-response",427,368293,"0.0-3.138-2.138","qmscdneqdgsvgb8",111,"182.csv","","null","resources/images/coin2.png","null","",NA,NA,NA,NA,""
"image-keyboard-response",428,368537,"0.0-3.139-0.139","qmscdneqdgsvgb8",111,"182.csv","","241.99000000953674","resources/trios/L1T4A3.jpg","38","restless",0.4,0.7,0.5,0.229397153682577,"true"
"image-keyboard-response",429,368939,"0.0-3.139-1.139","qmscdneqdgsvgb8",111,"182.csv","","null","resources/maskTrios/BT4B.jpg","null","",NA,NA,NA,NA,""
"image-keyboard-response",430,370142,"0.0-3.139-2.139","qmscdneqdgsvgb8",111,"182.csv","","null","resources/images/coin2.png","null","",NA,NA,NA,NA,""
"image-keyboard-response",431,370527,"0.0-3.140-0.140","qmscdneqdgsvgb8",111,"182.csv","","384.5000000001164","resources/trios/L1T4A3.jpg","38","restless",0.4,0.7,0.5,0.544255134337186,"true"
"image-keyboard-response",432,370932,"0.0-3.140-1.140","qmscdneqdgsvgb8",111,"182.csv","","null","resources/maskTrios/BT4B.jpg","null","",NA,NA,NA,NA,""
"image-keyboard-response",433,372134,"0.0-3.140-2.140","qmscdneqdgsvgb8",111,"182.csv","","null","resources/images/coin2.png","null","",NA,NA,NA,NA,""
"image-keyboard-response",434,373039,"0.0-3.141-0.141","qmscdneqdgsvgb8",111,"182.csv","","903.5099999891827","resources/trios/L1T2A3.jpg","38","restless",0.4,0.7,0.5,0.558012608709286,"true"
"image-keyboard-response",435,373445,"0.0-3.141-1.141","qmscdneqdgsvgb8",111,"182.csv","","null","resources/maskTrios/BT2B.jpg","null","",NA,NA,NA,NA,""
"image-keyboard-response",436,374649,"0.0-3.141-2.141","qmscdneqdgsvgb8",111,"182.csv","","null","resources/images/coin2.png","null","",NA,NA,NA,NA,""
"image-keyboard-response",437,374902,"0.0-3.142-0.142","qmscdneqdgsvgb8",111,"182.csv","","251.58500000543427","resources/trios/L2T2A1.jpg","38","restless",0.4,0.7,0.5,0.586345631466286,"true"
"image-keyboard-response",438,375307,"0.0-3.142-1.142","qmscdneqdgsvgb8",111,"182.csv","","null","resources/maskTrios/BT2B.jpg","null","",NA,NA,NA,NA,""
"image-keyboard-response",439,376509,"0.0-3.142-2.142","qmscdneqdgsvgb8",111,"182.csv","","null","resources/images/coin2.png","null","",NA,NA,NA,NA,""
"image-keyboard-response",440,376815,"0.0-3.143-0.143","qmscdneqdgsvgb8",111,"182.csv","","304.82499999925494","resources/trios/L1T4A1.jpg","38","restless",0.4,0.7,0.5,0.824244286049514,"false"
"image-keyboard-response",441,377221,"0.0-3.143-1.143","qmscdneqdgsvgb8",111,"182.csv","","null","resources/maskTrios/BT4B.jpg","null","",NA,NA,NA,NA,""
"image-keyboard-response",442,378426,"0.0-3.143-2.143","qmscdneqdgsvgb8",111,"182.csv","","null","resources/images/fishbone.png","null","",NA,NA,NA,NA,""
"image-keyboard-response",443,379176,"0.0-3.144-0.144","qmscdneqdgsvgb8",111,"182.csv","","748.6250000074506","resources/trios/L2T4A3.jpg","39","restless",0.4,0.7,0.5,0.419450814627617,"true"
"image-keyboard-response",444,379583,"0.0-3.144-1.144","qmscdneqdgsvgb8",111,"182.csv","","null","resources/maskTrios/BBA3.jpg","null","",NA,NA,NA,NA,""
"image-keyboard-response",445,380786,"0.0-3.144-2.144","qmscdneqdgsvgb8",111,"182.csv","","null","resources/images/coin2.png","null","",NA,NA,NA,NA,""
"image-keyboard-response",446,381218,"0.0-3.145-0.145","qmscdneqdgsvgb8",111,"182.csv","","430.6649999925867","resources/trios/L1T2A3.jpg","37","restless",0.4,0.7,0.5,0.580717796337594,"false"
"image-keyboard-response",447,381622,"0.0-3.145-1.145","qmscdneqdgsvgb8",111,"182.csv","","null","resources/maskTrios/L1BB.jpg","null","",NA,NA,NA,NA,""
"image-keyboard-response",448,382828,"0.0-3.145-2.145","qmscdneqdgsvgb8",111,"182.csv","","null","resources/images/fishbone.png","null","",NA,NA,NA,NA,""
"image-keyboard-response",449,383115,"0.0-3.146-0.146","qmscdneqdgsvgb8",111,"182.csv","","285.7099999964703","resources/trios/L2T2A3.jpg","39","restless",0.5,0.7,0.5,0.863714193888293,"false"
"image-keyboard-response",450,383520,"0.0-3.146-1.146","qmscdneqdgsvgb8",111,"182.csv","","null","resources/maskTrios/BBA3.jpg","null","",NA,NA,NA,NA,""
"image-keyboard-response",451,384723,"0.0-3.146-2.146","qmscdneqdgsvgb8",111,"182.csv","","null","resources/images/fishbone.png","null","",NA,NA,NA,NA,""
"image-keyboard-response",452,384945,"0.0-3.147-0.147","qmscdneqdgsvgb8",111,"182.csv","","220.6399999995483","resources/trios/L2T4A3.jpg","38","restless",0.5,0.7,0.5,0.575853295399809,"true"
"image-keyboard-response",453,385350,"0.0-3.147-1.147","qmscdneqdgsvgb8",111,"182.csv","","null","resources/maskTrios/BT4B.jpg","null","",NA,NA,NA,NA,""
"image-keyboard-response",454,386554,"0.0-3.147-2.147","qmscdneqdgsvgb8",111,"182.csv","","null","resources/images/coin2.png","null","",NA,NA,NA,NA,""
"image-keyboard-response",455,386837,"0.0-3.148-0.148","qmscdneqdgsvgb8",111,"182.csv","","281.44000000611413","resources/trios/L1T4A3.jpg","38","restless",0.5,0.7,0.5,0.483836639655054,"true"
"image-keyboard-response",456,387242,"0.0-3.148-1.148","qmscdneqdgsvgb8",111,"182.csv","","null","resources/maskTrios/BT4B.jpg","null","",NA,NA,NA,NA,""
"image-keyboard-response",457,388445,"0.0-3.148-2.148","qmscdneqdgsvgb8",111,"182.csv","","null","resources/images/coin2.png","null","",NA,NA,NA,NA,""
"image-keyboard-response",458,388878,"0.0-3.149-0.149","qmscdneqdgsvgb8",111,"182.csv","","432.1349999954691","resources/trios/L2T2A3.jpg","37","restless",0.5,0.7,0.5,0.509602001322826,"false"
"image-keyboard-response",459,389282,"0.0-3.149-1.149","qmscdneqdgsvgb8",111,"182.csv","","null","resources/maskTrios/L2BB.jpg","null","",NA,NA,NA,NA,""
"image-keyboard-response",460,390484,"0.0-3.149-2.149","qmscdneqdgsvgb8",111,"182.csv","","null","resources/images/fishbone.png","null","",NA,NA,NA,NA,""
"image-keyboard-response",461,390801,"0.0-3.150-0.150","qmscdneqdgsvgb8",111,"182.csv","","315.74999999429565","resources/trios/L1T2A3.jpg","39","restless",0.5,0.7,0.5,0.980850747763124,"false"
"image-keyboard-response",462,391202,"0.0-3.150-1.150","qmscdneqdgsvgb8",111,"182.csv","","null","resources/maskTrios/BBA3.jpg","null","",NA,NA,NA,NA,""
"image-keyboard-response",463,392404,"0.0-3.150-2.150","qmscdneqdgsvgb8",111,"182.csv","","null","resources/images/fishbone.png","null","",NA,NA,NA,NA,""
"image-keyboard-response",464,392665,"0.0-3.151-0.151","qmscdneqdgsvgb8",111,"182.csv","","258.8099999993574","resources/trios/L1T4A1.jpg","38","restless",0.5,0.7,0.5,0.51389254415366,"true"
"image-keyboard-response",465,393067,"0.0-3.151-1.151","qmscdneqdgsvgb8",111,"182.csv","","null","resources/maskTrios/BT4B.jpg","null","",NA,NA,NA,NA,""
"image-keyboard-response",466,394270,"0.0-3.151-2.151","qmscdneqdgsvgb8",111,"182.csv","","null","resources/images/coin2.png","null","",NA,NA,NA,NA,""
"image-keyboard-response",467,394504,"0.0-3.152-0.152","qmscdneqdgsvgb8",111,"182.csv","","233.08499999984633","resources/trios/L2T4A1.jpg","38","restless",0.5,0.7,0.5,0.189474501203438,"true"
"image-keyboard-response",468,394909,"0.0-3.152-1.152","qmscdneqdgsvgb8",111,"182.csv","","null","resources/maskTrios/BT4B.jpg","null","",NA,NA,NA,NA,""
"image-keyboard-response",469,396114,"0.0-3.152-2.152","qmscdneqdgsvgb8",111,"182.csv","","null","resources/images/coin2.png","null","",NA,NA,NA,NA,""
"image-keyboard-response",470,396381,"0.0-3.153-0.153","qmscdneqdgsvgb8",111,"182.csv","","265.6649999989895","resources/trios/L2T2A3.jpg","37","restless",0.4,0.7,0.5,0.781088522145647,"false"
"image-keyboard-response",471,396784,"0.0-3.153-1.153","qmscdneqdgsvgb8",111,"182.csv","","null","resources/maskTrios/L2BB.jpg","null","",NA,NA,NA,NA,""
"image-keyboard-response",472,397987,"0.0-3.153-2.153","qmscdneqdgsvgb8",111,"182.csv","","null","resources/images/fishbone.png","null","",NA,NA,NA,NA,""
"image-keyboard-response",473,398305,"0.0-3.154-0.154","qmscdneqdgsvgb8",111,"182.csv","","316.3349999958882","resources/trios/L2T2A1.jpg","38","restless",0.4,0.7,0.5,0.787851659192705,"false"
"image-keyboard-response",474,398709,"0.0-3.154-1.154","qmscdneqdgsvgb8",111,"182.csv","","null","resources/maskTrios/BT2B.jpg","null","",NA,NA,NA,NA,""
"image-keyboard-response",475,399910,"0.0-3.154-2.154","qmscdneqdgsvgb8",111,"182.csv","","null","resources/images/fishbone.png","null","",NA,NA,NA,NA,""
"image-keyboard-response",476,400192,"0.0-3.155-0.155","qmscdneqdgsvgb8",111,"182.csv","","280.81500000553206","resources/trios/L1T2A1.jpg","37","restless",0.4,0.7,0.5,0.239073614069515,"true"
"image-keyboard-response",477,400598,"0.0-3.155-1.155","qmscdneqdgsvgb8",111,"182.csv","","null","resources/maskTrios/L1BB.jpg","null","",NA,NA,NA,NA,""
"image-keyboard-response",478,401804,"0.0-3.155-2.155","qmscdneqdgsvgb8",111,"182.csv","","null","resources/images/coin2.png","null","",NA,NA,NA,NA,""
"image-keyboard-response",479,402192,"0.0-3.156-0.156","qmscdneqdgsvgb8",111,"182.csv","","386.8250000086846","resources/trios/L2T2A3.jpg","39","restless",0.4,0.7,0.5,0.970482390005128,"false"
"image-keyboard-response",480,402597,"0.0-3.156-1.156","qmscdneqdgsvgb8",111,"182.csv","","null","resources/maskTrios/BBA3.jpg","null","",NA,NA,NA,NA,""
"image-keyboard-response",481,403799,"0.0-3.156-2.156","qmscdneqdgsvgb8",111,"182.csv","","null","resources/images/fishbone.png","null","",NA,NA,NA,NA,""
"image-keyboard-response",482,403893,"0.0-3.157-0.157","qmscdneqdgsvgb8",111,"182.csv","","92.40000000863802","resources/trios/L2T2A3.jpg","37","restless",0.4,0.7,0.4,0.0733042338416621,"true"
"image-keyboard-response",483,404296,"0.0-3.157-1.157","qmscdneqdgsvgb8",111,"182.csv","","null","resources/maskTrios/L2BB.jpg","null","",NA,NA,NA,NA,""
"image-keyboard-response",484,405498,"0.0-3.157-2.157","qmscdneqdgsvgb8",111,"182.csv","","null","resources/images/coin2.png","null","",NA,NA,NA,NA,""
"image-keyboard-response",485,405876,"0.0-3.158-0.158","qmscdneqdgsvgb8",111,"182.csv","","376.7999999981839","resources/trios/L1T4A1.jpg","38","restless",0.4,0.7,0.4,0.846319394461918,"false"
"image-keyboard-response",486,406278,"0.0-3.158-1.158","qmscdneqdgsvgb8",111,"182.csv","","null","resources/maskTrios/BT4B.jpg","null","",NA,NA,NA,NA,""
"image-keyboard-response",487,407484,"0.0-3.158-2.158","qmscdneqdgsvgb8",111,"182.csv","","null","resources/images/fishbone.png","null","",NA,NA,NA,NA,""
"image-keyboard-response",488,408211,"0.0-3.159-0.159","qmscdneqdgsvgb8",111,"182.csv","","725.7899999967776","resources/trios/L1T4A1.jpg","37","restless",0.4,0.7,0.4,0.865332304750394,"false"
"image-keyboard-response",489,408618,"0.0-3.159-1.159","qmscdneqdgsvgb8",111,"182.csv","","null","resources/maskTrios/L1BB.jpg","null","",NA,NA,NA,NA,""
"image-keyboard-response",490,409819,"0.0-3.159-2.159","qmscdneqdgsvgb8",111,"182.csv","","null","resources/images/fishbone.png","null","",NA,NA,NA,NA,""
"image-keyboard-response",491,410113,"0.0-3.160-0.160","qmscdneqdgsvgb8",111,"182.csv","","292.40500000014435","resources/trios/L2T4A3.jpg","39","restless",0.4,0.7,0.4,0.0887187858120744,"true"
"image-keyboard-response",492,410519,"0.0-3.160-1.160","qmscdneqdgsvgb8",111,"182.csv","","null","resources/maskTrios/BBA3.jpg","null","",NA,NA,NA,NA,""
"image-keyboard-response",493,411722,"0.0-3.160-2.160","qmscdneqdgsvgb8",111,"182.csv","","null","resources/images/coin2.png","null","",NA,NA,NA,NA,""
"image-keyboard-response",494,411964,"0.0-3.161-0.161","qmscdneqdgsvgb8",111,"182.csv","","240.36000001069624","resources/trios/L1T2A3.jpg","39","restless",0.4,0.7,0.4,0.796050876891822,"false"
"image-keyboard-response",495,412370,"0.0-3.161-1.161","qmscdneqdgsvgb8",111,"182.csv","","null","resources/maskTrios/BBA3.jpg","null","",NA,NA,NA,NA,""
"image-keyboard-response",496,413574,"0.0-3.161-2.161","qmscdneqdgsvgb8",111,"182.csv","","null","resources/images/fishbone.png","null","",NA,NA,NA,NA,""
"image-keyboard-response",497,413837,"0.0-3.162-0.162","qmscdneqdgsvgb8",111,"182.csv","","260.8849999960512","resources/trios/L1T2A3.jpg","38","restless",0.4,0.7,0.4,0.832800988015787,"false"
"image-keyboard-response",498,414239,"0.0-3.162-1.162","qmscdneqdgsvgb8",111,"182.csv","","null","resources/maskTrios/BT2B.jpg","null","",NA,NA,NA,NA,""
"image-keyboard-response",499,415441,"0.0-3.162-2.162","qmscdneqdgsvgb8",111,"182.csv","","null","resources/images/fishbone.png","null","",NA,NA,NA,NA,""
"image-keyboard-response",500,415590,"0.0-3.163-0.163","qmscdneqdgsvgb8",111,"182.csv","","147.63000000675675","resources/trios/L1T2A3.jpg","37","restless",0.5,0.7,0.4,0.287190259070392,"true"
"image-keyboard-response",501,415992,"0.0-3.163-1.163","qmscdneqdgsvgb8",111,"182.csv","","null","resources/maskTrios/L1BB.jpg","null","",NA,NA,NA,NA,""
"image-keyboard-response",502,417196,"0.0-3.163-2.163","qmscdneqdgsvgb8",111,"182.csv","","null","resources/images/coin2.png","null","",NA,NA,NA,NA,""
"image-keyboard-response",503,417476,"0.0-3.164-0.164","qmscdneqdgsvgb8",111,"182.csv","","278.230000010808","resources/trios/L2T2A3.jpg","37","restless",0.5,0.7,0.4,0.311833574207502,"true"
"image-keyboard-response",504,417882,"0.0-3.164-1.164","qmscdneqdgsvgb8",111,"182.csv","","null","resources/maskTrios/L2BB.jpg","null","",NA,NA,NA,NA,""
"image-keyboard-response",505,419087,"0.0-3.164-2.164","qmscdneqdgsvgb8",111,"182.csv","","null","resources/images/coin2.png","null","",NA,NA,NA,NA,""
"image-keyboard-response",506,419507,"0.0-3.165-0.165","qmscdneqdgsvgb8",111,"182.csv","","418.9550000010058","resources/trios/L2T4A1.jpg","39","restless",0.5,0.7,0.4,0.359502905563154,"true"
"image-keyboard-response",507,419911,"0.0-3.165-1.165","qmscdneqdgsvgb8",111,"182.csv","","null","resources/maskTrios/BBA1.jpg","null","",NA,NA,NA,NA,""
"image-keyboard-response",508,421115,"0.0-3.165-2.165","qmscdneqdgsvgb8",111,"182.csv","","null","resources/images/coin2.png","null","",NA,NA,NA,NA,""
"image-keyboard-response",509,421176,"0.0-3.166-0.166","qmscdneqdgsvgb8",111,"182.csv","","59.085000000777654","resources/trios/L1T4A3.jpg","39","restless",0.5,0.6,0.4,0.872453189869314,"false"
"image-keyboard-response",510,421582,"0.0-3.166-1.166","qmscdneqdgsvgb8",111,"182.csv","","null","resources/maskTrios/BBA3.jpg","null","",NA,NA,NA,NA,""
"image-keyboard-response",511,422784,"0.0-3.166-2.166","qmscdneqdgsvgb8",111,"182.csv","","null","resources/images/fishbone.png","null","",NA,NA,NA,NA,""
"image-keyboard-response",512,423058,"0.0-3.167-0.167","qmscdneqdgsvgb8",111,"182.csv","","273.83499999996275","resources/trios/L1T4A1.jpg","38","restless",0.5,0.6,0.5,0.925111443070384,"false"
"image-keyboard-response",513,423463,"0.0-3.167-1.167","qmscdneqdgsvgb8",111,"182.csv","","null","resources/maskTrios/BT4B.jpg","null","",NA,NA,NA,NA,""
"image-keyboard-response",514,424665,"0.0-3.167-2.167","qmscdneqdgsvgb8",111,"182.csv","","null","resources/images/fishbone.png","null","",NA,NA,NA,NA,""
"image-keyboard-response",515,424769,"0.0-3.168-0.168","qmscdneqdgsvgb8",111,"182.csv","","102.23000000405591","resources/trios/L2T4A1.jpg","38","restless",0.5,0.6,0.6,0.0111820787162504,"true"
"image-keyboard-response",516,425171,"0.0-3.168-1.168","qmscdneqdgsvgb8",111,"182.csv","","null","resources/maskTrios/BT4B.jpg","null","",NA,NA,NA,NA,""
"image-keyboard-response",517,426378,"0.0-3.168-2.168","qmscdneqdgsvgb8",111,"182.csv","","null","resources/images/coin2.png","null","",NA,NA,NA,NA,""
"image-keyboard-response",518,426726,"0.0-3.169-0.169","qmscdneqdgsvgb8",111,"182.csv","","346.72000000136904","resources/trios/L1T4A1.jpg","38","restless",0.5,0.6,0.6,0.705289812457218,"false"
"image-keyboard-response",519,427128,"0.0-3.169-1.169","qmscdneqdgsvgb8",111,"182.csv","","null","resources/maskTrios/BT4B.jpg","null","",NA,NA,NA,NA,""
"image-keyboard-response",520,428329,"0.0-3.169-2.169","qmscdneqdgsvgb8",111,"182.csv","","null","resources/images/fishbone.png","null","",NA,NA,NA,NA,""
"image-keyboard-response",521,428576,"0.0-3.170-0.170","qmscdneqdgsvgb8",111,"182.csv","","245.58499999693595","resources/trios/L1T2A3.jpg","37","restless",0.5,0.6,0.5,0.911227985053805,"false"
"image-keyboard-response",522,428980,"0.0-3.170-1.170","qmscdneqdgsvgb8",111,"182.csv","","null","resources/maskTrios/L1BB.jpg","null","",NA,NA,NA,NA,""
"image-keyboard-response",523,430183,"0.0-3.170-2.170","qmscdneqdgsvgb8",111,"182.csv","","null","resources/images/fishbone.png","null","",NA,NA,NA,NA,""
"image-keyboard-response",524,430449,"0.0-3.171-0.171","qmscdneqdgsvgb8",111,"182.csv","","264.81999999668915","resources/trios/L2T4A1.jpg","39","restless",0.5,0.6,0.5,0.747226557444683,"false"
"image-keyboard-response",525,430853,"0.0-3.171-1.171","qmscdneqdgsvgb8",111,"182.csv","","null","resources/maskTrios/BBA1.jpg","null","",NA,NA,NA,NA,""
"image-keyboard-response",526,432059,"0.0-3.171-2.171","qmscdneqdgsvgb8",111,"182.csv","","null","resources/images/fishbone.png","null","",NA,NA,NA,NA,""
"image-keyboard-response",527,432418,"0.0-3.172-0.172","qmscdneqdgsvgb8",111,"182.csv","","357.4899999948684","resources/trios/L2T2A1.jpg","38","restless",0.5,0.6,0.4,0.40593212826636,"true"
"image-keyboard-response",528,432822,"0.0-3.172-1.172","qmscdneqdgsvgb8",111,"182.csv","","null","resources/maskTrios/BT2B.jpg","null","",NA,NA,NA,NA,""
"image-keyboard-response",529,434028,"0.0-3.172-2.172","qmscdneqdgsvgb8",111,"182.csv","","null","resources/images/coin2.png","null","",NA,NA,NA,NA,""
"image-keyboard-response",530,434393,"0.0-3.173-0.173","qmscdneqdgsvgb8",111,"182.csv","","363.8349999964703","resources/trios/L1T4A1.jpg","38","restless",0.5,0.6,0.4,0.23666205502837,"true"
"image-keyboard-response",531,434796,"0.0-3.173-1.173","qmscdneqdgsvgb8",111,"182.csv","","null","resources/maskTrios/BT4B.jpg","null","",NA,NA,NA,NA,""
"image-keyboard-response",532,436001,"0.0-3.173-2.173","qmscdneqdgsvgb8",111,"182.csv","","null","resources/images/coin2.png","null","",NA,NA,NA,NA,""
"image-keyboard-response",533,436353,"0.0-3.174-0.174","qmscdneqdgsvgb8",111,"182.csv","","349.92500000225846","resources/trios/L1T2A3.jpg","38","restless",0.5,0.6,0.4,0.559647761396775,"true"
"image-keyboard-response",534,436754,"0.0-3.174-1.174","qmscdneqdgsvgb8",111,"182.csv","","null","resources/maskTrios/BT2B.jpg","null","",NA,NA,NA,NA,""
"image-keyboard-response",535,437960,"0.0-3.174-2.174","qmscdneqdgsvgb8",111,"182.csv","","null","resources/images/coin2.png","null","",NA,NA,NA,NA,""
"image-keyboard-response",536,438339,"0.0-3.175-0.175","qmscdneqdgsvgb8",111,"182.csv","","377.6699999871198","resources/trios/L2T2A1.jpg","37","restless",0.5,0.6,0.4,0.00258721868587442,"true"
"image-keyboard-response",537,438743,"0.0-3.175-1.175","qmscdneqdgsvgb8",111,"182.csv","","null","resources/maskTrios/L2BB.jpg","null","",NA,NA,NA,NA,""
"image-keyboard-response",538,439945,"0.0-3.175-2.175","qmscdneqdgsvgb8",111,"182.csv","","null","resources/images/coin2.png","null","",NA,NA,NA,NA,""
"image-keyboard-response",539,440304,"0.0-3.176-0.176","qmscdneqdgsvgb8",111,"182.csv","","357.2299999941606","resources/trios/L1T4A3.jpg","37","restless",0.5,0.6,0.4,0.722957365839238,"false"
"image-keyboard-response",540,440710,"0.0-3.176-1.176","qmscdneqdgsvgb8",111,"182.csv","","null","resources/maskTrios/L1BB.jpg","null","",NA,NA,NA,NA,""
"image-keyboard-response",541,441913,"0.0-3.176-2.176","qmscdneqdgsvgb8",111,"182.csv","","null","resources/images/fishbone.png","null","",NA,NA,NA,NA,""
"image-keyboard-response",542,442192,"0.0-3.177-0.177","qmscdneqdgsvgb8",111,"182.csv","","277.68499999365304","resources/trios/L2T2A1.jpg","38","restless",0.5,0.6,0.4,0.828323346447207,"false"
"image-keyboard-response",543,442597,"0.0-3.177-1.177","qmscdneqdgsvgb8",111,"182.csv","","null","resources/maskTrios/BT2B.jpg","null","",NA,NA,NA,NA,""
"image-keyboard-response",544,443804,"0.0-3.177-2.177","qmscdneqdgsvgb8",111,"182.csv","","null","resources/images/fishbone.png","null","",NA,NA,NA,NA,""
"image-keyboard-response",545,444129,"0.0-3.178-0.178","qmscdneqdgsvgb8",111,"182.csv","","324.04500000120606","resources/trios/L2T2A1.jpg","39","restless",0.5,0.6,0.4,0.536481130023293,"false"
"image-keyboard-response",546,444534,"0.0-3.178-1.178","qmscdneqdgsvgb8",111,"182.csv","","null","resources/maskTrios/BBA1.jpg","null","",NA,NA,NA,NA,""
"image-keyboard-response",547,445736,"0.0-3.178-2.178","qmscdneqdgsvgb8",111,"182.csv","","null","resources/images/fishbone.png","null","",NA,NA,NA,NA,""
"image-keyboard-response",548,446086,"0.0-3.179-0.179","qmscdneqdgsvgb8",111,"182.csv","","349.72499999275897","resources/trios/L2T4A1.jpg","38","restless",0.5,0.6,0.4,0.245677264673899,"true"
"image-keyboard-response",549,446491,"0.0-3.179-1.179","qmscdneqdgsvgb8",111,"182.csv","","null","resources/maskTrios/BT4B.jpg","null","",NA,NA,NA,NA,""
"image-keyboard-response",550,447695,"0.0-3.179-2.179","qmscdneqdgsvgb8",111,"182.csv","","null","resources/images/coin2.png","null","",NA,NA,NA,NA,""
"image-keyboard-response",551,447971,"0.0-3.180-0.180","qmscdneqdgsvgb8",111,"182.csv","","275.31500000623055","resources/trios/L2T4A1.jpg","38","restless",0.5,0.6,0.4,0.372439770545504,"true"
"image-keyboard-response",552,448376,"0.0-3.180-1.180","qmscdneqdgsvgb8",111,"182.csv","","null","resources/maskTrios/BT4B.jpg","null","",NA,NA,NA,NA,""
"image-keyboard-response",553,449581,"0.0-3.180-2.180","qmscdneqdgsvgb8",111,"182.csv","","null","resources/images/coin2.png","null","",NA,NA,NA,NA,""
"image-keyboard-response",554,449893,"0.0-3.181-0.181","qmscdneqdgsvgb8",111,"182.csv","","311.54500000411645","resources/trios/L1T2A1.jpg","37","restless",0.5,0.6,0.4,0.129366438172355,"true"
"image-keyboard-response",555,450295,"0.0-3.181-1.181","qmscdneqdgsvgb8",111,"182.csv","","null","resources/maskTrios/L1BB.jpg","null","",NA,NA,NA,NA,""
"image-keyboard-response",556,451498,"0.0-3.181-2.181","qmscdneqdgsvgb8",111,"182.csv","","null","resources/images/coin2.png","null","",NA,NA,NA,NA,""
"image-keyboard-response",557,451907,"0.0-3.182-0.182","qmscdneqdgsvgb8",111,"182.csv","","407.51499999896623","resources/trios/L1T2A3.jpg","37","restless",0.5,0.6,0.4,0.658218564594931,"false"
"image-keyboard-response",558,452311,"0.0-3.182-1.182","qmscdneqdgsvgb8",111,"182.csv","","null","resources/maskTrios/L1BB.jpg","null","",NA,NA,NA,NA,""
"image-keyboard-response",559,453514,"0.0-3.182-2.182","qmscdneqdgsvgb8",111,"182.csv","","null","resources/images/fishbone.png","null","",NA,NA,NA,NA,""
"image-keyboard-response",560,453826,"0.0-3.183-0.183","qmscdneqdgsvgb8",111,"182.csv","","310.0000000122236","resources/trios/L2T4A3.jpg","38","restless",0.5,0.6,0.4,0.267408517610256,"true"
"image-keyboard-response",561,454231,"0.0-3.183-1.183","qmscdneqdgsvgb8",111,"182.csv","","null","resources/maskTrios/BT4B.jpg","null","",NA,NA,NA,NA,""
"image-keyboard-response",562,455432,"0.0-3.183-2.183","qmscdneqdgsvgb8",111,"182.csv","","null","resources/images/coin2.png","null","",NA,NA,NA,NA,""
"image-keyboard-response",563,455814,"0.0-3.184-0.184","qmscdneqdgsvgb8",111,"182.csv","","380.7799999922281","resources/trios/L2T2A3.jpg","39","restless",0.5,0.5,0.4,0.78086257202554,"false"
"image-keyboard-response",564,456217,"0.0-3.184-1.184","qmscdneqdgsvgb8",111,"182.csv","","null","resources/maskTrios/BBA3.jpg","null","",NA,NA,NA,NA,""
"image-keyboard-response",565,457423,"0.0-3.184-2.184","qmscdneqdgsvgb8",111,"182.csv","","null","resources/images/fishbone.png","null","",NA,NA,NA,NA,""
"image-keyboard-response",566,457740,"0.0-3.185-0.185","qmscdneqdgsvgb8",111,"182.csv","","315.7399999909103","resources/trios/L2T2A1.jpg","38","restless",0.4,0.5,0.4,0.928526945714797,"false"
"image-keyboard-response",567,458145,"0.0-3.185-1.185","qmscdneqdgsvgb8",111,"182.csv","","null","resources/maskTrios/BT2B.jpg","null","",NA,NA,NA,NA,""
"image-keyboard-response",568,459347,"0.0-3.185-2.185","qmscdneqdgsvgb8",111,"182.csv","","null","resources/images/fishbone.png","null","",NA,NA,NA,NA,""
"image-keyboard-response",569,459642,"0.0-3.186-0.186","qmscdneqdgsvgb8",111,"182.csv","","292.5299999915296","resources/trios/L2T4A3.jpg","38","restless",0.4,0.5,0.4,0.0454242514131322,"true"
"image-keyboard-response",570,460048,"0.0-3.186-1.186","qmscdneqdgsvgb8",111,"182.csv","","null","resources/maskTrios/BT4B.jpg","null","",NA,NA,NA,NA,""
"image-keyboard-response",571,461250,"0.0-3.186-2.186","qmscdneqdgsvgb8",111,"182.csv","","null","resources/images/coin2.png","null","",NA,NA,NA,NA,""
"image-keyboard-response",572,461601,"0.0-3.187-0.187","qmscdneqdgsvgb8",111,"182.csv","","349.26000000268687","resources/trios/L1T2A3.jpg","37","restless",0.4,0.6,0.4,0.313305529821651,"true"
"image-keyboard-response",573,462003,"0.0-3.187-1.187","qmscdneqdgsvgb8",111,"182.csv","","null","resources/maskTrios/L1BB.jpg","null","",NA,NA,NA,NA,""
"image-keyboard-response",574,463206,"0.0-3.187-2.187","qmscdneqdgsvgb8",111,"182.csv","","null","resources/images/coin2.png","null","",NA,NA,NA,NA,""
"image-keyboard-response",575,463479,"0.0-3.188-0.188","qmscdneqdgsvgb8",111,"182.csv","","272.16999999654945","resources/trios/L2T4A3.jpg","38","restless",0.4,0.6,0.4,0.937992026131145,"false"
"image-keyboard-response",576,463883,"0.0-3.188-1.188","qmscdneqdgsvgb8",111,"182.csv","","null","resources/maskTrios/BT4B.jpg","null","",NA,NA,NA,NA,""
"image-keyboard-response",577,465085,"0.0-3.188-2.188","qmscdneqdgsvgb8",111,"182.csv","","null","resources/images/fishbone.png","null","",NA,NA,NA,NA,""
"image-keyboard-response",578,465435,"0.0-3.189-0.189","qmscdneqdgsvgb8",111,"182.csv","","347.7699999930337","resources/trios/L1T4A1.jpg","37","restless",0.4,0.6,0.4,0.512619380759568,"false"
"image-keyboard-response",579,465841,"0.0-3.189-1.189","qmscdneqdgsvgb8",111,"182.csv","","null","resources/maskTrios/L1BB.jpg","null","",NA,NA,NA,NA,""
"image-keyboard-response",580,467045,"0.0-3.189-2.189","qmscdneqdgsvgb8",111,"182.csv","","null","resources/images/fishbone.png","null","",NA,NA,NA,NA,""
"image-keyboard-response",581,467295,"0.0-3.190-0.190","qmscdneqdgsvgb8",111,"182.csv","","248.29000000318047","resources/trios/L1T2A3.jpg","38","restless",0.4,0.6,0.4,0.118627023715043,"true"
"image-keyboard-response",582,467701,"0.0-3.190-1.190","qmscdneqdgsvgb8",111,"182.csv","","null","resources/maskTrios/BT2B.jpg","null","",NA,NA,NA,NA,""
"image-keyboard-response",583,468905,"0.0-3.190-2.190","qmscdneqdgsvgb8",111,"182.csv","","null","resources/images/coin2.png","null","",NA,NA,NA,NA,""
"image-keyboard-response",584,469327,"0.0-3.191-0.191","qmscdneqdgsvgb8",111,"182.csv","","421.05000000447035","resources/trios/L2T2A1.jpg","39","restless",0.4,0.6,0.4,0.20194787806854,"true"
"image-keyboard-response",585,469730,"0.0-3.191-1.191","qmscdneqdgsvgb8",111,"182.csv","","null","resources/maskTrios/BBA1.jpg","null","",NA,NA,NA,NA,""
"image-keyboard-response",586,470935,"0.0-3.191-2.191","qmscdneqdgsvgb8",111,"182.csv","","null","resources/images/coin2.png","null","",NA,NA,NA,NA,""
"image-keyboard-response",587,471375,"0.0-3.192-0.192","qmscdneqdgsvgb8",111,"182.csv","","438.0750000127591","resources/trios/L1T4A1.jpg","39","restless",0.4,0.6,0.4,0.442387956700383,"false"
"image-keyboard-response",588,471777,"0.0-3.192-1.192","qmscdneqdgsvgb8",111,"182.csv","","null","resources/maskTrios/BBA1.jpg","null","",NA,NA,NA,NA,""
"image-keyboard-response",589,472982,"0.0-3.192-2.192","qmscdneqdgsvgb8",111,"182.csv","","null","resources/images/fishbone.png","null","",NA,NA,NA,NA,""
"image-keyboard-response",590,473246,"0.0-3.193-0.193","qmscdneqdgsvgb8",111,"182.csv","","263.1950000068173","resources/trios/L2T4A1.jpg","38","restless",0.4,0.6,0.4,0.780270491799754,"false"
"image-keyboard-response",591,473648,"0.0-3.193-1.193","qmscdneqdgsvgb8",111,"182.csv","","null","resources/maskTrios/BT4B.jpg","null","",NA,NA,NA,NA,""
"image-keyboard-response",592,474850,"0.0-3.193-2.193","qmscdneqdgsvgb8",111,"182.csv","","null","resources/images/fishbone.png","null","",NA,NA,NA,NA,""
"image-keyboard-response",593,475118,"0.0-3.194-0.194","qmscdneqdgsvgb8",111,"182.csv","","266.85499999439344","resources/trios/L1T4A1.jpg","38","restless",0.4,0.6,0.4,0.51459099675771,"true"
"image-keyboard-response",594,475520,"0.0-3.194-1.194","qmscdneqdgsvgb8",111,"182.csv","","null","resources/maskTrios/BT4B.jpg","null","",NA,NA,NA,NA,""
"image-keyboard-response",595,476723,"0.0-3.194-2.194","qmscdneqdgsvgb8",111,"182.csv","","null","resources/images/coin2.png","null","",NA,NA,NA,NA,""
"image-keyboard-response",596,477115,"0.0-3.195-0.195","qmscdneqdgsvgb8",111,"182.csv","","391.3250000041444","resources/trios/L1T4A1.jpg","38","restless",0.3,0.6,0.4,0.467359613637453,"true"
"image-keyboard-response",597,477521,"0.0-3.195-1.195","qmscdneqdgsvgb8",111,"182.csv","","null","resources/maskTrios/BT4B.jpg","null","",NA,NA,NA,NA,""
"image-keyboard-response",598,478727,"0.0-3.195-2.195","qmscdneqdgsvgb8",111,"182.csv","","null","resources/images/coin2.png","null","",NA,NA,NA,NA,""
"image-keyboard-response",599,478954,"0.0-3.196-0.196","qmscdneqdgsvgb8",111,"182.csv","","224.83500000089407","resources/trios/L2T4A1.jpg","38","restless",0.3,0.6,0.4,0.406389826748585,"true"
"image-keyboard-response",600,479360,"0.0-3.196-1.196","qmscdneqdgsvgb8",111,"182.csv","","null","resources/maskTrios/BT4B.jpg","null","",NA,NA,NA,NA,""
"image-keyboard-response",601,480568,"0.0-3.196-2.196","qmscdneqdgsvgb8",111,"182.csv","","null","resources/images/coin2.png","null","",NA,NA,NA,NA,""
"image-keyboard-response",602,480822,"0.0-3.197-0.197","qmscdneqdgsvgb8",111,"182.csv","","248.2600000075763","resources/trios/L1T2A3.jpg","39","restless",0.3,0.6,0.5,0.21276620852147,"true"
