"trial_type","trial_index","time_elapsed","internal_node_id","subject","participantCode","walkNumber","success","rt","stimulus","key_press","test_part","leftProb","midProb","rightProb","generatedNum","correct"
"pavlovia",0,1133,"0.0-0.0","nxjk0pf1noe6l6d",271,"184.csv","","","","","",NA,NA,NA,NA,""
"fullscreen",1,4912,"0.0-1.0","nxjk0pf1noe6l6d",271,"184.csv","true","","","","",NA,NA,NA,NA,""
"html-keyboard-response",2,37020,"0.0-2.0-0.0","nxjk0pf1noe6l6d",271,"184.csv","","32107","<p><font size='6'>Arrrgh!</p></font><p>Can you be the best pirate? Try to find lots of gold! But beware, some islands have more gold than others, and over time, the island with the most gold may change. Can YOU figure it out? </p><font size='6'>GOOD LUCK, CAPTAIN!!!</font><p>Press any key to begin</p>","32","",NA,NA,NA,NA,""
"image-keyboard-response",3,40024,"0.0-2.0-1.0","nxjk0pf1noe6l6d",271,"184.csv","","null","resources/image_sets/111.png","null","",NA,NA,NA,NA,""
"image-keyboard-response",4,49592,"0.0-2.0-2.0","nxjk0pf1noe6l6d",271,"184.csv","","9568","resources/image_sets/left_highlight.png","37","",NA,NA,NA,NA,""
"image-keyboard-response",5,56691,"0.0-2.0-3.0","nxjk0pf1noe6l6d",271,"184.csv","","7096.999999999993","resources/image_sets/mid_highlight.png","38","",NA,NA,NA,NA,""
"image-keyboard-response",6,61171,"0.0-2.0-4.0","nxjk0pf1noe6l6d",271,"184.csv","","4479","resources/image_sets/right_highlight.png","39","",NA,NA,NA,NA,""
"image-keyboard-response",7,68856,"0.0-2.0-5.0","nxjk0pf1noe6l6d",271,"184.csv","","7682","resources/image_sets/111.png","13","",NA,NA,NA,NA,""
"image-keyboard-response",8,71985,"0.0-2.0-6.0","nxjk0pf1noe6l6d",271,"184.csv","","3128","resources/images/coin2.png","13","",NA,NA,NA,NA,""
"image-keyboard-response",9,74219,"0.0-2.0-7.0","nxjk0pf1noe6l6d",271,"184.csv","","2234","resources/images/fishbone.png","13","",NA,NA,NA,NA,""
"html-keyboard-response",10,82135,"0.0-2.0-8.0","nxjk0pf1noe6l6d",271,"184.csv","","7915","<p>Your first journey will be a long one, but you will get a well deserved break at the end</p><p>After the break you will have four more journeys, but each will be much shorter than the first, and you will have breaks in between each</p><p>Press Enter to begin</p>","13","",NA,NA,NA,NA,""
"image-keyboard-response",11,83611,"0.0-3.0-0.0","nxjk0pf1noe6l6d",271,"184.csv","","1474","resources/trios/L4T4A2.jpg","39","restless",0.7,0.9,0.3,0.692117189059433,"false"
"image-keyboard-response",12,84016,"0.0-3.0-1.0","nxjk0pf1noe6l6d",271,"184.csv","","null","resources/maskTrios/BBA2.jpg","null","",NA,NA,NA,NA,""
"image-keyboard-response",13,85219,"0.0-3.0-2.0","nxjk0pf1noe6l6d",271,"184.csv","","null","resources/images/fishbone.png","null","",NA,NA,NA,NA,""
"image-keyboard-response",14,88538,"0.0-3.1-0.1","nxjk0pf1noe6l6d",271,"184.csv","","3317","resources/trios/L1T1A3.jpg","37","restless",0.7,0.9,0.3,0.636859260258468,"true"
"image-keyboard-response",15,88942,"0.0-3.1-1.1","nxjk0pf1noe6l6d",271,"184.csv","","null","resources/maskTrios/L1BB.jpg","null","",NA,NA,NA,NA,""
"image-keyboard-response",16,90145,"0.0-3.1-2.1","nxjk0pf1noe6l6d",271,"184.csv","","null","resources/images/coin2.png","null","",NA,NA,NA,NA,""
"image-keyboard-response",17,92504,"0.0-3.2-0.2","nxjk0pf1noe6l6d",271,"184.csv","","2356","resources/trios/L1T1A3.jpg","38","restless",0.7,0.9,0.2,0.878656235926928,"true"
"image-keyboard-response",18,92907,"0.0-3.2-1.2","nxjk0pf1noe6l6d",271,"184.csv","","null","resources/maskTrios/BT1B.jpg","null","",NA,NA,NA,NA,""
"image-keyboard-response",19,94110,"0.0-3.2-2.2","nxjk0pf1noe6l6d",271,"184.csv","","null","resources/images/coin2.png","null","",NA,NA,NA,NA,""
"image-keyboard-response",20,96658,"0.0-3.3-0.3","nxjk0pf1noe6l6d",271,"184.csv","","2546","resources/trios/L4T4A3.jpg","37","restless",0.6,0.9,0.2,0.410734609430504,"true"
"image-keyboard-response",21,97061,"0.0-3.3-1.3","nxjk0pf1noe6l6d",271,"184.csv","","null","resources/maskTrios/L4BB.jpg","null","",NA,NA,NA,NA,""
"image-keyboard-response",22,98264,"0.0-3.3-2.3","nxjk0pf1noe6l6d",271,"184.csv","","null","resources/images/coin2.png","null","",NA,NA,NA,NA,""
"image-keyboard-response",23,99421,"0.0-3.4-0.4","nxjk0pf1noe6l6d",271,"184.csv","","1154","resources/trios/L4T1A2.jpg","39","restless",0.6,0.8,0.3,0.855213373213985,"false"
"image-keyboard-response",24,99824,"0.0-3.4-1.4","nxjk0pf1noe6l6d",271,"184.csv","","null","resources/maskTrios/BBA2.jpg","null","",NA,NA,NA,NA,""
"image-keyboard-response",25,101027,"0.0-3.4-2.4","nxjk0pf1noe6l6d",271,"184.csv","","null","resources/images/fishbone.png","null","",NA,NA,NA,NA,""
"image-keyboard-response",26,101970,"0.0-3.5-0.5","nxjk0pf1noe6l6d",271,"184.csv","","941","resources/trios/L1T1A2.jpg","37","restless",0.5,0.8,0.3,0.104457536312456,"true"
"image-keyboard-response",27,102373,"0.0-3.5-1.5","nxjk0pf1noe6l6d",271,"184.csv","","null","resources/maskTrios/L1BB.jpg","null","",NA,NA,NA,NA,""
"image-keyboard-response",28,103576,"0.0-3.5-2.5","nxjk0pf1noe6l6d",271,"184.csv","","null","resources/images/coin2.png","null","",NA,NA,NA,NA,""
"image-keyboard-response",29,104493,"0.0-3.6-0.6","nxjk0pf1noe6l6d",271,"184.csv","","914.9999999999854","resources/trios/L4T1A2.jpg","38","restless",0.5,0.8,0.3,0.384155605507107,"true"
"image-keyboard-response",30,104896,"0.0-3.6-1.6","nxjk0pf1noe6l6d",271,"184.csv","","null","resources/maskTrios/BT1B.jpg","null","",NA,NA,NA,NA,""
"image-keyboard-response",31,106100,"0.0-3.6-2.6","nxjk0pf1noe6l6d",271,"184.csv","","null","resources/images/coin2.png","null","",NA,NA,NA,NA,""
"image-keyboard-response",32,107200,"0.0-3.7-0.7","nxjk0pf1noe6l6d",271,"184.csv","","1099.0000000000146","resources/trios/L4T4A2.jpg","38","restless",0.5,0.8,0.3,0.122225921782867,"true"
"image-keyboard-response",33,107604,"0.0-3.7-1.7","nxjk0pf1noe6l6d",271,"184.csv","","null","resources/maskTrios/BT4B.jpg","null","",NA,NA,NA,NA,""
"image-keyboard-response",34,108807,"0.0-3.7-2.7","nxjk0pf1noe6l6d",271,"184.csv","","null","resources/images/coin2.png","null","",NA,NA,NA,NA,""
"image-keyboard-response",35,109755,"0.0-3.8-0.8","nxjk0pf1noe6l6d",271,"184.csv","","947","resources/trios/L1T1A2.jpg","37","restless",0.5,0.8,0.3,0.715284639936798,"false"
"image-keyboard-response",36,110158,"0.0-3.8-1.8","nxjk0pf1noe6l6d",271,"184.csv","","null","resources/maskTrios/L1BB.jpg","null","",NA,NA,NA,NA,""
"image-keyboard-response",37,111361,"0.0-3.8-2.8","nxjk0pf1noe6l6d",271,"184.csv","","null","resources/images/fishbone.png","null","",NA,NA,NA,NA,""
"image-keyboard-response",38,113752,"0.0-3.9-0.9","nxjk0pf1noe6l6d",271,"184.csv","","2389","resources/trios/L1T1A3.jpg","39","restless",0.5,0.7,0.4,0.0901776936208391,"true"
"image-keyboard-response",39,114155,"0.0-3.9-1.9","nxjk0pf1noe6l6d",271,"184.csv","","null","resources/maskTrios/BBA3.jpg","null","",NA,NA,NA,NA,""
"image-keyboard-response",40,115358,"0.0-3.9-2.9","nxjk0pf1noe6l6d",271,"184.csv","","null","resources/images/coin2.png","null","",NA,NA,NA,NA,""
"image-keyboard-response",41,120429,"0.0-3.10-0.10","nxjk0pf1noe6l6d",271,"184.csv","","5069.000000000015","resources/trios/L1T1A3.jpg","39","restless",0.5,0.7,0.4,0.707599633504552,"false"
"image-keyboard-response",42,120831,"0.0-3.10-1.10","nxjk0pf1noe6l6d",271,"184.csv","","null","resources/maskTrios/BBA3.jpg","null","",NA,NA,NA,NA,""
"image-keyboard-response",43,122034,"0.0-3.10-2.10","nxjk0pf1noe6l6d",271,"184.csv","","null","resources/images/fishbone.png","null","",NA,NA,NA,NA,""
"image-keyboard-response",44,122942,"0.0-3.11-0.11","nxjk0pf1noe6l6d",271,"184.csv","","906","resources/trios/L4T4A2.jpg","38","restless",0.5,0.8,0.4,0.230118095052006,"true"
"image-keyboard-response",45,123345,"0.0-3.11-1.11","nxjk0pf1noe6l6d",271,"184.csv","","null","resources/maskTrios/BT4B.jpg","null","",NA,NA,NA,NA,""
"image-keyboard-response",46,124548,"0.0-3.11-2.11","nxjk0pf1noe6l6d",271,"184.csv","","null","resources/images/coin2.png","null","",NA,NA,NA,NA,""
"image-keyboard-response",47,125108,"0.0-3.12-0.12","nxjk0pf1noe6l6d",271,"184.csv","","558.0000000000146","resources/trios/L4T1A2.jpg","38","restless",0.5,0.8,0.4,0.184489361529145,"true"
"image-keyboard-response",48,125512,"0.0-3.12-1.12","nxjk0pf1noe6l6d",271,"184.csv","","null","resources/maskTrios/BT1B.jpg","null","",NA,NA,NA,NA,""
"image-keyboard-response",49,126714,"0.0-3.12-2.12","nxjk0pf1noe6l6d",271,"184.csv","","null","resources/images/coin2.png","null","",NA,NA,NA,NA,""
"image-keyboard-response",50,127250,"0.0-3.13-0.13","nxjk0pf1noe6l6d",271,"184.csv","","533.0000000000146","resources/trios/L4T1A2.jpg","38","restless",0.5,0.8,0.4,0.300770025532118,"true"
"image-keyboard-response",51,127653,"0.0-3.13-1.13","nxjk0pf1noe6l6d",271,"184.csv","","null","resources/maskTrios/BT1B.jpg","null","",NA,NA,NA,NA,""
"image-keyboard-response",52,128855,"0.0-3.13-2.13","nxjk0pf1noe6l6d",271,"184.csv","","null","resources/images/coin2.png","null","",NA,NA,NA,NA,""
"image-keyboard-response",53,129251,"0.0-3.14-0.14","nxjk0pf1noe6l6d",271,"184.csv","","394","resources/trios/L1T4A2.jpg","38","restless",0.5,0.8,0.4,0.180052391311788,"true"
"image-keyboard-response",54,129654,"0.0-3.14-1.14","nxjk0pf1noe6l6d",271,"184.csv","","null","resources/maskTrios/BT4B.jpg","null","",NA,NA,NA,NA,""
"image-keyboard-response",55,130857,"0.0-3.14-2.14","nxjk0pf1noe6l6d",271,"184.csv","","null","resources/images/coin2.png","null","",NA,NA,NA,NA,""
"image-keyboard-response",56,131212,"0.0-3.15-0.15","nxjk0pf1noe6l6d",271,"184.csv","","353","resources/trios/L4T4A2.jpg","38","restless",0.5,0.8,0.4,0.967327522647691,"false"
"image-keyboard-response",57,131615,"0.0-3.15-1.15","nxjk0pf1noe6l6d",271,"184.csv","","null","resources/maskTrios/BT4B.jpg","null","",NA,NA,NA,NA,""
"image-keyboard-response",58,132817,"0.0-3.15-2.15","nxjk0pf1noe6l6d",271,"184.csv","","null","resources/images/fishbone.png","null","",NA,NA,NA,NA,""
"image-keyboard-response",59,133160,"0.0-3.16-0.16","nxjk0pf1noe6l6d",271,"184.csv","","341","resources/trios/L1T4A2.jpg","37","restless",0.5,0.8,0.4,0.53467807637316,"false"
"image-keyboard-response",60,133564,"0.0-3.16-1.16","nxjk0pf1noe6l6d",271,"184.csv","","null","resources/maskTrios/L1BB.jpg","null","",NA,NA,NA,NA,""
"image-keyboard-response",61,134766,"0.0-3.16-2.16","nxjk0pf1noe6l6d",271,"184.csv","","null","resources/images/fishbone.png","null","",NA,NA,NA,NA,""
"image-keyboard-response",62,135158,"0.0-3.17-0.17","nxjk0pf1noe6l6d",271,"184.csv","","389","resources/trios/L4T1A3.jpg","38","restless",0.5,0.8,0.4,0.402431947944515,"true"
"image-keyboard-response",63,135561,"0.0-3.17-1.17","nxjk0pf1noe6l6d",271,"184.csv","","null","resources/maskTrios/BT1B.jpg","null","",NA,NA,NA,NA,""
"image-keyboard-response",64,136764,"0.0-3.17-2.17","nxjk0pf1noe6l6d",271,"184.csv","","null","resources/images/coin2.png","null","",NA,NA,NA,NA,""
"image-keyboard-response",65,139060,"0.0-3.18-0.18","nxjk0pf1noe6l6d",271,"184.csv","","2294","resources/trios/L4T1A3.jpg","38","restless",0.5,0.8,0.4,0.603054753145857,"true"
"image-keyboard-response",66,139463,"0.0-3.18-1.18","nxjk0pf1noe6l6d",271,"184.csv","","null","resources/maskTrios/BT1B.jpg","null","",NA,NA,NA,NA,""
"image-keyboard-response",67,140665,"0.0-3.18-2.18","nxjk0pf1noe6l6d",271,"184.csv","","null","resources/images/coin2.png","null","",NA,NA,NA,NA,""
"image-keyboard-response",68,142115,"0.0-3.19-0.19","nxjk0pf1noe6l6d",271,"184.csv","","1448","resources/trios/L4T4A3.jpg","38","restless",0.5,0.8,0.4,0.695064689467376,"true"
"image-keyboard-response",69,142518,"0.0-3.19-1.19","nxjk0pf1noe6l6d",271,"184.csv","","null","resources/maskTrios/BT4B.jpg","null","",NA,NA,NA,NA,""
"image-keyboard-response",70,143721,"0.0-3.19-2.19","nxjk0pf1noe6l6d",271,"184.csv","","null","resources/images/coin2.png","null","",NA,NA,NA,NA,""
"image-keyboard-response",71,145593,"0.0-3.20-0.20","nxjk0pf1noe6l6d",271,"184.csv","","1870","resources/trios/L1T1A3.jpg","37","restless",0.5,0.8,0.4,0.425821106285554,"true"
"image-keyboard-response",72,145996,"0.0-3.20-1.20","nxjk0pf1noe6l6d",271,"184.csv","","null","resources/maskTrios/L1BB.jpg","null","",NA,NA,NA,NA,""
"image-keyboard-response",73,147199,"0.0-3.20-2.20","nxjk0pf1noe6l6d",271,"184.csv","","null","resources/images/coin2.png","null","",NA,NA,NA,NA,""
"image-keyboard-response",74,150574,"0.0-3.21-0.21","nxjk0pf1noe6l6d",271,"184.csv","","3374","resources/trios/L1T1A3.jpg","37","restless",0.5,0.8,0.5,0.67340422872438,"false"
"image-keyboard-response",75,150977,"0.0-3.21-1.21","nxjk0pf1noe6l6d",271,"184.csv","","null","resources/maskTrios/L1BB.jpg","null","",NA,NA,NA,NA,""
"image-keyboard-response",76,152179,"0.0-3.21-2.21","nxjk0pf1noe6l6d",271,"184.csv","","null","resources/images/fishbone.png","null","",NA,NA,NA,NA,""
"image-keyboard-response",77,153191,"0.0-3.22-0.22","nxjk0pf1noe6l6d",271,"184.csv","","1010","resources/trios/L1T1A3.jpg","38","restless",0.5,0.7,0.6,0.390386522071994,"true"
"image-keyboard-response",78,153594,"0.0-3.22-1.22","nxjk0pf1noe6l6d",271,"184.csv","","null","resources/maskTrios/BT1B.jpg","null","",NA,NA,NA,NA,""
"image-keyboard-response",79,154796,"0.0-3.22-2.22","nxjk0pf1noe6l6d",271,"184.csv","","null","resources/images/coin2.png","null","",NA,NA,NA,NA,""
"image-keyboard-response",80,156624,"0.0-3.23-0.23","nxjk0pf1noe6l6d",271,"184.csv","","1826","resources/trios/L4T1A2.jpg","38","restless",0.5,0.6,0.7,0.136906421133768,"true"
"image-keyboard-response",81,157027,"0.0-3.23-1.23","nxjk0pf1noe6l6d",271,"184.csv","","null","resources/maskTrios/BT1B.jpg","null","",NA,NA,NA,NA,""
"image-keyboard-response",82,158229,"0.0-3.23-2.23","nxjk0pf1noe6l6d",271,"184.csv","","null","resources/images/coin2.png","null","",NA,NA,NA,NA,""
"image-keyboard-response",83,161013,"0.0-3.24-0.24","nxjk0pf1noe6l6d",271,"184.csv","","2783","resources/trios/L1T4A3.jpg","38","restless",0.5,0.6,0.7,0.414874007246481,"true"
"image-keyboard-response",84,161416,"0.0-3.24-1.24","nxjk0pf1noe6l6d",271,"184.csv","","null","resources/maskTrios/BT4B.jpg","null","",NA,NA,NA,NA,""
"image-keyboard-response",85,162619,"0.0-3.24-2.24","nxjk0pf1noe6l6d",271,"184.csv","","null","resources/images/coin2.png","null","",NA,NA,NA,NA,""
"image-keyboard-response",86,165045,"0.0-3.25-0.25","nxjk0pf1noe6l6d",271,"184.csv","","2425","resources/trios/L1T1A3.jpg","38","restless",0.5,0.6,0.7,0.44897844006927,"true"
"image-keyboard-response",87,165448,"0.0-3.25-1.25","nxjk0pf1noe6l6d",271,"184.csv","","null","resources/maskTrios/BT1B.jpg","null","",NA,NA,NA,NA,""
"image-keyboard-response",88,166651,"0.0-3.25-2.25","nxjk0pf1noe6l6d",271,"184.csv","","null","resources/images/coin2.png","null","",NA,NA,NA,NA,""
"image-keyboard-response",89,167403,"0.0-3.26-0.26","nxjk0pf1noe6l6d",271,"184.csv","","751","resources/trios/L1T1A2.jpg","38","restless",0.5,0.6,0.7,0.941434023572819,"false"
"image-keyboard-response",90,167806,"0.0-3.26-1.26","nxjk0pf1noe6l6d",271,"184.csv","","null","resources/maskTrios/BT1B.jpg","null","",NA,NA,NA,NA,""
"image-keyboard-response",91,169009,"0.0-3.26-2.26","nxjk0pf1noe6l6d",271,"184.csv","","null","resources/images/fishbone.png","null","",NA,NA,NA,NA,""
"image-keyboard-response",92,170869,"0.0-3.27-0.27","nxjk0pf1noe6l6d",271,"184.csv","","1858","resources/trios/L4T1A2.jpg","39","restless",0.6,0.6,0.7,0.820615690393638,"false"
"image-keyboard-response",93,171272,"0.0-3.27-1.27","nxjk0pf1noe6l6d",271,"184.csv","","null","resources/maskTrios/BBA2.jpg","null","",NA,NA,NA,NA,""
"image-keyboard-response",94,172474,"0.0-3.27-2.27","nxjk0pf1noe6l6d",271,"184.csv","","null","resources/images/fishbone.png","null","",NA,NA,NA,NA,""
"image-keyboard-response",95,172967,"0.0-3.28-0.28","nxjk0pf1noe6l6d",271,"184.csv","","491","resources/trios/L4T4A3.jpg","37","restless",0.5,0.6,0.7,0.0803103433125092,"true"
"image-keyboard-response",96,173370,"0.0-3.28-1.28","nxjk0pf1noe6l6d",271,"184.csv","","null","resources/maskTrios/L4BB.jpg","null","",NA,NA,NA,NA,""
"image-keyboard-response",97,174574,"0.0-3.28-2.28","nxjk0pf1noe6l6d",271,"184.csv","","null","resources/images/coin2.png","null","",NA,NA,NA,NA,""
"image-keyboard-response",98,175125,"0.0-3.29-0.29","nxjk0pf1noe6l6d",271,"184.csv","","548","resources/trios/L1T4A2.jpg","37","restless",0.4,0.6,0.7,0.317569366236535,"true"
"image-keyboard-response",99,175529,"0.0-3.29-1.29","nxjk0pf1noe6l6d",271,"184.csv","","null","resources/maskTrios/L1BB.jpg","null","",NA,NA,NA,NA,""
"image-keyboard-response",100,176732,"0.0-3.29-2.29","nxjk0pf1noe6l6d",271,"184.csv","","null","resources/images/coin2.png","null","",NA,NA,NA,NA,""
"image-keyboard-response",101,177195,"0.0-3.30-0.30","nxjk0pf1noe6l6d",271,"184.csv","","461","resources/trios/L1T4A2.jpg","37","restless",0.3,0.6,0.7,0.485184325416656,"false"
"image-keyboard-response",102,177598,"0.0-3.30-1.30","nxjk0pf1noe6l6d",271,"184.csv","","null","resources/maskTrios/L1BB.jpg","null","",NA,NA,NA,NA,""
"image-keyboard-response",103,178801,"0.0-3.30-2.30","nxjk0pf1noe6l6d",271,"184.csv","","null","resources/images/fishbone.png","null","",NA,NA,NA,NA,""
"image-keyboard-response",104,179106,"0.0-3.31-0.31","nxjk0pf1noe6l6d",271,"184.csv","","304","resources/trios/L1T1A2.jpg","38","restless",0.3,0.6,0.7,0.0633013844304487,"true"
"image-keyboard-response",105,179509,"0.0-3.31-1.31","nxjk0pf1noe6l6d",271,"184.csv","","null","resources/maskTrios/BT1B.jpg","null","",NA,NA,NA,NA,""
"image-keyboard-response",106,180712,"0.0-3.31-2.31","nxjk0pf1noe6l6d",271,"184.csv","","null","resources/images/coin2.png","null","",NA,NA,NA,NA,""
"image-keyboard-response",107,181346,"0.0-3.32-0.32","nxjk0pf1noe6l6d",271,"184.csv","","632","resources/trios/L4T4A3.jpg","38","restless",0.3,0.6,0.7,0.0648071924592293,"true"
"image-keyboard-response",108,181749,"0.0-3.32-1.32","nxjk0pf1noe6l6d",271,"184.csv","","null","resources/maskTrios/BT4B.jpg","null","",NA,NA,NA,NA,""
"image-keyboard-response",109,182952,"0.0-3.32-2.32","nxjk0pf1noe6l6d",271,"184.csv","","null","resources/images/coin2.png","null","",NA,NA,NA,NA,""
"image-keyboard-response",110,183675,"0.0-3.33-0.33","nxjk0pf1noe6l6d",271,"184.csv","","721","resources/trios/L4T4A2.jpg","38","restless",0.4,0.6,0.7,0.455707021186264,"true"
"image-keyboard-response",111,184079,"0.0-3.33-1.33","nxjk0pf1noe6l6d",271,"184.csv","","null","resources/maskTrios/BT4B.jpg","null","",NA,NA,NA,NA,""
"image-keyboard-response",112,185281,"0.0-3.33-2.33","nxjk0pf1noe6l6d",271,"184.csv","","null","resources/images/coin2.png","null","",NA,NA,NA,NA,""
"image-keyboard-response",113,185786,"0.0-3.34-0.34","nxjk0pf1noe6l6d",271,"184.csv","","503.0000000000291","resources/trios/L4T4A2.jpg","38","restless",0.4,0.6,0.7,0.898850100855271,"false"
"image-keyboard-response",114,186189,"0.0-3.34-1.34","nxjk0pf1noe6l6d",271,"184.csv","","null","resources/maskTrios/BT4B.jpg","null","",NA,NA,NA,NA,""
"image-keyboard-response",115,187391,"0.0-3.34-2.34","nxjk0pf1noe6l6d",271,"184.csv","","null","resources/images/fishbone.png","null","",NA,NA,NA,NA,""
"image-keyboard-response",116,187768,"0.0-3.35-0.35","nxjk0pf1noe6l6d",271,"184.csv","","375","resources/trios/L1T1A3.jpg","37","restless",0.4,0.6,0.7,0.307911850000187,"true"
"image-keyboard-response",117,188171,"0.0-3.35-1.35","nxjk0pf1noe6l6d",271,"184.csv","","null","resources/maskTrios/L1BB.jpg","null","",NA,NA,NA,NA,""
"image-keyboard-response",118,189374,"0.0-3.35-2.35","nxjk0pf1noe6l6d",271,"184.csv","","null","resources/images/coin2.png","null","",NA,NA,NA,NA,""
"image-keyboard-response",119,189863,"0.0-3.36-0.36","nxjk0pf1noe6l6d",271,"184.csv","","487","resources/trios/L4T4A3.jpg","37","restless",0.4,0.6,0.8,0.984698874657999,"false"
"image-keyboard-response",120,190268,"0.0-3.36-1.36","nxjk0pf1noe6l6d",271,"184.csv","","null","resources/maskTrios/L4BB.jpg","null","",NA,NA,NA,NA,""
"image-keyboard-response",121,191472,"0.0-3.36-2.36","nxjk0pf1noe6l6d",271,"184.csv","","null","resources/images/fishbone.png","null","",NA,NA,NA,NA,""
"image-keyboard-response",122,193283,"0.0-3.37-0.37","nxjk0pf1noe6l6d",271,"184.csv","","1808","resources/trios/L1T4A3.jpg","37","restless",0.4,0.5,0.8,0.296125846355193,"true"
"image-keyboard-response",123,193687,"0.0-3.37-1.37","nxjk0pf1noe6l6d",271,"184.csv","","null","resources/maskTrios/L1BB.jpg","null","",NA,NA,NA,NA,""
"image-keyboard-response",124,194890,"0.0-3.37-2.37","nxjk0pf1noe6l6d",271,"184.csv","","null","resources/images/coin2.png","null","",NA,NA,NA,NA,""
"image-keyboard-response",125,197044,"0.0-3.38-0.38","nxjk0pf1noe6l6d",271,"184.csv","","2153","resources/trios/L4T1A2.jpg","38","restless",0.4,0.5,0.8,0.509115320067272,"false"
"image-keyboard-response",126,197447,"0.0-3.38-1.38","nxjk0pf1noe6l6d",271,"184.csv","","null","resources/maskTrios/BT1B.jpg","null","",NA,NA,NA,NA,""
"image-keyboard-response",127,198649,"0.0-3.38-2.38","nxjk0pf1noe6l6d",271,"184.csv","","null","resources/images/fishbone.png","null","",NA,NA,NA,NA,""
"image-keyboard-response",128,199860,"0.0-3.39-0.39","nxjk0pf1noe6l6d",271,"184.csv","","1209","resources/trios/L1T1A3.jpg","39","restless",0.5,0.5,0.8,0.847155875935403,"false"
"image-keyboard-response",129,200263,"0.0-3.39-1.39","nxjk0pf1noe6l6d",271,"184.csv","","null","resources/maskTrios/BBA3.jpg","null","",NA,NA,NA,NA,""
"image-keyboard-response",130,201466,"0.0-3.39-2.39","nxjk0pf1noe6l6d",271,"184.csv","","null","resources/images/fishbone.png","null","",NA,NA,NA,NA,""
"image-keyboard-response",131,202389,"0.0-3.40-0.40","nxjk0pf1noe6l6d",271,"184.csv","","921","resources/trios/L1T1A3.jpg","38","restless",0.5,0.5,0.8,0.163174507422554,"true"
"image-keyboard-response",132,202794,"0.0-3.40-1.40","nxjk0pf1noe6l6d",271,"184.csv","","null","resources/maskTrios/BT1B.jpg","null","",NA,NA,NA,NA,""
"image-keyboard-response",133,203999,"0.0-3.40-2.40","nxjk0pf1noe6l6d",271,"184.csv","","null","resources/images/coin2.png","null","",NA,NA,NA,NA,""
"image-keyboard-response",134,204618,"0.0-3.41-0.41","nxjk0pf1noe6l6d",271,"184.csv","","618.0000000000291","resources/trios/L4T1A3.jpg","38","restless",0.5,0.5,0.8,0.673704674487003,"false"
"image-keyboard-response",135,205021,"0.0-3.41-1.41","nxjk0pf1noe6l6d",271,"184.csv","","null","resources/maskTrios/BT1B.jpg","null","",NA,NA,NA,NA,""
"image-keyboard-response",136,206224,"0.0-3.41-2.41","nxjk0pf1noe6l6d",271,"184.csv","","null","resources/images/fishbone.png","null","",NA,NA,NA,NA,""
"image-keyboard-response",137,206839,"0.0-3.42-0.42","nxjk0pf1noe6l6d",271,"184.csv","","613","resources/trios/L1T4A3.jpg","37","restless",0.5,0.5,0.8,0.810814388044255,"false"
"image-keyboard-response",138,207242,"0.0-3.42-1.42","nxjk0pf1noe6l6d",271,"184.csv","","null","resources/maskTrios/L1BB.jpg","null","",NA,NA,NA,NA,""
"image-keyboard-response",139,208444,"0.0-3.42-2.42","nxjk0pf1noe6l6d",271,"184.csv","","null","resources/images/fishbone.png","null","",NA,NA,NA,NA,""
"image-keyboard-response",140,208756,"0.0-3.43-0.43","nxjk0pf1noe6l6d",271,"184.csv","","308","resources/trios/L1T4A3.jpg","38","restless",0.5,0.5,0.8,0.459516385606956,"true"
"image-keyboard-response",141,209160,"0.0-3.43-1.43","nxjk0pf1noe6l6d",271,"184.csv","","null","resources/maskTrios/BT4B.jpg","null","",NA,NA,NA,NA,""
"image-keyboard-response",142,210364,"0.0-3.43-2.43","nxjk0pf1noe6l6d",271,"184.csv","","null","resources/images/coin2.png","null","",NA,NA,NA,NA,""
"image-keyboard-response",143,210913,"0.0-3.44-0.44","nxjk0pf1noe6l6d",271,"184.csv","","546","resources/trios/L1T1A2.jpg","38","restless",0.5,0.5,0.8,0.727080285521538,"false"
"image-keyboard-response",144,211316,"0.0-3.44-1.44","nxjk0pf1noe6l6d",271,"184.csv","","null","resources/maskTrios/BT1B.jpg","null","",NA,NA,NA,NA,""
"image-keyboard-response",145,212519,"0.0-3.44-2.44","nxjk0pf1noe6l6d",271,"184.csv","","null","resources/images/fishbone.png","null","",NA,NA,NA,NA,""
"image-keyboard-response",146,213193,"0.0-3.45-0.45","nxjk0pf1noe6l6d",271,"184.csv","","673","resources/trios/L4T1A3.jpg","39","restless",0.5,0.5,0.8,0.580106180771844,"true"
"image-keyboard-response",147,213595,"0.0-3.45-1.45","nxjk0pf1noe6l6d",271,"184.csv","","null","resources/maskTrios/BBA3.jpg","null","",NA,NA,NA,NA,""
"image-keyboard-response",148,214798,"0.0-3.45-2.45","nxjk0pf1noe6l6d",271,"184.csv","","null","resources/images/coin2.png","null","",NA,NA,NA,NA,""
"image-keyboard-response",149,215129,"0.0-3.46-0.46","nxjk0pf1noe6l6d",271,"184.csv","","328","resources/trios/L4T1A3.jpg","39","restless",0.5,0.5,0.8,0.566532608483136,"true"
"image-keyboard-response",150,215531,"0.0-3.46-1.46","nxjk0pf1noe6l6d",271,"184.csv","","null","resources/maskTrios/BBA3.jpg","null","",NA,NA,NA,NA,""
"image-keyboard-response",151,216734,"0.0-3.46-2.46","nxjk0pf1noe6l6d",271,"184.csv","","null","resources/images/coin2.png","null","",NA,NA,NA,NA,""
"image-keyboard-response",152,217398,"0.0-3.47-0.47","nxjk0pf1noe6l6d",271,"184.csv","","661","resources/trios/L4T1A2.jpg","39","restless",0.5,0.5,0.8,0.442715891427078,"true"
"image-keyboard-response",153,217801,"0.0-3.47-1.47","nxjk0pf1noe6l6d",271,"184.csv","","null","resources/maskTrios/BBA2.jpg","null","",NA,NA,NA,NA,""
"image-keyboard-response",154,219004,"0.0-3.47-2.47","nxjk0pf1noe6l6d",271,"184.csv","","null","resources/images/coin2.png","null","",NA,NA,NA,NA,""
"image-keyboard-response",155,219596,"0.0-3.48-0.48","nxjk0pf1noe6l6d",271,"184.csv","","589.0000000000291","resources/trios/L4T1A2.jpg","39","restless",0.5,0.5,0.8,0.588715373165783,"true"
"image-keyboard-response",156,219999,"0.0-3.48-1.48","nxjk0pf1noe6l6d",271,"184.csv","","null","resources/maskTrios/BBA2.jpg","null","",NA,NA,NA,NA,""
"image-keyboard-response",157,221201,"0.0-3.48-2.48","nxjk0pf1noe6l6d",271,"184.csv","","null","resources/images/coin2.png","null","",NA,NA,NA,NA,""
"image-keyboard-response",158,221684,"0.0-3.49-0.49","nxjk0pf1noe6l6d",271,"184.csv","","480","resources/trios/L1T1A3.jpg","39","restless",0.5,0.4,0.8,0.293548982788568,"true"
"image-keyboard-response",159,222087,"0.0-3.49-1.49","nxjk0pf1noe6l6d",271,"184.csv","","null","resources/maskTrios/BBA3.jpg","null","",NA,NA,NA,NA,""
"image-keyboard-response",160,223289,"0.0-3.49-2.49","nxjk0pf1noe6l6d",271,"184.csv","","null","resources/images/coin2.png","null","",NA,NA,NA,NA,""
"image-keyboard-response",161,223666,"0.0-3.50-0.50","nxjk0pf1noe6l6d",271,"184.csv","","375","resources/trios/L4T1A2.jpg","39","restless",0.5,0.4,0.8,0.0638372526411788,"true"
"image-keyboard-response",162,224069,"0.0-3.50-1.50","nxjk0pf1noe6l6d",271,"184.csv","","null","resources/maskTrios/BBA2.jpg","null","",NA,NA,NA,NA,""
"image-keyboard-response",163,225272,"0.0-3.50-2.50","nxjk0pf1noe6l6d",271,"184.csv","","null","resources/images/coin2.png","null","",NA,NA,NA,NA,""
"image-keyboard-response",164,225661,"0.0-3.51-0.51","nxjk0pf1noe6l6d",271,"184.csv","","387","resources/trios/L4T4A2.jpg","39","restless",0.5,0.4,0.8,0.028841729150732,"true"
"image-keyboard-response",165,226067,"0.0-3.51-1.51","nxjk0pf1noe6l6d",271,"184.csv","","null","resources/maskTrios/BBA2.jpg","null","",NA,NA,NA,NA,""
"image-keyboard-response",166,227270,"0.0-3.51-2.51","nxjk0pf1noe6l6d",271,"184.csv","","null","resources/images/coin2.png","null","",NA,NA,NA,NA,""
"image-keyboard-response",167,227743,"0.0-3.52-0.52","nxjk0pf1noe6l6d",271,"184.csv","","469.0000000000291","resources/trios/L4T4A2.jpg","39","restless",0.5,0.4,0.8,0.245058530171449,"true"
"image-keyboard-response",168,228146,"0.0-3.52-1.52","nxjk0pf1noe6l6d",271,"184.csv","","null","resources/maskTrios/BBA2.jpg","null","",NA,NA,NA,NA,""
"image-keyboard-response",169,229349,"0.0-3.52-2.52","nxjk0pf1noe6l6d",271,"184.csv","","null","resources/images/coin2.png","null","",NA,NA,NA,NA,""
"image-keyboard-response",170,229965,"0.0-3.53-0.53","nxjk0pf1noe6l6d",271,"184.csv","","613.9999999999709","resources/trios/L1T1A2.jpg","39","restless",0.6,0.4,0.8,0.646344855241303,"true"
"image-keyboard-response",171,230368,"0.0-3.53-1.53","nxjk0pf1noe6l6d",271,"184.csv","","null","resources/maskTrios/BBA2.jpg","null","",NA,NA,NA,NA,""
"image-keyboard-response",172,231571,"0.0-3.53-2.53","nxjk0pf1noe6l6d",271,"184.csv","","null","resources/images/coin2.png","null","",NA,NA,NA,NA,""
"image-keyboard-response",173,231984,"0.0-3.54-0.54","nxjk0pf1noe6l6d",271,"184.csv","","411","resources/trios/L4T1A3.jpg","39","restless",0.6,0.4,0.8,0.764177875151487,"true"
"image-keyboard-response",174,232388,"0.0-3.54-1.54","nxjk0pf1noe6l6d",271,"184.csv","","null","resources/maskTrios/BBA3.jpg","null","",NA,NA,NA,NA,""
"image-keyboard-response",175,233591,"0.0-3.54-2.54","nxjk0pf1noe6l6d",271,"184.csv","","null","resources/images/coin2.png","null","",NA,NA,NA,NA,""
"image-keyboard-response",176,234081,"0.0-3.55-0.55","nxjk0pf1noe6l6d",271,"184.csv","","488","resources/trios/L1T4A3.jpg","39","restless",0.6,0.4,0.8,0.143295779721777,"true"
"image-keyboard-response",177,234484,"0.0-3.55-1.55","nxjk0pf1noe6l6d",271,"184.csv","","null","resources/maskTrios/BBA3.jpg","null","",NA,NA,NA,NA,""
"image-keyboard-response",178,235688,"0.0-3.55-2.55","nxjk0pf1noe6l6d",271,"184.csv","","null","resources/images/coin2.png","null","",NA,NA,NA,NA,""
"image-keyboard-response",179,236019,"0.0-3.56-0.56","nxjk0pf1noe6l6d",271,"184.csv","","328.9999999999709","resources/trios/L1T1A3.jpg","39","restless",0.6,0.4,0.8,0.975750009145688,"false"
"image-keyboard-response",180,236422,"0.0-3.56-1.56","nxjk0pf1noe6l6d",271,"184.csv","","null","resources/maskTrios/BBA3.jpg","null","",NA,NA,NA,NA,""
"image-keyboard-response",181,237625,"0.0-3.56-2.56","nxjk0pf1noe6l6d",271,"184.csv","","null","resources/images/fishbone.png","null","",NA,NA,NA,NA,""
"image-keyboard-response",182,238178,"0.0-3.57-0.57","nxjk0pf1noe6l6d",271,"184.csv","","549.0000000000291","resources/trios/L4T1A3.jpg","38","restless",0.6,0.4,0.9,0.764775594930368,"false"
"image-keyboard-response",183,238581,"0.0-3.57-1.57","nxjk0pf1noe6l6d",271,"184.csv","","null","resources/maskTrios/BT1B.jpg","null","",NA,NA,NA,NA,""
"image-keyboard-response",184,239784,"0.0-3.57-2.57","nxjk0pf1noe6l6d",271,"184.csv","","null","resources/images/fishbone.png","null","",NA,NA,NA,NA,""
"image-keyboard-response",185,240666,"0.0-3.58-0.58","nxjk0pf1noe6l6d",271,"184.csv","","880.0000000000291","resources/trios/L1T4A3.jpg","38","restless",0.6,0.5,0.9,0.54836212053122,"false"
"image-keyboard-response",186,241069,"0.0-3.58-1.58","nxjk0pf1noe6l6d",271,"184.csv","","null","resources/maskTrios/BT4B.jpg","null","",NA,NA,NA,NA,""
"image-keyboard-response",187,242272,"0.0-3.58-2.58","nxjk0pf1noe6l6d",271,"184.csv","","null","resources/images/fishbone.png","null","",NA,NA,NA,NA,""
"image-keyboard-response",188,242923,"0.0-3.59-0.59","nxjk0pf1noe6l6d",271,"184.csv","","649","resources/trios/L1T4A2.jpg","37","restless",0.6,0.6,0.9,0.532976608861931,"true"
"image-keyboard-response",189,243326,"0.0-3.59-1.59","nxjk0pf1noe6l6d",271,"184.csv","","null","resources/maskTrios/L1BB.jpg","null","",NA,NA,NA,NA,""
"image-keyboard-response",190,244529,"0.0-3.59-2.59","nxjk0pf1noe6l6d",271,"184.csv","","null","resources/images/coin2.png","null","",NA,NA,NA,NA,""
"image-keyboard-response",191,244998,"0.0-3.60-0.60","nxjk0pf1noe6l6d",271,"184.csv","","468.0000000000291","resources/trios/L1T1A3.jpg","37","restless",0.6,0.6,0.9,0.481654135227184,"true"
"image-keyboard-response",192,245401,"0.0-3.60-1.60","nxjk0pf1noe6l6d",271,"184.csv","","null","resources/maskTrios/L1BB.jpg","null","",NA,NA,NA,NA,""
"image-keyboard-response",193,246604,"0.0-3.60-2.60","nxjk0pf1noe6l6d",271,"184.csv","","null","resources/images/coin2.png","null","",NA,NA,NA,NA,""
"image-keyboard-response",194,246981,"0.0-3.61-0.61","nxjk0pf1noe6l6d",271,"184.csv","","373.9999999999709","resources/trios/L4T4A3.jpg","37","restless",0.6,0.6,0.9,0.000200921940881393,"true"
"image-keyboard-response",195,247384,"0.0-3.61-1.61","nxjk0pf1noe6l6d",271,"184.csv","","null","resources/maskTrios/L4BB.jpg","null","",NA,NA,NA,NA,""
"image-keyboard-response",196,248587,"0.0-3.61-2.61","nxjk0pf1noe6l6d",271,"184.csv","","null","resources/images/coin2.png","null","",NA,NA,NA,NA,""
"image-keyboard-response",197,249015,"0.0-3.62-0.62","nxjk0pf1noe6l6d",271,"184.csv","","425.9999999999709","resources/trios/L1T1A3.jpg","37","restless",0.6,0.5,0.8,0.147038006132939,"true"
"image-keyboard-response",198,249418,"0.0-3.62-1.62","nxjk0pf1noe6l6d",271,"184.csv","","null","resources/maskTrios/L1BB.jpg","null","",NA,NA,NA,NA,""
"image-keyboard-response",199,250620,"0.0-3.62-2.62","nxjk0pf1noe6l6d",271,"184.csv","","null","resources/images/coin2.png","null","",NA,NA,NA,NA,""
"image-keyboard-response",200,250978,"0.0-3.63-0.63","nxjk0pf1noe6l6d",271,"184.csv","","355","resources/trios/L1T4A2.jpg","37","restless",0.6,0.5,0.9,0.396703279337427,"true"
"image-keyboard-response",201,251380,"0.0-3.63-1.63","nxjk0pf1noe6l6d",271,"184.csv","","null","resources/maskTrios/L1BB.jpg","null","",NA,NA,NA,NA,""
"image-keyboard-response",202,252583,"0.0-3.63-2.63","nxjk0pf1noe6l6d",271,"184.csv","","null","resources/images/coin2.png","null","",NA,NA,NA,NA,""
"image-keyboard-response",203,252929,"0.0-3.64-0.64","nxjk0pf1noe6l6d",271,"184.csv","","343","resources/trios/L1T1A3.jpg","37","restless",0.6,0.5,0.9,0.79423482860567,"false"
"image-keyboard-response",204,253334,"0.0-3.64-1.64","nxjk0pf1noe6l6d",271,"184.csv","","null","resources/maskTrios/L1BB.jpg","null","",NA,NA,NA,NA,""
"image-keyboard-response",205,254536,"0.0-3.64-2.64","nxjk0pf1noe6l6d",271,"184.csv","","null","resources/images/fishbone.png","null","",NA,NA,NA,NA,""
"image-keyboard-response",206,254810,"0.0-3.65-0.65","nxjk0pf1noe6l6d",271,"184.csv","","271.0000000000291","resources/trios/L4T4A2.jpg","38","restless",0.6,0.5,0.9,0.249783210435634,"true"
"image-keyboard-response",207,255213,"0.0-3.65-1.65","nxjk0pf1noe6l6d",271,"184.csv","","null","resources/maskTrios/BT4B.jpg","null","",NA,NA,NA,NA,""
"image-keyboard-response",208,256415,"0.0-3.65-2.65","nxjk0pf1noe6l6d",271,"184.csv","","null","resources/images/coin2.png","null","",NA,NA,NA,NA,""
"image-keyboard-response",209,256907,"0.0-3.66-0.66","nxjk0pf1noe6l6d",271,"184.csv","","488.9999999999709","resources/trios/L4T4A2.jpg","38","restless",0.6,0.5,0.9,0.813724046573596,"false"
"image-keyboard-response",210,257311,"0.0-3.66-1.66","nxjk0pf1noe6l6d",271,"184.csv","","null","resources/maskTrios/BT4B.jpg","null","",NA,NA,NA,NA,""
"image-keyboard-response",211,258514,"0.0-3.66-2.66","nxjk0pf1noe6l6d",271,"184.csv","","null","resources/images/fishbone.png","null","",NA,NA,NA,NA,""
"image-keyboard-response",212,258814,"0.0-3.67-0.67","nxjk0pf1noe6l6d",271,"184.csv","","297","resources/trios/L1T1A3.jpg","39","restless",0.6,0.6,0.9,0.0484822046178357,"true"
"image-keyboard-response",213,259216,"0.0-3.67-1.67","nxjk0pf1noe6l6d",271,"184.csv","","null","resources/maskTrios/BBA3.jpg","null","",NA,NA,NA,NA,""
"image-keyboard-response",214,260419,"0.0-3.67-2.67","nxjk0pf1noe6l6d",271,"184.csv","","null","resources/images/coin2.png","null","",NA,NA,NA,NA,""
"image-keyboard-response",215,260901,"0.0-3.68-0.68","nxjk0pf1noe6l6d",271,"184.csv","","479","resources/trios/L4T1A2.jpg","39","restless",0.6,0.6,0.9,0.890044786756136,"true"
"image-keyboard-response",216,261304,"0.0-3.68-1.68","nxjk0pf1noe6l6d",271,"184.csv","","null","resources/maskTrios/BBA2.jpg","null","",NA,NA,NA,NA,""
"image-keyboard-response",217,262507,"0.0-3.68-2.68","nxjk0pf1noe6l6d",271,"184.csv","","null","resources/images/coin2.png","null","",NA,NA,NA,NA,""
"image-keyboard-response",218,262908,"0.0-3.69-0.69","nxjk0pf1noe6l6d",271,"184.csv","","399","resources/trios/L4T4A3.jpg","39","restless",0.6,0.6,0.8,0.717177282209553,"true"
"image-keyboard-response",219,263311,"0.0-3.69-1.69","nxjk0pf1noe6l6d",271,"184.csv","","null","resources/maskTrios/BBA3.jpg","null","",NA,NA,NA,NA,""
"image-keyboard-response",220,264514,"0.0-3.69-2.69","nxjk0pf1noe6l6d",271,"184.csv","","null","resources/images/coin2.png","null","",NA,NA,NA,NA,""
"image-keyboard-response",221,266232,"0.0-3.70-0.70","nxjk0pf1noe6l6d",271,"184.csv","","1716","resources/trios/L4T4A3.jpg","39","restless",0.6,0.6,0.8,0.931370715628923,"false"
"image-keyboard-response",222,266636,"0.0-3.70-1.70","nxjk0pf1noe6l6d",271,"184.csv","","null","resources/maskTrios/BBA3.jpg","null","",NA,NA,NA,NA,""
"image-keyboard-response",223,267838,"0.0-3.70-2.70","nxjk0pf1noe6l6d",271,"184.csv","","null","resources/images/fishbone.png","null","",NA,NA,NA,NA,""
"image-keyboard-response",224,268337,"0.0-3.71-0.71","nxjk0pf1noe6l6d",271,"184.csv","","497","resources/trios/L1T4A2.jpg","38","restless",0.7,0.6,0.8,0.574082671456688,"true"
"image-keyboard-response",225,268740,"0.0-3.71-1.71","nxjk0pf1noe6l6d",271,"184.csv","","null","resources/maskTrios/BT4B.jpg","null","",NA,NA,NA,NA,""
"image-keyboard-response",226,269943,"0.0-3.71-2.71","nxjk0pf1noe6l6d",271,"184.csv","","null","resources/images/coin2.png","null","",NA,NA,NA,NA,""
"image-keyboard-response",227,270448,"0.0-3.72-0.72","nxjk0pf1noe6l6d",271,"184.csv","","503","resources/trios/L1T4A3.jpg","38","restless",0.7,0.6,0.8,0.0542822840508679,"true"
"image-keyboard-response",228,270851,"0.0-3.72-1.72","nxjk0pf1noe6l6d",271,"184.csv","","null","resources/maskTrios/BT4B.jpg","null","",NA,NA,NA,NA,""
"image-keyboard-response",229,272056,"0.0-3.72-2.72","nxjk0pf1noe6l6d",271,"184.csv","","null","resources/images/coin2.png","null","",NA,NA,NA,NA,""
"image-keyboard-response",230,273112,"0.0-3.73-0.73","nxjk0pf1noe6l6d",271,"184.csv","","1054","resources/trios/L4T4A3.jpg","38","restless",0.7,0.6,0.7,0.911394857163721,"false"
"image-keyboard-response",231,273517,"0.0-3.73-1.73","nxjk0pf1noe6l6d",271,"184.csv","","null","resources/maskTrios/BT4B.jpg","null","",NA,NA,NA,NA,""
"image-keyboard-response",232,274720,"0.0-3.73-2.73","nxjk0pf1noe6l6d",271,"184.csv","","null","resources/images/fishbone.png","null","",NA,NA,NA,NA,""
"image-keyboard-response",233,275016,"0.0-3.74-0.74","nxjk0pf1noe6l6d",271,"184.csv","","294","resources/trios/L4T4A3.jpg","37","restless",0.7,0.6,0.7,0.536193265958444,"true"
"image-keyboard-response",234,275420,"0.0-3.74-1.74","nxjk0pf1noe6l6d",271,"184.csv","","null","resources/maskTrios/L4BB.jpg","null","",NA,NA,NA,NA,""
"image-keyboard-response",235,276623,"0.0-3.74-2.74","nxjk0pf1noe6l6d",271,"184.csv","","null","resources/images/coin2.png","null","",NA,NA,NA,NA,""
"image-keyboard-response",236,277296,"0.0-3.75-0.75","nxjk0pf1noe6l6d",271,"184.csv","","672","resources/trios/L4T4A3.jpg","37","restless",0.7,0.6,0.7,0.431189195019265,"true"
"image-keyboard-response",237,277699,"0.0-3.75-1.75","nxjk0pf1noe6l6d",271,"184.csv","","null","resources/maskTrios/L4BB.jpg","null","",NA,NA,NA,NA,""
"image-keyboard-response",238,278902,"0.0-3.75-2.75","nxjk0pf1noe6l6d",271,"184.csv","","null","resources/images/coin2.png","null","",NA,NA,NA,NA,""
"image-keyboard-response",239,279399,"0.0-3.76-0.76","nxjk0pf1noe6l6d",271,"184.csv","","494","resources/trios/L4T1A3.jpg","37","restless",0.7,0.6,0.6,0.0301898736180094,"true"
"image-keyboard-response",240,279802,"0.0-3.76-1.76","nxjk0pf1noe6l6d",271,"184.csv","","null","resources/maskTrios/L4BB.jpg","null","",NA,NA,NA,NA,""
"image-keyboard-response",241,281005,"0.0-3.76-2.76","nxjk0pf1noe6l6d",271,"184.csv","","null","resources/images/coin2.png","null","",NA,NA,NA,NA,""
"image-keyboard-response",242,281503,"0.0-3.77-0.77","nxjk0pf1noe6l6d",271,"184.csv","","495","resources/trios/L1T4A3.jpg","37","restless",0.7,0.6,0.6,0.539406208741615,"true"
"image-keyboard-response",243,281906,"0.0-3.77-1.77","nxjk0pf1noe6l6d",271,"184.csv","","null","resources/maskTrios/L1BB.jpg","null","",NA,NA,NA,NA,""
"image-keyboard-response",244,283109,"0.0-3.77-2.77","nxjk0pf1noe6l6d",271,"184.csv","","null","resources/images/coin2.png","null","",NA,NA,NA,NA,""
"image-keyboard-response",245,283611,"0.0-3.78-0.78","nxjk0pf1noe6l6d",271,"184.csv","","498","resources/trios/L4T4A3.jpg","37","restless",0.7,0.6,0.6,0.191859412752539,"true"
"image-keyboard-response",246,284014,"0.0-3.78-1.78","nxjk0pf1noe6l6d",271,"184.csv","","null","resources/maskTrios/L4BB.jpg","null","",NA,NA,NA,NA,""
"image-keyboard-response",247,285217,"0.0-3.78-2.78","nxjk0pf1noe6l6d",271,"184.csv","","null","resources/images/coin2.png","null","",NA,NA,NA,NA,""
"image-keyboard-response",248,285529,"0.0-3.79-0.79","nxjk0pf1noe6l6d",271,"184.csv","","310","resources/trios/L1T1A3.jpg","37","restless",0.7,0.6,0.6,0.456790187746559,"true"
"image-keyboard-response",249,285932,"0.0-3.79-1.79","nxjk0pf1noe6l6d",271,"184.csv","","null","resources/maskTrios/L1BB.jpg","null","",NA,NA,NA,NA,""
"image-keyboard-response",250,287135,"0.0-3.79-2.79","nxjk0pf1noe6l6d",271,"184.csv","","null","resources/images/coin2.png","null","",NA,NA,NA,NA,""
"image-keyboard-response",251,287436,"0.0-3.80-0.80","nxjk0pf1noe6l6d",271,"184.csv","","296","resources/trios/L4T1A2.jpg","37","restless",0.7,0.6,0.6,0.272068460992622,"true"
"image-keyboard-response",252,287839,"0.0-3.80-1.80","nxjk0pf1noe6l6d",271,"184.csv","","null","resources/maskTrios/L4BB.jpg","null","",NA,NA,NA,NA,""
"image-keyboard-response",253,289041,"0.0-3.80-2.80","nxjk0pf1noe6l6d",271,"184.csv","","null","resources/images/coin2.png","null","",NA,NA,NA,NA,""
"image-keyboard-response",254,289307,"0.0-3.81-0.81","nxjk0pf1noe6l6d",271,"184.csv","","264","resources/trios/L4T4A3.jpg","37","restless",0.7,0.6,0.6,0.860082906480404,"false"
"image-keyboard-response",255,289709,"0.0-3.81-1.81","nxjk0pf1noe6l6d",271,"184.csv","","null","resources/maskTrios/L4BB.jpg","null","",NA,NA,NA,NA,""
"image-keyboard-response",256,290912,"0.0-3.81-2.81","nxjk0pf1noe6l6d",271,"184.csv","","null","resources/images/fishbone.png","null","",NA,NA,NA,NA,""
"image-keyboard-response",257,291182,"0.0-3.82-0.82","nxjk0pf1noe6l6d",271,"184.csv","","268","resources/trios/L4T4A2.jpg","39","restless",0.7,0.5,0.6,0.417454501302936,"true"
"image-keyboard-response",258,291585,"0.0-3.82-1.82","nxjk0pf1noe6l6d",271,"184.csv","","null","resources/maskTrios/BBA2.jpg","null","",NA,NA,NA,NA,""
"image-keyboard-response",259,292788,"0.0-3.82-2.82","nxjk0pf1noe6l6d",271,"184.csv","","null","resources/images/coin2.png","null","",NA,NA,NA,NA,""
"image-keyboard-response",260,293094,"0.0-3.83-0.83","nxjk0pf1noe6l6d",271,"184.csv","","303","resources/trios/L1T4A2.jpg","39","restless",0.7,0.5,0.6,0.27936855983438,"true"
"image-keyboard-response",261,293497,"0.0-3.83-1.83","nxjk0pf1noe6l6d",271,"184.csv","","null","resources/maskTrios/BBA2.jpg","null","",NA,NA,NA,NA,""
"image-keyboard-response",262,294700,"0.0-3.83-2.83","nxjk0pf1noe6l6d",271,"184.csv","","null","resources/images/coin2.png","null","",NA,NA,NA,NA,""
"image-keyboard-response",263,295011,"0.0-3.84-0.84","nxjk0pf1noe6l6d",271,"184.csv","","310","resources/trios/L1T1A2.jpg","39","restless",0.7,0.5,0.6,0.159552571362716,"true"
"image-keyboard-response",264,295414,"0.0-3.84-1.84","nxjk0pf1noe6l6d",271,"184.csv","","null","resources/maskTrios/BBA2.jpg","null","",NA,NA,NA,NA,""
"image-keyboard-response",265,296617,"0.0-3.84-2.84","nxjk0pf1noe6l6d",271,"184.csv","","null","resources/images/coin2.png","null","",NA,NA,NA,NA,""
"image-keyboard-response",266,297277,"0.0-3.85-0.85","nxjk0pf1noe6l6d",271,"184.csv","","657","resources/trios/L1T1A3.jpg","39","restless",0.7,0.5,0.6,0.856002126567923,"false"
"image-keyboard-response",267,297681,"0.0-3.85-1.85","nxjk0pf1noe6l6d",271,"184.csv","","null","resources/maskTrios/BBA3.jpg","null","",NA,NA,NA,NA,""
"image-keyboard-response",268,298884,"0.0-3.85-2.85","nxjk0pf1noe6l6d",271,"184.csv","","null","resources/images/fishbone.png","null","",NA,NA,NA,NA,""
"image-keyboard-response",269,299185,"0.0-3.86-0.86","nxjk0pf1noe6l6d",271,"184.csv","","300","resources/trios/L1T1A2.jpg","38","restless",0.7,0.5,0.6,0.273843828229565,"true"
"image-keyboard-response",270,299587,"0.0-3.86-1.86","nxjk0pf1noe6l6d",271,"184.csv","","null","resources/maskTrios/BT1B.jpg","null","",NA,NA,NA,NA,""
"image-keyboard-response",271,300790,"0.0-3.86-2.86","nxjk0pf1noe6l6d",271,"184.csv","","null","resources/images/coin2.png","null","",NA,NA,NA,NA,""
"image-keyboard-response",272,301028,"0.0-3.87-0.87","nxjk0pf1noe6l6d",271,"184.csv","","234","resources/trios/L4T4A2.jpg","38","restless",0.7,0.5,0.6,0.828301817096805,"false"
"image-keyboard-response",273,301431,"0.0-3.87-1.87","nxjk0pf1noe6l6d",271,"184.csv","","null","resources/maskTrios/BT4B.jpg","null","",NA,NA,NA,NA,""
"image-keyboard-response",274,302634,"0.0-3.87-2.87","nxjk0pf1noe6l6d",271,"184.csv","","null","resources/images/fishbone.png","null","",NA,NA,NA,NA,""
"image-keyboard-response",275,303017,"0.0-3.88-0.88","nxjk0pf1noe6l6d",271,"184.csv","","381","resources/trios/L1T4A3.jpg","37","restless",0.7,0.5,0.6,0.497349255199092,"true"
"image-keyboard-response",276,303420,"0.0-3.88-1.88","nxjk0pf1noe6l6d",271,"184.csv","","null","resources/maskTrios/L1BB.jpg","null","",NA,NA,NA,NA,""
"image-keyboard-response",277,304623,"0.0-3.88-2.88","nxjk0pf1noe6l6d",271,"184.csv","","null","resources/images/coin2.png","null","",NA,NA,NA,NA,""
"image-keyboard-response",278,305047,"0.0-3.89-0.89","nxjk0pf1noe6l6d",271,"184.csv","","422","resources/trios/L1T1A3.jpg","37","restless",0.7,0.5,0.6,0.788241599068046,"false"
"image-keyboard-response",279,305451,"0.0-3.89-1.89","nxjk0pf1noe6l6d",271,"184.csv","","null","resources/maskTrios/L1BB.jpg","null","",NA,NA,NA,NA,""
"image-keyboard-response",280,306653,"0.0-3.89-2.89","nxjk0pf1noe6l6d",271,"184.csv","","null","resources/images/fishbone.png","null","",NA,NA,NA,NA,""
"image-keyboard-response",281,306934,"0.0-3.90-0.90","nxjk0pf1noe6l6d",271,"184.csv","","277.9999999999418","resources/trios/L1T1A2.jpg","39","restless",0.7,0.6,0.6,0.92629548133331,"false"
"image-keyboard-response",282,307337,"0.0-3.90-1.90","nxjk0pf1noe6l6d",271,"184.csv","","null","resources/maskTrios/BBA2.jpg","null","",NA,NA,NA,NA,""
"image-keyboard-response",283,308539,"0.0-3.90-2.90","nxjk0pf1noe6l6d",271,"184.csv","","null","resources/images/fishbone.png","null","",NA,NA,NA,NA,""
"image-keyboard-response",284,309011,"0.0-3.91-0.91","nxjk0pf1noe6l6d",271,"184.csv","","470","resources/trios/L1T4A3.jpg","38","restless",0.7,0.6,0.6,0.116363900921257,"true"
"image-keyboard-response",285,309415,"0.0-3.91-1.91","nxjk0pf1noe6l6d",271,"184.csv","","null","resources/maskTrios/BT4B.jpg","null","",NA,NA,NA,NA,""
"image-keyboard-response",286,310618,"0.0-3.91-2.91","nxjk0pf1noe6l6d",271,"184.csv","","null","resources/images/coin2.png","null","",NA,NA,NA,NA,""
"image-keyboard-response",287,310970,"0.0-3.92-0.92","nxjk0pf1noe6l6d",271,"184.csv","","351","resources/trios/L4T4A3.jpg","38","restless",0.7,0.6,0.6,0.659260593892065,"false"
"image-keyboard-response",288,311375,"0.0-3.92-1.92","nxjk0pf1noe6l6d",271,"184.csv","","null","resources/maskTrios/BT4B.jpg","null","",NA,NA,NA,NA,""
"image-keyboard-response",289,312577,"0.0-3.92-2.92","nxjk0pf1noe6l6d",271,"184.csv","","null","resources/images/fishbone.png","null","",NA,NA,NA,NA,""
"image-keyboard-response",290,312966,"0.0-3.93-0.93","nxjk0pf1noe6l6d",271,"184.csv","","387","resources/trios/L4T1A2.jpg","37","restless",0.7,0.6,0.7,0.304657877856668,"true"
"image-keyboard-response",291,313369,"0.0-3.93-1.93","nxjk0pf1noe6l6d",271,"184.csv","","null","resources/maskTrios/L4BB.jpg","null","",NA,NA,NA,NA,""
"image-keyboard-response",292,314571,"0.0-3.93-2.93","nxjk0pf1noe6l6d",271,"184.csv","","null","resources/images/coin2.png","null","",NA,NA,NA,NA,""
"image-keyboard-response",293,314977,"0.0-3.94-0.94","nxjk0pf1noe6l6d",271,"184.csv","","405","resources/trios/L1T4A2.jpg","37","restless",0.7,0.6,0.6,0.428798655692693,"true"
"image-keyboard-response",294,315380,"0.0-3.94-1.94","nxjk0pf1noe6l6d",271,"184.csv","","null","resources/maskTrios/L1BB.jpg","null","",NA,NA,NA,NA,""
"image-keyboard-response",295,316585,"0.0-3.94-2.94","nxjk0pf1noe6l6d",271,"184.csv","","null","resources/images/coin2.png","null","",NA,NA,NA,NA,""
"image-keyboard-response",296,322509,"0.0-3.95-0.95","nxjk0pf1noe6l6d",271,"184.csv","","5921","resources/trios/L1T4A3.jpg","37","restless",0.7,0.6,0.6,0.159543103318391,"true"
"image-keyboard-response",297,322912,"0.0-3.95-1.95","nxjk0pf1noe6l6d",271,"184.csv","","null","resources/maskTrios/L1BB.jpg","null","",NA,NA,NA,NA,""
"image-keyboard-response",298,324115,"0.0-3.95-2.95","nxjk0pf1noe6l6d",271,"184.csv","","null","resources/images/coin2.png","null","",NA,NA,NA,NA,""
"image-keyboard-response",299,324660,"0.0-3.96-0.96","nxjk0pf1noe6l6d",271,"184.csv","","543","resources/trios/L4T1A2.jpg","37","restless",0.7,0.6,0.6,0.238661197436623,"true"
"image-keyboard-response",300,325063,"0.0-3.96-1.96","nxjk0pf1noe6l6d",271,"184.csv","","null","resources/maskTrios/L4BB.jpg","null","",NA,NA,NA,NA,""
"image-keyboard-response",301,326266,"0.0-3.96-2.96","nxjk0pf1noe6l6d",271,"184.csv","","null","resources/images/coin2.png","null","",NA,NA,NA,NA,""
"image-keyboard-response",302,337668,"0.0-3.97-0.97","nxjk0pf1noe6l6d",271,"184.csv","","11400","resources/trios/L1T4A2.jpg","37","restless",0.7,0.6,0.6,0.768236002005542,"false"
"image-keyboard-response",303,338071,"0.0-3.97-1.97","nxjk0pf1noe6l6d",271,"184.csv","","null","resources/maskTrios/L1BB.jpg","null","",NA,NA,NA,NA,""
"image-keyboard-response",304,339274,"0.0-3.97-2.97","nxjk0pf1noe6l6d",271,"184.csv","","null","resources/images/fishbone.png","null","",NA,NA,NA,NA,""
"image-keyboard-response",305,339683,"0.0-3.98-0.98","nxjk0pf1noe6l6d",271,"184.csv","","407","resources/trios/L1T4A2.jpg","39","restless",0.7,0.6,0.6,0.520048755698115,"true"
"image-keyboard-response",306,340086,"0.0-3.98-1.98","nxjk0pf1noe6l6d",271,"184.csv","","null","resources/maskTrios/BBA2.jpg","null","",NA,NA,NA,NA,""
"image-keyboard-response",307,341289,"0.0-3.98-2.98","nxjk0pf1noe6l6d",271,"184.csv","","null","resources/images/coin2.png","null","",NA,NA,NA,NA,""
"image-keyboard-response",308,341609,"0.0-3.99-0.99","nxjk0pf1noe6l6d",271,"184.csv","","317.9999999999418","resources/trios/L4T1A2.jpg","39","restless",0.7,0.6,0.6,0.142095594307685,"true"
"image-keyboard-response",309,342012,"0.0-3.99-1.99","nxjk0pf1noe6l6d",271,"184.csv","","null","resources/maskTrios/BBA2.jpg","null","",NA,NA,NA,NA,""
"image-keyboard-response",310,343215,"0.0-3.99-2.99","nxjk0pf1noe6l6d",271,"184.csv","","null","resources/images/coin2.png","null","",NA,NA,NA,NA,""
"image-keyboard-response",311,344112,"0.0-3.100-0.100","nxjk0pf1noe6l6d",271,"184.csv","","896.0000000000582","resources/trios/L4T4A3.jpg","39","restless",0.7,0.7,0.6,0.936923381125702,"false"
"image-keyboard-response",312,344515,"0.0-3.100-1.100","nxjk0pf1noe6l6d",271,"184.csv","","null","resources/maskTrios/BBA3.jpg","null","",NA,NA,NA,NA,""
"image-keyboard-response",313,345718,"0.0-3.100-2.100","nxjk0pf1noe6l6d",271,"184.csv","","null","resources/images/fishbone.png","null","",NA,NA,NA,NA,""
"image-keyboard-response",314,346117,"0.0-3.101-0.101","nxjk0pf1noe6l6d",271,"184.csv","","393","resources/trios/L1T1A2.jpg","38","restless",0.7,0.7,0.6,0.0144721064153526,"true"
"image-keyboard-response",315,346520,"0.0-3.101-1.101","nxjk0pf1noe6l6d",271,"184.csv","","null","resources/maskTrios/BT1B.jpg","null","",NA,NA,NA,NA,""
"image-keyboard-response",316,347724,"0.0-3.101-2.101","nxjk0pf1noe6l6d",271,"184.csv","","null","resources/images/coin2.png","null","",NA,NA,NA,NA,""
"image-keyboard-response",317,348137,"0.0-3.102-0.102","nxjk0pf1noe6l6d",271,"184.csv","","411","resources/trios/L1T1A3.jpg","38","restless",0.7,0.7,0.6,0.139715912800046,"true"
"image-keyboard-response",318,348540,"0.0-3.102-1.102","nxjk0pf1noe6l6d",271,"184.csv","","null","resources/maskTrios/BT1B.jpg","null","",NA,NA,NA,NA,""
"image-keyboard-response",319,349743,"0.0-3.102-2.102","nxjk0pf1noe6l6d",271,"184.csv","","null","resources/images/coin2.png","null","",NA,NA,NA,NA,""
"image-keyboard-response",320,352862,"0.0-3.103-0.103","nxjk0pf1noe6l6d",271,"184.csv","","3118.000000000058","resources/trios/L4T4A2.jpg","38","restless",0.7,0.8,0.5,0.484918716092613,"true"
"image-keyboard-response",321,353265,"0.0-3.103-1.103","nxjk0pf1noe6l6d",271,"184.csv","","null","resources/maskTrios/BT4B.jpg","null","",NA,NA,NA,NA,""
"image-keyboard-response",322,354468,"0.0-3.103-2.103","nxjk0pf1noe6l6d",271,"184.csv","","null","resources/images/coin2.png","null","",NA,NA,NA,NA,""
"image-keyboard-response",323,355244,"0.0-3.104-0.104","nxjk0pf1noe6l6d",271,"184.csv","","774","resources/trios/L1T4A3.jpg","38","restless",0.7,0.8,0.5,0.404404415640559,"true"
"image-keyboard-response",324,355648,"0.0-3.104-1.104","nxjk0pf1noe6l6d",271,"184.csv","","null","resources/maskTrios/BT4B.jpg","null","",NA,NA,NA,NA,""
"image-keyboard-response",325,356850,"0.0-3.104-2.104","nxjk0pf1noe6l6d",271,"184.csv","","null","resources/images/coin2.png","null","",NA,NA,NA,NA,""
"image-keyboard-response",326,357922,"0.0-3.105-0.105","nxjk0pf1noe6l6d",271,"184.csv","","1069","resources/trios/L1T1A2.jpg","38","restless",0.7,0.8,0.5,0.199800493749369,"true"
"image-keyboard-response",327,358326,"0.0-3.105-1.105","nxjk0pf1noe6l6d",271,"184.csv","","null","resources/maskTrios/BT1B.jpg","null","",NA,NA,NA,NA,""
"image-keyboard-response",328,359529,"0.0-3.105-2.105","nxjk0pf1noe6l6d",271,"184.csv","","null","resources/images/coin2.png","null","",NA,NA,NA,NA,""
"image-keyboard-response",329,360175,"0.0-3.106-0.106","nxjk0pf1noe6l6d",271,"184.csv","","645","resources/trios/L1T4A3.jpg","38","restless",0.7,0.8,0.5,0.894836499142586,"false"
"image-keyboard-response",330,360579,"0.0-3.106-1.106","nxjk0pf1noe6l6d",271,"184.csv","","null","resources/maskTrios/BT4B.jpg","null","",NA,NA,NA,NA,""
"image-keyboard-response",331,361782,"0.0-3.106-2.106","nxjk0pf1noe6l6d",271,"184.csv","","null","resources/images/fishbone.png","null","",NA,NA,NA,NA,""
"image-keyboard-response",332,362205,"0.0-3.107-0.107","nxjk0pf1noe6l6d",271,"184.csv","","421","resources/trios/L1T4A2.jpg","37","restless",0.7,0.8,0.5,0.0608974789222052,"true"
"image-keyboard-response",333,362608,"0.0-3.107-1.107","nxjk0pf1noe6l6d",271,"184.csv","","null","resources/maskTrios/L1BB.jpg","null","",NA,NA,NA,NA,""
"image-keyboard-response",334,363811,"0.0-3.107-2.107","nxjk0pf1noe6l6d",271,"184.csv","","null","resources/images/coin2.png","null","",NA,NA,NA,NA,""
"image-keyboard-response",335,364191,"0.0-3.108-0.108","nxjk0pf1noe6l6d",271,"184.csv","","379","resources/trios/L1T1A2.jpg","37","restless",0.7,0.7,0.5,0.260789656451532,"true"
"image-keyboard-response",336,364594,"0.0-3.108-1.108","nxjk0pf1noe6l6d",271,"184.csv","","null","resources/maskTrios/L1BB.jpg","null","",NA,NA,NA,NA,""
"image-keyboard-response",337,365797,"0.0-3.108-2.108","nxjk0pf1noe6l6d",271,"184.csv","","null","resources/images/coin2.png","null","",NA,NA,NA,NA,""
"image-keyboard-response",338,366274,"0.0-3.109-0.109","nxjk0pf1noe6l6d",271,"184.csv","","475","resources/trios/L4T4A3.jpg","37","restless",0.7,0.7,0.5,0.055539719851698,"true"
"image-keyboard-response",339,366677,"0.0-3.109-1.109","nxjk0pf1noe6l6d",271,"184.csv","","null","resources/maskTrios/L4BB.jpg","null","",NA,NA,NA,NA,""
"image-keyboard-response",340,367880,"0.0-3.109-2.109","nxjk0pf1noe6l6d",271,"184.csv","","null","resources/images/coin2.png","null","",NA,NA,NA,NA,""
"image-keyboard-response",341,368425,"0.0-3.110-0.110","nxjk0pf1noe6l6d",271,"184.csv","","544","resources/trios/L4T1A3.jpg","37","restless",0.7,0.7,0.5,0.653241946204551,"true"
"image-keyboard-response",342,368828,"0.0-3.110-1.110","nxjk0pf1noe6l6d",271,"184.csv","","null","resources/maskTrios/L4BB.jpg","null","",NA,NA,NA,NA,""
"image-keyboard-response",343,370031,"0.0-3.110-2.110","nxjk0pf1noe6l6d",271,"184.csv","","null","resources/images/coin2.png","null","",NA,NA,NA,NA,""
"image-keyboard-response",344,370589,"0.0-3.111-0.111","nxjk0pf1noe6l6d",271,"184.csv","","555","resources/trios/L4T4A2.jpg","37","restless",0.7,0.7,0.5,0.185788972309941,"true"
"image-keyboard-response",345,370992,"0.0-3.111-1.111","nxjk0pf1noe6l6d",271,"184.csv","","null","resources/maskTrios/L4BB.jpg","null","",NA,NA,NA,NA,""
"image-keyboard-response",346,372195,"0.0-3.111-2.111","nxjk0pf1noe6l6d",271,"184.csv","","null","resources/images/coin2.png","null","",NA,NA,NA,NA,""
"image-keyboard-response",347,372707,"0.0-3.112-0.112","nxjk0pf1noe6l6d",271,"184.csv","","511","resources/trios/L4T4A2.jpg","37","restless",0.7,0.6,0.5,0.417975621691687,"true"
"image-keyboard-response",348,373110,"0.0-3.112-1.112","nxjk0pf1noe6l6d",271,"184.csv","","null","resources/maskTrios/L4BB.jpg","null","",NA,NA,NA,NA,""
"image-keyboard-response",349,374315,"0.0-3.112-2.112","nxjk0pf1noe6l6d",271,"184.csv","","null","resources/images/coin2.png","null","",NA,NA,NA,NA,""
"image-keyboard-response",350,374748,"0.0-3.113-0.113","nxjk0pf1noe6l6d",271,"184.csv","","431","resources/trios/L1T1A2.jpg","37","restless",0.7,0.6,0.5,0.950135946027801,"false"
"image-keyboard-response",351,375152,"0.0-3.113-1.113","nxjk0pf1noe6l6d",271,"184.csv","","null","resources/maskTrios/L1BB.jpg","null","",NA,NA,NA,NA,""
"image-keyboard-response",352,376355,"0.0-3.113-2.113","nxjk0pf1noe6l6d",271,"184.csv","","null","resources/images/fishbone.png","null","",NA,NA,NA,NA,""
"image-keyboard-response",353,376780,"0.0-3.114-0.114","nxjk0pf1noe6l6d",271,"184.csv","","423","resources/trios/L4T1A3.jpg","39","restless",0.7,0.6,0.5,0.69271151283796,"false"
"image-keyboard-response",354,377184,"0.0-3.114-1.114","nxjk0pf1noe6l6d",271,"184.csv","","null","resources/maskTrios/BBA3.jpg","null","",NA,NA,NA,NA,""
"image-keyboard-response",355,378386,"0.0-3.114-2.114","nxjk0pf1noe6l6d",271,"184.csv","","null","resources/images/fishbone.png","null","",NA,NA,NA,NA,""
"image-keyboard-response",356,378725,"0.0-3.115-0.115","nxjk0pf1noe6l6d",271,"184.csv","","337.0000000000582","resources/trios/L4T4A2.jpg","38","restless",0.7,0.6,0.5,0.186477227590014,"true"
"image-keyboard-response",357,379128,"0.0-3.115-1.115","nxjk0pf1noe6l6d",271,"184.csv","","null","resources/maskTrios/BT4B.jpg","null","",NA,NA,NA,NA,""
"image-keyboard-response",358,380331,"0.0-3.115-2.115","nxjk0pf1noe6l6d",271,"184.csv","","null","resources/images/coin2.png","null","",NA,NA,NA,NA,""
"image-keyboard-response",359,380940,"0.0-3.116-0.116","nxjk0pf1noe6l6d",271,"184.csv","","607","resources/trios/L4T4A2.jpg","38","restless",0.7,0.6,0.5,0.889272935883339,"false"
"image-keyboard-response",360,381343,"0.0-3.116-1.116","nxjk0pf1noe6l6d",271,"184.csv","","null","resources/maskTrios/BT4B.jpg","null","",NA,NA,NA,NA,""
"image-keyboard-response",361,382546,"0.0-3.116-2.116","nxjk0pf1noe6l6d",271,"184.csv","","null","resources/images/fishbone.png","null","",NA,NA,NA,NA,""
"image-keyboard-response",362,383136,"0.0-3.117-0.117","nxjk0pf1noe6l6d",271,"184.csv","","589","resources/trios/L4T1A2.jpg","37","restless",0.7,0.6,0.5,0.95855757436728,"false"
"image-keyboard-response",363,383540,"0.0-3.117-1.117","nxjk0pf1noe6l6d",271,"184.csv","","null","resources/maskTrios/L4BB.jpg","null","",NA,NA,NA,NA,""
"image-keyboard-response",364,384743,"0.0-3.117-2.117","nxjk0pf1noe6l6d",271,"184.csv","","null","resources/images/fishbone.png","null","",NA,NA,NA,NA,""
"image-keyboard-response",365,385191,"0.0-3.118-0.118","nxjk0pf1noe6l6d",271,"184.csv","","447","resources/trios/L1T4A3.jpg","39","restless",0.7,0.6,0.5,0.904005491175112,"false"
"image-keyboard-response",366,385594,"0.0-3.118-1.118","nxjk0pf1noe6l6d",271,"184.csv","","null","resources/maskTrios/BBA3.jpg","null","",NA,NA,NA,NA,""
"image-keyboard-response",367,386796,"0.0-3.118-2.118","nxjk0pf1noe6l6d",271,"184.csv","","null","resources/images/fishbone.png","null","",NA,NA,NA,NA,""
"image-keyboard-response",368,388107,"0.0-3.119-0.119","nxjk0pf1noe6l6d",271,"184.csv","","1309","resources/trios/L4T1A3.jpg","38","restless",0.7,0.6,0.5,0.234913313027627,"true"
"image-keyboard-response",369,388510,"0.0-3.119-1.119","nxjk0pf1noe6l6d",271,"184.csv","","null","resources/maskTrios/BT1B.jpg","null","",NA,NA,NA,NA,""
"image-keyboard-response",370,389713,"0.0-3.119-2.119","nxjk0pf1noe6l6d",271,"184.csv","","null","resources/images/coin2.png","null","",NA,NA,NA,NA,""
"image-keyboard-response",371,390257,"0.0-3.120-0.120","nxjk0pf1noe6l6d",271,"184.csv","","542","resources/trios/L4T1A3.jpg","38","restless",0.7,0.5,0.5,0.901860107952405,"false"
"image-keyboard-response",372,390662,"0.0-3.120-1.120","nxjk0pf1noe6l6d",271,"184.csv","","null","resources/maskTrios/BT1B.jpg","null","",NA,NA,NA,NA,""
"image-keyboard-response",373,391865,"0.0-3.120-2.120","nxjk0pf1noe6l6d",271,"184.csv","","null","resources/images/fishbone.png","null","",NA,NA,NA,NA,""
"image-keyboard-response",374,392476,"0.0-3.121-0.121","nxjk0pf1noe6l6d",271,"184.csv","","609","resources/trios/L4T1A2.jpg","37","restless",0.7,0.5,0.5,0.00834087843543541,"true"
"image-keyboard-response",375,392880,"0.0-3.121-1.121","nxjk0pf1noe6l6d",271,"184.csv","","null","resources/maskTrios/L4BB.jpg","null","",NA,NA,NA,NA,""
"image-keyboard-response",376,394083,"0.0-3.121-2.121","nxjk0pf1noe6l6d",271,"184.csv","","null","resources/images/coin2.png","null","",NA,NA,NA,NA,""
"image-keyboard-response",377,395717,"0.0-3.122-0.122","nxjk0pf1noe6l6d",271,"184.csv","","1632","resources/trios/L1T1A3.jpg","37","restless",0.8,0.5,0.6,0.300152674063721,"true"
"image-keyboard-response",378,396122,"0.0-3.122-1.122","nxjk0pf1noe6l6d",271,"184.csv","","null","resources/maskTrios/L1BB.jpg","null","",NA,NA,NA,NA,""
"image-keyboard-response",379,397325,"0.0-3.122-2.122","nxjk0pf1noe6l6d",271,"184.csv","","null","resources/images/coin2.png","null","",NA,NA,NA,NA,""
"image-keyboard-response",380,398499,"0.0-3.123-0.123","nxjk0pf1noe6l6d",271,"184.csv","","1171.0000000000582","resources/trios/L1T1A2.jpg","37","restless",0.8,0.5,0.6,0.441410400820983,"true"
"image-keyboard-response",381,398902,"0.0-3.123-1.123","nxjk0pf1noe6l6d",271,"184.csv","","null","resources/maskTrios/L1BB.jpg","null","",NA,NA,NA,NA,""
"image-keyboard-response",382,400105,"0.0-3.123-2.123","nxjk0pf1noe6l6d",271,"184.csv","","null","resources/images/coin2.png","null","",NA,NA,NA,NA,""
"image-keyboard-response",383,401096,"0.0-3.124-0.124","nxjk0pf1noe6l6d",271,"184.csv","","988","resources/trios/L1T1A3.jpg","37","restless",0.8,0.5,0.6,0.799989570689978,"true"
"image-keyboard-response",384,401501,"0.0-3.124-1.124","nxjk0pf1noe6l6d",271,"184.csv","","null","resources/maskTrios/L1BB.jpg","null","",NA,NA,NA,NA,""
"image-keyboard-response",385,402704,"0.0-3.124-2.124","nxjk0pf1noe6l6d",271,"184.csv","","null","resources/images/coin2.png","null","",NA,NA,NA,NA,""
"image-keyboard-response",386,403341,"0.0-3.125-0.125","nxjk0pf1noe6l6d",271,"184.csv","","635","resources/trios/L4T4A3.jpg","37","restless",0.8,0.5,0.6,0.876963326077265,"false"
"image-keyboard-response",387,403744,"0.0-3.125-1.125","nxjk0pf1noe6l6d",271,"184.csv","","null","resources/maskTrios/L4BB.jpg","null","",NA,NA,NA,NA,""
"image-keyboard-response",388,404947,"0.0-3.125-2.125","nxjk0pf1noe6l6d",271,"184.csv","","null","resources/images/fishbone.png","null","",NA,NA,NA,NA,""
"image-keyboard-response",389,405665,"0.0-3.126-0.126","nxjk0pf1noe6l6d",271,"184.csv","","717","resources/trios/L1T4A2.jpg","39","restless",0.9,0.5,0.6,0.0285376502093853,"true"
"image-keyboard-response",390,406068,"0.0-3.126-1.126","nxjk0pf1noe6l6d",271,"184.csv","","null","resources/maskTrios/BBA2.jpg","null","",NA,NA,NA,NA,""
"image-keyboard-response",391,407271,"0.0-3.126-2.126","nxjk0pf1noe6l6d",271,"184.csv","","null","resources/images/coin2.png","null","",NA,NA,NA,NA,""
"image-keyboard-response",392,407902,"0.0-3.127-0.127","nxjk0pf1noe6l6d",271,"184.csv","","626.0000000000582","resources/trios/L4T4A3.jpg","39","restless",0.8,0.5,0.6,0.0996990422880989,"true"
"image-keyboard-response",393,408306,"0.0-3.127-1.127","nxjk0pf1noe6l6d",271,"184.csv","","null","resources/maskTrios/BBA3.jpg","null","",NA,NA,NA,NA,""
"image-keyboard-response",394,409509,"0.0-3.127-2.127","nxjk0pf1noe6l6d",271,"184.csv","","null","resources/images/coin2.png","null","",NA,NA,NA,NA,""
"image-keyboard-response",395,409969,"0.0-3.128-0.128","nxjk0pf1noe6l6d",271,"184.csv","","458","resources/trios/L4T1A3.jpg","39","restless",0.8,0.5,0.6,0.416307402865094,"true"
"image-keyboard-response",396,410372,"0.0-3.128-1.128","nxjk0pf1noe6l6d",271,"184.csv","","null","resources/maskTrios/BBA3.jpg","null","",NA,NA,NA,NA,""
"image-keyboard-response",397,411575,"0.0-3.128-2.128","nxjk0pf1noe6l6d",271,"184.csv","","null","resources/images/coin2.png","null","",NA,NA,NA,NA,""
"image-keyboard-response",398,412625,"0.0-3.129-0.129","nxjk0pf1noe6l6d",271,"184.csv","","1048","resources/trios/L1T4A3.jpg","39","restless",0.8,0.5,0.6,0.622757999149709,"false"
"image-keyboard-response",399,413028,"0.0-3.129-1.129","nxjk0pf1noe6l6d",271,"184.csv","","null","resources/maskTrios/BBA3.jpg","null","",NA,NA,NA,NA,""
"image-keyboard-response",400,414230,"0.0-3.129-2.129","nxjk0pf1noe6l6d",271,"184.csv","","null","resources/images/fishbone.png","null","",NA,NA,NA,NA,""
"image-keyboard-response",401,414577,"0.0-3.130-0.130","nxjk0pf1noe6l6d",271,"184.csv","","345","resources/trios/L1T1A2.jpg","38","restless",0.8,0.5,0.6,0.530828104233454,"false"
"image-keyboard-response",402,414980,"0.0-3.130-1.130","nxjk0pf1noe6l6d",271,"184.csv","","null","resources/maskTrios/BT1B.jpg","null","",NA,NA,NA,NA,""
"image-keyboard-response",403,416181,"0.0-3.130-2.130","nxjk0pf1noe6l6d",271,"184.csv","","null","resources/images/fishbone.png","null","",NA,NA,NA,NA,""
"image-keyboard-response",404,416499,"0.0-3.131-0.131","nxjk0pf1noe6l6d",271,"184.csv","","315","resources/trios/L4T4A2.jpg","37","restless",0.9,0.5,0.6,0.0261049897986405,"true"
"image-keyboard-response",405,416902,"0.0-3.131-1.131","nxjk0pf1noe6l6d",271,"184.csv","","null","resources/maskTrios/L4BB.jpg","null","",NA,NA,NA,NA,""
"image-keyboard-response",406,418105,"0.0-3.131-2.131","nxjk0pf1noe6l6d",271,"184.csv","","null","resources/images/coin2.png","null","",NA,NA,NA,NA,""
"image-keyboard-response",407,418509,"0.0-3.132-0.132","nxjk0pf1noe6l6d",271,"184.csv","","402","resources/trios/L1T1A2.jpg","37","restless",0.9,0.5,0.6,0.432351120701227,"true"
"image-keyboard-response",408,418912,"0.0-3.132-1.132","nxjk0pf1noe6l6d",271,"184.csv","","null","resources/maskTrios/L1BB.jpg","null","",NA,NA,NA,NA,""
"image-keyboard-response",409,420115,"0.0-3.132-2.132","nxjk0pf1noe6l6d",271,"184.csv","","null","resources/images/coin2.png","null","",NA,NA,NA,NA,""
"image-keyboard-response",410,420615,"0.0-3.133-0.133","nxjk0pf1noe6l6d",271,"184.csv","","498","resources/trios/L1T4A2.jpg","37","restless",0.9,0.5,0.6,0.753670558321315,"true"
"image-keyboard-response",411,421020,"0.0-3.133-1.133","nxjk0pf1noe6l6d",271,"184.csv","","null","resources/maskTrios/L1BB.jpg","null","",NA,NA,NA,NA,""
"image-keyboard-response",412,422223,"0.0-3.133-2.133","nxjk0pf1noe6l6d",271,"184.csv","","null","resources/images/coin2.png","null","",NA,NA,NA,NA,""
"image-keyboard-response",413,422689,"0.0-3.134-0.134","nxjk0pf1noe6l6d",271,"184.csv","","465","resources/trios/L4T1A3.jpg","37","restless",0.9,0.4,0.6,0.583427386246953,"true"
"image-keyboard-response",414,423092,"0.0-3.134-1.134","nxjk0pf1noe6l6d",271,"184.csv","","null","resources/maskTrios/L4BB.jpg","null","",NA,NA,NA,NA,""
"image-keyboard-response",415,424297,"0.0-3.134-2.134","nxjk0pf1noe6l6d",271,"184.csv","","null","resources/images/coin2.png","null","",NA,NA,NA,NA,""
"image-keyboard-response",416,424638,"0.0-3.135-0.135","nxjk0pf1noe6l6d",271,"184.csv","","336.9999999999418","resources/trios/L4T4A3.jpg","37","restless",0.9,0.4,0.6,0.668648646127152,"true"
"image-keyboard-response",417,425042,"0.0-3.135-1.135","nxjk0pf1noe6l6d",271,"184.csv","","null","resources/maskTrios/L4BB.jpg","null","",NA,NA,NA,NA,""
"image-keyboard-response",418,426245,"0.0-3.135-2.135","nxjk0pf1noe6l6d",271,"184.csv","","null","resources/images/coin2.png","null","",NA,NA,NA,NA,""
"image-keyboard-response",419,426627,"0.0-3.136-0.136","nxjk0pf1noe6l6d",271,"184.csv","","380","resources/trios/L4T4A2.jpg","37","restless",0.8,0.4,0.6,0.373133280164447,"true"
"image-keyboard-response",420,427030,"0.0-3.136-1.136","nxjk0pf1noe6l6d",271,"184.csv","","null","resources/maskTrios/L4BB.jpg","null","",NA,NA,NA,NA,""
"image-keyboard-response",421,428233,"0.0-3.136-2.136","nxjk0pf1noe6l6d",271,"184.csv","","null","resources/images/coin2.png","null","",NA,NA,NA,NA,""
"image-keyboard-response",422,428566,"0.0-3.137-0.137","nxjk0pf1noe6l6d",271,"184.csv","","329.9999999999418","resources/trios/L4T1A3.jpg","37","restless",0.7,0.4,0.5,0.644528495025543,"true"
"image-keyboard-response",423,428968,"0.0-3.137-1.137","nxjk0pf1noe6l6d",271,"184.csv","","null","resources/maskTrios/L4BB.jpg","null","",NA,NA,NA,NA,""
"image-keyboard-response",424,430171,"0.0-3.137-2.137","nxjk0pf1noe6l6d",271,"184.csv","","null","resources/images/coin2.png","null","",NA,NA,NA,NA,""
"image-keyboard-response",425,431391,"0.0-3.138-0.138","nxjk0pf1noe6l6d",271,"184.csv","","1216","resources/trios/L1T1A3.jpg","37","restless",0.7,0.4,0.5,0.191905058264543,"true"
"image-keyboard-response",426,431794,"0.0-3.138-1.138","nxjk0pf1noe6l6d",271,"184.csv","","null","resources/maskTrios/L1BB.jpg","null","",NA,NA,NA,NA,""
"image-keyboard-response",427,432997,"0.0-3.138-2.138","nxjk0pf1noe6l6d",271,"184.csv","","null","resources/images/coin2.png","null","",NA,NA,NA,NA,""
"image-keyboard-response",428,434181,"0.0-3.139-0.139","nxjk0pf1noe6l6d",271,"184.csv","","1181","resources/trios/L4T4A3.jpg","37","restless",0.7,0.4,0.4,0.272820043892806,"true"
"image-keyboard-response",429,434586,"0.0-3.139-1.139","nxjk0pf1noe6l6d",271,"184.csv","","null","resources/maskTrios/L4BB.jpg","null","",NA,NA,NA,NA,""
"image-keyboard-response",430,435789,"0.0-3.139-2.139","nxjk0pf1noe6l6d",271,"184.csv","","null","resources/images/coin2.png","null","",NA,NA,NA,NA,""
"image-keyboard-response",431,436176,"0.0-3.140-0.140","nxjk0pf1noe6l6d",271,"184.csv","","386","resources/trios/L1T4A2.jpg","37","restless",0.7,0.4,0.4,0.334724411181082,"true"
"image-keyboard-response",432,436579,"0.0-3.140-1.140","nxjk0pf1noe6l6d",271,"184.csv","","null","resources/maskTrios/L1BB.jpg","null","",NA,NA,NA,NA,""
"image-keyboard-response",433,437782,"0.0-3.140-2.140","nxjk0pf1noe6l6d",271,"184.csv","","null","resources/images/coin2.png","null","",NA,NA,NA,NA,""
"image-keyboard-response",434,438100,"0.0-3.141-0.141","nxjk0pf1noe6l6d",271,"184.csv","","315.9999999999418","resources/trios/L1T1A3.jpg","37","restless",0.7,0.4,0.4,0.891528248805917,"false"
"image-keyboard-response",435,438502,"0.0-3.141-1.141","nxjk0pf1noe6l6d",271,"184.csv","","null","resources/maskTrios/L1BB.jpg","null","",NA,NA,NA,NA,""
"image-keyboard-response",436,439705,"0.0-3.141-2.141","nxjk0pf1noe6l6d",271,"184.csv","","null","resources/images/fishbone.png","null","",NA,NA,NA,NA,""
"image-keyboard-response",437,440035,"0.0-3.142-0.142","nxjk0pf1noe6l6d",271,"184.csv","","327.9999999999418","resources/trios/L1T4A3.jpg","39","restless",0.7,0.4,0.4,0.997543900151258,"false"
"image-keyboard-response",438,440437,"0.0-3.142-1.142","nxjk0pf1noe6l6d",271,"184.csv","","null","resources/maskTrios/BBA3.jpg","null","",NA,NA,NA,NA,""
"image-keyboard-response",439,441640,"0.0-3.142-2.142","nxjk0pf1noe6l6d",271,"184.csv","","null","resources/images/fishbone.png","null","",NA,NA,NA,NA,""
"image-keyboard-response",440,441988,"0.0-3.143-0.143","nxjk0pf1noe6l6d",271,"184.csv","","346","resources/trios/L1T4A3.jpg","38","restless",0.7,0.4,0.4,0.976605791816365,"false"
"image-keyboard-response",441,442391,"0.0-3.143-1.143","nxjk0pf1noe6l6d",271,"184.csv","","null","resources/maskTrios/BT4B.jpg","null","",NA,NA,NA,NA,""
"image-keyboard-response",442,443594,"0.0-3.143-2.143","nxjk0pf1noe6l6d",271,"184.csv","","null","resources/images/fishbone.png","null","",NA,NA,NA,NA,""
"image-keyboard-response",443,443944,"0.0-3.144-0.144","nxjk0pf1noe6l6d",271,"184.csv","","347","resources/trios/L4T1A3.jpg","37","restless",0.7,0.4,0.4,0.173213739595688,"true"
"image-keyboard-response",444,444347,"0.0-3.144-1.144","nxjk0pf1noe6l6d",271,"184.csv","","null","resources/maskTrios/L4BB.jpg","null","",NA,NA,NA,NA,""
"image-keyboard-response",445,445550,"0.0-3.144-2.144","nxjk0pf1noe6l6d",271,"184.csv","","null","resources/images/coin2.png","null","",NA,NA,NA,NA,""
"image-keyboard-response",446,448129,"0.0-3.145-0.145","nxjk0pf1noe6l6d",271,"184.csv","","2577","resources/trios/L1T4A2.jpg","37","restless",0.7,0.4,0.4,0.131988540994662,"true"
"image-keyboard-response",447,448534,"0.0-3.145-1.145","nxjk0pf1noe6l6d",271,"184.csv","","null","resources/maskTrios/L1BB.jpg","null","",NA,NA,NA,NA,""
"image-keyboard-response",448,449736,"0.0-3.145-2.145","nxjk0pf1noe6l6d",271,"184.csv","","null","resources/images/coin2.png","null","",NA,NA,NA,NA,""
"image-keyboard-response",449,450154,"0.0-3.146-0.146","nxjk0pf1noe6l6d",271,"184.csv","","416","resources/trios/L4T4A2.jpg","37","restless",0.7,0.4,0.4,0.937486091702392,"false"
"image-keyboard-response",450,450557,"0.0-3.146-1.146","nxjk0pf1noe6l6d",271,"184.csv","","null","resources/maskTrios/L4BB.jpg","null","",NA,NA,NA,NA,""
"image-keyboard-response",451,451760,"0.0-3.146-2.146","nxjk0pf1noe6l6d",271,"184.csv","","null","resources/images/fishbone.png","null","",NA,NA,NA,NA,""
"image-keyboard-response",452,452102,"0.0-3.147-0.147","nxjk0pf1noe6l6d",271,"184.csv","","340","resources/trios/L1T1A3.jpg","39","restless",0.7,0.4,0.4,0.755932514792927,"false"
"image-keyboard-response",453,452505,"0.0-3.147-1.147","nxjk0pf1noe6l6d",271,"184.csv","","null","resources/maskTrios/BBA3.jpg","null","",NA,NA,NA,NA,""
"image-keyboard-response",454,453708,"0.0-3.147-2.147","nxjk0pf1noe6l6d",271,"184.csv","","null","resources/images/fishbone.png","null","",NA,NA,NA,NA,""
"image-keyboard-response",455,454758,"0.0-3.148-0.148","nxjk0pf1noe6l6d",271,"184.csv","","1046.9999999999418","resources/trios/L4T1A3.jpg","38","restless",0.6,0.4,0.4,0.49219068848119,"false"
"image-keyboard-response",456,455162,"0.0-3.148-1.148","nxjk0pf1noe6l6d",271,"184.csv","","null","resources/maskTrios/BT1B.jpg","null","",NA,NA,NA,NA,""
"image-keyboard-response",457,456365,"0.0-3.148-2.148","nxjk0pf1noe6l6d",271,"184.csv","","null","resources/images/fishbone.png","null","",NA,NA,NA,NA,""
"image-keyboard-response",458,456805,"0.0-3.149-0.149","nxjk0pf1noe6l6d",271,"184.csv","","437","resources/trios/L1T4A2.jpg","37","restless",0.6,0.3,0.4,0.675317434919527,"false"
"image-keyboard-response",459,457208,"0.0-3.149-1.149","nxjk0pf1noe6l6d",271,"184.csv","","null","resources/maskTrios/L1BB.jpg","null","",NA,NA,NA,NA,""
"image-keyboard-response",460,458410,"0.0-3.149-2.149","nxjk0pf1noe6l6d",271,"184.csv","","null","resources/images/fishbone.png","null","",NA,NA,NA,NA,""
"image-keyboard-response",461,459409,"0.0-3.150-0.150","nxjk0pf1noe6l6d",271,"184.csv","","995.9999999999418","resources/trios/L1T1A2.jpg","39","restless",0.6,0.2,0.4,0.42301448684773,"false"
"image-keyboard-response",462,459812,"0.0-3.150-1.150","nxjk0pf1noe6l6d",271,"184.csv","","null","resources/maskTrios/BBA2.jpg","null","",NA,NA,NA,NA,""
"image-keyboard-response",463,461015,"0.0-3.150-2.150","nxjk0pf1noe6l6d",271,"184.csv","","null","resources/images/fishbone.png","null","",NA,NA,NA,NA,""
"image-keyboard-response",464,461408,"0.0-3.151-0.151","nxjk0pf1noe6l6d",271,"184.csv","","391.0000000000582","resources/trios/L4T4A3.jpg","38","restless",0.6,0.2,0.4,0.616265809742711,"false"
"image-keyboard-response",465,461811,"0.0-3.151-1.151","nxjk0pf1noe6l6d",271,"184.csv","","null","resources/maskTrios/BT4B.jpg","null","",NA,NA,NA,NA,""
"image-keyboard-response",466,463014,"0.0-3.151-2.151","nxjk0pf1noe6l6d",271,"184.csv","","null","resources/images/fishbone.png","null","",NA,NA,NA,NA,""
"image-keyboard-response",467,463379,"0.0-3.152-0.152","nxjk0pf1noe6l6d",271,"184.csv","","363","resources/trios/L1T4A3.jpg","37","restless",0.6,0.2,0.5,0.0296833822719217,"true"
"image-keyboard-response",468,463782,"0.0-3.152-1.152","nxjk0pf1noe6l6d",271,"184.csv","","null","resources/maskTrios/L1BB.jpg","null","",NA,NA,NA,NA,""
"image-keyboard-response",469,464987,"0.0-3.152-2.152","nxjk0pf1noe6l6d",271,"184.csv","","null","resources/images/coin2.png","null","",NA,NA,NA,NA,""
"image-keyboard-response",470,465366,"0.0-3.153-0.153","nxjk0pf1noe6l6d",271,"184.csv","","376","resources/trios/L4T1A2.jpg","37","restless",0.6,0.2,0.5,0.187953300799369,"true"
"image-keyboard-response",471,465769,"0.0-3.153-1.153","nxjk0pf1noe6l6d",271,"184.csv","","null","resources/maskTrios/L4BB.jpg","null","",NA,NA,NA,NA,""
"image-keyboard-response",472,466972,"0.0-3.153-2.153","nxjk0pf1noe6l6d",271,"184.csv","","null","resources/images/coin2.png","null","",NA,NA,NA,NA,""
"image-keyboard-response",473,467381,"0.0-3.154-0.154","nxjk0pf1noe6l6d",271,"184.csv","","407","resources/trios/L1T1A3.jpg","37","restless",0.6,0.2,0.5,0.0439302898968685,"true"
"image-keyboard-response",474,467784,"0.0-3.154-1.154","nxjk0pf1noe6l6d",271,"184.csv","","null","resources/maskTrios/L1BB.jpg","null","",NA,NA,NA,NA,""
"image-keyboard-response",475,468987,"0.0-3.154-2.154","nxjk0pf1noe6l6d",271,"184.csv","","null","resources/images/coin2.png","null","",NA,NA,NA,NA,""
"image-keyboard-response",476,469409,"0.0-3.155-0.155","nxjk0pf1noe6l6d",271,"184.csv","","420","resources/trios/L4T1A2.jpg","37","restless",0.6,0.2,0.5,0.884724496901874,"false"
"image-keyboard-response",477,469812,"0.0-3.155-1.155","nxjk0pf1noe6l6d",271,"184.csv","","null","resources/maskTrios/L4BB.jpg","null","",NA,NA,NA,NA,""
"image-keyboard-response",478,471014,"0.0-3.155-2.155","nxjk0pf1noe6l6d",271,"184.csv","","null","resources/images/fishbone.png","null","",NA,NA,NA,NA,""
"image-keyboard-response",479,471366,"0.0-3.156-0.156","nxjk0pf1noe6l6d",271,"184.csv","","349","resources/trios/L1T1A3.jpg","39","restless",0.6,0.3,0.5,0.393374588358953,"true"
"image-keyboard-response",480,471769,"0.0-3.156-1.156","nxjk0pf1noe6l6d",271,"184.csv","","null","resources/maskTrios/BBA3.jpg","null","",NA,NA,NA,NA,""
"image-keyboard-response",481,472971,"0.0-3.156-2.156","nxjk0pf1noe6l6d",271,"184.csv","","null","resources/images/coin2.png","null","",NA,NA,NA,NA,""
"image-keyboard-response",482,474022,"0.0-3.157-0.157","nxjk0pf1noe6l6d",271,"184.csv","","1048","resources/trios/L1T1A2.jpg","39","restless",0.6,0.3,0.5,0.297953156795794,"true"
"image-keyboard-response",483,474425,"0.0-3.157-1.157","nxjk0pf1noe6l6d",271,"184.csv","","null","resources/maskTrios/BBA2.jpg","null","",NA,NA,NA,NA,""
"image-keyboard-response",484,475628,"0.0-3.157-2.157","nxjk0pf1noe6l6d",271,"184.csv","","null","resources/images/coin2.png","null","",NA,NA,NA,NA,""
"image-keyboard-response",485,475967,"0.0-3.158-0.158","nxjk0pf1noe6l6d",271,"184.csv","","337.0000000000582","resources/trios/L4T4A2.jpg","39","restless",0.6,0.3,0.5,0.846397712235701,"false"
"image-keyboard-response",486,476370,"0.0-3.158-1.158","nxjk0pf1noe6l6d",271,"184.csv","","null","resources/maskTrios/BBA2.jpg","null","",NA,NA,NA,NA,""
"image-keyboard-response",487,477573,"0.0-3.158-2.158","nxjk0pf1noe6l6d",271,"184.csv","","null","resources/images/fishbone.png","null","",NA,NA,NA,NA,""
"image-keyboard-response",488,477943,"0.0-3.159-0.159","nxjk0pf1noe6l6d",271,"184.csv","","367","resources/trios/L4T4A3.jpg","38","restless",0.6,0.3,0.5,0.609366515704707,"false"
"image-keyboard-response",489,478346,"0.0-3.159-1.159","nxjk0pf1noe6l6d",271,"184.csv","","null","resources/maskTrios/BT4B.jpg","null","",NA,NA,NA,NA,""
"image-keyboard-response",490,479548,"0.0-3.159-2.159","nxjk0pf1noe6l6d",271,"184.csv","","null","resources/images/fishbone.png","null","",NA,NA,NA,NA,""
"image-keyboard-response",491,479863,"0.0-3.160-0.160","nxjk0pf1noe6l6d",271,"184.csv","","313","resources/trios/L4T4A2.jpg","37","restless",0.6,0.3,0.5,0.752893466238007,"false"
"image-keyboard-response",492,480266,"0.0-3.160-1.160","nxjk0pf1noe6l6d",271,"184.csv","","null","resources/maskTrios/L4BB.jpg","null","",NA,NA,NA,NA,""
"image-keyboard-response",493,481469,"0.0-3.160-2.160","nxjk0pf1noe6l6d",271,"184.csv","","null","resources/images/fishbone.png","null","",NA,NA,NA,NA,""
"image-keyboard-response",494,481866,"0.0-3.161-0.161","nxjk0pf1noe6l6d",271,"184.csv","","396","resources/trios/L1T4A3.jpg","39","restless",0.6,0.3,0.5,0.646063756377162,"false"
"image-keyboard-response",495,482269,"0.0-3.161-1.161","nxjk0pf1noe6l6d",271,"184.csv","","null","resources/maskTrios/BBA3.jpg","null","",NA,NA,NA,NA,""
"image-keyboard-response",496,483472,"0.0-3.161-2.161","nxjk0pf1noe6l6d",271,"184.csv","","null","resources/images/fishbone.png","null","",NA,NA,NA,NA,""
"image-keyboard-response",497,483782,"0.0-3.162-0.162","nxjk0pf1noe6l6d",271,"184.csv","","307.0000000000582","resources/trios/L4T1A2.jpg","38","restless",0.6,0.3,0.5,0.607023736838637,"false"
"image-keyboard-response",498,484185,"0.0-3.162-1.162","nxjk0pf1noe6l6d",271,"184.csv","","null","resources/maskTrios/BT1B.jpg","null","",NA,NA,NA,NA,""
"image-keyboard-response",499,485388,"0.0-3.162-2.162","nxjk0pf1noe6l6d",271,"184.csv","","null","resources/images/fishbone.png","null","",NA,NA,NA,NA,""
"image-keyboard-response",500,485686,"0.0-3.163-0.163","nxjk0pf1noe6l6d",271,"184.csv","","296.0000000000582","resources/trios/L4T4A3.jpg","37","restless",0.6,0.3,0.5,0.110771327351236,"true"
"image-keyboard-response",501,486089,"0.0-3.163-1.163","nxjk0pf1noe6l6d",271,"184.csv","","null","resources/maskTrios/L4BB.jpg","null","",NA,NA,NA,NA,""
"image-keyboard-response",502,487292,"0.0-3.163-2.163","nxjk0pf1noe6l6d",271,"184.csv","","null","resources/images/coin2.png","null","",NA,NA,NA,NA,""
"image-keyboard-response",503,488477,"0.0-3.164-0.164","nxjk0pf1noe6l6d",271,"184.csv","","1180","resources/trios/L4T1A2.jpg","37","restless",0.6,0.3,0.5,0.133656495145294,"true"
"image-keyboard-response",504,488880,"0.0-3.164-1.164","nxjk0pf1noe6l6d",271,"184.csv","","null","resources/maskTrios/L4BB.jpg","null","",NA,NA,NA,NA,""
"image-keyboard-response",505,490084,"0.0-3.164-2.164","nxjk0pf1noe6l6d",271,"184.csv","","null","resources/images/coin2.png","null","",NA,NA,NA,NA,""
"image-keyboard-response",506,491000,"0.0-3.165-0.165","nxjk0pf1noe6l6d",271,"184.csv","","914","resources/trios/L4T1A2.jpg","37","restless",0.6,0.3,0.6,0.728417834342725,"false"
"image-keyboard-response",507,491403,"0.0-3.165-1.165","nxjk0pf1noe6l6d",271,"184.csv","","null","resources/maskTrios/L4BB.jpg","null","",NA,NA,NA,NA,""
"image-keyboard-response",508,492606,"0.0-3.165-2.165","nxjk0pf1noe6l6d",271,"184.csv","","null","resources/images/fishbone.png","null","",NA,NA,NA,NA,""
"image-keyboard-response",509,492943,"0.0-3.166-0.166","nxjk0pf1noe6l6d",271,"184.csv","","335.0000000000582","resources/trios/L4T1A3.jpg","39","restless",0.6,0.3,0.6,0.427772790926045,"true"
"image-keyboard-response",510,493346,"0.0-3.166-1.166","nxjk0pf1noe6l6d",271,"184.csv","","null","resources/maskTrios/BBA3.jpg","null","",NA,NA,NA,NA,""
"image-keyboard-response",511,494549,"0.0-3.166-2.166","nxjk0pf1noe6l6d",271,"184.csv","","null","resources/images/coin2.png","null","",NA,NA,NA,NA,""
"image-keyboard-response",512,494915,"0.0-3.167-0.167","nxjk0pf1noe6l6d",271,"184.csv","","362","resources/trios/L4T4A2.jpg","39","restless",0.6,0.3,0.6,0.892622405713107,"false"
"image-keyboard-response",513,495318,"0.0-3.167-1.167","nxjk0pf1noe6l6d",271,"184.csv","","null","resources/maskTrios/BBA2.jpg","null","",NA,NA,NA,NA,""
"image-keyboard-response",514,496520,"0.0-3.167-2.167","nxjk0pf1noe6l6d",271,"184.csv","","null","resources/images/fishbone.png","null","",NA,NA,NA,NA,""
"image-keyboard-response",515,497111,"0.0-3.168-0.168","nxjk0pf1noe6l6d",271,"184.csv","","589","resources/trios/L1T4A3.jpg","38","restless",0.6,0.3,0.6,0.0765446427526395,"true"
"image-keyboard-response",516,497514,"0.0-3.168-1.168","nxjk0pf1noe6l6d",271,"184.csv","","null","resources/maskTrios/BT4B.jpg","null","",NA,NA,NA,NA,""
"image-keyboard-response",517,498717,"0.0-3.168-2.168","nxjk0pf1noe6l6d",271,"184.csv","","null","resources/images/coin2.png","null","",NA,NA,NA,NA,""
"image-keyboard-response",518,499354,"0.0-3.169-0.169","nxjk0pf1noe6l6d",271,"184.csv","","635.0000000000582","resources/trios/L4T1A2.jpg","38","restless",0.6,0.3,0.6,0.800273570720424,"false"
"image-keyboard-response",519,499757,"0.0-3.169-1.169","nxjk0pf1noe6l6d",271,"184.csv","","null","resources/maskTrios/BT1B.jpg","null","",NA,NA,NA,NA,""
"image-keyboard-response",520,500959,"0.0-3.169-2.169","nxjk0pf1noe6l6d",271,"184.csv","","null","resources/images/fishbone.png","null","",NA,NA,NA,NA,""
"image-keyboard-response",521,501686,"0.0-3.170-0.170","nxjk0pf1noe6l6d",271,"184.csv","","722.0000000000582","resources/trios/L4T4A3.jpg","37","restless",0.6,0.3,0.6,0.339240018810788,"true"
"image-keyboard-response",522,502089,"0.0-3.170-1.170","nxjk0pf1noe6l6d",271,"184.csv","","null","resources/maskTrios/L4BB.jpg","null","",NA,NA,NA,NA,""
"image-keyboard-response",523,503292,"0.0-3.170-2.170","nxjk0pf1noe6l6d",271,"184.csv","","null","resources/images/coin2.png","null","",NA,NA,NA,NA,""
"image-keyboard-response",524,503834,"0.0-3.171-0.171","nxjk0pf1noe6l6d",271,"184.csv","","539.9999999999418","resources/trios/L1T4A3.jpg","37","restless",0.7,0.3,0.6,0.167648569237358,"true"
"image-keyboard-response",525,504237,"0.0-3.171-1.171","nxjk0pf1noe6l6d",271,"184.csv","","null","resources/maskTrios/L1BB.jpg","null","",NA,NA,NA,NA,""
"image-keyboard-response",526,505439,"0.0-3.171-2.171","nxjk0pf1noe6l6d",271,"184.csv","","null","resources/images/coin2.png","null","",NA,NA,NA,NA,""
"image-keyboard-response",527,506262,"0.0-3.172-0.172","nxjk0pf1noe6l6d",271,"184.csv","","821.0000000000582","resources/trios/L1T1A2.jpg","37","restless",0.7,0.3,0.6,0.201601348783372,"true"
"image-keyboard-response",528,506665,"0.0-3.172-1.172","nxjk0pf1noe6l6d",271,"184.csv","","null","resources/maskTrios/L1BB.jpg","null","",NA,NA,NA,NA,""
"image-keyboard-response",529,507868,"0.0-3.172-2.172","nxjk0pf1noe6l6d",271,"184.csv","","null","resources/images/coin2.png","null","",NA,NA,NA,NA,""
"image-keyboard-response",530,508352,"0.0-3.173-0.173","nxjk0pf1noe6l6d",271,"184.csv","","480.9999999999418","resources/trios/L4T4A2.jpg","37","restless",0.7,0.3,0.6,0.730168682749903,"false"
"image-keyboard-response",531,508755,"0.0-3.173-1.173","nxjk0pf1noe6l6d",271,"184.csv","","null","resources/maskTrios/L4BB.jpg","null","",NA,NA,NA,NA,""
"image-keyboard-response",532,509957,"0.0-3.173-2.173","nxjk0pf1noe6l6d",271,"184.csv","","null","resources/images/fishbone.png","null","",NA,NA,NA,NA,""
"image-keyboard-response",533,510484,"0.0-3.174-0.174","nxjk0pf1noe6l6d",271,"184.csv","","524.9999999999418","resources/trios/L1T1A3.jpg","39","restless",0.7,0.3,0.6,0.719386898453338,"false"
"image-keyboard-response",534,510886,"0.0-3.174-1.174","nxjk0pf1noe6l6d",271,"184.csv","","null","resources/maskTrios/BBA3.jpg","null","",NA,NA,NA,NA,""
"image-keyboard-response",535,512089,"0.0-3.174-2.174","nxjk0pf1noe6l6d",271,"184.csv","","null","resources/images/fishbone.png","null","",NA,NA,NA,NA,""
"image-keyboard-response",536,513004,"0.0-3.175-0.175","nxjk0pf1noe6l6d",271,"184.csv","","912","resources/trios/L4T4A2.jpg","39","restless",0.7,0.3,0.6,0.264203254180976,"true"
"image-keyboard-response",537,513409,"0.0-3.175-1.175","nxjk0pf1noe6l6d",271,"184.csv","","null","resources/maskTrios/BBA2.jpg","null","",NA,NA,NA,NA,""
"image-keyboard-response",538,514612,"0.0-3.175-2.175","nxjk0pf1noe6l6d",271,"184.csv","","null","resources/images/coin2.png","null","",NA,NA,NA,NA,""
"image-keyboard-response",539,515613,"0.0-3.176-0.176","nxjk0pf1noe6l6d",271,"184.csv","","997.0000000000582","resources/trios/L1T1A3.jpg","39","restless",0.7,0.3,0.6,0.529156321333764,"true"
"image-keyboard-response",540,516016,"0.0-3.176-1.176","nxjk0pf1noe6l6d",271,"184.csv","","null","resources/maskTrios/BBA3.jpg","null","",NA,NA,NA,NA,""
"image-keyboard-response",541,517219,"0.0-3.176-2.176","nxjk0pf1noe6l6d",271,"184.csv","","null","resources/images/coin2.png","null","",NA,NA,NA,NA,""
"image-keyboard-response",542,518374,"0.0-3.177-0.177","nxjk0pf1noe6l6d",271,"184.csv","","1153","resources/trios/L4T4A2.jpg","39","restless",0.7,0.3,0.6,0.0624589758806103,"true"
"image-keyboard-response",543,518777,"0.0-3.177-1.177","nxjk0pf1noe6l6d",271,"184.csv","","null","resources/maskTrios/BBA2.jpg","null","",NA,NA,NA,NA,""
"image-keyboard-response",544,519980,"0.0-3.177-2.177","nxjk0pf1noe6l6d",271,"184.csv","","null","resources/images/coin2.png","null","",NA,NA,NA,NA,""
"image-keyboard-response",545,522335,"0.0-3.178-0.178","nxjk0pf1noe6l6d",271,"184.csv","","2354.000000000058","resources/trios/L4T4A2.jpg","39","restless",0.7,0.3,0.6,0.591970197462157,"true"
"image-keyboard-response",546,522738,"0.0-3.178-1.178","nxjk0pf1noe6l6d",271,"184.csv","","null","resources/maskTrios/BBA2.jpg","null","",NA,NA,NA,NA,""
"image-keyboard-response",547,523941,"0.0-3.178-2.178","nxjk0pf1noe6l6d",271,"184.csv","","null","resources/images/coin2.png","null","",NA,NA,NA,NA,""
"image-keyboard-response",548,524683,"0.0-3.179-0.179","nxjk0pf1noe6l6d",271,"184.csv","","738","resources/trios/L1T1A3.jpg","39","restless",0.7,0.3,0.6,0.347339994769427,"true"
"image-keyboard-response",549,525087,"0.0-3.179-1.179","nxjk0pf1noe6l6d",271,"184.csv","","null","resources/maskTrios/BBA3.jpg","null","",NA,NA,NA,NA,""
"image-keyboard-response",550,526290,"0.0-3.179-2.179","nxjk0pf1noe6l6d",271,"184.csv","","null","resources/images/coin2.png","null","",NA,NA,NA,NA,""
"image-keyboard-response",551,526686,"0.0-3.180-0.180","nxjk0pf1noe6l6d",271,"184.csv","","394","resources/trios/L4T4A3.jpg","39","restless",0.7,0.4,0.6,0.416857917925327,"true"
"image-keyboard-response",552,527089,"0.0-3.180-1.180","nxjk0pf1noe6l6d",271,"184.csv","","null","resources/maskTrios/BBA3.jpg","null","",NA,NA,NA,NA,""
"image-keyboard-response",553,528292,"0.0-3.180-2.180","nxjk0pf1noe6l6d",271,"184.csv","","null","resources/images/coin2.png","null","",NA,NA,NA,NA,""
"image-keyboard-response",554,529243,"0.0-3.181-0.181","nxjk0pf1noe6l6d",271,"184.csv","","948","resources/trios/L1T4A3.jpg","39","restless",0.7,0.4,0.5,0.0219450166028853,"true"
"image-keyboard-response",555,529646,"0.0-3.181-1.181","nxjk0pf1noe6l6d",271,"184.csv","","null","resources/maskTrios/BBA3.jpg","null","",NA,NA,NA,NA,""
"image-keyboard-response",556,530849,"0.0-3.181-2.181","nxjk0pf1noe6l6d",271,"184.csv","","null","resources/images/coin2.png","null","",NA,NA,NA,NA,""
"image-keyboard-response",557,532612,"0.0-3.182-0.182","nxjk0pf1noe6l6d",271,"184.csv","","1761","resources/trios/L1T4A2.jpg","39","restless",0.7,0.4,0.5,0.882533437138823,"false"
"image-keyboard-response",558,533015,"0.0-3.182-1.182","nxjk0pf1noe6l6d",271,"184.csv","","null","resources/maskTrios/BBA2.jpg","null","",NA,NA,NA,NA,""
"image-keyboard-response",559,534217,"0.0-3.182-2.182","nxjk0pf1noe6l6d",271,"184.csv","","null","resources/images/fishbone.png","null","",NA,NA,NA,NA,""
"image-keyboard-response",560,534541,"0.0-3.183-0.183","nxjk0pf1noe6l6d",271,"184.csv","","321","resources/trios/L4T4A3.jpg","38","restless",0.7,0.4,0.5,0.571637796493239,"false"
"image-keyboard-response",561,534944,"0.0-3.183-1.183","nxjk0pf1noe6l6d",271,"184.csv","","null","resources/maskTrios/BT4B.jpg","null","",NA,NA,NA,NA,""
"image-keyboard-response",562,536147,"0.0-3.183-2.183","nxjk0pf1noe6l6d",271,"184.csv","","null","resources/images/fishbone.png","null","",NA,NA,NA,NA,""
"image-keyboard-response",563,536912,"0.0-3.184-0.184","nxjk0pf1noe6l6d",271,"184.csv","","763","resources/trios/L1T4A2.jpg","37","restless",0.8,0.4,0.4,0.858332455915821,"false"
"image-keyboard-response",564,537315,"0.0-3.184-1.184","nxjk0pf1noe6l6d",271,"184.csv","","null","resources/maskTrios/L1BB.jpg","null","",NA,NA,NA,NA,""
"image-keyboard-response",565,538518,"0.0-3.184-2.184","nxjk0pf1noe6l6d",271,"184.csv","","null","resources/images/fishbone.png","null","",NA,NA,NA,NA,""
"image-keyboard-response",566,538846,"0.0-3.185-0.185","nxjk0pf1noe6l6d",271,"184.csv","","325","resources/trios/L4T4A2.jpg","39","restless",0.8,0.4,0.4,0.0731017728200607,"true"
"image-keyboard-response",567,539249,"0.0-3.185-1.185","nxjk0pf1noe6l6d",271,"184.csv","","null","resources/maskTrios/BBA2.jpg","null","",NA,NA,NA,NA,""
"image-keyboard-response",568,540451,"0.0-3.185-2.185","nxjk0pf1noe6l6d",271,"184.csv","","null","resources/images/coin2.png","null","",NA,NA,NA,NA,""
"image-keyboard-response",569,540865,"0.0-3.186-0.186","nxjk0pf1noe6l6d",271,"184.csv","","410","resources/trios/L1T4A3.jpg","39","restless",0.8,0.4,0.4,0.161474130946737,"true"
"image-keyboard-response",570,541269,"0.0-3.186-1.186","nxjk0pf1noe6l6d",271,"184.csv","","null","resources/maskTrios/BBA3.jpg","null","",NA,NA,NA,NA,""
"image-keyboard-response",571,542472,"0.0-3.186-2.186","nxjk0pf1noe6l6d",271,"184.csv","","null","resources/images/coin2.png","null","",NA,NA,NA,NA,""
"image-keyboard-response",572,542799,"0.0-3.187-0.187","nxjk0pf1noe6l6d",271,"184.csv","","325.0000000001164","resources/trios/L1T4A2.jpg","39","restless",0.8,0.4,0.4,0.604336481621067,"false"
"image-keyboard-response",573,543202,"0.0-3.187-1.187","nxjk0pf1noe6l6d",271,"184.csv","","null","resources/maskTrios/BBA2.jpg","null","",NA,NA,NA,NA,""
"image-keyboard-response",574,544405,"0.0-3.187-2.187","nxjk0pf1noe6l6d",271,"184.csv","","null","resources/images/fishbone.png","null","",NA,NA,NA,NA,""
"image-keyboard-response",575,544732,"0.0-3.188-0.188","nxjk0pf1noe6l6d",271,"184.csv","","324","resources/trios/L4T1A3.jpg","38","restless",0.8,0.4,0.4,0.0748158235837518,"true"
"image-keyboard-response",576,545135,"0.0-3.188-1.188","nxjk0pf1noe6l6d",271,"184.csv","","null","resources/maskTrios/BT1B.jpg","null","",NA,NA,NA,NA,""
"image-keyboard-response",577,546338,"0.0-3.188-2.188","nxjk0pf1noe6l6d",271,"184.csv","","null","resources/images/coin2.png","null","",NA,NA,NA,NA,""
"image-keyboard-response",578,546576,"0.0-3.189-0.189","nxjk0pf1noe6l6d",271,"184.csv","","235","resources/trios/L1T1A2.jpg","38","restless",0.8,0.4,0.4,0.79174290695359,"false"
"image-keyboard-response",579,546979,"0.0-3.189-1.189","nxjk0pf1noe6l6d",271,"184.csv","","null","resources/maskTrios/BT1B.jpg","null","",NA,NA,NA,NA,""
"image-keyboard-response",580,548181,"0.0-3.189-2.189","nxjk0pf1noe6l6d",271,"184.csv","","null","resources/images/fishbone.png","null","",NA,NA,NA,NA,""
"image-keyboard-response",581,548498,"0.0-3.190-0.190","nxjk0pf1noe6l6d",271,"184.csv","","314","resources/trios/L4T1A2.jpg","37","restless",0.8,0.4,0.4,0.916034379229298,"false"
"image-keyboard-response",582,548900,"0.0-3.190-1.190","nxjk0pf1noe6l6d",271,"184.csv","","null","resources/maskTrios/L4BB.jpg","null","",NA,NA,NA,NA,""
"image-keyboard-response",583,550104,"0.0-3.190-2.190","nxjk0pf1noe6l6d",271,"184.csv","","null","resources/images/fishbone.png","null","",NA,NA,NA,NA,""
"image-keyboard-response",584,550429,"0.0-3.191-0.191","nxjk0pf1noe6l6d",271,"184.csv","","323","resources/trios/L4T4A3.jpg","39","restless",0.7,0.4,0.4,0.37545233989831,"true"
"image-keyboard-response",585,550832,"0.0-3.191-1.191","nxjk0pf1noe6l6d",271,"184.csv","","null","resources/maskTrios/BBA3.jpg","null","",NA,NA,NA,NA,""
"image-keyboard-response",586,552035,"0.0-3.191-2.191","nxjk0pf1noe6l6d",271,"184.csv","","null","resources/images/coin2.png","null","",NA,NA,NA,NA,""
"image-keyboard-response",587,553520,"0.0-3.192-0.192","nxjk0pf1noe6l6d",271,"184.csv","","1482.0000000001164","resources/trios/L4T1A3.jpg","39","restless",0.7,0.4,0.4,0.349950272466139,"true"
"image-keyboard-response",588,553922,"0.0-3.192-1.192","nxjk0pf1noe6l6d",271,"184.csv","","null","resources/maskTrios/BBA3.jpg","null","",NA,NA,NA,NA,""
"image-keyboard-response",589,555125,"0.0-3.192-2.192","nxjk0pf1noe6l6d",271,"184.csv","","null","resources/images/coin2.png","null","",NA,NA,NA,NA,""
"image-keyboard-response",590,555592,"0.0-3.193-0.193","nxjk0pf1noe6l6d",271,"184.csv","","465","resources/trios/L1T4A3.jpg","39","restless",0.7,0.4,0.4,0.0923679230090135,"true"
"image-keyboard-response",591,555995,"0.0-3.193-1.193","nxjk0pf1noe6l6d",271,"184.csv","","null","resources/maskTrios/BBA3.jpg","null","",NA,NA,NA,NA,""
"image-keyboard-response",592,557198,"0.0-3.193-2.193","nxjk0pf1noe6l6d",271,"184.csv","","null","resources/images/coin2.png","null","",NA,NA,NA,NA,""
"image-keyboard-response",593,557950,"0.0-3.194-0.194","nxjk0pf1noe6l6d",271,"184.csv","","750","resources/trios/L4T4A2.jpg","39","restless",0.7,0.4,0.4,0.860659907094676,"false"
"image-keyboard-response",594,558353,"0.0-3.194-1.194","nxjk0pf1noe6l6d",271,"184.csv","","null","resources/maskTrios/BBA2.jpg","null","",NA,NA,NA,NA,""
"image-keyboard-response",595,559556,"0.0-3.194-2.194","nxjk0pf1noe6l6d",271,"184.csv","","null","resources/images/fishbone.png","null","",NA,NA,NA,NA,""
"image-keyboard-response",596,559993,"0.0-3.195-0.195","nxjk0pf1noe6l6d",271,"184.csv","","434","resources/trios/L4T4A3.jpg","38","restless",0.7,0.4,0.4,0.270522456958825,"true"
"image-keyboard-response",597,560396,"0.0-3.195-1.195","nxjk0pf1noe6l6d",271,"184.csv","","null","resources/maskTrios/BT4B.jpg","null","",NA,NA,NA,NA,""
"image-keyboard-response",598,561599,"0.0-3.195-2.195","nxjk0pf1noe6l6d",271,"184.csv","","null","resources/images/coin2.png","null","",NA,NA,NA,NA,""
"image-keyboard-response",599,562075,"0.0-3.196-0.196","nxjk0pf1noe6l6d",271,"184.csv","","473.9999999998836","resources/trios/L1T1A2.jpg","38","restless",0.7,0.4,0.4,0.182636447134583,"true"
"image-keyboard-response",600,562478,"0.0-3.196-1.196","nxjk0pf1noe6l6d",271,"184.csv","","null","resources/maskTrios/BT1B.jpg","null","",NA,NA,NA,NA,""
"image-keyboard-response",601,563682,"0.0-3.196-2.196","nxjk0pf1noe6l6d",271,"184.csv","","null","resources/images/coin2.png","null","",NA,NA,NA,NA,""
"image-keyboard-response",602,564024,"0.0-3.197-0.197","nxjk0pf1noe6l6d",271,"184.csv","","340.0000000001164","resources/trios/L4T4A2.jpg","38","restless",0.7,0.4,0.4,0.422145926039594,"false"
"image-keyboard-response",603,564428,"0.0-3.197-1.197","nxjk0pf1noe6l6d",271,"184.csv","","null","resources/maskTrios/BT4B.jpg","null","",NA,NA,NA,NA,""
"image-keyboard-response",604,565631,"0.0-3.197-2.197","nxjk0pf1noe6l6d",271,"184.csv","","null","resources/images/fishbone.png","null","",NA,NA,NA,NA,""
"image-keyboard-response",605,565928,"0.0-3.198-0.198","nxjk0pf1noe6l6d",271,"184.csv","","295.0000000001164","resources/trios/L1T1A3.jpg","37","restless",0.7,0.4,0.4,0.725748934755787,"false"
"image-keyboard-response",606,566331,"0.0-3.198-1.198","nxjk0pf1noe6l6d",271,"184.csv","","null","resources/maskTrios/L1BB.jpg","null","",NA,NA,NA,NA,""
"image-keyboard-response",607,567534,"0.0-3.198-2.198","nxjk0pf1noe6l6d",271,"184.csv","","null","resources/images/fishbone.png","null","",NA,NA,NA,NA,""
"image-keyboard-response",608,568124,"0.0-3.199-0.199","nxjk0pf1noe6l6d",271,"184.csv","","588","resources/trios/L1T1A3.jpg","39","restless",0.7,0.3,0.4,0.324822543456413,"true"
"image-keyboard-response",609,568527,"0.0-3.199-1.199","nxjk0pf1noe6l6d",271,"184.csv","","null","resources/maskTrios/BBA3.jpg","null","",NA,NA,NA,NA,""
"image-keyboard-response",610,569730,"0.0-3.199-2.199","nxjk0pf1noe6l6d",271,"184.csv","","null","resources/images/coin2.png","null","",NA,NA,NA,NA,""
"image-keyboard-response",611,570141,"0.0-3.200-0.200","nxjk0pf1noe6l6d",271,"184.csv","","408","resources/trios/L4T4A3.jpg","39","restless",0.7,0.3,0.4,0.213283100294943,"true"
"image-keyboard-response",612,570544,"0.0-3.200-1.200","nxjk0pf1noe6l6d",271,"184.csv","","null","resources/maskTrios/BBA3.jpg","null","",NA,NA,NA,NA,""
"image-keyboard-response",613,571748,"0.0-3.200-2.200","nxjk0pf1noe6l6d",271,"184.csv","","null","resources/images/coin2.png","null","",NA,NA,NA,NA,""
"image-keyboard-response",614,572051,"0.0-3.201-0.201","nxjk0pf1noe6l6d",271,"184.csv","","300.9999999998836","resources/trios/L1T1A2.jpg","39","restless",0.7,0.3,0.4,0.603056622951483,"false"
"image-keyboard-response",615,572454,"0.0-3.201-1.201","nxjk0pf1noe6l6d",271,"184.csv","","null","resources/maskTrios/BBA2.jpg","null","",NA,NA,NA,NA,""
"image-keyboard-response",616,573659,"0.0-3.201-2.201","nxjk0pf1noe6l6d",271,"184.csv","","null","resources/images/fishbone.png","null","",NA,NA,NA,NA,""
