"trial_type","trial_index","time_elapsed","internal_node_id","subject","participantCode","walkNumber","success","rt","stimulus","key_press","test_part","leftProb","midProb","rightProb","generatedNum","correct"
"pavlovia",0,1214,"0.0-0.0","ahepvvdn2o6bszm",701,"145.csv","","","","","",NA,NA,NA,NA,""
"fullscreen",1,46962,"0.0-1.0","ahepvvdn2o6bszm",701,"145.csv","true","","","","",NA,NA,NA,NA,""
"html-keyboard-response",2,54645,"0.0-2.0-0.0","ahepvvdn2o6bszm",701,"145.csv","","7680","<p><font size='6'>Arrrgh!</p></font><p>Can you be the best pirate? Try to find lots of gold! But beware, some islands have more gold than others, and over time, the island with the most gold may change. Can YOU figure it out? </p><font size='6'>GOOD LUCK, CAPTAIN!!!</font><p>Press any key to begin</p>","75","",NA,NA,NA,NA,""
"image-keyboard-response",3,57649,"0.0-2.0-1.0","ahepvvdn2o6bszm",701,"145.csv","","null","resources/image_sets/111.png","null","",NA,NA,NA,NA,""
"image-keyboard-response",4,66559,"0.0-2.0-2.0","ahepvvdn2o6bszm",701,"145.csv","","8908","resources/image_sets/left_highlight.png","37","",NA,NA,NA,NA,""
"image-keyboard-response",5,67851,"0.0-2.0-3.0","ahepvvdn2o6bszm",701,"145.csv","","1291","resources/image_sets/mid_highlight.png","38","",NA,NA,NA,NA,""
"image-keyboard-response",6,71991,"0.0-2.0-4.0","ahepvvdn2o6bszm",701,"145.csv","","4138","resources/image_sets/right_highlight.png","39","",NA,NA,NA,NA,""
"image-keyboard-response",7,74893,"0.0-2.0-5.0","ahepvvdn2o6bszm",701,"145.csv","","2899.9999999999854","resources/image_sets/111.png","13","",NA,NA,NA,NA,""
"image-keyboard-response",8,77135,"0.0-2.0-6.0","ahepvvdn2o6bszm",701,"145.csv","","2241","resources/images/coin2.png","13","",NA,NA,NA,NA,""
"image-keyboard-response",9,78677,"0.0-2.0-7.0","ahepvvdn2o6bszm",701,"145.csv","","1540","resources/images/fishbone.png","13","",NA,NA,NA,NA,""
"html-keyboard-response",10,83394,"0.0-2.0-8.0","ahepvvdn2o6bszm",701,"145.csv","","4716.000000000015","<p>Your first journey will be a long one, but you will get a well deserved break at the end</p><p>After the break you will have four more journeys, but each will be much shorter than the first, and you will have breaks in between each</p><p>Press Enter to begin</p>","13","",NA,NA,NA,NA,""
"image-keyboard-response",11,84866,"0.0-3.0-0.0","ahepvvdn2o6bszm",701,"145.csv","","1470","resources/trios/L4T4A1.jpg","39","restless",0.3,0.7,0.9,0.256884883631903,"true"
"image-keyboard-response",12,85271,"0.0-3.0-1.0","ahepvvdn2o6bszm",701,"145.csv","","null","resources/maskTrios/BBA1.jpg","null","",NA,NA,NA,NA,""
"image-keyboard-response",13,86475,"0.0-3.0-2.0","ahepvvdn2o6bszm",701,"145.csv","","null","resources/images/coin2.png","null","",NA,NA,NA,NA,""
"image-keyboard-response",14,91838,"0.0-3.1-0.1","ahepvvdn2o6bszm",701,"145.csv","","5361","resources/trios/L4T2A3.jpg","37","restless",0.3,0.7,0.9,0.504403466048167,"false"
"image-keyboard-response",15,92241,"0.0-3.1-1.1","ahepvvdn2o6bszm",701,"145.csv","","null","resources/maskTrios/L4BB.jpg","null","",NA,NA,NA,NA,""
"image-keyboard-response",16,93444,"0.0-3.1-2.1","ahepvvdn2o6bszm",701,"145.csv","","null","resources/images/fishbone.png","null","",NA,NA,NA,NA,""
"image-keyboard-response",17,96815,"0.0-3.2-0.2","ahepvvdn2o6bszm",701,"145.csv","","3369","resources/trios/L4T4A1.jpg","38","restless",0.3,0.7,0.9,0.753167281252475,"false"
"image-keyboard-response",18,97219,"0.0-3.2-1.2","ahepvvdn2o6bszm",701,"145.csv","","null","resources/maskTrios/BT4B.jpg","null","",NA,NA,NA,NA,""
"image-keyboard-response",19,98422,"0.0-3.2-2.2","ahepvvdn2o6bszm",701,"145.csv","","null","resources/images/fishbone.png","null","",NA,NA,NA,NA,""
"image-keyboard-response",20,100607,"0.0-3.3-0.3","ahepvvdn2o6bszm",701,"145.csv","","2183","resources/trios/L2T4A3.jpg","38","restless",0.3,0.7,0.9,0.65882251215661,"true"
"image-keyboard-response",21,101010,"0.0-3.3-1.3","ahepvvdn2o6bszm",701,"145.csv","","null","resources/maskTrios/BT4B.jpg","null","",NA,NA,NA,NA,""
"image-keyboard-response",22,102213,"0.0-3.3-2.3","ahepvvdn2o6bszm",701,"145.csv","","null","resources/images/coin2.png","null","",NA,NA,NA,NA,""
"image-keyboard-response",23,103090,"0.0-3.4-0.4","ahepvvdn2o6bszm",701,"145.csv","","875","resources/trios/L4T4A3.jpg","37","restless",0.3,0.7,0.9,0.440820019339633,"false"
"image-keyboard-response",24,103493,"0.0-3.4-1.4","ahepvvdn2o6bszm",701,"145.csv","","null","resources/maskTrios/L4BB.jpg","null","",NA,NA,NA,NA,""
"image-keyboard-response",25,104696,"0.0-3.4-2.4","ahepvvdn2o6bszm",701,"145.csv","","null","resources/images/fishbone.png","null","",NA,NA,NA,NA,""
"image-keyboard-response",26,105149,"0.0-3.5-0.5","ahepvvdn2o6bszm",701,"145.csv","","450","resources/trios/L2T2A3.jpg","38","restless",0.3,0.7,0.9,0.724840117163004,"false"
"image-keyboard-response",27,105552,"0.0-3.5-1.5","ahepvvdn2o6bszm",701,"145.csv","","null","resources/maskTrios/BT2B.jpg","null","",NA,NA,NA,NA,""
"image-keyboard-response",28,106755,"0.0-3.5-2.5","ahepvvdn2o6bszm",701,"145.csv","","null","resources/images/fishbone.png","null","",NA,NA,NA,NA,""
"image-keyboard-response",29,107275,"0.0-3.6-0.6","ahepvvdn2o6bszm",701,"145.csv","","518","resources/trios/L2T2A1.jpg","39","restless",0.3,0.7,0.9,0.941579169348562,"false"
"image-keyboard-response",30,107679,"0.0-3.6-1.6","ahepvvdn2o6bszm",701,"145.csv","","null","resources/maskTrios/BBA1.jpg","null","",NA,NA,NA,NA,""
"image-keyboard-response",31,108882,"0.0-3.6-2.6","ahepvvdn2o6bszm",701,"145.csv","","null","resources/images/fishbone.png","null","",NA,NA,NA,NA,""
"image-keyboard-response",32,109233,"0.0-3.7-0.7","ahepvvdn2o6bszm",701,"145.csv","","349","resources/trios/L2T4A1.jpg","39","restless",0.3,0.7,0.9,0.398513238941336,"true"
"image-keyboard-response",33,109636,"0.0-3.7-1.7","ahepvvdn2o6bszm",701,"145.csv","","null","resources/maskTrios/BBA1.jpg","null","",NA,NA,NA,NA,""
"image-keyboard-response",34,110839,"0.0-3.7-2.7","ahepvvdn2o6bszm",701,"145.csv","","null","resources/images/coin2.png","null","",NA,NA,NA,NA,""
"image-keyboard-response",35,112267,"0.0-3.8-0.8","ahepvvdn2o6bszm",701,"145.csv","","1427","resources/trios/L2T2A3.jpg","38","restless",0.3,0.7,0.9,0.990184531501189,"false"
"image-keyboard-response",36,112671,"0.0-3.8-1.8","ahepvvdn2o6bszm",701,"145.csv","","null","resources/maskTrios/BT2B.jpg","null","",NA,NA,NA,NA,""
"image-keyboard-response",37,113874,"0.0-3.8-2.8","ahepvvdn2o6bszm",701,"145.csv","","null","resources/images/fishbone.png","null","",NA,NA,NA,NA,""
"image-keyboard-response",38,114291,"0.0-3.9-0.9","ahepvvdn2o6bszm",701,"145.csv","","415","resources/trios/L2T2A3.jpg","39","restless",0.3,0.7,0.9,0.238463885839219,"true"
"image-keyboard-response",39,114695,"0.0-3.9-1.9","ahepvvdn2o6bszm",701,"145.csv","","null","resources/maskTrios/BBA3.jpg","null","",NA,NA,NA,NA,""
"image-keyboard-response",40,115898,"0.0-3.9-2.9","ahepvvdn2o6bszm",701,"145.csv","","null","resources/images/coin2.png","null","",NA,NA,NA,NA,""
"image-keyboard-response",41,116398,"0.0-3.10-0.10","ahepvvdn2o6bszm",701,"145.csv","","497.99999999998545","resources/trios/L2T2A3.jpg","39","restless",0.3,0.7,0.9,0.273596971574518,"true"
"image-keyboard-response",42,116801,"0.0-3.10-1.10","ahepvvdn2o6bszm",701,"145.csv","","null","resources/maskTrios/BBA3.jpg","null","",NA,NA,NA,NA,""
"image-keyboard-response",43,118004,"0.0-3.10-2.10","ahepvvdn2o6bszm",701,"145.csv","","null","resources/images/coin2.png","null","",NA,NA,NA,NA,""
"image-keyboard-response",44,118280,"0.0-3.11-0.11","ahepvvdn2o6bszm",701,"145.csv","","274","resources/trios/L4T4A3.jpg","39","restless",0.3,0.7,0.9,0.345358413266683,"true"
"image-keyboard-response",45,118684,"0.0-3.11-1.11","ahepvvdn2o6bszm",701,"145.csv","","null","resources/maskTrios/BBA3.jpg","null","",NA,NA,NA,NA,""
"image-keyboard-response",46,119887,"0.0-3.11-2.11","ahepvvdn2o6bszm",701,"145.csv","","null","resources/images/coin2.png","null","",NA,NA,NA,NA,""
"image-keyboard-response",47,120183,"0.0-3.12-0.12","ahepvvdn2o6bszm",701,"145.csv","","293","resources/trios/L2T2A3.jpg","39","restless",0.3,0.7,0.9,0.630704723779108,"true"
"image-keyboard-response",48,120586,"0.0-3.12-1.12","ahepvvdn2o6bszm",701,"145.csv","","null","resources/maskTrios/BBA3.jpg","null","",NA,NA,NA,NA,""
"image-keyboard-response",49,121790,"0.0-3.12-2.12","ahepvvdn2o6bszm",701,"145.csv","","null","resources/images/coin2.png","null","",NA,NA,NA,NA,""
"image-keyboard-response",50,122049,"0.0-3.13-0.13","ahepvvdn2o6bszm",701,"145.csv","","258","resources/trios/L4T4A1.jpg","39","restless",0.3,0.6,0.9,0.582874635962249,"true"
"image-keyboard-response",51,122453,"0.0-3.13-1.13","ahepvvdn2o6bszm",701,"145.csv","","null","resources/maskTrios/BBA1.jpg","null","",NA,NA,NA,NA,""
"image-keyboard-response",52,123657,"0.0-3.13-2.13","ahepvvdn2o6bszm",701,"145.csv","","null","resources/images/coin2.png","null","",NA,NA,NA,NA,""
"image-keyboard-response",53,123943,"0.0-3.14-0.14","ahepvvdn2o6bszm",701,"145.csv","","284.99999999998545","resources/trios/L2T4A1.jpg","39","restless",0.3,0.6,0.9,0.152753904637589,"true"
"image-keyboard-response",54,124347,"0.0-3.14-1.14","ahepvvdn2o6bszm",701,"145.csv","","null","resources/maskTrios/BBA1.jpg","null","",NA,NA,NA,NA,""
"image-keyboard-response",55,125550,"0.0-3.14-2.14","ahepvvdn2o6bszm",701,"145.csv","","null","resources/images/coin2.png","null","",NA,NA,NA,NA,""
"image-keyboard-response",56,125823,"0.0-3.15-0.15","ahepvvdn2o6bszm",701,"145.csv","","271.99999999998545","resources/trios/L2T2A1.jpg","39","restless",0.3,0.6,0.9,0.493591454664163,"true"
"image-keyboard-response",57,126227,"0.0-3.15-1.15","ahepvvdn2o6bszm",701,"145.csv","","null","resources/maskTrios/BBA1.jpg","null","",NA,NA,NA,NA,""
"image-keyboard-response",58,127430,"0.0-3.15-2.15","ahepvvdn2o6bszm",701,"145.csv","","null","resources/images/coin2.png","null","",NA,NA,NA,NA,""
"image-keyboard-response",59,127707,"0.0-3.16-0.16","ahepvvdn2o6bszm",701,"145.csv","","276.00000000001455","resources/trios/L2T4A1.jpg","39","restless",0.3,0.7,0.9,0.883203886410817,"true"
"image-keyboard-response",60,128111,"0.0-3.16-1.16","ahepvvdn2o6bszm",701,"145.csv","","null","resources/maskTrios/BBA1.jpg","null","",NA,NA,NA,NA,""
"image-keyboard-response",61,129314,"0.0-3.16-2.16","ahepvvdn2o6bszm",701,"145.csv","","null","resources/images/coin2.png","null","",NA,NA,NA,NA,""
"image-keyboard-response",62,129620,"0.0-3.17-0.17","ahepvvdn2o6bszm",701,"145.csv","","304","resources/trios/L4T4A1.jpg","39","restless",0.3,0.7,0.9,0.248124634629585,"true"
"image-keyboard-response",63,130024,"0.0-3.17-1.17","ahepvvdn2o6bszm",701,"145.csv","","null","resources/maskTrios/BBA1.jpg","null","",NA,NA,NA,NA,""
"image-keyboard-response",64,131227,"0.0-3.17-2.17","ahepvvdn2o6bszm",701,"145.csv","","null","resources/images/coin2.png","null","",NA,NA,NA,NA,""
"image-keyboard-response",65,131500,"0.0-3.18-0.18","ahepvvdn2o6bszm",701,"145.csv","","272","resources/trios/L2T2A1.jpg","39","restless",0.3,0.7,0.9,0.603576742166107,"true"
"image-keyboard-response",66,131904,"0.0-3.18-1.18","ahepvvdn2o6bszm",701,"145.csv","","null","resources/maskTrios/BBA1.jpg","null","",NA,NA,NA,NA,""
"image-keyboard-response",67,133107,"0.0-3.18-2.18","ahepvvdn2o6bszm",701,"145.csv","","null","resources/images/coin2.png","null","",NA,NA,NA,NA,""
"image-keyboard-response",68,133377,"0.0-3.19-0.19","ahepvvdn2o6bszm",701,"145.csv","","268","resources/trios/L4T2A1.jpg","39","restless",0.3,0.7,0.9,0.409145667806047,"true"
"image-keyboard-response",69,133780,"0.0-3.19-1.19","ahepvvdn2o6bszm",701,"145.csv","","null","resources/maskTrios/BBA1.jpg","null","",NA,NA,NA,NA,""
"image-keyboard-response",70,134984,"0.0-3.19-2.19","ahepvvdn2o6bszm",701,"145.csv","","null","resources/images/coin2.png","null","",NA,NA,NA,NA,""
"image-keyboard-response",71,135267,"0.0-3.20-0.20","ahepvvdn2o6bszm",701,"145.csv","","281","resources/trios/L2T2A3.jpg","39","restless",0.3,0.7,0.9,0.766799978132075,"true"
"image-keyboard-response",72,135671,"0.0-3.20-1.20","ahepvvdn2o6bszm",701,"145.csv","","null","resources/maskTrios/BBA3.jpg","null","",NA,NA,NA,NA,""
"image-keyboard-response",73,136874,"0.0-3.20-2.20","ahepvvdn2o6bszm",701,"145.csv","","null","resources/images/coin2.png","null","",NA,NA,NA,NA,""
"image-keyboard-response",74,137141,"0.0-3.21-0.21","ahepvvdn2o6bszm",701,"145.csv","","265","resources/trios/L2T2A1.jpg","39","restless",0.4,0.6,0.9,0.614603974121443,"true"
"image-keyboard-response",75,137544,"0.0-3.21-1.21","ahepvvdn2o6bszm",701,"145.csv","","null","resources/maskTrios/BBA1.jpg","null","",NA,NA,NA,NA,""
"image-keyboard-response",76,138746,"0.0-3.21-2.21","ahepvvdn2o6bszm",701,"145.csv","","null","resources/images/coin2.png","null","",NA,NA,NA,NA,""
"image-keyboard-response",77,139003,"0.0-3.22-0.22","ahepvvdn2o6bszm",701,"145.csv","","255","resources/trios/L2T4A3.jpg","39","restless",0.4,0.6,0.9,0.26517397796668,"true"
"image-keyboard-response",78,139407,"0.0-3.22-1.22","ahepvvdn2o6bszm",701,"145.csv","","null","resources/maskTrios/BBA3.jpg","null","",NA,NA,NA,NA,""
"image-keyboard-response",79,140610,"0.0-3.22-2.22","ahepvvdn2o6bszm",701,"145.csv","","null","resources/images/coin2.png","null","",NA,NA,NA,NA,""
"image-keyboard-response",80,140738,"0.0-3.23-0.23","ahepvvdn2o6bszm",701,"145.csv","","127","resources/trios/L4T4A3.jpg","39","restless",0.4,0.6,0.9,0.684587233329256,"true"
"image-keyboard-response",81,141142,"0.0-3.23-1.23","ahepvvdn2o6bszm",701,"145.csv","","null","resources/maskTrios/BBA3.jpg","null","",NA,NA,NA,NA,""
"image-keyboard-response",82,142345,"0.0-3.23-2.23","ahepvvdn2o6bszm",701,"145.csv","","null","resources/images/coin2.png","null","",NA,NA,NA,NA,""
"image-keyboard-response",83,142608,"0.0-3.24-0.24","ahepvvdn2o6bszm",701,"145.csv","","261","resources/trios/L2T4A3.jpg","39","restless",0.4,0.6,0.9,0.291542533673992,"true"
"image-keyboard-response",84,143011,"0.0-3.24-1.24","ahepvvdn2o6bszm",701,"145.csv","","null","resources/maskTrios/BBA3.jpg","null","",NA,NA,NA,NA,""
"image-keyboard-response",85,144213,"0.0-3.24-2.24","ahepvvdn2o6bszm",701,"145.csv","","null","resources/images/coin2.png","null","",NA,NA,NA,NA,""
"image-keyboard-response",86,144215,"0.0-3.25-0.25","ahepvvdn2o6bszm",701,"145.csv","","0","resources/trios/L4T2A3.jpg","39","restless",0.4,0.6,0.8,0.0603880285405685,"true"
"image-keyboard-response",87,144617,"0.0-3.25-1.25","ahepvvdn2o6bszm",701,"145.csv","","null","resources/maskTrios/BBA3.jpg","null","",NA,NA,NA,NA,""
"image-keyboard-response",88,145820,"0.0-3.25-2.25","ahepvvdn2o6bszm",701,"145.csv","","null","resources/images/coin2.png","null","",NA,NA,NA,NA,""
"image-keyboard-response",89,146664,"0.0-3.26-0.26","ahepvvdn2o6bszm",701,"145.csv","","843","resources/trios/L4T2A1.jpg","39","restless",0.5,0.6,0.8,0.79615423348088,"true"
"image-keyboard-response",90,147067,"0.0-3.26-1.26","ahepvvdn2o6bszm",701,"145.csv","","null","resources/maskTrios/BBA1.jpg","null","",NA,NA,NA,NA,""
"image-keyboard-response",91,148276,"0.0-3.26-2.26","ahepvvdn2o6bszm",701,"145.csv","","null","resources/images/coin2.png","null","",NA,NA,NA,NA,""
"image-keyboard-response",92,148758,"0.0-3.27-0.27","ahepvvdn2o6bszm",701,"145.csv","","477","resources/trios/L4T4A3.jpg","39","restless",0.5,0.6,0.7,0.628676144466188,"true"
"image-keyboard-response",93,149162,"0.0-3.27-1.27","ahepvvdn2o6bszm",701,"145.csv","","null","resources/maskTrios/BBA3.jpg","null","",NA,NA,NA,NA,""
"image-keyboard-response",94,150365,"0.0-3.27-2.27","ahepvvdn2o6bszm",701,"145.csv","","null","resources/images/coin2.png","null","",NA,NA,NA,NA,""
"image-keyboard-response",95,150828,"0.0-3.28-0.28","ahepvvdn2o6bszm",701,"145.csv","","460","resources/trios/L2T4A1.jpg","39","restless",0.5,0.6,0.7,0.0710792002351441,"true"
"image-keyboard-response",96,151231,"0.0-3.28-1.28","ahepvvdn2o6bszm",701,"145.csv","","null","resources/maskTrios/BBA1.jpg","null","",NA,NA,NA,NA,""
"image-keyboard-response",97,152433,"0.0-3.28-2.28","ahepvvdn2o6bszm",701,"145.csv","","null","resources/images/coin2.png","null","",NA,NA,NA,NA,""
"image-keyboard-response",98,152660,"0.0-3.29-0.29","ahepvvdn2o6bszm",701,"145.csv","","224","resources/trios/L4T2A1.jpg","39","restless",0.5,0.5,0.7,0.708678792995472,"false"
"image-keyboard-response",99,153063,"0.0-3.29-1.29","ahepvvdn2o6bszm",701,"145.csv","","null","resources/maskTrios/BBA1.jpg","null","",NA,NA,NA,NA,""
"image-keyboard-response",100,154266,"0.0-3.29-2.29","ahepvvdn2o6bszm",701,"145.csv","","null","resources/images/fishbone.png","null","",NA,NA,NA,NA,""
"image-keyboard-response",101,154772,"0.0-3.30-0.30","ahepvvdn2o6bszm",701,"145.csv","","503","resources/trios/L4T4A3.jpg","37","restless",0.5,0.5,0.7,0.218041670308432,"true"
"image-keyboard-response",102,155175,"0.0-3.30-1.30","ahepvvdn2o6bszm",701,"145.csv","","null","resources/maskTrios/L4BB.jpg","null","",NA,NA,NA,NA,""
"image-keyboard-response",103,156378,"0.0-3.30-2.30","ahepvvdn2o6bszm",701,"145.csv","","null","resources/images/coin2.png","null","",NA,NA,NA,NA,""
"image-keyboard-response",104,156656,"0.0-3.31-0.31","ahepvvdn2o6bszm",701,"145.csv","","275.9999999999709","resources/trios/L2T2A1.jpg","37","restless",0.4,0.5,0.7,0.827476795466717,"false"
"image-keyboard-response",105,157059,"0.0-3.31-1.31","ahepvvdn2o6bszm",701,"145.csv","","null","resources/maskTrios/L2BB.jpg","null","",NA,NA,NA,NA,""
"image-keyboard-response",106,158262,"0.0-3.31-2.31","ahepvvdn2o6bszm",701,"145.csv","","null","resources/images/fishbone.png","null","",NA,NA,NA,NA,""
"image-keyboard-response",107,158753,"0.0-3.32-0.32","ahepvvdn2o6bszm",701,"145.csv","","486","resources/trios/L4T4A3.jpg","38","restless",0.4,0.5,0.7,0.0413452653804107,"true"
"image-keyboard-response",108,159156,"0.0-3.32-1.32","ahepvvdn2o6bszm",701,"145.csv","","null","resources/maskTrios/BT4B.jpg","null","",NA,NA,NA,NA,""
"image-keyboard-response",109,160360,"0.0-3.32-2.32","ahepvvdn2o6bszm",701,"145.csv","","null","resources/images/coin2.png","null","",NA,NA,NA,NA,""
"image-keyboard-response",110,160853,"0.0-3.33-0.33","ahepvvdn2o6bszm",701,"145.csv","","490.9999999999709","resources/trios/L2T4A1.jpg","39","restless",0.4,0.5,0.7,0.617901478118812,"true"
"image-keyboard-response",111,161258,"0.0-3.33-1.33","ahepvvdn2o6bszm",701,"145.csv","","null","resources/maskTrios/BBA1.jpg","null","",NA,NA,NA,NA,""
"image-keyboard-response",112,162461,"0.0-3.33-2.33","ahepvvdn2o6bszm",701,"145.csv","","null","resources/images/coin2.png","null","",NA,NA,NA,NA,""
"image-keyboard-response",113,162734,"0.0-3.34-0.34","ahepvvdn2o6bszm",701,"145.csv","","270.9999999999709","resources/trios/L2T4A1.jpg","39","restless",0.4,0.5,0.7,0.0611455273968838,"true"
"image-keyboard-response",114,163137,"0.0-3.34-1.34","ahepvvdn2o6bszm",701,"145.csv","","null","resources/maskTrios/BBA1.jpg","null","",NA,NA,NA,NA,""
"image-keyboard-response",115,164340,"0.0-3.34-2.34","ahepvvdn2o6bszm",701,"145.csv","","null","resources/images/coin2.png","null","",NA,NA,NA,NA,""
"image-keyboard-response",116,164628,"0.0-3.35-0.35","ahepvvdn2o6bszm",701,"145.csv","","285","resources/trios/L2T4A1.jpg","39","restless",0.4,0.5,0.7,0.0924909716958571,"true"
"image-keyboard-response",117,165031,"0.0-3.35-1.35","ahepvvdn2o6bszm",701,"145.csv","","null","resources/maskTrios/BBA1.jpg","null","",NA,NA,NA,NA,""
"image-keyboard-response",118,166234,"0.0-3.35-2.35","ahepvvdn2o6bszm",701,"145.csv","","null","resources/images/coin2.png","null","",NA,NA,NA,NA,""
"image-keyboard-response",119,166504,"0.0-3.36-0.36","ahepvvdn2o6bszm",701,"145.csv","","268","resources/trios/L2T4A3.jpg","39","restless",0.3,0.5,0.7,0.83059578630911,"false"
"image-keyboard-response",120,166908,"0.0-3.36-1.36","ahepvvdn2o6bszm",701,"145.csv","","null","resources/maskTrios/BBA3.jpg","null","",NA,NA,NA,NA,""
"image-keyboard-response",121,168110,"0.0-3.36-2.36","ahepvvdn2o6bszm",701,"145.csv","","null","resources/images/fishbone.png","null","",NA,NA,NA,NA,""
"image-keyboard-response",122,168551,"0.0-3.37-0.37","ahepvvdn2o6bszm",701,"145.csv","","437.9999999999709","resources/trios/L2T4A1.jpg","38","restless",0.3,0.5,0.7,0.727325791581074,"false"
"image-keyboard-response",123,168954,"0.0-3.37-1.37","ahepvvdn2o6bszm",701,"145.csv","","null","resources/maskTrios/BT4B.jpg","null","",NA,NA,NA,NA,""
"image-keyboard-response",124,170156,"0.0-3.37-2.37","ahepvvdn2o6bszm",701,"145.csv","","null","resources/images/fishbone.png","null","",NA,NA,NA,NA,""
"image-keyboard-response",125,170444,"0.0-3.38-0.38","ahepvvdn2o6bszm",701,"145.csv","","283","resources/trios/L4T4A3.jpg","39","restless",0.3,0.5,0.7,0.15304127074748,"true"
"image-keyboard-response",126,170848,"0.0-3.38-1.38","ahepvvdn2o6bszm",701,"145.csv","","null","resources/maskTrios/BBA3.jpg","null","",NA,NA,NA,NA,""
"image-keyboard-response",127,172051,"0.0-3.38-2.38","ahepvvdn2o6bszm",701,"145.csv","","null","resources/images/coin2.png","null","",NA,NA,NA,NA,""
"image-keyboard-response",128,172317,"0.0-3.39-0.39","ahepvvdn2o6bszm",701,"145.csv","","263","resources/trios/L2T2A1.jpg","39","restless",0.3,0.5,0.7,0.180527827686288,"true"
"image-keyboard-response",129,172720,"0.0-3.39-1.39","ahepvvdn2o6bszm",701,"145.csv","","null","resources/maskTrios/BBA1.jpg","null","",NA,NA,NA,NA,""
"image-keyboard-response",130,173923,"0.0-3.39-2.39","ahepvvdn2o6bszm",701,"145.csv","","null","resources/images/coin2.png","null","",NA,NA,NA,NA,""
"image-keyboard-response",131,174183,"0.0-3.40-0.40","ahepvvdn2o6bszm",701,"145.csv","","258","resources/trios/L2T4A3.jpg","39","restless",0.3,0.5,0.7,0.012860195461,"true"
"image-keyboard-response",132,174586,"0.0-3.40-1.40","ahepvvdn2o6bszm",701,"145.csv","","null","resources/maskTrios/BBA3.jpg","null","",NA,NA,NA,NA,""
"image-keyboard-response",133,175789,"0.0-3.40-2.40","ahepvvdn2o6bszm",701,"145.csv","","null","resources/images/coin2.png","null","",NA,NA,NA,NA,""
"image-keyboard-response",134,176260,"0.0-3.41-0.41","ahepvvdn2o6bszm",701,"145.csv","","469","resources/trios/L4T4A3.jpg","39","restless",0.3,0.5,0.8,0.0871558377940511,"true"
"image-keyboard-response",135,176663,"0.0-3.41-1.41","ahepvvdn2o6bszm",701,"145.csv","","null","resources/maskTrios/BBA3.jpg","null","",NA,NA,NA,NA,""
"image-keyboard-response",136,177866,"0.0-3.41-2.41","ahepvvdn2o6bszm",701,"145.csv","","null","resources/images/coin2.png","null","",NA,NA,NA,NA,""
"image-keyboard-response",137,178224,"0.0-3.42-0.42","ahepvvdn2o6bszm",701,"145.csv","","354.9999999999709","resources/trios/L2T4A3.jpg","39","restless",0.3,0.5,0.8,0.26114683544409,"true"
"image-keyboard-response",138,178627,"0.0-3.42-1.42","ahepvvdn2o6bszm",701,"145.csv","","null","resources/maskTrios/BBA3.jpg","null","",NA,NA,NA,NA,""
"image-keyboard-response",139,179830,"0.0-3.42-2.42","ahepvvdn2o6bszm",701,"145.csv","","null","resources/images/coin2.png","null","",NA,NA,NA,NA,""
"image-keyboard-response",140,180154,"0.0-3.43-0.43","ahepvvdn2o6bszm",701,"145.csv","","320","resources/trios/L2T4A3.jpg","39","restless",0.3,0.4,0.8,0.822395584490851,"false"
"image-keyboard-response",141,180558,"0.0-3.43-1.43","ahepvvdn2o6bszm",701,"145.csv","","null","resources/maskTrios/BBA3.jpg","null","",NA,NA,NA,NA,""
"image-keyboard-response",142,181761,"0.0-3.43-2.43","ahepvvdn2o6bszm",701,"145.csv","","null","resources/images/fishbone.png","null","",NA,NA,NA,NA,""
"image-keyboard-response",143,183832,"0.0-3.44-0.44","ahepvvdn2o6bszm",701,"145.csv","","2069.000000000029","resources/trios/L2T4A1.jpg","39","restless",0.3,0.4,0.8,0.0069050585854139,"true"
"image-keyboard-response",144,184237,"0.0-3.44-1.44","ahepvvdn2o6bszm",701,"145.csv","","null","resources/maskTrios/BBA1.jpg","null","",NA,NA,NA,NA,""
"image-keyboard-response",145,185440,"0.0-3.44-2.44","ahepvvdn2o6bszm",701,"145.csv","","null","resources/images/coin2.png","null","",NA,NA,NA,NA,""
"image-keyboard-response",146,185713,"0.0-3.45-0.45","ahepvvdn2o6bszm",701,"145.csv","","270.0000000000291","resources/trios/L2T2A3.jpg","39","restless",0.3,0.4,0.8,0.455998295467265,"true"
"image-keyboard-response",147,186116,"0.0-3.45-1.45","ahepvvdn2o6bszm",701,"145.csv","","null","resources/maskTrios/BBA3.jpg","null","",NA,NA,NA,NA,""
"image-keyboard-response",148,187319,"0.0-3.45-2.45","ahepvvdn2o6bszm",701,"145.csv","","null","resources/images/coin2.png","null","",NA,NA,NA,NA,""
"image-keyboard-response",149,187587,"0.0-3.46-0.46","ahepvvdn2o6bszm",701,"145.csv","","265","resources/trios/L4T2A1.jpg","39","restless",0.3,0.4,0.8,0.453979136004841,"true"
"image-keyboard-response",150,187990,"0.0-3.46-1.46","ahepvvdn2o6bszm",701,"145.csv","","null","resources/maskTrios/BBA1.jpg","null","",NA,NA,NA,NA,""
"image-keyboard-response",151,189193,"0.0-3.46-2.46","ahepvvdn2o6bszm",701,"145.csv","","null","resources/images/coin2.png","null","",NA,NA,NA,NA,""
"image-keyboard-response",152,189644,"0.0-3.47-0.47","ahepvvdn2o6bszm",701,"145.csv","","447","resources/trios/L4T2A3.jpg","39","restless",0.3,0.3,0.8,0.590998363586824,"true"
"image-keyboard-response",153,190046,"0.0-3.47-1.47","ahepvvdn2o6bszm",701,"145.csv","","null","resources/maskTrios/BBA3.jpg","null","",NA,NA,NA,NA,""
"image-keyboard-response",154,191249,"0.0-3.47-2.47","ahepvvdn2o6bszm",701,"145.csv","","null","resources/images/coin2.png","null","",NA,NA,NA,NA,""
"image-keyboard-response",155,192929,"0.0-3.48-0.48","ahepvvdn2o6bszm",701,"145.csv","","1677","resources/trios/L2T4A1.jpg","39","restless",0.3,0.3,0.8,0.872665433922773,"false"
"image-keyboard-response",156,193332,"0.0-3.48-1.48","ahepvvdn2o6bszm",701,"145.csv","","null","resources/maskTrios/BBA1.jpg","null","",NA,NA,NA,NA,""
"image-keyboard-response",157,194535,"0.0-3.48-2.48","ahepvvdn2o6bszm",701,"145.csv","","null","resources/images/fishbone.png","null","",NA,NA,NA,NA,""
"image-keyboard-response",158,195070,"0.0-3.49-0.49","ahepvvdn2o6bszm",701,"145.csv","","531","resources/trios/L2T2A1.jpg","39","restless",0.3,0.3,0.8,0.113489665397562,"true"
"image-keyboard-response",159,195474,"0.0-3.49-1.49","ahepvvdn2o6bszm",701,"145.csv","","null","resources/maskTrios/BBA1.jpg","null","",NA,NA,NA,NA,""
"image-keyboard-response",160,196677,"0.0-3.49-2.49","ahepvvdn2o6bszm",701,"145.csv","","null","resources/images/coin2.png","null","",NA,NA,NA,NA,""
"image-keyboard-response",161,196957,"0.0-3.50-0.50","ahepvvdn2o6bszm",701,"145.csv","","278.0000000000291","resources/trios/L4T4A3.jpg","39","restless",0.3,0.3,0.8,0.31790843731707,"true"
"image-keyboard-response",162,197360,"0.0-3.50-1.50","ahepvvdn2o6bszm",701,"145.csv","","null","resources/maskTrios/BBA3.jpg","null","",NA,NA,NA,NA,""
"image-keyboard-response",163,198564,"0.0-3.50-2.50","ahepvvdn2o6bszm",701,"145.csv","","null","resources/images/coin2.png","null","",NA,NA,NA,NA,""
"image-keyboard-response",164,198889,"0.0-3.51-0.51","ahepvvdn2o6bszm",701,"145.csv","","323","resources/trios/L4T2A3.jpg","39","restless",0.3,0.3,0.8,0.756673317012016,"true"
"image-keyboard-response",165,199293,"0.0-3.51-1.51","ahepvvdn2o6bszm",701,"145.csv","","null","resources/maskTrios/BBA3.jpg","null","",NA,NA,NA,NA,""
"image-keyboard-response",166,200496,"0.0-3.51-2.51","ahepvvdn2o6bszm",701,"145.csv","","null","resources/images/coin2.png","null","",NA,NA,NA,NA,""
"image-keyboard-response",167,200794,"0.0-3.52-0.52","ahepvvdn2o6bszm",701,"145.csv","","296","resources/trios/L4T2A1.jpg","39","restless",0.3,0.3,0.7,0.612098930254445,"true"
"image-keyboard-response",168,201198,"0.0-3.52-1.52","ahepvvdn2o6bszm",701,"145.csv","","null","resources/maskTrios/BBA1.jpg","null","",NA,NA,NA,NA,""
"image-keyboard-response",169,202401,"0.0-3.52-2.52","ahepvvdn2o6bszm",701,"145.csv","","null","resources/images/coin2.png","null","",NA,NA,NA,NA,""
"image-keyboard-response",170,202884,"0.0-3.53-0.53","ahepvvdn2o6bszm",701,"145.csv","","481","resources/trios/L2T4A3.jpg","37","restless",0.3,0.3,0.7,0.851821317501184,"false"
"image-keyboard-response",171,203288,"0.0-3.53-1.53","ahepvvdn2o6bszm",701,"145.csv","","null","resources/maskTrios/L2BB.jpg","null","",NA,NA,NA,NA,""
"image-keyboard-response",172,204490,"0.0-3.53-2.53","ahepvvdn2o6bszm",701,"145.csv","","null","resources/images/fishbone.png","null","",NA,NA,NA,NA,""
"image-keyboard-response",173,206076,"0.0-3.54-0.54","ahepvvdn2o6bszm",701,"145.csv","","1581.000000000029","resources/trios/L2T2A1.jpg","39","restless",0.3,0.3,0.7,0.311091952402703,"true"
"image-keyboard-response",174,206480,"0.0-3.54-1.54","ahepvvdn2o6bszm",701,"145.csv","","null","resources/maskTrios/BBA1.jpg","null","",NA,NA,NA,NA,""
"image-keyboard-response",175,207683,"0.0-3.54-2.54","ahepvvdn2o6bszm",701,"145.csv","","null","resources/images/coin2.png","null","",NA,NA,NA,NA,""
"image-keyboard-response",176,207957,"0.0-3.55-0.55","ahepvvdn2o6bszm",701,"145.csv","","269.0000000000291","resources/trios/L4T2A1.jpg","39","restless",0.3,0.3,0.7,0.338630778929066,"true"
"image-keyboard-response",177,208360,"0.0-3.55-1.55","ahepvvdn2o6bszm",701,"145.csv","","null","resources/maskTrios/BBA1.jpg","null","",NA,NA,NA,NA,""
"image-keyboard-response",178,209563,"0.0-3.55-2.55","ahepvvdn2o6bszm",701,"145.csv","","null","resources/images/coin2.png","null","",NA,NA,NA,NA,""
"image-keyboard-response",179,209838,"0.0-3.56-0.56","ahepvvdn2o6bszm",701,"145.csv","","272.0000000000291","resources/trios/L2T4A3.jpg","39","restless",0.3,0.3,0.7,0.503931218630636,"true"
"image-keyboard-response",180,210242,"0.0-3.56-1.56","ahepvvdn2o6bszm",701,"145.csv","","null","resources/maskTrios/BBA3.jpg","null","",NA,NA,NA,NA,""
"image-keyboard-response",181,211445,"0.0-3.56-2.56","ahepvvdn2o6bszm",701,"145.csv","","null","resources/images/coin2.png","null","",NA,NA,NA,NA,""
"image-keyboard-response",182,211717,"0.0-3.57-0.57","ahepvvdn2o6bszm",701,"145.csv","","271","resources/trios/L2T2A3.jpg","39","restless",0.3,0.3,0.7,0.148284079129544,"true"
"image-keyboard-response",183,212121,"0.0-3.57-1.57","ahepvvdn2o6bszm",701,"145.csv","","null","resources/maskTrios/BBA3.jpg","null","",NA,NA,NA,NA,""
"image-keyboard-response",184,213324,"0.0-3.57-2.57","ahepvvdn2o6bszm",701,"145.csv","","null","resources/images/coin2.png","null","",NA,NA,NA,NA,""
"image-keyboard-response",185,213671,"0.0-3.58-0.58","ahepvvdn2o6bszm",701,"145.csv","","344.9999999999709","resources/trios/L4T4A3.jpg","38","restless",0.3,0.3,0.7,0.100677564769768,"true"
"image-keyboard-response",186,214075,"0.0-3.58-1.58","ahepvvdn2o6bszm",701,"145.csv","","null","resources/maskTrios/BT4B.jpg","null","",NA,NA,NA,NA,""
"image-keyboard-response",187,215278,"0.0-3.58-2.58","ahepvvdn2o6bszm",701,"145.csv","","null","resources/images/coin2.png","null","",NA,NA,NA,NA,""
"image-keyboard-response",188,215580,"0.0-3.59-0.59","ahepvvdn2o6bszm",701,"145.csv","","300","resources/trios/L4T2A1.jpg","39","restless",0.3,0.3,0.7,0.700564215019424,"false"
"image-keyboard-response",189,215984,"0.0-3.59-1.59","ahepvvdn2o6bszm",701,"145.csv","","null","resources/maskTrios/BBA1.jpg","null","",NA,NA,NA,NA,""
"image-keyboard-response",190,217186,"0.0-3.59-2.59","ahepvvdn2o6bszm",701,"145.csv","","null","resources/images/fishbone.png","null","",NA,NA,NA,NA,""
"image-keyboard-response",191,217938,"0.0-3.60-0.60","ahepvvdn2o6bszm",701,"145.csv","","748.9999999999709","resources/trios/L2T2A1.jpg","39","restless",0.3,0.3,0.7,0.48769736488693,"true"
"image-keyboard-response",192,218342,"0.0-3.60-1.60","ahepvvdn2o6bszm",701,"145.csv","","null","resources/maskTrios/BBA1.jpg","null","",NA,NA,NA,NA,""
"image-keyboard-response",193,219546,"0.0-3.60-2.60","ahepvvdn2o6bszm",701,"145.csv","","null","resources/images/coin2.png","null","",NA,NA,NA,NA,""
"image-keyboard-response",194,220037,"0.0-3.61-0.61","ahepvvdn2o6bszm",701,"145.csv","","488","resources/trios/L4T4A1.jpg","39","restless",0.2,0.3,0.7,0.102382895944055,"true"
"image-keyboard-response",195,220441,"0.0-3.61-1.61","ahepvvdn2o6bszm",701,"145.csv","","null","resources/maskTrios/BBA1.jpg","null","",NA,NA,NA,NA,""
"image-keyboard-response",196,221644,"0.0-3.61-2.61","ahepvvdn2o6bszm",701,"145.csv","","null","resources/images/coin2.png","null","",NA,NA,NA,NA,""
"image-keyboard-response",197,222005,"0.0-3.62-0.62","ahepvvdn2o6bszm",701,"145.csv","","359.0000000000291","resources/trios/L4T2A3.jpg","39","restless",0.2,0.3,0.7,0.898378963714176,"false"
"image-keyboard-response",198,222408,"0.0-3.62-1.62","ahepvvdn2o6bszm",701,"145.csv","","null","resources/maskTrios/BBA3.jpg","null","",NA,NA,NA,NA,""
"image-keyboard-response",199,223610,"0.0-3.62-2.62","ahepvvdn2o6bszm",701,"145.csv","","null","resources/images/fishbone.png","null","",NA,NA,NA,NA,""
"image-keyboard-response",200,223932,"0.0-3.63-0.63","ahepvvdn2o6bszm",701,"145.csv","","319","resources/trios/L4T2A3.jpg","38","restless",0.3,0.3,0.7,0.143412322464038,"true"
"image-keyboard-response",201,224335,"0.0-3.63-1.63","ahepvvdn2o6bszm",701,"145.csv","","null","resources/maskTrios/BT2B.jpg","null","",NA,NA,NA,NA,""
"image-keyboard-response",202,225539,"0.0-3.63-2.63","ahepvvdn2o6bszm",701,"145.csv","","null","resources/images/coin2.png","null","",NA,NA,NA,NA,""
"image-keyboard-response",203,225843,"0.0-3.64-0.64","ahepvvdn2o6bszm",701,"145.csv","","301.9999999999709","resources/trios/L4T4A3.jpg","39","restless",0.3,0.3,0.7,0.910502226323344,"false"
"image-keyboard-response",204,226246,"0.0-3.64-1.64","ahepvvdn2o6bszm",701,"145.csv","","null","resources/maskTrios/BBA3.jpg","null","",NA,NA,NA,NA,""
"image-keyboard-response",205,227449,"0.0-3.64-2.64","ahepvvdn2o6bszm",701,"145.csv","","null","resources/images/fishbone.png","null","",NA,NA,NA,NA,""
"image-keyboard-response",206,227718,"0.0-3.65-0.65","ahepvvdn2o6bszm",701,"145.csv","","267.0000000000291","resources/trios/L4T4A1.jpg","38","restless",0.3,0.3,0.7,0.272957510113816,"true"
"image-keyboard-response",207,228120,"0.0-3.65-1.65","ahepvvdn2o6bszm",701,"145.csv","","null","resources/maskTrios/BT4B.jpg","null","",NA,NA,NA,NA,""
"image-keyboard-response",208,229323,"0.0-3.65-2.65","ahepvvdn2o6bszm",701,"145.csv","","null","resources/images/coin2.png","null","",NA,NA,NA,NA,""
"image-keyboard-response",209,229614,"0.0-3.66-0.66","ahepvvdn2o6bszm",701,"145.csv","","288.9999999999709","resources/trios/L2T2A1.jpg","38","restless",0.3,0.3,0.7,0.611850120123694,"false"
"image-keyboard-response",210,230020,"0.0-3.66-1.66","ahepvvdn2o6bszm",701,"145.csv","","null","resources/maskTrios/BT2B.jpg","null","",NA,NA,NA,NA,""
"image-keyboard-response",211,231223,"0.0-3.66-2.66","ahepvvdn2o6bszm",701,"145.csv","","null","resources/images/fishbone.png","null","",NA,NA,NA,NA,""
"image-keyboard-response",212,231446,"0.0-3.67-0.67","ahepvvdn2o6bszm",701,"145.csv","","219","resources/trios/L4T2A1.jpg","39","restless",0.3,0.3,0.7,0.600022734751694,"true"
"image-keyboard-response",213,231850,"0.0-3.67-1.67","ahepvvdn2o6bszm",701,"145.csv","","null","resources/maskTrios/BBA1.jpg","null","",NA,NA,NA,NA,""
"image-keyboard-response",214,233056,"0.0-3.67-2.67","ahepvvdn2o6bszm",701,"145.csv","","null","resources/images/coin2.png","null","",NA,NA,NA,NA,""
"image-keyboard-response",215,233312,"0.0-3.68-0.68","ahepvvdn2o6bszm",701,"145.csv","","254","resources/trios/L2T2A3.jpg","39","restless",0.3,0.3,0.7,0.747938658561047,"false"
"image-keyboard-response",216,233716,"0.0-3.68-1.68","ahepvvdn2o6bszm",701,"145.csv","","null","resources/maskTrios/BBA3.jpg","null","",NA,NA,NA,NA,""
"image-keyboard-response",217,234918,"0.0-3.68-2.68","ahepvvdn2o6bszm",701,"145.csv","","null","resources/images/fishbone.png","null","",NA,NA,NA,NA,""
"image-keyboard-response",218,235183,"0.0-3.69-0.69","ahepvvdn2o6bszm",701,"145.csv","","261.9999999999709","resources/trios/L2T2A1.jpg","37","restless",0.3,0.3,0.7,0.881098200486352,"false"
"image-keyboard-response",219,235587,"0.0-3.69-1.69","ahepvvdn2o6bszm",701,"145.csv","","null","resources/maskTrios/L2BB.jpg","null","",NA,NA,NA,NA,""
"image-keyboard-response",220,236790,"0.0-3.69-2.69","ahepvvdn2o6bszm",701,"145.csv","","null","resources/images/fishbone.png","null","",NA,NA,NA,NA,""
"image-keyboard-response",221,237063,"0.0-3.70-0.70","ahepvvdn2o6bszm",701,"145.csv","","271","resources/trios/L2T2A1.jpg","38","restless",0.4,0.3,0.7,0.49049457140139,"false"
"image-keyboard-response",222,237466,"0.0-3.70-1.70","ahepvvdn2o6bszm",701,"145.csv","","null","resources/maskTrios/BT2B.jpg","null","",NA,NA,NA,NA,""
"image-keyboard-response",223,238669,"0.0-3.70-2.70","ahepvvdn2o6bszm",701,"145.csv","","null","resources/images/fishbone.png","null","",NA,NA,NA,NA,""
"image-keyboard-response",224,238931,"0.0-3.71-0.71","ahepvvdn2o6bszm",701,"145.csv","","258.9999999999709","resources/trios/L4T4A3.jpg","39","restless",0.4,0.3,0.7,0.575044882621418,"true"
"image-keyboard-response",225,239334,"0.0-3.71-1.71","ahepvvdn2o6bszm",701,"145.csv","","null","resources/maskTrios/BBA3.jpg","null","",NA,NA,NA,NA,""
"image-keyboard-response",226,240537,"0.0-3.71-2.71","ahepvvdn2o6bszm",701,"145.csv","","null","resources/images/coin2.png","null","",NA,NA,NA,NA,""
"image-keyboard-response",227,240868,"0.0-3.72-0.72","ahepvvdn2o6bszm",701,"145.csv","","329","resources/trios/L2T2A1.jpg","39","restless",0.4,0.3,0.7,0.248926328749081,"true"
"image-keyboard-response",228,241272,"0.0-3.72-1.72","ahepvvdn2o6bszm",701,"145.csv","","null","resources/maskTrios/BBA1.jpg","null","",NA,NA,NA,NA,""
"image-keyboard-response",229,242475,"0.0-3.72-2.72","ahepvvdn2o6bszm",701,"145.csv","","null","resources/images/coin2.png","null","",NA,NA,NA,NA,""
"image-keyboard-response",230,242669,"0.0-3.73-0.73","ahepvvdn2o6bszm",701,"145.csv","","192","resources/trios/L2T2A3.jpg","39","restless",0.5,0.3,0.7,0.240443463041812,"true"
"image-keyboard-response",231,243071,"0.0-3.73-1.73","ahepvvdn2o6bszm",701,"145.csv","","null","resources/maskTrios/BBA3.jpg","null","",NA,NA,NA,NA,""
"image-keyboard-response",232,244275,"0.0-3.73-2.73","ahepvvdn2o6bszm",701,"145.csv","","null","resources/images/coin2.png","null","",NA,NA,NA,NA,""
"image-keyboard-response",233,244539,"0.0-3.74-0.74","ahepvvdn2o6bszm",701,"145.csv","","263","resources/trios/L4T4A1.jpg","39","restless",0.5,0.4,0.7,0.357760491888407,"true"
"image-keyboard-response",234,244942,"0.0-3.74-1.74","ahepvvdn2o6bszm",701,"145.csv","","null","resources/maskTrios/BBA1.jpg","null","",NA,NA,NA,NA,""
"image-keyboard-response",235,246146,"0.0-3.74-2.74","ahepvvdn2o6bszm",701,"145.csv","","null","resources/images/coin2.png","null","",NA,NA,NA,NA,""
"image-keyboard-response",236,246471,"0.0-3.75-0.75","ahepvvdn2o6bszm",701,"145.csv","","320","resources/trios/L4T2A3.jpg","38","restless",0.5,0.4,0.7,0.196533302639767,"true"
"image-keyboard-response",237,246875,"0.0-3.75-1.75","ahepvvdn2o6bszm",701,"145.csv","","null","resources/maskTrios/BT2B.jpg","null","",NA,NA,NA,NA,""
"image-keyboard-response",238,248078,"0.0-3.75-2.75","ahepvvdn2o6bszm",701,"145.csv","","null","resources/images/coin2.png","null","",NA,NA,NA,NA,""
"image-keyboard-response",239,248362,"0.0-3.76-0.76","ahepvvdn2o6bszm",701,"145.csv","","281.0000000000291","resources/trios/L4T4A1.jpg","39","restless",0.6,0.4,0.7,0.313897888482294,"true"
"image-keyboard-response",240,248765,"0.0-3.76-1.76","ahepvvdn2o6bszm",701,"145.csv","","null","resources/maskTrios/BBA1.jpg","null","",NA,NA,NA,NA,""
"image-keyboard-response",241,249968,"0.0-3.76-2.76","ahepvvdn2o6bszm",701,"145.csv","","null","resources/images/coin2.png","null","",NA,NA,NA,NA,""
"image-keyboard-response",242,250206,"0.0-3.77-0.77","ahepvvdn2o6bszm",701,"145.csv","","235","resources/trios/L4T4A3.jpg","39","restless",0.6,0.4,0.7,0.50918283769197,"true"
"image-keyboard-response",243,250609,"0.0-3.77-1.77","ahepvvdn2o6bszm",701,"145.csv","","null","resources/maskTrios/BBA3.jpg","null","",NA,NA,NA,NA,""
"image-keyboard-response",244,251812,"0.0-3.77-2.77","ahepvvdn2o6bszm",701,"145.csv","","null","resources/images/coin2.png","null","",NA,NA,NA,NA,""
"image-keyboard-response",245,252064,"0.0-3.78-0.78","ahepvvdn2o6bszm",701,"145.csv","","250","resources/trios/L2T2A1.jpg","39","restless",0.6,0.4,0.7,0.198649407064523,"true"
"image-keyboard-response",246,252468,"0.0-3.78-1.78","ahepvvdn2o6bszm",701,"145.csv","","null","resources/maskTrios/BBA1.jpg","null","",NA,NA,NA,NA,""
"image-keyboard-response",247,253671,"0.0-3.78-2.78","ahepvvdn2o6bszm",701,"145.csv","","null","resources/images/coin2.png","null","",NA,NA,NA,NA,""
"image-keyboard-response",248,253929,"0.0-3.79-0.79","ahepvvdn2o6bszm",701,"145.csv","","253.0000000000582","resources/trios/L2T2A3.jpg","39","restless",0.6,0.4,0.7,0.130990457674514,"true"
"image-keyboard-response",249,254333,"0.0-3.79-1.79","ahepvvdn2o6bszm",701,"145.csv","","null","resources/maskTrios/BBA3.jpg","null","",NA,NA,NA,NA,""
"image-keyboard-response",250,255536,"0.0-3.79-2.79","ahepvvdn2o6bszm",701,"145.csv","","null","resources/images/coin2.png","null","",NA,NA,NA,NA,""
"image-keyboard-response",251,255737,"0.0-3.80-0.80","ahepvvdn2o6bszm",701,"145.csv","","199.0000000000291","resources/trios/L2T2A1.jpg","38","restless",0.6,0.4,0.7,0.0963422709637601,"true"
"image-keyboard-response",252,256140,"0.0-3.80-1.80","ahepvvdn2o6bszm",701,"145.csv","","null","resources/maskTrios/BT2B.jpg","null","",NA,NA,NA,NA,""
"image-keyboard-response",253,257343,"0.0-3.80-2.80","ahepvvdn2o6bszm",701,"145.csv","","null","resources/images/coin2.png","null","",NA,NA,NA,NA,""
"image-keyboard-response",254,257446,"0.0-3.81-0.81","ahepvvdn2o6bszm",701,"145.csv","","97.00000000005821","resources/trios/L4T2A1.jpg","39","restless",0.6,0.3,0.7,0.986934088610071,"false"
"image-keyboard-response",255,257849,"0.0-3.81-1.81","ahepvvdn2o6bszm",701,"145.csv","","null","resources/maskTrios/BBA1.jpg","null","",NA,NA,NA,NA,""
"image-keyboard-response",256,259052,"0.0-3.81-2.81","ahepvvdn2o6bszm",701,"145.csv","","null","resources/images/fishbone.png","null","",NA,NA,NA,NA,""
"image-keyboard-response",257,259273,"0.0-3.82-0.82","ahepvvdn2o6bszm",701,"145.csv","","218.0000000000291","resources/trios/L4T4A3.jpg","39","restless",0.6,0.3,0.7,0.821014030166955,"false"
"image-keyboard-response",258,259676,"0.0-3.82-1.82","ahepvvdn2o6bszm",701,"145.csv","","null","resources/maskTrios/BBA3.jpg","null","",NA,NA,NA,NA,""
"image-keyboard-response",259,260879,"0.0-3.82-2.82","ahepvvdn2o6bszm",701,"145.csv","","null","resources/images/fishbone.png","null","",NA,NA,NA,NA,""
"image-keyboard-response",260,261150,"0.0-3.83-0.83","ahepvvdn2o6bszm",701,"145.csv","","269","resources/trios/L2T4A1.jpg","39","restless",0.6,0.3,0.7,0.314623975828957,"true"
"image-keyboard-response",261,261554,"0.0-3.83-1.83","ahepvvdn2o6bszm",701,"145.csv","","null","resources/maskTrios/BBA1.jpg","null","",NA,NA,NA,NA,""
"image-keyboard-response",262,262757,"0.0-3.83-2.83","ahepvvdn2o6bszm",701,"145.csv","","null","resources/images/coin2.png","null","",NA,NA,NA,NA,""
"image-keyboard-response",263,263038,"0.0-3.84-0.84","ahepvvdn2o6bszm",701,"145.csv","","278","resources/trios/L4T4A1.jpg","39","restless",0.6,0.3,0.7,0.342917255130427,"true"
"image-keyboard-response",264,263441,"0.0-3.84-1.84","ahepvvdn2o6bszm",701,"145.csv","","null","resources/maskTrios/BBA1.jpg","null","",NA,NA,NA,NA,""
"image-keyboard-response",265,264644,"0.0-3.84-2.84","ahepvvdn2o6bszm",701,"145.csv","","null","resources/images/coin2.png","null","",NA,NA,NA,NA,""
"image-keyboard-response",266,264899,"0.0-3.85-0.85","ahepvvdn2o6bszm",701,"145.csv","","252","resources/trios/L4T4A3.jpg","39","restless",0.6,0.3,0.7,0.195588379635651,"true"
"image-keyboard-response",267,265302,"0.0-3.85-1.85","ahepvvdn2o6bszm",701,"145.csv","","null","resources/maskTrios/BBA3.jpg","null","",NA,NA,NA,NA,""
"image-keyboard-response",268,266507,"0.0-3.85-2.85","ahepvvdn2o6bszm",701,"145.csv","","null","resources/images/coin2.png","null","",NA,NA,NA,NA,""
"image-keyboard-response",269,266788,"0.0-3.86-0.86","ahepvvdn2o6bszm",701,"145.csv","","277","resources/trios/L2T4A3.jpg","39","restless",0.6,0.4,0.7,0.462473643031335,"true"
"image-keyboard-response",270,267191,"0.0-3.86-1.86","ahepvvdn2o6bszm",701,"145.csv","","null","resources/maskTrios/BBA3.jpg","null","",NA,NA,NA,NA,""
"image-keyboard-response",271,268394,"0.0-3.86-2.86","ahepvvdn2o6bszm",701,"145.csv","","null","resources/images/coin2.png","null","",NA,NA,NA,NA,""
"image-keyboard-response",272,268707,"0.0-3.87-0.87","ahepvvdn2o6bszm",701,"145.csv","","310","resources/trios/L2T4A1.jpg","38","restless",0.6,0.5,0.7,0.108640548597645,"true"
"image-keyboard-response",273,269110,"0.0-3.87-1.87","ahepvvdn2o6bszm",701,"145.csv","","null","resources/maskTrios/BT4B.jpg","null","",NA,NA,NA,NA,""
"image-keyboard-response",274,270313,"0.0-3.87-2.87","ahepvvdn2o6bszm",701,"145.csv","","null","resources/images/coin2.png","null","",NA,NA,NA,NA,""
"image-keyboard-response",275,270604,"0.0-3.88-0.88","ahepvvdn2o6bszm",701,"145.csv","","288","resources/trios/L2T4A1.jpg","38","restless",0.6,0.5,0.7,0.539719819431823,"false"
"image-keyboard-response",276,271007,"0.0-3.88-1.88","ahepvvdn2o6bszm",701,"145.csv","","null","resources/maskTrios/BT4B.jpg","null","",NA,NA,NA,NA,""
"image-keyboard-response",277,272210,"0.0-3.88-2.88","ahepvvdn2o6bszm",701,"145.csv","","null","resources/images/fishbone.png","null","",NA,NA,NA,NA,""
"image-keyboard-response",278,272451,"0.0-3.89-0.89","ahepvvdn2o6bszm",701,"145.csv","","236","resources/trios/L4T2A3.jpg","39","restless",0.6,0.6,0.7,0.491087955771682,"true"
"image-keyboard-response",279,272854,"0.0-3.89-1.89","ahepvvdn2o6bszm",701,"145.csv","","null","resources/maskTrios/BBA3.jpg","null","",NA,NA,NA,NA,""
"image-keyboard-response",280,274057,"0.0-3.89-2.89","ahepvvdn2o6bszm",701,"145.csv","","null","resources/images/coin2.png","null","",NA,NA,NA,NA,""
"image-keyboard-response",281,274328,"0.0-3.90-0.90","ahepvvdn2o6bszm",701,"145.csv","","269","resources/trios/L2T2A3.jpg","39","restless",0.6,0.6,0.7,0.274162220403327,"true"
"image-keyboard-response",282,274732,"0.0-3.90-1.90","ahepvvdn2o6bszm",701,"145.csv","","null","resources/maskTrios/BBA3.jpg","null","",NA,NA,NA,NA,""
"image-keyboard-response",283,275935,"0.0-3.90-2.90","ahepvvdn2o6bszm",701,"145.csv","","null","resources/images/coin2.png","null","",NA,NA,NA,NA,""
"image-keyboard-response",284,276290,"0.0-3.91-0.91","ahepvvdn2o6bszm",701,"145.csv","","353","resources/trios/L2T4A1.jpg","39","restless",0.6,0.6,0.6,0.412936068530906,"true"
"image-keyboard-response",285,276694,"0.0-3.91-1.91","ahepvvdn2o6bszm",701,"145.csv","","null","resources/maskTrios/BBA1.jpg","null","",NA,NA,NA,NA,""
"image-keyboard-response",286,277896,"0.0-3.91-2.91","ahepvvdn2o6bszm",701,"145.csv","","null","resources/images/coin2.png","null","",NA,NA,NA,NA,""
"image-keyboard-response",287,278248,"0.0-3.92-0.92","ahepvvdn2o6bszm",701,"145.csv","","346","resources/trios/L2T2A3.jpg","39","restless",0.6,0.6,0.6,0.281029665137496,"true"
"image-keyboard-response",288,278652,"0.0-3.92-1.92","ahepvvdn2o6bszm",701,"145.csv","","null","resources/maskTrios/BBA3.jpg","null","",NA,NA,NA,NA,""
"image-keyboard-response",289,279855,"0.0-3.92-2.92","ahepvvdn2o6bszm",701,"145.csv","","null","resources/images/coin2.png","null","",NA,NA,NA,NA,""
"image-keyboard-response",290,280190,"0.0-3.93-0.93","ahepvvdn2o6bszm",701,"145.csv","","333","resources/trios/L4T4A1.jpg","38","restless",0.6,0.6,0.5,0.636740149305533,"false"
"image-keyboard-response",291,280593,"0.0-3.93-1.93","ahepvvdn2o6bszm",701,"145.csv","","null","resources/maskTrios/BT4B.jpg","null","",NA,NA,NA,NA,""
"image-keyboard-response",292,281796,"0.0-3.93-2.93","ahepvvdn2o6bszm",701,"145.csv","","null","resources/images/fishbone.png","null","",NA,NA,NA,NA,""
"image-keyboard-response",293,282258,"0.0-3.94-0.94","ahepvvdn2o6bszm",701,"145.csv","","457","resources/trios/L2T2A1.jpg","38","restless",0.6,0.6,0.5,0.024695635445055,"true"
"image-keyboard-response",294,282661,"0.0-3.94-1.94","ahepvvdn2o6bszm",701,"145.csv","","null","resources/maskTrios/BT2B.jpg","null","",NA,NA,NA,NA,""
"image-keyboard-response",295,283864,"0.0-3.94-2.94","ahepvvdn2o6bszm",701,"145.csv","","null","resources/images/coin2.png","null","",NA,NA,NA,NA,""
"image-keyboard-response",296,284209,"0.0-3.95-0.95","ahepvvdn2o6bszm",701,"145.csv","","343.0000000000582","resources/trios/L4T2A1.jpg","39","restless",0.7,0.7,0.6,0.687678444996497,"false"
"image-keyboard-response",297,284612,"0.0-3.95-1.95","ahepvvdn2o6bszm",701,"145.csv","","null","resources/maskTrios/BBA1.jpg","null","",NA,NA,NA,NA,""
"image-keyboard-response",298,285815,"0.0-3.95-2.95","ahepvvdn2o6bszm",701,"145.csv","","null","resources/images/fishbone.png","null","",NA,NA,NA,NA,""
"image-keyboard-response",299,286139,"0.0-3.96-0.96","ahepvvdn2o6bszm",701,"145.csv","","321.9999999999418","resources/trios/L4T2A3.jpg","39","restless",0.7,0.7,0.6,0.39085497279507,"true"
"image-keyboard-response",300,286543,"0.0-3.96-1.96","ahepvvdn2o6bszm",701,"145.csv","","null","resources/maskTrios/BBA3.jpg","null","",NA,NA,NA,NA,""
"image-keyboard-response",301,287746,"0.0-3.96-2.96","ahepvvdn2o6bszm",701,"145.csv","","null","resources/images/coin2.png","null","",NA,NA,NA,NA,""
"image-keyboard-response",302,288018,"0.0-3.97-0.97","ahepvvdn2o6bszm",701,"145.csv","","270","resources/trios/L4T2A3.jpg","39","restless",0.7,0.7,0.6,0.543142356839942,"true"
"image-keyboard-response",303,288422,"0.0-3.97-1.97","ahepvvdn2o6bszm",701,"145.csv","","null","resources/maskTrios/BBA3.jpg","null","",NA,NA,NA,NA,""
"image-keyboard-response",304,289625,"0.0-3.97-2.97","ahepvvdn2o6bszm",701,"145.csv","","null","resources/images/coin2.png","null","",NA,NA,NA,NA,""
"image-keyboard-response",305,289941,"0.0-3.98-0.98","ahepvvdn2o6bszm",701,"145.csv","","310","resources/trios/L4T2A3.jpg","39","restless",0.7,0.7,0.6,0.132700080088115,"true"
"image-keyboard-response",306,290344,"0.0-3.98-1.98","ahepvvdn2o6bszm",701,"145.csv","","null","resources/maskTrios/BBA3.jpg","null","",NA,NA,NA,NA,""
"image-keyboard-response",307,291547,"0.0-3.98-2.98","ahepvvdn2o6bszm",701,"145.csv","","null","resources/images/coin2.png","null","",NA,NA,NA,NA,""
"image-keyboard-response",308,291725,"0.0-3.99-0.99","ahepvvdn2o6bszm",701,"145.csv","","175","resources/trios/L2T2A1.jpg","39","restless",0.7,0.7,0.6,0.594787784301517,"true"
"image-keyboard-response",309,292128,"0.0-3.99-1.99","ahepvvdn2o6bszm",701,"145.csv","","null","resources/maskTrios/BBA1.jpg","null","",NA,NA,NA,NA,""
"image-keyboard-response",310,293331,"0.0-3.99-2.99","ahepvvdn2o6bszm",701,"145.csv","","null","resources/images/coin2.png","null","",NA,NA,NA,NA,""
"image-keyboard-response",311,293687,"0.0-3.100-0.100","ahepvvdn2o6bszm",701,"145.csv","","350","resources/trios/L2T4A3.jpg","38","restless",0.7,0.7,0.6,0.995186579655023,"false"
"image-keyboard-response",312,294091,"0.0-3.100-1.100","ahepvvdn2o6bszm",701,"145.csv","","null","resources/maskTrios/BT4B.jpg","null","",NA,NA,NA,NA,""
"image-keyboard-response",313,295294,"0.0-3.100-2.100","ahepvvdn2o6bszm",701,"145.csv","","null","resources/images/fishbone.png","null","",NA,NA,NA,NA,""
"image-keyboard-response",314,295618,"0.0-3.101-0.101","ahepvvdn2o6bszm",701,"145.csv","","321","resources/trios/L2T2A3.jpg","38","restless",0.7,0.6,0.6,0.663038562871532,"false"
"image-keyboard-response",315,296022,"0.0-3.101-1.101","ahepvvdn2o6bszm",701,"145.csv","","null","resources/maskTrios/BT2B.jpg","null","",NA,NA,NA,NA,""
"image-keyboard-response",316,297225,"0.0-3.101-2.101","ahepvvdn2o6bszm",701,"145.csv","","null","resources/images/fishbone.png","null","",NA,NA,NA,NA,""
"image-keyboard-response",317,297466,"0.0-3.102-0.102","ahepvvdn2o6bszm",701,"145.csv","","239","resources/trios/L2T2A1.jpg","39","restless",0.8,0.6,0.6,0.913550238069385,"false"
"image-keyboard-response",318,297870,"0.0-3.102-1.102","ahepvvdn2o6bszm",701,"145.csv","","null","resources/maskTrios/BBA1.jpg","null","",NA,NA,NA,NA,""
"image-keyboard-response",319,299073,"0.0-3.102-2.102","ahepvvdn2o6bszm",701,"145.csv","","null","resources/images/fishbone.png","null","",NA,NA,NA,NA,""
"image-keyboard-response",320,299346,"0.0-3.103-0.103","ahepvvdn2o6bszm",701,"145.csv","","271.0000000000582","resources/trios/L4T2A1.jpg","39","restless",0.8,0.6,0.6,0.718854282612144,"false"
"image-keyboard-response",321,299749,"0.0-3.103-1.103","ahepvvdn2o6bszm",701,"145.csv","","null","resources/maskTrios/BBA1.jpg","null","",NA,NA,NA,NA,""
"image-keyboard-response",322,300951,"0.0-3.103-2.103","ahepvvdn2o6bszm",701,"145.csv","","null","resources/images/fishbone.png","null","",NA,NA,NA,NA,""
"image-keyboard-response",323,301218,"0.0-3.104-0.104","ahepvvdn2o6bszm",701,"145.csv","","264.9999999999418","resources/trios/L4T4A3.jpg","39","restless",0.9,0.6,0.6,0.928113240519236,"false"
"image-keyboard-response",324,301622,"0.0-3.104-1.104","ahepvvdn2o6bszm",701,"145.csv","","null","resources/maskTrios/BBA3.jpg","null","",NA,NA,NA,NA,""
"image-keyboard-response",325,302825,"0.0-3.104-2.104","ahepvvdn2o6bszm",701,"145.csv","","null","resources/images/fishbone.png","null","",NA,NA,NA,NA,""
"image-keyboard-response",326,303097,"0.0-3.105-0.105","ahepvvdn2o6bszm",701,"145.csv","","267","resources/trios/L2T4A3.jpg","39","restless",0.9,0.6,0.6,0.00500566569527516,"true"
"image-keyboard-response",327,303501,"0.0-3.105-1.105","ahepvvdn2o6bszm",701,"145.csv","","null","resources/maskTrios/BBA3.jpg","null","",NA,NA,NA,NA,""
"image-keyboard-response",328,304704,"0.0-3.105-2.105","ahepvvdn2o6bszm",701,"145.csv","","null","resources/images/coin2.png","null","",NA,NA,NA,NA,""
"image-keyboard-response",329,304968,"0.0-3.106-0.106","ahepvvdn2o6bszm",701,"145.csv","","262","resources/trios/L4T2A1.jpg","39","restless",0.9,0.6,0.6,0.924773285382544,"false"
"image-keyboard-response",330,305372,"0.0-3.106-1.106","ahepvvdn2o6bszm",701,"145.csv","","null","resources/maskTrios/BBA1.jpg","null","",NA,NA,NA,NA,""
"image-keyboard-response",331,306575,"0.0-3.106-2.106","ahepvvdn2o6bszm",701,"145.csv","","null","resources/images/fishbone.png","null","",NA,NA,NA,NA,""
"image-keyboard-response",332,306848,"0.0-3.107-0.107","ahepvvdn2o6bszm",701,"145.csv","","271","resources/trios/L4T4A3.jpg","39","restless",0.9,0.5,0.6,0.715052899064615,"false"
"image-keyboard-response",333,307251,"0.0-3.107-1.107","ahepvvdn2o6bszm",701,"145.csv","","null","resources/maskTrios/BBA3.jpg","null","",NA,NA,NA,NA,""
"image-keyboard-response",334,308454,"0.0-3.107-2.107","ahepvvdn2o6bszm",701,"145.csv","","null","resources/images/fishbone.png","null","",NA,NA,NA,NA,""
"image-keyboard-response",335,308788,"0.0-3.108-0.108","ahepvvdn2o6bszm",701,"145.csv","","328","resources/trios/L2T2A1.jpg","37","restless",0.9,0.5,0.6,0.385131707762267,"true"
"image-keyboard-response",336,309192,"0.0-3.108-1.108","ahepvvdn2o6bszm",701,"145.csv","","null","resources/maskTrios/L2BB.jpg","null","",NA,NA,NA,NA,""
"image-keyboard-response",337,310395,"0.0-3.108-2.108","ahepvvdn2o6bszm",701,"145.csv","","null","resources/images/coin2.png","null","",NA,NA,NA,NA,""
"image-keyboard-response",338,310651,"0.0-3.109-0.109","ahepvvdn2o6bszm",701,"145.csv","","253","resources/trios/L2T2A3.jpg","37","restless",0.9,0.5,0.6,0.444976942710395,"true"
"image-keyboard-response",339,311054,"0.0-3.109-1.109","ahepvvdn2o6bszm",701,"145.csv","","null","resources/maskTrios/L2BB.jpg","null","",NA,NA,NA,NA,""
"image-keyboard-response",340,312257,"0.0-3.109-2.109","ahepvvdn2o6bszm",701,"145.csv","","null","resources/images/coin2.png","null","",NA,NA,NA,NA,""
"image-keyboard-response",341,312542,"0.0-3.110-0.110","ahepvvdn2o6bszm",701,"145.csv","","283","resources/trios/L4T2A1.jpg","37","restless",0.9,0.5,0.6,0.132110535402706,"true"
"image-keyboard-response",342,312945,"0.0-3.110-1.110","ahepvvdn2o6bszm",701,"145.csv","","null","resources/maskTrios/L4BB.jpg","null","",NA,NA,NA,NA,""
"image-keyboard-response",343,314148,"0.0-3.110-2.110","ahepvvdn2o6bszm",701,"145.csv","","null","resources/images/coin2.png","null","",NA,NA,NA,NA,""
"image-keyboard-response",344,314440,"0.0-3.111-0.111","ahepvvdn2o6bszm",701,"145.csv","","290","resources/trios/L4T2A3.jpg","37","restless",0.9,0.5,0.6,0.377007965269194,"true"
"image-keyboard-response",345,314844,"0.0-3.111-1.111","ahepvvdn2o6bszm",701,"145.csv","","null","resources/maskTrios/L4BB.jpg","null","",NA,NA,NA,NA,""
"image-keyboard-response",346,316047,"0.0-3.111-2.111","ahepvvdn2o6bszm",701,"145.csv","","null","resources/images/coin2.png","null","",NA,NA,NA,NA,""
"image-keyboard-response",347,316349,"0.0-3.112-0.112","ahepvvdn2o6bszm",701,"145.csv","","300","resources/trios/L4T2A3.jpg","37","restless",0.9,0.5,0.6,0.629149018354917,"true"
"image-keyboard-response",348,316752,"0.0-3.112-1.112","ahepvvdn2o6bszm",701,"145.csv","","null","resources/maskTrios/L4BB.jpg","null","",NA,NA,NA,NA,""
"image-keyboard-response",349,317956,"0.0-3.112-2.112","ahepvvdn2o6bszm",701,"145.csv","","null","resources/images/coin2.png","null","",NA,NA,NA,NA,""
"image-keyboard-response",350,318253,"0.0-3.113-0.113","ahepvvdn2o6bszm",701,"145.csv","","295","resources/trios/L2T4A3.jpg","37","restless",0.9,0.5,0.7,0.0910813077309669,"true"
"image-keyboard-response",351,318659,"0.0-3.113-1.113","ahepvvdn2o6bszm",701,"145.csv","","null","resources/maskTrios/L2BB.jpg","null","",NA,NA,NA,NA,""
"image-keyboard-response",352,319862,"0.0-3.113-2.113","ahepvvdn2o6bszm",701,"145.csv","","null","resources/images/coin2.png","null","",NA,NA,NA,NA,""
"image-keyboard-response",353,320252,"0.0-3.114-0.114","ahepvvdn2o6bszm",701,"145.csv","","387","resources/trios/L2T2A3.jpg","37","restless",0.9,0.5,0.7,0.844175677999516,"true"
"image-keyboard-response",354,320656,"0.0-3.114-1.114","ahepvvdn2o6bszm",701,"145.csv","","null","resources/maskTrios/L2BB.jpg","null","",NA,NA,NA,NA,""
"image-keyboard-response",355,321862,"0.0-3.114-2.114","ahepvvdn2o6bszm",701,"145.csv","","null","resources/images/coin2.png","null","",NA,NA,NA,NA,""
"image-keyboard-response",356,322290,"0.0-3.115-0.115","ahepvvdn2o6bszm",701,"145.csv","","425","resources/trios/L2T4A1.jpg","37","restless",0.9,0.5,0.7,0.796889216886365,"true"
"image-keyboard-response",357,322694,"0.0-3.115-1.115","ahepvvdn2o6bszm",701,"145.csv","","null","resources/maskTrios/L2BB.jpg","null","",NA,NA,NA,NA,""
"image-keyboard-response",358,323897,"0.0-3.115-2.115","ahepvvdn2o6bszm",701,"145.csv","","null","resources/images/coin2.png","null","",NA,NA,NA,NA,""
"image-keyboard-response",359,324148,"0.0-3.116-0.116","ahepvvdn2o6bszm",701,"145.csv","","249","resources/trios/L2T2A1.jpg","37","restless",0.9,0.5,0.7,0.00668329377369314,"true"
"image-keyboard-response",360,324552,"0.0-3.116-1.116","ahepvvdn2o6bszm",701,"145.csv","","null","resources/maskTrios/L2BB.jpg","null","",NA,NA,NA,NA,""
"image-keyboard-response",361,325755,"0.0-3.116-2.116","ahepvvdn2o6bszm",701,"145.csv","","null","resources/images/coin2.png","null","",NA,NA,NA,NA,""
"image-keyboard-response",362,326032,"0.0-3.117-0.117","ahepvvdn2o6bszm",701,"145.csv","","274","resources/trios/L4T2A3.jpg","37","restless",0.9,0.5,0.7,0.299889481068958,"true"
"image-keyboard-response",363,326435,"0.0-3.117-1.117","ahepvvdn2o6bszm",701,"145.csv","","null","resources/maskTrios/L4BB.jpg","null","",NA,NA,NA,NA,""
"image-keyboard-response",364,327639,"0.0-3.117-2.117","ahepvvdn2o6bszm",701,"145.csv","","null","resources/images/coin2.png","null","",NA,NA,NA,NA,""
"image-keyboard-response",365,327702,"0.0-3.118-0.118","ahepvvdn2o6bszm",701,"145.csv","","61","resources/trios/L4T2A1.jpg","37","restless",0.9,0.5,0.7,0.656852245574882,"true"
"image-keyboard-response",366,328104,"0.0-3.118-1.118","ahepvvdn2o6bszm",701,"145.csv","","null","resources/maskTrios/L4BB.jpg","null","",NA,NA,NA,NA,""
"image-keyboard-response",367,329307,"0.0-3.118-2.118","ahepvvdn2o6bszm",701,"145.csv","","null","resources/images/coin2.png","null","",NA,NA,NA,NA,""
"image-keyboard-response",368,329575,"0.0-3.119-0.119","ahepvvdn2o6bszm",701,"145.csv","","266","resources/trios/L2T2A1.jpg","37","restless",0.9,0.4,0.7,0.975367788616352,"false"
"image-keyboard-response",369,329978,"0.0-3.119-1.119","ahepvvdn2o6bszm",701,"145.csv","","null","resources/maskTrios/L2BB.jpg","null","",NA,NA,NA,NA,""
"image-keyboard-response",370,331181,"0.0-3.119-2.119","ahepvvdn2o6bszm",701,"145.csv","","null","resources/images/fishbone.png","null","",NA,NA,NA,NA,""
"image-keyboard-response",371,331423,"0.0-3.120-0.120","ahepvvdn2o6bszm",701,"145.csv","","239","resources/trios/L4T4A1.jpg","38","restless",0.9,0.4,0.7,0.499763133292476,"false"
"image-keyboard-response",372,331826,"0.0-3.120-1.120","ahepvvdn2o6bszm",701,"145.csv","","null","resources/maskTrios/BT4B.jpg","null","",NA,NA,NA,NA,""
"image-keyboard-response",373,333029,"0.0-3.120-2.120","ahepvvdn2o6bszm",701,"145.csv","","null","resources/images/fishbone.png","null","",NA,NA,NA,NA,""
"image-keyboard-response",374,333368,"0.0-3.121-0.121","ahepvvdn2o6bszm",701,"145.csv","","332","resources/trios/L2T4A1.jpg","37","restless",0.9,0.4,0.7,0.989694258721458,"false"
"image-keyboard-response",375,333772,"0.0-3.121-1.121","ahepvvdn2o6bszm",701,"145.csv","","null","resources/maskTrios/L2BB.jpg","null","",NA,NA,NA,NA,""
"image-keyboard-response",376,334975,"0.0-3.121-2.121","ahepvvdn2o6bszm",701,"145.csv","","null","resources/images/fishbone.png","null","",NA,NA,NA,NA,""
"image-keyboard-response",377,334999,"0.0-3.122-0.122","ahepvvdn2o6bszm",701,"145.csv","","22","resources/trios/L4T2A1.jpg","39","restless",0.9,0.4,0.7,0.467437847211401,"true"
"image-keyboard-response",378,335401,"0.0-3.122-1.122","ahepvvdn2o6bszm",701,"145.csv","","null","resources/maskTrios/BBA1.jpg","null","",NA,NA,NA,NA,""
"image-keyboard-response",379,336604,"0.0-3.122-2.122","ahepvvdn2o6bszm",701,"145.csv","","null","resources/images/coin2.png","null","",NA,NA,NA,NA,""
"image-keyboard-response",380,336867,"0.0-3.123-0.123","ahepvvdn2o6bszm",701,"145.csv","","260","resources/trios/L2T4A1.jpg","39","restless",0.9,0.4,0.7,0.39389778929455,"true"
"image-keyboard-response",381,337270,"0.0-3.123-1.123","ahepvvdn2o6bszm",701,"145.csv","","null","resources/maskTrios/BBA1.jpg","null","",NA,NA,NA,NA,""
"image-keyboard-response",382,338474,"0.0-3.123-2.123","ahepvvdn2o6bszm",701,"145.csv","","null","resources/images/coin2.png","null","",NA,NA,NA,NA,""
"image-keyboard-response",383,338748,"0.0-3.124-0.124","ahepvvdn2o6bszm",701,"145.csv","","273","resources/trios/L4T4A1.jpg","39","restless",0.9,0.4,0.7,0.922955705079771,"false"
"image-keyboard-response",384,339151,"0.0-3.124-1.124","ahepvvdn2o6bszm",701,"145.csv","","null","resources/maskTrios/BBA1.jpg","null","",NA,NA,NA,NA,""
"image-keyboard-response",385,340354,"0.0-3.124-2.124","ahepvvdn2o6bszm",701,"145.csv","","null","resources/images/fishbone.png","null","",NA,NA,NA,NA,""
"image-keyboard-response",386,340713,"0.0-3.125-0.125","ahepvvdn2o6bszm",701,"145.csv","","356","resources/trios/L4T2A1.jpg","37","restless",0.8,0.4,0.8,0.375510462986634,"true"
"image-keyboard-response",387,341117,"0.0-3.125-1.125","ahepvvdn2o6bszm",701,"145.csv","","null","resources/maskTrios/L4BB.jpg","null","",NA,NA,NA,NA,""
"image-keyboard-response",388,342320,"0.0-3.125-2.125","ahepvvdn2o6bszm",701,"145.csv","","null","resources/images/coin2.png","null","",NA,NA,NA,NA,""
"image-keyboard-response",389,342630,"0.0-3.126-0.126","ahepvvdn2o6bszm",701,"145.csv","","305","resources/trios/L2T4A1.jpg","37","restless",0.8,0.4,0.8,0.47138262323183,"true"
"image-keyboard-response",390,343033,"0.0-3.126-1.126","ahepvvdn2o6bszm",701,"145.csv","","null","resources/maskTrios/L2BB.jpg","null","",NA,NA,NA,NA,""
"image-keyboard-response",391,344236,"0.0-3.126-2.126","ahepvvdn2o6bszm",701,"145.csv","","null","resources/images/coin2.png","null","",NA,NA,NA,NA,""
"image-keyboard-response",392,344544,"0.0-3.127-0.127","ahepvvdn2o6bszm",701,"145.csv","","305","resources/trios/L2T4A3.jpg","37","restless",0.8,0.4,0.8,0.2665231706552,"true"
"image-keyboard-response",393,344947,"0.0-3.127-1.127","ahepvvdn2o6bszm",701,"145.csv","","null","resources/maskTrios/L2BB.jpg","null","",NA,NA,NA,NA,""
"image-keyboard-response",394,346151,"0.0-3.127-2.127","ahepvvdn2o6bszm",701,"145.csv","","null","resources/images/coin2.png","null","",NA,NA,NA,NA,""
"image-keyboard-response",395,346419,"0.0-3.128-0.128","ahepvvdn2o6bszm",701,"145.csv","","266","resources/trios/L4T2A1.jpg","37","restless",0.8,0.4,0.7,0.425750719156372,"true"
"image-keyboard-response",396,346822,"0.0-3.128-1.128","ahepvvdn2o6bszm",701,"145.csv","","null","resources/maskTrios/L4BB.jpg","null","",NA,NA,NA,NA,""
"image-keyboard-response",397,348029,"0.0-3.128-2.128","ahepvvdn2o6bszm",701,"145.csv","","null","resources/images/coin2.png","null","",NA,NA,NA,NA,""
"image-keyboard-response",398,348294,"0.0-3.129-0.129","ahepvvdn2o6bszm",701,"145.csv","","261","resources/trios/L2T4A1.jpg","37","restless",0.8,0.4,0.7,0.46360393873614,"true"
"image-keyboard-response",399,348697,"0.0-3.129-1.129","ahepvvdn2o6bszm",701,"145.csv","","null","resources/maskTrios/L2BB.jpg","null","",NA,NA,NA,NA,""
"image-keyboard-response",400,349901,"0.0-3.129-2.129","ahepvvdn2o6bszm",701,"145.csv","","null","resources/images/coin2.png","null","",NA,NA,NA,NA,""
"image-keyboard-response",401,350930,"0.0-3.130-0.130","ahepvvdn2o6bszm",701,"145.csv","","1026.0000000000582","resources/trios/L4T4A3.jpg","37","restless",0.8,0.4,0.7,0.242843593244744,"true"
"image-keyboard-response",402,351333,"0.0-3.130-1.130","ahepvvdn2o6bszm",701,"145.csv","","null","resources/maskTrios/L4BB.jpg","null","",NA,NA,NA,NA,""
"image-keyboard-response",403,352536,"0.0-3.130-2.130","ahepvvdn2o6bszm",701,"145.csv","","null","resources/images/coin2.png","null","",NA,NA,NA,NA,""
"image-keyboard-response",404,352833,"0.0-3.131-0.131","ahepvvdn2o6bszm",701,"145.csv","","291","resources/trios/L4T2A1.jpg","37","restless",0.8,0.4,0.7,0.719468234217068,"true"
"image-keyboard-response",405,353236,"0.0-3.131-1.131","ahepvvdn2o6bszm",701,"145.csv","","null","resources/maskTrios/L4BB.jpg","null","",NA,NA,NA,NA,""
"image-keyboard-response",406,354439,"0.0-3.131-2.131","ahepvvdn2o6bszm",701,"145.csv","","null","resources/images/coin2.png","null","",NA,NA,NA,NA,""
"image-keyboard-response",407,354801,"0.0-3.132-0.132","ahepvvdn2o6bszm",701,"145.csv","","358.9999999999418","resources/trios/L4T2A1.jpg","39","restless",0.8,0.4,0.8,0.236429248385143,"true"
"image-keyboard-response",408,355204,"0.0-3.132-1.132","ahepvvdn2o6bszm",701,"145.csv","","null","resources/maskTrios/BBA1.jpg","null","",NA,NA,NA,NA,""
"image-keyboard-response",409,356407,"0.0-3.132-2.132","ahepvvdn2o6bszm",701,"145.csv","","null","resources/images/coin2.png","null","",NA,NA,NA,NA,""
"image-keyboard-response",410,356672,"0.0-3.133-0.133","ahepvvdn2o6bszm",701,"145.csv","","259","resources/trios/L2T2A3.jpg","39","restless",0.8,0.5,0.8,0.491814948357293,"true"
"image-keyboard-response",411,357076,"0.0-3.133-1.133","ahepvvdn2o6bszm",701,"145.csv","","null","resources/maskTrios/BBA3.jpg","null","",NA,NA,NA,NA,""
"image-keyboard-response",412,358279,"0.0-3.133-2.133","ahepvvdn2o6bszm",701,"145.csv","","null","resources/images/coin2.png","null","",NA,NA,NA,NA,""
"image-keyboard-response",413,358655,"0.0-3.134-0.134","ahepvvdn2o6bszm",701,"145.csv","","373.0000000000582","resources/trios/L2T4A3.jpg","39","restless",0.8,0.5,0.8,0.593462757241755,"true"
"image-keyboard-response",414,359058,"0.0-3.134-1.134","ahepvvdn2o6bszm",701,"145.csv","","null","resources/maskTrios/BBA3.jpg","null","",NA,NA,NA,NA,""
"image-keyboard-response",415,360261,"0.0-3.134-2.134","ahepvvdn2o6bszm",701,"145.csv","","null","resources/images/coin2.png","null","",NA,NA,NA,NA,""
"image-keyboard-response",416,360565,"0.0-3.135-0.135","ahepvvdn2o6bszm",701,"145.csv","","301","resources/trios/L4T4A3.jpg","39","restless",0.8,0.5,0.8,0.994256873425667,"false"
"image-keyboard-response",417,360968,"0.0-3.135-1.135","ahepvvdn2o6bszm",701,"145.csv","","null","resources/maskTrios/BBA3.jpg","null","",NA,NA,NA,NA,""
"image-keyboard-response",418,362171,"0.0-3.135-2.135","ahepvvdn2o6bszm",701,"145.csv","","null","resources/images/fishbone.png","null","",NA,NA,NA,NA,""
"image-keyboard-response",419,362472,"0.0-3.136-0.136","ahepvvdn2o6bszm",701,"145.csv","","298","resources/trios/L4T2A1.jpg","37","restless",0.8,0.5,0.8,0.960061163945302,"false"
"image-keyboard-response",420,362875,"0.0-3.136-1.136","ahepvvdn2o6bszm",701,"145.csv","","null","resources/maskTrios/L4BB.jpg","null","",NA,NA,NA,NA,""
"image-keyboard-response",421,364078,"0.0-3.136-2.136","ahepvvdn2o6bszm",701,"145.csv","","null","resources/images/fishbone.png","null","",NA,NA,NA,NA,""
"image-keyboard-response",422,364966,"0.0-3.137-0.137","ahepvvdn2o6bszm",701,"145.csv","","886","resources/trios/L2T2A1.jpg","37","restless",0.8,0.5,0.8,0.411483802575136,"true"
"image-keyboard-response",423,365370,"0.0-3.137-1.137","ahepvvdn2o6bszm",701,"145.csv","","null","resources/maskTrios/L2BB.jpg","null","",NA,NA,NA,NA,""
"image-keyboard-response",424,366572,"0.0-3.137-2.137","ahepvvdn2o6bszm",701,"145.csv","","null","resources/images/coin2.png","null","",NA,NA,NA,NA,""
"image-keyboard-response",425,367044,"0.0-3.138-0.138","ahepvvdn2o6bszm",701,"145.csv","","470","resources/trios/L2T4A1.jpg","37","restless",0.7,0.4,0.8,0.89144823455528,"false"
"image-keyboard-response",426,367448,"0.0-3.138-1.138","ahepvvdn2o6bszm",701,"145.csv","","null","resources/maskTrios/L2BB.jpg","null","",NA,NA,NA,NA,""
"image-keyboard-response",427,368650,"0.0-3.138-2.138","ahepvvdn2o6bszm",701,"145.csv","","null","resources/images/fishbone.png","null","",NA,NA,NA,NA,""
"image-keyboard-response",428,369616,"0.0-3.139-0.139","ahepvvdn2o6bszm",701,"145.csv","","962","resources/trios/L2T4A3.jpg","38","restless",0.7,0.4,0.8,0.158410130717845,"true"
"image-keyboard-response",429,370019,"0.0-3.139-1.139","ahepvvdn2o6bszm",701,"145.csv","","null","resources/maskTrios/BT4B.jpg","null","",NA,NA,NA,NA,""
"image-keyboard-response",430,371222,"0.0-3.139-2.139","ahepvvdn2o6bszm",701,"145.csv","","null","resources/images/coin2.png","null","",NA,NA,NA,NA,""
"image-keyboard-response",431,372056,"0.0-3.140-0.140","ahepvvdn2o6bszm",701,"145.csv","","832","resources/trios/L2T4A3.jpg","38","restless",0.8,0.4,0.8,0.314256948983174,"true"
"image-keyboard-response",432,372462,"0.0-3.140-1.140","ahepvvdn2o6bszm",701,"145.csv","","null","resources/maskTrios/BT4B.jpg","null","",NA,NA,NA,NA,""
"image-keyboard-response",433,373665,"0.0-3.140-2.140","ahepvvdn2o6bszm",701,"145.csv","","null","resources/images/coin2.png","null","",NA,NA,NA,NA,""
"image-keyboard-response",434,373966,"0.0-3.141-0.141","ahepvvdn2o6bszm",701,"145.csv","","298","resources/trios/L4T2A1.jpg","38","restless",0.8,0.4,0.8,0.345431837161138,"true"
"image-keyboard-response",435,374370,"0.0-3.141-1.141","ahepvvdn2o6bszm",701,"145.csv","","null","resources/maskTrios/BT2B.jpg","null","",NA,NA,NA,NA,""
"image-keyboard-response",436,375576,"0.0-3.141-2.141","ahepvvdn2o6bszm",701,"145.csv","","null","resources/images/coin2.png","null","",NA,NA,NA,NA,""
"image-keyboard-response",437,375949,"0.0-3.142-0.142","ahepvvdn2o6bszm",701,"145.csv","","369","resources/trios/L4T4A1.jpg","38","restless",0.8,0.4,0.8,0.71696269387495,"false"
"image-keyboard-response",438,376352,"0.0-3.142-1.142","ahepvvdn2o6bszm",701,"145.csv","","null","resources/maskTrios/BT4B.jpg","null","",NA,NA,NA,NA,""
"image-keyboard-response",439,377555,"0.0-3.142-2.142","ahepvvdn2o6bszm",701,"145.csv","","null","resources/images/fishbone.png","null","",NA,NA,NA,NA,""
"image-keyboard-response",440,377848,"0.0-3.143-0.143","ahepvvdn2o6bszm",701,"145.csv","","290","resources/trios/L2T4A3.jpg","37","restless",0.8,0.4,0.8,0.0585942222764521,"true"
"image-keyboard-response",441,378251,"0.0-3.143-1.143","ahepvvdn2o6bszm",701,"145.csv","","null","resources/maskTrios/L2BB.jpg","null","",NA,NA,NA,NA,""
"image-keyboard-response",442,379454,"0.0-3.143-2.143","ahepvvdn2o6bszm",701,"145.csv","","null","resources/images/coin2.png","null","",NA,NA,NA,NA,""
"image-keyboard-response",443,379788,"0.0-3.144-0.144","ahepvvdn2o6bszm",701,"145.csv","","331","resources/trios/L4T4A3.jpg","37","restless",0.8,0.4,0.8,0.810844466090682,"false"
"image-keyboard-response",444,380192,"0.0-3.144-1.144","ahepvvdn2o6bszm",701,"145.csv","","null","resources/maskTrios/L4BB.jpg","null","",NA,NA,NA,NA,""
"image-keyboard-response",445,381395,"0.0-3.144-2.144","ahepvvdn2o6bszm",701,"145.csv","","null","resources/images/fishbone.png","null","",NA,NA,NA,NA,""
"image-keyboard-response",446,381751,"0.0-3.145-0.145","ahepvvdn2o6bszm",701,"145.csv","","354.0000000000582","resources/trios/L2T2A1.jpg","39","restless",0.8,0.4,0.8,0.337880140519357,"true"
"image-keyboard-response",447,382155,"0.0-3.145-1.145","ahepvvdn2o6bszm",701,"145.csv","","null","resources/maskTrios/BBA1.jpg","null","",NA,NA,NA,NA,""
"image-keyboard-response",448,383358,"0.0-3.145-2.145","ahepvvdn2o6bszm",701,"145.csv","","null","resources/images/coin2.png","null","",NA,NA,NA,NA,""
"image-keyboard-response",449,383680,"0.0-3.146-0.146","ahepvvdn2o6bszm",701,"145.csv","","320","resources/trios/L2T4A1.jpg","39","restless",0.8,0.4,0.8,0.661886629872829,"true"
"image-keyboard-response",450,384084,"0.0-3.146-1.146","ahepvvdn2o6bszm",701,"145.csv","","null","resources/maskTrios/BBA1.jpg","null","",NA,NA,NA,NA,""
"image-keyboard-response",451,385290,"0.0-3.146-2.146","ahepvvdn2o6bszm",701,"145.csv","","null","resources/images/coin2.png","null","",NA,NA,NA,NA,""
"image-keyboard-response",452,385673,"0.0-3.147-0.147","ahepvvdn2o6bszm",701,"145.csv","","380","resources/trios/L4T4A1.jpg","39","restless",0.8,0.4,0.8,0.279971181904079,"true"
"image-keyboard-response",453,386077,"0.0-3.147-1.147","ahepvvdn2o6bszm",701,"145.csv","","null","resources/maskTrios/BBA1.jpg","null","",NA,NA,NA,NA,""
"image-keyboard-response",454,387280,"0.0-3.147-2.147","ahepvvdn2o6bszm",701,"145.csv","","null","resources/images/coin2.png","null","",NA,NA,NA,NA,""
"image-keyboard-response",455,387690,"0.0-3.148-0.148","ahepvvdn2o6bszm",701,"145.csv","","407","resources/trios/L2T2A3.jpg","39","restless",0.7,0.4,0.8,0.641053191433285,"true"
"image-keyboard-response",456,388093,"0.0-3.148-1.148","ahepvvdn2o6bszm",701,"145.csv","","null","resources/maskTrios/BBA3.jpg","null","",NA,NA,NA,NA,""
"image-keyboard-response",457,389297,"0.0-3.148-2.148","ahepvvdn2o6bszm",701,"145.csv","","null","resources/images/coin2.png","null","",NA,NA,NA,NA,""
"image-keyboard-response",458,389615,"0.0-3.149-0.149","ahepvvdn2o6bszm",701,"145.csv","","316","resources/trios/L2T4A3.jpg","39","restless",0.7,0.4,0.8,0.455426641265823,"true"
"image-keyboard-response",459,390018,"0.0-3.149-1.149","ahepvvdn2o6bszm",701,"145.csv","","null","resources/maskTrios/BBA3.jpg","null","",NA,NA,NA,NA,""
"image-keyboard-response",460,391222,"0.0-3.149-2.149","ahepvvdn2o6bszm",701,"145.csv","","null","resources/images/coin2.png","null","",NA,NA,NA,NA,""
"image-keyboard-response",461,391648,"0.0-3.150-0.150","ahepvvdn2o6bszm",701,"145.csv","","420.9999999999418","resources/trios/L2T4A1.jpg","39","restless",0.7,0.4,0.8,0.810457706479245,"false"
"image-keyboard-response",462,392052,"0.0-3.150-1.150","ahepvvdn2o6bszm",701,"145.csv","","null","resources/maskTrios/BBA1.jpg","null","",NA,NA,NA,NA,""
"image-keyboard-response",463,393259,"0.0-3.150-2.150","ahepvvdn2o6bszm",701,"145.csv","","null","resources/images/fishbone.png","null","",NA,NA,NA,NA,""
"image-keyboard-response",464,393590,"0.0-3.151-0.151","ahepvvdn2o6bszm",701,"145.csv","","328.0000000000582","resources/trios/L2T4A3.jpg","37","restless",0.7,0.4,0.8,0.879879389428548,"false"
"image-keyboard-response",465,393994,"0.0-3.151-1.151","ahepvvdn2o6bszm",701,"145.csv","","null","resources/maskTrios/L2BB.jpg","null","",NA,NA,NA,NA,""
"image-keyboard-response",466,395197,"0.0-3.151-2.151","ahepvvdn2o6bszm",701,"145.csv","","null","resources/images/fishbone.png","null","",NA,NA,NA,NA,""
"image-keyboard-response",467,395429,"0.0-3.152-0.152","ahepvvdn2o6bszm",701,"145.csv","","230.0000000000582","resources/trios/L2T2A3.jpg","37","restless",0.7,0.4,0.8,0.326032047581367,"true"
"image-keyboard-response",468,395832,"0.0-3.152-1.152","ahepvvdn2o6bszm",701,"145.csv","","null","resources/maskTrios/L2BB.jpg","null","",NA,NA,NA,NA,""
"image-keyboard-response",469,397036,"0.0-3.152-2.152","ahepvvdn2o6bszm",701,"145.csv","","null","resources/images/coin2.png","null","",NA,NA,NA,NA,""
"image-keyboard-response",470,397305,"0.0-3.153-0.153","ahepvvdn2o6bszm",701,"145.csv","","267","resources/trios/L2T2A1.jpg","37","restless",0.7,0.4,0.8,0.329374338862472,"true"
"image-keyboard-response",471,397711,"0.0-3.153-1.153","ahepvvdn2o6bszm",701,"145.csv","","null","resources/maskTrios/L2BB.jpg","null","",NA,NA,NA,NA,""
"image-keyboard-response",472,398914,"0.0-3.153-2.153","ahepvvdn2o6bszm",701,"145.csv","","null","resources/images/coin2.png","null","",NA,NA,NA,NA,""
"image-keyboard-response",473,399214,"0.0-3.154-0.154","ahepvvdn2o6bszm",701,"145.csv","","296.9999999999418","resources/trios/L4T2A3.jpg","37","restless",0.7,0.4,0.8,0.32735784601692,"true"
"image-keyboard-response",474,399618,"0.0-3.154-1.154","ahepvvdn2o6bszm",701,"145.csv","","null","resources/maskTrios/L4BB.jpg","null","",NA,NA,NA,NA,""
"image-keyboard-response",475,400821,"0.0-3.154-2.154","ahepvvdn2o6bszm",701,"145.csv","","null","resources/images/coin2.png","null","",NA,NA,NA,NA,""
"image-keyboard-response",476,401117,"0.0-3.155-0.155","ahepvvdn2o6bszm",701,"145.csv","","294","resources/trios/L4T4A1.jpg","37","restless",0.6,0.4,0.8,0.941742385620766,"false"
"image-keyboard-response",477,401521,"0.0-3.155-1.155","ahepvvdn2o6bszm",701,"145.csv","","null","resources/maskTrios/L4BB.jpg","null","",NA,NA,NA,NA,""
"image-keyboard-response",478,402724,"0.0-3.155-2.155","ahepvvdn2o6bszm",701,"145.csv","","null","resources/images/fishbone.png","null","",NA,NA,NA,NA,""
"image-keyboard-response",479,403223,"0.0-3.156-0.156","ahepvvdn2o6bszm",701,"145.csv","","497","resources/trios/L4T4A3.jpg","37","restless",0.6,0.4,0.8,0.084986983626073,"true"
"image-keyboard-response",480,403626,"0.0-3.156-1.156","ahepvvdn2o6bszm",701,"145.csv","","null","resources/maskTrios/L4BB.jpg","null","",NA,NA,NA,NA,""
"image-keyboard-response",481,404829,"0.0-3.156-2.156","ahepvvdn2o6bszm",701,"145.csv","","null","resources/images/coin2.png","null","",NA,NA,NA,NA,""
"image-keyboard-response",482,405115,"0.0-3.157-0.157","ahepvvdn2o6bszm",701,"145.csv","","283","resources/trios/L2T2A3.jpg","37","restless",0.6,0.4,0.8,0.955378345508804,"false"
"image-keyboard-response",483,405519,"0.0-3.157-1.157","ahepvvdn2o6bszm",701,"145.csv","","null","resources/maskTrios/L2BB.jpg","null","",NA,NA,NA,NA,""
"image-keyboard-response",484,406722,"0.0-3.157-2.157","ahepvvdn2o6bszm",701,"145.csv","","null","resources/images/fishbone.png","null","",NA,NA,NA,NA,""
"image-keyboard-response",485,408216,"0.0-3.158-0.158","ahepvvdn2o6bszm",701,"145.csv","","1491","resources/trios/L4T2A1.jpg","37","restless",0.6,0.4,0.8,0.0708192141873856,"true"
"image-keyboard-response",486,408619,"0.0-3.158-1.158","ahepvvdn2o6bszm",701,"145.csv","","null","resources/maskTrios/L4BB.jpg","null","",NA,NA,NA,NA,""
"image-keyboard-response",487,409822,"0.0-3.158-2.158","ahepvvdn2o6bszm",701,"145.csv","","null","resources/images/coin2.png","null","",NA,NA,NA,NA,""
"image-keyboard-response",488,413162,"0.0-3.159-0.159","ahepvvdn2o6bszm",701,"145.csv","","3333.999999999942","resources/trios/L4T4A3.jpg","37","restless",0.6,0.4,0.8,0.403264423029167,"true"
"image-keyboard-response",489,413565,"0.0-3.159-1.159","ahepvvdn2o6bszm",701,"145.csv","","null","resources/maskTrios/L4BB.jpg","null","",NA,NA,NA,NA,""
"image-keyboard-response",490,414769,"0.0-3.159-2.159","ahepvvdn2o6bszm",701,"145.csv","","null","resources/images/coin2.png","null","",NA,NA,NA,NA,""
"image-keyboard-response",491,415481,"0.0-3.160-0.160","ahepvvdn2o6bszm",701,"145.csv","","711.0000000000582","resources/trios/L4T2A1.jpg","37","restless",0.6,0.4,0.8,0.180715900106807,"true"
"image-keyboard-response",492,415885,"0.0-3.160-1.160","ahepvvdn2o6bszm",701,"145.csv","","null","resources/maskTrios/L4BB.jpg","null","",NA,NA,NA,NA,""
"image-keyboard-response",493,417088,"0.0-3.160-2.160","ahepvvdn2o6bszm",701,"145.csv","","null","resources/images/coin2.png","null","",NA,NA,NA,NA,""
"image-keyboard-response",494,420716,"0.0-3.161-0.161","ahepvvdn2o6bszm",701,"145.csv","","3625","resources/trios/L2T4A3.jpg","39","restless",0.6,0.4,0.8,0.0961337466805632,"true"
"image-keyboard-response",495,421119,"0.0-3.161-1.161","ahepvvdn2o6bszm",701,"145.csv","","null","resources/maskTrios/BBA3.jpg","null","",NA,NA,NA,NA,""
"image-keyboard-response",496,422322,"0.0-3.161-2.161","ahepvvdn2o6bszm",701,"145.csv","","null","resources/images/coin2.png","null","",NA,NA,NA,NA,""
"image-keyboard-response",497,423801,"0.0-3.162-0.162","ahepvvdn2o6bszm",701,"145.csv","","1477","resources/trios/L4T2A3.jpg","37","restless",0.6,0.4,0.8,0.46961027789554,"true"
"image-keyboard-response",498,424205,"0.0-3.162-1.162","ahepvvdn2o6bszm",701,"145.csv","","null","resources/maskTrios/L4BB.jpg","null","",NA,NA,NA,NA,""
"image-keyboard-response",499,425408,"0.0-3.162-2.162","ahepvvdn2o6bszm",701,"145.csv","","null","resources/images/coin2.png","null","",NA,NA,NA,NA,""
"image-keyboard-response",500,427690,"0.0-3.163-0.163","ahepvvdn2o6bszm",701,"145.csv","","2277.000000000058","resources/trios/L2T4A1.jpg","38","restless",0.6,0.4,0.8,0.806253220081454,"false"
"image-keyboard-response",501,428094,"0.0-3.163-1.163","ahepvvdn2o6bszm",701,"145.csv","","null","resources/maskTrios/BT4B.jpg","null","",NA,NA,NA,NA,""
"image-keyboard-response",502,429297,"0.0-3.163-2.163","ahepvvdn2o6bszm",701,"145.csv","","null","resources/images/fishbone.png","null","",NA,NA,NA,NA,""
"image-keyboard-response",503,430140,"0.0-3.164-0.164","ahepvvdn2o6bszm",701,"145.csv","","841","resources/trios/L2T4A3.jpg","39","restless",0.6,0.4,0.8,0.201374683639561,"true"
"image-keyboard-response",504,430543,"0.0-3.164-1.164","ahepvvdn2o6bszm",701,"145.csv","","null","resources/maskTrios/BBA3.jpg","null","",NA,NA,NA,NA,""
"image-keyboard-response",505,431747,"0.0-3.164-2.164","ahepvvdn2o6bszm",701,"145.csv","","null","resources/images/coin2.png","null","",NA,NA,NA,NA,""
"image-keyboard-response",506,435580,"0.0-3.165-0.165","ahepvvdn2o6bszm",701,"145.csv","","3832","resources/trios/L2T2A1.jpg","38","restless",0.6,0.4,0.8,0.645398883396561,"false"
"image-keyboard-response",507,435984,"0.0-3.165-1.165","ahepvvdn2o6bszm",701,"145.csv","","null","resources/maskTrios/BT2B.jpg","null","",NA,NA,NA,NA,""
"image-keyboard-response",508,437187,"0.0-3.165-2.165","ahepvvdn2o6bszm",701,"145.csv","","null","resources/images/fishbone.png","null","",NA,NA,NA,NA,""
"image-keyboard-response",509,438845,"0.0-3.166-0.166","ahepvvdn2o6bszm",701,"145.csv","","1655.0000000000582","resources/trios/L4T4A3.jpg","39","restless",0.6,0.4,0.7,0.336455280273866,"true"
"image-keyboard-response",510,439248,"0.0-3.166-1.166","ahepvvdn2o6bszm",701,"145.csv","","null","resources/maskTrios/BBA3.jpg","null","",NA,NA,NA,NA,""
"image-keyboard-response",511,440451,"0.0-3.166-2.166","ahepvvdn2o6bszm",701,"145.csv","","null","resources/images/coin2.png","null","",NA,NA,NA,NA,""
"image-keyboard-response",512,441738,"0.0-3.167-0.167","ahepvvdn2o6bszm",701,"145.csv","","1285.0000000000582","resources/trios/L2T2A1.jpg","39","restless",0.6,0.4,0.7,0.646728507477362,"true"
"image-keyboard-response",513,442141,"0.0-3.167-1.167","ahepvvdn2o6bszm",701,"145.csv","","null","resources/maskTrios/BBA1.jpg","null","",NA,NA,NA,NA,""
"image-keyboard-response",514,443345,"0.0-3.167-2.167","ahepvvdn2o6bszm",701,"145.csv","","null","resources/images/coin2.png","null","",NA,NA,NA,NA,""
"image-keyboard-response",515,444347,"0.0-3.168-0.168","ahepvvdn2o6bszm",701,"145.csv","","1000","resources/trios/L2T2A1.jpg","39","restless",0.6,0.4,0.7,0.0955449612791055,"true"
"image-keyboard-response",516,444753,"0.0-3.168-1.168","ahepvvdn2o6bszm",701,"145.csv","","null","resources/maskTrios/BBA1.jpg","null","",NA,NA,NA,NA,""
"image-keyboard-response",517,445956,"0.0-3.168-2.168","ahepvvdn2o6bszm",701,"145.csv","","null","resources/images/coin2.png","null","",NA,NA,NA,NA,""
"image-keyboard-response",518,447377,"0.0-3.169-0.169","ahepvvdn2o6bszm",701,"145.csv","","1419","resources/trios/L2T4A3.jpg","39","restless",0.5,0.5,0.7,0.367260796679734,"true"
"image-keyboard-response",519,447780,"0.0-3.169-1.169","ahepvvdn2o6bszm",701,"145.csv","","null","resources/maskTrios/BBA3.jpg","null","",NA,NA,NA,NA,""
"image-keyboard-response",520,448983,"0.0-3.169-2.169","ahepvvdn2o6bszm",701,"145.csv","","null","resources/images/coin2.png","null","",NA,NA,NA,NA,""
"image-keyboard-response",521,449816,"0.0-3.170-0.170","ahepvvdn2o6bszm",701,"145.csv","","830.0000000000582","resources/trios/L4T4A3.jpg","39","restless",0.5,0.5,0.7,0.120516768396481,"true"
"image-keyboard-response",522,450219,"0.0-3.170-1.170","ahepvvdn2o6bszm",701,"145.csv","","null","resources/maskTrios/BBA3.jpg","null","",NA,NA,NA,NA,""
"image-keyboard-response",523,451423,"0.0-3.170-2.170","ahepvvdn2o6bszm",701,"145.csv","","null","resources/images/coin2.png","null","",NA,NA,NA,NA,""
"image-keyboard-response",524,453249,"0.0-3.171-0.171","ahepvvdn2o6bszm",701,"145.csv","","1823","resources/trios/L4T4A1.jpg","39","restless",0.5,0.4,0.7,0.438303579402055,"true"
"image-keyboard-response",525,453652,"0.0-3.171-1.171","ahepvvdn2o6bszm",701,"145.csv","","null","resources/maskTrios/BBA1.jpg","null","",NA,NA,NA,NA,""
"image-keyboard-response",526,454855,"0.0-3.171-2.171","ahepvvdn2o6bszm",701,"145.csv","","null","resources/images/coin2.png","null","",NA,NA,NA,NA,""
"image-keyboard-response",527,455465,"0.0-3.172-0.172","ahepvvdn2o6bszm",701,"145.csv","","606.0000000000582","resources/trios/L2T4A3.jpg","39","restless",0.5,0.4,0.7,0.112726642535125,"true"
"image-keyboard-response",528,455871,"0.0-3.172-1.172","ahepvvdn2o6bszm",701,"145.csv","","null","resources/maskTrios/BBA3.jpg","null","",NA,NA,NA,NA,""
"image-keyboard-response",529,457074,"0.0-3.172-2.172","ahepvvdn2o6bszm",701,"145.csv","","null","resources/images/coin2.png","null","",NA,NA,NA,NA,""
"image-keyboard-response",530,457597,"0.0-3.173-0.173","ahepvvdn2o6bszm",701,"145.csv","","519.9999999999418","resources/trios/L2T4A3.jpg","39","restless",0.5,0.4,0.7,0.117495901006799,"true"
"image-keyboard-response",531,457999,"0.0-3.173-1.173","ahepvvdn2o6bszm",701,"145.csv","","null","resources/maskTrios/BBA3.jpg","null","",NA,NA,NA,NA,""
"image-keyboard-response",532,459201,"0.0-3.173-2.173","ahepvvdn2o6bszm",701,"145.csv","","null","resources/images/coin2.png","null","",NA,NA,NA,NA,""
"image-keyboard-response",533,460219,"0.0-3.174-0.174","ahepvvdn2o6bszm",701,"145.csv","","1014","resources/trios/L4T4A3.jpg","39","restless",0.5,0.4,0.7,0.148826128603857,"true"
"image-keyboard-response",534,460622,"0.0-3.174-1.174","ahepvvdn2o6bszm",701,"145.csv","","null","resources/maskTrios/BBA3.jpg","null","",NA,NA,NA,NA,""
"image-keyboard-response",535,461825,"0.0-3.174-2.174","ahepvvdn2o6bszm",701,"145.csv","","null","resources/images/coin2.png","null","",NA,NA,NA,NA,""
"image-keyboard-response",536,462244,"0.0-3.175-0.175","ahepvvdn2o6bszm",701,"145.csv","","415.0000000000582","resources/trios/L2T2A1.jpg","39","restless",0.5,0.4,0.7,0.545668166418888,"true"
"image-keyboard-response",537,462647,"0.0-3.175-1.175","ahepvvdn2o6bszm",701,"145.csv","","null","resources/maskTrios/BBA1.jpg","null","",NA,NA,NA,NA,""
"image-keyboard-response",538,463850,"0.0-3.175-2.175","ahepvvdn2o6bszm",701,"145.csv","","null","resources/images/coin2.png","null","",NA,NA,NA,NA,""
"image-keyboard-response",539,464410,"0.0-3.176-0.176","ahepvvdn2o6bszm",701,"145.csv","","557","resources/trios/L2T2A1.jpg","39","restless",0.6,0.4,0.6,0.719955808036096,"false"
"image-keyboard-response",540,464813,"0.0-3.176-1.176","ahepvvdn2o6bszm",701,"145.csv","","null","resources/maskTrios/BBA1.jpg","null","",NA,NA,NA,NA,""
"image-keyboard-response",541,466016,"0.0-3.176-2.176","ahepvvdn2o6bszm",701,"145.csv","","null","resources/images/fishbone.png","null","",NA,NA,NA,NA,""
"image-keyboard-response",542,466782,"0.0-3.177-0.177","ahepvvdn2o6bszm",701,"145.csv","","763","resources/trios/L4T4A1.jpg","37","restless",0.7,0.4,0.6,0.2691119131068,"true"
"image-keyboard-response",543,467185,"0.0-3.177-1.177","ahepvvdn2o6bszm",701,"145.csv","","null","resources/maskTrios/L4BB.jpg","null","",NA,NA,NA,NA,""
"image-keyboard-response",544,468388,"0.0-3.177-2.177","ahepvvdn2o6bszm",701,"145.csv","","null","resources/images/coin2.png","null","",NA,NA,NA,NA,""
"image-keyboard-response",545,468790,"0.0-3.178-0.178","ahepvvdn2o6bszm",701,"145.csv","","400","resources/trios/L4T4A3.jpg","37","restless",0.7,0.4,0.6,0.705099241337372,"false"
"image-keyboard-response",546,469193,"0.0-3.178-1.178","ahepvvdn2o6bszm",701,"145.csv","","null","resources/maskTrios/L4BB.jpg","null","",NA,NA,NA,NA,""
"image-keyboard-response",547,470396,"0.0-3.178-2.178","ahepvvdn2o6bszm",701,"145.csv","","null","resources/images/fishbone.png","null","",NA,NA,NA,NA,""
"image-keyboard-response",548,470848,"0.0-3.179-0.179","ahepvvdn2o6bszm",701,"145.csv","","450","resources/trios/L4T2A1.jpg","38","restless",0.7,0.4,0.6,0.599993356390545,"false"
"image-keyboard-response",549,471252,"0.0-3.179-1.179","ahepvvdn2o6bszm",701,"145.csv","","null","resources/maskTrios/BT2B.jpg","null","",NA,NA,NA,NA,""
"image-keyboard-response",550,472455,"0.0-3.179-2.179","ahepvvdn2o6bszm",701,"145.csv","","null","resources/images/fishbone.png","null","",NA,NA,NA,NA,""
"image-keyboard-response",551,474590,"0.0-3.180-0.180","ahepvvdn2o6bszm",701,"145.csv","","2132.999999999942","resources/trios/L4T2A3.jpg","39","restless",0.7,0.4,0.6,0.90476217367424,"false"
"image-keyboard-response",552,474994,"0.0-3.180-1.180","ahepvvdn2o6bszm",701,"145.csv","","null","resources/maskTrios/BBA3.jpg","null","",NA,NA,NA,NA,""
"image-keyboard-response",553,476196,"0.0-3.180-2.180","ahepvvdn2o6bszm",701,"145.csv","","null","resources/images/fishbone.png","null","",NA,NA,NA,NA,""
"image-keyboard-response",554,476753,"0.0-3.181-0.181","ahepvvdn2o6bszm",701,"145.csv","","554","resources/trios/L4T2A3.jpg","37","restless",0.7,0.4,0.5,0.821439814183631,"false"
"image-keyboard-response",555,477157,"0.0-3.181-1.181","ahepvvdn2o6bszm",701,"145.csv","","null","resources/maskTrios/L4BB.jpg","null","",NA,NA,NA,NA,""
"image-keyboard-response",556,478359,"0.0-3.181-2.181","ahepvvdn2o6bszm",701,"145.csv","","null","resources/images/fishbone.png","null","",NA,NA,NA,NA,""
"image-keyboard-response",557,478670,"0.0-3.182-0.182","ahepvvdn2o6bszm",701,"145.csv","","308","resources/trios/L2T2A1.jpg","39","restless",0.7,0.4,0.5,0.432155209245017,"true"
"image-keyboard-response",558,479073,"0.0-3.182-1.182","ahepvvdn2o6bszm",701,"145.csv","","null","resources/maskTrios/BBA1.jpg","null","",NA,NA,NA,NA,""
"image-keyboard-response",559,480276,"0.0-3.182-2.182","ahepvvdn2o6bszm",701,"145.csv","","null","resources/images/coin2.png","null","",NA,NA,NA,NA,""
"image-keyboard-response",560,480627,"0.0-3.183-0.183","ahepvvdn2o6bszm",701,"145.csv","","347.9999999999418","resources/trios/L2T2A1.jpg","39","restless",0.7,0.5,0.5,0.181722626415534,"true"
"image-keyboard-response",561,481033,"0.0-3.183-1.183","ahepvvdn2o6bszm",701,"145.csv","","null","resources/maskTrios/BBA1.jpg","null","",NA,NA,NA,NA,""
"image-keyboard-response",562,482236,"0.0-3.183-2.183","ahepvvdn2o6bszm",701,"145.csv","","null","resources/images/coin2.png","null","",NA,NA,NA,NA,""
"image-keyboard-response",563,484758,"0.0-3.184-0.184","ahepvvdn2o6bszm",701,"145.csv","","2519","resources/trios/L2T4A3.jpg","39","restless",0.7,0.4,0.5,0.52236296452418,"false"
"image-keyboard-response",564,485161,"0.0-3.184-1.184","ahepvvdn2o6bszm",701,"145.csv","","null","resources/maskTrios/BBA3.jpg","null","",NA,NA,NA,NA,""
"image-keyboard-response",565,486368,"0.0-3.184-2.184","ahepvvdn2o6bszm",701,"145.csv","","null","resources/images/fishbone.png","null","",NA,NA,NA,NA,""
"image-keyboard-response",566,487050,"0.0-3.185-0.185","ahepvvdn2o6bszm",701,"145.csv","","679","resources/trios/L4T2A3.jpg","39","restless",0.7,0.4,0.4,0.23337076672475,"true"
"image-keyboard-response",567,487453,"0.0-3.185-1.185","ahepvvdn2o6bszm",701,"145.csv","","null","resources/maskTrios/BBA3.jpg","null","",NA,NA,NA,NA,""
"image-keyboard-response",568,488656,"0.0-3.185-2.185","ahepvvdn2o6bszm",701,"145.csv","","null","resources/images/coin2.png","null","",NA,NA,NA,NA,""
"image-keyboard-response",569,489739,"0.0-3.186-0.186","ahepvvdn2o6bszm",701,"145.csv","","1080","resources/trios/L2T2A1.jpg","39","restless",0.7,0.4,0.4,0.431367503672465,"false"
"image-keyboard-response",570,490142,"0.0-3.186-1.186","ahepvvdn2o6bszm",701,"145.csv","","null","resources/maskTrios/BBA1.jpg","null","",NA,NA,NA,NA,""
"image-keyboard-response",571,491345,"0.0-3.186-2.186","ahepvvdn2o6bszm",701,"145.csv","","null","resources/images/fishbone.png","null","",NA,NA,NA,NA,""
"image-keyboard-response",572,491875,"0.0-3.187-0.187","ahepvvdn2o6bszm",701,"145.csv","","525.0000000000582","resources/trios/L4T2A3.jpg","39","restless",0.7,0.4,0.4,0.465233482889757,"false"
"image-keyboard-response",573,492278,"0.0-3.187-1.187","ahepvvdn2o6bszm",701,"145.csv","","null","resources/maskTrios/BBA3.jpg","null","",NA,NA,NA,NA,""
"image-keyboard-response",574,493481,"0.0-3.187-2.187","ahepvvdn2o6bszm",701,"145.csv","","null","resources/images/fishbone.png","null","",NA,NA,NA,NA,""
"image-keyboard-response",575,494144,"0.0-3.188-0.188","ahepvvdn2o6bszm",701,"145.csv","","660","resources/trios/L4T4A3.jpg","39","restless",0.7,0.4,0.4,0.749112038964441,"false"
"image-keyboard-response",576,494547,"0.0-3.188-1.188","ahepvvdn2o6bszm",701,"145.csv","","null","resources/maskTrios/BBA3.jpg","null","",NA,NA,NA,NA,""
"image-keyboard-response",577,495750,"0.0-3.188-2.188","ahepvvdn2o6bszm",701,"145.csv","","null","resources/images/fishbone.png","null","",NA,NA,NA,NA,""
"image-keyboard-response",578,496074,"0.0-3.189-0.189","ahepvvdn2o6bszm",701,"145.csv","","322","resources/trios/L2T4A1.jpg","37","restless",0.6,0.4,0.4,0.859700372182129,"false"
"image-keyboard-response",579,496477,"0.0-3.189-1.189","ahepvvdn2o6bszm",701,"145.csv","","null","resources/maskTrios/L2BB.jpg","null","",NA,NA,NA,NA,""
"image-keyboard-response",580,497680,"0.0-3.189-2.189","ahepvvdn2o6bszm",701,"145.csv","","null","resources/images/fishbone.png","null","",NA,NA,NA,NA,""
"image-keyboard-response",581,498125,"0.0-3.190-0.190","ahepvvdn2o6bszm",701,"145.csv","","442.0000000000582","resources/trios/L4T4A3.jpg","38","restless",0.7,0.4,0.3,0.908779477072539,"false"
"image-keyboard-response",582,498528,"0.0-3.190-1.190","ahepvvdn2o6bszm",701,"145.csv","","null","resources/maskTrios/BT4B.jpg","null","",NA,NA,NA,NA,""
"image-keyboard-response",583,499730,"0.0-3.190-2.190","ahepvvdn2o6bszm",701,"145.csv","","null","resources/images/fishbone.png","null","",NA,NA,NA,NA,""
"image-keyboard-response",584,500018,"0.0-3.191-0.191","ahepvvdn2o6bszm",701,"145.csv","","285","resources/trios/L4T2A3.jpg","39","restless",0.7,0.4,0.3,0.911678500859134,"false"
"image-keyboard-response",585,500421,"0.0-3.191-1.191","ahepvvdn2o6bszm",701,"145.csv","","null","resources/maskTrios/BBA3.jpg","null","",NA,NA,NA,NA,""
"image-keyboard-response",586,501624,"0.0-3.191-2.191","ahepvvdn2o6bszm",701,"145.csv","","null","resources/images/fishbone.png","null","",NA,NA,NA,NA,""
"image-keyboard-response",587,501895,"0.0-3.192-0.192","ahepvvdn2o6bszm",701,"145.csv","","268","resources/trios/L2T4A1.jpg","39","restless",0.7,0.4,0.2,0.311407261445261,"false"
"image-keyboard-response",588,502298,"0.0-3.192-1.192","ahepvvdn2o6bszm",701,"145.csv","","null","resources/maskTrios/BBA1.jpg","null","",NA,NA,NA,NA,""
"image-keyboard-response",589,503501,"0.0-3.192-2.192","ahepvvdn2o6bszm",701,"145.csv","","null","resources/images/fishbone.png","null","",NA,NA,NA,NA,""
"image-keyboard-response",590,503643,"0.0-3.193-0.193","ahepvvdn2o6bszm",701,"145.csv","","139","resources/trios/L4T2A1.jpg","39","restless",0.7,0.4,0.2,0.28843513016539,"false"
"image-keyboard-response",591,504046,"0.0-3.193-1.193","ahepvvdn2o6bszm",701,"145.csv","","null","resources/maskTrios/BBA1.jpg","null","",NA,NA,NA,NA,""
"image-keyboard-response",592,505253,"0.0-3.193-2.193","ahepvvdn2o6bszm",701,"145.csv","","null","resources/images/fishbone.png","null","",NA,NA,NA,NA,""
"image-keyboard-response",593,505622,"0.0-3.194-0.194","ahepvvdn2o6bszm",701,"145.csv","","365","resources/trios/L4T2A1.jpg","39","restless",0.7,0.4,0.2,0.583089174659898,"false"
"image-keyboard-response",594,506026,"0.0-3.194-1.194","ahepvvdn2o6bszm",701,"145.csv","","null","resources/maskTrios/BBA1.jpg","null","",NA,NA,NA,NA,""
"image-keyboard-response",595,507229,"0.0-3.194-2.194","ahepvvdn2o6bszm",701,"145.csv","","null","resources/images/fishbone.png","null","",NA,NA,NA,NA,""
"image-keyboard-response",596,507521,"0.0-3.195-0.195","ahepvvdn2o6bszm",701,"145.csv","","289","resources/trios/L2T4A1.jpg","39","restless",0.6,0.4,0.2,0.0220318871453739,"true"
"image-keyboard-response",597,507925,"0.0-3.195-1.195","ahepvvdn2o6bszm",701,"145.csv","","null","resources/maskTrios/BBA1.jpg","null","",NA,NA,NA,NA,""
"image-keyboard-response",598,509128,"0.0-3.195-2.195","ahepvvdn2o6bszm",701,"145.csv","","null","resources/images/coin2.png","null","",NA,NA,NA,NA,""
"image-keyboard-response",599,509488,"0.0-3.196-0.196","ahepvvdn2o6bszm",701,"145.csv","","357.9999999999418","resources/trios/L4T2A1.jpg","39","restless",0.5,0.5,0.2,0.102457412506379,"true"
"image-keyboard-response",600,509892,"0.0-3.196-1.196","ahepvvdn2o6bszm",701,"145.csv","","null","resources/maskTrios/BBA1.jpg","null","",NA,NA,NA,NA,""
"image-keyboard-response",601,511095,"0.0-3.196-2.196","ahepvvdn2o6bszm",701,"145.csv","","null","resources/images/coin2.png","null","",NA,NA,NA,NA,""
"image-keyboard-response",602,511439,"0.0-3.197-0.197","ahepvvdn2o6bszm",701,"145.csv","","342","resources/trios/L4T4A1.jpg","39","restless",0.5,0.5,0.2,0.226638069259063,"false"
"image-keyboard-response",603,511843,"0.0-3.197-1.197","ahepvvdn2o6bszm",701,"145.csv","","null","resources/maskTrios/BBA1.jpg","null","",NA,NA,NA,NA,""
"image-keyboard-response",604,513046,"0.0-3.197-2.197","ahepvvdn2o6bszm",701,"145.csv","","null","resources/images/fishbone.png","null","",NA,NA,NA,NA,""
"image-keyboard-response",605,513437,"0.0-3.198-0.198","ahepvvdn2o6bszm",701,"145.csv","","388.0000000000582","resources/trios/L4T2A3.jpg","37","restless",0.5,0.5,0.1,0.735819600595847,"false"
"image-keyboard-response",606,513840,"0.0-3.198-1.198","ahepvvdn2o6bszm",701,"145.csv","","null","resources/maskTrios/L4BB.jpg","null","",NA,NA,NA,NA,""
"image-keyboard-response",607,515043,"0.0-3.198-2.198","ahepvvdn2o6bszm",701,"145.csv","","null","resources/images/fishbone.png","null","",NA,NA,NA,NA,""
"image-keyboard-response",608,515332,"0.0-3.199-0.199","ahepvvdn2o6bszm",701,"145.csv","","287","resources/trios/L2T4A1.jpg","37","restless",0.6,0.5,0.1,0.841333630536102,"false"
"image-keyboard-response",609,515735,"0.0-3.199-1.199","ahepvvdn2o6bszm",701,"145.csv","","null","resources/maskTrios/L2BB.jpg","null","",NA,NA,NA,NA,""
"image-keyboard-response",610,516938,"0.0-3.199-2.199","ahepvvdn2o6bszm",701,"145.csv","","null","resources/images/fishbone.png","null","",NA,NA,NA,NA,""
"image-keyboard-response",611,519547,"0.0-3.200-0.200","ahepvvdn2o6bszm",701,"145.csv","","2607","resources/trios/L4T2A1.jpg","37","restless",0.6,0.5,0.1,0.363225660184195,"true"
"image-keyboard-response",612,519953,"0.0-3.200-1.200","ahepvvdn2o6bszm",701,"145.csv","","null","resources/maskTrios/L4BB.jpg","null","",NA,NA,NA,NA,""
"image-keyboard-response",613,521156,"0.0-3.200-2.200","ahepvvdn2o6bszm",701,"145.csv","","null","resources/images/coin2.png","null","",NA,NA,NA,NA,""
"image-keyboard-response",614,522143,"0.0-3.201-0.201","ahepvvdn2o6bszm",701,"145.csv","","984.0000000001164","resources/trios/L2T4A3.jpg","37","restless",0.6,0.5,0,0.843957434739862,"false"
"image-keyboard-response",615,522546,"0.0-3.201-1.201","ahepvvdn2o6bszm",701,"145.csv","","null","resources/maskTrios/L2BB.jpg","null","",NA,NA,NA,NA,""
"image-keyboard-response",616,523749,"0.0-3.201-2.201","ahepvvdn2o6bszm",701,"145.csv","","null","resources/images/fishbone.png","null","",NA,NA,NA,NA,""
