"trial_type","trial_index","time_elapsed","internal_node_id","subject","participantCode","walkNumber","success","rt","stimulus","key_press","test_part","leftProb","midProb","rightProb","generatedNum","correct"
"pavlovia",0,861,"0.0-0.0","j7qoncf551ymkpx",229,"44.csv","","","","","",NA,NA,NA,NA,""
"fullscreen",1,5220,"0.0-1.0","j7qoncf551ymkpx",229,"44.csv","true","","","","",NA,NA,NA,NA,""
"html-keyboard-response",2,10021,"0.0-2.0-0.0","j7qoncf551ymkpx",229,"44.csv","","4799.5","<p><font size='6'>Arrrgh!</p></font><p>Can you be the best pirate? Try to find lots of gold! But beware, some islands have more gold than others, and over time, the island with the most gold may change. Can YOU figure it out? </p><font size='6'>GOOD LUCK, CAPTAIN!!!</font><p>Press any key to begin</p>","13","",NA,NA,NA,NA,""
"image-keyboard-response",3,13039,"0.0-2.0-1.0","j7qoncf551ymkpx",229,"44.csv","","null","resources/image_sets/111.png","null","",NA,NA,NA,NA,""
"image-keyboard-response",4,17963,"0.0-2.0-2.0","j7qoncf551ymkpx",229,"44.csv","","4922.5","resources/image_sets/left_highlight.png","37","",NA,NA,NA,NA,""
"image-keyboard-response",5,19353,"0.0-2.0-3.0","j7qoncf551ymkpx",229,"44.csv","","1388.2000000476837","resources/image_sets/mid_highlight.png","38","",NA,NA,NA,NA,""
"image-keyboard-response",6,20199,"0.0-2.0-4.0","j7qoncf551ymkpx",229,"44.csv","","845.5999999046326","resources/image_sets/right_highlight.png","39","",NA,NA,NA,NA,""
"image-keyboard-response",7,21617,"0.0-2.0-5.0","j7qoncf551ymkpx",229,"44.csv","","1417","resources/image_sets/111.png","13","",NA,NA,NA,NA,""
"image-keyboard-response",8,25161,"0.0-2.0-6.0","j7qoncf551ymkpx",229,"44.csv","","3543.4000000953674","resources/images/coin2.png","13","",NA,NA,NA,NA,""
"image-keyboard-response",9,27943,"0.0-2.0-7.0","j7qoncf551ymkpx",229,"44.csv","","2780.899999856949","resources/images/fishbone.png","13","",NA,NA,NA,NA,""
"html-keyboard-response",10,31115,"0.0-2.0-8.0","j7qoncf551ymkpx",229,"44.csv","","3171.7000000476837","<p>Your first journey will be a long one, but you will get a well deserved break at the end</p><p>After the break you will have four more journeys, but each will be much shorter than the first, and you will have breaks in between each</p><p>Press Enter to begin</p>","13","",NA,NA,NA,NA,""
"image-keyboard-response",11,31970,"0.0-3.0-0.0","j7qoncf551ymkpx",229,"44.csv","","854.2000000476837","resources/trios/L4T1A3.jpg","39","restless",0.7,0.9,0.3,0.440791196830919,"false"
"image-keyboard-response",12,32385,"0.0-3.0-1.0","j7qoncf551ymkpx",229,"44.csv","","null","resources/maskTrios/BBA3.jpg","null","",NA,NA,NA,NA,""
"image-keyboard-response",13,33607,"0.0-3.0-2.0","j7qoncf551ymkpx",229,"44.csv","","null","resources/images/fishbone.png","null","",NA,NA,NA,NA,""
"image-keyboard-response",14,34005,"0.0-3.1-0.1","j7qoncf551ymkpx",229,"44.csv","","394.5","resources/trios/L4T1A2.jpg","39","restless",0.7,0.9,0.3,0.959781703059249,"false"
"image-keyboard-response",15,34421,"0.0-3.1-1.1","j7qoncf551ymkpx",229,"44.csv","","null","resources/maskTrios/BBA2.jpg","null","",NA,NA,NA,NA,""
"image-keyboard-response",16,35630,"0.0-3.1-2.1","j7qoncf551ymkpx",229,"44.csv","","null","resources/images/fishbone.png","null","",NA,NA,NA,NA,""
"image-keyboard-response",17,35867,"0.0-3.2-0.2","j7qoncf551ymkpx",229,"44.csv","","234.09999990463257","resources/trios/L4T1A3.jpg","38","restless",0.7,0.9,0.3,0.401155745490054,"true"
"image-keyboard-response",18,36290,"0.0-3.2-1.2","j7qoncf551ymkpx",229,"44.csv","","null","resources/maskTrios/BT1B.jpg","null","",NA,NA,NA,NA,""
"image-keyboard-response",19,37505,"0.0-3.2-2.2","j7qoncf551ymkpx",229,"44.csv","","null","resources/images/coin2.png","null","",NA,NA,NA,NA,""
"image-keyboard-response",20,37830,"0.0-3.3-0.3","j7qoncf551ymkpx",229,"44.csv","","324.2999999523163","resources/trios/L4T1A3.jpg","38","restless",0.7,0.9,0.3,0.271261322615007,"true"
"image-keyboard-response",21,38244,"0.0-3.3-1.3","j7qoncf551ymkpx",229,"44.csv","","null","resources/maskTrios/BT1B.jpg","null","",NA,NA,NA,NA,""
"image-keyboard-response",22,39457,"0.0-3.3-2.3","j7qoncf551ymkpx",229,"44.csv","","null","resources/images/coin2.png","null","",NA,NA,NA,NA,""
"image-keyboard-response",23,39789,"0.0-3.4-0.4","j7qoncf551ymkpx",229,"44.csv","","331.09999990463257","resources/trios/L1T1A3.jpg","38","restless",0.7,0.8,0.3,0.0681746154572893,"true"
"image-keyboard-response",24,40208,"0.0-3.4-1.4","j7qoncf551ymkpx",229,"44.csv","","null","resources/maskTrios/BT1B.jpg","null","",NA,NA,NA,NA,""
"image-keyboard-response",25,41426,"0.0-3.4-2.4","j7qoncf551ymkpx",229,"44.csv","","null","resources/images/coin2.png","null","",NA,NA,NA,NA,""
"image-keyboard-response",26,41736,"0.0-3.5-0.5","j7qoncf551ymkpx",229,"44.csv","","306.39999985694885","resources/trios/L1T1A3.jpg","38","restless",0.8,0.8,0.3,0.450146692336288,"true"
"image-keyboard-response",27,42144,"0.0-3.5-1.5","j7qoncf551ymkpx",229,"44.csv","","null","resources/maskTrios/BT1B.jpg","null","",NA,NA,NA,NA,""
"image-keyboard-response",28,43350,"0.0-3.5-2.5","j7qoncf551ymkpx",229,"44.csv","","null","resources/images/coin2.png","null","",NA,NA,NA,NA,""
"image-keyboard-response",29,43640,"0.0-3.6-0.6","j7qoncf551ymkpx",229,"44.csv","","288.2999999523163","resources/trios/L4T4A2.jpg","38","restless",0.8,0.8,0.3,0.559898421037612,"true"
"image-keyboard-response",30,44049,"0.0-3.6-1.6","j7qoncf551ymkpx",229,"44.csv","","null","resources/maskTrios/BT4B.jpg","null","",NA,NA,NA,NA,""
"image-keyboard-response",31,45266,"0.0-3.6-2.6","j7qoncf551ymkpx",229,"44.csv","","null","resources/images/coin2.png","null","",NA,NA,NA,NA,""
"image-keyboard-response",32,45892,"0.0-3.7-0.7","j7qoncf551ymkpx",229,"44.csv","","624.8999998569489","resources/trios/L4T4A3.jpg","38","restless",0.8,0.8,0.2,0.906075833439274,"false"
"image-keyboard-response",33,46308,"0.0-3.7-1.7","j7qoncf551ymkpx",229,"44.csv","","null","resources/maskTrios/BT4B.jpg","null","",NA,NA,NA,NA,""
"image-keyboard-response",34,47522,"0.0-3.7-2.7","j7qoncf551ymkpx",229,"44.csv","","null","resources/images/fishbone.png","null","",NA,NA,NA,NA,""
"image-keyboard-response",35,47720,"0.0-3.8-0.8","j7qoncf551ymkpx",229,"44.csv","","196.20000004768372","resources/trios/L4T1A2.jpg","37","restless",0.8,0.8,0.2,0.417644559712756,"true"
"image-keyboard-response",36,48130,"0.0-3.8-1.8","j7qoncf551ymkpx",229,"44.csv","","null","resources/maskTrios/L4BB.jpg","null","",NA,NA,NA,NA,""
"image-keyboard-response",37,49340,"0.0-3.8-2.8","j7qoncf551ymkpx",229,"44.csv","","null","resources/images/coin2.png","null","",NA,NA,NA,NA,""
"image-keyboard-response",38,50292,"0.0-3.9-0.9","j7qoncf551ymkpx",229,"44.csv","","950.3999998569489","resources/trios/L1T4A2.jpg","37","restless",0.8,0.8,0.2,0.731994974845226,"true"
"image-keyboard-response",39,50707,"0.0-3.9-1.9","j7qoncf551ymkpx",229,"44.csv","","null","resources/maskTrios/L1BB.jpg","null","",NA,NA,NA,NA,""
"image-keyboard-response",40,51920,"0.0-3.9-2.9","j7qoncf551ymkpx",229,"44.csv","","null","resources/images/coin2.png","null","",NA,NA,NA,NA,""
"image-keyboard-response",41,52258,"0.0-3.10-0.10","j7qoncf551ymkpx",229,"44.csv","","336.10000014305115","resources/trios/L4T1A3.jpg","37","restless",0.8,0.8,0.3,0.31905509851713,"true"
"image-keyboard-response",42,52673,"0.0-3.10-1.10","j7qoncf551ymkpx",229,"44.csv","","null","resources/maskTrios/L4BB.jpg","null","",NA,NA,NA,NA,""
"image-keyboard-response",43,53888,"0.0-3.10-2.10","j7qoncf551ymkpx",229,"44.csv","","null","resources/images/coin2.png","null","",NA,NA,NA,NA,""
"image-keyboard-response",44,54964,"0.0-3.11-0.11","j7qoncf551ymkpx",229,"44.csv","","1073.7000000476837","resources/trios/L1T4A2.jpg","37","restless",0.8,0.8,0.3,0.614092940034922,"true"
"image-keyboard-response",45,55381,"0.0-3.11-1.11","j7qoncf551ymkpx",229,"44.csv","","null","resources/maskTrios/L1BB.jpg","null","",NA,NA,NA,NA,""
"image-keyboard-response",46,56596,"0.0-3.11-2.11","j7qoncf551ymkpx",229,"44.csv","","null","resources/images/coin2.png","null","",NA,NA,NA,NA,""
"image-keyboard-response",47,56907,"0.0-3.12-0.12","j7qoncf551ymkpx",229,"44.csv","","309.90000009536743","resources/trios/L1T1A3.jpg","37","restless",0.8,0.8,0.3,0.349272556041036,"true"
"image-keyboard-response",48,57329,"0.0-3.12-1.12","j7qoncf551ymkpx",229,"44.csv","","null","resources/maskTrios/L1BB.jpg","null","",NA,NA,NA,NA,""
"image-keyboard-response",49,58538,"0.0-3.12-2.12","j7qoncf551ymkpx",229,"44.csv","","null","resources/images/coin2.png","null","",NA,NA,NA,NA,""
"image-keyboard-response",50,58817,"0.0-3.13-0.13","j7qoncf551ymkpx",229,"44.csv","","276.59999990463257","resources/trios/L4T4A2.jpg","37","restless",0.8,0.8,0.3,0.137441253582865,"true"
"image-keyboard-response",51,59228,"0.0-3.13-1.13","j7qoncf551ymkpx",229,"44.csv","","null","resources/maskTrios/L4BB.jpg","null","",NA,NA,NA,NA,""
"image-keyboard-response",52,60443,"0.0-3.13-2.13","j7qoncf551ymkpx",229,"44.csv","","null","resources/images/coin2.png","null","",NA,NA,NA,NA,""
"image-keyboard-response",53,60917,"0.0-3.14-0.14","j7qoncf551ymkpx",229,"44.csv","","473.5","resources/trios/L4T1A3.jpg","37","restless",0.8,0.8,0.3,0.822809129429497,"false"
"image-keyboard-response",54,61338,"0.0-3.14-1.14","j7qoncf551ymkpx",229,"44.csv","","null","resources/maskTrios/L4BB.jpg","null","",NA,NA,NA,NA,""
"image-keyboard-response",55,62549,"0.0-3.14-2.14","j7qoncf551ymkpx",229,"44.csv","","null","resources/images/fishbone.png","null","",NA,NA,NA,NA,""
"image-keyboard-response",56,62883,"0.0-3.15-0.15","j7qoncf551ymkpx",229,"44.csv","","331.40000009536743","resources/trios/L4T4A3.jpg","39","restless",0.8,0.8,0.3,0.669970618352583,"false"
"image-keyboard-response",57,63288,"0.0-3.15-1.15","j7qoncf551ymkpx",229,"44.csv","","null","resources/maskTrios/BBA3.jpg","null","",NA,NA,NA,NA,""
"image-keyboard-response",58,64503,"0.0-3.15-2.15","j7qoncf551ymkpx",229,"44.csv","","null","resources/images/fishbone.png","null","",NA,NA,NA,NA,""
"image-keyboard-response",59,64811,"0.0-3.16-0.16","j7qoncf551ymkpx",229,"44.csv","","307.5","resources/trios/L1T1A3.jpg","39","restless",0.8,0.8,0.3,0.620546747027864,"false"
"image-keyboard-response",60,65222,"0.0-3.16-1.16","j7qoncf551ymkpx",229,"44.csv","","null","resources/maskTrios/BBA3.jpg","null","",NA,NA,NA,NA,""
"image-keyboard-response",61,66440,"0.0-3.16-2.16","j7qoncf551ymkpx",229,"44.csv","","null","resources/images/fishbone.png","null","",NA,NA,NA,NA,""
"image-keyboard-response",62,66713,"0.0-3.17-0.17","j7qoncf551ymkpx",229,"44.csv","","272.2000000476837","resources/trios/L1T1A2.jpg","38","restless",0.8,0.8,0.3,0.175028653514388,"true"
"image-keyboard-response",63,67129,"0.0-3.17-1.17","j7qoncf551ymkpx",229,"44.csv","","null","resources/maskTrios/BT1B.jpg","null","",NA,NA,NA,NA,""
"image-keyboard-response",64,68339,"0.0-3.17-2.17","j7qoncf551ymkpx",229,"44.csv","","null","resources/images/coin2.png","null","",NA,NA,NA,NA,""
"image-keyboard-response",65,68610,"0.0-3.18-0.18","j7qoncf551ymkpx",229,"44.csv","","270","resources/trios/L1T1A3.jpg","38","restless",0.8,0.8,0.3,0.957500883931413,"false"
"image-keyboard-response",66,69015,"0.0-3.18-1.18","j7qoncf551ymkpx",229,"44.csv","","null","resources/maskTrios/BT1B.jpg","null","",NA,NA,NA,NA,""
"image-keyboard-response",67,70228,"0.0-3.18-2.18","j7qoncf551ymkpx",229,"44.csv","","null","resources/images/fishbone.png","null","",NA,NA,NA,NA,""
"image-keyboard-response",68,70604,"0.0-3.19-0.19","j7qoncf551ymkpx",229,"44.csv","","373.2999999523163","resources/trios/L1T4A2.jpg","37","restless",0.8,0.8,0.3,0.0193907974059035,"true"
"image-keyboard-response",69,71028,"0.0-3.19-1.19","j7qoncf551ymkpx",229,"44.csv","","null","resources/maskTrios/L1BB.jpg","null","",NA,NA,NA,NA,""
"image-keyboard-response",70,72246,"0.0-3.19-2.19","j7qoncf551ymkpx",229,"44.csv","","null","resources/images/coin2.png","null","",NA,NA,NA,NA,""
"image-keyboard-response",71,73291,"0.0-3.20-0.20","j7qoncf551ymkpx",229,"44.csv","","1043.4000000953674","resources/trios/L1T4A3.jpg","37","restless",0.8,0.8,0.3,0.416442791219273,"true"
"image-keyboard-response",72,73703,"0.0-3.20-1.20","j7qoncf551ymkpx",229,"44.csv","","null","resources/maskTrios/L1BB.jpg","null","",NA,NA,NA,NA,""
"image-keyboard-response",73,74914,"0.0-3.20-2.20","j7qoncf551ymkpx",229,"44.csv","","null","resources/images/coin2.png","null","",NA,NA,NA,NA,""
"image-keyboard-response",74,75296,"0.0-3.21-0.21","j7qoncf551ymkpx",229,"44.csv","","380.30000019073486","resources/trios/L4T4A3.jpg","37","restless",0.8,0.7,0.3,0.792491815830883,"true"
"image-keyboard-response",75,75702,"0.0-3.21-1.21","j7qoncf551ymkpx",229,"44.csv","","null","resources/maskTrios/L4BB.jpg","null","",NA,NA,NA,NA,""
"image-keyboard-response",76,76914,"0.0-3.21-2.21","j7qoncf551ymkpx",229,"44.csv","","null","resources/images/coin2.png","null","",NA,NA,NA,NA,""
"image-keyboard-response",77,77204,"0.0-3.22-0.22","j7qoncf551ymkpx",229,"44.csv","","288.39999985694885","resources/trios/L4T1A2.jpg","37","restless",0.8,0.8,0.3,0.249955426235883,"true"
"image-keyboard-response",78,77622,"0.0-3.22-1.22","j7qoncf551ymkpx",229,"44.csv","","null","resources/maskTrios/L4BB.jpg","null","",NA,NA,NA,NA,""
"image-keyboard-response",79,78843,"0.0-3.22-2.22","j7qoncf551ymkpx",229,"44.csv","","null","resources/images/coin2.png","null","",NA,NA,NA,NA,""
"image-keyboard-response",80,79072,"0.0-3.23-0.23","j7qoncf551ymkpx",229,"44.csv","","227.79999995231628","resources/trios/L1T4A3.jpg","37","restless",0.8,0.8,0.3,0.885604244309376,"false"
"image-keyboard-response",81,79483,"0.0-3.23-1.23","j7qoncf551ymkpx",229,"44.csv","","null","resources/maskTrios/L1BB.jpg","null","",NA,NA,NA,NA,""
"image-keyboard-response",82,80694,"0.0-3.23-2.23","j7qoncf551ymkpx",229,"44.csv","","null","resources/images/fishbone.png","null","",NA,NA,NA,NA,""
"image-keyboard-response",83,80939,"0.0-3.24-0.24","j7qoncf551ymkpx",229,"44.csv","","242.70000004768372","resources/trios/L1T4A3.jpg","39","restless",0.8,0.8,0.3,0.843555942300013,"false"
"image-keyboard-response",84,81353,"0.0-3.24-1.24","j7qoncf551ymkpx",229,"44.csv","","null","resources/maskTrios/BBA3.jpg","null","",NA,NA,NA,NA,""
"image-keyboard-response",85,82565,"0.0-3.24-2.24","j7qoncf551ymkpx",229,"44.csv","","null","resources/images/fishbone.png","null","",NA,NA,NA,NA,""
"image-keyboard-response",86,83140,"0.0-3.25-0.25","j7qoncf551ymkpx",229,"44.csv","","573","resources/trios/L4T4A3.jpg","38","restless",0.7,0.8,0.4,0.204919625534319,"true"
"image-keyboard-response",87,83553,"0.0-3.25-1.25","j7qoncf551ymkpx",229,"44.csv","","null","resources/maskTrios/BT4B.jpg","null","",NA,NA,NA,NA,""
"image-keyboard-response",88,84766,"0.0-3.25-2.25","j7qoncf551ymkpx",229,"44.csv","","null","resources/images/coin2.png","null","",NA,NA,NA,NA,""
"image-keyboard-response",89,84995,"0.0-3.26-0.26","j7qoncf551ymkpx",229,"44.csv","","227.5","resources/trios/L4T4A3.jpg","38","restless",0.7,0.7,0.4,0.373444667586597,"true"
"image-keyboard-response",90,85408,"0.0-3.26-1.26","j7qoncf551ymkpx",229,"44.csv","","null","resources/maskTrios/BT4B.jpg","null","",NA,NA,NA,NA,""
"image-keyboard-response",91,86628,"0.0-3.26-2.26","j7qoncf551ymkpx",229,"44.csv","","null","resources/images/coin2.png","null","",NA,NA,NA,NA,""
"image-keyboard-response",92,87036,"0.0-3.27-0.27","j7qoncf551ymkpx",229,"44.csv","","407.60000014305115","resources/trios/L1T4A2.jpg","38","restless",0.7,0.7,0.4,0.330262925052379,"true"
"image-keyboard-response",93,87441,"0.0-3.27-1.27","j7qoncf551ymkpx",229,"44.csv","","null","resources/maskTrios/BT4B.jpg","null","",NA,NA,NA,NA,""
"image-keyboard-response",94,88653,"0.0-3.27-2.27","j7qoncf551ymkpx",229,"44.csv","","null","resources/images/coin2.png","null","",NA,NA,NA,NA,""
"image-keyboard-response",95,90153,"0.0-3.28-0.28","j7qoncf551ymkpx",229,"44.csv","","1498.1999998092651","resources/trios/L1T4A3.jpg","38","restless",0.7,0.7,0.4,0.437992233154643,"true"
"image-keyboard-response",96,90567,"0.0-3.28-1.28","j7qoncf551ymkpx",229,"44.csv","","null","resources/maskTrios/BT4B.jpg","null","",NA,NA,NA,NA,""
"image-keyboard-response",97,91777,"0.0-3.28-2.28","j7qoncf551ymkpx",229,"44.csv","","null","resources/images/coin2.png","null","",NA,NA,NA,NA,""
"image-keyboard-response",98,92270,"0.0-3.29-0.29","j7qoncf551ymkpx",229,"44.csv","","492.30000019073486","resources/trios/L4T1A2.jpg","38","restless",0.6,0.7,0.4,0.0364149275951606,"true"
"image-keyboard-response",99,92687,"0.0-3.29-1.29","j7qoncf551ymkpx",229,"44.csv","","null","resources/maskTrios/BT1B.jpg","null","",NA,NA,NA,NA,""
"image-keyboard-response",100,93894,"0.0-3.29-2.29","j7qoncf551ymkpx",229,"44.csv","","null","resources/images/coin2.png","null","",NA,NA,NA,NA,""
"image-keyboard-response",101,94432,"0.0-3.30-0.30","j7qoncf551ymkpx",229,"44.csv","","535.6000001430511","resources/trios/L1T1A3.jpg","38","restless",0.6,0.7,0.4,0.814447712944028,"false"
"image-keyboard-response",102,94841,"0.0-3.30-1.30","j7qoncf551ymkpx",229,"44.csv","","null","resources/maskTrios/BT1B.jpg","null","",NA,NA,NA,NA,""
"image-keyboard-response",103,96054,"0.0-3.30-2.30","j7qoncf551ymkpx",229,"44.csv","","null","resources/images/fishbone.png","null","",NA,NA,NA,NA,""
"image-keyboard-response",104,96387,"0.0-3.31-0.31","j7qoncf551ymkpx",229,"44.csv","","332","resources/trios/L1T1A2.jpg","37","restless",0.6,0.6,0.4,0.602943204309016,"false"
"image-keyboard-response",105,96790,"0.0-3.31-1.31","j7qoncf551ymkpx",229,"44.csv","","null","resources/maskTrios/L1BB.jpg","null","",NA,NA,NA,NA,""
"image-keyboard-response",106,98000,"0.0-3.31-2.31","j7qoncf551ymkpx",229,"44.csv","","null","resources/images/fishbone.png","null","",NA,NA,NA,NA,""
"image-keyboard-response",107,98441,"0.0-3.32-0.32","j7qoncf551ymkpx",229,"44.csv","","439.59999990463257","resources/trios/L4T4A3.jpg","37","restless",0.6,0.6,0.4,0.635414566817625,"false"
"image-keyboard-response",108,98846,"0.0-3.32-1.32","j7qoncf551ymkpx",229,"44.csv","","null","resources/maskTrios/L4BB.jpg","null","",NA,NA,NA,NA,""
"image-keyboard-response",109,100069,"0.0-3.32-2.32","j7qoncf551ymkpx",229,"44.csv","","null","resources/images/fishbone.png","null","",NA,NA,NA,NA,""
"image-keyboard-response",110,100124,"0.0-3.33-0.33","j7qoncf551ymkpx",229,"44.csv","","52.799999952316284","resources/trios/L1T1A2.jpg","39","restless",0.5,0.6,0.4,0.519293224810791,"false"
"image-keyboard-response",111,100536,"0.0-3.33-1.33","j7qoncf551ymkpx",229,"44.csv","","null","resources/maskTrios/BBA2.jpg","null","",NA,NA,NA,NA,""
"image-keyboard-response",112,101744,"0.0-3.33-2.33","j7qoncf551ymkpx",229,"44.csv","","null","resources/images/fishbone.png","null","",NA,NA,NA,NA,""
"image-keyboard-response",113,101954,"0.0-3.34-0.34","j7qoncf551ymkpx",229,"44.csv","","207.5","resources/trios/L4T1A2.jpg","37","restless",0.5,0.6,0.5,0.418807997720907,"true"
"image-keyboard-response",114,102368,"0.0-3.34-1.34","j7qoncf551ymkpx",229,"44.csv","","null","resources/maskTrios/L4BB.jpg","null","",NA,NA,NA,NA,""
"image-keyboard-response",115,103585,"0.0-3.34-2.34","j7qoncf551ymkpx",229,"44.csv","","null","resources/images/coin2.png","null","",NA,NA,NA,NA,""
"image-keyboard-response",116,103884,"0.0-3.35-0.35","j7qoncf551ymkpx",229,"44.csv","","296.90000009536743","resources/trios/L4T4A3.jpg","37","restless",0.5,0.6,0.5,0.77211393860023,"false"
"image-keyboard-response",117,104285,"0.0-3.35-1.35","j7qoncf551ymkpx",229,"44.csv","","null","resources/maskTrios/L4BB.jpg","null","",NA,NA,NA,NA,""
"image-keyboard-response",118,105500,"0.0-3.35-2.35","j7qoncf551ymkpx",229,"44.csv","","null","resources/images/fishbone.png","null","",NA,NA,NA,NA,""
"image-keyboard-response",119,105853,"0.0-3.36-0.36","j7qoncf551ymkpx",229,"44.csv","","351.7999999523163","resources/trios/L4T4A2.jpg","39","restless",0.5,0.6,0.5,0.48231280646606,"true"
"image-keyboard-response",120,106269,"0.0-3.36-1.36","j7qoncf551ymkpx",229,"44.csv","","null","resources/maskTrios/BBA2.jpg","null","",NA,NA,NA,NA,""
"image-keyboard-response",121,107481,"0.0-3.36-2.36","j7qoncf551ymkpx",229,"44.csv","","null","resources/images/coin2.png","null","",NA,NA,NA,NA,""
"image-keyboard-response",122,107812,"0.0-3.37-0.37","j7qoncf551ymkpx",229,"44.csv","","329.5","resources/trios/L1T1A2.jpg","39","restless",0.5,0.6,0.5,0.580679843478807,"false"
"image-keyboard-response",123,108234,"0.0-3.37-1.37","j7qoncf551ymkpx",229,"44.csv","","null","resources/maskTrios/BBA2.jpg","null","",NA,NA,NA,NA,""
"image-keyboard-response",124,109445,"0.0-3.37-2.37","j7qoncf551ymkpx",229,"44.csv","","null","resources/images/fishbone.png","null","",NA,NA,NA,NA,""
"image-keyboard-response",125,109779,"0.0-3.38-0.38","j7qoncf551ymkpx",229,"44.csv","","333.2999999523163","resources/trios/L4T1A2.jpg","37","restless",0.5,0.6,0.5,0.147339263585798,"true"
"image-keyboard-response",126,110197,"0.0-3.38-1.38","j7qoncf551ymkpx",229,"44.csv","","null","resources/maskTrios/L4BB.jpg","null","",NA,NA,NA,NA,""
"image-keyboard-response",127,111410,"0.0-3.38-2.38","j7qoncf551ymkpx",229,"44.csv","","null","resources/images/coin2.png","null","",NA,NA,NA,NA,""
"image-keyboard-response",128,111758,"0.0-3.39-0.39","j7qoncf551ymkpx",229,"44.csv","","345.80000019073486","resources/trios/L1T1A2.jpg","39","restless",0.5,0.6,0.5,0.986561018258683,"false"
"image-keyboard-response",129,112168,"0.0-3.39-1.39","j7qoncf551ymkpx",229,"44.csv","","null","resources/maskTrios/BBA2.jpg","null","",NA,NA,NA,NA,""
"image-keyboard-response",130,113381,"0.0-3.39-2.39","j7qoncf551ymkpx",229,"44.csv","","null","resources/images/fishbone.png","null","",NA,NA,NA,NA,""
"image-keyboard-response",131,113759,"0.0-3.40-0.40","j7qoncf551ymkpx",229,"44.csv","","376.90000009536743","resources/trios/L1T4A3.jpg","37","restless",0.6,0.6,0.5,0.502527166000556,"true"
"image-keyboard-response",132,114166,"0.0-3.40-1.40","j7qoncf551ymkpx",229,"44.csv","","null","resources/maskTrios/L1BB.jpg","null","",NA,NA,NA,NA,""
"image-keyboard-response",133,115387,"0.0-3.40-2.40","j7qoncf551ymkpx",229,"44.csv","","null","resources/images/coin2.png","null","",NA,NA,NA,NA,""
"image-keyboard-response",134,115717,"0.0-3.41-0.41","j7qoncf551ymkpx",229,"44.csv","","328.40000009536743","resources/trios/L1T4A2.jpg","37","restless",0.6,0.6,0.5,0.988050133924478,"false"
"image-keyboard-response",135,116141,"0.0-3.41-1.41","j7qoncf551ymkpx",229,"44.csv","","null","resources/maskTrios/L1BB.jpg","null","",NA,NA,NA,NA,""
"image-keyboard-response",136,117356,"0.0-3.41-2.41","j7qoncf551ymkpx",229,"44.csv","","null","resources/images/fishbone.png","null","",NA,NA,NA,NA,""
"image-keyboard-response",137,117658,"0.0-3.42-0.42","j7qoncf551ymkpx",229,"44.csv","","300.30000019073486","resources/trios/L4T1A2.jpg","38","restless",0.6,0.5,0.5,0.783949231058502,"false"
"image-keyboard-response",138,118063,"0.0-3.42-1.42","j7qoncf551ymkpx",229,"44.csv","","null","resources/maskTrios/BT1B.jpg","null","",NA,NA,NA,NA,""
"image-keyboard-response",139,119271,"0.0-3.42-2.42","j7qoncf551ymkpx",229,"44.csv","","null","resources/images/fishbone.png","null","",NA,NA,NA,NA,""
"image-keyboard-response",140,120030,"0.0-3.43-0.43","j7qoncf551ymkpx",229,"44.csv","","757.2999999523163","resources/trios/L1T1A3.jpg","38","restless",0.6,0.5,0.5,0.423685188026056,"true"
"image-keyboard-response",141,120450,"0.0-3.43-1.43","j7qoncf551ymkpx",229,"44.csv","","null","resources/maskTrios/BT1B.jpg","null","",NA,NA,NA,NA,""
"image-keyboard-response",142,121656,"0.0-3.43-2.43","j7qoncf551ymkpx",229,"44.csv","","null","resources/images/coin2.png","null","",NA,NA,NA,NA,""
"image-keyboard-response",143,122510,"0.0-3.44-0.44","j7qoncf551ymkpx",229,"44.csv","","851","resources/trios/L4T1A2.jpg","38","restless",0.6,0.5,0.6,0.0141978979140476,"true"
"image-keyboard-response",144,122926,"0.0-3.44-1.44","j7qoncf551ymkpx",229,"44.csv","","null","resources/maskTrios/BT1B.jpg","null","",NA,NA,NA,NA,""
"image-keyboard-response",145,124147,"0.0-3.44-2.44","j7qoncf551ymkpx",229,"44.csv","","null","resources/images/coin2.png","null","",NA,NA,NA,NA,""
"image-keyboard-response",146,126802,"0.0-3.45-0.45","j7qoncf551ymkpx",229,"44.csv","","2652.7999999523163","resources/trios/L1T4A3.jpg","38","restless",0.6,0.5,0.6,0.326900876154331,"true"
"image-keyboard-response",147,127213,"0.0-3.45-1.45","j7qoncf551ymkpx",229,"44.csv","","null","resources/maskTrios/BT4B.jpg","null","",NA,NA,NA,NA,""
"image-keyboard-response",148,128436,"0.0-3.45-2.45","j7qoncf551ymkpx",229,"44.csv","","null","resources/images/coin2.png","null","",NA,NA,NA,NA,""
"image-keyboard-response",149,128561,"0.0-3.46-0.46","j7qoncf551ymkpx",229,"44.csv","","123.39999985694885","resources/trios/L1T1A3.jpg","38","restless",0.6,0.5,0.6,0.894650927551831,"false"
"image-keyboard-response",150,128971,"0.0-3.46-1.46","j7qoncf551ymkpx",229,"44.csv","","null","resources/maskTrios/BT1B.jpg","null","",NA,NA,NA,NA,""
"image-keyboard-response",151,130182,"0.0-3.46-2.46","j7qoncf551ymkpx",229,"44.csv","","null","resources/images/fishbone.png","null","",NA,NA,NA,NA,""
"image-keyboard-response",152,132325,"0.0-3.47-0.47","j7qoncf551ymkpx",229,"44.csv","","2141.600000143051","resources/trios/L4T4A2.jpg","38","restless",0.6,0.5,0.7,0.803414168089008,"false"
"image-keyboard-response",153,132744,"0.0-3.47-1.47","j7qoncf551ymkpx",229,"44.csv","","null","resources/maskTrios/BT4B.jpg","null","",NA,NA,NA,NA,""
"image-keyboard-response",154,133957,"0.0-3.47-2.47","j7qoncf551ymkpx",229,"44.csv","","null","resources/images/fishbone.png","null","",NA,NA,NA,NA,""
"image-keyboard-response",155,135557,"0.0-3.48-0.48","j7qoncf551ymkpx",229,"44.csv","","1599.2999999523163","resources/trios/L1T4A3.jpg","37","restless",0.6,0.5,0.7,0.628650005822355,"false"
"image-keyboard-response",156,135980,"0.0-3.48-1.48","j7qoncf551ymkpx",229,"44.csv","","null","resources/maskTrios/L1BB.jpg","null","",NA,NA,NA,NA,""
"image-keyboard-response",157,137189,"0.0-3.48-2.48","j7qoncf551ymkpx",229,"44.csv","","null","resources/images/fishbone.png","null","",NA,NA,NA,NA,""
"image-keyboard-response",158,139745,"0.0-3.49-0.49","j7qoncf551ymkpx",229,"44.csv","","2555.5999999046326","resources/trios/L1T1A3.jpg","37","restless",0.6,0.5,0.7,0.560314346672775,"true"
"image-keyboard-response",159,140162,"0.0-3.49-1.49","j7qoncf551ymkpx",229,"44.csv","","null","resources/maskTrios/L1BB.jpg","null","",NA,NA,NA,NA,""
"image-keyboard-response",160,141377,"0.0-3.49-2.49","j7qoncf551ymkpx",229,"44.csv","","null","resources/images/coin2.png","null","",NA,NA,NA,NA,""
"image-keyboard-response",161,141499,"0.0-3.50-0.50","j7qoncf551ymkpx",229,"44.csv","","120.39999985694885","resources/trios/L1T1A2.jpg","37","restless",0.6,0.5,0.7,0.269737205784758,"true"
"image-keyboard-response",162,141911,"0.0-3.50-1.50","j7qoncf551ymkpx",229,"44.csv","","null","resources/maskTrios/L1BB.jpg","null","",NA,NA,NA,NA,""
"image-keyboard-response",163,143121,"0.0-3.50-2.50","j7qoncf551ymkpx",229,"44.csv","","null","resources/images/coin2.png","null","",NA,NA,NA,NA,""
"image-keyboard-response",164,143751,"0.0-3.51-0.51","j7qoncf551ymkpx",229,"44.csv","","629.7000000476837","resources/trios/L1T1A3.jpg","37","restless",0.6,0.5,0.7,0.0799471150869999,"true"
"image-keyboard-response",165,144170,"0.0-3.51-1.51","j7qoncf551ymkpx",229,"44.csv","","null","resources/maskTrios/L1BB.jpg","null","",NA,NA,NA,NA,""
"image-keyboard-response",166,145383,"0.0-3.51-2.51","j7qoncf551ymkpx",229,"44.csv","","null","resources/images/coin2.png","null","",NA,NA,NA,NA,""
"image-keyboard-response",167,146367,"0.0-3.52-0.52","j7qoncf551ymkpx",229,"44.csv","","981.2000000476837","resources/trios/L4T4A3.jpg","37","restless",0.6,0.5,0.7,0.504488231950607,"true"
"image-keyboard-response",168,146787,"0.0-3.52-1.52","j7qoncf551ymkpx",229,"44.csv","","null","resources/maskTrios/L4BB.jpg","null","",NA,NA,NA,NA,""
"image-keyboard-response",169,147995,"0.0-3.52-2.52","j7qoncf551ymkpx",229,"44.csv","","null","resources/images/coin2.png","null","",NA,NA,NA,NA,""
"image-keyboard-response",170,148016,"0.0-3.53-0.53","j7qoncf551ymkpx",229,"44.csv","","18.299999952316284","resources/trios/L4T1A3.jpg","37","restless",0.6,0.5,0.7,0.800906130564707,"false"
"image-keyboard-response",171,148434,"0.0-3.53-1.53","j7qoncf551ymkpx",229,"44.csv","","null","resources/maskTrios/L4BB.jpg","null","",NA,NA,NA,NA,""
"image-keyboard-response",172,149652,"0.0-3.53-2.53","j7qoncf551ymkpx",229,"44.csv","","null","resources/images/fishbone.png","null","",NA,NA,NA,NA,""
"image-keyboard-response",173,150333,"0.0-3.54-0.54","j7qoncf551ymkpx",229,"44.csv","","680.1999998092651","resources/trios/L1T1A2.jpg","37","restless",0.6,0.5,0.6,0.153489175019315,"true"
"image-keyboard-response",174,150748,"0.0-3.54-1.54","j7qoncf551ymkpx",229,"44.csv","","null","resources/maskTrios/L1BB.jpg","null","",NA,NA,NA,NA,""
"image-keyboard-response",175,151959,"0.0-3.54-2.54","j7qoncf551ymkpx",229,"44.csv","","null","resources/images/coin2.png","null","",NA,NA,NA,NA,""
"image-keyboard-response",176,152296,"0.0-3.55-0.55","j7qoncf551ymkpx",229,"44.csv","","335.40000009536743","resources/trios/L4T4A2.jpg","37","restless",0.6,0.6,0.6,0.421856870538217,"true"
"image-keyboard-response",177,152711,"0.0-3.55-1.55","j7qoncf551ymkpx",229,"44.csv","","null","resources/maskTrios/L4BB.jpg","null","",NA,NA,NA,NA,""
"image-keyboard-response",178,153921,"0.0-3.55-2.55","j7qoncf551ymkpx",229,"44.csv","","null","resources/images/coin2.png","null","",NA,NA,NA,NA,""
"image-keyboard-response",179,154445,"0.0-3.56-0.56","j7qoncf551ymkpx",229,"44.csv","","522","resources/trios/L1T4A2.jpg","37","restless",0.6,0.6,0.6,0.888626540440857,"false"
"image-keyboard-response",180,154860,"0.0-3.56-1.56","j7qoncf551ymkpx",229,"44.csv","","null","resources/maskTrios/L1BB.jpg","null","",NA,NA,NA,NA,""
"image-keyboard-response",181,156071,"0.0-3.56-2.56","j7qoncf551ymkpx",229,"44.csv","","null","resources/images/fishbone.png","null","",NA,NA,NA,NA,""
"image-keyboard-response",182,156204,"0.0-3.57-0.57","j7qoncf551ymkpx",229,"44.csv","","131.70000004768372","resources/trios/L1T4A2.jpg","38","restless",0.6,0.5,0.6,0.600382239490103,"false"
"image-keyboard-response",183,156624,"0.0-3.57-1.57","j7qoncf551ymkpx",229,"44.csv","","null","resources/maskTrios/BT4B.jpg","null","",NA,NA,NA,NA,""
"image-keyboard-response",184,157836,"0.0-3.57-2.57","j7qoncf551ymkpx",229,"44.csv","","null","resources/images/fishbone.png","null","",NA,NA,NA,NA,""
"image-keyboard-response",185,158276,"0.0-3.58-0.58","j7qoncf551ymkpx",229,"44.csv","","439.09999990463257","resources/trios/L1T1A2.jpg","38","restless",0.6,0.5,0.6,0.281387413785045,"true"
"image-keyboard-response",186,158688,"0.0-3.58-1.58","j7qoncf551ymkpx",229,"44.csv","","null","resources/maskTrios/BT1B.jpg","null","",NA,NA,NA,NA,""
"image-keyboard-response",187,159897,"0.0-3.58-2.58","j7qoncf551ymkpx",229,"44.csv","","null","resources/images/coin2.png","null","",NA,NA,NA,NA,""
"image-keyboard-response",188,160310,"0.0-3.59-0.59","j7qoncf551ymkpx",229,"44.csv","","412.2000000476837","resources/trios/L4T1A3.jpg","38","restless",0.6,0.5,0.6,0.822976981881956,"false"
"image-keyboard-response",189,160727,"0.0-3.59-1.59","j7qoncf551ymkpx",229,"44.csv","","null","resources/maskTrios/BT1B.jpg","null","",NA,NA,NA,NA,""
"image-keyboard-response",190,161940,"0.0-3.59-2.59","j7qoncf551ymkpx",229,"44.csv","","null","resources/images/fishbone.png","null","",NA,NA,NA,NA,""
"image-keyboard-response",191,162636,"0.0-3.60-0.60","j7qoncf551ymkpx",229,"44.csv","","695.0999999046326","resources/trios/L4T4A3.jpg","39","restless",0.6,0.5,0.6,0.336778762056489,"true"
"image-keyboard-response",192,163053,"0.0-3.60-1.60","j7qoncf551ymkpx",229,"44.csv","","null","resources/maskTrios/BBA3.jpg","null","",NA,NA,NA,NA,""
"image-keyboard-response",193,164273,"0.0-3.60-2.60","j7qoncf551ymkpx",229,"44.csv","","null","resources/images/coin2.png","null","",NA,NA,NA,NA,""
"image-keyboard-response",194,164508,"0.0-3.61-0.61","j7qoncf551ymkpx",229,"44.csv","","234.20000004768372","resources/trios/L4T1A2.jpg","39","restless",0.6,0.4,0.6,0.133233849133577,"true"
"image-keyboard-response",195,164915,"0.0-3.61-1.61","j7qoncf551ymkpx",229,"44.csv","","null","resources/maskTrios/BBA2.jpg","null","",NA,NA,NA,NA,""
"image-keyboard-response",196,166132,"0.0-3.61-2.61","j7qoncf551ymkpx",229,"44.csv","","null","resources/images/coin2.png","null","",NA,NA,NA,NA,""
"image-keyboard-response",197,166517,"0.0-3.62-0.62","j7qoncf551ymkpx",229,"44.csv","","382.5","resources/trios/L1T4A2.jpg","39","restless",0.6,0.4,0.6,0.432149458374743,"true"
"image-keyboard-response",198,166931,"0.0-3.62-1.62","j7qoncf551ymkpx",229,"44.csv","","null","resources/maskTrios/BBA2.jpg","null","",NA,NA,NA,NA,""
"image-keyboard-response",199,168140,"0.0-3.62-2.62","j7qoncf551ymkpx",229,"44.csv","","null","resources/images/coin2.png","null","",NA,NA,NA,NA,""
"image-keyboard-response",200,168525,"0.0-3.63-0.63","j7qoncf551ymkpx",229,"44.csv","","385.10000014305115","resources/trios/L1T1A2.jpg","39","restless",0.6,0.3,0.6,0.744489627473571,"false"
"image-keyboard-response",201,168939,"0.0-3.63-1.63","j7qoncf551ymkpx",229,"44.csv","","null","resources/maskTrios/BBA2.jpg","null","",NA,NA,NA,NA,""
"image-keyboard-response",202,170147,"0.0-3.63-2.63","j7qoncf551ymkpx",229,"44.csv","","null","resources/images/fishbone.png","null","",NA,NA,NA,NA,""
"image-keyboard-response",203,170432,"0.0-3.64-0.64","j7qoncf551ymkpx",229,"44.csv","","283.90000009536743","resources/trios/L4T4A2.jpg","37","restless",0.7,0.3,0.6,0.110173347347123,"true"
"image-keyboard-response",204,170839,"0.0-3.64-1.64","j7qoncf551ymkpx",229,"44.csv","","null","resources/maskTrios/L4BB.jpg","null","",NA,NA,NA,NA,""
"image-keyboard-response",205,172051,"0.0-3.64-2.64","j7qoncf551ymkpx",229,"44.csv","","null","resources/images/coin2.png","null","",NA,NA,NA,NA,""
"image-keyboard-response",206,172438,"0.0-3.65-0.65","j7qoncf551ymkpx",229,"44.csv","","385.90000009536743","resources/trios/L4T4A2.jpg","37","restless",0.7,0.3,0.6,0.660980583582996,"true"
"image-keyboard-response",207,172852,"0.0-3.65-1.65","j7qoncf551ymkpx",229,"44.csv","","null","resources/maskTrios/L4BB.jpg","null","",NA,NA,NA,NA,""
"image-keyboard-response",208,174058,"0.0-3.65-2.65","j7qoncf551ymkpx",229,"44.csv","","null","resources/images/coin2.png","null","",NA,NA,NA,NA,""
"image-keyboard-response",209,174349,"0.0-3.66-0.66","j7qoncf551ymkpx",229,"44.csv","","289.2999999523163","resources/trios/L1T4A2.jpg","38","restless",0.7,0.3,0.6,0.293976877196698,"true"
"image-keyboard-response",210,174752,"0.0-3.66-1.66","j7qoncf551ymkpx",229,"44.csv","","null","resources/maskTrios/BT4B.jpg","null","",NA,NA,NA,NA,""
"image-keyboard-response",211,175963,"0.0-3.66-2.66","j7qoncf551ymkpx",229,"44.csv","","null","resources/images/coin2.png","null","",NA,NA,NA,NA,""
"image-keyboard-response",212,176292,"0.0-3.67-0.67","j7qoncf551ymkpx",229,"44.csv","","327.7000000476837","resources/trios/L4T1A3.jpg","38","restless",0.7,0.3,0.6,0.648480080743646,"false"
"image-keyboard-response",213,176705,"0.0-3.67-1.67","j7qoncf551ymkpx",229,"44.csv","","null","resources/maskTrios/BT1B.jpg","null","",NA,NA,NA,NA,""
"image-keyboard-response",214,177919,"0.0-3.67-2.67","j7qoncf551ymkpx",229,"44.csv","","null","resources/images/fishbone.png","null","",NA,NA,NA,NA,""
"image-keyboard-response",215,178208,"0.0-3.68-0.68","j7qoncf551ymkpx",229,"44.csv","","287.39999985694885","resources/trios/L1T1A2.jpg","37","restless",0.7,0.3,0.6,0.070319626448303,"true"
"image-keyboard-response",216,178626,"0.0-3.68-1.68","j7qoncf551ymkpx",229,"44.csv","","null","resources/maskTrios/L1BB.jpg","null","",NA,NA,NA,NA,""
"image-keyboard-response",217,179838,"0.0-3.68-2.68","j7qoncf551ymkpx",229,"44.csv","","null","resources/images/coin2.png","null","",NA,NA,NA,NA,""
"image-keyboard-response",218,180187,"0.0-3.69-0.69","j7qoncf551ymkpx",229,"44.csv","","349","resources/trios/L4T1A2.jpg","37","restless",0.7,0.3,0.6,0.34708602749127,"true"
"image-keyboard-response",219,180594,"0.0-3.69-1.69","j7qoncf551ymkpx",229,"44.csv","","null","resources/maskTrios/L4BB.jpg","null","",NA,NA,NA,NA,""
"image-keyboard-response",220,181808,"0.0-3.69-2.69","j7qoncf551ymkpx",229,"44.csv","","null","resources/images/coin2.png","null","",NA,NA,NA,NA,""
"image-keyboard-response",221,182128,"0.0-3.70-0.70","j7qoncf551ymkpx",229,"44.csv","","318.89999985694885","resources/trios/L1T4A2.jpg","39","restless",0.7,0.3,0.6,0.295749087679234,"true"
"image-keyboard-response",222,182544,"0.0-3.70-1.70","j7qoncf551ymkpx",229,"44.csv","","null","resources/maskTrios/BBA2.jpg","null","",NA,NA,NA,NA,""
"image-keyboard-response",223,183761,"0.0-3.70-2.70","j7qoncf551ymkpx",229,"44.csv","","null","resources/images/coin2.png","null","",NA,NA,NA,NA,""
"image-keyboard-response",224,183819,"0.0-3.71-0.71","j7qoncf551ymkpx",229,"44.csv","","57","resources/trios/L4T1A3.jpg","39","restless",0.7,0.2,0.6,0.84365967023346,"false"
"image-keyboard-response",225,184234,"0.0-3.71-1.71","j7qoncf551ymkpx",229,"44.csv","","null","resources/maskTrios/BBA3.jpg","null","",NA,NA,NA,NA,""
"image-keyboard-response",226,185445,"0.0-3.71-2.71","j7qoncf551ymkpx",229,"44.csv","","null","resources/images/fishbone.png","null","",NA,NA,NA,NA,""
"image-keyboard-response",227,185640,"0.0-3.72-0.72","j7qoncf551ymkpx",229,"44.csv","","193.10000014305115","resources/trios/L1T1A2.jpg","37","restless",0.7,0.2,0.6,0.590805074413095,"true"
"image-keyboard-response",228,186059,"0.0-3.72-1.72","j7qoncf551ymkpx",229,"44.csv","","null","resources/maskTrios/L1BB.jpg","null","",NA,NA,NA,NA,""
"image-keyboard-response",229,187274,"0.0-3.72-2.72","j7qoncf551ymkpx",229,"44.csv","","null","resources/images/coin2.png","null","",NA,NA,NA,NA,""
"image-keyboard-response",230,187971,"0.0-3.73-0.73","j7qoncf551ymkpx",229,"44.csv","","697","resources/trios/L1T1A2.jpg","37","restless",0.7,0.2,0.6,0.237343886346622,"true"
"image-keyboard-response",231,188378,"0.0-3.73-1.73","j7qoncf551ymkpx",229,"44.csv","","null","resources/maskTrios/L1BB.jpg","null","",NA,NA,NA,NA,""
"image-keyboard-response",232,189591,"0.0-3.73-2.73","j7qoncf551ymkpx",229,"44.csv","","null","resources/images/coin2.png","null","",NA,NA,NA,NA,""
"image-keyboard-response",233,190030,"0.0-3.74-0.74","j7qoncf551ymkpx",229,"44.csv","","438.2000000476837","resources/trios/L4T4A2.jpg","37","restless",0.7,0.3,0.6,0.637383127394773,"true"
"image-keyboard-response",234,190440,"0.0-3.74-1.74","j7qoncf551ymkpx",229,"44.csv","","null","resources/maskTrios/L4BB.jpg","null","",NA,NA,NA,NA,""
"image-keyboard-response",235,191662,"0.0-3.74-2.74","j7qoncf551ymkpx",229,"44.csv","","null","resources/images/coin2.png","null","",NA,NA,NA,NA,""
"image-keyboard-response",236,192531,"0.0-3.75-0.75","j7qoncf551ymkpx",229,"44.csv","","867.7999999523163","resources/trios/L4T4A3.jpg","37","restless",0.7,0.3,0.5,0.893543214094194,"false"
"image-keyboard-response",237,192936,"0.0-3.75-1.75","j7qoncf551ymkpx",229,"44.csv","","null","resources/maskTrios/L4BB.jpg","null","",NA,NA,NA,NA,""
"image-keyboard-response",238,194157,"0.0-3.75-2.75","j7qoncf551ymkpx",229,"44.csv","","null","resources/images/fishbone.png","null","",NA,NA,NA,NA,""
"image-keyboard-response",239,194509,"0.0-3.76-0.76","j7qoncf551ymkpx",229,"44.csv","","350.5","resources/trios/L4T4A2.jpg","38","restless",0.7,0.3,0.5,0.308542497528359,"false"
"image-keyboard-response",240,194924,"0.0-3.76-1.76","j7qoncf551ymkpx",229,"44.csv","","null","resources/maskTrios/BT4B.jpg","null","",NA,NA,NA,NA,""
"image-keyboard-response",241,196140,"0.0-3.76-2.76","j7qoncf551ymkpx",229,"44.csv","","null","resources/images/fishbone.png","null","",NA,NA,NA,NA,""
"image-keyboard-response",242,196633,"0.0-3.77-0.77","j7qoncf551ymkpx",229,"44.csv","","492.19999980926514","resources/trios/L1T4A3.jpg","39","restless",0.7,0.3,0.5,0.146741206287073,"true"
"image-keyboard-response",243,197051,"0.0-3.77-1.77","j7qoncf551ymkpx",229,"44.csv","","null","resources/maskTrios/BBA3.jpg","null","",NA,NA,NA,NA,""
"image-keyboard-response",244,198265,"0.0-3.77-2.77","j7qoncf551ymkpx",229,"44.csv","","null","resources/images/coin2.png","null","",NA,NA,NA,NA,""
"image-keyboard-response",245,198625,"0.0-3.78-0.78","j7qoncf551ymkpx",229,"44.csv","","357.2000000476837","resources/trios/L1T1A2.jpg","39","restless",0.7,0.3,0.5,0.894278851204544,"false"
"image-keyboard-response",246,199035,"0.0-3.78-1.78","j7qoncf551ymkpx",229,"44.csv","","null","resources/maskTrios/BBA2.jpg","null","",NA,NA,NA,NA,""
"image-keyboard-response",247,200246,"0.0-3.78-2.78","j7qoncf551ymkpx",229,"44.csv","","null","resources/images/fishbone.png","null","",NA,NA,NA,NA,""
"image-keyboard-response",248,200677,"0.0-3.79-0.79","j7qoncf551ymkpx",229,"44.csv","","429.7000000476837","resources/trios/L1T4A2.jpg","37","restless",0.7,0.3,0.5,0.183896540806469,"true"
"image-keyboard-response",249,201089,"0.0-3.79-1.79","j7qoncf551ymkpx",229,"44.csv","","null","resources/maskTrios/L1BB.jpg","null","",NA,NA,NA,NA,""
"image-keyboard-response",250,202300,"0.0-3.79-2.79","j7qoncf551ymkpx",229,"44.csv","","null","resources/images/coin2.png","null","",NA,NA,NA,NA,""
"image-keyboard-response",251,202407,"0.0-3.80-0.80","j7qoncf551ymkpx",229,"44.csv","","104.5","resources/trios/L4T1A2.jpg","37","restless",0.7,0.2,0.5,0.552102011560485,"true"
"image-keyboard-response",252,202817,"0.0-3.80-1.80","j7qoncf551ymkpx",229,"44.csv","","null","resources/maskTrios/L4BB.jpg","null","",NA,NA,NA,NA,""
"image-keyboard-response",253,204029,"0.0-3.80-2.80","j7qoncf551ymkpx",229,"44.csv","","null","resources/images/coin2.png","null","",NA,NA,NA,NA,""
"image-keyboard-response",254,204318,"0.0-3.81-0.81","j7qoncf551ymkpx",229,"44.csv","","287.5","resources/trios/L1T4A2.jpg","37","restless",0.7,0.2,0.5,0.732013590941291,"false"
"image-keyboard-response",255,204720,"0.0-3.81-1.81","j7qoncf551ymkpx",229,"44.csv","","null","resources/maskTrios/L1BB.jpg","null","",NA,NA,NA,NA,""
"image-keyboard-response",256,205930,"0.0-3.81-2.81","j7qoncf551ymkpx",229,"44.csv","","null","resources/images/fishbone.png","null","",NA,NA,NA,NA,""
"image-keyboard-response",257,206313,"0.0-3.82-0.82","j7qoncf551ymkpx",229,"44.csv","","380.7000000476837","resources/trios/L4T1A2.jpg","38","restless",0.6,0.2,0.5,0.502917985067211,"false"
"image-keyboard-response",258,206729,"0.0-3.82-1.82","j7qoncf551ymkpx",229,"44.csv","","null","resources/maskTrios/BT1B.jpg","null","",NA,NA,NA,NA,""
"image-keyboard-response",259,207941,"0.0-3.82-2.82","j7qoncf551ymkpx",229,"44.csv","","null","resources/images/fishbone.png","null","",NA,NA,NA,NA,""
"image-keyboard-response",260,208563,"0.0-3.83-0.83","j7qoncf551ymkpx",229,"44.csv","","620.3999998569489","resources/trios/L4T1A3.jpg","39","restless",0.6,0.2,0.5,0.213504010964352,"true"
"image-keyboard-response",261,208979,"0.0-3.83-1.83","j7qoncf551ymkpx",229,"44.csv","","null","resources/maskTrios/BBA3.jpg","null","",NA,NA,NA,NA,""
"image-keyboard-response",262,210192,"0.0-3.83-2.83","j7qoncf551ymkpx",229,"44.csv","","null","resources/images/coin2.png","null","",NA,NA,NA,NA,""
"image-keyboard-response",263,210496,"0.0-3.84-0.84","j7qoncf551ymkpx",229,"44.csv","","303.10000014305115","resources/trios/L4T1A3.jpg","39","restless",0.6,0.2,0.5,0.386271744940111,"true"
"image-keyboard-response",264,210915,"0.0-3.84-1.84","j7qoncf551ymkpx",229,"44.csv","","null","resources/maskTrios/BBA3.jpg","null","",NA,NA,NA,NA,""
"image-keyboard-response",265,212128,"0.0-3.84-2.84","j7qoncf551ymkpx",229,"44.csv","","null","resources/images/coin2.png","null","",NA,NA,NA,NA,""
"image-keyboard-response",266,213895,"0.0-3.85-0.85","j7qoncf551ymkpx",229,"44.csv","","1765.0999999046326","resources/trios/L1T4A3.jpg","39","restless",0.6,0.2,0.5,0.897574248872501,"false"
"image-keyboard-response",267,214313,"0.0-3.85-1.85","j7qoncf551ymkpx",229,"44.csv","","null","resources/maskTrios/BBA3.jpg","null","",NA,NA,NA,NA,""
"image-keyboard-response",268,215527,"0.0-3.85-2.85","j7qoncf551ymkpx",229,"44.csv","","null","resources/images/fishbone.png","null","",NA,NA,NA,NA,""
"image-keyboard-response",269,215756,"0.0-3.86-0.86","j7qoncf551ymkpx",229,"44.csv","","228","resources/trios/L4T1A3.jpg","37","restless",0.6,0.2,0.5,0.144354952664068,"true"
"image-keyboard-response",270,216166,"0.0-3.86-1.86","j7qoncf551ymkpx",229,"44.csv","","null","resources/maskTrios/L4BB.jpg","null","",NA,NA,NA,NA,""
"image-keyboard-response",271,217376,"0.0-3.86-2.86","j7qoncf551ymkpx",229,"44.csv","","null","resources/images/coin2.png","null","",NA,NA,NA,NA,""
"image-keyboard-response",272,217563,"0.0-3.87-0.87","j7qoncf551ymkpx",229,"44.csv","","184.29999995231628","resources/trios/L4T4A2.jpg","37","restless",0.6,0.2,0.5,0.696561234306825,"false"
"image-keyboard-response",273,217973,"0.0-3.87-1.87","j7qoncf551ymkpx",229,"44.csv","","null","resources/maskTrios/L4BB.jpg","null","",NA,NA,NA,NA,""
"image-keyboard-response",274,219184,"0.0-3.87-2.87","j7qoncf551ymkpx",229,"44.csv","","null","resources/images/fishbone.png","null","",NA,NA,NA,NA,""
"image-keyboard-response",275,219521,"0.0-3.88-0.88","j7qoncf551ymkpx",229,"44.csv","","335.5","resources/trios/L4T1A3.jpg","38","restless",0.7,0.2,0.5,0.898254695554023,"false"
"image-keyboard-response",276,219937,"0.0-3.88-1.88","j7qoncf551ymkpx",229,"44.csv","","null","resources/maskTrios/BT1B.jpg","null","",NA,NA,NA,NA,""
"image-keyboard-response",277,221149,"0.0-3.88-2.88","j7qoncf551ymkpx",229,"44.csv","","null","resources/images/fishbone.png","null","",NA,NA,NA,NA,""
"image-keyboard-response",278,221227,"0.0-3.89-0.89","j7qoncf551ymkpx",229,"44.csv","","75.5","resources/trios/L4T1A3.jpg","37","restless",0.7,0.2,0.5,0.196551692532985,"true"
"image-keyboard-response",279,221632,"0.0-3.89-1.89","j7qoncf551ymkpx",229,"44.csv","","null","resources/maskTrios/L4BB.jpg","null","",NA,NA,NA,NA,""
"image-keyboard-response",280,222847,"0.0-3.89-2.89","j7qoncf551ymkpx",229,"44.csv","","null","resources/images/coin2.png","null","",NA,NA,NA,NA,""
"image-keyboard-response",281,223778,"0.0-3.90-0.90","j7qoncf551ymkpx",229,"44.csv","","930.7000000476837","resources/trios/L1T1A3.jpg","37","restless",0.7,0.2,0.6,0.941841554110176,"false"
"image-keyboard-response",282,224189,"0.0-3.90-1.90","j7qoncf551ymkpx",229,"44.csv","","null","resources/maskTrios/L1BB.jpg","null","",NA,NA,NA,NA,""
"image-keyboard-response",283,225394,"0.0-3.90-2.90","j7qoncf551ymkpx",229,"44.csv","","null","resources/images/fishbone.png","null","",NA,NA,NA,NA,""
"image-keyboard-response",284,225689,"0.0-3.91-0.91","j7qoncf551ymkpx",229,"44.csv","","293.60000014305115","resources/trios/L1T1A3.jpg","38","restless",0.7,0.2,0.6,0.591509369480095,"false"
"image-keyboard-response",285,226105,"0.0-3.91-1.91","j7qoncf551ymkpx",229,"44.csv","","null","resources/maskTrios/BT1B.jpg","null","",NA,NA,NA,NA,""
"image-keyboard-response",286,227326,"0.0-3.91-2.91","j7qoncf551ymkpx",229,"44.csv","","null","resources/images/fishbone.png","null","",NA,NA,NA,NA,""
"image-keyboard-response",287,227572,"0.0-3.92-0.92","j7qoncf551ymkpx",229,"44.csv","","244.89999985694885","resources/trios/L4T1A2.jpg","39","restless",0.7,0.2,0.6,0.744574165642579,"false"
"image-keyboard-response",288,227985,"0.0-3.92-1.92","j7qoncf551ymkpx",229,"44.csv","","null","resources/maskTrios/BBA2.jpg","null","",NA,NA,NA,NA,""
"image-keyboard-response",289,229196,"0.0-3.92-2.92","j7qoncf551ymkpx",229,"44.csv","","null","resources/images/fishbone.png","null","",NA,NA,NA,NA,""
"image-keyboard-response",290,229440,"0.0-3.93-0.93","j7qoncf551ymkpx",229,"44.csv","","243.09999990463257","resources/trios/L1T4A2.jpg","37","restless",0.7,0.2,0.5,0.105014866940336,"true"
"image-keyboard-response",291,229858,"0.0-3.93-1.93","j7qoncf551ymkpx",229,"44.csv","","null","resources/maskTrios/L1BB.jpg","null","",NA,NA,NA,NA,""
"image-keyboard-response",292,231065,"0.0-3.93-2.93","j7qoncf551ymkpx",229,"44.csv","","null","resources/images/coin2.png","null","",NA,NA,NA,NA,""
"image-keyboard-response",293,232340,"0.0-3.94-0.94","j7qoncf551ymkpx",229,"44.csv","","1273.2999999523163","resources/trios/L4T4A2.jpg","37","restless",0.7,0.2,0.5,0.966969285044646,"false"
"image-keyboard-response",294,232755,"0.0-3.94-1.94","j7qoncf551ymkpx",229,"44.csv","","null","resources/maskTrios/L4BB.jpg","null","",NA,NA,NA,NA,""
"image-keyboard-response",295,233964,"0.0-3.94-2.94","j7qoncf551ymkpx",229,"44.csv","","null","resources/images/fishbone.png","null","",NA,NA,NA,NA,""
"image-keyboard-response",296,234252,"0.0-3.95-0.95","j7qoncf551ymkpx",229,"44.csv","","285.90000009536743","resources/trios/L4T1A2.jpg","38","restless",0.7,0.2,0.5,0.314574037665224,"false"
"image-keyboard-response",297,234669,"0.0-3.95-1.95","j7qoncf551ymkpx",229,"44.csv","","null","resources/maskTrios/BT1B.jpg","null","",NA,NA,NA,NA,""
"image-keyboard-response",298,235880,"0.0-3.95-2.95","j7qoncf551ymkpx",229,"44.csv","","null","resources/images/fishbone.png","null","",NA,NA,NA,NA,""
"image-keyboard-response",299,236172,"0.0-3.96-0.96","j7qoncf551ymkpx",229,"44.csv","","290","resources/trios/L4T1A2.jpg","39","restless",0.7,0.2,0.5,0.605137125336551,"false"
"image-keyboard-response",300,236591,"0.0-3.96-1.96","j7qoncf551ymkpx",229,"44.csv","","null","resources/maskTrios/BBA2.jpg","null","",NA,NA,NA,NA,""
"image-keyboard-response",301,237816,"0.0-3.96-2.96","j7qoncf551ymkpx",229,"44.csv","","null","resources/images/fishbone.png","null","",NA,NA,NA,NA,""
"image-keyboard-response",302,238143,"0.0-3.97-0.97","j7qoncf551ymkpx",229,"44.csv","","326.39999985694885","resources/trios/L1T4A2.jpg","39","restless",0.6,0.2,0.4,0.300853966149886,"true"
"image-keyboard-response",303,238566,"0.0-3.97-1.97","j7qoncf551ymkpx",229,"44.csv","","null","resources/maskTrios/BBA2.jpg","null","",NA,NA,NA,NA,""
"image-keyboard-response",304,239773,"0.0-3.97-2.97","j7qoncf551ymkpx",229,"44.csv","","null","resources/images/coin2.png","null","",NA,NA,NA,NA,""
"image-keyboard-response",305,240118,"0.0-3.98-0.98","j7qoncf551ymkpx",229,"44.csv","","343.7999999523163","resources/trios/L1T1A2.jpg","39","restless",0.5,0.2,0.4,0.219845662162155,"true"
"image-keyboard-response",306,240542,"0.0-3.98-1.98","j7qoncf551ymkpx",229,"44.csv","","null","resources/maskTrios/BBA2.jpg","null","",NA,NA,NA,NA,""
"image-keyboard-response",307,241752,"0.0-3.98-2.98","j7qoncf551ymkpx",229,"44.csv","","null","resources/images/coin2.png","null","",NA,NA,NA,NA,""
"image-keyboard-response",308,242094,"0.0-3.99-0.99","j7qoncf551ymkpx",229,"44.csv","","339.80000019073486","resources/trios/L1T1A3.jpg","39","restless",0.5,0.2,0.4,0.631998037758781,"false"
"image-keyboard-response",309,242507,"0.0-3.99-1.99","j7qoncf551ymkpx",229,"44.csv","","null","resources/maskTrios/BBA3.jpg","null","",NA,NA,NA,NA,""
"image-keyboard-response",310,243718,"0.0-3.99-2.99","j7qoncf551ymkpx",229,"44.csv","","null","resources/images/fishbone.png","null","",NA,NA,NA,NA,""
"image-keyboard-response",311,244031,"0.0-3.100-0.100","j7qoncf551ymkpx",229,"44.csv","","311.10000014305115","resources/trios/L1T4A3.jpg","38","restless",0.5,0.2,0.4,0.582301634504615,"false"
"image-keyboard-response",312,244444,"0.0-3.100-1.100","j7qoncf551ymkpx",229,"44.csv","","null","resources/maskTrios/BT4B.jpg","null","",NA,NA,NA,NA,""
"image-keyboard-response",313,245659,"0.0-3.100-2.100","j7qoncf551ymkpx",229,"44.csv","","null","resources/images/fishbone.png","null","",NA,NA,NA,NA,""
"image-keyboard-response",314,245972,"0.0-3.101-0.101","j7qoncf551ymkpx",229,"44.csv","","312.09999990463257","resources/trios/L1T4A2.jpg","38","restless",0.5,0.2,0.4,0.872108750752266,"false"
"image-keyboard-response",315,246384,"0.0-3.101-1.101","j7qoncf551ymkpx",229,"44.csv","","null","resources/maskTrios/BT4B.jpg","null","",NA,NA,NA,NA,""
"image-keyboard-response",316,247607,"0.0-3.101-2.101","j7qoncf551ymkpx",229,"44.csv","","null","resources/images/fishbone.png","null","",NA,NA,NA,NA,""
"image-keyboard-response",317,247827,"0.0-3.102-0.102","j7qoncf551ymkpx",229,"44.csv","","218.90000009536743","resources/trios/L1T1A3.jpg","38","restless",0.5,0.2,0.5,0.305015058115514,"false"
"image-keyboard-response",318,248236,"0.0-3.102-1.102","j7qoncf551ymkpx",229,"44.csv","","null","resources/maskTrios/BT1B.jpg","null","",NA,NA,NA,NA,""
"image-keyboard-response",319,249448,"0.0-3.102-2.102","j7qoncf551ymkpx",229,"44.csv","","null","resources/images/fishbone.png","null","",NA,NA,NA,NA,""
"image-keyboard-response",320,249622,"0.0-3.103-0.103","j7qoncf551ymkpx",229,"44.csv","","172.29999995231628","resources/trios/L1T4A3.jpg","37","restless",0.5,0.2,0.5,0.756899179573025,"false"
"image-keyboard-response",321,250042,"0.0-3.103-1.103","j7qoncf551ymkpx",229,"44.csv","","null","resources/maskTrios/L1BB.jpg","null","",NA,NA,NA,NA,""
"image-keyboard-response",322,251254,"0.0-3.103-2.103","j7qoncf551ymkpx",229,"44.csv","","null","resources/images/fishbone.png","null","",NA,NA,NA,NA,""
"image-keyboard-response",323,251504,"0.0-3.104-0.104","j7qoncf551ymkpx",229,"44.csv","","248.89999985694885","resources/trios/L1T1A2.jpg","37","restless",0.5,0.2,0.5,0.642459276590366,"false"
"image-keyboard-response",324,251913,"0.0-3.104-1.104","j7qoncf551ymkpx",229,"44.csv","","null","resources/maskTrios/L1BB.jpg","null","",NA,NA,NA,NA,""
"image-keyboard-response",325,253123,"0.0-3.104-2.104","j7qoncf551ymkpx",229,"44.csv","","null","resources/images/fishbone.png","null","",NA,NA,NA,NA,""
"image-keyboard-response",326,253846,"0.0-3.105-0.105","j7qoncf551ymkpx",229,"44.csv","","721.1999998092651","resources/trios/L4T1A3.jpg","37","restless",0.5,0.2,0.5,0.223090452083731,"true"
"image-keyboard-response",327,254259,"0.0-3.105-1.105","j7qoncf551ymkpx",229,"44.csv","","null","resources/maskTrios/L4BB.jpg","null","",NA,NA,NA,NA,""
"image-keyboard-response",328,255467,"0.0-3.105-2.105","j7qoncf551ymkpx",229,"44.csv","","null","resources/images/coin2.png","null","",NA,NA,NA,NA,""
"image-keyboard-response",329,256147,"0.0-3.106-0.106","j7qoncf551ymkpx",229,"44.csv","","677.5","resources/trios/L4T4A2.jpg","37","restless",0.5,0.2,0.5,0.51127685339725,"false"
"image-keyboard-response",330,256566,"0.0-3.106-1.106","j7qoncf551ymkpx",229,"44.csv","","null","resources/maskTrios/L4BB.jpg","null","",NA,NA,NA,NA,""
"image-keyboard-response",331,257778,"0.0-3.106-2.106","j7qoncf551ymkpx",229,"44.csv","","null","resources/images/fishbone.png","null","",NA,NA,NA,NA,""
"image-keyboard-response",332,258642,"0.0-3.107-0.107","j7qoncf551ymkpx",229,"44.csv","","861.0999999046326","resources/trios/L1T1A3.jpg","37","restless",0.5,0.2,0.5,0.135648005217014,"true"
"image-keyboard-response",333,259058,"0.0-3.107-1.107","j7qoncf551ymkpx",229,"44.csv","","null","resources/maskTrios/L1BB.jpg","null","",NA,NA,NA,NA,""
"image-keyboard-response",334,260277,"0.0-3.107-2.107","j7qoncf551ymkpx",229,"44.csv","","null","resources/images/coin2.png","null","",NA,NA,NA,NA,""
"image-keyboard-response",335,260603,"0.0-3.108-0.108","j7qoncf551ymkpx",229,"44.csv","","324.40000009536743","resources/trios/L1T4A2.jpg","37","restless",0.6,0.2,0.5,0.0129029870269777,"true"
"image-keyboard-response",336,261018,"0.0-3.108-1.108","j7qoncf551ymkpx",229,"44.csv","","null","resources/maskTrios/L1BB.jpg","null","",NA,NA,NA,NA,""
"image-keyboard-response",337,262230,"0.0-3.108-2.108","j7qoncf551ymkpx",229,"44.csv","","null","resources/images/coin2.png","null","",NA,NA,NA,NA,""
"image-keyboard-response",338,262585,"0.0-3.109-0.109","j7qoncf551ymkpx",229,"44.csv","","354.7000000476837","resources/trios/L1T4A2.jpg","37","restless",0.6,0.2,0.5,0.480389753770834,"true"
"image-keyboard-response",339,263002,"0.0-3.109-1.109","j7qoncf551ymkpx",229,"44.csv","","null","resources/maskTrios/L1BB.jpg","null","",NA,NA,NA,NA,""
"image-keyboard-response",340,264222,"0.0-3.109-2.109","j7qoncf551ymkpx",229,"44.csv","","null","resources/images/coin2.png","null","",NA,NA,NA,NA,""
"image-keyboard-response",341,264529,"0.0-3.110-0.110","j7qoncf551ymkpx",229,"44.csv","","306.09999990463257","resources/trios/L1T4A3.jpg","37","restless",0.6,0.2,0.5,0.542865982412811,"true"
"image-keyboard-response",342,264947,"0.0-3.110-1.110","j7qoncf551ymkpx",229,"44.csv","","null","resources/maskTrios/L1BB.jpg","null","",NA,NA,NA,NA,""
"image-keyboard-response",343,266159,"0.0-3.110-2.110","j7qoncf551ymkpx",229,"44.csv","","null","resources/images/coin2.png","null","",NA,NA,NA,NA,""
"image-keyboard-response",344,266482,"0.0-3.111-0.111","j7qoncf551ymkpx",229,"44.csv","","322.10000014305115","resources/trios/L4T4A3.jpg","37","restless",0.6,0.2,0.5,0.247791672389257,"true"
"image-keyboard-response",345,266897,"0.0-3.111-1.111","j7qoncf551ymkpx",229,"44.csv","","null","resources/maskTrios/L4BB.jpg","null","",NA,NA,NA,NA,""
"image-keyboard-response",346,268108,"0.0-3.111-2.111","j7qoncf551ymkpx",229,"44.csv","","null","resources/images/coin2.png","null","",NA,NA,NA,NA,""
"image-keyboard-response",347,268413,"0.0-3.112-0.112","j7qoncf551ymkpx",229,"44.csv","","303.10000014305115","resources/trios/L4T1A2.jpg","37","restless",0.6,0.2,0.5,0.293212240916348,"true"
"image-keyboard-response",348,268830,"0.0-3.112-1.112","j7qoncf551ymkpx",229,"44.csv","","null","resources/maskTrios/L4BB.jpg","null","",NA,NA,NA,NA,""
"image-keyboard-response",349,270033,"0.0-3.112-2.112","j7qoncf551ymkpx",229,"44.csv","","null","resources/images/coin2.png","null","",NA,NA,NA,NA,""
"image-keyboard-response",350,270337,"0.0-3.113-0.113","j7qoncf551ymkpx",229,"44.csv","","302.2000000476837","resources/trios/L1T4A2.jpg","37","restless",0.6,0.2,0.5,0.0559349536810947,"true"
"image-keyboard-response",351,270758,"0.0-3.113-1.113","j7qoncf551ymkpx",229,"44.csv","","null","resources/maskTrios/L1BB.jpg","null","",NA,NA,NA,NA,""
"image-keyboard-response",352,271970,"0.0-3.113-2.113","j7qoncf551ymkpx",229,"44.csv","","null","resources/images/coin2.png","null","",NA,NA,NA,NA,""
"image-keyboard-response",353,272292,"0.0-3.114-0.114","j7qoncf551ymkpx",229,"44.csv","","320.5","resources/trios/L1T1A2.jpg","37","restless",0.6,0.3,0.5,0.662045691225099,"false"
"image-keyboard-response",354,272707,"0.0-3.114-1.114","j7qoncf551ymkpx",229,"44.csv","","null","resources/maskTrios/L1BB.jpg","null","",NA,NA,NA,NA,""
"image-keyboard-response",355,273917,"0.0-3.114-2.114","j7qoncf551ymkpx",229,"44.csv","","null","resources/images/fishbone.png","null","",NA,NA,NA,NA,""
"image-keyboard-response",356,274253,"0.0-3.115-0.115","j7qoncf551ymkpx",229,"44.csv","","334.10000014305115","resources/trios/L1T1A3.jpg","39","restless",0.6,0.3,0.5,0.051352727166966,"true"
"image-keyboard-response",357,274657,"0.0-3.115-1.115","j7qoncf551ymkpx",229,"44.csv","","null","resources/maskTrios/BBA3.jpg","null","",NA,NA,NA,NA,""
"image-keyboard-response",358,275866,"0.0-3.115-2.115","j7qoncf551ymkpx",229,"44.csv","","null","resources/images/coin2.png","null","",NA,NA,NA,NA,""
"image-keyboard-response",359,276381,"0.0-3.116-0.116","j7qoncf551ymkpx",229,"44.csv","","513.2999999523163","resources/trios/L1T1A2.jpg","39","restless",0.7,0.3,0.5,0.389822769920697,"true"
"image-keyboard-response",360,276793,"0.0-3.116-1.116","j7qoncf551ymkpx",229,"44.csv","","null","resources/maskTrios/BBA2.jpg","null","",NA,NA,NA,NA,""
"image-keyboard-response",361,278000,"0.0-3.116-2.116","j7qoncf551ymkpx",229,"44.csv","","null","resources/images/coin2.png","null","",NA,NA,NA,NA,""
"image-keyboard-response",362,278374,"0.0-3.117-0.117","j7qoncf551ymkpx",229,"44.csv","","373.09999990463257","resources/trios/L1T1A3.jpg","39","restless",0.7,0.3,0.5,0.109498639094712,"true"
"image-keyboard-response",363,278797,"0.0-3.117-1.117","j7qoncf551ymkpx",229,"44.csv","","null","resources/maskTrios/BBA3.jpg","null","",NA,NA,NA,NA,""
"image-keyboard-response",364,280002,"0.0-3.117-2.117","j7qoncf551ymkpx",229,"44.csv","","null","resources/images/coin2.png","null","",NA,NA,NA,NA,""
"image-keyboard-response",365,280599,"0.0-3.118-0.118","j7qoncf551ymkpx",229,"44.csv","","595","resources/trios/L1T1A2.jpg","39","restless",0.7,0.3,0.5,0.158894816176153,"true"
"image-keyboard-response",366,281022,"0.0-3.118-1.118","j7qoncf551ymkpx",229,"44.csv","","null","resources/maskTrios/BBA2.jpg","null","",NA,NA,NA,NA,""
"image-keyboard-response",367,282238,"0.0-3.118-2.118","j7qoncf551ymkpx",229,"44.csv","","null","resources/images/coin2.png","null","",NA,NA,NA,NA,""
"image-keyboard-response",368,282636,"0.0-3.119-0.119","j7qoncf551ymkpx",229,"44.csv","","395.2999999523163","resources/trios/L1T1A2.jpg","38","restless",0.7,0.3,0.5,0.999276130613504,"false"
"image-keyboard-response",369,283041,"0.0-3.119-1.119","j7qoncf551ymkpx",229,"44.csv","","null","resources/maskTrios/BT1B.jpg","null","",NA,NA,NA,NA,""
"image-keyboard-response",370,284263,"0.0-3.119-2.119","j7qoncf551ymkpx",229,"44.csv","","null","resources/images/fishbone.png","null","",NA,NA,NA,NA,""
"image-keyboard-response",371,284613,"0.0-3.120-0.120","j7qoncf551ymkpx",229,"44.csv","","348.7999999523163","resources/trios/L1T4A3.jpg","38","restless",0.7,0.3,0.5,0.776325246388221,"false"
"image-keyboard-response",372,285019,"0.0-3.120-1.120","j7qoncf551ymkpx",229,"44.csv","","null","resources/maskTrios/BT4B.jpg","null","",NA,NA,NA,NA,""
"image-keyboard-response",373,286229,"0.0-3.120-2.120","j7qoncf551ymkpx",229,"44.csv","","null","resources/images/fishbone.png","null","",NA,NA,NA,NA,""
"image-keyboard-response",374,286427,"0.0-3.121-0.121","j7qoncf551ymkpx",229,"44.csv","","196.09999990463257","resources/trios/L1T4A3.jpg","39","restless",0.7,0.3,0.5,0.661499318849143,"false"
"image-keyboard-response",375,286839,"0.0-3.121-1.121","j7qoncf551ymkpx",229,"44.csv","","null","resources/maskTrios/BBA3.jpg","null","",NA,NA,NA,NA,""
"image-keyboard-response",376,288052,"0.0-3.121-2.121","j7qoncf551ymkpx",229,"44.csv","","null","resources/images/fishbone.png","null","",NA,NA,NA,NA,""
"image-keyboard-response",377,288407,"0.0-3.122-0.122","j7qoncf551ymkpx",229,"44.csv","","354.2999999523163","resources/trios/L1T1A2.jpg","39","restless",0.7,0.3,0.5,0.973685764190008,"false"
"image-keyboard-response",378,288823,"0.0-3.122-1.122","j7qoncf551ymkpx",229,"44.csv","","null","resources/maskTrios/BBA2.jpg","null","",NA,NA,NA,NA,""
"image-keyboard-response",379,290043,"0.0-3.122-2.122","j7qoncf551ymkpx",229,"44.csv","","null","resources/images/fishbone.png","null","",NA,NA,NA,NA,""
"image-keyboard-response",380,290412,"0.0-3.123-0.123","j7qoncf551ymkpx",229,"44.csv","","367.89999985694885","resources/trios/L1T1A2.jpg","37","restless",0.7,0.3,0.5,0.779605896681826,"false"
"image-keyboard-response",381,290827,"0.0-3.123-1.123","j7qoncf551ymkpx",229,"44.csv","","null","resources/maskTrios/L1BB.jpg","null","",NA,NA,NA,NA,""
"image-keyboard-response",382,292045,"0.0-3.123-2.123","j7qoncf551ymkpx",229,"44.csv","","null","resources/images/fishbone.png","null","",NA,NA,NA,NA,""
"image-keyboard-response",383,292121,"0.0-3.124-0.124","j7qoncf551ymkpx",229,"44.csv","","76.09999990463257","resources/trios/L4T4A2.jpg","37","restless",0.7,0.3,0.5,0.797731951029945,"false"
"image-keyboard-response",384,292531,"0.0-3.124-1.124","j7qoncf551ymkpx",229,"44.csv","","null","resources/maskTrios/L4BB.jpg","null","",NA,NA,NA,NA,""
"image-keyboard-response",385,293741,"0.0-3.124-2.124","j7qoncf551ymkpx",229,"44.csv","","null","resources/images/fishbone.png","null","",NA,NA,NA,NA,""
"image-keyboard-response",386,294054,"0.0-3.125-0.125","j7qoncf551ymkpx",229,"44.csv","","311.2999999523163","resources/trios/L1T4A3.jpg","37","restless",0.7,0.3,0.5,0.766563185179544,"false"
"image-keyboard-response",387,294464,"0.0-3.125-1.125","j7qoncf551ymkpx",229,"44.csv","","null","resources/maskTrios/L1BB.jpg","null","",NA,NA,NA,NA,""
"image-keyboard-response",388,295676,"0.0-3.125-2.125","j7qoncf551ymkpx",229,"44.csv","","null","resources/images/fishbone.png","null","",NA,NA,NA,NA,""
"image-keyboard-response",389,296004,"0.0-3.126-0.126","j7qoncf551ymkpx",229,"44.csv","","325.09999990463257","resources/trios/L4T4A3.jpg","38","restless",0.6,0.3,0.5,0.706854573903089,"false"
"image-keyboard-response",390,296412,"0.0-3.126-1.126","j7qoncf551ymkpx",229,"44.csv","","null","resources/maskTrios/BT4B.jpg","null","",NA,NA,NA,NA,""
"image-keyboard-response",391,297622,"0.0-3.126-2.126","j7qoncf551ymkpx",229,"44.csv","","null","resources/images/fishbone.png","null","",NA,NA,NA,NA,""
"image-keyboard-response",392,297892,"0.0-3.127-0.127","j7qoncf551ymkpx",229,"44.csv","","267.90000009536743","resources/trios/L1T1A3.jpg","37","restless",0.6,0.3,0.5,0.552675063548417,"true"
"image-keyboard-response",393,298300,"0.0-3.127-1.127","j7qoncf551ymkpx",229,"44.csv","","null","resources/maskTrios/L1BB.jpg","null","",NA,NA,NA,NA,""
"image-keyboard-response",394,299515,"0.0-3.127-2.127","j7qoncf551ymkpx",229,"44.csv","","null","resources/images/coin2.png","null","",NA,NA,NA,NA,""
"image-keyboard-response",395,299913,"0.0-3.128-0.128","j7qoncf551ymkpx",229,"44.csv","","397.2999999523163","resources/trios/L1T4A3.jpg","37","restless",0.6,0.2,0.5,0.912572431416197,"false"
"image-keyboard-response",396,300332,"0.0-3.128-1.128","j7qoncf551ymkpx",229,"44.csv","","null","resources/maskTrios/L1BB.jpg","null","",NA,NA,NA,NA,""
"image-keyboard-response",397,301535,"0.0-3.128-2.128","j7qoncf551ymkpx",229,"44.csv","","null","resources/images/fishbone.png","null","",NA,NA,NA,NA,""
"image-keyboard-response",398,301868,"0.0-3.129-0.129","j7qoncf551ymkpx",229,"44.csv","","330.60000014305115","resources/trios/L1T4A3.jpg","37","restless",0.6,0.2,0.5,0.789422056080669,"false"
"image-keyboard-response",399,302284,"0.0-3.129-1.129","j7qoncf551ymkpx",229,"44.csv","","null","resources/maskTrios/L1BB.jpg","null","",NA,NA,NA,NA,""
"image-keyboard-response",400,303490,"0.0-3.129-2.129","j7qoncf551ymkpx",229,"44.csv","","null","resources/images/fishbone.png","null","",NA,NA,NA,NA,""
"image-keyboard-response",401,303882,"0.0-3.130-0.130","j7qoncf551ymkpx",229,"44.csv","","389.10000014305115","resources/trios/L4T4A3.jpg","39","restless",0.6,0.2,0.5,0.366338981996325,"true"
"image-keyboard-response",402,304297,"0.0-3.130-1.130","j7qoncf551ymkpx",229,"44.csv","","null","resources/maskTrios/BBA3.jpg","null","",NA,NA,NA,NA,""
"image-keyboard-response",403,305508,"0.0-3.130-2.130","j7qoncf551ymkpx",229,"44.csv","","null","resources/images/coin2.png","null","",NA,NA,NA,NA,""
"image-keyboard-response",404,305541,"0.0-3.131-0.131","j7qoncf551ymkpx",229,"44.csv","","30.700000047683716","resources/trios/L4T1A3.jpg","39","restless",0.6,0.2,0.5,0.839281470016073,"false"
"image-keyboard-response",405,305960,"0.0-3.131-1.131","j7qoncf551ymkpx",229,"44.csv","","null","resources/maskTrios/BBA3.jpg","null","",NA,NA,NA,NA,""
"image-keyboard-response",406,307185,"0.0-3.131-2.131","j7qoncf551ymkpx",229,"44.csv","","null","resources/images/fishbone.png","null","",NA,NA,NA,NA,""
"image-keyboard-response",407,307788,"0.0-3.132-0.132","j7qoncf551ymkpx",229,"44.csv","","601","resources/trios/L4T1A3.jpg","39","restless",0.6,0.2,0.5,0.0637762550384,"true"
"image-keyboard-response",408,308194,"0.0-3.132-1.132","j7qoncf551ymkpx",229,"44.csv","","null","resources/maskTrios/BBA3.jpg","null","",NA,NA,NA,NA,""
"image-keyboard-response",409,309409,"0.0-3.132-2.132","j7qoncf551ymkpx",229,"44.csv","","null","resources/images/coin2.png","null","",NA,NA,NA,NA,""
"image-keyboard-response",410,310034,"0.0-3.133-0.133","j7qoncf551ymkpx",229,"44.csv","","622.5999999046326","resources/trios/L1T1A3.jpg","39","restless",0.6,0.2,0.5,0.576353885811044,"false"
"image-keyboard-response",411,310447,"0.0-3.133-1.133","j7qoncf551ymkpx",229,"44.csv","","null","resources/maskTrios/BBA3.jpg","null","",NA,NA,NA,NA,""
"image-keyboard-response",412,311661,"0.0-3.133-2.133","j7qoncf551ymkpx",229,"44.csv","","null","resources/images/fishbone.png","null","",NA,NA,NA,NA,""
"image-keyboard-response",413,312040,"0.0-3.134-0.134","j7qoncf551ymkpx",229,"44.csv","","376.7999999523163","resources/trios/L1T4A2.jpg","39","restless",0.6,0.1,0.5,0.919358535105481,"false"
"image-keyboard-response",414,312445,"0.0-3.134-1.134","j7qoncf551ymkpx",229,"44.csv","","null","resources/maskTrios/BBA2.jpg","null","",NA,NA,NA,NA,""
"image-keyboard-response",415,313652,"0.0-3.134-2.134","j7qoncf551ymkpx",229,"44.csv","","null","resources/images/fishbone.png","null","",NA,NA,NA,NA,""
"image-keyboard-response",416,313704,"0.0-3.135-0.135","j7qoncf551ymkpx",229,"44.csv","","50.09999990463257","resources/trios/L4T4A3.jpg","38","restless",0.6,0.1,0.5,0.237213880911766,"false"
"image-keyboard-response",417,314121,"0.0-3.135-1.135","j7qoncf551ymkpx",229,"44.csv","","null","resources/maskTrios/BT4B.jpg","null","",NA,NA,NA,NA,""
"image-keyboard-response",418,315340,"0.0-3.135-2.135","j7qoncf551ymkpx",229,"44.csv","","null","resources/images/fishbone.png","null","",NA,NA,NA,NA,""
"image-keyboard-response",419,315391,"0.0-3.136-0.136","j7qoncf551ymkpx",229,"44.csv","","50","resources/trios/L4T1A2.jpg","38","restless",0.6,0.2,0.5,0.286250898433283,"false"
"image-keyboard-response",420,315796,"0.0-3.136-1.136","j7qoncf551ymkpx",229,"44.csv","","null","resources/maskTrios/BT1B.jpg","null","",NA,NA,NA,NA,""
"image-keyboard-response",421,317003,"0.0-3.136-2.136","j7qoncf551ymkpx",229,"44.csv","","null","resources/images/fishbone.png","null","",NA,NA,NA,NA,""
"image-keyboard-response",422,317504,"0.0-3.137-0.137","j7qoncf551ymkpx",229,"44.csv","","499.2999999523163","resources/trios/L1T1A3.jpg","38","restless",0.6,0.2,0.5,0.523152900217541,"false"
"image-keyboard-response",423,317929,"0.0-3.137-1.137","j7qoncf551ymkpx",229,"44.csv","","null","resources/maskTrios/BT1B.jpg","null","",NA,NA,NA,NA,""
"image-keyboard-response",424,319147,"0.0-3.137-2.137","j7qoncf551ymkpx",229,"44.csv","","null","resources/images/fishbone.png","null","",NA,NA,NA,NA,""
"image-keyboard-response",425,319201,"0.0-3.138-0.138","j7qoncf551ymkpx",229,"44.csv","","53.200000047683716","resources/trios/L1T1A3.jpg","37","restless",0.6,0.2,0.5,0.99956776296516,"false"
"image-keyboard-response",426,319621,"0.0-3.138-1.138","j7qoncf551ymkpx",229,"44.csv","","null","resources/maskTrios/L1BB.jpg","null","",NA,NA,NA,NA,""
"image-keyboard-response",427,320831,"0.0-3.138-2.138","j7qoncf551ymkpx",229,"44.csv","","null","resources/images/fishbone.png","null","",NA,NA,NA,NA,""
"image-keyboard-response",428,320847,"0.0-3.139-0.139","j7qoncf551ymkpx",229,"44.csv","","15.5","resources/trios/L4T4A2.jpg","37","restless",0.6,0.2,0.5,0.824293673707319,"false"
"image-keyboard-response",429,321254,"0.0-3.139-1.139","j7qoncf551ymkpx",229,"44.csv","","null","resources/maskTrios/L4BB.jpg","null","",NA,NA,NA,NA,""
"image-keyboard-response",430,322458,"0.0-3.139-2.139","j7qoncf551ymkpx",229,"44.csv","","null","resources/images/fishbone.png","null","",NA,NA,NA,NA,""
"image-keyboard-response",431,322607,"0.0-3.140-0.140","j7qoncf551ymkpx",229,"44.csv","","147.5","resources/trios/L1T4A2.jpg","37","restless",0.6,0.2,0.5,0.562340674634065,"true"
"image-keyboard-response",432,323019,"0.0-3.140-1.140","j7qoncf551ymkpx",229,"44.csv","","null","resources/maskTrios/L1BB.jpg","null","",NA,NA,NA,NA,""
"image-keyboard-response",433,324230,"0.0-3.140-2.140","j7qoncf551ymkpx",229,"44.csv","","null","resources/images/coin2.png","null","",NA,NA,NA,NA,""
"image-keyboard-response",434,324493,"0.0-3.141-0.141","j7qoncf551ymkpx",229,"44.csv","","262.2999999523163","resources/trios/L1T4A2.jpg","37","restless",0.6,0.2,0.5,0.180311272597942,"true"
"image-keyboard-response",435,324910,"0.0-3.141-1.141","j7qoncf551ymkpx",229,"44.csv","","null","resources/maskTrios/L1BB.jpg","null","",NA,NA,NA,NA,""
"image-keyboard-response",436,326114,"0.0-3.141-2.141","j7qoncf551ymkpx",229,"44.csv","","null","resources/images/coin2.png","null","",NA,NA,NA,NA,""
"image-keyboard-response",437,326550,"0.0-3.142-0.142","j7qoncf551ymkpx",229,"44.csv","","434.7000000476837","resources/trios/L4T4A2.jpg","37","restless",0.6,0.2,0.5,0.0522959924038382,"true"
"image-keyboard-response",438,326961,"0.0-3.142-1.142","j7qoncf551ymkpx",229,"44.csv","","null","resources/maskTrios/L4BB.jpg","null","",NA,NA,NA,NA,""
"image-keyboard-response",439,328177,"0.0-3.142-2.142","j7qoncf551ymkpx",229,"44.csv","","null","resources/images/coin2.png","null","",NA,NA,NA,NA,""
"image-keyboard-response",440,328429,"0.0-3.143-0.143","j7qoncf551ymkpx",229,"44.csv","","249.69999980926514","resources/trios/L4T4A3.jpg","37","restless",0.6,0.2,0.5,0.776154199674569,"false"
"image-keyboard-response",441,328837,"0.0-3.143-1.143","j7qoncf551ymkpx",229,"44.csv","","null","resources/maskTrios/L4BB.jpg","null","",NA,NA,NA,NA,""
"image-keyboard-response",442,330047,"0.0-3.143-2.143","j7qoncf551ymkpx",229,"44.csv","","null","resources/images/fishbone.png","null","",NA,NA,NA,NA,""
"image-keyboard-response",443,330342,"0.0-3.144-0.144","j7qoncf551ymkpx",229,"44.csv","","293.40000009536743","resources/trios/L1T1A2.jpg","37","restless",0.6,0.3,0.5,0.940399562068202,"false"
"image-keyboard-response",444,330749,"0.0-3.144-1.144","j7qoncf551ymkpx",229,"44.csv","","null","resources/maskTrios/L1BB.jpg","null","",NA,NA,NA,NA,""
"image-keyboard-response",445,331968,"0.0-3.144-2.144","j7qoncf551ymkpx",229,"44.csv","","null","resources/images/fishbone.png","null","",NA,NA,NA,NA,""
"image-keyboard-response",446,332371,"0.0-3.145-0.145","j7qoncf551ymkpx",229,"44.csv","","402.7000000476837","resources/trios/L1T1A3.jpg","38","restless",0.6,0.3,0.6,0.872592261106479,"false"
"image-keyboard-response",447,332783,"0.0-3.145-1.145","j7qoncf551ymkpx",229,"44.csv","","null","resources/maskTrios/BT1B.jpg","null","",NA,NA,NA,NA,""
"image-keyboard-response",448,333994,"0.0-3.145-2.145","j7qoncf551ymkpx",229,"44.csv","","null","resources/images/fishbone.png","null","",NA,NA,NA,NA,""
"image-keyboard-response",449,334029,"0.0-3.146-0.146","j7qoncf551ymkpx",229,"44.csv","","34.40000009536743","resources/trios/L4T4A2.jpg","39","restless",0.6,0.3,0.6,0.249200613831336,"true"
"image-keyboard-response",450,334446,"0.0-3.146-1.146","j7qoncf551ymkpx",229,"44.csv","","null","resources/maskTrios/BBA2.jpg","null","",NA,NA,NA,NA,""
"image-keyboard-response",451,335653,"0.0-3.146-2.146","j7qoncf551ymkpx",229,"44.csv","","null","resources/images/coin2.png","null","",NA,NA,NA,NA,""
"image-keyboard-response",452,336141,"0.0-3.147-0.147","j7qoncf551ymkpx",229,"44.csv","","486.60000014305115","resources/trios/L1T4A3.jpg","39","restless",0.7,0.3,0.6,0.570597615156927,"true"
"image-keyboard-response",453,336557,"0.0-3.147-1.147","j7qoncf551ymkpx",229,"44.csv","","null","resources/maskTrios/BBA3.jpg","null","",NA,NA,NA,NA,""
"image-keyboard-response",454,337766,"0.0-3.147-2.147","j7qoncf551ymkpx",229,"44.csv","","null","resources/images/coin2.png","null","",NA,NA,NA,NA,""
"image-keyboard-response",455,338108,"0.0-3.148-0.148","j7qoncf551ymkpx",229,"44.csv","","341.59999990463257","resources/trios/L1T4A3.jpg","39","restless",0.7,0.2,0.6,0.759736333308851,"false"
"image-keyboard-response",456,338516,"0.0-3.148-1.148","j7qoncf551ymkpx",229,"44.csv","","null","resources/maskTrios/BBA3.jpg","null","",NA,NA,NA,NA,""
"image-keyboard-response",457,339727,"0.0-3.148-2.148","j7qoncf551ymkpx",229,"44.csv","","null","resources/images/fishbone.png","null","",NA,NA,NA,NA,""
"image-keyboard-response",458,340170,"0.0-3.149-0.149","j7qoncf551ymkpx",229,"44.csv","","441.90000009536743","resources/trios/L1T1A2.jpg","37","restless",0.7,0.3,0.6,0.630358829414122,"true"
"image-keyboard-response",459,340592,"0.0-3.149-1.149","j7qoncf551ymkpx",229,"44.csv","","null","resources/maskTrios/L1BB.jpg","null","",NA,NA,NA,NA,""
"image-keyboard-response",460,341815,"0.0-3.149-2.149","j7qoncf551ymkpx",229,"44.csv","","null","resources/images/coin2.png","null","",NA,NA,NA,NA,""
"image-keyboard-response",461,342175,"0.0-3.150-0.150","j7qoncf551ymkpx",229,"44.csv","","359","resources/trios/L1T1A3.jpg","37","restless",0.7,0.3,0.6,0.851641197470134,"false"
"image-keyboard-response",462,342584,"0.0-3.150-1.150","j7qoncf551ymkpx",229,"44.csv","","null","resources/maskTrios/L1BB.jpg","null","",NA,NA,NA,NA,""
"image-keyboard-response",463,343794,"0.0-3.150-2.150","j7qoncf551ymkpx",229,"44.csv","","null","resources/images/fishbone.png","null","",NA,NA,NA,NA,""
"image-keyboard-response",464,344103,"0.0-3.151-0.151","j7qoncf551ymkpx",229,"44.csv","","306.80000019073486","resources/trios/L1T1A2.jpg","39","restless",0.7,0.3,0.6,0.213023727050462,"true"
"image-keyboard-response",465,344517,"0.0-3.151-1.151","j7qoncf551ymkpx",229,"44.csv","","null","resources/maskTrios/BBA2.jpg","null","",NA,NA,NA,NA,""
"image-keyboard-response",466,345724,"0.0-3.151-2.151","j7qoncf551ymkpx",229,"44.csv","","null","resources/images/coin2.png","null","",NA,NA,NA,NA,""
"image-keyboard-response",467,346391,"0.0-3.152-0.152","j7qoncf551ymkpx",229,"44.csv","","665","resources/trios/L4T1A2.jpg","37","restless",0.7,0.4,0.6,0.208235734782026,"true"
"image-keyboard-response",468,346807,"0.0-3.152-1.152","j7qoncf551ymkpx",229,"44.csv","","null","resources/maskTrios/L4BB.jpg","null","",NA,NA,NA,NA,""
"image-keyboard-response",469,348017,"0.0-3.152-2.152","j7qoncf551ymkpx",229,"44.csv","","null","resources/images/coin2.png","null","",NA,NA,NA,NA,""
"image-keyboard-response",470,348360,"0.0-3.153-0.153","j7qoncf551ymkpx",229,"44.csv","","343","resources/trios/L4T4A2.jpg","39","restless",0.7,0.4,0.6,0.888154435156774,"false"
"image-keyboard-response",471,348770,"0.0-3.153-1.153","j7qoncf551ymkpx",229,"44.csv","","null","resources/maskTrios/BBA2.jpg","null","",NA,NA,NA,NA,""
"image-keyboard-response",472,349978,"0.0-3.153-2.153","j7qoncf551ymkpx",229,"44.csv","","null","resources/images/fishbone.png","null","",NA,NA,NA,NA,""
"image-keyboard-response",473,350314,"0.0-3.154-0.154","j7qoncf551ymkpx",229,"44.csv","","334.09999990463257","resources/trios/L1T1A3.jpg","37","restless",0.6,0.4,0.6,0.156468213589682,"true"
"image-keyboard-response",474,350735,"0.0-3.154-1.154","j7qoncf551ymkpx",229,"44.csv","","null","resources/maskTrios/L1BB.jpg","null","",NA,NA,NA,NA,""
"image-keyboard-response",475,351943,"0.0-3.154-2.154","j7qoncf551ymkpx",229,"44.csv","","null","resources/images/coin2.png","null","",NA,NA,NA,NA,""
"image-keyboard-response",476,352282,"0.0-3.155-0.155","j7qoncf551ymkpx",229,"44.csv","","337","resources/trios/L4T4A2.jpg","37","restless",0.6,0.4,0.6,0.465996495923018,"true"
"image-keyboard-response",477,352696,"0.0-3.155-1.155","j7qoncf551ymkpx",229,"44.csv","","null","resources/maskTrios/L4BB.jpg","null","",NA,NA,NA,NA,""
"image-keyboard-response",478,353919,"0.0-3.155-2.155","j7qoncf551ymkpx",229,"44.csv","","null","resources/images/coin2.png","null","",NA,NA,NA,NA,""
"image-keyboard-response",479,354311,"0.0-3.156-0.156","j7qoncf551ymkpx",229,"44.csv","","391.2000000476837","resources/trios/L4T4A2.jpg","37","restless",0.6,0.4,0.6,0.165441392349148,"true"
"image-keyboard-response",480,354717,"0.0-3.156-1.156","j7qoncf551ymkpx",229,"44.csv","","null","resources/maskTrios/L4BB.jpg","null","",NA,NA,NA,NA,""
"image-keyboard-response",481,355926,"0.0-3.156-2.156","j7qoncf551ymkpx",229,"44.csv","","null","resources/images/coin2.png","null","",NA,NA,NA,NA,""
"image-keyboard-response",482,357388,"0.0-3.157-0.157","j7qoncf551ymkpx",229,"44.csv","","1459.7000000476837","resources/trios/L1T1A3.jpg","38","restless",0.6,0.5,0.6,0.75583751748996,"false"
"image-keyboard-response",483,357796,"0.0-3.157-1.157","j7qoncf551ymkpx",229,"44.csv","","null","resources/maskTrios/BT1B.jpg","null","",NA,NA,NA,NA,""
"image-keyboard-response",484,359006,"0.0-3.157-2.157","j7qoncf551ymkpx",229,"44.csv","","null","resources/images/fishbone.png","null","",NA,NA,NA,NA,""
"image-keyboard-response",485,359089,"0.0-3.158-0.158","j7qoncf551ymkpx",229,"44.csv","","81.20000004768372","resources/trios/L1T4A2.jpg","37","restless",0.6,0.5,0.6,0.794635550668377,"false"
"image-keyboard-response",486,359507,"0.0-3.158-1.158","j7qoncf551ymkpx",229,"44.csv","","null","resources/maskTrios/L1BB.jpg","null","",NA,NA,NA,NA,""
"image-keyboard-response",487,360723,"0.0-3.158-2.158","j7qoncf551ymkpx",229,"44.csv","","null","resources/images/fishbone.png","null","",NA,NA,NA,NA,""
"image-keyboard-response",488,361046,"0.0-3.159-0.159","j7qoncf551ymkpx",229,"44.csv","","322.59999990463257","resources/trios/L1T4A3.jpg","37","restless",0.6,0.5,0.6,0.0116542404277609,"true"
"image-keyboard-response",489,361458,"0.0-3.159-1.159","j7qoncf551ymkpx",229,"44.csv","","null","resources/maskTrios/L1BB.jpg","null","",NA,NA,NA,NA,""
"image-keyboard-response",490,362671,"0.0-3.159-2.159","j7qoncf551ymkpx",229,"44.csv","","null","resources/images/coin2.png","null","",NA,NA,NA,NA,""
"image-keyboard-response",491,362814,"0.0-3.160-0.160","j7qoncf551ymkpx",229,"44.csv","","141.89999985694885","resources/trios/L1T4A2.jpg","37","restless",0.6,0.5,0.6,0.165545831251551,"true"
"image-keyboard-response",492,363220,"0.0-3.160-1.160","j7qoncf551ymkpx",229,"44.csv","","null","resources/maskTrios/L1BB.jpg","null","",NA,NA,NA,NA,""
"image-keyboard-response",493,364432,"0.0-3.160-2.160","j7qoncf551ymkpx",229,"44.csv","","null","resources/images/coin2.png","null","",NA,NA,NA,NA,""
"image-keyboard-response",494,364470,"0.0-3.161-0.161","j7qoncf551ymkpx",229,"44.csv","","36.5","resources/trios/L4T1A2.jpg","37","restless",0.6,0.5,0.6,0.9027855688477,"false"
"image-keyboard-response",495,364888,"0.0-3.161-1.161","j7qoncf551ymkpx",229,"44.csv","","null","resources/maskTrios/L4BB.jpg","null","",NA,NA,NA,NA,""
"image-keyboard-response",496,366096,"0.0-3.161-2.161","j7qoncf551ymkpx",229,"44.csv","","null","resources/images/fishbone.png","null","",NA,NA,NA,NA,""
"image-keyboard-response",497,366696,"0.0-3.162-0.162","j7qoncf551ymkpx",229,"44.csv","","599.3999998569489","resources/trios/L4T4A2.jpg","37","restless",0.6,0.5,0.6,0.122517620370296,"true"
"image-keyboard-response",498,367103,"0.0-3.162-1.162","j7qoncf551ymkpx",229,"44.csv","","null","resources/maskTrios/L4BB.jpg","null","",NA,NA,NA,NA,""
"image-keyboard-response",499,368311,"0.0-3.162-2.162","j7qoncf551ymkpx",229,"44.csv","","null","resources/images/coin2.png","null","",NA,NA,NA,NA,""
"image-keyboard-response",500,368506,"0.0-3.163-0.163","j7qoncf551ymkpx",229,"44.csv","","192.09999990463257","resources/trios/L4T4A2.jpg","37","restless",0.5,0.5,0.6,0.564514304600135,"false"
"image-keyboard-response",501,368923,"0.0-3.163-1.163","j7qoncf551ymkpx",229,"44.csv","","null","resources/maskTrios/L4BB.jpg","null","",NA,NA,NA,NA,""
"image-keyboard-response",502,370135,"0.0-3.163-2.163","j7qoncf551ymkpx",229,"44.csv","","null","resources/images/fishbone.png","null","",NA,NA,NA,NA,""
"image-keyboard-response",503,370613,"0.0-3.164-0.164","j7qoncf551ymkpx",229,"44.csv","","476","resources/trios/L4T1A2.jpg","39","restless",0.5,0.5,0.6,0.56632553206637,"true"
"image-keyboard-response",504,371028,"0.0-3.164-1.164","j7qoncf551ymkpx",229,"44.csv","","null","resources/maskTrios/BBA2.jpg","null","",NA,NA,NA,NA,""
"image-keyboard-response",505,372243,"0.0-3.164-2.164","j7qoncf551ymkpx",229,"44.csv","","null","resources/images/coin2.png","null","",NA,NA,NA,NA,""
"image-keyboard-response",506,372655,"0.0-3.165-0.165","j7qoncf551ymkpx",229,"44.csv","","410.7999999523163","resources/trios/L4T1A3.jpg","39","restless",0.5,0.6,0.6,0.793392729977847,"false"
"image-keyboard-response",507,373060,"0.0-3.165-1.165","j7qoncf551ymkpx",229,"44.csv","","null","resources/maskTrios/BBA3.jpg","null","",NA,NA,NA,NA,""
"image-keyboard-response",508,374270,"0.0-3.165-2.165","j7qoncf551ymkpx",229,"44.csv","","null","resources/images/fishbone.png","null","",NA,NA,NA,NA,""
"image-keyboard-response",509,374726,"0.0-3.166-0.166","j7qoncf551ymkpx",229,"44.csv","","454.40000009536743","resources/trios/L1T4A3.jpg","37","restless",0.5,0.6,0.6,0.376841271299343,"true"
"image-keyboard-response",510,375131,"0.0-3.166-1.166","j7qoncf551ymkpx",229,"44.csv","","null","resources/maskTrios/L1BB.jpg","null","",NA,NA,NA,NA,""
"image-keyboard-response",511,376339,"0.0-3.166-2.166","j7qoncf551ymkpx",229,"44.csv","","null","resources/images/coin2.png","null","",NA,NA,NA,NA,""
"image-keyboard-response",512,376674,"0.0-3.167-0.167","j7qoncf551ymkpx",229,"44.csv","","333.10000014305115","resources/trios/L4T1A3.jpg","37","restless",0.5,0.6,0.6,0.309821002837885,"true"
"image-keyboard-response",513,377088,"0.0-3.167-1.167","j7qoncf551ymkpx",229,"44.csv","","null","resources/maskTrios/L4BB.jpg","null","",NA,NA,NA,NA,""
"image-keyboard-response",514,378299,"0.0-3.167-2.167","j7qoncf551ymkpx",229,"44.csv","","null","resources/images/coin2.png","null","",NA,NA,NA,NA,""
"image-keyboard-response",515,378652,"0.0-3.168-0.168","j7qoncf551ymkpx",229,"44.csv","","350.89999985694885","resources/trios/L1T1A2.jpg","37","restless",0.5,0.6,0.6,0.862921348266084,"false"
"image-keyboard-response",516,379072,"0.0-3.168-1.168","j7qoncf551ymkpx",229,"44.csv","","null","resources/maskTrios/L1BB.jpg","null","",NA,NA,NA,NA,""
"image-keyboard-response",517,380283,"0.0-3.168-2.168","j7qoncf551ymkpx",229,"44.csv","","null","resources/images/fishbone.png","null","",NA,NA,NA,NA,""
"image-keyboard-response",518,380616,"0.0-3.169-0.169","j7qoncf551ymkpx",229,"44.csv","","330.10000014305115","resources/trios/L1T4A3.jpg","39","restless",0.5,0.6,0.6,0.398024516717566,"true"
"image-keyboard-response",519,381019,"0.0-3.169-1.169","j7qoncf551ymkpx",229,"44.csv","","null","resources/maskTrios/BBA3.jpg","null","",NA,NA,NA,NA,""
"image-keyboard-response",520,382230,"0.0-3.169-2.169","j7qoncf551ymkpx",229,"44.csv","","null","resources/images/coin2.png","null","",NA,NA,NA,NA,""
"image-keyboard-response",521,382429,"0.0-3.170-0.170","j7qoncf551ymkpx",229,"44.csv","","197.10000014305115","resources/trios/L1T4A3.jpg","39","restless",0.5,0.6,0.6,0.541726349031643,"true"
"image-keyboard-response",522,382840,"0.0-3.170-1.170","j7qoncf551ymkpx",229,"44.csv","","null","resources/maskTrios/BBA3.jpg","null","",NA,NA,NA,NA,""
"image-keyboard-response",523,384045,"0.0-3.170-2.170","j7qoncf551ymkpx",229,"44.csv","","null","resources/images/coin2.png","null","",NA,NA,NA,NA,""
"image-keyboard-response",524,384452,"0.0-3.171-0.171","j7qoncf551ymkpx",229,"44.csv","","405.7000000476837","resources/trios/L4T4A2.jpg","39","restless",0.5,0.6,0.6,0.981328460846476,"false"
"image-keyboard-response",525,384862,"0.0-3.171-1.171","j7qoncf551ymkpx",229,"44.csv","","null","resources/maskTrios/BBA2.jpg","null","",NA,NA,NA,NA,""
"image-keyboard-response",526,386081,"0.0-3.171-2.171","j7qoncf551ymkpx",229,"44.csv","","null","resources/images/fishbone.png","null","",NA,NA,NA,NA,""
"image-keyboard-response",527,386395,"0.0-3.172-0.172","j7qoncf551ymkpx",229,"44.csv","","311.7999999523163","resources/trios/L4T4A3.jpg","37","restless",0.5,0.6,0.5,0.38088417069138,"true"
"image-keyboard-response",528,386806,"0.0-3.172-1.172","j7qoncf551ymkpx",229,"44.csv","","null","resources/maskTrios/L4BB.jpg","null","",NA,NA,NA,NA,""
"image-keyboard-response",529,388017,"0.0-3.172-2.172","j7qoncf551ymkpx",229,"44.csv","","null","resources/images/coin2.png","null","",NA,NA,NA,NA,""
"image-keyboard-response",530,388345,"0.0-3.173-0.173","j7qoncf551ymkpx",229,"44.csv","","325.7999999523163","resources/trios/L4T1A2.jpg","37","restless",0.4,0.6,0.5,0.731773989230121,"false"
"image-keyboard-response",531,388756,"0.0-3.173-1.173","j7qoncf551ymkpx",229,"44.csv","","null","resources/maskTrios/L4BB.jpg","null","",NA,NA,NA,NA,""
"image-keyboard-response",532,389977,"0.0-3.173-2.173","j7qoncf551ymkpx",229,"44.csv","","null","resources/images/fishbone.png","null","",NA,NA,NA,NA,""
"image-keyboard-response",533,390320,"0.0-3.174-0.174","j7qoncf551ymkpx",229,"44.csv","","341","resources/trios/L4T4A3.jpg","38","restless",0.4,0.6,0.5,0.950878119412704,"false"
"image-keyboard-response",534,390734,"0.0-3.174-1.174","j7qoncf551ymkpx",229,"44.csv","","null","resources/maskTrios/BT4B.jpg","null","",NA,NA,NA,NA,""
"image-keyboard-response",535,391940,"0.0-3.174-2.174","j7qoncf551ymkpx",229,"44.csv","","null","resources/images/fishbone.png","null","",NA,NA,NA,NA,""
"image-keyboard-response",536,392164,"0.0-3.175-0.175","j7qoncf551ymkpx",229,"44.csv","","222.39999985694885","resources/trios/L1T1A2.jpg","37","restless",0.4,0.6,0.5,0.717823649843219,"false"
"image-keyboard-response",537,392585,"0.0-3.175-1.175","j7qoncf551ymkpx",229,"44.csv","","null","resources/maskTrios/L1BB.jpg","null","",NA,NA,NA,NA,""
"image-keyboard-response",538,393799,"0.0-3.175-2.175","j7qoncf551ymkpx",229,"44.csv","","null","resources/images/fishbone.png","null","",NA,NA,NA,NA,""
"image-keyboard-response",539,394102,"0.0-3.176-0.176","j7qoncf551ymkpx",229,"44.csv","","301","resources/trios/L1T4A2.jpg","37","restless",0.4,0.7,0.5,0.528285872300259,"false"
"image-keyboard-response",540,394520,"0.0-3.176-1.176","j7qoncf551ymkpx",229,"44.csv","","null","resources/maskTrios/L1BB.jpg","null","",NA,NA,NA,NA,""
"image-keyboard-response",541,395739,"0.0-3.176-2.176","j7qoncf551ymkpx",229,"44.csv","","null","resources/images/fishbone.png","null","",NA,NA,NA,NA,""
"image-keyboard-response",542,396095,"0.0-3.177-0.177","j7qoncf551ymkpx",229,"44.csv","","353.90000009536743","resources/trios/L1T4A3.jpg","37","restless",0.4,0.8,0.6,0.395946617643996,"true"
"image-keyboard-response",543,396508,"0.0-3.177-1.177","j7qoncf551ymkpx",229,"44.csv","","null","resources/maskTrios/L1BB.jpg","null","",NA,NA,NA,NA,""
"image-keyboard-response",544,397739,"0.0-3.177-2.177","j7qoncf551ymkpx",229,"44.csv","","null","resources/images/coin2.png","null","",NA,NA,NA,NA,""
"image-keyboard-response",545,398090,"0.0-3.178-0.178","j7qoncf551ymkpx",229,"44.csv","","350","resources/trios/L1T4A2.jpg","37","restless",0.4,0.8,0.6,0.0831789151322886,"true"
"image-keyboard-response",546,398507,"0.0-3.178-1.178","j7qoncf551ymkpx",229,"44.csv","","null","resources/maskTrios/L1BB.jpg","null","",NA,NA,NA,NA,""
"image-keyboard-response",547,399728,"0.0-3.178-2.178","j7qoncf551ymkpx",229,"44.csv","","null","resources/images/coin2.png","null","",NA,NA,NA,NA,""
"image-keyboard-response",548,401944,"0.0-3.179-0.179","j7qoncf551ymkpx",229,"44.csv","","2213.7999999523163","resources/trios/L1T1A2.jpg","37","restless",0.4,0.8,0.6,0.410135631652348,"false"
"image-keyboard-response",549,402355,"0.0-3.179-1.179","j7qoncf551ymkpx",229,"44.csv","","null","resources/maskTrios/L1BB.jpg","null","",NA,NA,NA,NA,""
"image-keyboard-response",550,403576,"0.0-3.179-2.179","j7qoncf551ymkpx",229,"44.csv","","null","resources/images/fishbone.png","null","",NA,NA,NA,NA,""
"image-keyboard-response",551,405435,"0.0-3.180-0.180","j7qoncf551ymkpx",229,"44.csv","","1858","resources/trios/L1T1A3.jpg","37","restless",0.4,0.8,0.6,0.0405312427409164,"true"
"image-keyboard-response",552,405847,"0.0-3.180-1.180","j7qoncf551ymkpx",229,"44.csv","","null","resources/maskTrios/L1BB.jpg","null","",NA,NA,NA,NA,""
"image-keyboard-response",553,407060,"0.0-3.180-2.180","j7qoncf551ymkpx",229,"44.csv","","null","resources/images/coin2.png","null","",NA,NA,NA,NA,""
"image-keyboard-response",554,407344,"0.0-3.181-0.181","j7qoncf551ymkpx",229,"44.csv","","281.7000000476837","resources/trios/L1T1A2.jpg","37","restless",0.3,0.8,0.6,0.614079115589631,"false"
"image-keyboard-response",555,407756,"0.0-3.181-1.181","j7qoncf551ymkpx",229,"44.csv","","null","resources/maskTrios/L1BB.jpg","null","",NA,NA,NA,NA,""
"image-keyboard-response",556,408964,"0.0-3.181-2.181","j7qoncf551ymkpx",229,"44.csv","","null","resources/images/fishbone.png","null","",NA,NA,NA,NA,""
"image-keyboard-response",557,409255,"0.0-3.182-0.182","j7qoncf551ymkpx",229,"44.csv","","288.7000000476837","resources/trios/L4T1A3.jpg","37","restless",0.3,0.8,0.5,0.84041196865649,"false"
"image-keyboard-response",558,409673,"0.0-3.182-1.182","j7qoncf551ymkpx",229,"44.csv","","null","resources/maskTrios/L4BB.jpg","null","",NA,NA,NA,NA,""
"image-keyboard-response",559,410898,"0.0-3.182-2.182","j7qoncf551ymkpx",229,"44.csv","","null","resources/images/fishbone.png","null","",NA,NA,NA,NA,""
"image-keyboard-response",560,411125,"0.0-3.183-0.183","j7qoncf551ymkpx",229,"44.csv","","224.89999985694885","resources/trios/L1T1A2.jpg","37","restless",0.4,0.7,0.5,0.145173251941699,"true"
"image-keyboard-response",561,411544,"0.0-3.183-1.183","j7qoncf551ymkpx",229,"44.csv","","null","resources/maskTrios/L1BB.jpg","null","",NA,NA,NA,NA,""
"image-keyboard-response",562,412755,"0.0-3.183-2.183","j7qoncf551ymkpx",229,"44.csv","","null","resources/images/coin2.png","null","",NA,NA,NA,NA,""
"image-keyboard-response",563,413058,"0.0-3.184-0.184","j7qoncf551ymkpx",229,"44.csv","","300.5","resources/trios/L4T1A2.jpg","37","restless",0.5,0.7,0.5,0.57376746382359,"false"
"image-keyboard-response",564,413481,"0.0-3.184-1.184","j7qoncf551ymkpx",229,"44.csv","","null","resources/maskTrios/L4BB.jpg","null","",NA,NA,NA,NA,""
"image-keyboard-response",565,414694,"0.0-3.184-2.184","j7qoncf551ymkpx",229,"44.csv","","null","resources/images/fishbone.png","null","",NA,NA,NA,NA,""
"image-keyboard-response",566,417251,"0.0-3.185-0.185","j7qoncf551ymkpx",229,"44.csv","","2555.2000000476837","resources/trios/L1T1A3.jpg","37","restless",0.5,0.7,0.5,0.728019288384571,"false"
"image-keyboard-response",567,417667,"0.0-3.185-1.185","j7qoncf551ymkpx",229,"44.csv","","null","resources/maskTrios/L1BB.jpg","null","",NA,NA,NA,NA,""
"image-keyboard-response",568,418889,"0.0-3.185-2.185","j7qoncf551ymkpx",229,"44.csv","","null","resources/images/fishbone.png","null","",NA,NA,NA,NA,""
"image-keyboard-response",569,419100,"0.0-3.186-0.186","j7qoncf551ymkpx",229,"44.csv","","209.59999990463257","resources/trios/L4T1A3.jpg","37","restless",0.5,0.7,0.5,0.765903795279369,"false"
"image-keyboard-response",570,419516,"0.0-3.186-1.186","j7qoncf551ymkpx",229,"44.csv","","null","resources/maskTrios/L4BB.jpg","null","",NA,NA,NA,NA,""
"image-keyboard-response",571,420731,"0.0-3.186-2.186","j7qoncf551ymkpx",229,"44.csv","","null","resources/images/fishbone.png","null","",NA,NA,NA,NA,""
"image-keyboard-response",572,421144,"0.0-3.187-0.187","j7qoncf551ymkpx",229,"44.csv","","412.7000000476837","resources/trios/L1T1A3.jpg","37","restless",0.5,0.7,0.5,0.946824962663572,"false"
"image-keyboard-response",573,421549,"0.0-3.187-1.187","j7qoncf551ymkpx",229,"44.csv","","null","resources/maskTrios/L1BB.jpg","null","",NA,NA,NA,NA,""
"image-keyboard-response",574,422771,"0.0-3.187-2.187","j7qoncf551ymkpx",229,"44.csv","","null","resources/images/fishbone.png","null","",NA,NA,NA,NA,""
"image-keyboard-response",575,423415,"0.0-3.188-0.188","j7qoncf551ymkpx",229,"44.csv","","641.7000000476837","resources/trios/L4T1A2.jpg","37","restless",0.5,0.8,0.5,0.939547891158111,"false"
"image-keyboard-response",576,423824,"0.0-3.188-1.188","j7qoncf551ymkpx",229,"44.csv","","null","resources/maskTrios/L4BB.jpg","null","",NA,NA,NA,NA,""
"image-keyboard-response",577,425039,"0.0-3.188-2.188","j7qoncf551ymkpx",229,"44.csv","","null","resources/images/fishbone.png","null","",NA,NA,NA,NA,""
"image-keyboard-response",578,425103,"0.0-3.189-0.189","j7qoncf551ymkpx",229,"44.csv","","62.200000047683716","resources/trios/L4T4A3.jpg","39","restless",0.5,0.8,0.5,0.699666841299436,"false"
"image-keyboard-response",579,425510,"0.0-3.189-1.189","j7qoncf551ymkpx",229,"44.csv","","null","resources/maskTrios/BBA3.jpg","null","",NA,NA,NA,NA,""
"image-keyboard-response",580,426723,"0.0-3.189-2.189","j7qoncf551ymkpx",229,"44.csv","","null","resources/images/fishbone.png","null","",NA,NA,NA,NA,""
"image-keyboard-response",581,427176,"0.0-3.190-0.190","j7qoncf551ymkpx",229,"44.csv","","451.7999999523163","resources/trios/L1T4A3.jpg","39","restless",0.5,0.8,0.5,0.452204925193305,"true"
"image-keyboard-response",582,427589,"0.0-3.190-1.190","j7qoncf551ymkpx",229,"44.csv","","null","resources/maskTrios/BBA3.jpg","null","",NA,NA,NA,NA,""
"image-keyboard-response",583,428801,"0.0-3.190-2.190","j7qoncf551ymkpx",229,"44.csv","","null","resources/images/coin2.png","null","",NA,NA,NA,NA,""
"image-keyboard-response",584,429084,"0.0-3.191-0.191","j7qoncf551ymkpx",229,"44.csv","","281.5","resources/trios/L4T1A2.jpg","39","restless",0.5,0.8,0.5,0.799761090490196,"false"
"image-keyboard-response",585,429506,"0.0-3.191-1.191","j7qoncf551ymkpx",229,"44.csv","","null","resources/maskTrios/BBA2.jpg","null","",NA,NA,NA,NA,""
"image-keyboard-response",586,430714,"0.0-3.191-2.191","j7qoncf551ymkpx",229,"44.csv","","null","resources/images/fishbone.png","null","",NA,NA,NA,NA,""
"image-keyboard-response",587,432383,"0.0-3.192-0.192","j7qoncf551ymkpx",229,"44.csv","","1666.5","resources/trios/L4T4A2.jpg","37","restless",0.5,0.8,0.5,0.507796155024899,"false"
"image-keyboard-response",588,432789,"0.0-3.192-1.192","j7qoncf551ymkpx",229,"44.csv","","null","resources/maskTrios/L4BB.jpg","null","",NA,NA,NA,NA,""
"image-keyboard-response",589,433998,"0.0-3.192-2.192","j7qoncf551ymkpx",229,"44.csv","","null","resources/images/fishbone.png","null","",NA,NA,NA,NA,""
"image-keyboard-response",590,434270,"0.0-3.193-0.193","j7qoncf551ymkpx",229,"44.csv","","270.2999999523163","resources/trios/L4T1A3.jpg","39","restless",0.5,0.8,0.5,0.892962299338515,"false"
"image-keyboard-response",591,434691,"0.0-3.193-1.193","j7qoncf551ymkpx",229,"44.csv","","null","resources/maskTrios/BBA3.jpg","null","",NA,NA,NA,NA,""
"image-keyboard-response",592,435904,"0.0-3.193-2.193","j7qoncf551ymkpx",229,"44.csv","","null","resources/images/fishbone.png","null","",NA,NA,NA,NA,""
"image-keyboard-response",593,436180,"0.0-3.194-0.194","j7qoncf551ymkpx",229,"44.csv","","273.30000019073486","resources/trios/L4T4A3.jpg","37","restless",0.5,0.8,0.5,0.31500615264283,"true"
"image-keyboard-response",594,436595,"0.0-3.194-1.194","j7qoncf551ymkpx",229,"44.csv","","null","resources/maskTrios/L4BB.jpg","null","",NA,NA,NA,NA,""
"image-keyboard-response",595,437805,"0.0-3.194-2.194","j7qoncf551ymkpx",229,"44.csv","","null","resources/images/coin2.png","null","",NA,NA,NA,NA,""
"image-keyboard-response",596,438221,"0.0-3.195-0.195","j7qoncf551ymkpx",229,"44.csv","","413.89999985694885","resources/trios/L1T1A2.jpg","37","restless",0.5,0.8,0.5,0.306777764869796,"true"
"image-keyboard-response",597,438642,"0.0-3.195-1.195","j7qoncf551ymkpx",229,"44.csv","","null","resources/maskTrios/L1BB.jpg","null","",NA,NA,NA,NA,""
"image-keyboard-response",598,439855,"0.0-3.195-2.195","j7qoncf551ymkpx",229,"44.csv","","null","resources/images/coin2.png","null","",NA,NA,NA,NA,""
"image-keyboard-response",599,440159,"0.0-3.196-0.196","j7qoncf551ymkpx",229,"44.csv","","301.39999985694885","resources/trios/L4T1A3.jpg","37","restless",0.5,0.8,0.5,0.912321979342801,"false"
"image-keyboard-response",600,440563,"0.0-3.196-1.196","j7qoncf551ymkpx",229,"44.csv","","null","resources/maskTrios/L4BB.jpg","null","",NA,NA,NA,NA,""
"image-keyboard-response",601,441774,"0.0-3.196-2.196","j7qoncf551ymkpx",229,"44.csv","","null","resources/images/fishbone.png","null","",NA,NA,NA,NA,""
"image-keyboard-response",602,442108,"0.0-3.197-0.197","j7qoncf551ymkpx",229,"44.csv","","332.2000000476837","resources/trios/L4T1A3.jpg","39","restless",0.5,0.8,0.5,0.521264635083233,"false"
"image-keyboard-response",603,442516,"0.0-3.197-1.197","j7qoncf551ymkpx",229,"44.csv","","null","resources/maskTrios/BBA3.jpg","null","",NA,NA,NA,NA,""
"image-keyboard-response",604,443728,"0.0-3.197-2.197","j7qoncf551ymkpx",229,"44.csv","","null","resources/images/fishbone.png","null","",NA,NA,NA,NA,""
"image-keyboard-response",605,443985,"0.0-3.198-0.198","j7qoncf551ymkpx",229,"44.csv","","255.90000009536743","resources/trios/L4T1A3.jpg","37","restless",0.5,0.8,0.5,0.478876970470657,"true"
"image-keyboard-response",606,444390,"0.0-3.198-1.198","j7qoncf551ymkpx",229,"44.csv","","null","resources/maskTrios/L4BB.jpg","null","",NA,NA,NA,NA,""
"image-keyboard-response",607,445599,"0.0-3.198-2.198","j7qoncf551ymkpx",229,"44.csv","","null","resources/images/coin2.png","null","",NA,NA,NA,NA,""
"image-keyboard-response",608,445968,"0.0-3.199-0.199","j7qoncf551ymkpx",229,"44.csv","","367.90000009536743","resources/trios/L1T4A2.jpg","37","restless",0.5,0.8,0.5,0.57181916481766,"false"
"image-keyboard-response",609,446386,"0.0-3.199-1.199","j7qoncf551ymkpx",229,"44.csv","","null","resources/maskTrios/L1BB.jpg","null","",NA,NA,NA,NA,""
"image-keyboard-response",610,447595,"0.0-3.199-2.199","j7qoncf551ymkpx",229,"44.csv","","null","resources/images/fishbone.png","null","",NA,NA,NA,NA,""
