"trial_type","trial_index","time_elapsed","internal_node_id","subject","participantCode","walkNumber","success","rt","stimulus","key_press","test_part","leftProb","midProb","rightProb","generatedNum","correct"
"pavlovia",0,906,"0.0-0.0","r1catxd7wqkmehe",14,"185.csv","","","","","",NA,NA,NA,NA,""
"fullscreen",1,10592,"0.0-1.0","r1catxd7wqkmehe",14,"185.csv","true","","","","",NA,NA,NA,NA,""
"html-keyboard-response",2,42902,"0.0-2.0-0.0","r1catxd7wqkmehe",14,"185.csv","","32348.5","<p><font size='6'>Arrrgh!</p></font><p>Can you be the best pirate? Try to find lots of gold! But beware, some islands have more gold than others, and over time, the island with the most gold may change. Can YOU figure it out? </p><font size='6'>GOOD LUCK, CAPTAIN!!!</font><p>Press any key to begin</p>","188","",NA,NA,NA,NA,""
"image-keyboard-response",3,45907,"0.0-2.0-1.0","r1catxd7wqkmehe",14,"185.csv","","null","resources/image_sets/111.png","null","",NA,NA,NA,NA,""
"image-keyboard-response",4,61943,"0.0-2.0-2.0","r1catxd7wqkmehe",14,"185.csv","","16038.400000095367","resources/image_sets/left_highlight.png","37","",NA,NA,NA,NA,""
"image-keyboard-response",5,70028,"0.0-2.0-3.0","r1catxd7wqkmehe",14,"185.csv","","8085.699999809265","resources/image_sets/mid_highlight.png","38","",NA,NA,NA,NA,""
"image-keyboard-response",6,71383,"0.0-2.0-4.0","r1catxd7wqkmehe",14,"185.csv","","1354.5999999046326","resources/image_sets/right_highlight.png","39","",NA,NA,NA,NA,""
"image-keyboard-response",7,78466,"0.0-2.0-5.0","r1catxd7wqkmehe",14,"185.csv","","7081.599999904633","resources/image_sets/111.png","13","",NA,NA,NA,NA,""
"image-keyboard-response",8,84119,"0.0-2.0-6.0","r1catxd7wqkmehe",14,"185.csv","","5652.599999904633","resources/images/coin2.png","13","",NA,NA,NA,NA,""
"image-keyboard-response",9,88779,"0.0-2.0-7.0","r1catxd7wqkmehe",14,"185.csv","","4659.899999856949","resources/images/fishbone.png","13","",NA,NA,NA,NA,""
"html-keyboard-response",10,103376,"0.0-2.0-8.0","r1catxd7wqkmehe",14,"185.csv","","14596.700000047684","<p>Your first journey will be a long one, but you will get a well deserved break at the end</p><p>After the break you will have four more journeys, but each will be much shorter than the first, and you will have breaks in between each</p><p>Press Enter to begin</p>","13","",NA,NA,NA,NA,""
"image-keyboard-response",11,107671,"0.0-3.0-0.0","r1catxd7wqkmehe",14,"185.csv","","4294.100000143051","resources/trios/L2T4A1.jpg","38","restless",0.7,0.3,0.9,0.536803576445406,"false"
"image-keyboard-response",12,108077,"0.0-3.0-1.0","r1catxd7wqkmehe",14,"185.csv","","null","resources/maskTrios/BT4B.jpg","null","",NA,NA,NA,NA,""
"image-keyboard-response",13,109280,"0.0-3.0-2.0","r1catxd7wqkmehe",14,"185.csv","","null","resources/images/fishbone.png","null","",NA,NA,NA,NA,""
"image-keyboard-response",14,111991,"0.0-3.1-0.1","r1catxd7wqkmehe",14,"185.csv","","2710","resources/trios/L1T4A1.jpg","39","restless",0.7,0.3,0.9,0.711528779554322,"true"
"image-keyboard-response",15,112397,"0.0-3.1-1.1","r1catxd7wqkmehe",14,"185.csv","","null","resources/maskTrios/BBA1.jpg","null","",NA,NA,NA,NA,""
"image-keyboard-response",16,113600,"0.0-3.1-2.1","r1catxd7wqkmehe",14,"185.csv","","null","resources/images/coin2.png","null","",NA,NA,NA,NA,""
"image-keyboard-response",17,116866,"0.0-3.2-0.2","r1catxd7wqkmehe",14,"185.csv","","3264.7999999523163","resources/trios/L1T4A3.jpg","37","restless",0.7,0.3,0.8,0.664558893736629,"true"
"image-keyboard-response",18,117270,"0.0-3.2-1.2","r1catxd7wqkmehe",14,"185.csv","","null","resources/maskTrios/L1BB.jpg","null","",NA,NA,NA,NA,""
"image-keyboard-response",19,118473,"0.0-3.2-2.2","r1catxd7wqkmehe",14,"185.csv","","null","resources/images/coin2.png","null","",NA,NA,NA,NA,""
"image-keyboard-response",20,122592,"0.0-3.3-0.3","r1catxd7wqkmehe",14,"185.csv","","4117","resources/trios/L1T1A1.jpg","39","restless",0.7,0.3,0.7,0.77851987395584,"false"
"image-keyboard-response",21,122996,"0.0-3.3-1.3","r1catxd7wqkmehe",14,"185.csv","","null","resources/maskTrios/BBA1.jpg","null","",NA,NA,NA,NA,""
"image-keyboard-response",22,124201,"0.0-3.3-2.3","r1catxd7wqkmehe",14,"185.csv","","null","resources/images/fishbone.png","null","",NA,NA,NA,NA,""
"image-keyboard-response",23,125348,"0.0-3.4-0.4","r1catxd7wqkmehe",14,"185.csv","","1145.2000000476837","resources/trios/L2T1A1.jpg","38","restless",0.7,0.3,0.7,0.878874641017001,"false"
"image-keyboard-response",24,125753,"0.0-3.4-1.4","r1catxd7wqkmehe",14,"185.csv","","null","resources/maskTrios/BT1B.jpg","null","",NA,NA,NA,NA,""
"image-keyboard-response",25,126958,"0.0-3.4-2.4","r1catxd7wqkmehe",14,"185.csv","","null","resources/images/fishbone.png","null","",NA,NA,NA,NA,""
"image-keyboard-response",26,128683,"0.0-3.5-0.5","r1catxd7wqkmehe",14,"185.csv","","1723.7000000476837","resources/trios/L1T4A3.jpg","39","restless",0.7,0.3,0.7,0.655700483117303,"true"
"image-keyboard-response",27,129087,"0.0-3.5-1.5","r1catxd7wqkmehe",14,"185.csv","","null","resources/maskTrios/BBA3.jpg","null","",NA,NA,NA,NA,""
"image-keyboard-response",28,130292,"0.0-3.5-2.5","r1catxd7wqkmehe",14,"185.csv","","null","resources/images/coin2.png","null","",NA,NA,NA,NA,""
"image-keyboard-response",29,131875,"0.0-3.6-0.6","r1catxd7wqkmehe",14,"185.csv","","1582","resources/trios/L1T1A1.jpg","37","restless",0.7,0.3,0.7,0.396610338735471,"true"
"image-keyboard-response",30,132276,"0.0-3.6-1.6","r1catxd7wqkmehe",14,"185.csv","","null","resources/maskTrios/L1BB.jpg","null","",NA,NA,NA,NA,""
"image-keyboard-response",31,133482,"0.0-3.6-2.6","r1catxd7wqkmehe",14,"185.csv","","null","resources/images/coin2.png","null","",NA,NA,NA,NA,""
"image-keyboard-response",32,134349,"0.0-3.7-0.7","r1catxd7wqkmehe",14,"185.csv","","867","resources/trios/L2T4A1.jpg","37","restless",0.7,0.3,0.7,0.640315108230873,"true"
"image-keyboard-response",33,134754,"0.0-3.7-1.7","r1catxd7wqkmehe",14,"185.csv","","null","resources/maskTrios/L2BB.jpg","null","",NA,NA,NA,NA,""
"image-keyboard-response",34,135957,"0.0-3.7-2.7","r1catxd7wqkmehe",14,"185.csv","","null","resources/images/coin2.png","null","",NA,NA,NA,NA,""
"image-keyboard-response",35,137618,"0.0-3.8-0.8","r1catxd7wqkmehe",14,"185.csv","","1660.2999999523163","resources/trios/L1T4A3.jpg","39","restless",0.7,0.3,0.7,0.23253793316629,"true"
"image-keyboard-response",36,138020,"0.0-3.8-1.8","r1catxd7wqkmehe",14,"185.csv","","null","resources/maskTrios/BBA3.jpg","null","",NA,NA,NA,NA,""
"image-keyboard-response",37,139226,"0.0-3.8-2.8","r1catxd7wqkmehe",14,"185.csv","","null","resources/images/coin2.png","null","",NA,NA,NA,NA,""
"image-keyboard-response",38,139828,"0.0-3.9-0.9","r1catxd7wqkmehe",14,"185.csv","","601.4000000953674","resources/trios/L1T1A1.jpg","37","restless",0.7,0.3,0.7,0.112453136903846,"true"
"image-keyboard-response",39,140234,"0.0-3.9-1.9","r1catxd7wqkmehe",14,"185.csv","","null","resources/maskTrios/L1BB.jpg","null","",NA,NA,NA,NA,""
"image-keyboard-response",40,141435,"0.0-3.9-2.9","r1catxd7wqkmehe",14,"185.csv","","null","resources/images/coin2.png","null","",NA,NA,NA,NA,""
"image-keyboard-response",41,142233,"0.0-3.10-0.10","r1catxd7wqkmehe",14,"185.csv","","797.6000001430511","resources/trios/L2T4A1.jpg","39","restless",0.7,0.3,0.7,0.44740805745943,"true"
"image-keyboard-response",42,142639,"0.0-3.10-1.10","r1catxd7wqkmehe",14,"185.csv","","null","resources/maskTrios/BBA1.jpg","null","",NA,NA,NA,NA,""
"image-keyboard-response",43,143844,"0.0-3.10-2.10","r1catxd7wqkmehe",14,"185.csv","","null","resources/images/coin2.png","null","",NA,NA,NA,NA,""
"image-keyboard-response",44,145574,"0.0-3.11-0.11","r1catxd7wqkmehe",14,"185.csv","","1729.2999999523163","resources/trios/L1T4A3.jpg","37","restless",0.6,0.3,0.7,0.239014188348781,"true"
"image-keyboard-response",45,145980,"0.0-3.11-1.11","r1catxd7wqkmehe",14,"185.csv","","null","resources/maskTrios/L1BB.jpg","null","",NA,NA,NA,NA,""
"image-keyboard-response",46,147185,"0.0-3.11-2.11","r1catxd7wqkmehe",14,"185.csv","","null","resources/images/coin2.png","null","",NA,NA,NA,NA,""
"image-keyboard-response",47,149669,"0.0-3.12-0.12","r1catxd7wqkmehe",14,"185.csv","","2483.7000000476837","resources/trios/L1T4A1.jpg","39","restless",0.6,0.3,0.6,0.233435885830252,"true"
"image-keyboard-response",48,150073,"0.0-3.12-1.12","r1catxd7wqkmehe",14,"185.csv","","null","resources/maskTrios/BBA1.jpg","null","",NA,NA,NA,NA,""
"image-keyboard-response",49,151279,"0.0-3.12-2.12","r1catxd7wqkmehe",14,"185.csv","","null","resources/images/coin2.png","null","",NA,NA,NA,NA,""
"image-keyboard-response",50,152777,"0.0-3.13-0.13","r1catxd7wqkmehe",14,"185.csv","","1496.8000001907349","resources/trios/L2T4A3.jpg","37","restless",0.6,0.3,0.6,0.871884880316043,"false"
"image-keyboard-response",51,153182,"0.0-3.13-1.13","r1catxd7wqkmehe",14,"185.csv","","null","resources/maskTrios/L2BB.jpg","null","",NA,NA,NA,NA,""
"image-keyboard-response",52,154383,"0.0-3.13-2.13","r1catxd7wqkmehe",14,"185.csv","","null","resources/images/fishbone.png","null","",NA,NA,NA,NA,""
"image-keyboard-response",53,155775,"0.0-3.14-0.14","r1catxd7wqkmehe",14,"185.csv","","1391.1000001430511","resources/trios/L1T4A1.jpg","39","restless",0.6,0.3,0.6,0.536158368215427,"true"
"image-keyboard-response",54,156180,"0.0-3.14-1.14","r1catxd7wqkmehe",14,"185.csv","","null","resources/maskTrios/BBA1.jpg","null","",NA,NA,NA,NA,""
"image-keyboard-response",55,157381,"0.0-3.14-2.14","r1catxd7wqkmehe",14,"185.csv","","null","resources/images/coin2.png","null","",NA,NA,NA,NA,""
"image-keyboard-response",56,158242,"0.0-3.15-0.15","r1catxd7wqkmehe",14,"185.csv","","860.2999999523163","resources/trios/L1T1A3.jpg","39","restless",0.6,0.2,0.6,0.289974993366311,"true"
"image-keyboard-response",57,158647,"0.0-3.15-1.15","r1catxd7wqkmehe",14,"185.csv","","null","resources/maskTrios/BBA3.jpg","null","",NA,NA,NA,NA,""
"image-keyboard-response",58,159851,"0.0-3.15-2.15","r1catxd7wqkmehe",14,"185.csv","","null","resources/images/coin2.png","null","",NA,NA,NA,NA,""
"image-keyboard-response",59,160923,"0.0-3.16-0.16","r1catxd7wqkmehe",14,"185.csv","","1071.5","resources/trios/L1T1A3.jpg","37","restless",0.6,0.2,0.6,0.0831180836846372,"true"
"image-keyboard-response",60,161327,"0.0-3.16-1.16","r1catxd7wqkmehe",14,"185.csv","","null","resources/maskTrios/L1BB.jpg","null","",NA,NA,NA,NA,""
"image-keyboard-response",61,162533,"0.0-3.16-2.16","r1catxd7wqkmehe",14,"185.csv","","null","resources/images/coin2.png","null","",NA,NA,NA,NA,""
"image-keyboard-response",62,164250,"0.0-3.17-0.17","r1catxd7wqkmehe",14,"185.csv","","1716.0999999046326","resources/trios/L1T1A3.jpg","39","restless",0.6,0.2,0.6,0.249746733916344,"true"
"image-keyboard-response",63,164655,"0.0-3.17-1.17","r1catxd7wqkmehe",14,"185.csv","","null","resources/maskTrios/BBA3.jpg","null","",NA,NA,NA,NA,""
"image-keyboard-response",64,165860,"0.0-3.17-2.17","r1catxd7wqkmehe",14,"185.csv","","null","resources/images/coin2.png","null","",NA,NA,NA,NA,""
"image-keyboard-response",65,168246,"0.0-3.18-0.18","r1catxd7wqkmehe",14,"185.csv","","2385.0999999046326","resources/trios/L1T1A1.jpg","39","restless",0.6,0.2,0.6,0.64646482125191,"false"
"image-keyboard-response",66,168650,"0.0-3.18-1.18","r1catxd7wqkmehe",14,"185.csv","","null","resources/maskTrios/BBA1.jpg","null","",NA,NA,NA,NA,""
"image-keyboard-response",67,169855,"0.0-3.18-2.18","r1catxd7wqkmehe",14,"185.csv","","null","resources/images/fishbone.png","null","",NA,NA,NA,NA,""
"image-keyboard-response",68,170844,"0.0-3.19-0.19","r1catxd7wqkmehe",14,"185.csv","","988","resources/trios/L1T4A1.jpg","37","restless",0.6,0.2,0.6,0.215965111985879,"true"
"image-keyboard-response",69,171248,"0.0-3.19-1.19","r1catxd7wqkmehe",14,"185.csv","","null","resources/maskTrios/L1BB.jpg","null","",NA,NA,NA,NA,""
"image-keyboard-response",70,172452,"0.0-3.19-2.19","r1catxd7wqkmehe",14,"185.csv","","null","resources/images/coin2.png","null","",NA,NA,NA,NA,""
"image-keyboard-response",71,174172,"0.0-3.20-0.20","r1catxd7wqkmehe",14,"185.csv","","1718.7999999523163","resources/trios/L2T1A3.jpg","38","restless",0.6,0.2,0.6,0.231637680745646,"false"
"image-keyboard-response",72,174575,"0.0-3.20-1.20","r1catxd7wqkmehe",14,"185.csv","","null","resources/maskTrios/BT1B.jpg","null","",NA,NA,NA,NA,""
"image-keyboard-response",73,175780,"0.0-3.20-2.20","r1catxd7wqkmehe",14,"185.csv","","null","resources/images/fishbone.png","null","",NA,NA,NA,NA,""
"image-keyboard-response",74,176213,"0.0-3.21-0.21","r1catxd7wqkmehe",14,"185.csv","","431.2999999523163","resources/trios/L2T1A1.jpg","37","restless",0.6,0.2,0.6,0.886609934727958,"false"
"image-keyboard-response",75,176618,"0.0-3.21-1.21","r1catxd7wqkmehe",14,"185.csv","","null","resources/maskTrios/L2BB.jpg","null","",NA,NA,NA,NA,""
"image-keyboard-response",76,177823,"0.0-3.21-2.21","r1catxd7wqkmehe",14,"185.csv","","null","resources/images/fishbone.png","null","",NA,NA,NA,NA,""
"image-keyboard-response",77,178330,"0.0-3.22-0.22","r1catxd7wqkmehe",14,"185.csv","","505.2999999523163","resources/trios/L1T4A3.jpg","37","restless",0.6,0.2,0.5,0.759412076902021,"false"
"image-keyboard-response",78,178735,"0.0-3.22-1.22","r1catxd7wqkmehe",14,"185.csv","","null","resources/maskTrios/L1BB.jpg","null","",NA,NA,NA,NA,""
"image-keyboard-response",79,179940,"0.0-3.22-2.22","r1catxd7wqkmehe",14,"185.csv","","null","resources/images/fishbone.png","null","",NA,NA,NA,NA,""
"image-keyboard-response",80,180431,"0.0-3.23-0.23","r1catxd7wqkmehe",14,"185.csv","","490.39999985694885","resources/trios/L2T1A3.jpg","37","restless",0.6,0.2,0.5,0.75500343372074,"false"
"image-keyboard-response",81,180837,"0.0-3.23-1.23","r1catxd7wqkmehe",14,"185.csv","","null","resources/maskTrios/L2BB.jpg","null","",NA,NA,NA,NA,""
"image-keyboard-response",82,182042,"0.0-3.23-2.23","r1catxd7wqkmehe",14,"185.csv","","null","resources/images/fishbone.png","null","",NA,NA,NA,NA,""
"image-keyboard-response",83,182537,"0.0-3.24-0.24","r1catxd7wqkmehe",14,"185.csv","","494.39999985694885","resources/trios/L1T1A1.jpg","37","restless",0.6,0.2,0.5,0.197141592797537,"true"
"image-keyboard-response",84,182942,"0.0-3.24-1.24","r1catxd7wqkmehe",14,"185.csv","","null","resources/maskTrios/L1BB.jpg","null","",NA,NA,NA,NA,""
"image-keyboard-response",85,184148,"0.0-3.24-2.24","r1catxd7wqkmehe",14,"185.csv","","null","resources/images/coin2.png","null","",NA,NA,NA,NA,""
"image-keyboard-response",86,185672,"0.0-3.25-0.25","r1catxd7wqkmehe",14,"185.csv","","1523.3999998569489","resources/trios/L2T1A3.jpg","39","restless",0.6,0.2,0.5,0.256793934869077,"true"
"image-keyboard-response",87,186074,"0.0-3.25-1.25","r1catxd7wqkmehe",14,"185.csv","","null","resources/maskTrios/BBA3.jpg","null","",NA,NA,NA,NA,""
"image-keyboard-response",88,187279,"0.0-3.25-2.25","r1catxd7wqkmehe",14,"185.csv","","null","resources/images/coin2.png","null","",NA,NA,NA,NA,""
"image-keyboard-response",89,188196,"0.0-3.26-0.26","r1catxd7wqkmehe",14,"185.csv","","916.2000000476837","resources/trios/L1T1A1.jpg","39","restless",0.6,0.2,0.5,0.452499195699916,"true"
"image-keyboard-response",90,188602,"0.0-3.26-1.26","r1catxd7wqkmehe",14,"185.csv","","null","resources/maskTrios/BBA1.jpg","null","",NA,NA,NA,NA,""
"image-keyboard-response",91,189807,"0.0-3.26-2.26","r1catxd7wqkmehe",14,"185.csv","","null","resources/images/coin2.png","null","",NA,NA,NA,NA,""
"image-keyboard-response",92,190253,"0.0-3.27-0.27","r1catxd7wqkmehe",14,"185.csv","","445","resources/trios/L1T4A3.jpg","39","restless",0.6,0.2,0.5,0.178351321075653,"true"
"image-keyboard-response",93,190655,"0.0-3.27-1.27","r1catxd7wqkmehe",14,"185.csv","","null","resources/maskTrios/BBA3.jpg","null","",NA,NA,NA,NA,""
"image-keyboard-response",94,191860,"0.0-3.27-2.27","r1catxd7wqkmehe",14,"185.csv","","null","resources/images/coin2.png","null","",NA,NA,NA,NA,""
"image-keyboard-response",95,192421,"0.0-3.28-0.28","r1catxd7wqkmehe",14,"185.csv","","560.0999999046326","resources/trios/L2T4A3.jpg","37","restless",0.6,0.2,0.5,0.248546187455628,"true"
"image-keyboard-response",96,192826,"0.0-3.28-1.28","r1catxd7wqkmehe",14,"185.csv","","null","resources/maskTrios/L2BB.jpg","null","",NA,NA,NA,NA,""
"image-keyboard-response",97,194032,"0.0-3.28-2.28","r1catxd7wqkmehe",14,"185.csv","","null","resources/images/coin2.png","null","",NA,NA,NA,NA,""
"image-keyboard-response",98,194466,"0.0-3.29-0.29","r1catxd7wqkmehe",14,"185.csv","","433.80000019073486","resources/trios/L2T4A1.jpg","37","restless",0.6,0.2,0.5,0.648216751948057,"false"
"image-keyboard-response",99,194869,"0.0-3.29-1.29","r1catxd7wqkmehe",14,"185.csv","","null","resources/maskTrios/L2BB.jpg","null","",NA,NA,NA,NA,""
"image-keyboard-response",100,196074,"0.0-3.29-2.29","r1catxd7wqkmehe",14,"185.csv","","null","resources/images/fishbone.png","null","",NA,NA,NA,NA,""
"image-keyboard-response",101,196719,"0.0-3.30-0.30","r1catxd7wqkmehe",14,"185.csv","","644.2999999523163","resources/trios/L2T4A1.jpg","38","restless",0.6,0.2,0.5,0.122779616588203,"true"
"image-keyboard-response",102,197125,"0.0-3.30-1.30","r1catxd7wqkmehe",14,"185.csv","","null","resources/maskTrios/BT4B.jpg","null","",NA,NA,NA,NA,""
"image-keyboard-response",103,198330,"0.0-3.30-2.30","r1catxd7wqkmehe",14,"185.csv","","null","resources/images/coin2.png","null","",NA,NA,NA,NA,""
"image-keyboard-response",104,199654,"0.0-3.31-0.31","r1catxd7wqkmehe",14,"185.csv","","1323.3999998569489","resources/trios/L2T1A3.jpg","39","restless",0.6,0.2,0.5,0.00707396965551288,"true"
"image-keyboard-response",105,200058,"0.0-3.31-1.31","r1catxd7wqkmehe",14,"185.csv","","null","resources/maskTrios/BBA3.jpg","null","",NA,NA,NA,NA,""
"image-keyboard-response",106,201263,"0.0-3.31-2.31","r1catxd7wqkmehe",14,"185.csv","","null","resources/images/coin2.png","null","",NA,NA,NA,NA,""
"image-keyboard-response",107,201926,"0.0-3.32-0.32","r1catxd7wqkmehe",14,"185.csv","","662.4000000953674","resources/trios/L2T1A1.jpg","39","restless",0.6,0.2,0.5,0.891787529372959,"false"
"image-keyboard-response",108,202330,"0.0-3.32-1.32","r1catxd7wqkmehe",14,"185.csv","","null","resources/maskTrios/BBA1.jpg","null","",NA,NA,NA,NA,""
"image-keyboard-response",109,203531,"0.0-3.32-2.32","r1catxd7wqkmehe",14,"185.csv","","null","resources/images/fishbone.png","null","",NA,NA,NA,NA,""
"image-keyboard-response",110,204027,"0.0-3.33-0.33","r1catxd7wqkmehe",14,"185.csv","","495.90000009536743","resources/trios/L2T4A3.jpg","38","restless",0.6,0.1,0.5,0.216966779943762,"false"
"image-keyboard-response",111,204431,"0.0-3.33-1.33","r1catxd7wqkmehe",14,"185.csv","","null","resources/maskTrios/BT4B.jpg","null","",NA,NA,NA,NA,""
"image-keyboard-response",112,205636,"0.0-3.33-2.33","r1catxd7wqkmehe",14,"185.csv","","null","resources/images/fishbone.png","null","",NA,NA,NA,NA,""
"image-keyboard-response",113,206114,"0.0-3.34-0.34","r1catxd7wqkmehe",14,"185.csv","","477.40000009536743","resources/trios/L1T4A1.jpg","38","restless",0.5,0.1,0.5,0.275854503736585,"false"
"image-keyboard-response",114,206517,"0.0-3.34-1.34","r1catxd7wqkmehe",14,"185.csv","","null","resources/maskTrios/BT4B.jpg","null","",NA,NA,NA,NA,""
"image-keyboard-response",115,207722,"0.0-3.34-2.34","r1catxd7wqkmehe",14,"185.csv","","null","resources/images/fishbone.png","null","",NA,NA,NA,NA,""
"image-keyboard-response",116,208006,"0.0-3.35-0.35","r1catxd7wqkmehe",14,"185.csv","","283.7000000476837","resources/trios/L2T4A3.jpg","38","restless",0.5,0.1,0.5,0.761600385984633,"false"
"image-keyboard-response",117,208410,"0.0-3.35-1.35","r1catxd7wqkmehe",14,"185.csv","","null","resources/maskTrios/BT4B.jpg","null","",NA,NA,NA,NA,""
"image-keyboard-response",118,209615,"0.0-3.35-2.35","r1catxd7wqkmehe",14,"185.csv","","null","resources/images/fishbone.png","null","",NA,NA,NA,NA,""
"image-keyboard-response",119,210724,"0.0-3.36-0.36","r1catxd7wqkmehe",14,"185.csv","","1108.1000001430511","resources/trios/L1T1A3.jpg","38","restless",0.5,0.1,0.5,0.104612775076672,"false"
"image-keyboard-response",120,211129,"0.0-3.36-1.36","r1catxd7wqkmehe",14,"185.csv","","null","resources/maskTrios/BT1B.jpg","null","",NA,NA,NA,NA,""
"image-keyboard-response",121,212330,"0.0-3.36-2.36","r1catxd7wqkmehe",14,"185.csv","","null","resources/images/fishbone.png","null","",NA,NA,NA,NA,""
"image-keyboard-response",122,212876,"0.0-3.37-0.37","r1catxd7wqkmehe",14,"185.csv","","545.1999998092651","resources/trios/L1T4A3.jpg","37","restless",0.5,0.2,0.5,0.082113867088569,"true"
"image-keyboard-response",123,213280,"0.0-3.37-1.37","r1catxd7wqkmehe",14,"185.csv","","null","resources/maskTrios/L1BB.jpg","null","",NA,NA,NA,NA,""
"image-keyboard-response",124,214485,"0.0-3.37-2.37","r1catxd7wqkmehe",14,"185.csv","","null","resources/images/coin2.png","null","",NA,NA,NA,NA,""
"image-keyboard-response",125,215156,"0.0-3.38-0.38","r1catxd7wqkmehe",14,"185.csv","","670.5","resources/trios/L2T4A1.jpg","39","restless",0.5,0.3,0.5,0.94335618635814,"false"
"image-keyboard-response",126,215561,"0.0-3.38-1.38","r1catxd7wqkmehe",14,"185.csv","","null","resources/maskTrios/BBA1.jpg","null","",NA,NA,NA,NA,""
"image-keyboard-response",127,216762,"0.0-3.38-2.38","r1catxd7wqkmehe",14,"185.csv","","null","resources/images/fishbone.png","null","",NA,NA,NA,NA,""
"image-keyboard-response",128,217136,"0.0-3.39-0.39","r1catxd7wqkmehe",14,"185.csv","","373.2000000476837","resources/trios/L2T1A3.jpg","37","restless",0.5,0.3,0.5,0.633352470535182,"false"
"image-keyboard-response",129,217538,"0.0-3.39-1.39","r1catxd7wqkmehe",14,"185.csv","","null","resources/maskTrios/L2BB.jpg","null","",NA,NA,NA,NA,""
"image-keyboard-response",130,218741,"0.0-3.39-2.39","r1catxd7wqkmehe",14,"185.csv","","null","resources/images/fishbone.png","null","",NA,NA,NA,NA,""
"image-keyboard-response",131,219278,"0.0-3.40-0.40","r1catxd7wqkmehe",14,"185.csv","","536.8000001907349","resources/trios/L2T1A3.jpg","37","restless",0.5,0.3,0.5,0.90043826049697,"false"
"image-keyboard-response",132,219684,"0.0-3.40-1.40","r1catxd7wqkmehe",14,"185.csv","","null","resources/maskTrios/L2BB.jpg","null","",NA,NA,NA,NA,""
"image-keyboard-response",133,220889,"0.0-3.40-2.40","r1catxd7wqkmehe",14,"185.csv","","null","resources/images/fishbone.png","null","",NA,NA,NA,NA,""
"image-keyboard-response",134,221909,"0.0-3.41-0.41","r1catxd7wqkmehe",14,"185.csv","","1018.7000000476837","resources/trios/L2T1A3.jpg","37","restless",0.5,0.2,0.5,0.958747247547832,"false"
"image-keyboard-response",135,222314,"0.0-3.41-1.41","r1catxd7wqkmehe",14,"185.csv","","null","resources/maskTrios/L2BB.jpg","null","",NA,NA,NA,NA,""
"image-keyboard-response",136,223515,"0.0-3.41-2.41","r1catxd7wqkmehe",14,"185.csv","","null","resources/images/fishbone.png","null","",NA,NA,NA,NA,""
"image-keyboard-response",137,224408,"0.0-3.42-0.42","r1catxd7wqkmehe",14,"185.csv","","892.5","resources/trios/L1T1A1.jpg","37","restless",0.5,0.2,0.5,0.898595509297122,"false"
"image-keyboard-response",138,224811,"0.0-3.42-1.42","r1catxd7wqkmehe",14,"185.csv","","null","resources/maskTrios/L1BB.jpg","null","",NA,NA,NA,NA,""
"image-keyboard-response",139,226016,"0.0-3.42-2.42","r1catxd7wqkmehe",14,"185.csv","","null","resources/images/fishbone.png","null","",NA,NA,NA,NA,""
"image-keyboard-response",140,227441,"0.0-3.43-0.43","r1catxd7wqkmehe",14,"185.csv","","1424.7999999523163","resources/trios/L2T4A1.jpg","37","restless",0.4,0.2,0.5,0.520389768419482,"false"
"image-keyboard-response",141,227845,"0.0-3.43-1.43","r1catxd7wqkmehe",14,"185.csv","","null","resources/maskTrios/L2BB.jpg","null","",NA,NA,NA,NA,""
"image-keyboard-response",142,229051,"0.0-3.43-2.43","r1catxd7wqkmehe",14,"185.csv","","null","resources/images/fishbone.png","null","",NA,NA,NA,NA,""
"image-keyboard-response",143,229425,"0.0-3.44-0.44","r1catxd7wqkmehe",14,"185.csv","","373.09999990463257","resources/trios/L2T4A1.jpg","37","restless",0.4,0.2,0.5,0.434678712440203,"false"
"image-keyboard-response",144,229829,"0.0-3.44-1.44","r1catxd7wqkmehe",14,"185.csv","","null","resources/maskTrios/L2BB.jpg","null","",NA,NA,NA,NA,""
"image-keyboard-response",145,231034,"0.0-3.44-2.44","r1catxd7wqkmehe",14,"185.csv","","null","resources/images/fishbone.png","null","",NA,NA,NA,NA,""
"image-keyboard-response",146,231337,"0.0-3.45-0.45","r1catxd7wqkmehe",14,"185.csv","","302.19999980926514","resources/trios/L2T4A1.jpg","37","restless",0.4,0.2,0.5,0.482409327169765,"false"
"image-keyboard-response",147,231743,"0.0-3.45-1.45","r1catxd7wqkmehe",14,"185.csv","","null","resources/maskTrios/L2BB.jpg","null","",NA,NA,NA,NA,""
"image-keyboard-response",148,232948,"0.0-3.45-2.45","r1catxd7wqkmehe",14,"185.csv","","null","resources/images/fishbone.png","null","",NA,NA,NA,NA,""
"image-keyboard-response",149,233848,"0.0-3.46-0.46","r1catxd7wqkmehe",14,"185.csv","","899.0999999046326","resources/trios/L2T4A3.jpg","38","restless",0.4,0.3,0.5,0.349688132470258,"false"
"image-keyboard-response",150,234250,"0.0-3.46-1.46","r1catxd7wqkmehe",14,"185.csv","","null","resources/maskTrios/BT4B.jpg","null","",NA,NA,NA,NA,""
"image-keyboard-response",151,235456,"0.0-3.46-2.46","r1catxd7wqkmehe",14,"185.csv","","null","resources/images/fishbone.png","null","",NA,NA,NA,NA,""
"image-keyboard-response",152,235902,"0.0-3.47-0.47","r1catxd7wqkmehe",14,"185.csv","","445.59999990463257","resources/trios/L1T1A3.jpg","39","restless",0.4,0.3,0.5,0.323229947370641,"true"
"image-keyboard-response",153,236304,"0.0-3.47-1.47","r1catxd7wqkmehe",14,"185.csv","","null","resources/maskTrios/BBA3.jpg","null","",NA,NA,NA,NA,""
"image-keyboard-response",154,237509,"0.0-3.47-2.47","r1catxd7wqkmehe",14,"185.csv","","null","resources/images/coin2.png","null","",NA,NA,NA,NA,""
"image-keyboard-response",155,238218,"0.0-3.48-0.48","r1catxd7wqkmehe",14,"185.csv","","707.5999999046326","resources/trios/L1T1A1.jpg","39","restless",0.4,0.3,0.5,0.973270154990858,"false"
"image-keyboard-response",156,238623,"0.0-3.48-1.48","r1catxd7wqkmehe",14,"185.csv","","null","resources/maskTrios/BBA1.jpg","null","",NA,NA,NA,NA,""
"image-keyboard-response",157,239828,"0.0-3.48-2.48","r1catxd7wqkmehe",14,"185.csv","","null","resources/images/fishbone.png","null","",NA,NA,NA,NA,""
"image-keyboard-response",158,240366,"0.0-3.49-0.49","r1catxd7wqkmehe",14,"185.csv","","536.5","resources/trios/L1T4A1.jpg","38","restless",0.3,0.3,0.5,0.625463293385703,"false"
"image-keyboard-response",159,240768,"0.0-3.49-1.49","r1catxd7wqkmehe",14,"185.csv","","null","resources/maskTrios/BT4B.jpg","null","",NA,NA,NA,NA,""
"image-keyboard-response",160,241973,"0.0-3.49-2.49","r1catxd7wqkmehe",14,"185.csv","","null","resources/images/fishbone.png","null","",NA,NA,NA,NA,""
"image-keyboard-response",161,242366,"0.0-3.50-0.50","r1catxd7wqkmehe",14,"185.csv","","392.7000000476837","resources/trios/L2T4A3.jpg","39","restless",0.3,0.3,0.5,0.343197152641277,"true"
"image-keyboard-response",162,242769,"0.0-3.50-1.50","r1catxd7wqkmehe",14,"185.csv","","null","resources/maskTrios/BBA3.jpg","null","",NA,NA,NA,NA,""
"image-keyboard-response",163,243973,"0.0-3.50-2.50","r1catxd7wqkmehe",14,"185.csv","","null","resources/images/coin2.png","null","",NA,NA,NA,NA,""
"image-keyboard-response",164,244376,"0.0-3.51-0.51","r1catxd7wqkmehe",14,"185.csv","","402.40000009536743","resources/trios/L1T4A3.jpg","37","restless",0.3,0.3,0.5,0.705738537841584,"false"
"image-keyboard-response",165,244778,"0.0-3.51-1.51","r1catxd7wqkmehe",14,"185.csv","","null","resources/maskTrios/L1BB.jpg","null","",NA,NA,NA,NA,""
"image-keyboard-response",166,245983,"0.0-3.51-2.51","r1catxd7wqkmehe",14,"185.csv","","null","resources/images/fishbone.png","null","",NA,NA,NA,NA,""
"image-keyboard-response",167,246433,"0.0-3.52-0.52","r1catxd7wqkmehe",14,"185.csv","","448.7000000476837","resources/trios/L1T4A1.jpg","39","restless",0.3,0.3,0.5,0.993471751885195,"false"
"image-keyboard-response",168,246837,"0.0-3.52-1.52","r1catxd7wqkmehe",14,"185.csv","","null","resources/maskTrios/BBA1.jpg","null","",NA,NA,NA,NA,""
"image-keyboard-response",169,248043,"0.0-3.52-2.52","r1catxd7wqkmehe",14,"185.csv","","null","resources/images/fishbone.png","null","",NA,NA,NA,NA,""
"image-keyboard-response",170,248382,"0.0-3.53-0.53","r1catxd7wqkmehe",14,"185.csv","","338.10000014305115","resources/trios/L1T1A3.jpg","38","restless",0.3,0.3,0.5,0.446673603078202,"false"
"image-keyboard-response",171,248784,"0.0-3.53-1.53","r1catxd7wqkmehe",14,"185.csv","","null","resources/maskTrios/BT1B.jpg","null","",NA,NA,NA,NA,""
"image-keyboard-response",172,249989,"0.0-3.53-2.53","r1catxd7wqkmehe",14,"185.csv","","null","resources/images/fishbone.png","null","",NA,NA,NA,NA,""
"image-keyboard-response",173,250362,"0.0-3.54-0.54","r1catxd7wqkmehe",14,"185.csv","","371.5","resources/trios/L2T1A3.jpg","38","restless",0.3,0.3,0.5,0.471094224852065,"false"
"image-keyboard-response",174,250767,"0.0-3.54-1.54","r1catxd7wqkmehe",14,"185.csv","","null","resources/maskTrios/BT1B.jpg","null","",NA,NA,NA,NA,""
"image-keyboard-response",175,251972,"0.0-3.54-2.54","r1catxd7wqkmehe",14,"185.csv","","null","resources/images/fishbone.png","null","",NA,NA,NA,NA,""
"image-keyboard-response",176,252346,"0.0-3.55-0.55","r1catxd7wqkmehe",14,"185.csv","","373.19999980926514","resources/trios/L1T4A3.jpg","39","restless",0.3,0.2,0.5,0.275322452515027,"true"
"image-keyboard-response",177,252751,"0.0-3.55-1.55","r1catxd7wqkmehe",14,"185.csv","","null","resources/maskTrios/BBA3.jpg","null","",NA,NA,NA,NA,""
"image-keyboard-response",178,253956,"0.0-3.55-2.55","r1catxd7wqkmehe",14,"185.csv","","null","resources/images/coin2.png","null","",NA,NA,NA,NA,""
"image-keyboard-response",179,254460,"0.0-3.56-0.56","r1catxd7wqkmehe",14,"185.csv","","502.89999985694885","resources/trios/L1T1A1.jpg","39","restless",0.3,0.2,0.5,0.720040509775795,"false"
"image-keyboard-response",180,254864,"0.0-3.56-1.56","r1catxd7wqkmehe",14,"185.csv","","null","resources/maskTrios/BBA1.jpg","null","",NA,NA,NA,NA,""
"image-keyboard-response",181,256068,"0.0-3.56-2.56","r1catxd7wqkmehe",14,"185.csv","","null","resources/images/fishbone.png","null","",NA,NA,NA,NA,""
"image-keyboard-response",182,256607,"0.0-3.57-0.57","r1catxd7wqkmehe",14,"185.csv","","538.3000001907349","resources/trios/L1T1A3.jpg","37","restless",0.3,0.3,0.5,0.924193149436267,"false"
"image-keyboard-response",183,257012,"0.0-3.57-1.57","r1catxd7wqkmehe",14,"185.csv","","null","resources/maskTrios/L1BB.jpg","null","",NA,NA,NA,NA,""
"image-keyboard-response",184,258213,"0.0-3.57-2.57","r1catxd7wqkmehe",14,"185.csv","","null","resources/images/fishbone.png","null","",NA,NA,NA,NA,""
"image-keyboard-response",185,258505,"0.0-3.58-0.58","r1catxd7wqkmehe",14,"185.csv","","290.89999985694885","resources/trios/L2T1A3.jpg","39","restless",0.4,0.3,0.5,0.244718440409636,"true"
"image-keyboard-response",186,258907,"0.0-3.58-1.58","r1catxd7wqkmehe",14,"185.csv","","null","resources/maskTrios/BBA3.jpg","null","",NA,NA,NA,NA,""
"image-keyboard-response",187,260112,"0.0-3.58-2.58","r1catxd7wqkmehe",14,"185.csv","","null","resources/images/coin2.png","null","",NA,NA,NA,NA,""
"image-keyboard-response",188,261315,"0.0-3.59-0.59","r1catxd7wqkmehe",14,"185.csv","","1202","resources/trios/L1T4A1.jpg","39","restless",0.4,0.3,0.5,0.779085856183655,"false"
"image-keyboard-response",189,261719,"0.0-3.59-1.59","r1catxd7wqkmehe",14,"185.csv","","null","resources/maskTrios/BBA1.jpg","null","",NA,NA,NA,NA,""
"image-keyboard-response",190,262922,"0.0-3.59-2.59","r1catxd7wqkmehe",14,"185.csv","","null","resources/images/fishbone.png","null","",NA,NA,NA,NA,""
"image-keyboard-response",191,263623,"0.0-3.60-0.60","r1catxd7wqkmehe",14,"185.csv","","699.8999998569489","resources/trios/L1T4A1.jpg","39","restless",0.4,0.3,0.5,0.892465711958688,"false"
"image-keyboard-response",192,264028,"0.0-3.60-1.60","r1catxd7wqkmehe",14,"185.csv","","null","resources/maskTrios/BBA1.jpg","null","",NA,NA,NA,NA,""
"image-keyboard-response",193,265232,"0.0-3.60-2.60","r1catxd7wqkmehe",14,"185.csv","","null","resources/images/fishbone.png","null","",NA,NA,NA,NA,""
"image-keyboard-response",194,265626,"0.0-3.61-0.61","r1catxd7wqkmehe",14,"185.csv","","393.2999999523163","resources/trios/L2T4A1.jpg","38","restless",0.4,0.3,0.5,0.0347964008736381,"true"
"image-keyboard-response",195,266032,"0.0-3.61-1.61","r1catxd7wqkmehe",14,"185.csv","","null","resources/maskTrios/BT4B.jpg","null","",NA,NA,NA,NA,""
"image-keyboard-response",196,267237,"0.0-3.61-2.61","r1catxd7wqkmehe",14,"185.csv","","null","resources/images/coin2.png","null","",NA,NA,NA,NA,""
"image-keyboard-response",197,270721,"0.0-3.62-0.62","r1catxd7wqkmehe",14,"185.csv","","3482.600000143051","resources/trios/L1T1A3.jpg","37","restless",0.3,0.3,0.5,0.668080557976608,"false"
"image-keyboard-response",198,271126,"0.0-3.62-1.62","r1catxd7wqkmehe",14,"185.csv","","null","resources/maskTrios/L1BB.jpg","null","",NA,NA,NA,NA,""
"image-keyboard-response",199,272331,"0.0-3.62-2.62","r1catxd7wqkmehe",14,"185.csv","","null","resources/images/fishbone.png","null","",NA,NA,NA,NA,""
"image-keyboard-response",200,272828,"0.0-3.63-0.63","r1catxd7wqkmehe",14,"185.csv","","496.40000009536743","resources/trios/L1T1A3.jpg","38","restless",0.4,0.3,0.5,0.506462740550094,"false"
"image-keyboard-response",201,273232,"0.0-3.63-1.63","r1catxd7wqkmehe",14,"185.csv","","null","resources/maskTrios/BT1B.jpg","null","",NA,NA,NA,NA,""
"image-keyboard-response",202,274437,"0.0-3.63-2.63","r1catxd7wqkmehe",14,"185.csv","","null","resources/images/fishbone.png","null","",NA,NA,NA,NA,""
"image-keyboard-response",203,274679,"0.0-3.64-0.64","r1catxd7wqkmehe",14,"185.csv","","241.69999980926514","resources/trios/L1T4A1.jpg","37","restless",0.4,0.3,0.5,0.649973644267621,"false"
"image-keyboard-response",204,275083,"0.0-3.64-1.64","r1catxd7wqkmehe",14,"185.csv","","null","resources/maskTrios/L1BB.jpg","null","",NA,NA,NA,NA,""
"image-keyboard-response",205,276288,"0.0-3.64-2.64","r1catxd7wqkmehe",14,"185.csv","","null","resources/images/fishbone.png","null","",NA,NA,NA,NA,""
"image-keyboard-response",206,276646,"0.0-3.65-0.65","r1catxd7wqkmehe",14,"185.csv","","358","resources/trios/L1T1A1.jpg","39","restless",0.4,0.3,0.6,0.680929708269594,"false"
"image-keyboard-response",207,277051,"0.0-3.65-1.65","r1catxd7wqkmehe",14,"185.csv","","null","resources/maskTrios/BBA1.jpg","null","",NA,NA,NA,NA,""
"image-keyboard-response",208,278256,"0.0-3.65-2.65","r1catxd7wqkmehe",14,"185.csv","","null","resources/images/fishbone.png","null","",NA,NA,NA,NA,""
"image-keyboard-response",209,278743,"0.0-3.66-0.66","r1catxd7wqkmehe",14,"185.csv","","486","resources/trios/L1T1A3.jpg","38","restless",0.4,0.3,0.6,0.795155554581142,"false"
"image-keyboard-response",210,279147,"0.0-3.66-1.66","r1catxd7wqkmehe",14,"185.csv","","null","resources/maskTrios/BT1B.jpg","null","",NA,NA,NA,NA,""
"image-keyboard-response",211,280352,"0.0-3.66-2.66","r1catxd7wqkmehe",14,"185.csv","","null","resources/images/fishbone.png","null","",NA,NA,NA,NA,""
"image-keyboard-response",212,281305,"0.0-3.67-0.67","r1catxd7wqkmehe",14,"185.csv","","951.9000000953674","resources/trios/L2T1A1.jpg","39","restless",0.4,0.3,0.6,0.370904610205212,"true"
"image-keyboard-response",213,281707,"0.0-3.67-1.67","r1catxd7wqkmehe",14,"185.csv","","null","resources/maskTrios/BBA1.jpg","null","",NA,NA,NA,NA,""
"image-keyboard-response",214,282912,"0.0-3.67-2.67","r1catxd7wqkmehe",14,"185.csv","","null","resources/images/coin2.png","null","",NA,NA,NA,NA,""
"image-keyboard-response",215,283455,"0.0-3.68-0.68","r1catxd7wqkmehe",14,"185.csv","","541.7000000476837","resources/trios/L2T1A3.jpg","39","restless",0.4,0.3,0.6,0.187232689482067,"true"
"image-keyboard-response",216,283856,"0.0-3.68-1.68","r1catxd7wqkmehe",14,"185.csv","","null","resources/maskTrios/BBA3.jpg","null","",NA,NA,NA,NA,""
"image-keyboard-response",217,285061,"0.0-3.68-2.68","r1catxd7wqkmehe",14,"185.csv","","null","resources/images/coin2.png","null","",NA,NA,NA,NA,""
"image-keyboard-response",218,286057,"0.0-3.69-0.69","r1catxd7wqkmehe",14,"185.csv","","994.8000001907349","resources/trios/L2T4A3.jpg","39","restless",0.4,0.3,0.6,0.327761286590488,"true"
"image-keyboard-response",219,286459,"0.0-3.69-1.69","r1catxd7wqkmehe",14,"185.csv","","null","resources/maskTrios/BBA3.jpg","null","",NA,NA,NA,NA,""
"image-keyboard-response",220,287664,"0.0-3.69-2.69","r1catxd7wqkmehe",14,"185.csv","","null","resources/images/coin2.png","null","",NA,NA,NA,NA,""
"image-keyboard-response",221,288069,"0.0-3.70-0.70","r1catxd7wqkmehe",14,"185.csv","","404.10000014305115","resources/trios/L1T1A3.jpg","39","restless",0.4,0.3,0.6,0.0248501379104313,"true"
"image-keyboard-response",222,288474,"0.0-3.70-1.70","r1catxd7wqkmehe",14,"185.csv","","null","resources/maskTrios/BBA3.jpg","null","",NA,NA,NA,NA,""
"image-keyboard-response",223,289680,"0.0-3.70-2.70","r1catxd7wqkmehe",14,"185.csv","","null","resources/images/coin2.png","null","",NA,NA,NA,NA,""
"image-keyboard-response",224,290109,"0.0-3.71-0.71","r1catxd7wqkmehe",14,"185.csv","","428.10000014305115","resources/trios/L1T1A3.jpg","39","restless",0.4,0.3,0.6,0.289146790315223,"true"
"image-keyboard-response",225,290512,"0.0-3.71-1.71","r1catxd7wqkmehe",14,"185.csv","","null","resources/maskTrios/BBA3.jpg","null","",NA,NA,NA,NA,""
"image-keyboard-response",226,291717,"0.0-3.71-2.71","r1catxd7wqkmehe",14,"185.csv","","null","resources/images/coin2.png","null","",NA,NA,NA,NA,""
"image-keyboard-response",227,292044,"0.0-3.72-0.72","r1catxd7wqkmehe",14,"185.csv","","326.10000014305115","resources/trios/L1T1A3.jpg","39","restless",0.4,0.3,0.6,0.573375656502759,"true"
"image-keyboard-response",228,292448,"0.0-3.72-1.72","r1catxd7wqkmehe",14,"185.csv","","null","resources/maskTrios/BBA3.jpg","null","",NA,NA,NA,NA,""
"image-keyboard-response",229,293649,"0.0-3.72-2.72","r1catxd7wqkmehe",14,"185.csv","","null","resources/images/coin2.png","null","",NA,NA,NA,NA,""
"image-keyboard-response",230,293942,"0.0-3.73-0.73","r1catxd7wqkmehe",14,"185.csv","","292.2999999523163","resources/trios/L2T4A1.jpg","39","restless",0.4,0.3,0.6,0.462144175694579,"true"
"image-keyboard-response",231,294347,"0.0-3.73-1.73","r1catxd7wqkmehe",14,"185.csv","","null","resources/maskTrios/BBA1.jpg","null","",NA,NA,NA,NA,""
"image-keyboard-response",232,295552,"0.0-3.73-2.73","r1catxd7wqkmehe",14,"185.csv","","null","resources/images/coin2.png","null","",NA,NA,NA,NA,""
"image-keyboard-response",233,295963,"0.0-3.74-0.74","r1catxd7wqkmehe",14,"185.csv","","410.19999980926514","resources/trios/L2T4A1.jpg","39","restless",0.4,0.4,0.6,0.535965963326728,"true"
"image-keyboard-response",234,296366,"0.0-3.74-1.74","r1catxd7wqkmehe",14,"185.csv","","null","resources/maskTrios/BBA1.jpg","null","",NA,NA,NA,NA,""
"image-keyboard-response",235,297569,"0.0-3.74-2.74","r1catxd7wqkmehe",14,"185.csv","","null","resources/images/coin2.png","null","",NA,NA,NA,NA,""
"image-keyboard-response",236,297892,"0.0-3.75-0.75","r1catxd7wqkmehe",14,"185.csv","","322.80000019073486","resources/trios/L2T4A3.jpg","39","restless",0.4,0.4,0.6,0.947679266556074,"false"
"image-keyboard-response",237,298297,"0.0-3.75-1.75","r1catxd7wqkmehe",14,"185.csv","","null","resources/maskTrios/BBA3.jpg","null","",NA,NA,NA,NA,""
"image-keyboard-response",238,299501,"0.0-3.75-2.75","r1catxd7wqkmehe",14,"185.csv","","null","resources/images/fishbone.png","null","",NA,NA,NA,NA,""
"image-keyboard-response",239,301993,"0.0-3.76-0.76","r1catxd7wqkmehe",14,"185.csv","","2491","resources/trios/L1T1A1.jpg","37","restless",0.4,0.3,0.6,0.947671114531696,"false"
"image-keyboard-response",240,302395,"0.0-3.76-1.76","r1catxd7wqkmehe",14,"185.csv","","null","resources/maskTrios/L1BB.jpg","null","",NA,NA,NA,NA,""
"image-keyboard-response",241,303600,"0.0-3.76-2.76","r1catxd7wqkmehe",14,"185.csv","","null","resources/images/fishbone.png","null","",NA,NA,NA,NA,""
"image-keyboard-response",242,304235,"0.0-3.77-0.77","r1catxd7wqkmehe",14,"185.csv","","633.6000001430511","resources/trios/L1T4A3.jpg","39","restless",0.4,0.3,0.6,0.346671670394779,"true"
"image-keyboard-response",243,304640,"0.0-3.77-1.77","r1catxd7wqkmehe",14,"185.csv","","null","resources/maskTrios/BBA3.jpg","null","",NA,NA,NA,NA,""
"image-keyboard-response",244,305846,"0.0-3.77-2.77","r1catxd7wqkmehe",14,"185.csv","","null","resources/images/coin2.png","null","",NA,NA,NA,NA,""
"image-keyboard-response",245,306541,"0.0-3.78-0.78","r1catxd7wqkmehe",14,"185.csv","","694.6999998092651","resources/trios/L1T1A1.jpg","39","restless",0.5,0.3,0.6,0.277807761892821,"true"
"image-keyboard-response",246,306945,"0.0-3.78-1.78","r1catxd7wqkmehe",14,"185.csv","","null","resources/maskTrios/BBA1.jpg","null","",NA,NA,NA,NA,""
"image-keyboard-response",247,308150,"0.0-3.78-2.78","r1catxd7wqkmehe",14,"185.csv","","null","resources/images/coin2.png","null","",NA,NA,NA,NA,""
"image-keyboard-response",248,308495,"0.0-3.79-0.79","r1catxd7wqkmehe",14,"185.csv","","344.60000014305115","resources/trios/L2T1A1.jpg","39","restless",0.5,0.3,0.5,0.674129849125185,"false"
"image-keyboard-response",249,308896,"0.0-3.79-1.79","r1catxd7wqkmehe",14,"185.csv","","null","resources/maskTrios/BBA1.jpg","null","",NA,NA,NA,NA,""
"image-keyboard-response",250,310101,"0.0-3.79-2.79","r1catxd7wqkmehe",14,"185.csv","","null","resources/images/fishbone.png","null","",NA,NA,NA,NA,""
"image-keyboard-response",251,312113,"0.0-3.80-0.80","r1catxd7wqkmehe",14,"185.csv","","2011.5","resources/trios/L1T1A3.jpg","37","restless",0.5,0.3,0.5,0.372832857529593,"true"
"image-keyboard-response",252,312517,"0.0-3.80-1.80","r1catxd7wqkmehe",14,"185.csv","","null","resources/maskTrios/L1BB.jpg","null","",NA,NA,NA,NA,""
"image-keyboard-response",253,313723,"0.0-3.80-2.80","r1catxd7wqkmehe",14,"185.csv","","null","resources/images/coin2.png","null","",NA,NA,NA,NA,""
"image-keyboard-response",254,315096,"0.0-3.81-0.81","r1catxd7wqkmehe",14,"185.csv","","1372.2000000476837","resources/trios/L1T4A1.jpg","39","restless",0.5,0.3,0.5,0.904691167115772,"false"
"image-keyboard-response",255,315499,"0.0-3.81-1.81","r1catxd7wqkmehe",14,"185.csv","","null","resources/maskTrios/BBA1.jpg","null","",NA,NA,NA,NA,""
"image-keyboard-response",256,316705,"0.0-3.81-2.81","r1catxd7wqkmehe",14,"185.csv","","null","resources/images/fishbone.png","null","",NA,NA,NA,NA,""
"image-keyboard-response",257,317354,"0.0-3.82-0.82","r1catxd7wqkmehe",14,"185.csv","","648.2999999523163","resources/trios/L1T1A3.jpg","37","restless",0.5,0.3,0.5,0.611181166720505,"false"
"image-keyboard-response",258,317760,"0.0-3.82-1.82","r1catxd7wqkmehe",14,"185.csv","","null","resources/maskTrios/L1BB.jpg","null","",NA,NA,NA,NA,""
"image-keyboard-response",259,318965,"0.0-3.82-2.82","r1catxd7wqkmehe",14,"185.csv","","null","resources/images/fishbone.png","null","",NA,NA,NA,NA,""
"image-keyboard-response",260,319491,"0.0-3.83-0.83","r1catxd7wqkmehe",14,"185.csv","","525.3000001907349","resources/trios/L1T4A3.jpg","39","restless",0.5,0.3,0.5,0.304367048757744,"true"
"image-keyboard-response",261,319894,"0.0-3.83-1.83","r1catxd7wqkmehe",14,"185.csv","","null","resources/maskTrios/BBA3.jpg","null","",NA,NA,NA,NA,""
"image-keyboard-response",262,321099,"0.0-3.83-2.83","r1catxd7wqkmehe",14,"185.csv","","null","resources/images/coin2.png","null","",NA,NA,NA,NA,""
"image-keyboard-response",263,321544,"0.0-3.84-0.84","r1catxd7wqkmehe",14,"185.csv","","444.2999999523163","resources/trios/L1T4A1.jpg","39","restless",0.5,0.3,0.5,0.425612716337185,"true"
"image-keyboard-response",264,321947,"0.0-3.84-1.84","r1catxd7wqkmehe",14,"185.csv","","null","resources/maskTrios/BBA1.jpg","null","",NA,NA,NA,NA,""
"image-keyboard-response",265,323153,"0.0-3.84-2.84","r1catxd7wqkmehe",14,"185.csv","","null","resources/images/coin2.png","null","",NA,NA,NA,NA,""
"image-keyboard-response",266,323424,"0.0-3.85-0.85","r1catxd7wqkmehe",14,"185.csv","","271","resources/trios/L1T1A1.jpg","39","restless",0.5,0.3,0.5,0.923310393341296,"false"
"image-keyboard-response",267,323830,"0.0-3.85-1.85","r1catxd7wqkmehe",14,"185.csv","","null","resources/maskTrios/BBA1.jpg","null","",NA,NA,NA,NA,""
"image-keyboard-response",268,325035,"0.0-3.85-2.85","r1catxd7wqkmehe",14,"185.csv","","null","resources/images/fishbone.png","null","",NA,NA,NA,NA,""
"image-keyboard-response",269,325537,"0.0-3.86-0.86","r1catxd7wqkmehe",14,"185.csv","","501.7999999523163","resources/trios/L1T4A1.jpg","37","restless",0.5,0.2,0.5,0.994103574311274,"false"
"image-keyboard-response",270,325942,"0.0-3.86-1.86","r1catxd7wqkmehe",14,"185.csv","","null","resources/maskTrios/L1BB.jpg","null","",NA,NA,NA,NA,""
"image-keyboard-response",271,327147,"0.0-3.86-2.86","r1catxd7wqkmehe",14,"185.csv","","null","resources/images/fishbone.png","null","",NA,NA,NA,NA,""
"image-keyboard-response",272,327739,"0.0-3.87-0.87","r1catxd7wqkmehe",14,"185.csv","","590.8999998569489","resources/trios/L1T1A1.jpg","39","restless",0.5,0.2,0.5,0.263804178282363,"true"
"image-keyboard-response",273,328144,"0.0-3.87-1.87","r1catxd7wqkmehe",14,"185.csv","","null","resources/maskTrios/BBA1.jpg","null","",NA,NA,NA,NA,""
"image-keyboard-response",274,329349,"0.0-3.87-2.87","r1catxd7wqkmehe",14,"185.csv","","null","resources/images/coin2.png","null","",NA,NA,NA,NA,""
"image-keyboard-response",275,329714,"0.0-3.88-0.88","r1catxd7wqkmehe",14,"185.csv","","364.09999990463257","resources/trios/L1T1A1.jpg","39","restless",0.5,0.2,0.5,0.662090719697172,"false"
"image-keyboard-response",276,330118,"0.0-3.88-1.88","r1catxd7wqkmehe",14,"185.csv","","null","resources/maskTrios/BBA1.jpg","null","",NA,NA,NA,NA,""
"image-keyboard-response",277,331323,"0.0-3.88-2.88","r1catxd7wqkmehe",14,"185.csv","","null","resources/images/fishbone.png","null","",NA,NA,NA,NA,""
"image-keyboard-response",278,331685,"0.0-3.89-0.89","r1catxd7wqkmehe",14,"185.csv","","360.7999999523163","resources/trios/L1T4A1.jpg","38","restless",0.5,0.2,0.4,0.447827565387034,"false"
"image-keyboard-response",279,332090,"0.0-3.89-1.89","r1catxd7wqkmehe",14,"185.csv","","null","resources/maskTrios/BT4B.jpg","null","",NA,NA,NA,NA,""
"image-keyboard-response",280,333295,"0.0-3.89-2.89","r1catxd7wqkmehe",14,"185.csv","","null","resources/images/fishbone.png","null","",NA,NA,NA,NA,""
"image-keyboard-response",281,333602,"0.0-3.90-0.90","r1catxd7wqkmehe",14,"185.csv","","306","resources/trios/L1T4A3.jpg","39","restless",0.5,0.2,0.4,0.916205357945181,"false"
"image-keyboard-response",282,334007,"0.0-3.90-1.90","r1catxd7wqkmehe",14,"185.csv","","null","resources/maskTrios/BBA3.jpg","null","",NA,NA,NA,NA,""
"image-keyboard-response",283,335212,"0.0-3.90-2.90","r1catxd7wqkmehe",14,"185.csv","","null","resources/images/fishbone.png","null","",NA,NA,NA,NA,""
"image-keyboard-response",284,335641,"0.0-3.91-0.91","r1catxd7wqkmehe",14,"185.csv","","428.2999999523163","resources/trios/L2T1A1.jpg","39","restless",0.6,0.2,0.4,0.534602953725417,"false"
"image-keyboard-response",285,336044,"0.0-3.91-1.91","r1catxd7wqkmehe",14,"185.csv","","null","resources/maskTrios/BBA1.jpg","null","",NA,NA,NA,NA,""
"image-keyboard-response",286,337249,"0.0-3.91-2.91","r1catxd7wqkmehe",14,"185.csv","","null","resources/images/fishbone.png","null","",NA,NA,NA,NA,""
"image-keyboard-response",287,337551,"0.0-3.92-0.92","r1catxd7wqkmehe",14,"185.csv","","301.59999990463257","resources/trios/L2T4A1.jpg","37","restless",0.6,0.2,0.4,0.334850245793456,"true"
"image-keyboard-response",288,337953,"0.0-3.92-1.92","r1catxd7wqkmehe",14,"185.csv","","null","resources/maskTrios/L2BB.jpg","null","",NA,NA,NA,NA,""
"image-keyboard-response",289,339158,"0.0-3.92-2.92","r1catxd7wqkmehe",14,"185.csv","","null","resources/images/coin2.png","null","",NA,NA,NA,NA,""
"image-keyboard-response",290,339469,"0.0-3.93-0.93","r1catxd7wqkmehe",14,"185.csv","","310.59999990463257","resources/trios/L1T4A1.jpg","39","restless",0.6,0.2,0.4,0.422657617708127,"false"
"image-keyboard-response",291,339872,"0.0-3.93-1.93","r1catxd7wqkmehe",14,"185.csv","","null","resources/maskTrios/BBA1.jpg","null","",NA,NA,NA,NA,""
"image-keyboard-response",292,341077,"0.0-3.93-2.93","r1catxd7wqkmehe",14,"185.csv","","null","resources/images/fishbone.png","null","",NA,NA,NA,NA,""
"image-keyboard-response",293,341534,"0.0-3.94-0.94","r1catxd7wqkmehe",14,"185.csv","","455.60000014305115","resources/trios/L2T4A1.jpg","37","restless",0.6,0.2,0.4,0.00264976588012522,"true"
"image-keyboard-response",294,341939,"0.0-3.94-1.94","r1catxd7wqkmehe",14,"185.csv","","null","resources/maskTrios/L2BB.jpg","null","",NA,NA,NA,NA,""
"image-keyboard-response",295,343143,"0.0-3.94-2.94","r1catxd7wqkmehe",14,"185.csv","","null","resources/images/coin2.png","null","",NA,NA,NA,NA,""
"image-keyboard-response",296,343570,"0.0-3.95-0.95","r1catxd7wqkmehe",14,"185.csv","","425.2999999523163","resources/trios/L2T4A1.jpg","39","restless",0.6,0.2,0.4,0.780501173054174,"false"
"image-keyboard-response",297,343974,"0.0-3.95-1.95","r1catxd7wqkmehe",14,"185.csv","","null","resources/maskTrios/BBA1.jpg","null","",NA,NA,NA,NA,""
"image-keyboard-response",298,345179,"0.0-3.95-2.95","r1catxd7wqkmehe",14,"185.csv","","null","resources/images/fishbone.png","null","",NA,NA,NA,NA,""
"image-keyboard-response",299,345495,"0.0-3.96-0.96","r1catxd7wqkmehe",14,"185.csv","","315.69999980926514","resources/trios/L2T4A1.jpg","37","restless",0.6,0.2,0.5,0.0709874002538284,"true"
"image-keyboard-response",300,345900,"0.0-3.96-1.96","r1catxd7wqkmehe",14,"185.csv","","null","resources/maskTrios/L2BB.jpg","null","",NA,NA,NA,NA,""
"image-keyboard-response",301,347105,"0.0-3.96-2.96","r1catxd7wqkmehe",14,"185.csv","","null","resources/images/coin2.png","null","",NA,NA,NA,NA,""
"image-keyboard-response",302,347461,"0.0-3.97-0.97","r1catxd7wqkmehe",14,"185.csv","","355.60000014305115","resources/trios/L2T4A3.jpg","37","restless",0.6,0.1,0.5,0.784527812025272,"false"
"image-keyboard-response",303,347866,"0.0-3.97-1.97","r1catxd7wqkmehe",14,"185.csv","","null","resources/maskTrios/L2BB.jpg","null","",NA,NA,NA,NA,""
"image-keyboard-response",304,349072,"0.0-3.97-2.97","r1catxd7wqkmehe",14,"185.csv","","null","resources/images/fishbone.png","null","",NA,NA,NA,NA,""
"image-keyboard-response",305,349339,"0.0-3.98-0.98","r1catxd7wqkmehe",14,"185.csv","","266.40000009536743","resources/trios/L2T4A1.jpg","39","restless",0.6,0.1,0.5,0.949671221729248,"false"
"image-keyboard-response",306,349745,"0.0-3.98-1.98","r1catxd7wqkmehe",14,"185.csv","","null","resources/maskTrios/BBA1.jpg","null","",NA,NA,NA,NA,""
"image-keyboard-response",307,350950,"0.0-3.98-2.98","r1catxd7wqkmehe",14,"185.csv","","null","resources/images/fishbone.png","null","",NA,NA,NA,NA,""
"image-keyboard-response",308,351241,"0.0-3.99-0.99","r1catxd7wqkmehe",14,"185.csv","","290","resources/trios/L1T4A1.jpg","39","restless",0.6,0.1,0.5,0.634511767144092,"false"
"image-keyboard-response",309,351644,"0.0-3.99-1.99","r1catxd7wqkmehe",14,"185.csv","","null","resources/maskTrios/BBA1.jpg","null","",NA,NA,NA,NA,""
"image-keyboard-response",310,352849,"0.0-3.99-2.99","r1catxd7wqkmehe",14,"185.csv","","null","resources/images/fishbone.png","null","",NA,NA,NA,NA,""
"image-keyboard-response",311,353147,"0.0-3.100-0.100","r1catxd7wqkmehe",14,"185.csv","","297.40000009536743","resources/trios/L1T1A1.jpg","38","restless",0.6,0.2,0.5,0.890122795370967,"false"
"image-keyboard-response",312,353553,"0.0-3.100-1.100","r1catxd7wqkmehe",14,"185.csv","","null","resources/maskTrios/BT1B.jpg","null","",NA,NA,NA,NA,""
"image-keyboard-response",313,354758,"0.0-3.100-2.100","r1catxd7wqkmehe",14,"185.csv","","null","resources/images/fishbone.png","null","",NA,NA,NA,NA,""
"image-keyboard-response",314,355209,"0.0-3.101-0.101","r1catxd7wqkmehe",14,"185.csv","","450.09999990463257","resources/trios/L2T1A3.jpg","39","restless",0.6,0.2,0.5,0.334957180239282,"true"
"image-keyboard-response",315,355612,"0.0-3.101-1.101","r1catxd7wqkmehe",14,"185.csv","","null","resources/maskTrios/BBA3.jpg","null","",NA,NA,NA,NA,""
"image-keyboard-response",316,356817,"0.0-3.101-2.101","r1catxd7wqkmehe",14,"185.csv","","null","resources/images/coin2.png","null","",NA,NA,NA,NA,""
"image-keyboard-response",317,357370,"0.0-3.102-0.102","r1catxd7wqkmehe",14,"185.csv","","552.3000001907349","resources/trios/L2T1A1.jpg","39","restless",0.6,0.2,0.5,0.430500728363554,"true"
"image-keyboard-response",318,357771,"0.0-3.102-1.102","r1catxd7wqkmehe",14,"185.csv","","null","resources/maskTrios/BBA1.jpg","null","",NA,NA,NA,NA,""
"image-keyboard-response",319,358977,"0.0-3.102-2.102","r1catxd7wqkmehe",14,"185.csv","","null","resources/images/coin2.png","null","",NA,NA,NA,NA,""
"image-keyboard-response",320,359238,"0.0-3.103-0.103","r1catxd7wqkmehe",14,"185.csv","","259.69999980926514","resources/trios/L1T1A3.jpg","39","restless",0.6,0.2,0.5,0.429878149383168,"true"
"image-keyboard-response",321,359643,"0.0-3.103-1.103","r1catxd7wqkmehe",14,"185.csv","","null","resources/maskTrios/BBA3.jpg","null","",NA,NA,NA,NA,""
"image-keyboard-response",322,360848,"0.0-3.103-2.103","r1catxd7wqkmehe",14,"185.csv","","null","resources/images/coin2.png","null","",NA,NA,NA,NA,""
"image-keyboard-response",323,361141,"0.0-3.104-0.104","r1catxd7wqkmehe",14,"185.csv","","292.39999985694885","resources/trios/L2T4A1.jpg","39","restless",0.6,0.2,0.5,0.0627307661790528,"true"
"image-keyboard-response",324,361543,"0.0-3.104-1.104","r1catxd7wqkmehe",14,"185.csv","","null","resources/maskTrios/BBA1.jpg","null","",NA,NA,NA,NA,""
"image-keyboard-response",325,362748,"0.0-3.104-2.104","r1catxd7wqkmehe",14,"185.csv","","null","resources/images/coin2.png","null","",NA,NA,NA,NA,""
"image-keyboard-response",326,363043,"0.0-3.105-0.105","r1catxd7wqkmehe",14,"185.csv","","294.90000009536743","resources/trios/L2T1A3.jpg","39","restless",0.6,0.2,0.4,0.301983655086064,"true"
"image-keyboard-response",327,363446,"0.0-3.105-1.105","r1catxd7wqkmehe",14,"185.csv","","null","resources/maskTrios/BBA3.jpg","null","",NA,NA,NA,NA,""
"image-keyboard-response",328,364652,"0.0-3.105-2.105","r1catxd7wqkmehe",14,"185.csv","","null","resources/images/coin2.png","null","",NA,NA,NA,NA,""
"image-keyboard-response",329,365077,"0.0-3.106-0.106","r1catxd7wqkmehe",14,"185.csv","","424.59999990463257","resources/trios/L1T4A3.jpg","39","restless",0.6,0.2,0.5,0.765148583633654,"false"
"image-keyboard-response",330,365483,"0.0-3.106-1.106","r1catxd7wqkmehe",14,"185.csv","","null","resources/maskTrios/BBA3.jpg","null","",NA,NA,NA,NA,""
"image-keyboard-response",331,366688,"0.0-3.106-2.106","r1catxd7wqkmehe",14,"185.csv","","null","resources/images/fishbone.png","null","",NA,NA,NA,NA,""
"image-keyboard-response",332,367108,"0.0-3.107-0.107","r1catxd7wqkmehe",14,"185.csv","","419.2000000476837","resources/trios/L2T1A1.jpg","38","restless",0.6,0.1,0.5,0.819916237067429,"false"
"image-keyboard-response",333,367510,"0.0-3.107-1.107","r1catxd7wqkmehe",14,"185.csv","","null","resources/maskTrios/BT1B.jpg","null","",NA,NA,NA,NA,""
"image-keyboard-response",334,368715,"0.0-3.107-2.107","r1catxd7wqkmehe",14,"185.csv","","null","resources/images/fishbone.png","null","",NA,NA,NA,NA,""
"image-keyboard-response",335,369030,"0.0-3.108-0.108","r1catxd7wqkmehe",14,"185.csv","","313.39999985694885","resources/trios/L1T4A1.jpg","39","restless",0.6,0.1,0.5,0.904142272582069,"false"
"image-keyboard-response",336,369431,"0.0-3.108-1.108","r1catxd7wqkmehe",14,"185.csv","","null","resources/maskTrios/BBA1.jpg","null","",NA,NA,NA,NA,""
"image-keyboard-response",337,370635,"0.0-3.108-2.108","r1catxd7wqkmehe",14,"185.csv","","null","resources/images/fishbone.png","null","",NA,NA,NA,NA,""
"image-keyboard-response",338,371001,"0.0-3.109-0.109","r1catxd7wqkmehe",14,"185.csv","","364.7000000476837","resources/trios/L1T4A3.jpg","38","restless",0.6,0.1,0.5,0.239108176053872,"false"
"image-keyboard-response",339,371404,"0.0-3.109-1.109","r1catxd7wqkmehe",14,"185.csv","","null","resources/maskTrios/BT4B.jpg","null","",NA,NA,NA,NA,""
"image-keyboard-response",340,372609,"0.0-3.109-2.109","r1catxd7wqkmehe",14,"185.csv","","null","resources/images/fishbone.png","null","",NA,NA,NA,NA,""
"image-keyboard-response",341,373005,"0.0-3.110-0.110","r1catxd7wqkmehe",14,"185.csv","","395.30000019073486","resources/trios/L2T4A3.jpg","37","restless",0.6,0.1,0.4,0.605080272758801,"false"
"image-keyboard-response",342,373409,"0.0-3.110-1.110","r1catxd7wqkmehe",14,"185.csv","","null","resources/maskTrios/L2BB.jpg","null","",NA,NA,NA,NA,""
"image-keyboard-response",343,374615,"0.0-3.110-2.110","r1catxd7wqkmehe",14,"185.csv","","null","resources/images/fishbone.png","null","",NA,NA,NA,NA,""
"image-keyboard-response",344,375119,"0.0-3.111-0.111","r1catxd7wqkmehe",14,"185.csv","","503.40000009536743","resources/trios/L2T1A3.jpg","39","restless",0.7,0.1,0.4,0.648111328762813,"false"
"image-keyboard-response",345,375521,"0.0-3.111-1.111","r1catxd7wqkmehe",14,"185.csv","","null","resources/maskTrios/BBA3.jpg","null","",NA,NA,NA,NA,""
"image-keyboard-response",346,376726,"0.0-3.111-2.111","r1catxd7wqkmehe",14,"185.csv","","null","resources/images/fishbone.png","null","",NA,NA,NA,NA,""
"image-keyboard-response",347,377037,"0.0-3.112-0.112","r1catxd7wqkmehe",14,"185.csv","","309.5","resources/trios/L1T4A3.jpg","37","restless",0.8,0.1,0.4,0.519965199838466,"true"
"image-keyboard-response",348,377441,"0.0-3.112-1.112","r1catxd7wqkmehe",14,"185.csv","","null","resources/maskTrios/L1BB.jpg","null","",NA,NA,NA,NA,""
"image-keyboard-response",349,378647,"0.0-3.112-2.112","r1catxd7wqkmehe",14,"185.csv","","null","resources/images/coin2.png","null","",NA,NA,NA,NA,""
"image-keyboard-response",350,378932,"0.0-3.113-0.113","r1catxd7wqkmehe",14,"185.csv","","284","resources/trios/L1T1A3.jpg","37","restless",0.8,0.1,0.5,0.173427571463881,"true"
"image-keyboard-response",351,379334,"0.0-3.113-1.113","r1catxd7wqkmehe",14,"185.csv","","null","resources/maskTrios/L1BB.jpg","null","",NA,NA,NA,NA,""
"image-keyboard-response",352,380539,"0.0-3.113-2.113","r1catxd7wqkmehe",14,"185.csv","","null","resources/images/coin2.png","null","",NA,NA,NA,NA,""
"image-keyboard-response",353,380798,"0.0-3.114-0.114","r1catxd7wqkmehe",14,"185.csv","","259.09999990463257","resources/trios/L2T1A3.jpg","37","restless",0.8,0.1,0.5,0.166722044025191,"true"
"image-keyboard-response",354,381201,"0.0-3.114-1.114","r1catxd7wqkmehe",14,"185.csv","","null","resources/maskTrios/L2BB.jpg","null","",NA,NA,NA,NA,""
"image-keyboard-response",355,382406,"0.0-3.114-2.114","r1catxd7wqkmehe",14,"185.csv","","null","resources/images/coin2.png","null","",NA,NA,NA,NA,""
"image-keyboard-response",356,382636,"0.0-3.115-0.115","r1catxd7wqkmehe",14,"185.csv","","228.40000009536743","resources/trios/L2T1A3.jpg","37","restless",0.8,0.1,0.5,0.755637910348661,"true"
"image-keyboard-response",357,383041,"0.0-3.115-1.115","r1catxd7wqkmehe",14,"185.csv","","null","resources/maskTrios/L2BB.jpg","null","",NA,NA,NA,NA,""
"image-keyboard-response",358,384246,"0.0-3.115-2.115","r1catxd7wqkmehe",14,"185.csv","","null","resources/images/coin2.png","null","",NA,NA,NA,NA,""
"image-keyboard-response",359,384513,"0.0-3.116-0.116","r1catxd7wqkmehe",14,"185.csv","","266.5","resources/trios/L1T1A3.jpg","37","restless",0.8,0.1,0.5,0.608433462341406,"true"
"image-keyboard-response",360,384918,"0.0-3.116-1.116","r1catxd7wqkmehe",14,"185.csv","","null","resources/maskTrios/L1BB.jpg","null","",NA,NA,NA,NA,""
"image-keyboard-response",361,386124,"0.0-3.116-2.116","r1catxd7wqkmehe",14,"185.csv","","null","resources/images/coin2.png","null","",NA,NA,NA,NA,""
"image-keyboard-response",362,386506,"0.0-3.117-0.117","r1catxd7wqkmehe",14,"185.csv","","381.7000000476837","resources/trios/L1T4A3.jpg","37","restless",0.8,0.1,0.5,0.837109597444606,"false"
"image-keyboard-response",363,386908,"0.0-3.117-1.117","r1catxd7wqkmehe",14,"185.csv","","null","resources/maskTrios/L1BB.jpg","null","",NA,NA,NA,NA,""
"image-keyboard-response",364,388113,"0.0-3.117-2.117","r1catxd7wqkmehe",14,"185.csv","","null","resources/images/fishbone.png","null","",NA,NA,NA,NA,""
"image-keyboard-response",365,388439,"0.0-3.118-0.118","r1catxd7wqkmehe",14,"185.csv","","325.2999999523163","resources/trios/L1T1A3.jpg","39","restless",0.9,0.1,0.5,0.827061576569472,"false"
"image-keyboard-response",366,388845,"0.0-3.118-1.118","r1catxd7wqkmehe",14,"185.csv","","null","resources/maskTrios/BBA3.jpg","null","",NA,NA,NA,NA,""
"image-keyboard-response",367,390049,"0.0-3.118-2.118","r1catxd7wqkmehe",14,"185.csv","","null","resources/images/fishbone.png","null","",NA,NA,NA,NA,""
"image-keyboard-response",368,390396,"0.0-3.119-0.119","r1catxd7wqkmehe",14,"185.csv","","346.10000014305115","resources/trios/L1T1A3.jpg","39","restless",0.9,0.1,0.5,0.775290649910689,"false"
"image-keyboard-response",369,390801,"0.0-3.119-1.119","r1catxd7wqkmehe",14,"185.csv","","null","resources/maskTrios/BBA3.jpg","null","",NA,NA,NA,NA,""
"image-keyboard-response",370,392006,"0.0-3.119-2.119","r1catxd7wqkmehe",14,"185.csv","","null","resources/images/fishbone.png","null","",NA,NA,NA,NA,""
"image-keyboard-response",371,392250,"0.0-3.120-0.120","r1catxd7wqkmehe",14,"185.csv","","242.79999995231628","resources/trios/L1T1A1.jpg","38","restless",0.9,0.1,0.5,0.100512350337856,"false"
"image-keyboard-response",372,392652,"0.0-3.120-1.120","r1catxd7wqkmehe",14,"185.csv","","null","resources/maskTrios/BT1B.jpg","null","",NA,NA,NA,NA,""
"image-keyboard-response",373,393857,"0.0-3.120-2.120","r1catxd7wqkmehe",14,"185.csv","","null","resources/images/fishbone.png","null","",NA,NA,NA,NA,""
"image-keyboard-response",374,394267,"0.0-3.121-0.121","r1catxd7wqkmehe",14,"185.csv","","408.90000009536743","resources/trios/L2T4A3.jpg","37","restless",0.9,0.1,0.5,0.556379678311992,"true"
"image-keyboard-response",375,394668,"0.0-3.121-1.121","r1catxd7wqkmehe",14,"185.csv","","null","resources/maskTrios/L2BB.jpg","null","",NA,NA,NA,NA,""
"image-keyboard-response",376,395869,"0.0-3.121-2.121","r1catxd7wqkmehe",14,"185.csv","","null","resources/images/coin2.png","null","",NA,NA,NA,NA,""
"image-keyboard-response",377,396138,"0.0-3.122-0.122","r1catxd7wqkmehe",14,"185.csv","","268.7000000476837","resources/trios/L2T4A1.jpg","37","restless",0.9,0.2,0.5,0.225130810373197,"true"
"image-keyboard-response",378,396541,"0.0-3.122-1.122","r1catxd7wqkmehe",14,"185.csv","","null","resources/maskTrios/L2BB.jpg","null","",NA,NA,NA,NA,""
"image-keyboard-response",379,397745,"0.0-3.122-2.122","r1catxd7wqkmehe",14,"185.csv","","null","resources/images/coin2.png","null","",NA,NA,NA,NA,""
"image-keyboard-response",380,397987,"0.0-3.123-0.123","r1catxd7wqkmehe",14,"185.csv","","241.60000014305115","resources/trios/L2T1A3.jpg","37","restless",0.9,0.2,0.5,0.343657457388511,"true"
"image-keyboard-response",381,398391,"0.0-3.123-1.123","r1catxd7wqkmehe",14,"185.csv","","null","resources/maskTrios/L2BB.jpg","null","",NA,NA,NA,NA,""
"image-keyboard-response",382,399596,"0.0-3.123-2.123","r1catxd7wqkmehe",14,"185.csv","","null","resources/images/coin2.png","null","",NA,NA,NA,NA,""
"image-keyboard-response",383,399858,"0.0-3.124-0.124","r1catxd7wqkmehe",14,"185.csv","","261.5","resources/trios/L1T4A3.jpg","37","restless",0.9,0.2,0.5,0.97475370319244,"false"
"image-keyboard-response",384,400264,"0.0-3.124-1.124","r1catxd7wqkmehe",14,"185.csv","","null","resources/maskTrios/L1BB.jpg","null","",NA,NA,NA,NA,""
"image-keyboard-response",385,401468,"0.0-3.124-2.124","r1catxd7wqkmehe",14,"185.csv","","null","resources/images/fishbone.png","null","",NA,NA,NA,NA,""
"image-keyboard-response",386,401799,"0.0-3.125-0.125","r1catxd7wqkmehe",14,"185.csv","","330.7000000476837","resources/trios/L2T1A3.jpg","39","restless",0.9,0.3,0.5,0.0878615582965354,"true"
"image-keyboard-response",387,402204,"0.0-3.125-1.125","r1catxd7wqkmehe",14,"185.csv","","null","resources/maskTrios/BBA3.jpg","null","",NA,NA,NA,NA,""
"image-keyboard-response",388,403410,"0.0-3.125-2.125","r1catxd7wqkmehe",14,"185.csv","","null","resources/images/coin2.png","null","",NA,NA,NA,NA,""
"image-keyboard-response",389,404433,"0.0-3.126-0.126","r1catxd7wqkmehe",14,"185.csv","","1022.5","resources/trios/L1T1A1.jpg","39","restless",0.9,0.3,0.6,0.0845187196746977,"true"
"image-keyboard-response",390,404838,"0.0-3.126-1.126","r1catxd7wqkmehe",14,"185.csv","","null","resources/maskTrios/BBA1.jpg","null","",NA,NA,NA,NA,""
"image-keyboard-response",391,406044,"0.0-3.126-2.126","r1catxd7wqkmehe",14,"185.csv","","null","resources/images/coin2.png","null","",NA,NA,NA,NA,""
"image-keyboard-response",392,406305,"0.0-3.127-0.127","r1catxd7wqkmehe",14,"185.csv","","260.7000000476837","resources/trios/L2T1A3.jpg","39","restless",0.9,0.3,0.6,0.60642341933643,"false"
"image-keyboard-response",393,406711,"0.0-3.127-1.127","r1catxd7wqkmehe",14,"185.csv","","null","resources/maskTrios/BBA3.jpg","null","",NA,NA,NA,NA,""
"image-keyboard-response",394,407916,"0.0-3.127-2.127","r1catxd7wqkmehe",14,"185.csv","","null","resources/images/fishbone.png","null","",NA,NA,NA,NA,""
"image-keyboard-response",395,408724,"0.0-3.128-0.128","r1catxd7wqkmehe",14,"185.csv","","806.8999998569489","resources/trios/L1T4A3.jpg","38","restless",0.9,0.3,0.6,0.746189500199656,"false"
"image-keyboard-response",396,409129,"0.0-3.128-1.128","r1catxd7wqkmehe",14,"185.csv","","null","resources/maskTrios/BT4B.jpg","null","",NA,NA,NA,NA,""
"image-keyboard-response",397,410332,"0.0-3.128-2.128","r1catxd7wqkmehe",14,"185.csv","","null","resources/images/fishbone.png","null","",NA,NA,NA,NA,""
"image-keyboard-response",398,410673,"0.0-3.129-0.129","r1catxd7wqkmehe",14,"185.csv","","341","resources/trios/L2T1A1.jpg","39","restless",0.9,0.3,0.7,0.658538692966546,"true"
"image-keyboard-response",399,411074,"0.0-3.129-1.129","r1catxd7wqkmehe",14,"185.csv","","null","resources/maskTrios/BBA1.jpg","null","",NA,NA,NA,NA,""
"image-keyboard-response",400,412279,"0.0-3.129-2.129","r1catxd7wqkmehe",14,"185.csv","","null","resources/images/coin2.png","null","",NA,NA,NA,NA,""
"image-keyboard-response",401,412601,"0.0-3.130-0.130","r1catxd7wqkmehe",14,"185.csv","","321.2999999523163","resources/trios/L1T4A1.jpg","39","restless",0.9,0.3,0.7,0.691571136055876,"true"
"image-keyboard-response",402,413006,"0.0-3.130-1.130","r1catxd7wqkmehe",14,"185.csv","","null","resources/maskTrios/BBA1.jpg","null","",NA,NA,NA,NA,""
"image-keyboard-response",403,414210,"0.0-3.130-2.130","r1catxd7wqkmehe",14,"185.csv","","null","resources/images/coin2.png","null","",NA,NA,NA,NA,""
"image-keyboard-response",404,414529,"0.0-3.131-0.131","r1catxd7wqkmehe",14,"185.csv","","319.09999990463257","resources/trios/L1T4A1.jpg","39","restless",0.9,0.3,0.7,0.260502196029726,"true"
"image-keyboard-response",405,414935,"0.0-3.131-1.131","r1catxd7wqkmehe",14,"185.csv","","null","resources/maskTrios/BBA1.jpg","null","",NA,NA,NA,NA,""
"image-keyboard-response",406,416140,"0.0-3.131-2.131","r1catxd7wqkmehe",14,"185.csv","","null","resources/images/coin2.png","null","",NA,NA,NA,NA,""
"image-keyboard-response",407,416571,"0.0-3.132-0.132","r1catxd7wqkmehe",14,"185.csv","","429.89999985694885","resources/trios/L2T4A3.jpg","39","restless",0.9,0.3,0.7,0.860038399936898,"false"
"image-keyboard-response",408,416972,"0.0-3.132-1.132","r1catxd7wqkmehe",14,"185.csv","","null","resources/maskTrios/BBA3.jpg","null","",NA,NA,NA,NA,""
"image-keyboard-response",409,418178,"0.0-3.132-2.132","r1catxd7wqkmehe",14,"185.csv","","null","resources/images/fishbone.png","null","",NA,NA,NA,NA,""
"image-keyboard-response",410,418958,"0.0-3.133-0.133","r1catxd7wqkmehe",14,"185.csv","","778.9000000953674","resources/trios/L1T4A3.jpg","37","restless",0.9,0.4,0.7,0.296805803591303,"true"
"image-keyboard-response",411,419359,"0.0-3.133-1.133","r1catxd7wqkmehe",14,"185.csv","","null","resources/maskTrios/L1BB.jpg","null","",NA,NA,NA,NA,""
"image-keyboard-response",412,420563,"0.0-3.133-2.133","r1catxd7wqkmehe",14,"185.csv","","null","resources/images/coin2.png","null","",NA,NA,NA,NA,""
"image-keyboard-response",413,421292,"0.0-3.134-0.134","r1catxd7wqkmehe",14,"185.csv","","727.5999999046326","resources/trios/L2T1A1.jpg","37","restless",0.9,0.5,0.7,0.699134482716614,"true"
"image-keyboard-response",414,421696,"0.0-3.134-1.134","r1catxd7wqkmehe",14,"185.csv","","null","resources/maskTrios/L2BB.jpg","null","",NA,NA,NA,NA,""
"image-keyboard-response",415,422902,"0.0-3.134-2.134","r1catxd7wqkmehe",14,"185.csv","","null","resources/images/coin2.png","null","",NA,NA,NA,NA,""
"image-keyboard-response",416,423498,"0.0-3.135-0.135","r1catxd7wqkmehe",14,"185.csv","","594.6999998092651","resources/trios/L1T4A3.jpg","39","restless",0.8,0.5,0.7,0.830039908310875,"false"
"image-keyboard-response",417,423900,"0.0-3.135-1.135","r1catxd7wqkmehe",14,"185.csv","","null","resources/maskTrios/BBA3.jpg","null","",NA,NA,NA,NA,""
"image-keyboard-response",418,425105,"0.0-3.135-2.135","r1catxd7wqkmehe",14,"185.csv","","null","resources/images/fishbone.png","null","",NA,NA,NA,NA,""
"image-keyboard-response",419,425428,"0.0-3.136-0.136","r1catxd7wqkmehe",14,"185.csv","","322.39999985694885","resources/trios/L1T1A3.jpg","37","restless",0.8,0.5,0.7,0.0786997802731084,"true"
"image-keyboard-response",420,425831,"0.0-3.136-1.136","r1catxd7wqkmehe",14,"185.csv","","null","resources/maskTrios/L1BB.jpg","null","",NA,NA,NA,NA,""
"image-keyboard-response",421,427036,"0.0-3.136-2.136","r1catxd7wqkmehe",14,"185.csv","","null","resources/images/coin2.png","null","",NA,NA,NA,NA,""
"image-keyboard-response",422,427282,"0.0-3.137-0.137","r1catxd7wqkmehe",14,"185.csv","","245.10000014305115","resources/trios/L2T4A3.jpg","37","restless",0.8,0.5,0.7,0.108406366998866,"true"
"image-keyboard-response",423,427687,"0.0-3.137-1.137","r1catxd7wqkmehe",14,"185.csv","","null","resources/maskTrios/L2BB.jpg","null","",NA,NA,NA,NA,""
"image-keyboard-response",424,428892,"0.0-3.137-2.137","r1catxd7wqkmehe",14,"185.csv","","null","resources/images/coin2.png","null","",NA,NA,NA,NA,""
"image-keyboard-response",425,429137,"0.0-3.138-0.138","r1catxd7wqkmehe",14,"185.csv","","243.40000009536743","resources/trios/L2T4A3.jpg","37","restless",0.8,0.5,0.7,0.114638755424245,"true"
"image-keyboard-response",426,429542,"0.0-3.138-1.138","r1catxd7wqkmehe",14,"185.csv","","null","resources/maskTrios/L2BB.jpg","null","",NA,NA,NA,NA,""
"image-keyboard-response",427,430747,"0.0-3.138-2.138","r1catxd7wqkmehe",14,"185.csv","","null","resources/images/coin2.png","null","",NA,NA,NA,NA,""
"image-keyboard-response",428,431072,"0.0-3.139-0.139","r1catxd7wqkmehe",14,"185.csv","","324","resources/trios/L2T1A1.jpg","37","restless",0.8,0.5,0.7,0.876935841284137,"false"
"image-keyboard-response",429,431473,"0.0-3.139-1.139","r1catxd7wqkmehe",14,"185.csv","","null","resources/maskTrios/L2BB.jpg","null","",NA,NA,NA,NA,""
"image-keyboard-response",430,432679,"0.0-3.139-2.139","r1catxd7wqkmehe",14,"185.csv","","null","resources/images/fishbone.png","null","",NA,NA,NA,NA,""
"image-keyboard-response",431,433192,"0.0-3.140-0.140","r1catxd7wqkmehe",14,"185.csv","","511.59999990463257","resources/trios/L1T4A3.jpg","39","restless",0.8,0.6,0.7,0.877539402479675,"false"
"image-keyboard-response",432,433596,"0.0-3.140-1.140","r1catxd7wqkmehe",14,"185.csv","","null","resources/maskTrios/BBA3.jpg","null","",NA,NA,NA,NA,""
"image-keyboard-response",433,434802,"0.0-3.140-2.140","r1catxd7wqkmehe",14,"185.csv","","null","resources/images/fishbone.png","null","",NA,NA,NA,NA,""
"image-keyboard-response",434,435306,"0.0-3.141-0.141","r1catxd7wqkmehe",14,"185.csv","","503.2999999523163","resources/trios/L1T1A1.jpg","38","restless",0.8,0.6,0.7,0.50036693728574,"true"
"image-keyboard-response",435,435708,"0.0-3.141-1.141","r1catxd7wqkmehe",14,"185.csv","","null","resources/maskTrios/BT1B.jpg","null","",NA,NA,NA,NA,""
"image-keyboard-response",436,436913,"0.0-3.141-2.141","r1catxd7wqkmehe",14,"185.csv","","null","resources/images/coin2.png","null","",NA,NA,NA,NA,""
"image-keyboard-response",437,437421,"0.0-3.142-0.142","r1catxd7wqkmehe",14,"185.csv","","506.90000009536743","resources/trios/L2T1A1.jpg","38","restless",0.9,0.6,0.7,0.00368183535755473,"true"
"image-keyboard-response",438,437825,"0.0-3.142-1.142","r1catxd7wqkmehe",14,"185.csv","","null","resources/maskTrios/BT1B.jpg","null","",NA,NA,NA,NA,""
"image-keyboard-response",439,439031,"0.0-3.142-2.142","r1catxd7wqkmehe",14,"185.csv","","null","resources/images/coin2.png","null","",NA,NA,NA,NA,""
"image-keyboard-response",440,439372,"0.0-3.143-0.143","r1catxd7wqkmehe",14,"185.csv","","340","resources/trios/L2T1A3.jpg","38","restless",0.9,0.6,0.7,0.444327431859152,"true"
"image-keyboard-response",441,439776,"0.0-3.143-1.143","r1catxd7wqkmehe",14,"185.csv","","null","resources/maskTrios/BT1B.jpg","null","",NA,NA,NA,NA,""
"image-keyboard-response",442,440978,"0.0-3.143-2.143","r1catxd7wqkmehe",14,"185.csv","","null","resources/images/coin2.png","null","",NA,NA,NA,NA,""
"image-keyboard-response",443,441314,"0.0-3.144-0.144","r1catxd7wqkmehe",14,"185.csv","","336.10000014305115","resources/trios/L1T1A1.jpg","38","restless",0.9,0.6,0.7,0.863920669782374,"false"
"image-keyboard-response",444,441719,"0.0-3.144-1.144","r1catxd7wqkmehe",14,"185.csv","","null","resources/maskTrios/BT1B.jpg","null","",NA,NA,NA,NA,""
"image-keyboard-response",445,442925,"0.0-3.144-2.144","r1catxd7wqkmehe",14,"185.csv","","null","resources/images/fishbone.png","null","",NA,NA,NA,NA,""
"image-keyboard-response",446,443619,"0.0-3.145-0.145","r1catxd7wqkmehe",14,"185.csv","","693.2999999523163","resources/trios/L1T1A3.jpg","39","restless",0.9,0.6,0.7,0.143372145020833,"true"
"image-keyboard-response",447,444024,"0.0-3.145-1.145","r1catxd7wqkmehe",14,"185.csv","","null","resources/maskTrios/BBA3.jpg","null","",NA,NA,NA,NA,""
"image-keyboard-response",448,445228,"0.0-3.145-2.145","r1catxd7wqkmehe",14,"185.csv","","null","resources/images/coin2.png","null","",NA,NA,NA,NA,""
"image-keyboard-response",449,445533,"0.0-3.146-0.146","r1catxd7wqkmehe",14,"185.csv","","303.5","resources/trios/L1T1A3.jpg","39","restless",0.8,0.7,0.7,0.124897415169729,"true"
"image-keyboard-response",450,445937,"0.0-3.146-1.146","r1catxd7wqkmehe",14,"185.csv","","null","resources/maskTrios/BBA3.jpg","null","",NA,NA,NA,NA,""
"image-keyboard-response",451,447142,"0.0-3.146-2.146","r1catxd7wqkmehe",14,"185.csv","","null","resources/images/coin2.png","null","",NA,NA,NA,NA,""
"image-keyboard-response",452,447402,"0.0-3.147-0.147","r1catxd7wqkmehe",14,"185.csv","","258.10000014305115","resources/trios/L1T1A3.jpg","39","restless",0.8,0.7,0.7,0.442727118300152,"true"
"image-keyboard-response",453,447805,"0.0-3.147-1.147","r1catxd7wqkmehe",14,"185.csv","","null","resources/maskTrios/BBA3.jpg","null","",NA,NA,NA,NA,""
"image-keyboard-response",454,449010,"0.0-3.147-2.147","r1catxd7wqkmehe",14,"185.csv","","null","resources/images/coin2.png","null","",NA,NA,NA,NA,""
"image-keyboard-response",455,449298,"0.0-3.148-0.148","r1catxd7wqkmehe",14,"185.csv","","287.40000009536743","resources/trios/L1T4A1.jpg","39","restless",0.8,0.7,0.6,0.732919392844394,"false"
"image-keyboard-response",456,449703,"0.0-3.148-1.148","r1catxd7wqkmehe",14,"185.csv","","null","resources/maskTrios/BBA1.jpg","null","",NA,NA,NA,NA,""
"image-keyboard-response",457,450909,"0.0-3.148-2.148","r1catxd7wqkmehe",14,"185.csv","","null","resources/images/fishbone.png","null","",NA,NA,NA,NA,""
"image-keyboard-response",458,451250,"0.0-3.149-0.149","r1catxd7wqkmehe",14,"185.csv","","340.39999985694885","resources/trios/L2T1A1.jpg","37","restless",0.8,0.7,0.6,0.392180707350806,"true"
"image-keyboard-response",459,451655,"0.0-3.149-1.149","r1catxd7wqkmehe",14,"185.csv","","null","resources/maskTrios/L2BB.jpg","null","",NA,NA,NA,NA,""
"image-keyboard-response",460,452861,"0.0-3.149-2.149","r1catxd7wqkmehe",14,"185.csv","","null","resources/images/coin2.png","null","",NA,NA,NA,NA,""
"image-keyboard-response",461,453121,"0.0-3.150-0.150","r1catxd7wqkmehe",14,"185.csv","","260.09999990463257","resources/trios/L2T1A1.jpg","37","restless",0.8,0.7,0.5,0.0199521231455015,"true"
"image-keyboard-response",462,453526,"0.0-3.150-1.150","r1catxd7wqkmehe",14,"185.csv","","null","resources/maskTrios/L2BB.jpg","null","",NA,NA,NA,NA,""
"image-keyboard-response",463,454732,"0.0-3.150-2.150","r1catxd7wqkmehe",14,"185.csv","","null","resources/images/coin2.png","null","",NA,NA,NA,NA,""
"image-keyboard-response",464,455000,"0.0-3.151-0.151","r1catxd7wqkmehe",14,"185.csv","","268.2000000476837","resources/trios/L2T1A1.jpg","37","restless",0.8,0.7,0.5,0.590250658258229,"true"
"image-keyboard-response",465,455405,"0.0-3.151-1.151","r1catxd7wqkmehe",14,"185.csv","","null","resources/maskTrios/L2BB.jpg","null","",NA,NA,NA,NA,""
"image-keyboard-response",466,456610,"0.0-3.151-2.151","r1catxd7wqkmehe",14,"185.csv","","null","resources/images/coin2.png","null","",NA,NA,NA,NA,""
"image-keyboard-response",467,456989,"0.0-3.152-0.152","r1catxd7wqkmehe",14,"185.csv","","377.60000014305115","resources/trios/L2T1A1.jpg","38","restless",0.8,0.7,0.5,0.142946875539977,"true"
"image-keyboard-response",468,457393,"0.0-3.152-1.152","r1catxd7wqkmehe",14,"185.csv","","null","resources/maskTrios/BT1B.jpg","null","",NA,NA,NA,NA,""
"image-keyboard-response",469,458598,"0.0-3.152-2.152","r1catxd7wqkmehe",14,"185.csv","","null","resources/images/coin2.png","null","",NA,NA,NA,NA,""
"image-keyboard-response",470,458871,"0.0-3.153-0.153","r1catxd7wqkmehe",14,"185.csv","","272.2000000476837","resources/trios/L1T1A1.jpg","38","restless",0.8,0.7,0.5,0.492398649087399,"true"
"image-keyboard-response",471,459277,"0.0-3.153-1.153","r1catxd7wqkmehe",14,"185.csv","","null","resources/maskTrios/BT1B.jpg","null","",NA,NA,NA,NA,""
"image-keyboard-response",472,460482,"0.0-3.153-2.153","r1catxd7wqkmehe",14,"185.csv","","null","resources/images/coin2.png","null","",NA,NA,NA,NA,""
"image-keyboard-response",473,460761,"0.0-3.154-0.154","r1catxd7wqkmehe",14,"185.csv","","278.7000000476837","resources/trios/L1T1A3.jpg","38","restless",0.8,0.7,0.5,0.554903833705553,"true"
"image-keyboard-response",474,461165,"0.0-3.154-1.154","r1catxd7wqkmehe",14,"185.csv","","null","resources/maskTrios/BT1B.jpg","null","",NA,NA,NA,NA,""
"image-keyboard-response",475,462370,"0.0-3.154-2.154","r1catxd7wqkmehe",14,"185.csv","","null","resources/images/coin2.png","null","",NA,NA,NA,NA,""
"image-keyboard-response",476,462826,"0.0-3.155-0.155","r1catxd7wqkmehe",14,"185.csv","","455","resources/trios/L2T1A3.jpg","39","restless",0.7,0.7,0.5,0.80473453073449,"false"
"image-keyboard-response",477,463228,"0.0-3.155-1.155","r1catxd7wqkmehe",14,"185.csv","","null","resources/maskTrios/BBA3.jpg","null","",NA,NA,NA,NA,""
"image-keyboard-response",478,464434,"0.0-3.155-2.155","r1catxd7wqkmehe",14,"185.csv","","null","resources/images/fishbone.png","null","",NA,NA,NA,NA,""
"image-keyboard-response",479,465701,"0.0-3.156-0.156","r1catxd7wqkmehe",14,"185.csv","","1266.0999999046326","resources/trios/L1T4A1.jpg","37","restless",0.6,0.7,0.5,0.8136706568109,"false"
"image-keyboard-response",480,466104,"0.0-3.156-1.156","r1catxd7wqkmehe",14,"185.csv","","null","resources/maskTrios/L1BB.jpg","null","",NA,NA,NA,NA,""
"image-keyboard-response",481,467309,"0.0-3.156-2.156","r1catxd7wqkmehe",14,"185.csv","","null","resources/images/fishbone.png","null","",NA,NA,NA,NA,""
"image-keyboard-response",482,467680,"0.0-3.157-0.157","r1catxd7wqkmehe",14,"185.csv","","369.90000009536743","resources/trios/L1T1A3.jpg","39","restless",0.6,0.7,0.5,0.196061574499451,"true"
"image-keyboard-response",483,468082,"0.0-3.157-1.157","r1catxd7wqkmehe",14,"185.csv","","null","resources/maskTrios/BBA3.jpg","null","",NA,NA,NA,NA,""
"image-keyboard-response",484,469287,"0.0-3.157-2.157","r1catxd7wqkmehe",14,"185.csv","","null","resources/images/coin2.png","null","",NA,NA,NA,NA,""
"image-keyboard-response",485,469642,"0.0-3.158-0.158","r1catxd7wqkmehe",14,"185.csv","","353.60000014305115","resources/trios/L1T4A3.jpg","39","restless",0.6,0.7,0.5,0.673972798452291,"false"
"image-keyboard-response",486,470044,"0.0-3.158-1.158","r1catxd7wqkmehe",14,"185.csv","","null","resources/maskTrios/BBA3.jpg","null","",NA,NA,NA,NA,""
"image-keyboard-response",487,471250,"0.0-3.158-2.158","r1catxd7wqkmehe",14,"185.csv","","null","resources/images/fishbone.png","null","",NA,NA,NA,NA,""
"image-keyboard-response",488,471617,"0.0-3.159-0.159","r1catxd7wqkmehe",14,"185.csv","","365.90000009536743","resources/trios/L1T1A3.jpg","38","restless",0.6,0.7,0.5,0.722318323061285,"false"
"image-keyboard-response",489,472018,"0.0-3.159-1.159","r1catxd7wqkmehe",14,"185.csv","","null","resources/maskTrios/BT1B.jpg","null","",NA,NA,NA,NA,""
"image-keyboard-response",490,473223,"0.0-3.159-2.159","r1catxd7wqkmehe",14,"185.csv","","null","resources/images/fishbone.png","null","",NA,NA,NA,NA,""
"image-keyboard-response",491,473788,"0.0-3.160-0.160","r1catxd7wqkmehe",14,"185.csv","","563.5","resources/trios/L1T1A3.jpg","37","restless",0.6,0.7,0.5,0.473623101073587,"true"
"image-keyboard-response",492,474193,"0.0-3.160-1.160","r1catxd7wqkmehe",14,"185.csv","","null","resources/maskTrios/L1BB.jpg","null","",NA,NA,NA,NA,""
"image-keyboard-response",493,475399,"0.0-3.160-2.160","r1catxd7wqkmehe",14,"185.csv","","null","resources/images/coin2.png","null","",NA,NA,NA,NA,""
"image-keyboard-response",494,475689,"0.0-3.161-0.161","r1catxd7wqkmehe",14,"185.csv","","289.59999990463257","resources/trios/L1T4A3.jpg","38","restless",0.6,0.7,0.5,0.853687012664547,"false"
"image-keyboard-response",495,476093,"0.0-3.161-1.161","r1catxd7wqkmehe",14,"185.csv","","null","resources/maskTrios/BT4B.jpg","null","",NA,NA,NA,NA,""
"image-keyboard-response",496,477298,"0.0-3.161-2.161","r1catxd7wqkmehe",14,"185.csv","","null","resources/images/fishbone.png","null","",NA,NA,NA,NA,""
"image-keyboard-response",497,477583,"0.0-3.162-0.162","r1catxd7wqkmehe",14,"185.csv","","283.60000014305115","resources/trios/L2T4A3.jpg","37","restless",0.6,0.7,0.5,0.0152695484195413,"true"
"image-keyboard-response",498,477986,"0.0-3.162-1.162","r1catxd7wqkmehe",14,"185.csv","","null","resources/maskTrios/L2BB.jpg","null","",NA,NA,NA,NA,""
"image-keyboard-response",499,479191,"0.0-3.162-2.162","r1catxd7wqkmehe",14,"185.csv","","null","resources/images/coin2.png","null","",NA,NA,NA,NA,""
"image-keyboard-response",500,479460,"0.0-3.163-0.163","r1catxd7wqkmehe",14,"185.csv","","268.60000014305115","resources/trios/L2T4A1.jpg","37","restless",0.6,0.7,0.5,0.0766130250060062,"true"
"image-keyboard-response",501,479864,"0.0-3.163-1.163","r1catxd7wqkmehe",14,"185.csv","","null","resources/maskTrios/L2BB.jpg","null","",NA,NA,NA,NA,""
"image-keyboard-response",502,481068,"0.0-3.163-2.163","r1catxd7wqkmehe",14,"185.csv","","null","resources/images/coin2.png","null","",NA,NA,NA,NA,""
"image-keyboard-response",503,481353,"0.0-3.164-0.164","r1catxd7wqkmehe",14,"185.csv","","283.30000019073486","resources/trios/L2T4A3.jpg","37","restless",0.6,0.7,0.5,0.154924239915462,"true"
"image-keyboard-response",504,481754,"0.0-3.164-1.164","r1catxd7wqkmehe",14,"185.csv","","null","resources/maskTrios/L2BB.jpg","null","",NA,NA,NA,NA,""
"image-keyboard-response",505,482957,"0.0-3.164-2.164","r1catxd7wqkmehe",14,"185.csv","","null","resources/images/coin2.png","null","",NA,NA,NA,NA,""
"image-keyboard-response",506,483388,"0.0-3.165-0.165","r1catxd7wqkmehe",14,"185.csv","","430.7000000476837","resources/trios/L2T1A3.jpg","38","restless",0.6,0.7,0.5,0.443626947760765,"true"
"image-keyboard-response",507,483793,"0.0-3.165-1.165","r1catxd7wqkmehe",14,"185.csv","","null","resources/maskTrios/BT1B.jpg","null","",NA,NA,NA,NA,""
"image-keyboard-response",508,484997,"0.0-3.165-2.165","r1catxd7wqkmehe",14,"185.csv","","null","resources/images/coin2.png","null","",NA,NA,NA,NA,""
"image-keyboard-response",509,485268,"0.0-3.166-0.166","r1catxd7wqkmehe",14,"185.csv","","270.7999999523163","resources/trios/L1T1A1.jpg","38","restless",0.6,0.7,0.5,0.100409156410227,"true"
"image-keyboard-response",510,485671,"0.0-3.166-1.166","r1catxd7wqkmehe",14,"185.csv","","null","resources/maskTrios/BT1B.jpg","null","",NA,NA,NA,NA,""
"image-keyboard-response",511,486877,"0.0-3.166-2.166","r1catxd7wqkmehe",14,"185.csv","","null","resources/images/coin2.png","null","",NA,NA,NA,NA,""
"image-keyboard-response",512,487146,"0.0-3.167-0.167","r1catxd7wqkmehe",14,"185.csv","","268.2999999523163","resources/trios/L2T4A1.jpg","38","restless",0.5,0.7,0.4,0.0746271243660455,"true"
"image-keyboard-response",513,487549,"0.0-3.167-1.167","r1catxd7wqkmehe",14,"185.csv","","null","resources/maskTrios/BT4B.jpg","null","",NA,NA,NA,NA,""
"image-keyboard-response",514,488754,"0.0-3.167-2.167","r1catxd7wqkmehe",14,"185.csv","","null","resources/images/coin2.png","null","",NA,NA,NA,NA,""
"image-keyboard-response",515,489200,"0.0-3.168-0.168","r1catxd7wqkmehe",14,"185.csv","","444.5","resources/trios/L1T4A3.jpg","39","restless",0.5,0.7,0.4,0.0323216951543073,"true"
"image-keyboard-response",516,489602,"0.0-3.168-1.168","r1catxd7wqkmehe",14,"185.csv","","null","resources/maskTrios/BBA3.jpg","null","",NA,NA,NA,NA,""
"image-keyboard-response",517,490807,"0.0-3.168-2.168","r1catxd7wqkmehe",14,"185.csv","","null","resources/images/coin2.png","null","",NA,NA,NA,NA,""
"image-keyboard-response",518,491075,"0.0-3.169-0.169","r1catxd7wqkmehe",14,"185.csv","","267.69999980926514","resources/trios/L1T1A3.jpg","39","restless",0.5,0.7,0.5,0.0210930519063239,"true"
"image-keyboard-response",519,491480,"0.0-3.169-1.169","r1catxd7wqkmehe",14,"185.csv","","null","resources/maskTrios/BBA3.jpg","null","",NA,NA,NA,NA,""
"image-keyboard-response",520,492685,"0.0-3.169-2.169","r1catxd7wqkmehe",14,"185.csv","","null","resources/images/coin2.png","null","",NA,NA,NA,NA,""
"image-keyboard-response",521,492954,"0.0-3.170-0.170","r1catxd7wqkmehe",14,"185.csv","","268.5","resources/trios/L2T4A1.jpg","39","restless",0.4,0.7,0.5,0.659227968509131,"false"
"image-keyboard-response",522,493357,"0.0-3.170-1.170","r1catxd7wqkmehe",14,"185.csv","","null","resources/maskTrios/BBA1.jpg","null","",NA,NA,NA,NA,""
"image-keyboard-response",523,494562,"0.0-3.170-2.170","r1catxd7wqkmehe",14,"185.csv","","null","resources/images/fishbone.png","null","",NA,NA,NA,NA,""
"image-keyboard-response",524,494854,"0.0-3.171-0.171","r1catxd7wqkmehe",14,"185.csv","","290.7999999523163","resources/trios/L2T1A1.jpg","37","restless",0.4,0.7,0.5,0.254401446247084,"true"
"image-keyboard-response",525,495256,"0.0-3.171-1.171","r1catxd7wqkmehe",14,"185.csv","","null","resources/maskTrios/L2BB.jpg","null","",NA,NA,NA,NA,""
"image-keyboard-response",526,496461,"0.0-3.171-2.171","r1catxd7wqkmehe",14,"185.csv","","null","resources/images/coin2.png","null","",NA,NA,NA,NA,""
"image-keyboard-response",527,496712,"0.0-3.172-0.172","r1catxd7wqkmehe",14,"185.csv","","250.10000014305115","resources/trios/L2T4A1.jpg","37","restless",0.3,0.7,0.5,0.505574401709112,"false"
"image-keyboard-response",528,497117,"0.0-3.172-1.172","r1catxd7wqkmehe",14,"185.csv","","null","resources/maskTrios/L2BB.jpg","null","",NA,NA,NA,NA,""
"image-keyboard-response",529,498322,"0.0-3.172-2.172","r1catxd7wqkmehe",14,"185.csv","","null","resources/images/fishbone.png","null","",NA,NA,NA,NA,""
"image-keyboard-response",530,499077,"0.0-3.173-0.173","r1catxd7wqkmehe",14,"185.csv","","754.2000000476837","resources/trios/L2T4A1.jpg","37","restless",0.3,0.7,0.5,0.103058843944295,"true"
"image-keyboard-response",531,499479,"0.0-3.173-1.173","r1catxd7wqkmehe",14,"185.csv","","null","resources/maskTrios/L2BB.jpg","null","",NA,NA,NA,NA,""
"image-keyboard-response",532,500685,"0.0-3.173-2.173","r1catxd7wqkmehe",14,"185.csv","","null","resources/images/coin2.png","null","",NA,NA,NA,NA,""
"image-keyboard-response",533,500981,"0.0-3.174-0.174","r1catxd7wqkmehe",14,"185.csv","","295.90000009536743","resources/trios/L1T1A3.jpg","37","restless",0.3,0.7,0.5,0.340234884368409,"false"
"image-keyboard-response",534,501383,"0.0-3.174-1.174","r1catxd7wqkmehe",14,"185.csv","","null","resources/maskTrios/L1BB.jpg","null","",NA,NA,NA,NA,""
"image-keyboard-response",535,502589,"0.0-3.174-2.174","r1catxd7wqkmehe",14,"185.csv","","null","resources/images/fishbone.png","null","",NA,NA,NA,NA,""
"image-keyboard-response",536,502874,"0.0-3.175-0.175","r1catxd7wqkmehe",14,"185.csv","","284.7000000476837","resources/trios/L1T1A3.jpg","38","restless",0.3,0.7,0.4,0.880412091357536,"false"
"image-keyboard-response",537,503277,"0.0-3.175-1.175","r1catxd7wqkmehe",14,"185.csv","","null","resources/maskTrios/BT1B.jpg","null","",NA,NA,NA,NA,""
"image-keyboard-response",538,504481,"0.0-3.175-2.175","r1catxd7wqkmehe",14,"185.csv","","null","resources/images/fishbone.png","null","",NA,NA,NA,NA,""
"image-keyboard-response",539,504748,"0.0-3.176-0.176","r1catxd7wqkmehe",14,"185.csv","","265.7000000476837","resources/trios/L1T1A1.jpg","37","restless",0.3,0.7,0.4,0.285339446909214,"true"
"image-keyboard-response",540,505154,"0.0-3.176-1.176","r1catxd7wqkmehe",14,"185.csv","","null","resources/maskTrios/L1BB.jpg","null","",NA,NA,NA,NA,""
"image-keyboard-response",541,506355,"0.0-3.176-2.176","r1catxd7wqkmehe",14,"185.csv","","null","resources/images/coin2.png","null","",NA,NA,NA,NA,""
"image-keyboard-response",542,507275,"0.0-3.177-0.177","r1catxd7wqkmehe",14,"185.csv","","919.9000000953674","resources/trios/L1T4A3.jpg","37","restless",0.3,0.7,0.4,0.647954339756398,"false"
"image-keyboard-response",543,507678,"0.0-3.177-1.177","r1catxd7wqkmehe",14,"185.csv","","null","resources/maskTrios/L1BB.jpg","null","",NA,NA,NA,NA,""
"image-keyboard-response",544,508882,"0.0-3.177-2.177","r1catxd7wqkmehe",14,"185.csv","","null","resources/images/fishbone.png","null","",NA,NA,NA,NA,""
"image-keyboard-response",545,509241,"0.0-3.178-0.178","r1catxd7wqkmehe",14,"185.csv","","358","resources/trios/L2T4A3.jpg","39","restless",0.3,0.7,0.4,0.428584487584534,"false"
"image-keyboard-response",546,509645,"0.0-3.178-1.178","r1catxd7wqkmehe",14,"185.csv","","null","resources/maskTrios/BBA3.jpg","null","",NA,NA,NA,NA,""
"image-keyboard-response",547,510850,"0.0-3.178-2.178","r1catxd7wqkmehe",14,"185.csv","","null","resources/images/fishbone.png","null","",NA,NA,NA,NA,""
"image-keyboard-response",548,511648,"0.0-3.179-0.179","r1catxd7wqkmehe",14,"185.csv","","796.7000000476837","resources/trios/L1T4A3.jpg","39","restless",0.3,0.7,0.4,0.0689673885627609,"true"
"image-keyboard-response",549,512051,"0.0-3.179-1.179","r1catxd7wqkmehe",14,"185.csv","","null","resources/maskTrios/BBA3.jpg","null","",NA,NA,NA,NA,""
"image-keyboard-response",550,513256,"0.0-3.179-2.179","r1catxd7wqkmehe",14,"185.csv","","null","resources/images/coin2.png","null","",NA,NA,NA,NA,""
"image-keyboard-response",551,513522,"0.0-3.180-0.180","r1catxd7wqkmehe",14,"185.csv","","265.10000014305115","resources/trios/L1T1A1.jpg","39","restless",0.3,0.7,0.4,0.382651505149738,"true"
"image-keyboard-response",552,513927,"0.0-3.180-1.180","r1catxd7wqkmehe",14,"185.csv","","null","resources/maskTrios/BBA1.jpg","null","",NA,NA,NA,NA,""
"image-keyboard-response",553,515132,"0.0-3.180-2.180","r1catxd7wqkmehe",14,"185.csv","","null","resources/images/coin2.png","null","",NA,NA,NA,NA,""
"image-keyboard-response",554,515394,"0.0-3.181-0.181","r1catxd7wqkmehe",14,"185.csv","","260.5","resources/trios/L1T4A1.jpg","39","restless",0.3,0.7,0.4,0.523265219721897,"false"
"image-keyboard-response",555,515799,"0.0-3.181-1.181","r1catxd7wqkmehe",14,"185.csv","","null","resources/maskTrios/BBA1.jpg","null","",NA,NA,NA,NA,""
"image-keyboard-response",556,517004,"0.0-3.181-2.181","r1catxd7wqkmehe",14,"185.csv","","null","resources/images/fishbone.png","null","",NA,NA,NA,NA,""
"image-keyboard-response",557,517262,"0.0-3.182-0.182","r1catxd7wqkmehe",14,"185.csv","","257.2000000476837","resources/trios/L2T4A1.jpg","38","restless",0.3,0.7,0.5,0.749619312592212,"false"
"image-keyboard-response",558,517666,"0.0-3.182-1.182","r1catxd7wqkmehe",14,"185.csv","","null","resources/maskTrios/BT4B.jpg","null","",NA,NA,NA,NA,""
"image-keyboard-response",559,518872,"0.0-3.182-2.182","r1catxd7wqkmehe",14,"185.csv","","null","resources/images/fishbone.png","null","",NA,NA,NA,NA,""
"image-keyboard-response",560,519515,"0.0-3.183-0.183","r1catxd7wqkmehe",14,"185.csv","","642.0999999046326","resources/trios/L1T4A3.jpg","39","restless",0.3,0.7,0.5,0.628136642805499,"false"
"image-keyboard-response",561,519917,"0.0-3.183-1.183","r1catxd7wqkmehe",14,"185.csv","","null","resources/maskTrios/BBA3.jpg","null","",NA,NA,NA,NA,""
"image-keyboard-response",562,521123,"0.0-3.183-2.183","r1catxd7wqkmehe",14,"185.csv","","null","resources/images/fishbone.png","null","",NA,NA,NA,NA,""
"image-keyboard-response",563,521794,"0.0-3.184-0.184","r1catxd7wqkmehe",14,"185.csv","","670.1000001430511","resources/trios/L2T1A1.jpg","38","restless",0.3,0.7,0.5,0.12236122759083,"true"
"image-keyboard-response",564,522199,"0.0-3.184-1.184","r1catxd7wqkmehe",14,"185.csv","","null","resources/maskTrios/BT1B.jpg","null","",NA,NA,NA,NA,""
"image-keyboard-response",565,523401,"0.0-3.184-2.184","r1catxd7wqkmehe",14,"185.csv","","null","resources/images/coin2.png","null","",NA,NA,NA,NA,""
"image-keyboard-response",566,523673,"0.0-3.185-0.185","r1catxd7wqkmehe",14,"185.csv","","271.7000000476837","resources/trios/L2T1A1.jpg","38","restless",0.4,0.7,0.5,0.90178610250231,"false"
"image-keyboard-response",567,524077,"0.0-3.185-1.185","r1catxd7wqkmehe",14,"185.csv","","null","resources/maskTrios/BT1B.jpg","null","",NA,NA,NA,NA,""
"image-keyboard-response",568,525282,"0.0-3.185-2.185","r1catxd7wqkmehe",14,"185.csv","","null","resources/images/fishbone.png","null","",NA,NA,NA,NA,""
"image-keyboard-response",569,525580,"0.0-3.186-0.186","r1catxd7wqkmehe",14,"185.csv","","297.5","resources/trios/L2T1A1.jpg","37","restless",0.4,0.8,0.4,0.00997913800723405,"true"
"image-keyboard-response",570,525986,"0.0-3.186-1.186","r1catxd7wqkmehe",14,"185.csv","","null","resources/maskTrios/L2BB.jpg","null","",NA,NA,NA,NA,""
"image-keyboard-response",571,527191,"0.0-3.186-2.186","r1catxd7wqkmehe",14,"185.csv","","null","resources/images/coin2.png","null","",NA,NA,NA,NA,""
"image-keyboard-response",572,527806,"0.0-3.187-0.187","r1catxd7wqkmehe",14,"185.csv","","614.7999999523163","resources/trios/L1T1A3.jpg","37","restless",0.4,0.8,0.4,0.491167687715696,"false"
"image-keyboard-response",573,528210,"0.0-3.187-1.187","r1catxd7wqkmehe",14,"185.csv","","null","resources/maskTrios/L1BB.jpg","null","",NA,NA,NA,NA,""
"image-keyboard-response",574,529416,"0.0-3.187-2.187","r1catxd7wqkmehe",14,"185.csv","","null","resources/images/fishbone.png","null","",NA,NA,NA,NA,""
"image-keyboard-response",575,530117,"0.0-3.188-0.188","r1catxd7wqkmehe",14,"185.csv","","699.7999999523163","resources/trios/L1T1A3.jpg","38","restless",0.4,0.8,0.4,0.29214839727372,"true"
"image-keyboard-response",576,530520,"0.0-3.188-1.188","r1catxd7wqkmehe",14,"185.csv","","null","resources/maskTrios/BT1B.jpg","null","",NA,NA,NA,NA,""
"image-keyboard-response",577,531725,"0.0-3.188-2.188","r1catxd7wqkmehe",14,"185.csv","","null","resources/images/coin2.png","null","",NA,NA,NA,NA,""
"image-keyboard-response",578,532012,"0.0-3.189-0.189","r1catxd7wqkmehe",14,"185.csv","","285.89999985694885","resources/trios/L1T1A1.jpg","38","restless",0.4,0.8,0.4,0.563708980235417,"true"
"image-keyboard-response",579,532417,"0.0-3.189-1.189","r1catxd7wqkmehe",14,"185.csv","","null","resources/maskTrios/BT1B.jpg","null","",NA,NA,NA,NA,""
"image-keyboard-response",580,533619,"0.0-3.189-2.189","r1catxd7wqkmehe",14,"185.csv","","null","resources/images/coin2.png","null","",NA,NA,NA,NA,""
"image-keyboard-response",581,533964,"0.0-3.190-0.190","r1catxd7wqkmehe",14,"185.csv","","344.2999999523163","resources/trios/L2T1A1.jpg","38","restless",0.4,0.8,0.4,0.758846361213352,"true"
"image-keyboard-response",582,534366,"0.0-3.190-1.190","r1catxd7wqkmehe",14,"185.csv","","null","resources/maskTrios/BT1B.jpg","null","",NA,NA,NA,NA,""
"image-keyboard-response",583,535571,"0.0-3.190-2.190","r1catxd7wqkmehe",14,"185.csv","","null","resources/images/coin2.png","null","",NA,NA,NA,NA,""
"image-keyboard-response",584,536017,"0.0-3.191-0.191","r1catxd7wqkmehe",14,"185.csv","","445.09999990463257","resources/trios/L1T1A1.jpg","38","restless",0.5,0.8,0.4,0.108502593047286,"true"
"image-keyboard-response",585,536418,"0.0-3.191-1.191","r1catxd7wqkmehe",14,"185.csv","","null","resources/maskTrios/BT1B.jpg","null","",NA,NA,NA,NA,""
"image-keyboard-response",586,537624,"0.0-3.191-2.191","r1catxd7wqkmehe",14,"185.csv","","null","resources/images/coin2.png","null","",NA,NA,NA,NA,""
"image-keyboard-response",587,538406,"0.0-3.192-0.192","r1catxd7wqkmehe",14,"185.csv","","780.5","resources/trios/L2T4A1.jpg","39","restless",0.5,0.8,0.4,0.58911587729737,"false"
"image-keyboard-response",588,538808,"0.0-3.192-1.192","r1catxd7wqkmehe",14,"185.csv","","null","resources/maskTrios/BBA1.jpg","null","",NA,NA,NA,NA,""
"image-keyboard-response",589,540013,"0.0-3.192-2.192","r1catxd7wqkmehe",14,"185.csv","","null","resources/images/fishbone.png","null","",NA,NA,NA,NA,""
"image-keyboard-response",590,540661,"0.0-3.193-0.193","r1catxd7wqkmehe",14,"185.csv","","646.5999999046326","resources/trios/L2T1A1.jpg","38","restless",0.5,0.8,0.3,0.030724095566659,"true"
"image-keyboard-response",591,541064,"0.0-3.193-1.193","r1catxd7wqkmehe",14,"185.csv","","null","resources/maskTrios/BT1B.jpg","null","",NA,NA,NA,NA,""
"image-keyboard-response",592,542269,"0.0-3.193-2.193","r1catxd7wqkmehe",14,"185.csv","","null","resources/images/coin2.png","null","",NA,NA,NA,NA,""
"image-keyboard-response",593,543043,"0.0-3.194-0.194","r1catxd7wqkmehe",14,"185.csv","","772.2000000476837","resources/trios/L1T4A3.jpg","39","restless",0.5,0.8,0.3,0.412384208470563,"false"
"image-keyboard-response",594,543448,"0.0-3.194-1.194","r1catxd7wqkmehe",14,"185.csv","","null","resources/maskTrios/BBA3.jpg","null","",NA,NA,NA,NA,""
"image-keyboard-response",595,544650,"0.0-3.194-2.194","r1catxd7wqkmehe",14,"185.csv","","null","resources/images/fishbone.png","null","",NA,NA,NA,NA,""
"image-keyboard-response",596,545170,"0.0-3.195-0.195","r1catxd7wqkmehe",14,"185.csv","","519.4000000953674","resources/trios/L2T1A3.jpg","38","restless",0.5,0.8,0.3,0.42394265999864,"true"
"image-keyboard-response",597,545576,"0.0-3.195-1.195","r1catxd7wqkmehe",14,"185.csv","","null","resources/maskTrios/BT1B.jpg","null","",NA,NA,NA,NA,""
"image-keyboard-response",598,546781,"0.0-3.195-2.195","r1catxd7wqkmehe",14,"185.csv","","null","resources/images/coin2.png","null","",NA,NA,NA,NA,""
"image-keyboard-response",599,547521,"0.0-3.196-0.196","r1catxd7wqkmehe",14,"185.csv","","739.0999999046326","resources/trios/L1T4A1.jpg","37","restless",0.5,0.8,0.3,0.566735011048137,"false"
"image-keyboard-response",600,547923,"0.0-3.196-1.196","r1catxd7wqkmehe",14,"185.csv","","null","resources/maskTrios/L1BB.jpg","null","",NA,NA,NA,NA,""
"image-keyboard-response",601,549124,"0.0-3.196-2.196","r1catxd7wqkmehe",14,"185.csv","","null","resources/images/fishbone.png","null","",NA,NA,NA,NA,""
"image-keyboard-response",602,549518,"0.0-3.197-0.197","r1catxd7wqkmehe",14,"185.csv","","392.90000009536743","resources/trios/L1T1A3.jpg","38","restless",0.5,0.8,0.3,0.526935620200436,"true"
"image-keyboard-response",603,549923,"0.0-3.197-1.197","r1catxd7wqkmehe",14,"185.csv","","null","resources/maskTrios/BT1B.jpg","null","",NA,NA,NA,NA,""
"image-keyboard-response",604,551128,"0.0-3.197-2.197","r1catxd7wqkmehe",14,"185.csv","","null","resources/images/coin2.png","null","",NA,NA,NA,NA,""
"image-keyboard-response",605,551829,"0.0-3.198-0.198","r1catxd7wqkmehe",14,"185.csv","","700.7000000476837","resources/trios/L1T4A3.jpg","39","restless",0.5,0.8,0.3,0.192442857252121,"true"
"image-keyboard-response",606,552232,"0.0-3.198-1.198","r1catxd7wqkmehe",14,"185.csv","","null","resources/maskTrios/BBA3.jpg","null","",NA,NA,NA,NA,""
"image-keyboard-response",607,553438,"0.0-3.198-2.198","r1catxd7wqkmehe",14,"185.csv","","null","resources/images/coin2.png","null","",NA,NA,NA,NA,""
"image-keyboard-response",608,554192,"0.0-3.199-0.199","r1catxd7wqkmehe",14,"185.csv","","753.2999999523163","resources/trios/L2T1A3.jpg","38","restless",0.6,0.8,0.2,0.318253592316992,"true"
