"trial_type","trial_index","time_elapsed","internal_node_id","subject","participantCode","walkNumber","success","rt","stimulus","key_press","test_part","leftProb","midProb","rightProb","generatedNum","correct"
"pavlovia",0,939,"0.0-0.0","muaxeh9xszaakkw",550,"43.csv","","","","","",NA,NA,NA,NA,""
"fullscreen",1,4376,"0.0-1.0","muaxeh9xszaakkw",550,"43.csv","true","","","","",NA,NA,NA,NA,""
"html-keyboard-response",2,5338,"0.0-2.0-0.0","muaxeh9xszaakkw",550,"43.csv","","961.8999999985099","<p><font size='6'>Arrrgh!</p></font><p>Can you be the best pirate? Try to find lots of gold! But beware, some islands have more gold than others, and over time, the island with the most gold may change. Can YOU figure it out? </p><font size='6'>GOOD LUCK, CAPTAIN!!!</font><p>Press any key to begin</p>","32","",NA,NA,NA,NA,""
"image-keyboard-response",3,8344,"0.0-2.0-1.0","muaxeh9xszaakkw",550,"43.csv","","null","resources/image_sets/111.png","null","",NA,NA,NA,NA,""
"image-keyboard-response",4,9773,"0.0-2.0-2.0","muaxeh9xszaakkw",550,"43.csv","","1428.1999999955297","resources/image_sets/left_highlight.png","37","",NA,NA,NA,NA,""
"image-keyboard-response",5,10860,"0.0-2.0-3.0","muaxeh9xszaakkw",550,"43.csv","","1085","resources/image_sets/mid_highlight.png","38","",NA,NA,NA,NA,""
"image-keyboard-response",6,11387,"0.0-2.0-4.0","muaxeh9xszaakkw",550,"43.csv","","525.8999999985099","resources/image_sets/right_highlight.png","39","",NA,NA,NA,NA,""
"image-keyboard-response",7,12570,"0.0-2.0-5.0","muaxeh9xszaakkw",550,"43.csv","","1182.2999999970198","resources/image_sets/111.png","13","",NA,NA,NA,NA,""
"image-keyboard-response",8,14191,"0.0-2.0-6.0","muaxeh9xszaakkw",550,"43.csv","","1620","resources/images/coin2.png","13","",NA,NA,NA,NA,""
"image-keyboard-response",9,15249,"0.0-2.0-7.0","muaxeh9xszaakkw",550,"43.csv","","1056.5","resources/images/fishbone.png","13","",NA,NA,NA,NA,""
"html-keyboard-response",10,16437,"0.0-2.0-8.0","muaxeh9xszaakkw",550,"43.csv","","1187.5","<p>Your first journey will be a long one, but you will get a well deserved break at the end</p><p>After the break you will have four more journeys, but each will be much shorter than the first, and you will have breaks in between each</p><p>Press Enter to begin</p>","13","",NA,NA,NA,NA,""
"image-keyboard-response",11,17887,"0.0-3.0-0.0","muaxeh9xszaakkw",550,"43.csv","","1449","resources/trios/L2T4A3.jpg","39","restless",0.9,0.3,0.7,0.307515736933312,"true"
"image-keyboard-response",12,18291,"0.0-3.0-1.0","muaxeh9xszaakkw",550,"43.csv","","null","resources/maskTrios/BBA3.jpg","null","",NA,NA,NA,NA,""
"image-keyboard-response",13,19499,"0.0-3.0-2.0","muaxeh9xszaakkw",550,"43.csv","","null","resources/images/coin2.png","null","",NA,NA,NA,NA,""
"image-keyboard-response",14,19770,"0.0-3.1-0.1","muaxeh9xszaakkw",550,"43.csv","","268.19999999552965","resources/trios/L1T4A2.jpg","37","restless",0.9,0.3,0.7,0.780923207296293,"true"
"image-keyboard-response",15,20187,"0.0-3.1-1.1","muaxeh9xszaakkw",550,"43.csv","","null","resources/maskTrios/L1BB.jpg","null","",NA,NA,NA,NA,""
"image-keyboard-response",16,21393,"0.0-3.1-2.1","muaxeh9xszaakkw",550,"43.csv","","null","resources/images/coin2.png","null","",NA,NA,NA,NA,""
"image-keyboard-response",17,21657,"0.0-3.2-0.2","muaxeh9xszaakkw",550,"43.csv","","262.3999999985099","resources/trios/L2T1A2.jpg","39","restless",0.9,0.3,0.7,0.702492070677699,"false"
"image-keyboard-response",18,22061,"0.0-3.2-1.2","muaxeh9xszaakkw",550,"43.csv","","null","resources/maskTrios/BBA2.jpg","null","",NA,NA,NA,NA,""
"image-keyboard-response",19,23267,"0.0-3.2-2.2","muaxeh9xszaakkw",550,"43.csv","","null","resources/images/fishbone.png","null","",NA,NA,NA,NA,""
"image-keyboard-response",20,23566,"0.0-3.3-0.3","muaxeh9xszaakkw",550,"43.csv","","297","resources/trios/L2T1A3.jpg","38","restless",0.8,0.2,0.7,0.859310233457165,"false"
"image-keyboard-response",21,23972,"0.0-3.3-1.3","muaxeh9xszaakkw",550,"43.csv","","null","resources/maskTrios/BT1B.jpg","null","",NA,NA,NA,NA,""
"image-keyboard-response",22,25175,"0.0-3.3-2.3","muaxeh9xszaakkw",550,"43.csv","","null","resources/images/fishbone.png","null","",NA,NA,NA,NA,""
"image-keyboard-response",23,25637,"0.0-3.4-0.4","muaxeh9xszaakkw",550,"43.csv","","460.59999999403954","resources/trios/L2T4A2.jpg","37","restless",0.7,0.2,0.7,0.669633478252793,"true"
"image-keyboard-response",24,26043,"0.0-3.4-1.4","muaxeh9xszaakkw",550,"43.csv","","null","resources/maskTrios/L2BB.jpg","null","",NA,NA,NA,NA,""
"image-keyboard-response",25,27249,"0.0-3.4-2.4","muaxeh9xszaakkw",550,"43.csv","","null","resources/images/coin2.png","null","",NA,NA,NA,NA,""
"image-keyboard-response",26,27532,"0.0-3.5-0.5","muaxeh9xszaakkw",550,"43.csv","","281.6000000014901","resources/trios/L1T1A2.jpg","39","restless",0.7,0.2,0.7,0.0699971671683659,"true"
"image-keyboard-response",27,27937,"0.0-3.5-1.5","muaxeh9xszaakkw",550,"43.csv","","null","resources/maskTrios/BBA2.jpg","null","",NA,NA,NA,NA,""
"image-keyboard-response",28,29141,"0.0-3.5-2.5","muaxeh9xszaakkw",550,"43.csv","","null","resources/images/coin2.png","null","",NA,NA,NA,NA,""
"image-keyboard-response",29,29551,"0.0-3.6-0.6","muaxeh9xszaakkw",550,"43.csv","","408.20000000298023","resources/trios/L2T1A3.jpg","39","restless",0.7,0.2,0.7,0.469597778520416,"true"
"image-keyboard-response",30,29953,"0.0-3.6-1.6","muaxeh9xszaakkw",550,"43.csv","","null","resources/maskTrios/BBA3.jpg","null","",NA,NA,NA,NA,""
"image-keyboard-response",31,31158,"0.0-3.6-2.6","muaxeh9xszaakkw",550,"43.csv","","null","resources/images/coin2.png","null","",NA,NA,NA,NA,""
"image-keyboard-response",32,31433,"0.0-3.7-0.7","muaxeh9xszaakkw",550,"43.csv","","273.1000000014901","resources/trios/L2T1A3.jpg","38","restless",0.7,0.2,0.7,0.473294587796427,"false"
"image-keyboard-response",33,31837,"0.0-3.7-1.7","muaxeh9xszaakkw",550,"43.csv","","null","resources/maskTrios/BT1B.jpg","null","",NA,NA,NA,NA,""
"image-keyboard-response",34,33040,"0.0-3.7-2.7","muaxeh9xszaakkw",550,"43.csv","","null","resources/images/fishbone.png","null","",NA,NA,NA,NA,""
"image-keyboard-response",35,33257,"0.0-3.8-0.8","muaxeh9xszaakkw",550,"43.csv","","214.89999999850988","resources/trios/L1T4A2.jpg","37","restless",0.7,0.2,0.7,0.116641800939837,"true"
"image-keyboard-response",36,33659,"0.0-3.8-1.8","muaxeh9xszaakkw",550,"43.csv","","null","resources/maskTrios/L1BB.jpg","null","",NA,NA,NA,NA,""
"image-keyboard-response",37,34865,"0.0-3.8-2.8","muaxeh9xszaakkw",550,"43.csv","","null","resources/images/coin2.png","null","",NA,NA,NA,NA,""
"image-keyboard-response",38,35201,"0.0-3.9-0.9","muaxeh9xszaakkw",550,"43.csv","","335","resources/trios/L1T1A2.jpg","37","restless",0.8,0.2,0.7,0.511022912637194,"true"
"image-keyboard-response",39,35608,"0.0-3.9-1.9","muaxeh9xszaakkw",550,"43.csv","","null","resources/maskTrios/L1BB.jpg","null","",NA,NA,NA,NA,""
"image-keyboard-response",40,36814,"0.0-3.9-2.9","muaxeh9xszaakkw",550,"43.csv","","null","resources/images/coin2.png","null","",NA,NA,NA,NA,""
"image-keyboard-response",41,37078,"0.0-3.10-0.10","muaxeh9xszaakkw",550,"43.csv","","262.8999999985099","resources/trios/L2T1A2.jpg","37","restless",0.8,0.3,0.7,0.0876812216326697,"true"
"image-keyboard-response",42,37483,"0.0-3.10-1.10","muaxeh9xszaakkw",550,"43.csv","","null","resources/maskTrios/L2BB.jpg","null","",NA,NA,NA,NA,""
"image-keyboard-response",43,38688,"0.0-3.10-2.10","muaxeh9xszaakkw",550,"43.csv","","null","resources/images/coin2.png","null","",NA,NA,NA,NA,""
"image-keyboard-response",44,39110,"0.0-3.11-0.11","muaxeh9xszaakkw",550,"43.csv","","421","resources/trios/L1T1A3.jpg","37","restless",0.8,0.3,0.7,0.518700690814935,"true"
"image-keyboard-response",45,39512,"0.0-3.11-1.11","muaxeh9xszaakkw",550,"43.csv","","null","resources/maskTrios/L1BB.jpg","null","",NA,NA,NA,NA,""
"image-keyboard-response",46,40717,"0.0-3.11-2.11","muaxeh9xszaakkw",550,"43.csv","","null","resources/images/coin2.png","null","",NA,NA,NA,NA,""
"image-keyboard-response",47,40741,"0.0-3.12-0.12","muaxeh9xszaakkw",550,"43.csv","","21.299999997019768","resources/trios/L2T1A3.jpg","37","restless",0.8,0.3,0.7,0.257041467273315,"true"
"image-keyboard-response",48,41146,"0.0-3.12-1.12","muaxeh9xszaakkw",550,"43.csv","","null","resources/maskTrios/L2BB.jpg","null","",NA,NA,NA,NA,""
"image-keyboard-response",49,42353,"0.0-3.12-2.12","muaxeh9xszaakkw",550,"43.csv","","null","resources/images/coin2.png","null","",NA,NA,NA,NA,""
"image-keyboard-response",50,42615,"0.0-3.13-0.13","muaxeh9xszaakkw",550,"43.csv","","259.3999999985099","resources/trios/L1T4A3.jpg","37","restless",0.8,0.3,0.7,0.724294777673009,"true"
"image-keyboard-response",51,43020,"0.0-3.13-1.13","muaxeh9xszaakkw",550,"43.csv","","null","resources/maskTrios/L1BB.jpg","null","",NA,NA,NA,NA,""
"image-keyboard-response",52,44224,"0.0-3.13-2.13","muaxeh9xszaakkw",550,"43.csv","","null","resources/images/coin2.png","null","",NA,NA,NA,NA,""
"image-keyboard-response",53,44407,"0.0-3.14-0.14","muaxeh9xszaakkw",550,"43.csv","","181.29999999701977","resources/trios/L1T4A3.jpg","37","restless",0.8,0.3,0.7,0.649664408707229,"true"
"image-keyboard-response",54,44812,"0.0-3.14-1.14","muaxeh9xszaakkw",550,"43.csv","","null","resources/maskTrios/L1BB.jpg","null","",NA,NA,NA,NA,""
"image-keyboard-response",55,46016,"0.0-3.14-2.14","muaxeh9xszaakkw",550,"43.csv","","null","resources/images/coin2.png","null","",NA,NA,NA,NA,""
"image-keyboard-response",56,46404,"0.0-3.15-0.15","muaxeh9xszaakkw",550,"43.csv","","385.70000000298023","resources/trios/L2T4A2.jpg","37","restless",0.8,0.3,0.7,0.938789008591426,"false"
"image-keyboard-response",57,46808,"0.0-3.15-1.15","muaxeh9xszaakkw",550,"43.csv","","null","resources/maskTrios/L2BB.jpg","null","",NA,NA,NA,NA,""
"image-keyboard-response",58,48012,"0.0-3.15-2.15","muaxeh9xszaakkw",550,"43.csv","","null","resources/images/fishbone.png","null","",NA,NA,NA,NA,""
"image-keyboard-response",59,48305,"0.0-3.16-0.16","muaxeh9xszaakkw",550,"43.csv","","291.19999999552965","resources/trios/L1T4A3.jpg","39","restless",0.8,0.3,0.7,0.899368765184094,"false"
"image-keyboard-response",60,48710,"0.0-3.16-1.16","muaxeh9xszaakkw",550,"43.csv","","null","resources/maskTrios/BBA3.jpg","null","",NA,NA,NA,NA,""
"image-keyboard-response",61,49914,"0.0-3.16-2.16","muaxeh9xszaakkw",550,"43.csv","","null","resources/images/fishbone.png","null","",NA,NA,NA,NA,""
"image-keyboard-response",62,50211,"0.0-3.17-0.17","muaxeh9xszaakkw",550,"43.csv","","295","resources/trios/L1T1A3.jpg","37","restless",0.8,0.3,0.7,0.636473298441007,"true"
"image-keyboard-response",63,50618,"0.0-3.17-1.17","muaxeh9xszaakkw",550,"43.csv","","null","resources/maskTrios/L1BB.jpg","null","",NA,NA,NA,NA,""
"image-keyboard-response",64,51825,"0.0-3.17-2.17","muaxeh9xszaakkw",550,"43.csv","","null","resources/images/coin2.png","null","",NA,NA,NA,NA,""
"image-keyboard-response",65,52193,"0.0-3.18-0.18","muaxeh9xszaakkw",550,"43.csv","","366.29999999701977","resources/trios/L2T1A3.jpg","37","restless",0.8,0.3,0.7,0.108505057208073,"true"
"image-keyboard-response",66,52599,"0.0-3.18-1.18","muaxeh9xszaakkw",550,"43.csv","","null","resources/maskTrios/L2BB.jpg","null","",NA,NA,NA,NA,""
"image-keyboard-response",67,53804,"0.0-3.18-2.18","muaxeh9xszaakkw",550,"43.csv","","null","resources/images/coin2.png","null","",NA,NA,NA,NA,""
"image-keyboard-response",68,55555,"0.0-3.19-0.19","muaxeh9xszaakkw",550,"43.csv","","1748.6999999955297","resources/trios/L2T1A2.jpg","37","restless",0.8,0.3,0.7,0.37090845963814,"true"
"image-keyboard-response",69,55959,"0.0-3.19-1.19","muaxeh9xszaakkw",550,"43.csv","","null","resources/maskTrios/L2BB.jpg","null","",NA,NA,NA,NA,""
"image-keyboard-response",70,57165,"0.0-3.19-2.19","muaxeh9xszaakkw",550,"43.csv","","null","resources/images/coin2.png","null","",NA,NA,NA,NA,""
"image-keyboard-response",71,63058,"0.0-3.20-0.20","muaxeh9xszaakkw",550,"43.csv","","5892.39999999851","resources/trios/L2T1A2.jpg","37","restless",0.7,0.3,0.7,0.0334112660197317,"true"
"image-keyboard-response",72,63462,"0.0-3.20-1.20","muaxeh9xszaakkw",550,"43.csv","","null","resources/maskTrios/L2BB.jpg","null","",NA,NA,NA,NA,""
"image-keyboard-response",73,64671,"0.0-3.20-2.20","muaxeh9xszaakkw",550,"43.csv","","null","resources/images/coin2.png","null","",NA,NA,NA,NA,""
"image-keyboard-response",74,65074,"0.0-3.21-0.21","muaxeh9xszaakkw",550,"43.csv","","401.70000000298023","resources/trios/L2T4A3.jpg","37","restless",0.7,0.3,0.7,0.165799348565375,"true"
"image-keyboard-response",75,65478,"0.0-3.21-1.21","muaxeh9xszaakkw",550,"43.csv","","null","resources/maskTrios/L2BB.jpg","null","",NA,NA,NA,NA,""
"image-keyboard-response",76,66681,"0.0-3.21-2.21","muaxeh9xszaakkw",550,"43.csv","","null","resources/images/coin2.png","null","",NA,NA,NA,NA,""
"image-keyboard-response",77,66950,"0.0-3.22-0.22","muaxeh9xszaakkw",550,"43.csv","","267.20000000298023","resources/trios/L2T1A2.jpg","39","restless",0.7,0.4,0.7,0.603143841366703,"true"
"image-keyboard-response",78,67356,"0.0-3.22-1.22","muaxeh9xszaakkw",550,"43.csv","","null","resources/maskTrios/BBA2.jpg","null","",NA,NA,NA,NA,""
"image-keyboard-response",79,68559,"0.0-3.22-2.22","muaxeh9xszaakkw",550,"43.csv","","null","resources/images/coin2.png","null","",NA,NA,NA,NA,""
"image-keyboard-response",80,69096,"0.0-3.23-0.23","muaxeh9xszaakkw",550,"43.csv","","535.9000000059605","resources/trios/L1T4A3.jpg","39","restless",0.7,0.4,0.7,0.200141399969946,"true"
"image-keyboard-response",81,69505,"0.0-3.23-1.23","muaxeh9xszaakkw",550,"43.csv","","null","resources/maskTrios/BBA3.jpg","null","",NA,NA,NA,NA,""
"image-keyboard-response",82,70711,"0.0-3.23-2.23","muaxeh9xszaakkw",550,"43.csv","","null","resources/images/coin2.png","null","",NA,NA,NA,NA,""
"image-keyboard-response",83,71007,"0.0-3.24-0.24","muaxeh9xszaakkw",550,"43.csv","","294.5","resources/trios/L1T4A3.jpg","39","restless",0.7,0.4,0.7,0.108597174670499,"true"
"image-keyboard-response",84,71412,"0.0-3.24-1.24","muaxeh9xszaakkw",550,"43.csv","","null","resources/maskTrios/BBA3.jpg","null","",NA,NA,NA,NA,""
"image-keyboard-response",85,72617,"0.0-3.24-2.24","muaxeh9xszaakkw",550,"43.csv","","null","resources/images/coin2.png","null","",NA,NA,NA,NA,""
"image-keyboard-response",86,73713,"0.0-3.25-0.25","muaxeh9xszaakkw",550,"43.csv","","1094.5","resources/trios/L1T4A3.jpg","39","restless",0.7,0.5,0.7,0.0156948617799759,"true"
"image-keyboard-response",87,74119,"0.0-3.25-1.25","muaxeh9xszaakkw",550,"43.csv","","null","resources/maskTrios/BBA3.jpg","null","",NA,NA,NA,NA,""
"image-keyboard-response",88,75321,"0.0-3.25-2.25","muaxeh9xszaakkw",550,"43.csv","","null","resources/images/coin2.png","null","",NA,NA,NA,NA,""
"image-keyboard-response",89,75587,"0.0-3.26-0.26","muaxeh9xszaakkw",550,"43.csv","","263.79999999701977","resources/trios/L2T1A2.jpg","39","restless",0.7,0.5,0.7,0.741110239315542,"false"
"image-keyboard-response",90,75990,"0.0-3.26-1.26","muaxeh9xszaakkw",550,"43.csv","","null","resources/maskTrios/BBA2.jpg","null","",NA,NA,NA,NA,""
"image-keyboard-response",91,77195,"0.0-3.26-2.26","muaxeh9xszaakkw",550,"43.csv","","null","resources/images/fishbone.png","null","",NA,NA,NA,NA,""
"image-keyboard-response",92,78190,"0.0-3.27-0.27","muaxeh9xszaakkw",550,"43.csv","","993","resources/trios/L2T1A3.jpg","39","restless",0.7,0.5,0.7,0.338404444214799,"true"
"image-keyboard-response",93,78595,"0.0-3.27-1.27","muaxeh9xszaakkw",550,"43.csv","","null","resources/maskTrios/BBA3.jpg","null","",NA,NA,NA,NA,""
"image-keyboard-response",94,79801,"0.0-3.27-2.27","muaxeh9xszaakkw",550,"43.csv","","null","resources/images/coin2.png","null","",NA,NA,NA,NA,""
"image-keyboard-response",95,82693,"0.0-3.28-0.28","muaxeh9xszaakkw",550,"43.csv","","2890.5","resources/trios/L2T1A3.jpg","39","restless",0.7,0.5,0.7,0.173354348524511,"true"
"image-keyboard-response",96,83100,"0.0-3.28-1.28","muaxeh9xszaakkw",550,"43.csv","","null","resources/maskTrios/BBA3.jpg","null","",NA,NA,NA,NA,""
"image-keyboard-response",97,84301,"0.0-3.28-2.28","muaxeh9xszaakkw",550,"43.csv","","null","resources/images/coin2.png","null","",NA,NA,NA,NA,""
"image-keyboard-response",98,88643,"0.0-3.29-0.29","muaxeh9xszaakkw",550,"43.csv","","4340.5","resources/trios/L1T4A2.jpg","39","restless",0.7,0.5,0.7,0.364549918291508,"true"
"image-keyboard-response",99,89049,"0.0-3.29-1.29","muaxeh9xszaakkw",550,"43.csv","","null","resources/maskTrios/BBA2.jpg","null","",NA,NA,NA,NA,""
"image-keyboard-response",100,90253,"0.0-3.29-2.29","muaxeh9xszaakkw",550,"43.csv","","null","resources/images/coin2.png","null","",NA,NA,NA,NA,""
"image-keyboard-response",101,90589,"0.0-3.30-0.30","muaxeh9xszaakkw",550,"43.csv","","335.1000000014901","resources/trios/L2T1A3.jpg","39","restless",0.7,0.5,0.7,0.470558751237503,"true"
"image-keyboard-response",102,90995,"0.0-3.30-1.30","muaxeh9xszaakkw",550,"43.csv","","null","resources/maskTrios/BBA3.jpg","null","",NA,NA,NA,NA,""
"image-keyboard-response",103,92200,"0.0-3.30-2.30","muaxeh9xszaakkw",550,"43.csv","","null","resources/images/coin2.png","null","",NA,NA,NA,NA,""
"image-keyboard-response",104,93695,"0.0-3.31-0.31","muaxeh9xszaakkw",550,"43.csv","","1493.1999999955297","resources/trios/L2T1A2.jpg","39","restless",0.6,0.5,0.8,0.113973320353951,"true"
"image-keyboard-response",105,94098,"0.0-3.31-1.31","muaxeh9xszaakkw",550,"43.csv","","null","resources/maskTrios/BBA2.jpg","null","",NA,NA,NA,NA,""
"image-keyboard-response",106,95304,"0.0-3.31-2.31","muaxeh9xszaakkw",550,"43.csv","","null","resources/images/coin2.png","null","",NA,NA,NA,NA,""
"image-keyboard-response",107,97486,"0.0-3.32-0.32","muaxeh9xszaakkw",550,"43.csv","","2180.7000000029802","resources/trios/L1T1A2.jpg","39","restless",0.6,0.5,0.8,0.288102526329757,"true"
"image-keyboard-response",108,97890,"0.0-3.32-1.32","muaxeh9xszaakkw",550,"43.csv","","null","resources/maskTrios/BBA2.jpg","null","",NA,NA,NA,NA,""
"image-keyboard-response",109,99094,"0.0-3.32-2.32","muaxeh9xszaakkw",550,"43.csv","","null","resources/images/coin2.png","null","",NA,NA,NA,NA,""
"image-keyboard-response",110,99290,"0.0-3.33-0.33","muaxeh9xszaakkw",550,"43.csv","","193.89999999850988","resources/trios/L2T1A3.jpg","37","restless",0.6,0.5,0.8,0.463865273528439,"true"
"image-keyboard-response",111,99696,"0.0-3.33-1.33","muaxeh9xszaakkw",550,"43.csv","","null","resources/maskTrios/L2BB.jpg","null","",NA,NA,NA,NA,""
"image-keyboard-response",112,100903,"0.0-3.33-2.33","muaxeh9xszaakkw",550,"43.csv","","null","resources/images/coin2.png","null","",NA,NA,NA,NA,""
"image-keyboard-response",113,100911,"0.0-3.34-0.34","muaxeh9xszaakkw",550,"43.csv","","4.299999997019768","resources/trios/L2T1A2.jpg","37","restless",0.6,0.4,0.8,0.394571289465276,"true"
"image-keyboard-response",114,101317,"0.0-3.34-1.34","muaxeh9xszaakkw",550,"43.csv","","null","resources/maskTrios/L2BB.jpg","null","",NA,NA,NA,NA,""
"image-keyboard-response",115,102519,"0.0-3.34-2.34","muaxeh9xszaakkw",550,"43.csv","","null","resources/images/coin2.png","null","",NA,NA,NA,NA,""
"image-keyboard-response",116,102625,"0.0-3.35-0.35","muaxeh9xszaakkw",550,"43.csv","","104.10000000149012","resources/trios/L2T4A3.jpg","37","restless",0.6,0.4,0.8,0.214767432339212,"true"
"image-keyboard-response",117,103031,"0.0-3.35-1.35","muaxeh9xszaakkw",550,"43.csv","","null","resources/maskTrios/L2BB.jpg","null","",NA,NA,NA,NA,""
"image-keyboard-response",118,104240,"0.0-3.35-2.35","muaxeh9xszaakkw",550,"43.csv","","null","resources/images/coin2.png","null","",NA,NA,NA,NA,""
"image-keyboard-response",119,104664,"0.0-3.36-0.36","muaxeh9xszaakkw",550,"43.csv","","421.8999999985099","resources/trios/L2T4A2.jpg","37","restless",0.6,0.4,0.8,0.622811925914813,"false"
"image-keyboard-response",120,105068,"0.0-3.36-1.36","muaxeh9xszaakkw",550,"43.csv","","null","resources/maskTrios/L2BB.jpg","null","",NA,NA,NA,NA,""
"image-keyboard-response",121,106272,"0.0-3.36-2.36","muaxeh9xszaakkw",550,"43.csv","","null","resources/images/fishbone.png","null","",NA,NA,NA,NA,""
"image-keyboard-response",122,106458,"0.0-3.37-0.37","muaxeh9xszaakkw",550,"43.csv","","183.80000000447035","resources/trios/L1T4A2.jpg","39","restless",0.6,0.4,0.8,0.0523070968913573,"true"
"image-keyboard-response",123,106866,"0.0-3.37-1.37","muaxeh9xszaakkw",550,"43.csv","","null","resources/maskTrios/BBA2.jpg","null","",NA,NA,NA,NA,""
"image-keyboard-response",124,108073,"0.0-3.37-2.37","muaxeh9xszaakkw",550,"43.csv","","null","resources/images/coin2.png","null","",NA,NA,NA,NA,""
"image-keyboard-response",125,108350,"0.0-3.38-0.38","muaxeh9xszaakkw",550,"43.csv","","274.8999999985099","resources/trios/L1T1A3.jpg","39","restless",0.7,0.4,0.8,0.944788423634246,"false"
"image-keyboard-response",126,108756,"0.0-3.38-1.38","muaxeh9xszaakkw",550,"43.csv","","null","resources/maskTrios/BBA3.jpg","null","",NA,NA,NA,NA,""
"image-keyboard-response",127,109961,"0.0-3.38-2.38","muaxeh9xszaakkw",550,"43.csv","","null","resources/images/fishbone.png","null","",NA,NA,NA,NA,""
"image-keyboard-response",128,111379,"0.0-3.39-0.39","muaxeh9xszaakkw",550,"43.csv","","1415.6000000014901","resources/trios/L1T4A2.jpg","39","restless",0.7,0.3,0.8,0.675616195073511,"true"
"image-keyboard-response",129,111783,"0.0-3.39-1.39","muaxeh9xszaakkw",550,"43.csv","","null","resources/maskTrios/BBA2.jpg","null","",NA,NA,NA,NA,""
"image-keyboard-response",130,112987,"0.0-3.39-2.39","muaxeh9xszaakkw",550,"43.csv","","null","resources/images/coin2.png","null","",NA,NA,NA,NA,""
"image-keyboard-response",131,115422,"0.0-3.40-0.40","muaxeh9xszaakkw",550,"43.csv","","2432.60000000149","resources/trios/L2T1A3.jpg","39","restless",0.7,0.3,0.8,0.266104477689362,"true"
"image-keyboard-response",132,115827,"0.0-3.40-1.40","muaxeh9xszaakkw",550,"43.csv","","null","resources/maskTrios/BBA3.jpg","null","",NA,NA,NA,NA,""
"image-keyboard-response",133,117031,"0.0-3.40-2.40","muaxeh9xszaakkw",550,"43.csv","","null","resources/images/coin2.png","null","",NA,NA,NA,NA,""
"image-keyboard-response",134,117303,"0.0-3.41-0.41","muaxeh9xszaakkw",550,"43.csv","","269.90000000596046","resources/trios/L1T4A3.jpg","39","restless",0.7,0.3,0.7,0.759887885994812,"false"
"image-keyboard-response",135,117707,"0.0-3.41-1.41","muaxeh9xszaakkw",550,"43.csv","","null","resources/maskTrios/BBA3.jpg","null","",NA,NA,NA,NA,""
"image-keyboard-response",136,118911,"0.0-3.41-2.41","muaxeh9xszaakkw",550,"43.csv","","null","resources/images/fishbone.png","null","",NA,NA,NA,NA,""
"image-keyboard-response",137,119305,"0.0-3.42-0.42","muaxeh9xszaakkw",550,"43.csv","","392.3999999985099","resources/trios/L1T4A3.jpg","37","restless",0.7,0.3,0.7,0.88071825470403,"false"
"image-keyboard-response",138,119710,"0.0-3.42-1.42","muaxeh9xszaakkw",550,"43.csv","","null","resources/maskTrios/L1BB.jpg","null","",NA,NA,NA,NA,""
"image-keyboard-response",139,120913,"0.0-3.42-2.42","muaxeh9xszaakkw",550,"43.csv","","null","resources/images/fishbone.png","null","",NA,NA,NA,NA,""
"image-keyboard-response",140,121218,"0.0-3.43-0.43","muaxeh9xszaakkw",550,"43.csv","","303.6000000014901","resources/trios/L2T4A2.jpg","38","restless",0.7,0.3,0.7,0.560879916076747,"false"
"image-keyboard-response",141,121623,"0.0-3.43-1.43","muaxeh9xszaakkw",550,"43.csv","","null","resources/maskTrios/BT4B.jpg","null","",NA,NA,NA,NA,""
"image-keyboard-response",142,122827,"0.0-3.43-2.43","muaxeh9xszaakkw",550,"43.csv","","null","resources/images/fishbone.png","null","",NA,NA,NA,NA,""
"image-keyboard-response",143,123095,"0.0-3.44-0.44","muaxeh9xszaakkw",550,"43.csv","","266.5","resources/trios/L2T1A3.jpg","37","restless",0.7,0.3,0.7,0.483406688682097,"true"
"image-keyboard-response",144,123502,"0.0-3.44-1.44","muaxeh9xszaakkw",550,"43.csv","","null","resources/maskTrios/L2BB.jpg","null","",NA,NA,NA,NA,""
"image-keyboard-response",145,124708,"0.0-3.44-2.44","muaxeh9xszaakkw",550,"43.csv","","null","resources/images/coin2.png","null","",NA,NA,NA,NA,""
"image-keyboard-response",146,124822,"0.0-3.45-0.45","muaxeh9xszaakkw",550,"43.csv","","112.69999999552965","resources/trios/L1T1A3.jpg","37","restless",0.7,0.3,0.7,0.67714148943719,"true"
"image-keyboard-response",147,125225,"0.0-3.45-1.45","muaxeh9xszaakkw",550,"43.csv","","null","resources/maskTrios/L1BB.jpg","null","",NA,NA,NA,NA,""
"image-keyboard-response",148,126431,"0.0-3.45-2.45","muaxeh9xszaakkw",550,"43.csv","","null","resources/images/coin2.png","null","",NA,NA,NA,NA,""
"image-keyboard-response",149,126745,"0.0-3.46-0.46","muaxeh9xszaakkw",550,"43.csv","","312.6000000014901","resources/trios/L2T1A2.jpg","37","restless",0.7,0.3,0.7,0.974203904479094,"false"
"image-keyboard-response",150,127149,"0.0-3.46-1.46","muaxeh9xszaakkw",550,"43.csv","","null","resources/maskTrios/L2BB.jpg","null","",NA,NA,NA,NA,""
"image-keyboard-response",151,128352,"0.0-3.46-2.46","muaxeh9xszaakkw",550,"43.csv","","null","resources/images/fishbone.png","null","",NA,NA,NA,NA,""
"image-keyboard-response",152,128431,"0.0-3.47-0.47","muaxeh9xszaakkw",550,"43.csv","","76.89999999850988","resources/trios/L2T4A3.jpg","39","restless",0.7,0.3,0.7,0.486462719041991,"true"
"image-keyboard-response",153,128834,"0.0-3.47-1.47","muaxeh9xszaakkw",550,"43.csv","","null","resources/maskTrios/BBA3.jpg","null","",NA,NA,NA,NA,""
"image-keyboard-response",154,130037,"0.0-3.47-2.47","muaxeh9xszaakkw",550,"43.csv","","null","resources/images/coin2.png","null","",NA,NA,NA,NA,""
"image-keyboard-response",155,130295,"0.0-3.48-0.48","muaxeh9xszaakkw",550,"43.csv","","256.1000000014901","resources/trios/L2T1A2.jpg","39","restless",0.7,0.3,0.7,0.30334279489458,"true"
"image-keyboard-response",156,130698,"0.0-3.48-1.48","muaxeh9xszaakkw",550,"43.csv","","null","resources/maskTrios/BBA2.jpg","null","",NA,NA,NA,NA,""
"image-keyboard-response",157,131901,"0.0-3.48-2.48","muaxeh9xszaakkw",550,"43.csv","","null","resources/images/coin2.png","null","",NA,NA,NA,NA,""
"image-keyboard-response",158,132312,"0.0-3.49-0.49","muaxeh9xszaakkw",550,"43.csv","","408.5","resources/trios/L1T1A3.jpg","38","restless",0.7,0.3,0.7,0.196696541241577,"true"
"image-keyboard-response",159,132718,"0.0-3.49-1.49","muaxeh9xszaakkw",550,"43.csv","","null","resources/maskTrios/BT1B.jpg","null","",NA,NA,NA,NA,""
"image-keyboard-response",160,133925,"0.0-3.49-2.49","muaxeh9xszaakkw",550,"43.csv","","null","resources/images/coin2.png","null","",NA,NA,NA,NA,""
"image-keyboard-response",161,134157,"0.0-3.50-0.50","muaxeh9xszaakkw",550,"43.csv","","229.89999999850988","resources/trios/L2T1A3.jpg","38","restless",0.7,0.3,0.7,0.887507918673549,"false"
"image-keyboard-response",162,134559,"0.0-3.50-1.50","muaxeh9xszaakkw",550,"43.csv","","null","resources/maskTrios/BT1B.jpg","null","",NA,NA,NA,NA,""
"image-keyboard-response",163,135762,"0.0-3.50-2.50","muaxeh9xszaakkw",550,"43.csv","","null","resources/images/fishbone.png","null","",NA,NA,NA,NA,""
"image-keyboard-response",164,136004,"0.0-3.51-0.51","muaxeh9xszaakkw",550,"43.csv","","239.60000000149012","resources/trios/L1T1A2.jpg","37","restless",0.7,0.3,0.7,0.0915346744296557,"true"
"image-keyboard-response",165,136408,"0.0-3.51-1.51","muaxeh9xszaakkw",550,"43.csv","","null","resources/maskTrios/L1BB.jpg","null","",NA,NA,NA,NA,""
"image-keyboard-response",166,137617,"0.0-3.51-2.51","muaxeh9xszaakkw",550,"43.csv","","null","resources/images/coin2.png","null","",NA,NA,NA,NA,""
"image-keyboard-response",167,137826,"0.0-3.52-0.52","muaxeh9xszaakkw",550,"43.csv","","206.60000000149012","resources/trios/L1T4A3.jpg","37","restless",0.7,0.3,0.7,0.246222593693672,"true"
"image-keyboard-response",168,138228,"0.0-3.52-1.52","muaxeh9xszaakkw",550,"43.csv","","null","resources/maskTrios/L1BB.jpg","null","",NA,NA,NA,NA,""
"image-keyboard-response",169,139434,"0.0-3.52-2.52","muaxeh9xszaakkw",550,"43.csv","","null","resources/images/coin2.png","null","",NA,NA,NA,NA,""
"image-keyboard-response",170,139714,"0.0-3.53-0.53","muaxeh9xszaakkw",550,"43.csv","","277.8999999985099","resources/trios/L2T1A3.jpg","39","restless",0.7,0.3,0.7,0.757029442875422,"false"
"image-keyboard-response",171,140120,"0.0-3.53-1.53","muaxeh9xszaakkw",550,"43.csv","","null","resources/maskTrios/BBA3.jpg","null","",NA,NA,NA,NA,""
"image-keyboard-response",172,141322,"0.0-3.53-2.53","muaxeh9xszaakkw",550,"43.csv","","null","resources/images/fishbone.png","null","",NA,NA,NA,NA,""
"image-keyboard-response",173,141565,"0.0-3.54-0.54","muaxeh9xszaakkw",550,"43.csv","","241.70000000298023","resources/trios/L2T4A2.jpg","37","restless",0.7,0.2,0.7,0.767713510357303,"false"
"image-keyboard-response",174,141969,"0.0-3.54-1.54","muaxeh9xszaakkw",550,"43.csv","","null","resources/maskTrios/L2BB.jpg","null","",NA,NA,NA,NA,""
"image-keyboard-response",175,143175,"0.0-3.54-2.54","muaxeh9xszaakkw",550,"43.csv","","null","resources/images/fishbone.png","null","",NA,NA,NA,NA,""
"image-keyboard-response",176,143414,"0.0-3.55-0.55","muaxeh9xszaakkw",550,"43.csv","","237.10000000149012","resources/trios/L1T1A3.jpg","37","restless",0.7,0.2,0.7,0.0244446451447751,"true"
"image-keyboard-response",177,143818,"0.0-3.55-1.55","muaxeh9xszaakkw",550,"43.csv","","null","resources/maskTrios/L1BB.jpg","null","",NA,NA,NA,NA,""
"image-keyboard-response",178,145022,"0.0-3.55-2.55","muaxeh9xszaakkw",550,"43.csv","","null","resources/images/coin2.png","null","",NA,NA,NA,NA,""
"image-keyboard-response",179,145227,"0.0-3.56-0.56","muaxeh9xszaakkw",550,"43.csv","","203.60000000149012","resources/trios/L2T1A3.jpg","37","restless",0.6,0.2,0.7,0.61893264106366,"false"
"image-keyboard-response",180,145630,"0.0-3.56-1.56","muaxeh9xszaakkw",550,"43.csv","","null","resources/maskTrios/L2BB.jpg","null","",NA,NA,NA,NA,""
"image-keyboard-response",181,146834,"0.0-3.56-2.56","muaxeh9xszaakkw",550,"43.csv","","null","resources/images/fishbone.png","null","",NA,NA,NA,NA,""
"image-keyboard-response",182,147108,"0.0-3.57-0.57","muaxeh9xszaakkw",550,"43.csv","","272.3999999985099","resources/trios/L2T4A3.jpg","37","restless",0.6,0.3,0.7,0.727224189752835,"false"
"image-keyboard-response",183,147514,"0.0-3.57-1.57","muaxeh9xszaakkw",550,"43.csv","","null","resources/maskTrios/L2BB.jpg","null","",NA,NA,NA,NA,""
"image-keyboard-response",184,148719,"0.0-3.57-2.57","muaxeh9xszaakkw",550,"43.csv","","null","resources/images/fishbone.png","null","",NA,NA,NA,NA,""
"image-keyboard-response",185,148990,"0.0-3.58-0.58","muaxeh9xszaakkw",550,"43.csv","","268.8999999985099","resources/trios/L2T4A3.jpg","39","restless",0.6,0.4,0.7,0.11551704283321,"true"
"image-keyboard-response",186,149393,"0.0-3.58-1.58","muaxeh9xszaakkw",550,"43.csv","","null","resources/maskTrios/BBA3.jpg","null","",NA,NA,NA,NA,""
"image-keyboard-response",187,150599,"0.0-3.58-2.58","muaxeh9xszaakkw",550,"43.csv","","null","resources/images/coin2.png","null","",NA,NA,NA,NA,""
"image-keyboard-response",188,150869,"0.0-3.59-0.59","muaxeh9xszaakkw",550,"43.csv","","268.80000000447035","resources/trios/L1T4A3.jpg","39","restless",0.6,0.4,0.7,0.494658645269019,"true"
"image-keyboard-response",189,151273,"0.0-3.59-1.59","muaxeh9xszaakkw",550,"43.csv","","null","resources/maskTrios/BBA3.jpg","null","",NA,NA,NA,NA,""
"image-keyboard-response",190,152478,"0.0-3.59-2.59","muaxeh9xszaakkw",550,"43.csv","","null","resources/images/coin2.png","null","",NA,NA,NA,NA,""
"image-keyboard-response",191,152761,"0.0-3.60-0.60","muaxeh9xszaakkw",550,"43.csv","","280.29999999701977","resources/trios/L1T1A3.jpg","38","restless",0.6,0.5,0.6,0.0155077204824836,"true"
"image-keyboard-response",192,153167,"0.0-3.60-1.60","muaxeh9xszaakkw",550,"43.csv","","null","resources/maskTrios/BT1B.jpg","null","",NA,NA,NA,NA,""
"image-keyboard-response",193,154372,"0.0-3.60-2.60","muaxeh9xszaakkw",550,"43.csv","","null","resources/images/coin2.png","null","",NA,NA,NA,NA,""
"image-keyboard-response",194,154592,"0.0-3.61-0.61","muaxeh9xszaakkw",550,"43.csv","","217.60000000149012","resources/trios/L2T4A3.jpg","38","restless",0.6,0.5,0.6,0.984001932079916,"false"
"image-keyboard-response",195,154996,"0.0-3.61-1.61","muaxeh9xszaakkw",550,"43.csv","","null","resources/maskTrios/BT4B.jpg","null","",NA,NA,NA,NA,""
"image-keyboard-response",196,156198,"0.0-3.61-2.61","muaxeh9xszaakkw",550,"43.csv","","null","resources/images/fishbone.png","null","",NA,NA,NA,NA,""
"image-keyboard-response",197,156650,"0.0-3.62-0.62","muaxeh9xszaakkw",550,"43.csv","","449.8999999985099","resources/trios/L2T1A3.jpg","37","restless",0.6,0.5,0.7,0.0813863501489573,"true"
"image-keyboard-response",198,157052,"0.0-3.62-1.62","muaxeh9xszaakkw",550,"43.csv","","null","resources/maskTrios/L2BB.jpg","null","",NA,NA,NA,NA,""
"image-keyboard-response",199,158257,"0.0-3.62-2.62","muaxeh9xszaakkw",550,"43.csv","","null","resources/images/coin2.png","null","",NA,NA,NA,NA,""
"image-keyboard-response",200,158321,"0.0-3.63-0.63","muaxeh9xszaakkw",550,"43.csv","","60.19999999552965","resources/trios/L1T1A2.jpg","37","restless",0.6,0.5,0.7,0.698949667957738,"false"
"image-keyboard-response",201,158725,"0.0-3.63-1.63","muaxeh9xszaakkw",550,"43.csv","","null","resources/maskTrios/L1BB.jpg","null","",NA,NA,NA,NA,""
"image-keyboard-response",202,159929,"0.0-3.63-2.63","muaxeh9xszaakkw",550,"43.csv","","null","resources/images/fishbone.png","null","",NA,NA,NA,NA,""
"image-keyboard-response",203,160271,"0.0-3.64-0.64","muaxeh9xszaakkw",550,"43.csv","","340.30000000447035","resources/trios/L2T4A2.jpg","39","restless",0.6,0.5,0.8,0.679741103040605,"true"
"image-keyboard-response",204,160673,"0.0-3.64-1.64","muaxeh9xszaakkw",550,"43.csv","","null","resources/maskTrios/BBA2.jpg","null","",NA,NA,NA,NA,""
"image-keyboard-response",205,161879,"0.0-3.64-2.64","muaxeh9xszaakkw",550,"43.csv","","null","resources/images/coin2.png","null","",NA,NA,NA,NA,""
"image-keyboard-response",206,162317,"0.0-3.65-0.65","muaxeh9xszaakkw",550,"43.csv","","436.19999999552965","resources/trios/L1T4A3.jpg","39","restless",0.6,0.4,0.8,0.05738421618862,"true"
"image-keyboard-response",207,162724,"0.0-3.65-1.65","muaxeh9xszaakkw",550,"43.csv","","null","resources/maskTrios/BBA3.jpg","null","",NA,NA,NA,NA,""
"image-keyboard-response",208,163929,"0.0-3.65-2.65","muaxeh9xszaakkw",550,"43.csv","","null","resources/images/coin2.png","null","",NA,NA,NA,NA,""
"image-keyboard-response",209,164271,"0.0-3.66-0.66","muaxeh9xszaakkw",550,"43.csv","","340.6000000014901","resources/trios/L1T4A2.jpg","37","restless",0.6,0.5,0.8,0.101111201884563,"true"
"image-keyboard-response",210,164676,"0.0-3.66-1.66","muaxeh9xszaakkw",550,"43.csv","","null","resources/maskTrios/L1BB.jpg","null","",NA,NA,NA,NA,""
"image-keyboard-response",211,165880,"0.0-3.66-2.66","muaxeh9xszaakkw",550,"43.csv","","null","resources/images/coin2.png","null","",NA,NA,NA,NA,""
"image-keyboard-response",212,166201,"0.0-3.67-0.67","muaxeh9xszaakkw",550,"43.csv","","319.3999999985099","resources/trios/L2T1A3.jpg","37","restless",0.5,0.5,0.8,0.748584562734773,"false"
"image-keyboard-response",213,166606,"0.0-3.67-1.67","muaxeh9xszaakkw",550,"43.csv","","null","resources/maskTrios/L2BB.jpg","null","",NA,NA,NA,NA,""
"image-keyboard-response",214,167811,"0.0-3.67-2.67","muaxeh9xszaakkw",550,"43.csv","","null","resources/images/fishbone.png","null","",NA,NA,NA,NA,""
"image-keyboard-response",215,168170,"0.0-3.68-0.68","muaxeh9xszaakkw",550,"43.csv","","356.29999999701977","resources/trios/L1T1A3.jpg","38","restless",0.6,0.5,0.7,0.425649952104706,"true"
"image-keyboard-response",216,168571,"0.0-3.68-1.68","muaxeh9xszaakkw",550,"43.csv","","null","resources/maskTrios/BT1B.jpg","null","",NA,NA,NA,NA,""
"image-keyboard-response",217,169775,"0.0-3.68-2.68","muaxeh9xszaakkw",550,"43.csv","","null","resources/images/coin2.png","null","",NA,NA,NA,NA,""
"image-keyboard-response",218,170023,"0.0-3.69-0.69","muaxeh9xszaakkw",550,"43.csv","","246.19999999552965","resources/trios/L1T1A3.jpg","38","restless",0.6,0.5,0.7,0.820857870436115,"false"
"image-keyboard-response",219,170428,"0.0-3.69-1.69","muaxeh9xszaakkw",550,"43.csv","","null","resources/maskTrios/BT1B.jpg","null","",NA,NA,NA,NA,""
"image-keyboard-response",220,171632,"0.0-3.69-2.69","muaxeh9xszaakkw",550,"43.csv","","null","resources/images/fishbone.png","null","",NA,NA,NA,NA,""
"image-keyboard-response",221,172061,"0.0-3.70-0.70","muaxeh9xszaakkw",550,"43.csv","","426.70000000298023","resources/trios/L2T4A3.jpg","39","restless",0.6,0.5,0.7,0.713408580575432,"false"
"image-keyboard-response",222,172467,"0.0-3.70-1.70","muaxeh9xszaakkw",550,"43.csv","","null","resources/maskTrios/BBA3.jpg","null","",NA,NA,NA,NA,""
"image-keyboard-response",223,173673,"0.0-3.70-2.70","muaxeh9xszaakkw",550,"43.csv","","null","resources/images/fishbone.png","null","",NA,NA,NA,NA,""
"image-keyboard-response",224,174040,"0.0-3.71-0.71","muaxeh9xszaakkw",550,"43.csv","","364.69999999552965","resources/trios/L2T1A3.jpg","39","restless",0.6,0.5,0.7,0.357711569798205,"true"
"image-keyboard-response",225,174446,"0.0-3.71-1.71","muaxeh9xszaakkw",550,"43.csv","","null","resources/maskTrios/BBA3.jpg","null","",NA,NA,NA,NA,""
"image-keyboard-response",226,175651,"0.0-3.71-2.71","muaxeh9xszaakkw",550,"43.csv","","null","resources/images/coin2.png","null","",NA,NA,NA,NA,""
"image-keyboard-response",227,176169,"0.0-3.72-0.72","muaxeh9xszaakkw",550,"43.csv","","516.5","resources/trios/L1T4A3.jpg","39","restless",0.6,0.5,0.7,0.0836213030062336,"true"
"image-keyboard-response",228,176573,"0.0-3.72-1.72","muaxeh9xszaakkw",550,"43.csv","","null","resources/maskTrios/BBA3.jpg","null","",NA,NA,NA,NA,""
"image-keyboard-response",229,177778,"0.0-3.72-2.72","muaxeh9xszaakkw",550,"43.csv","","null","resources/images/coin2.png","null","",NA,NA,NA,NA,""
"image-keyboard-response",230,178372,"0.0-3.73-0.73","muaxeh9xszaakkw",550,"43.csv","","592.1999999955297","resources/trios/L2T1A2.jpg","37","restless",0.6,0.5,0.7,0.0108642474352301,"true"
"image-keyboard-response",231,178778,"0.0-3.73-1.73","muaxeh9xszaakkw",550,"43.csv","","null","resources/maskTrios/L2BB.jpg","null","",NA,NA,NA,NA,""
"image-keyboard-response",232,179981,"0.0-3.73-2.73","muaxeh9xszaakkw",550,"43.csv","","null","resources/images/coin2.png","null","",NA,NA,NA,NA,""
"image-keyboard-response",233,180899,"0.0-3.74-0.74","muaxeh9xszaakkw",550,"43.csv","","915.7999999970198","resources/trios/L2T4A3.jpg","37","restless",0.6,0.5,0.7,0.0809829909719186,"true"
"image-keyboard-response",234,181305,"0.0-3.74-1.74","muaxeh9xszaakkw",550,"43.csv","","null","resources/maskTrios/L2BB.jpg","null","",NA,NA,NA,NA,""
"image-keyboard-response",235,182512,"0.0-3.74-2.74","muaxeh9xszaakkw",550,"43.csv","","null","resources/images/coin2.png","null","",NA,NA,NA,NA,""
"image-keyboard-response",236,182799,"0.0-3.75-0.75","muaxeh9xszaakkw",550,"43.csv","","285.19999999552965","resources/trios/L1T4A3.jpg","37","restless",0.6,0.5,0.7,0.281528034581313,"true"
"image-keyboard-response",237,183203,"0.0-3.75-1.75","muaxeh9xszaakkw",550,"43.csv","","null","resources/maskTrios/L1BB.jpg","null","",NA,NA,NA,NA,""
"image-keyboard-response",238,184408,"0.0-3.75-2.75","muaxeh9xszaakkw",550,"43.csv","","null","resources/images/coin2.png","null","",NA,NA,NA,NA,""
"image-keyboard-response",239,184751,"0.0-3.76-0.76","muaxeh9xszaakkw",550,"43.csv","","341.8999999985099","resources/trios/L2T4A2.jpg","37","restless",0.6,0.5,0.7,0.543056896567724,"true"
"image-keyboard-response",240,185157,"0.0-3.76-1.76","muaxeh9xszaakkw",550,"43.csv","","null","resources/maskTrios/L2BB.jpg","null","",NA,NA,NA,NA,""
"image-keyboard-response",241,186360,"0.0-3.76-2.76","muaxeh9xszaakkw",550,"43.csv","","null","resources/images/coin2.png","null","",NA,NA,NA,NA,""
"image-keyboard-response",242,187224,"0.0-3.77-0.77","muaxeh9xszaakkw",550,"43.csv","","862.2000000029802","resources/trios/L1T1A3.jpg","37","restless",0.7,0.5,0.6,0.884647148078167,"false"
"image-keyboard-response",243,187629,"0.0-3.77-1.77","muaxeh9xszaakkw",550,"43.csv","","null","resources/maskTrios/L1BB.jpg","null","",NA,NA,NA,NA,""
"image-keyboard-response",244,188836,"0.0-3.77-2.77","muaxeh9xszaakkw",550,"43.csv","","null","resources/images/fishbone.png","null","",NA,NA,NA,NA,""
"image-keyboard-response",245,189129,"0.0-3.78-0.78","muaxeh9xszaakkw",550,"43.csv","","291.20000000298023","resources/trios/L1T1A3.jpg","39","restless",0.7,0.5,0.6,0.597747824352952,"true"
"image-keyboard-response",246,189535,"0.0-3.78-1.78","muaxeh9xszaakkw",550,"43.csv","","null","resources/maskTrios/BBA3.jpg","null","",NA,NA,NA,NA,""
"image-keyboard-response",247,190741,"0.0-3.78-2.78","muaxeh9xszaakkw",550,"43.csv","","null","resources/images/coin2.png","null","",NA,NA,NA,NA,""
"image-keyboard-response",248,191334,"0.0-3.79-0.79","muaxeh9xszaakkw",550,"43.csv","","590.8999999985099","resources/trios/L2T1A3.jpg","39","restless",0.7,0.5,0.6,0.978409138716481,"false"
"image-keyboard-response",249,191737,"0.0-3.79-1.79","muaxeh9xszaakkw",550,"43.csv","","null","resources/maskTrios/BBA3.jpg","null","",NA,NA,NA,NA,""
"image-keyboard-response",250,192943,"0.0-3.79-2.79","muaxeh9xszaakkw",550,"43.csv","","null","resources/images/fishbone.png","null","",NA,NA,NA,NA,""
"image-keyboard-response",251,193234,"0.0-3.80-0.80","muaxeh9xszaakkw",550,"43.csv","","289.70000000298023","resources/trios/L1T4A3.jpg","38","restless",0.7,0.5,0.6,0.665422233120501,"false"
"image-keyboard-response",252,193637,"0.0-3.80-1.80","muaxeh9xszaakkw",550,"43.csv","","null","resources/maskTrios/BT4B.jpg","null","",NA,NA,NA,NA,""
"image-keyboard-response",253,194841,"0.0-3.80-2.80","muaxeh9xszaakkw",550,"43.csv","","null","resources/images/fishbone.png","null","",NA,NA,NA,NA,""
"image-keyboard-response",254,195256,"0.0-3.81-0.81","muaxeh9xszaakkw",550,"43.csv","","412.70000000298023","resources/trios/L2T1A3.jpg","37","restless",0.7,0.5,0.6,0.556202291183155,"true"
"image-keyboard-response",255,195663,"0.0-3.81-1.81","muaxeh9xszaakkw",550,"43.csv","","null","resources/maskTrios/L2BB.jpg","null","",NA,NA,NA,NA,""
"image-keyboard-response",256,196868,"0.0-3.81-2.81","muaxeh9xszaakkw",550,"43.csv","","null","resources/images/coin2.png","null","",NA,NA,NA,NA,""
"image-keyboard-response",257,197142,"0.0-3.82-0.82","muaxeh9xszaakkw",550,"43.csv","","271.8999999985099","resources/trios/L1T4A3.jpg","37","restless",0.7,0.5,0.6,0.382686253351805,"true"
"image-keyboard-response",258,197548,"0.0-3.82-1.82","muaxeh9xszaakkw",550,"43.csv","","null","resources/maskTrios/L1BB.jpg","null","",NA,NA,NA,NA,""
"image-keyboard-response",259,198751,"0.0-3.82-2.82","muaxeh9xszaakkw",550,"43.csv","","null","resources/images/coin2.png","null","",NA,NA,NA,NA,""
"image-keyboard-response",260,199028,"0.0-3.83-0.83","muaxeh9xszaakkw",550,"43.csv","","275.29999999701977","resources/trios/L2T1A3.jpg","38","restless",0.7,0.5,0.6,0.93554107189551,"false"
"image-keyboard-response",261,199430,"0.0-3.83-1.83","muaxeh9xszaakkw",550,"43.csv","","null","resources/maskTrios/BT1B.jpg","null","",NA,NA,NA,NA,""
"image-keyboard-response",262,200633,"0.0-3.83-2.83","muaxeh9xszaakkw",550,"43.csv","","null","resources/images/fishbone.png","null","",NA,NA,NA,NA,""
"image-keyboard-response",263,200787,"0.0-3.84-0.84","muaxeh9xszaakkw",550,"43.csv","","151.79999999701977","resources/trios/L1T1A2.jpg","39","restless",0.7,0.5,0.6,0.159679922132098,"true"
"image-keyboard-response",264,201195,"0.0-3.84-1.84","muaxeh9xszaakkw",550,"43.csv","","null","resources/maskTrios/BBA2.jpg","null","",NA,NA,NA,NA,""
"image-keyboard-response",265,202401,"0.0-3.84-2.84","muaxeh9xszaakkw",550,"43.csv","","null","resources/images/coin2.png","null","",NA,NA,NA,NA,""
"image-keyboard-response",266,202706,"0.0-3.85-0.85","muaxeh9xszaakkw",550,"43.csv","","303.1000000014901","resources/trios/L1T1A3.jpg","39","restless",0.7,0.6,0.6,0.787288513313153,"false"
"image-keyboard-response",267,203110,"0.0-3.85-1.85","muaxeh9xszaakkw",550,"43.csv","","null","resources/maskTrios/BBA3.jpg","null","",NA,NA,NA,NA,""
"image-keyboard-response",268,204315,"0.0-3.85-2.85","muaxeh9xszaakkw",550,"43.csv","","null","resources/images/fishbone.png","null","",NA,NA,NA,NA,""
"image-keyboard-response",269,204608,"0.0-3.86-0.86","muaxeh9xszaakkw",550,"43.csv","","290.69999999552965","resources/trios/L2T1A2.jpg","37","restless",0.7,0.6,0.6,0.195544371129807,"true"
"image-keyboard-response",270,205014,"0.0-3.86-1.86","muaxeh9xszaakkw",550,"43.csv","","null","resources/maskTrios/L2BB.jpg","null","",NA,NA,NA,NA,""
"image-keyboard-response",271,206220,"0.0-3.86-2.86","muaxeh9xszaakkw",550,"43.csv","","null","resources/images/coin2.png","null","",NA,NA,NA,NA,""
"image-keyboard-response",272,207043,"0.0-3.87-0.87","muaxeh9xszaakkw",550,"43.csv","","821.3000000044703","resources/trios/L2T1A2.jpg","37","restless",0.7,0.6,0.7,0.328428456284775,"true"
"image-keyboard-response",273,207449,"0.0-3.87-1.87","muaxeh9xszaakkw",550,"43.csv","","null","resources/maskTrios/L2BB.jpg","null","",NA,NA,NA,NA,""
"image-keyboard-response",274,208652,"0.0-3.87-2.87","muaxeh9xszaakkw",550,"43.csv","","null","resources/images/coin2.png","null","",NA,NA,NA,NA,""
"image-keyboard-response",275,209286,"0.0-3.88-0.88","muaxeh9xszaakkw",550,"43.csv","","632","resources/trios/L1T4A3.jpg","37","restless",0.6,0.6,0.7,0.893842545895658,"false"
"image-keyboard-response",276,209691,"0.0-3.88-1.88","muaxeh9xszaakkw",550,"43.csv","","null","resources/maskTrios/L1BB.jpg","null","",NA,NA,NA,NA,""
"image-keyboard-response",277,210894,"0.0-3.88-2.88","muaxeh9xszaakkw",550,"43.csv","","null","resources/images/fishbone.png","null","",NA,NA,NA,NA,""
"image-keyboard-response",278,211174,"0.0-3.89-0.89","muaxeh9xszaakkw",550,"43.csv","","277.79999999701977","resources/trios/L2T4A3.jpg","38","restless",0.6,0.6,0.7,0.0107952917411331,"true"
"image-keyboard-response",279,211578,"0.0-3.89-1.89","muaxeh9xszaakkw",550,"43.csv","","null","resources/maskTrios/BT4B.jpg","null","",NA,NA,NA,NA,""
"image-keyboard-response",280,212784,"0.0-3.89-2.89","muaxeh9xszaakkw",550,"43.csv","","null","resources/images/coin2.png","null","",NA,NA,NA,NA,""
"image-keyboard-response",281,213131,"0.0-3.90-0.90","muaxeh9xszaakkw",550,"43.csv","","344.6000000014901","resources/trios/L1T4A3.jpg","37","restless",0.6,0.6,0.7,0.642404396926454,"false"
"image-keyboard-response",282,213537,"0.0-3.90-1.90","muaxeh9xszaakkw",550,"43.csv","","null","resources/maskTrios/L1BB.jpg","null","",NA,NA,NA,NA,""
"image-keyboard-response",283,214742,"0.0-3.90-2.90","muaxeh9xszaakkw",550,"43.csv","","null","resources/images/fishbone.png","null","",NA,NA,NA,NA,""
"image-keyboard-response",284,214999,"0.0-3.91-0.91","muaxeh9xszaakkw",550,"43.csv","","255.5","resources/trios/L1T1A3.jpg","38","restless",0.6,0.6,0.7,0.588370495856625,"true"
"image-keyboard-response",285,215404,"0.0-3.91-1.91","muaxeh9xszaakkw",550,"43.csv","","null","resources/maskTrios/BT1B.jpg","null","",NA,NA,NA,NA,""
"image-keyboard-response",286,216609,"0.0-3.91-2.91","muaxeh9xszaakkw",550,"43.csv","","null","resources/images/coin2.png","null","",NA,NA,NA,NA,""
"image-keyboard-response",287,216985,"0.0-3.92-0.92","muaxeh9xszaakkw",550,"43.csv","","374.69999999552965","resources/trios/L1T1A2.jpg","39","restless",0.6,0.6,0.7,0.0649751282110218,"true"
"image-keyboard-response",288,217392,"0.0-3.92-1.92","muaxeh9xszaakkw",550,"43.csv","","null","resources/maskTrios/BBA2.jpg","null","",NA,NA,NA,NA,""
"image-keyboard-response",289,218594,"0.0-3.92-2.92","muaxeh9xszaakkw",550,"43.csv","","null","resources/images/coin2.png","null","",NA,NA,NA,NA,""
"image-keyboard-response",290,218920,"0.0-3.93-0.93","muaxeh9xszaakkw",550,"43.csv","","324.09999999403954","resources/trios/L2T1A3.jpg","39","restless",0.6,0.6,0.7,0.486540640280687,"true"
"image-keyboard-response",291,219328,"0.0-3.93-1.93","muaxeh9xszaakkw",550,"43.csv","","null","resources/maskTrios/BBA3.jpg","null","",NA,NA,NA,NA,""
"image-keyboard-response",292,220536,"0.0-3.93-2.93","muaxeh9xszaakkw",550,"43.csv","","null","resources/images/coin2.png","null","",NA,NA,NA,NA,""
"image-keyboard-response",293,220857,"0.0-3.94-0.94","muaxeh9xszaakkw",550,"43.csv","","319.70000000298023","resources/trios/L2T1A3.jpg","37","restless",0.6,0.6,0.7,0.802211343570396,"false"
"image-keyboard-response",294,221263,"0.0-3.94-1.94","muaxeh9xszaakkw",550,"43.csv","","null","resources/maskTrios/L2BB.jpg","null","",NA,NA,NA,NA,""
"image-keyboard-response",295,222469,"0.0-3.94-2.94","muaxeh9xszaakkw",550,"43.csv","","null","resources/images/fishbone.png","null","",NA,NA,NA,NA,""
"image-keyboard-response",296,222856,"0.0-3.95-0.95","muaxeh9xszaakkw",550,"43.csv","","385.1000000014901","resources/trios/L1T4A3.jpg","37","restless",0.6,0.6,0.7,0.332746209802532,"true"
"image-keyboard-response",297,223261,"0.0-3.95-1.95","muaxeh9xszaakkw",550,"43.csv","","null","resources/maskTrios/L1BB.jpg","null","",NA,NA,NA,NA,""
"image-keyboard-response",298,224469,"0.0-3.95-2.95","muaxeh9xszaakkw",550,"43.csv","","null","resources/images/coin2.png","null","",NA,NA,NA,NA,""
"image-keyboard-response",299,224897,"0.0-3.96-0.96","muaxeh9xszaakkw",550,"43.csv","","426.20000000298023","resources/trios/L1T4A2.jpg","37","restless",0.6,0.6,0.7,0.297350429441237,"true"
"image-keyboard-response",300,225304,"0.0-3.96-1.96","muaxeh9xszaakkw",550,"43.csv","","null","resources/maskTrios/L1BB.jpg","null","",NA,NA,NA,NA,""
"image-keyboard-response",301,226507,"0.0-3.96-2.96","muaxeh9xszaakkw",550,"43.csv","","null","resources/images/coin2.png","null","",NA,NA,NA,NA,""
"image-keyboard-response",302,226964,"0.0-3.97-0.97","muaxeh9xszaakkw",550,"43.csv","","455","resources/trios/L1T4A2.jpg","39","restless",0.6,0.6,0.7,0.395117525527247,"true"
"image-keyboard-response",303,227368,"0.0-3.97-1.97","muaxeh9xszaakkw",550,"43.csv","","null","resources/maskTrios/BBA2.jpg","null","",NA,NA,NA,NA,""
"image-keyboard-response",304,228570,"0.0-3.97-2.97","muaxeh9xszaakkw",550,"43.csv","","null","resources/images/coin2.png","null","",NA,NA,NA,NA,""
"image-keyboard-response",305,228843,"0.0-3.98-0.98","muaxeh9xszaakkw",550,"43.csv","","271.5","resources/trios/L2T1A3.jpg","38","restless",0.5,0.6,0.7,0.309041251705283,"true"
"image-keyboard-response",306,229250,"0.0-3.98-1.98","muaxeh9xszaakkw",550,"43.csv","","null","resources/maskTrios/BT1B.jpg","null","",NA,NA,NA,NA,""
"image-keyboard-response",307,230453,"0.0-3.98-2.98","muaxeh9xszaakkw",550,"43.csv","","null","resources/images/coin2.png","null","",NA,NA,NA,NA,""
"image-keyboard-response",308,230889,"0.0-3.99-0.99","muaxeh9xszaakkw",550,"43.csv","","433.79999999701977","resources/trios/L2T1A2.jpg","37","restless",0.5,0.6,0.8,0.721049787606059,"false"
"image-keyboard-response",309,231295,"0.0-3.99-1.99","muaxeh9xszaakkw",550,"43.csv","","null","resources/maskTrios/L2BB.jpg","null","",NA,NA,NA,NA,""
"image-keyboard-response",310,232503,"0.0-3.99-2.99","muaxeh9xszaakkw",550,"43.csv","","null","resources/images/fishbone.png","null","",NA,NA,NA,NA,""
"image-keyboard-response",311,232788,"0.0-3.100-0.100","muaxeh9xszaakkw",550,"43.csv","","283.70000000298023","resources/trios/L1T1A3.jpg","37","restless",0.5,0.6,0.8,0.0762898910721561,"true"
"image-keyboard-response",312,233194,"0.0-3.100-1.100","muaxeh9xszaakkw",550,"43.csv","","null","resources/maskTrios/L1BB.jpg","null","",NA,NA,NA,NA,""
"image-keyboard-response",313,234400,"0.0-3.100-2.100","muaxeh9xszaakkw",550,"43.csv","","null","resources/images/coin2.png","null","",NA,NA,NA,NA,""
"image-keyboard-response",314,234852,"0.0-3.101-0.101","muaxeh9xszaakkw",550,"43.csv","","450","resources/trios/L1T4A2.jpg","39","restless",0.5,0.6,0.8,0.536459885706227,"true"
"image-keyboard-response",315,235257,"0.0-3.101-1.101","muaxeh9xszaakkw",550,"43.csv","","null","resources/maskTrios/BBA2.jpg","null","",NA,NA,NA,NA,""
"image-keyboard-response",316,236463,"0.0-3.101-2.101","muaxeh9xszaakkw",550,"43.csv","","null","resources/images/coin2.png","null","",NA,NA,NA,NA,""
"image-keyboard-response",317,236768,"0.0-3.102-0.102","muaxeh9xszaakkw",550,"43.csv","","303.5","resources/trios/L2T1A3.jpg","39","restless",0.5,0.6,0.8,0.798462574570021,"true"
"image-keyboard-response",318,237173,"0.0-3.102-1.102","muaxeh9xszaakkw",550,"43.csv","","null","resources/maskTrios/BBA3.jpg","null","",NA,NA,NA,NA,""
"image-keyboard-response",319,238378,"0.0-3.102-2.102","muaxeh9xszaakkw",550,"43.csv","","null","resources/images/coin2.png","null","",NA,NA,NA,NA,""
"image-keyboard-response",320,238664,"0.0-3.103-0.103","muaxeh9xszaakkw",550,"43.csv","","284.8999999985099","resources/trios/L1T1A3.jpg","38","restless",0.5,0.6,0.8,0.163977347158265,"true"
"image-keyboard-response",321,239071,"0.0-3.103-1.103","muaxeh9xszaakkw",550,"43.csv","","null","resources/maskTrios/BT1B.jpg","null","",NA,NA,NA,NA,""
"image-keyboard-response",322,240276,"0.0-3.103-2.103","muaxeh9xszaakkw",550,"43.csv","","null","resources/images/coin2.png","null","",NA,NA,NA,NA,""
"image-keyboard-response",323,240541,"0.0-3.104-0.104","muaxeh9xszaakkw",550,"43.csv","","262.70000000298023","resources/trios/L2T4A3.jpg","38","restless",0.5,0.5,0.8,0.260685313351316,"true"
"image-keyboard-response",324,240943,"0.0-3.104-1.104","muaxeh9xszaakkw",550,"43.csv","","null","resources/maskTrios/BT4B.jpg","null","",NA,NA,NA,NA,""
"image-keyboard-response",325,242146,"0.0-3.104-2.104","muaxeh9xszaakkw",550,"43.csv","","null","resources/images/coin2.png","null","",NA,NA,NA,NA,""
"image-keyboard-response",326,242407,"0.0-3.105-0.105","muaxeh9xszaakkw",550,"43.csv","","259.6000000014901","resources/trios/L2T4A2.jpg","37","restless",0.5,0.5,0.7,0.0380536257120332,"true"
"image-keyboard-response",327,242809,"0.0-3.105-1.105","muaxeh9xszaakkw",550,"43.csv","","null","resources/maskTrios/L2BB.jpg","null","",NA,NA,NA,NA,""
"image-keyboard-response",328,244014,"0.0-3.105-2.105","muaxeh9xszaakkw",550,"43.csv","","null","resources/images/coin2.png","null","",NA,NA,NA,NA,""
"image-keyboard-response",329,244268,"0.0-3.106-0.106","muaxeh9xszaakkw",550,"43.csv","","251.70000000298023","resources/trios/L2T1A3.jpg","37","restless",0.5,0.6,0.7,0.0471814636869703,"true"
"image-keyboard-response",330,244673,"0.0-3.106-1.106","muaxeh9xszaakkw",550,"43.csv","","null","resources/maskTrios/L2BB.jpg","null","",NA,NA,NA,NA,""
"image-keyboard-response",331,245876,"0.0-3.106-2.106","muaxeh9xszaakkw",550,"43.csv","","null","resources/images/coin2.png","null","",NA,NA,NA,NA,""
"image-keyboard-response",332,246165,"0.0-3.107-0.107","muaxeh9xszaakkw",550,"43.csv","","287.20000000298023","resources/trios/L1T4A2.jpg","39","restless",0.5,0.6,0.8,0.180523998013169,"true"
"image-keyboard-response",333,246571,"0.0-3.107-1.107","muaxeh9xszaakkw",550,"43.csv","","null","resources/maskTrios/BBA2.jpg","null","",NA,NA,NA,NA,""
"image-keyboard-response",334,247775,"0.0-3.107-2.107","muaxeh9xszaakkw",550,"43.csv","","null","resources/images/coin2.png","null","",NA,NA,NA,NA,""
"image-keyboard-response",335,248386,"0.0-3.108-0.108","muaxeh9xszaakkw",550,"43.csv","","609.2999999970198","resources/trios/L1T1A2.jpg","39","restless",0.5,0.6,0.9,0.121493020096046,"true"
"image-keyboard-response",336,248788,"0.0-3.108-1.108","muaxeh9xszaakkw",550,"43.csv","","null","resources/maskTrios/BBA2.jpg","null","",NA,NA,NA,NA,""
"image-keyboard-response",337,249993,"0.0-3.108-2.108","muaxeh9xszaakkw",550,"43.csv","","null","resources/images/coin2.png","null","",NA,NA,NA,NA,""
"image-keyboard-response",338,250086,"0.0-3.109-0.109","muaxeh9xszaakkw",550,"43.csv","","91","resources/trios/L2T1A3.jpg","38","restless",0.5,0.6,0.9,0.197925197587933,"true"
"image-keyboard-response",339,250492,"0.0-3.109-1.109","muaxeh9xszaakkw",550,"43.csv","","null","resources/maskTrios/BT1B.jpg","null","",NA,NA,NA,NA,""
"image-keyboard-response",340,251701,"0.0-3.109-2.109","muaxeh9xszaakkw",550,"43.csv","","null","resources/images/coin2.png","null","",NA,NA,NA,NA,""
"image-keyboard-response",341,251738,"0.0-3.110-0.110","muaxeh9xszaakkw",550,"43.csv","","34.600000001490116","resources/trios/L1T4A3.jpg","38","restless",0.5,0.6,0.9,0.958907583446367,"false"
"image-keyboard-response",342,252142,"0.0-3.110-1.110","muaxeh9xszaakkw",550,"43.csv","","null","resources/maskTrios/BT4B.jpg","null","",NA,NA,NA,NA,""
"image-keyboard-response",343,253344,"0.0-3.110-2.110","muaxeh9xszaakkw",550,"43.csv","","null","resources/images/fishbone.png","null","",NA,NA,NA,NA,""
"image-keyboard-response",344,253595,"0.0-3.111-0.111","muaxeh9xszaakkw",550,"43.csv","","248.29999999701977","resources/trios/L2T4A3.jpg","37","restless",0.5,0.6,0.9,0.749920220067081,"false"
"image-keyboard-response",345,253998,"0.0-3.111-1.111","muaxeh9xszaakkw",550,"43.csv","","null","resources/maskTrios/L2BB.jpg","null","",NA,NA,NA,NA,""
"image-keyboard-response",346,255203,"0.0-3.111-2.111","muaxeh9xszaakkw",550,"43.csv","","null","resources/images/fishbone.png","null","",NA,NA,NA,NA,""
"image-keyboard-response",347,255505,"0.0-3.112-0.112","muaxeh9xszaakkw",550,"43.csv","","300.19999999552965","resources/trios/L2T1A3.jpg","37","restless",0.5,0.6,0.9,0.512016295646284,"false"
"image-keyboard-response",348,255911,"0.0-3.112-1.112","muaxeh9xszaakkw",550,"43.csv","","null","resources/maskTrios/L2BB.jpg","null","",NA,NA,NA,NA,""
"image-keyboard-response",349,257112,"0.0-3.112-2.112","muaxeh9xszaakkw",550,"43.csv","","null","resources/images/fishbone.png","null","",NA,NA,NA,NA,""
"image-keyboard-response",350,257361,"0.0-3.113-0.113","muaxeh9xszaakkw",550,"43.csv","","246.5","resources/trios/L1T4A3.jpg","37","restless",0.5,0.6,0.9,0.464652532235367,"true"
"image-keyboard-response",351,257766,"0.0-3.113-1.113","muaxeh9xszaakkw",550,"43.csv","","null","resources/maskTrios/L1BB.jpg","null","",NA,NA,NA,NA,""
"image-keyboard-response",352,258968,"0.0-3.113-2.113","muaxeh9xszaakkw",550,"43.csv","","null","resources/images/coin2.png","null","",NA,NA,NA,NA,""
"image-keyboard-response",353,259261,"0.0-3.114-0.114","muaxeh9xszaakkw",550,"43.csv","","290.8999999985099","resources/trios/L2T4A3.jpg","37","restless",0.5,0.6,0.9,0.597934296151733,"false"
"image-keyboard-response",354,259667,"0.0-3.114-1.114","muaxeh9xszaakkw",550,"43.csv","","null","resources/maskTrios/L2BB.jpg","null","",NA,NA,NA,NA,""
"image-keyboard-response",355,260873,"0.0-3.114-2.114","muaxeh9xszaakkw",550,"43.csv","","null","resources/images/fishbone.png","null","",NA,NA,NA,NA,""
"image-keyboard-response",356,261149,"0.0-3.115-0.115","muaxeh9xszaakkw",550,"43.csv","","274.30000000447035","resources/trios/L2T1A3.jpg","39","restless",0.6,0.6,0.9,0.904879532433713,"false"
"image-keyboard-response",357,261557,"0.0-3.115-1.115","muaxeh9xszaakkw",550,"43.csv","","null","resources/maskTrios/BBA3.jpg","null","",NA,NA,NA,NA,""
"image-keyboard-response",358,262763,"0.0-3.115-2.115","muaxeh9xszaakkw",550,"43.csv","","null","resources/images/fishbone.png","null","",NA,NA,NA,NA,""
"image-keyboard-response",359,263011,"0.0-3.116-0.116","muaxeh9xszaakkw",550,"43.csv","","246.39999999850988","resources/trios/L1T1A3.jpg","38","restless",0.6,0.6,0.9,0.820345045776151,"false"
"image-keyboard-response",360,263418,"0.0-3.116-1.116","muaxeh9xszaakkw",550,"43.csv","","null","resources/maskTrios/BT1B.jpg","null","",NA,NA,NA,NA,""
"image-keyboard-response",361,264621,"0.0-3.116-2.116","muaxeh9xszaakkw",550,"43.csv","","null","resources/images/fishbone.png","null","",NA,NA,NA,NA,""
"image-keyboard-response",362,264726,"0.0-3.117-0.117","muaxeh9xszaakkw",550,"43.csv","","103.30000000447035","resources/trios/L2T4A3.jpg","39","restless",0.6,0.6,0.9,0.853409712897271,"true"
"image-keyboard-response",363,265131,"0.0-3.117-1.117","muaxeh9xszaakkw",550,"43.csv","","null","resources/maskTrios/BBA3.jpg","null","",NA,NA,NA,NA,""
"image-keyboard-response",364,266336,"0.0-3.117-2.117","muaxeh9xszaakkw",550,"43.csv","","null","resources/images/coin2.png","null","",NA,NA,NA,NA,""
"image-keyboard-response",365,266626,"0.0-3.118-0.118","muaxeh9xszaakkw",550,"43.csv","","288","resources/trios/L1T1A3.jpg","37","restless",0.6,0.6,0.9,0.350682118240891,"true"
"image-keyboard-response",366,267032,"0.0-3.118-1.118","muaxeh9xszaakkw",550,"43.csv","","null","resources/maskTrios/L1BB.jpg","null","",NA,NA,NA,NA,""
"image-keyboard-response",367,268239,"0.0-3.118-2.118","muaxeh9xszaakkw",550,"43.csv","","null","resources/images/coin2.png","null","",NA,NA,NA,NA,""
"image-keyboard-response",368,268519,"0.0-3.119-0.119","muaxeh9xszaakkw",550,"43.csv","","278.70000000298023","resources/trios/L2T4A3.jpg","37","restless",0.6,0.6,0.9,0.287925779957769,"true"
"image-keyboard-response",369,268925,"0.0-3.119-1.119","muaxeh9xszaakkw",550,"43.csv","","null","resources/maskTrios/L2BB.jpg","null","",NA,NA,NA,NA,""
"image-keyboard-response",370,270133,"0.0-3.119-2.119","muaxeh9xszaakkw",550,"43.csv","","null","resources/images/coin2.png","null","",NA,NA,NA,NA,""
"image-keyboard-response",371,270420,"0.0-3.120-0.120","muaxeh9xszaakkw",550,"43.csv","","285.6000000014901","resources/trios/L2T4A2.jpg","39","restless",0.6,0.6,0.9,0.562950429094397,"true"
"image-keyboard-response",372,270826,"0.0-3.120-1.120","muaxeh9xszaakkw",550,"43.csv","","null","resources/maskTrios/BBA2.jpg","null","",NA,NA,NA,NA,""
"image-keyboard-response",373,272031,"0.0-3.120-2.120","muaxeh9xszaakkw",550,"43.csv","","null","resources/images/coin2.png","null","",NA,NA,NA,NA,""
"image-keyboard-response",374,272553,"0.0-3.121-0.121","muaxeh9xszaakkw",550,"43.csv","","519.6999999955297","resources/trios/L2T4A3.jpg","39","restless",0.6,0.6,0.9,0.0911986967696454,"true"
"image-keyboard-response",375,272957,"0.0-3.121-1.121","muaxeh9xszaakkw",550,"43.csv","","null","resources/maskTrios/BBA3.jpg","null","",NA,NA,NA,NA,""
"image-keyboard-response",376,274161,"0.0-3.121-2.121","muaxeh9xszaakkw",550,"43.csv","","null","resources/images/coin2.png","null","",NA,NA,NA,NA,""
"image-keyboard-response",377,274446,"0.0-3.122-0.122","muaxeh9xszaakkw",550,"43.csv","","282.70000000298023","resources/trios/L1T1A2.jpg","38","restless",0.6,0.6,0.9,0.0278709427887838,"true"
"image-keyboard-response",378,274848,"0.0-3.122-1.122","muaxeh9xszaakkw",550,"43.csv","","null","resources/maskTrios/BT1B.jpg","null","",NA,NA,NA,NA,""
"image-keyboard-response",379,276053,"0.0-3.122-2.122","muaxeh9xszaakkw",550,"43.csv","","null","resources/images/coin2.png","null","",NA,NA,NA,NA,""
"image-keyboard-response",380,276345,"0.0-3.123-0.123","muaxeh9xszaakkw",550,"43.csv","","290.69999999552965","resources/trios/L1T4A3.jpg","38","restless",0.6,0.6,0.9,0.676153982738265,"false"
"image-keyboard-response",381,276750,"0.0-3.123-1.123","muaxeh9xszaakkw",550,"43.csv","","null","resources/maskTrios/BT4B.jpg","null","",NA,NA,NA,NA,""
"image-keyboard-response",382,277954,"0.0-3.123-2.123","muaxeh9xszaakkw",550,"43.csv","","null","resources/images/fishbone.png","null","",NA,NA,NA,NA,""
"image-keyboard-response",383,278212,"0.0-3.124-0.124","muaxeh9xszaakkw",550,"43.csv","","256.80000000447035","resources/trios/L2T1A2.jpg","37","restless",0.6,0.6,0.9,0.490661404945745,"true"
"image-keyboard-response",384,278615,"0.0-3.124-1.124","muaxeh9xszaakkw",550,"43.csv","","null","resources/maskTrios/L2BB.jpg","null","",NA,NA,NA,NA,""
"image-keyboard-response",385,279817,"0.0-3.124-2.124","muaxeh9xszaakkw",550,"43.csv","","null","resources/images/coin2.png","null","",NA,NA,NA,NA,""
"image-keyboard-response",386,280148,"0.0-3.125-0.125","muaxeh9xszaakkw",550,"43.csv","","328.6000000014901","resources/trios/L1T4A2.jpg","37","restless",0.6,0.6,0.9,0.063354652855971,"true"
"image-keyboard-response",387,280554,"0.0-3.125-1.125","muaxeh9xszaakkw",550,"43.csv","","null","resources/maskTrios/L1BB.jpg","null","",NA,NA,NA,NA,""
"image-keyboard-response",388,281759,"0.0-3.125-2.125","muaxeh9xszaakkw",550,"43.csv","","null","resources/images/coin2.png","null","",NA,NA,NA,NA,""
"image-keyboard-response",389,281975,"0.0-3.126-0.126","muaxeh9xszaakkw",550,"43.csv","","214.39999999850988","resources/trios/L1T1A3.jpg","39","restless",0.6,0.6,0.9,0.819043341030517,"true"
"image-keyboard-response",390,282377,"0.0-3.126-1.126","muaxeh9xszaakkw",550,"43.csv","","null","resources/maskTrios/BBA3.jpg","null","",NA,NA,NA,NA,""
"image-keyboard-response",391,283583,"0.0-3.126-2.126","muaxeh9xszaakkw",550,"43.csv","","null","resources/images/coin2.png","null","",NA,NA,NA,NA,""
"image-keyboard-response",392,284754,"0.0-3.127-0.127","muaxeh9xszaakkw",550,"43.csv","","1169.2000000029802","resources/trios/L2T4A2.jpg","39","restless",0.6,0.6,0.9,0.40159630919656,"true"
"image-keyboard-response",393,285160,"0.0-3.127-1.127","muaxeh9xszaakkw",550,"43.csv","","null","resources/maskTrios/BBA2.jpg","null","",NA,NA,NA,NA,""
"image-keyboard-response",394,286364,"0.0-3.127-2.127","muaxeh9xszaakkw",550,"43.csv","","null","resources/images/coin2.png","null","",NA,NA,NA,NA,""
"image-keyboard-response",395,286622,"0.0-3.128-0.128","muaxeh9xszaakkw",550,"43.csv","","257","resources/trios/L2T4A2.jpg","38","restless",0.6,0.6,0.9,0.359182430661194,"true"
"image-keyboard-response",396,287028,"0.0-3.128-1.128","muaxeh9xszaakkw",550,"43.csv","","null","resources/maskTrios/BT4B.jpg","null","",NA,NA,NA,NA,""
"image-keyboard-response",397,288233,"0.0-3.128-2.128","muaxeh9xszaakkw",550,"43.csv","","null","resources/images/coin2.png","null","",NA,NA,NA,NA,""
"image-keyboard-response",398,288554,"0.0-3.129-0.129","muaxeh9xszaakkw",550,"43.csv","","318.6000000014901","resources/trios/L1T1A2.jpg","37","restless",0.6,0.6,0.9,0.979000181527327,"false"
"image-keyboard-response",399,288958,"0.0-3.129-1.129","muaxeh9xszaakkw",550,"43.csv","","null","resources/maskTrios/L1BB.jpg","null","",NA,NA,NA,NA,""
"image-keyboard-response",400,290163,"0.0-3.129-2.129","muaxeh9xszaakkw",550,"43.csv","","null","resources/images/fishbone.png","null","",NA,NA,NA,NA,""
"image-keyboard-response",401,290425,"0.0-3.130-0.130","muaxeh9xszaakkw",550,"43.csv","","259.30000000447035","resources/trios/L1T4A3.jpg","37","restless",0.6,0.6,0.9,0.348385181036085,"true"
"image-keyboard-response",402,290831,"0.0-3.130-1.130","muaxeh9xszaakkw",550,"43.csv","","null","resources/maskTrios/L1BB.jpg","null","",NA,NA,NA,NA,""
"image-keyboard-response",403,292040,"0.0-3.130-2.130","muaxeh9xszaakkw",550,"43.csv","","null","resources/images/coin2.png","null","",NA,NA,NA,NA,""
"image-keyboard-response",404,292078,"0.0-3.131-0.131","muaxeh9xszaakkw",550,"43.csv","","35.20000000298023","resources/trios/L2T4A3.jpg","37","restless",0.5,0.6,0.9,0.354385090425452,"true"
"image-keyboard-response",405,292481,"0.0-3.131-1.131","muaxeh9xszaakkw",550,"43.csv","","null","resources/maskTrios/L2BB.jpg","null","",NA,NA,NA,NA,""
"image-keyboard-response",406,293683,"0.0-3.131-2.131","muaxeh9xszaakkw",550,"43.csv","","null","resources/images/coin2.png","null","",NA,NA,NA,NA,""
"image-keyboard-response",407,293980,"0.0-3.132-0.132","muaxeh9xszaakkw",550,"43.csv","","294.5","resources/trios/L2T4A3.jpg","39","restless",0.4,0.6,0.9,0.665077735637671,"true"
"image-keyboard-response",408,294387,"0.0-3.132-1.132","muaxeh9xszaakkw",550,"43.csv","","null","resources/maskTrios/BBA3.jpg","null","",NA,NA,NA,NA,""
"image-keyboard-response",409,295593,"0.0-3.132-2.132","muaxeh9xszaakkw",550,"43.csv","","null","resources/images/coin2.png","null","",NA,NA,NA,NA,""
"image-keyboard-response",410,295918,"0.0-3.133-0.133","muaxeh9xszaakkw",550,"43.csv","","323.5","resources/trios/L1T4A3.jpg","39","restless",0.4,0.6,0.9,0.137074296376278,"true"
"image-keyboard-response",411,296320,"0.0-3.133-1.133","muaxeh9xszaakkw",550,"43.csv","","null","resources/maskTrios/BBA3.jpg","null","",NA,NA,NA,NA,""
"image-keyboard-response",412,297524,"0.0-3.133-2.133","muaxeh9xszaakkw",550,"43.csv","","null","resources/images/coin2.png","null","",NA,NA,NA,NA,""
"image-keyboard-response",413,297726,"0.0-3.134-0.134","muaxeh9xszaakkw",550,"43.csv","","200.19999999552965","resources/trios/L2T1A3.jpg","38","restless",0.4,0.6,0.8,0.648574745586012,"false"
"image-keyboard-response",414,298131,"0.0-3.134-1.134","muaxeh9xszaakkw",550,"43.csv","","null","resources/maskTrios/BT1B.jpg","null","",NA,NA,NA,NA,""
"image-keyboard-response",415,299334,"0.0-3.134-2.134","muaxeh9xszaakkw",550,"43.csv","","null","resources/images/fishbone.png","null","",NA,NA,NA,NA,""
"image-keyboard-response",416,299598,"0.0-3.135-0.135","muaxeh9xszaakkw",550,"43.csv","","262.1000000014901","resources/trios/L1T1A2.jpg","38","restless",0.4,0.6,0.8,0.512605592016107,"true"
"image-keyboard-response",417,300004,"0.0-3.135-1.135","muaxeh9xszaakkw",550,"43.csv","","null","resources/maskTrios/BT1B.jpg","null","",NA,NA,NA,NA,""
"image-keyboard-response",418,301207,"0.0-3.135-2.135","muaxeh9xszaakkw",550,"43.csv","","null","resources/images/coin2.png","null","",NA,NA,NA,NA,""
"image-keyboard-response",419,301582,"0.0-3.136-0.136","muaxeh9xszaakkw",550,"43.csv","","372.3999999985099","resources/trios/L2T1A3.jpg","37","restless",0.4,0.6,0.8,0.728530160349461,"false"
"image-keyboard-response",420,301988,"0.0-3.136-1.136","muaxeh9xszaakkw",550,"43.csv","","null","resources/maskTrios/L2BB.jpg","null","",NA,NA,NA,NA,""
"image-keyboard-response",421,303190,"0.0-3.136-2.136","muaxeh9xszaakkw",550,"43.csv","","null","resources/images/fishbone.png","null","",NA,NA,NA,NA,""
"image-keyboard-response",422,303897,"0.0-3.137-0.137","muaxeh9xszaakkw",550,"43.csv","","705.3999999985099","resources/trios/L2T1A3.jpg","37","restless",0.4,0.5,0.8,0.518072956215462,"false"
"image-keyboard-response",423,304300,"0.0-3.137-1.137","muaxeh9xszaakkw",550,"43.csv","","null","resources/maskTrios/L2BB.jpg","null","",NA,NA,NA,NA,""
"image-keyboard-response",424,305502,"0.0-3.137-2.137","muaxeh9xszaakkw",550,"43.csv","","null","resources/images/fishbone.png","null","",NA,NA,NA,NA,""
"image-keyboard-response",425,305796,"0.0-3.138-0.138","muaxeh9xszaakkw",550,"43.csv","","291.40000000596046","resources/trios/L1T4A2.jpg","37","restless",0.4,0.5,0.7,0.691588640911514,"false"
"image-keyboard-response",426,306197,"0.0-3.138-1.138","muaxeh9xszaakkw",550,"43.csv","","null","resources/maskTrios/L1BB.jpg","null","",NA,NA,NA,NA,""
"image-keyboard-response",427,307400,"0.0-3.138-2.138","muaxeh9xszaakkw",550,"43.csv","","null","resources/images/fishbone.png","null","",NA,NA,NA,NA,""
"image-keyboard-response",428,307660,"0.0-3.139-0.139","muaxeh9xszaakkw",550,"43.csv","","258.20000000298023","resources/trios/L2T4A3.jpg","39","restless",0.4,0.5,0.7,0.579335176652492,"true"
"image-keyboard-response",429,308069,"0.0-3.139-1.139","muaxeh9xszaakkw",550,"43.csv","","null","resources/maskTrios/BBA3.jpg","null","",NA,NA,NA,NA,""
"image-keyboard-response",430,309277,"0.0-3.139-2.139","muaxeh9xszaakkw",550,"43.csv","","null","resources/images/coin2.png","null","",NA,NA,NA,NA,""
"image-keyboard-response",431,309518,"0.0-3.140-0.140","muaxeh9xszaakkw",550,"43.csv","","239.10000000149012","resources/trios/L2T4A2.jpg","39","restless",0.4,0.6,0.7,0.935078591885307,"false"
"image-keyboard-response",432,309925,"0.0-3.140-1.140","muaxeh9xszaakkw",550,"43.csv","","null","resources/maskTrios/BBA2.jpg","null","",NA,NA,NA,NA,""
"image-keyboard-response",433,311133,"0.0-3.140-2.140","muaxeh9xszaakkw",550,"43.csv","","null","resources/images/fishbone.png","null","",NA,NA,NA,NA,""
"image-keyboard-response",434,311247,"0.0-3.141-0.141","muaxeh9xszaakkw",550,"43.csv","","112.29999999701977","resources/trios/L1T4A2.jpg","38","restless",0.4,0.5,0.7,0.986011886633424,"false"
"image-keyboard-response",435,311650,"0.0-3.141-1.141","muaxeh9xszaakkw",550,"43.csv","","null","resources/maskTrios/BT4B.jpg","null","",NA,NA,NA,NA,""
"image-keyboard-response",436,312853,"0.0-3.141-2.141","muaxeh9xszaakkw",550,"43.csv","","null","resources/images/fishbone.png","null","",NA,NA,NA,NA,""
"image-keyboard-response",437,313015,"0.0-3.142-0.142","muaxeh9xszaakkw",550,"43.csv","","160.19999999552965","resources/trios/L2T1A2.jpg","39","restless",0.4,0.5,0.7,0.922720179668837,"false"
"image-keyboard-response",438,313418,"0.0-3.142-1.142","muaxeh9xszaakkw",550,"43.csv","","null","resources/maskTrios/BBA2.jpg","null","",NA,NA,NA,NA,""
"image-keyboard-response",439,314623,"0.0-3.142-2.142","muaxeh9xszaakkw",550,"43.csv","","null","resources/images/fishbone.png","null","",NA,NA,NA,NA,""
"image-keyboard-response",440,314876,"0.0-3.143-0.143","muaxeh9xszaakkw",550,"43.csv","","249.5","resources/trios/L2T1A2.jpg","37","restless",0.3,0.5,0.7,0.954910026496452,"false"
"image-keyboard-response",441,315282,"0.0-3.143-1.143","muaxeh9xszaakkw",550,"43.csv","","null","resources/maskTrios/L2BB.jpg","null","",NA,NA,NA,NA,""
"image-keyboard-response",442,316485,"0.0-3.143-2.143","muaxeh9xszaakkw",550,"43.csv","","null","resources/images/fishbone.png","null","",NA,NA,NA,NA,""
"image-keyboard-response",443,316804,"0.0-3.144-0.144","muaxeh9xszaakkw",550,"43.csv","","316.79999999701977","resources/trios/L2T1A3.jpg","37","restless",0.3,0.5,0.7,0.141065361299866,"true"
"image-keyboard-response",444,317206,"0.0-3.144-1.144","muaxeh9xszaakkw",550,"43.csv","","null","resources/maskTrios/L2BB.jpg","null","",NA,NA,NA,NA,""
"image-keyboard-response",445,318412,"0.0-3.144-2.144","muaxeh9xszaakkw",550,"43.csv","","null","resources/images/coin2.png","null","",NA,NA,NA,NA,""
"image-keyboard-response",446,318776,"0.0-3.145-0.145","muaxeh9xszaakkw",550,"43.csv","","362.30000000447035","resources/trios/L1T1A2.jpg","37","restless",0.3,0.5,0.7,0.67908190215279,"false"
"image-keyboard-response",447,319184,"0.0-3.145-1.145","muaxeh9xszaakkw",550,"43.csv","","null","resources/maskTrios/L1BB.jpg","null","",NA,NA,NA,NA,""
"image-keyboard-response",448,320389,"0.0-3.145-2.145","muaxeh9xszaakkw",550,"43.csv","","null","resources/images/fishbone.png","null","",NA,NA,NA,NA,""
"image-keyboard-response",449,320622,"0.0-3.146-0.146","muaxeh9xszaakkw",550,"43.csv","","230.89999999850988","resources/trios/L2T4A2.jpg","39","restless",0.2,0.5,0.7,0.52817052723639,"true"
"image-keyboard-response",450,321023,"0.0-3.146-1.146","muaxeh9xszaakkw",550,"43.csv","","null","resources/maskTrios/BBA2.jpg","null","",NA,NA,NA,NA,""
"image-keyboard-response",451,322226,"0.0-3.146-2.146","muaxeh9xszaakkw",550,"43.csv","","null","resources/images/coin2.png","null","",NA,NA,NA,NA,""
"image-keyboard-response",452,323057,"0.0-3.147-0.147","muaxeh9xszaakkw",550,"43.csv","","829.7999999970198","resources/trios/L1T4A3.jpg","39","restless",0.2,0.5,0.7,0.116594267638683,"true"
"image-keyboard-response",453,323460,"0.0-3.147-1.147","muaxeh9xszaakkw",550,"43.csv","","null","resources/maskTrios/BBA3.jpg","null","",NA,NA,NA,NA,""
"image-keyboard-response",454,324666,"0.0-3.147-2.147","muaxeh9xszaakkw",550,"43.csv","","null","resources/images/coin2.png","null","",NA,NA,NA,NA,""
"image-keyboard-response",455,325050,"0.0-3.148-0.148","muaxeh9xszaakkw",550,"43.csv","","382.20000000298023","resources/trios/L1T1A3.jpg","38","restless",0.2,0.5,0.7,0.0605193576743854,"true"
"image-keyboard-response",456,325455,"0.0-3.148-1.148","muaxeh9xszaakkw",550,"43.csv","","null","resources/maskTrios/BT1B.jpg","null","",NA,NA,NA,NA,""
"image-keyboard-response",457,326663,"0.0-3.148-2.148","muaxeh9xszaakkw",550,"43.csv","","null","resources/images/coin2.png","null","",NA,NA,NA,NA,""
"image-keyboard-response",458,326932,"0.0-3.149-0.149","muaxeh9xszaakkw",550,"43.csv","","267.70000000298023","resources/trios/L1T4A3.jpg","38","restless",0.2,0.5,0.7,0.449439942364199,"true"
"image-keyboard-response",459,327337,"0.0-3.149-1.149","muaxeh9xszaakkw",550,"43.csv","","null","resources/maskTrios/BT4B.jpg","null","",NA,NA,NA,NA,""
"image-keyboard-response",460,328543,"0.0-3.149-2.149","muaxeh9xszaakkw",550,"43.csv","","null","resources/images/coin2.png","null","",NA,NA,NA,NA,""
"image-keyboard-response",461,328916,"0.0-3.150-0.150","muaxeh9xszaakkw",550,"43.csv","","370.6000000014901","resources/trios/L2T1A3.jpg","37","restless",0.2,0.5,0.7,0.415666561823183,"false"
"image-keyboard-response",462,329321,"0.0-3.150-1.150","muaxeh9xszaakkw",550,"43.csv","","null","resources/maskTrios/L2BB.jpg","null","",NA,NA,NA,NA,""
"image-keyboard-response",463,330524,"0.0-3.150-2.150","muaxeh9xszaakkw",550,"43.csv","","null","resources/images/fishbone.png","null","",NA,NA,NA,NA,""
"image-keyboard-response",464,330796,"0.0-3.151-0.151","muaxeh9xszaakkw",550,"43.csv","","269.20000000298023","resources/trios/L2T4A3.jpg","37","restless",0.2,0.5,0.7,0.514277991635766,"false"
"image-keyboard-response",465,331198,"0.0-3.151-1.151","muaxeh9xszaakkw",550,"43.csv","","null","resources/maskTrios/L2BB.jpg","null","",NA,NA,NA,NA,""
"image-keyboard-response",466,332404,"0.0-3.151-2.151","muaxeh9xszaakkw",550,"43.csv","","null","resources/images/fishbone.png","null","",NA,NA,NA,NA,""
"image-keyboard-response",467,332583,"0.0-3.152-0.152","muaxeh9xszaakkw",550,"43.csv","","177.10000000149012","resources/trios/L2T4A3.jpg","37","restless",0.2,0.4,0.7,0.657336204615545,"false"
"image-keyboard-response",468,332988,"0.0-3.152-1.152","muaxeh9xszaakkw",550,"43.csv","","null","resources/maskTrios/L2BB.jpg","null","",NA,NA,NA,NA,""
"image-keyboard-response",469,334193,"0.0-3.152-2.152","muaxeh9xszaakkw",550,"43.csv","","null","resources/images/fishbone.png","null","",NA,NA,NA,NA,""
"image-keyboard-response",470,334429,"0.0-3.153-0.153","muaxeh9xszaakkw",550,"43.csv","","234.10000000149012","resources/trios/L1T4A2.jpg","37","restless",0.2,0.4,0.7,0.937888193720045,"false"
"image-keyboard-response",471,334831,"0.0-3.153-1.153","muaxeh9xszaakkw",550,"43.csv","","null","resources/maskTrios/L1BB.jpg","null","",NA,NA,NA,NA,""
"image-keyboard-response",472,336035,"0.0-3.153-2.153","muaxeh9xszaakkw",550,"43.csv","","null","resources/images/fishbone.png","null","",NA,NA,NA,NA,""
"image-keyboard-response",473,336329,"0.0-3.154-0.154","muaxeh9xszaakkw",550,"43.csv","","292.30000000447035","resources/trios/L1T4A3.jpg","39","restless",0.1,0.4,0.7,0.403489889677969,"true"
"image-keyboard-response",474,336732,"0.0-3.154-1.154","muaxeh9xszaakkw",550,"43.csv","","null","resources/maskTrios/BBA3.jpg","null","",NA,NA,NA,NA,""
"image-keyboard-response",475,337939,"0.0-3.154-2.154","muaxeh9xszaakkw",550,"43.csv","","null","resources/images/coin2.png","null","",NA,NA,NA,NA,""
"image-keyboard-response",476,338291,"0.0-3.155-0.155","muaxeh9xszaakkw",550,"43.csv","","350","resources/trios/L2T4A2.jpg","39","restless",0.1,0.4,0.7,0.632374340097924,"true"
"image-keyboard-response",477,338693,"0.0-3.155-1.155","muaxeh9xszaakkw",550,"43.csv","","null","resources/maskTrios/BBA2.jpg","null","",NA,NA,NA,NA,""
"image-keyboard-response",478,339899,"0.0-3.155-2.155","muaxeh9xszaakkw",550,"43.csv","","null","resources/images/coin2.png","null","",NA,NA,NA,NA,""
"image-keyboard-response",479,340167,"0.0-3.156-0.156","muaxeh9xszaakkw",550,"43.csv","","266","resources/trios/L1T1A3.jpg","38","restless",0.2,0.5,0.7,0.567691374429499,"false"
"image-keyboard-response",480,340569,"0.0-3.156-1.156","muaxeh9xszaakkw",550,"43.csv","","null","resources/maskTrios/BT1B.jpg","null","",NA,NA,NA,NA,""
"image-keyboard-response",481,341774,"0.0-3.156-2.156","muaxeh9xszaakkw",550,"43.csv","","null","resources/images/fishbone.png","null","",NA,NA,NA,NA,""
"image-keyboard-response",482,342010,"0.0-3.157-0.157","muaxeh9xszaakkw",550,"43.csv","","234.5","resources/trios/L1T1A3.jpg","39","restless",0.1,0.5,0.7,0.241064308775181,"true"
"image-keyboard-response",483,342416,"0.0-3.157-1.157","muaxeh9xszaakkw",550,"43.csv","","null","resources/maskTrios/BBA3.jpg","null","",NA,NA,NA,NA,""
"image-keyboard-response",484,343620,"0.0-3.157-2.157","muaxeh9xszaakkw",550,"43.csv","","null","resources/images/coin2.png","null","",NA,NA,NA,NA,""
"image-keyboard-response",485,343848,"0.0-3.158-0.158","muaxeh9xszaakkw",550,"43.csv","","225.89999999850988","resources/trios/L1T1A3.jpg","39","restless",0.1,0.5,0.7,0.962827038577537,"false"
"image-keyboard-response",486,344254,"0.0-3.158-1.158","muaxeh9xszaakkw",550,"43.csv","","null","resources/maskTrios/BBA3.jpg","null","",NA,NA,NA,NA,""
"image-keyboard-response",487,345460,"0.0-3.158-2.158","muaxeh9xszaakkw",550,"43.csv","","null","resources/images/fishbone.png","null","",NA,NA,NA,NA,""
"image-keyboard-response",488,345733,"0.0-3.159-0.159","muaxeh9xszaakkw",550,"43.csv","","270.90000000596046","resources/trios/L2T4A2.jpg","37","restless",0.1,0.5,0.7,0.324267753570451,"false"
"image-keyboard-response",489,346137,"0.0-3.159-1.159","muaxeh9xszaakkw",550,"43.csv","","null","resources/maskTrios/L2BB.jpg","null","",NA,NA,NA,NA,""
"image-keyboard-response",490,347342,"0.0-3.159-2.159","muaxeh9xszaakkw",550,"43.csv","","null","resources/images/fishbone.png","null","",NA,NA,NA,NA,""
"image-keyboard-response",491,347404,"0.0-3.160-0.160","muaxeh9xszaakkw",550,"43.csv","","60.399999998509884","resources/trios/L1T1A3.jpg","38","restless",0.1,0.5,0.7,0.667634448310929,"false"
"image-keyboard-response",492,347811,"0.0-3.160-1.160","muaxeh9xszaakkw",550,"43.csv","","null","resources/maskTrios/BT1B.jpg","null","",NA,NA,NA,NA,""
"image-keyboard-response",493,349017,"0.0-3.160-2.160","muaxeh9xszaakkw",550,"43.csv","","null","resources/images/fishbone.png","null","",NA,NA,NA,NA,""
"image-keyboard-response",494,349608,"0.0-3.161-0.161","muaxeh9xszaakkw",550,"43.csv","","589.8000000044703","resources/trios/L1T4A2.jpg","37","restless",0.1,0.5,0.7,0.161425195762143,"false"
"image-keyboard-response",495,350013,"0.0-3.161-1.161","muaxeh9xszaakkw",550,"43.csv","","null","resources/maskTrios/L1BB.jpg","null","",NA,NA,NA,NA,""
"image-keyboard-response",496,351216,"0.0-3.161-2.161","muaxeh9xszaakkw",550,"43.csv","","null","resources/images/fishbone.png","null","",NA,NA,NA,NA,""
"image-keyboard-response",497,351490,"0.0-3.162-0.162","muaxeh9xszaakkw",550,"43.csv","","272.30000000447035","resources/trios/L1T1A2.jpg","37","restless",0.1,0.5,0.7,0.401386754611015,"false"
"image-keyboard-response",498,351896,"0.0-3.162-1.162","muaxeh9xszaakkw",550,"43.csv","","null","resources/maskTrios/L1BB.jpg","null","",NA,NA,NA,NA,""
"image-keyboard-response",499,353101,"0.0-3.162-2.162","muaxeh9xszaakkw",550,"43.csv","","null","resources/images/fishbone.png","null","",NA,NA,NA,NA,""
"image-keyboard-response",500,353620,"0.0-3.163-0.163","muaxeh9xszaakkw",550,"43.csv","","516.8999999985099","resources/trios/L2T1A2.jpg","37","restless",0.1,0.5,0.7,0.789181147954973,"false"
"image-keyboard-response",501,354024,"0.0-3.163-1.163","muaxeh9xszaakkw",550,"43.csv","","null","resources/maskTrios/L2BB.jpg","null","",NA,NA,NA,NA,""
"image-keyboard-response",502,355227,"0.0-3.163-2.163","muaxeh9xszaakkw",550,"43.csv","","null","resources/images/fishbone.png","null","",NA,NA,NA,NA,""
"image-keyboard-response",503,355519,"0.0-3.164-0.164","muaxeh9xszaakkw",550,"43.csv","","290.20000000298023","resources/trios/L1T4A2.jpg","38","restless",0.1,0.5,0.7,0.752352139900966,"false"
"image-keyboard-response",504,355922,"0.0-3.164-1.164","muaxeh9xszaakkw",550,"43.csv","","null","resources/maskTrios/BT4B.jpg","null","",NA,NA,NA,NA,""
"image-keyboard-response",505,357128,"0.0-3.164-2.164","muaxeh9xszaakkw",550,"43.csv","","null","resources/images/fishbone.png","null","",NA,NA,NA,NA,""
"image-keyboard-response",506,357392,"0.0-3.165-0.165","muaxeh9xszaakkw",550,"43.csv","","262.1000000014901","resources/trios/L2T4A3.jpg","37","restless",0.1,0.5,0.7,0.804745739121397,"false"
"image-keyboard-response",507,357797,"0.0-3.165-1.165","muaxeh9xszaakkw",550,"43.csv","","null","resources/maskTrios/L2BB.jpg","null","",NA,NA,NA,NA,""
"image-keyboard-response",508,359000,"0.0-3.165-2.165","muaxeh9xszaakkw",550,"43.csv","","null","resources/images/fishbone.png","null","",NA,NA,NA,NA,""
"image-keyboard-response",509,359360,"0.0-3.166-0.166","muaxeh9xszaakkw",550,"43.csv","","357.19999999552965","resources/trios/L1T4A3.jpg","39","restless",0.1,0.6,0.7,0.222131490410516,"true"
"image-keyboard-response",510,359766,"0.0-3.166-1.166","muaxeh9xszaakkw",550,"43.csv","","null","resources/maskTrios/BBA3.jpg","null","",NA,NA,NA,NA,""
"image-keyboard-response",511,360968,"0.0-3.166-2.166","muaxeh9xszaakkw",550,"43.csv","","null","resources/images/coin2.png","null","",NA,NA,NA,NA,""
"image-keyboard-response",512,361368,"0.0-3.167-0.167","muaxeh9xszaakkw",550,"43.csv","","398.20000000298023","resources/trios/L2T4A3.jpg","39","restless",0.1,0.6,0.7,0.787468485878355,"false"
"image-keyboard-response",513,361775,"0.0-3.167-1.167","muaxeh9xszaakkw",550,"43.csv","","null","resources/maskTrios/BBA3.jpg","null","",NA,NA,NA,NA,""
"image-keyboard-response",514,362978,"0.0-3.167-2.167","muaxeh9xszaakkw",550,"43.csv","","null","resources/images/fishbone.png","null","",NA,NA,NA,NA,""
"image-keyboard-response",515,363642,"0.0-3.168-0.168","muaxeh9xszaakkw",550,"43.csv","","661.7999999970198","resources/trios/L1T1A2.jpg","37","restless",0.1,0.6,0.7,0.0736738000295165,"true"
"image-keyboard-response",516,364047,"0.0-3.168-1.168","muaxeh9xszaakkw",550,"43.csv","","null","resources/maskTrios/L1BB.jpg","null","",NA,NA,NA,NA,""
"image-keyboard-response",517,365252,"0.0-3.168-2.168","muaxeh9xszaakkw",550,"43.csv","","null","resources/images/coin2.png","null","",NA,NA,NA,NA,""
"image-keyboard-response",518,365664,"0.0-3.169-0.169","muaxeh9xszaakkw",550,"43.csv","","409.80000000447035","resources/trios/L1T4A3.jpg","37","restless",0.1,0.7,0.6,0.517698110940096,"false"
"image-keyboard-response",519,366069,"0.0-3.169-1.169","muaxeh9xszaakkw",550,"43.csv","","null","resources/maskTrios/L1BB.jpg","null","",NA,NA,NA,NA,""
"image-keyboard-response",520,367271,"0.0-3.169-2.169","muaxeh9xszaakkw",550,"43.csv","","null","resources/images/fishbone.png","null","",NA,NA,NA,NA,""
"image-keyboard-response",521,367513,"0.0-3.170-0.170","muaxeh9xszaakkw",550,"43.csv","","240.20000000298023","resources/trios/L1T1A2.jpg","38","restless",0.1,0.7,0.6,0.778832105752605,"false"
"image-keyboard-response",522,367918,"0.0-3.170-1.170","muaxeh9xszaakkw",550,"43.csv","","null","resources/maskTrios/BT1B.jpg","null","",NA,NA,NA,NA,""
"image-keyboard-response",523,369124,"0.0-3.170-2.170","muaxeh9xszaakkw",550,"43.csv","","null","resources/images/fishbone.png","null","",NA,NA,NA,NA,""
"image-keyboard-response",524,369177,"0.0-3.171-0.171","muaxeh9xszaakkw",550,"43.csv","","50.600000001490116","resources/trios/L2T4A3.jpg","39","restless",0.1,0.7,0.5,0.718831652353105,"false"
"image-keyboard-response",525,369581,"0.0-3.171-1.171","muaxeh9xszaakkw",550,"43.csv","","null","resources/maskTrios/BBA3.jpg","null","",NA,NA,NA,NA,""
"image-keyboard-response",526,370786,"0.0-3.171-2.171","muaxeh9xszaakkw",550,"43.csv","","null","resources/images/fishbone.png","null","",NA,NA,NA,NA,""
"image-keyboard-response",527,371190,"0.0-3.172-0.172","muaxeh9xszaakkw",550,"43.csv","","402.5","resources/trios/L2T1A3.jpg","37","restless",0.1,0.7,0.5,0.582037078887025,"false"
"image-keyboard-response",528,371596,"0.0-3.172-1.172","muaxeh9xszaakkw",550,"43.csv","","null","resources/maskTrios/L2BB.jpg","null","",NA,NA,NA,NA,""
"image-keyboard-response",529,372801,"0.0-3.172-2.172","muaxeh9xszaakkw",550,"43.csv","","null","resources/images/fishbone.png","null","",NA,NA,NA,NA,""
"image-keyboard-response",530,373029,"0.0-3.173-0.173","muaxeh9xszaakkw",550,"43.csv","","226.20000000298023","resources/trios/L1T1A2.jpg","38","restless",0.1,0.8,0.5,0.35056467824699,"true"
"image-keyboard-response",531,373436,"0.0-3.173-1.173","muaxeh9xszaakkw",550,"43.csv","","null","resources/maskTrios/BT1B.jpg","null","",NA,NA,NA,NA,""
"image-keyboard-response",532,374638,"0.0-3.173-2.173","muaxeh9xszaakkw",550,"43.csv","","null","resources/images/coin2.png","null","",NA,NA,NA,NA,""
"image-keyboard-response",533,374930,"0.0-3.174-0.174","muaxeh9xszaakkw",550,"43.csv","","290","resources/trios/L1T4A2.jpg","38","restless",0.2,0.8,0.5,0.530715932986685,"true"
"image-keyboard-response",534,375334,"0.0-3.174-1.174","muaxeh9xszaakkw",550,"43.csv","","null","resources/maskTrios/BT4B.jpg","null","",NA,NA,NA,NA,""
"image-keyboard-response",535,376538,"0.0-3.174-2.174","muaxeh9xszaakkw",550,"43.csv","","null","resources/images/coin2.png","null","",NA,NA,NA,NA,""
"image-keyboard-response",536,376837,"0.0-3.175-0.175","muaxeh9xszaakkw",550,"43.csv","","297.6000000014901","resources/trios/L2T4A3.jpg","38","restless",0.2,0.8,0.5,0.0498503593064494,"true"
"image-keyboard-response",537,377242,"0.0-3.175-1.175","muaxeh9xszaakkw",550,"43.csv","","null","resources/maskTrios/BT4B.jpg","null","",NA,NA,NA,NA,""
"image-keyboard-response",538,378449,"0.0-3.175-2.175","muaxeh9xszaakkw",550,"43.csv","","null","resources/images/coin2.png","null","",NA,NA,NA,NA,""
"image-keyboard-response",539,378743,"0.0-3.176-0.176","muaxeh9xszaakkw",550,"43.csv","","292.5","resources/trios/L2T4A2.jpg","38","restless",0.2,0.7,0.5,0.80412988864422,"false"
"image-keyboard-response",540,379148,"0.0-3.176-1.176","muaxeh9xszaakkw",550,"43.csv","","null","resources/maskTrios/BT4B.jpg","null","",NA,NA,NA,NA,""
"image-keyboard-response",541,380353,"0.0-3.176-2.176","muaxeh9xszaakkw",550,"43.csv","","null","resources/images/fishbone.png","null","",NA,NA,NA,NA,""
"image-keyboard-response",542,380598,"0.0-3.177-0.177","muaxeh9xszaakkw",550,"43.csv","","242.5","resources/trios/L2T1A3.jpg","39","restless",0.2,0.7,0.5,0.822128638489964,"false"
"image-keyboard-response",543,381001,"0.0-3.177-1.177","muaxeh9xszaakkw",550,"43.csv","","null","resources/maskTrios/BBA3.jpg","null","",NA,NA,NA,NA,""
"image-keyboard-response",544,382206,"0.0-3.177-2.177","muaxeh9xszaakkw",550,"43.csv","","null","resources/images/fishbone.png","null","",NA,NA,NA,NA,""
"image-keyboard-response",545,382656,"0.0-3.178-0.178","muaxeh9xszaakkw",550,"43.csv","","448.3999999985099","resources/trios/L2T4A2.jpg","37","restless",0.2,0.7,0.5,0.159208090667175,"true"
"image-keyboard-response",546,383065,"0.0-3.178-1.178","muaxeh9xszaakkw",550,"43.csv","","null","resources/maskTrios/L2BB.jpg","null","",NA,NA,NA,NA,""
"image-keyboard-response",547,384270,"0.0-3.178-2.178","muaxeh9xszaakkw",550,"43.csv","","null","resources/images/coin2.png","null","",NA,NA,NA,NA,""
"image-keyboard-response",548,384649,"0.0-3.179-0.179","muaxeh9xszaakkw",550,"43.csv","","377.59999999403954","resources/trios/L1T4A3.jpg","37","restless",0.2,0.7,0.5,0.613454667876228,"false"
"image-keyboard-response",549,385057,"0.0-3.179-1.179","muaxeh9xszaakkw",550,"43.csv","","null","resources/maskTrios/L1BB.jpg","null","",NA,NA,NA,NA,""
"image-keyboard-response",550,386262,"0.0-3.179-2.179","muaxeh9xszaakkw",550,"43.csv","","null","resources/images/fishbone.png","null","",NA,NA,NA,NA,""
"image-keyboard-response",551,386603,"0.0-3.180-0.180","muaxeh9xszaakkw",550,"43.csv","","339.1000000014901","resources/trios/L1T1A2.jpg","39","restless",0.2,0.7,0.5,0.740494711113313,"false"
"image-keyboard-response",552,387009,"0.0-3.180-1.180","muaxeh9xszaakkw",550,"43.csv","","null","resources/maskTrios/BBA2.jpg","null","",NA,NA,NA,NA,""
"image-keyboard-response",553,388214,"0.0-3.180-2.180","muaxeh9xszaakkw",550,"43.csv","","null","resources/images/fishbone.png","null","",NA,NA,NA,NA,""
"image-keyboard-response",554,388723,"0.0-3.181-0.181","muaxeh9xszaakkw",550,"43.csv","","507.20000000298023","resources/trios/L2T4A2.jpg","38","restless",0.2,0.7,0.5,0.474031376145357,"true"
"image-keyboard-response",555,389129,"0.0-3.181-1.181","muaxeh9xszaakkw",550,"43.csv","","null","resources/maskTrios/BT4B.jpg","null","",NA,NA,NA,NA,""
"image-keyboard-response",556,390334,"0.0-3.181-2.181","muaxeh9xszaakkw",550,"43.csv","","null","resources/images/coin2.png","null","",NA,NA,NA,NA,""
"image-keyboard-response",557,390799,"0.0-3.182-0.182","muaxeh9xszaakkw",550,"43.csv","","462.79999999701977","resources/trios/L1T4A3.jpg","37","restless",0.2,0.7,0.5,0.05762808348592,"true"
"image-keyboard-response",558,391204,"0.0-3.182-1.182","muaxeh9xszaakkw",550,"43.csv","","null","resources/maskTrios/L1BB.jpg","null","",NA,NA,NA,NA,""
"image-keyboard-response",559,392408,"0.0-3.182-2.182","muaxeh9xszaakkw",550,"43.csv","","null","resources/images/coin2.png","null","",NA,NA,NA,NA,""
"image-keyboard-response",560,393463,"0.0-3.183-0.183","muaxeh9xszaakkw",550,"43.csv","","1054.1000000014901","resources/trios/L1T4A2.jpg","37","restless",0.2,0.6,0.5,0.373330520342224,"false"
"image-keyboard-response",561,393869,"0.0-3.183-1.183","muaxeh9xszaakkw",550,"43.csv","","null","resources/maskTrios/L1BB.jpg","null","",NA,NA,NA,NA,""
"image-keyboard-response",562,395075,"0.0-3.183-2.183","muaxeh9xszaakkw",550,"43.csv","","null","resources/images/fishbone.png","null","",NA,NA,NA,NA,""
"image-keyboard-response",563,395515,"0.0-3.184-0.184","muaxeh9xszaakkw",550,"43.csv","","438.29999999701977","resources/trios/L2T4A2.jpg","39","restless",0.2,0.6,0.5,0.263820975456985,"true"
"image-keyboard-response",564,395920,"0.0-3.184-1.184","muaxeh9xszaakkw",550,"43.csv","","null","resources/maskTrios/BBA2.jpg","null","",NA,NA,NA,NA,""
"image-keyboard-response",565,397124,"0.0-3.184-2.184","muaxeh9xszaakkw",550,"43.csv","","null","resources/images/coin2.png","null","",NA,NA,NA,NA,""
"image-keyboard-response",566,397678,"0.0-3.185-0.185","muaxeh9xszaakkw",550,"43.csv","","553.1000000014901","resources/trios/L2T1A3.jpg","39","restless",0.2,0.6,0.5,0.179972132082696,"true"
"image-keyboard-response",567,398081,"0.0-3.185-1.185","muaxeh9xszaakkw",550,"43.csv","","null","resources/maskTrios/BBA3.jpg","null","",NA,NA,NA,NA,""
"image-keyboard-response",568,399285,"0.0-3.185-2.185","muaxeh9xszaakkw",550,"43.csv","","null","resources/images/coin2.png","null","",NA,NA,NA,NA,""
"image-keyboard-response",569,399815,"0.0-3.186-0.186","muaxeh9xszaakkw",550,"43.csv","","527.6000000014901","resources/trios/L1T1A2.jpg","38","restless",0.2,0.6,0.5,0.177494574662749,"true"
"image-keyboard-response",570,400222,"0.0-3.186-1.186","muaxeh9xszaakkw",550,"43.csv","","null","resources/maskTrios/BT1B.jpg","null","",NA,NA,NA,NA,""
"image-keyboard-response",571,401426,"0.0-3.186-2.186","muaxeh9xszaakkw",550,"43.csv","","null","resources/images/coin2.png","null","",NA,NA,NA,NA,""
"image-keyboard-response",572,401684,"0.0-3.187-0.187","muaxeh9xszaakkw",550,"43.csv","","256.1000000014901","resources/trios/L1T4A3.jpg","38","restless",0.3,0.6,0.5,0.195503723992277,"true"
"image-keyboard-response",573,402091,"0.0-3.187-1.187","muaxeh9xszaakkw",550,"43.csv","","null","resources/maskTrios/BT4B.jpg","null","",NA,NA,NA,NA,""
"image-keyboard-response",574,403296,"0.0-3.187-2.187","muaxeh9xszaakkw",550,"43.csv","","null","resources/images/coin2.png","null","",NA,NA,NA,NA,""
"image-keyboard-response",575,403617,"0.0-3.188-0.188","muaxeh9xszaakkw",550,"43.csv","","319.29999999701977","resources/trios/L2T4A2.jpg","38","restless",0.3,0.6,0.5,0.179063158868974,"true"
"image-keyboard-response",576,404024,"0.0-3.188-1.188","muaxeh9xszaakkw",550,"43.csv","","null","resources/maskTrios/BT4B.jpg","null","",NA,NA,NA,NA,""
"image-keyboard-response",577,405229,"0.0-3.188-2.188","muaxeh9xszaakkw",550,"43.csv","","null","resources/images/coin2.png","null","",NA,NA,NA,NA,""
"image-keyboard-response",578,405597,"0.0-3.189-0.189","muaxeh9xszaakkw",550,"43.csv","","366.1000000014901","resources/trios/L2T4A2.jpg","38","restless",0.3,0.6,0.5,0.778008729549173,"false"
"image-keyboard-response",579,406003,"0.0-3.189-1.189","muaxeh9xszaakkw",550,"43.csv","","null","resources/maskTrios/BT4B.jpg","null","",NA,NA,NA,NA,""
"image-keyboard-response",580,407208,"0.0-3.189-2.189","muaxeh9xszaakkw",550,"43.csv","","null","resources/images/fishbone.png","null","",NA,NA,NA,NA,""
"image-keyboard-response",581,407509,"0.0-3.190-0.190","muaxeh9xszaakkw",550,"43.csv","","298.5","resources/trios/L2T4A3.jpg","37","restless",0.4,0.6,0.5,0.813663788940862,"false"
"image-keyboard-response",582,407914,"0.0-3.190-1.190","muaxeh9xszaakkw",550,"43.csv","","null","resources/maskTrios/L2BB.jpg","null","",NA,NA,NA,NA,""
"image-keyboard-response",583,409119,"0.0-3.190-2.190","muaxeh9xszaakkw",550,"43.csv","","null","resources/images/fishbone.png","null","",NA,NA,NA,NA,""
"image-keyboard-response",584,409207,"0.0-3.191-0.191","muaxeh9xszaakkw",550,"43.csv","","85.09999999403954","resources/trios/L1T1A2.jpg","39","restless",0.4,0.6,0.5,0.827194034508786,"false"
"image-keyboard-response",585,409613,"0.0-3.191-1.191","muaxeh9xszaakkw",550,"43.csv","","null","resources/maskTrios/BBA2.jpg","null","",NA,NA,NA,NA,""
"image-keyboard-response",586,410818,"0.0-3.191-2.191","muaxeh9xszaakkw",550,"43.csv","","null","resources/images/fishbone.png","null","",NA,NA,NA,NA,""
"image-keyboard-response",587,411114,"0.0-3.192-0.192","muaxeh9xszaakkw",550,"43.csv","","294","resources/trios/L2T4A2.jpg","39","restless",0.4,0.6,0.4,0.253120324336851,"true"
"image-keyboard-response",588,411519,"0.0-3.192-1.192","muaxeh9xszaakkw",550,"43.csv","","null","resources/maskTrios/BBA2.jpg","null","",NA,NA,NA,NA,""
"image-keyboard-response",589,412725,"0.0-3.192-2.192","muaxeh9xszaakkw",550,"43.csv","","null","resources/images/coin2.png","null","",NA,NA,NA,NA,""
"image-keyboard-response",590,413128,"0.0-3.193-0.193","muaxeh9xszaakkw",550,"43.csv","","401.3999999985099","resources/trios/L2T1A3.jpg","39","restless",0.4,0.6,0.4,0.0972641142878967,"true"
"image-keyboard-response",591,413533,"0.0-3.193-1.193","muaxeh9xszaakkw",550,"43.csv","","null","resources/maskTrios/BBA3.jpg","null","",NA,NA,NA,NA,""
"image-keyboard-response",592,414736,"0.0-3.193-2.193","muaxeh9xszaakkw",550,"43.csv","","null","resources/images/coin2.png","null","",NA,NA,NA,NA,""
"image-keyboard-response",593,415179,"0.0-3.194-0.194","muaxeh9xszaakkw",550,"43.csv","","441.80000000447035","resources/trios/L2T4A2.jpg","37","restless",0.4,0.5,0.4,0.162719310720955,"true"
"image-keyboard-response",594,415586,"0.0-3.194-1.194","muaxeh9xszaakkw",550,"43.csv","","null","resources/maskTrios/L2BB.jpg","null","",NA,NA,NA,NA,""
"image-keyboard-response",595,416788,"0.0-3.194-2.194","muaxeh9xszaakkw",550,"43.csv","","null","resources/images/coin2.png","null","",NA,NA,NA,NA,""
"image-keyboard-response",596,417082,"0.0-3.195-0.195","muaxeh9xszaakkw",550,"43.csv","","291.3999999985099","resources/trios/L2T4A2.jpg","37","restless",0.4,0.5,0.4,0.469991086710338,"false"
"image-keyboard-response",597,417486,"0.0-3.195-1.195","muaxeh9xszaakkw",550,"43.csv","","null","resources/maskTrios/L2BB.jpg","null","",NA,NA,NA,NA,""
"image-keyboard-response",598,418693,"0.0-3.195-2.195","muaxeh9xszaakkw",550,"43.csv","","null","resources/images/fishbone.png","null","",NA,NA,NA,NA,""
"image-keyboard-response",599,420036,"0.0-3.196-0.196","muaxeh9xszaakkw",550,"43.csv","","1340.8000000044703","resources/trios/L2T1A3.jpg","37","restless",0.4,0.5,0.4,0.467875696303935,"false"
"image-keyboard-response",600,420439,"0.0-3.196-1.196","muaxeh9xszaakkw",550,"43.csv","","null","resources/maskTrios/L2BB.jpg","null","",NA,NA,NA,NA,""
"image-keyboard-response",601,421644,"0.0-3.196-2.196","muaxeh9xszaakkw",550,"43.csv","","null","resources/images/fishbone.png","null","",NA,NA,NA,NA,""
"image-keyboard-response",602,421997,"0.0-3.197-0.197","muaxeh9xszaakkw",550,"43.csv","","351.20000000298023","resources/trios/L2T4A2.jpg","38","restless",0.5,0.5,0.4,0.667403159813447,"false"
"image-keyboard-response",603,422400,"0.0-3.197-1.197","muaxeh9xszaakkw",550,"43.csv","","null","resources/maskTrios/BT4B.jpg","null","",NA,NA,NA,NA,""
"image-keyboard-response",604,423606,"0.0-3.197-2.197","muaxeh9xszaakkw",550,"43.csv","","null","resources/images/fishbone.png","null","",NA,NA,NA,NA,""
"image-keyboard-response",605,424124,"0.0-3.198-0.198","muaxeh9xszaakkw",550,"43.csv","","515.6000000014901","resources/trios/L2T1A2.jpg","37","restless",0.5,0.5,0.4,0.178882658200966,"true"
"image-keyboard-response",606,424526,"0.0-3.198-1.198","muaxeh9xszaakkw",550,"43.csv","","null","resources/maskTrios/L2BB.jpg","null","",NA,NA,NA,NA,""
"image-keyboard-response",607,425729,"0.0-3.198-2.198","muaxeh9xszaakkw",550,"43.csv","","null","resources/images/coin2.png","null","",NA,NA,NA,NA,""
"image-keyboard-response",608,426102,"0.0-3.199-0.199","muaxeh9xszaakkw",550,"43.csv","","370.3999999985099","resources/trios/L2T4A2.jpg","39","restless",0.5,0.4,0.4,0.845288438214864,"false"
"image-keyboard-response",609,426507,"0.0-3.199-1.199","muaxeh9xszaakkw",550,"43.csv","","null","resources/maskTrios/BBA2.jpg","null","",NA,NA,NA,NA,""
"image-keyboard-response",610,427711,"0.0-3.199-2.199","muaxeh9xszaakkw",550,"43.csv","","null","resources/images/fishbone.png","null","",NA,NA,NA,NA,""
