"trial_type","trial_index","time_elapsed","internal_node_id","subject","participantCode","walkNumber","success","rt","stimulus","key_press","test_part","leftProb","midProb","rightProb","generatedNum","correct"
"pavlovia",0,1019,"0.0-0.0","456qwcu92c6crcb",685,"145.csv","","","","","",NA,NA,NA,NA,""
"fullscreen",1,4891,"0.0-1.0","456qwcu92c6crcb",685,"145.csv","true","","","","",NA,NA,NA,NA,""
"html-keyboard-response",2,10651,"0.0-2.0-0.0","456qwcu92c6crcb",685,"145.csv","","5758.399999976158","<p><font size='6'>Arrrgh!</p></font><p>Can you be the best pirate? Try to find lots of gold! But beware, some islands have more gold than others, and over time, the island with the most gold may change. Can YOU figure it out? </p><font size='6'>GOOD LUCK, CAPTAIN!!!</font><p>Press any key to begin</p>","32","",NA,NA,NA,NA,""
"image-keyboard-response",3,13670,"0.0-2.0-1.0","456qwcu92c6crcb",685,"145.csv","","null","resources/image_sets/111.png","null","",NA,NA,NA,NA,""
"image-keyboard-response",4,28690,"0.0-2.0-2.0","456qwcu92c6crcb",685,"145.csv","","15018.5","resources/image_sets/left_highlight.png","37","",NA,NA,NA,NA,""
"image-keyboard-response",5,30445,"0.0-2.0-3.0","456qwcu92c6crcb",685,"145.csv","","1752.6999999284744","resources/image_sets/mid_highlight.png","38","",NA,NA,NA,NA,""
"image-keyboard-response",6,31485,"0.0-2.0-4.0","456qwcu92c6crcb",685,"145.csv","","1038.8999999761581","resources/image_sets/right_highlight.png","39","",NA,NA,NA,NA,""
"image-keyboard-response",7,35561,"0.0-2.0-5.0","456qwcu92c6crcb",685,"145.csv","","4074.600000023842","resources/image_sets/111.png","13","",NA,NA,NA,NA,""
"image-keyboard-response",8,39057,"0.0-2.0-6.0","456qwcu92c6crcb",685,"145.csv","","3495.4000000953674","resources/images/coin2.png","13","",NA,NA,NA,NA,""
"image-keyboard-response",9,41000,"0.0-2.0-7.0","456qwcu92c6crcb",685,"145.csv","","1942.1000000238419","resources/images/fishbone.png","13","",NA,NA,NA,NA,""
"html-keyboard-response",10,50945,"0.0-2.0-8.0","456qwcu92c6crcb",685,"145.csv","","9944.299999952316","<p>Your first journey will be a long one, but you will get a well deserved break at the end</p><p>After the break you will have four more journeys, but each will be much shorter than the first, and you will have breaks in between each</p><p>Press Enter to begin</p>","13","",NA,NA,NA,NA,""
"image-keyboard-response",11,56066,"0.0-3.0-0.0","456qwcu92c6crcb",685,"145.csv","","5116","resources/trios/L2T4A3.jpg","37","restless",0.3,0.7,0.9,0.266464497305635,"true"
"image-keyboard-response",12,56482,"0.0-3.0-1.0","456qwcu92c6crcb",685,"145.csv","","null","resources/maskTrios/L2BB.jpg","null","",NA,NA,NA,NA,""
"image-keyboard-response",13,57705,"0.0-3.0-2.0","456qwcu92c6crcb",685,"145.csv","","null","resources/images/coin2.png","null","",NA,NA,NA,NA,""
"image-keyboard-response",14,61444,"0.0-3.1-0.1","456qwcu92c6crcb",685,"145.csv","","3736.3000000715256","resources/trios/L2T4A1.jpg","37","restless",0.3,0.7,0.9,0.183713980843059,"true"
"image-keyboard-response",15,61856,"0.0-3.1-1.1","456qwcu92c6crcb",685,"145.csv","","null","resources/maskTrios/L2BB.jpg","null","",NA,NA,NA,NA,""
"image-keyboard-response",16,63063,"0.0-3.1-2.1","456qwcu92c6crcb",685,"145.csv","","null","resources/images/coin2.png","null","",NA,NA,NA,NA,""
"image-keyboard-response",17,69121,"0.0-3.2-0.2","456qwcu92c6crcb",685,"145.csv","","6055.899999976158","resources/trios/L4T2A1.jpg","38","restless",0.3,0.7,0.9,0.889083261137986,"false"
"image-keyboard-response",18,69539,"0.0-3.2-1.2","456qwcu92c6crcb",685,"145.csv","","null","resources/maskTrios/BT2B.jpg","null","",NA,NA,NA,NA,""
"image-keyboard-response",19,70752,"0.0-3.2-2.2","456qwcu92c6crcb",685,"145.csv","","null","resources/images/fishbone.png","null","",NA,NA,NA,NA,""
"image-keyboard-response",20,71791,"0.0-3.3-0.3","456qwcu92c6crcb",685,"145.csv","","1037.0999999046326","resources/trios/L4T4A1.jpg","37","restless",0.3,0.7,0.9,0.713189975909601,"false"
"image-keyboard-response",21,72197,"0.0-3.3-1.3","456qwcu92c6crcb",685,"145.csv","","null","resources/maskTrios/L4BB.jpg","null","",NA,NA,NA,NA,""
"image-keyboard-response",22,73418,"0.0-3.3-2.3","456qwcu92c6crcb",685,"145.csv","","null","resources/images/fishbone.png","null","",NA,NA,NA,NA,""
"image-keyboard-response",23,77908,"0.0-3.4-0.4","456qwcu92c6crcb",685,"145.csv","","4488.5","resources/trios/L2T2A3.jpg","38","restless",0.3,0.7,0.9,0.0795055871731927,"true"
"image-keyboard-response",24,78324,"0.0-3.4-1.4","456qwcu92c6crcb",685,"145.csv","","null","resources/maskTrios/BT2B.jpg","null","",NA,NA,NA,NA,""
"image-keyboard-response",25,79544,"0.0-3.4-2.4","456qwcu92c6crcb",685,"145.csv","","null","resources/images/coin2.png","null","",NA,NA,NA,NA,""
"image-keyboard-response",26,81587,"0.0-3.5-0.5","456qwcu92c6crcb",685,"145.csv","","2041","resources/trios/L4T4A3.jpg","38","restless",0.3,0.7,0.9,0.959416355736563,"false"
"image-keyboard-response",27,81998,"0.0-3.5-1.5","456qwcu92c6crcb",685,"145.csv","","null","resources/maskTrios/BT4B.jpg","null","",NA,NA,NA,NA,""
"image-keyboard-response",28,83207,"0.0-3.5-2.5","456qwcu92c6crcb",685,"145.csv","","null","resources/images/fishbone.png","null","",NA,NA,NA,NA,""
"image-keyboard-response",29,84946,"0.0-3.6-0.6","456qwcu92c6crcb",685,"145.csv","","1737.5","resources/trios/L2T4A3.jpg","39","restless",0.3,0.7,0.9,0.164917113291542,"true"
"image-keyboard-response",30,85369,"0.0-3.6-1.6","456qwcu92c6crcb",685,"145.csv","","null","resources/maskTrios/BBA3.jpg","null","",NA,NA,NA,NA,""
"image-keyboard-response",31,86587,"0.0-3.6-2.6","456qwcu92c6crcb",685,"145.csv","","null","resources/images/coin2.png","null","",NA,NA,NA,NA,""
"image-keyboard-response",32,90106,"0.0-3.7-0.7","456qwcu92c6crcb",685,"145.csv","","3516.5","resources/trios/L2T4A1.jpg","39","restless",0.3,0.7,0.9,0.827673322146391,"true"
"image-keyboard-response",33,90522,"0.0-3.7-1.7","456qwcu92c6crcb",685,"145.csv","","null","resources/maskTrios/BBA1.jpg","null","",NA,NA,NA,NA,""
"image-keyboard-response",34,91744,"0.0-3.7-2.7","456qwcu92c6crcb",685,"145.csv","","null","resources/images/coin2.png","null","",NA,NA,NA,NA,""
"image-keyboard-response",35,94039,"0.0-3.8-0.8","456qwcu92c6crcb",685,"145.csv","","2293.3000000715256","resources/trios/L4T2A1.jpg","38","restless",0.3,0.7,0.9,0.0300389422011358,"true"
"image-keyboard-response",36,94444,"0.0-3.8-1.8","456qwcu92c6crcb",685,"145.csv","","null","resources/maskTrios/BT2B.jpg","null","",NA,NA,NA,NA,""
"image-keyboard-response",37,95657,"0.0-3.8-2.8","456qwcu92c6crcb",685,"145.csv","","null","resources/images/coin2.png","null","",NA,NA,NA,NA,""
"image-keyboard-response",38,96985,"0.0-3.9-0.9","456qwcu92c6crcb",685,"145.csv","","1325.8999999761581","resources/trios/L2T4A3.jpg","39","restless",0.3,0.7,0.9,0.674277358849733,"true"
"image-keyboard-response",39,97400,"0.0-3.9-1.9","456qwcu92c6crcb",685,"145.csv","","null","resources/maskTrios/BBA3.jpg","null","",NA,NA,NA,NA,""
"image-keyboard-response",40,98616,"0.0-3.9-2.9","456qwcu92c6crcb",685,"145.csv","","null","resources/images/coin2.png","null","",NA,NA,NA,NA,""
"image-keyboard-response",41,103213,"0.0-3.10-0.10","456qwcu92c6crcb",685,"145.csv","","4595.800000071526","resources/trios/L4T4A1.jpg","39","restless",0.3,0.7,0.9,0.414489706964172,"true"
"image-keyboard-response",42,103623,"0.0-3.10-1.10","456qwcu92c6crcb",685,"145.csv","","null","resources/maskTrios/BBA1.jpg","null","",NA,NA,NA,NA,""
"image-keyboard-response",43,104830,"0.0-3.10-2.10","456qwcu92c6crcb",685,"145.csv","","null","resources/images/coin2.png","null","",NA,NA,NA,NA,""
"image-keyboard-response",44,106471,"0.0-3.11-0.11","456qwcu92c6crcb",685,"145.csv","","1639.1000000238419","resources/trios/L4T2A3.jpg","38","restless",0.3,0.7,0.9,0.410290134216458,"true"
"image-keyboard-response",45,106890,"0.0-3.11-1.11","456qwcu92c6crcb",685,"145.csv","","null","resources/maskTrios/BT2B.jpg","null","",NA,NA,NA,NA,""
"image-keyboard-response",46,108112,"0.0-3.11-2.11","456qwcu92c6crcb",685,"145.csv","","null","resources/images/coin2.png","null","",NA,NA,NA,NA,""
"image-keyboard-response",47,109933,"0.0-3.12-0.12","456qwcu92c6crcb",685,"145.csv","","1818.6000000238419","resources/trios/L4T4A3.jpg","39","restless",0.3,0.7,0.9,0.831623670932945,"true"
"image-keyboard-response",48,110352,"0.0-3.12-1.12","456qwcu92c6crcb",685,"145.csv","","null","resources/maskTrios/BBA3.jpg","null","",NA,NA,NA,NA,""
"image-keyboard-response",49,111558,"0.0-3.12-2.12","456qwcu92c6crcb",685,"145.csv","","null","resources/images/coin2.png","null","",NA,NA,NA,NA,""
"image-keyboard-response",50,114732,"0.0-3.13-0.13","456qwcu92c6crcb",685,"145.csv","","3172.600000023842","resources/trios/L2T4A1.jpg","37","restless",0.3,0.6,0.9,0.986817341391976,"false"
"image-keyboard-response",51,115143,"0.0-3.13-1.13","456qwcu92c6crcb",685,"145.csv","","null","resources/maskTrios/L2BB.jpg","null","",NA,NA,NA,NA,""
"image-keyboard-response",52,116356,"0.0-3.13-2.13","456qwcu92c6crcb",685,"145.csv","","null","resources/images/fishbone.png","null","",NA,NA,NA,NA,""
"image-keyboard-response",53,119188,"0.0-3.14-0.14","456qwcu92c6crcb",685,"145.csv","","2830","resources/trios/L4T2A1.jpg","38","restless",0.3,0.6,0.9,0.0265208226866895,"true"
"image-keyboard-response",54,119610,"0.0-3.14-1.14","456qwcu92c6crcb",685,"145.csv","","null","resources/maskTrios/BT2B.jpg","null","",NA,NA,NA,NA,""
"image-keyboard-response",55,120823,"0.0-3.14-2.14","456qwcu92c6crcb",685,"145.csv","","null","resources/images/coin2.png","null","",NA,NA,NA,NA,""
"image-keyboard-response",56,122996,"0.0-3.15-0.15","456qwcu92c6crcb",685,"145.csv","","2170.5999999046326","resources/trios/L2T2A3.jpg","38","restless",0.3,0.6,0.9,0.0181505137419022,"true"
"image-keyboard-response",57,123412,"0.0-3.15-1.15","456qwcu92c6crcb",685,"145.csv","","null","resources/maskTrios/BT2B.jpg","null","",NA,NA,NA,NA,""
"image-keyboard-response",58,124635,"0.0-3.15-2.15","456qwcu92c6crcb",685,"145.csv","","null","resources/images/coin2.png","null","",NA,NA,NA,NA,""
"image-keyboard-response",59,126552,"0.0-3.16-0.16","456qwcu92c6crcb",685,"145.csv","","1915.2999999523163","resources/trios/L2T4A3.jpg","39","restless",0.3,0.7,0.9,0.625156210968763,"true"
"image-keyboard-response",60,126969,"0.0-3.16-1.16","456qwcu92c6crcb",685,"145.csv","","null","resources/maskTrios/BBA3.jpg","null","",NA,NA,NA,NA,""
"image-keyboard-response",61,128183,"0.0-3.16-2.16","456qwcu92c6crcb",685,"145.csv","","null","resources/images/coin2.png","null","",NA,NA,NA,NA,""
"image-keyboard-response",62,130999,"0.0-3.17-0.17","456qwcu92c6crcb",685,"145.csv","","2814.5","resources/trios/L4T2A3.jpg","38","restless",0.3,0.7,0.9,0.872528131726589,"false"
"image-keyboard-response",63,131410,"0.0-3.17-1.17","456qwcu92c6crcb",685,"145.csv","","null","resources/maskTrios/BT2B.jpg","null","",NA,NA,NA,NA,""
"image-keyboard-response",64,132625,"0.0-3.17-2.17","456qwcu92c6crcb",685,"145.csv","","null","resources/images/fishbone.png","null","",NA,NA,NA,NA,""
"image-keyboard-response",65,134438,"0.0-3.18-0.18","456qwcu92c6crcb",685,"145.csv","","1809.3999999761581","resources/trios/L4T4A1.jpg","39","restless",0.3,0.7,0.9,0.446678741542751,"true"
"image-keyboard-response",66,134844,"0.0-3.18-1.18","456qwcu92c6crcb",685,"145.csv","","null","resources/maskTrios/BBA1.jpg","null","",NA,NA,NA,NA,""
"image-keyboard-response",67,136058,"0.0-3.18-2.18","456qwcu92c6crcb",685,"145.csv","","null","resources/images/coin2.png","null","",NA,NA,NA,NA,""
"image-keyboard-response",68,136972,"0.0-3.19-0.19","456qwcu92c6crcb",685,"145.csv","","912.1000000238419","resources/trios/L2T4A3.jpg","39","restless",0.3,0.7,0.9,0.333181251426607,"true"
"image-keyboard-response",69,137392,"0.0-3.19-1.19","456qwcu92c6crcb",685,"145.csv","","null","resources/maskTrios/BBA3.jpg","null","",NA,NA,NA,NA,""
"image-keyboard-response",70,138600,"0.0-3.19-2.19","456qwcu92c6crcb",685,"145.csv","","null","resources/images/coin2.png","null","",NA,NA,NA,NA,""
"image-keyboard-response",71,139698,"0.0-3.20-0.20","456qwcu92c6crcb",685,"145.csv","","1095.8000000715256","resources/trios/L4T4A1.jpg","39","restless",0.3,0.7,0.9,0.81060162408846,"true"
"image-keyboard-response",72,140121,"0.0-3.20-1.20","456qwcu92c6crcb",685,"145.csv","","null","resources/maskTrios/BBA1.jpg","null","",NA,NA,NA,NA,""
"image-keyboard-response",73,141330,"0.0-3.20-2.20","456qwcu92c6crcb",685,"145.csv","","null","resources/images/coin2.png","null","",NA,NA,NA,NA,""
"image-keyboard-response",74,144859,"0.0-3.21-0.21","456qwcu92c6crcb",685,"145.csv","","3527.100000023842","resources/trios/L2T4A3.jpg","39","restless",0.4,0.6,0.9,0.100282911504754,"true"
"image-keyboard-response",75,145272,"0.0-3.21-1.21","456qwcu92c6crcb",685,"145.csv","","null","resources/maskTrios/BBA3.jpg","null","",NA,NA,NA,NA,""
"image-keyboard-response",76,146484,"0.0-3.21-2.21","456qwcu92c6crcb",685,"145.csv","","null","resources/images/coin2.png","null","",NA,NA,NA,NA,""
"image-keyboard-response",77,147143,"0.0-3.22-0.22","456qwcu92c6crcb",685,"145.csv","","657.6999999284744","resources/trios/L4T2A1.jpg","39","restless",0.4,0.6,0.9,0.669777348265191,"true"
"image-keyboard-response",78,147560,"0.0-3.22-1.22","456qwcu92c6crcb",685,"145.csv","","null","resources/maskTrios/BBA1.jpg","null","",NA,NA,NA,NA,""
"image-keyboard-response",79,148768,"0.0-3.22-2.22","456qwcu92c6crcb",685,"145.csv","","null","resources/images/coin2.png","null","",NA,NA,NA,NA,""
"image-keyboard-response",80,149142,"0.0-3.23-0.23","456qwcu92c6crcb",685,"145.csv","","371.7000000476837","resources/trios/L2T4A3.jpg","39","restless",0.4,0.6,0.9,0.2900139322923,"true"
"image-keyboard-response",81,149547,"0.0-3.23-1.23","456qwcu92c6crcb",685,"145.csv","","null","resources/maskTrios/BBA3.jpg","null","",NA,NA,NA,NA,""
"image-keyboard-response",82,150766,"0.0-3.23-2.23","456qwcu92c6crcb",685,"145.csv","","null","resources/images/coin2.png","null","",NA,NA,NA,NA,""
"image-keyboard-response",83,151085,"0.0-3.24-0.24","456qwcu92c6crcb",685,"145.csv","","316.90000009536743","resources/trios/L4T2A3.jpg","39","restless",0.4,0.6,0.9,0.72800957223676,"true"
"image-keyboard-response",84,151493,"0.0-3.24-1.24","456qwcu92c6crcb",685,"145.csv","","null","resources/maskTrios/BBA3.jpg","null","",NA,NA,NA,NA,""
"image-keyboard-response",85,152707,"0.0-3.24-2.24","456qwcu92c6crcb",685,"145.csv","","null","resources/images/coin2.png","null","",NA,NA,NA,NA,""
"image-keyboard-response",86,153051,"0.0-3.25-0.25","456qwcu92c6crcb",685,"145.csv","","341.7000000476837","resources/trios/L4T4A1.jpg","39","restless",0.4,0.6,0.8,0.275971598291089,"true"
"image-keyboard-response",87,153463,"0.0-3.25-1.25","456qwcu92c6crcb",685,"145.csv","","null","resources/maskTrios/BBA1.jpg","null","",NA,NA,NA,NA,""
"image-keyboard-response",88,154672,"0.0-3.25-2.25","456qwcu92c6crcb",685,"145.csv","","null","resources/images/coin2.png","null","",NA,NA,NA,NA,""
"image-keyboard-response",89,155081,"0.0-3.26-0.26","456qwcu92c6crcb",685,"145.csv","","407.8000000715256","resources/trios/L2T4A3.jpg","39","restless",0.5,0.6,0.8,0.992407369527542,"false"
"image-keyboard-response",90,155494,"0.0-3.26-1.26","456qwcu92c6crcb",685,"145.csv","","null","resources/maskTrios/BBA3.jpg","null","",NA,NA,NA,NA,""
"image-keyboard-response",91,156709,"0.0-3.26-2.26","456qwcu92c6crcb",685,"145.csv","","null","resources/images/fishbone.png","null","",NA,NA,NA,NA,""
"image-keyboard-response",92,158043,"0.0-3.27-0.27","456qwcu92c6crcb",685,"145.csv","","1330.7999999523163","resources/trios/L4T4A1.jpg","39","restless",0.5,0.6,0.7,0.896380711157163,"false"
"image-keyboard-response",93,158464,"0.0-3.27-1.27","456qwcu92c6crcb",685,"145.csv","","null","resources/maskTrios/BBA1.jpg","null","",NA,NA,NA,NA,""
"image-keyboard-response",94,159682,"0.0-3.27-2.27","456qwcu92c6crcb",685,"145.csv","","null","resources/images/fishbone.png","null","",NA,NA,NA,NA,""
"image-keyboard-response",95,160853,"0.0-3.28-0.28","456qwcu92c6crcb",685,"145.csv","","1169.8999999761581","resources/trios/L2T4A3.jpg","39","restless",0.5,0.6,0.7,0.814903250304281,"false"
"image-keyboard-response",96,161261,"0.0-3.28-1.28","456qwcu92c6crcb",685,"145.csv","","null","resources/maskTrios/BBA3.jpg","null","",NA,NA,NA,NA,""
"image-keyboard-response",97,162478,"0.0-3.28-2.28","456qwcu92c6crcb",685,"145.csv","","null","resources/images/fishbone.png","null","",NA,NA,NA,NA,""
"image-keyboard-response",98,164958,"0.0-3.29-0.29","456qwcu92c6crcb",685,"145.csv","","2477.7999999523163","resources/trios/L4T4A3.jpg","37","restless",0.5,0.5,0.7,0.337735990789079,"true"
"image-keyboard-response",99,165376,"0.0-3.29-1.29","456qwcu92c6crcb",685,"145.csv","","null","resources/maskTrios/L4BB.jpg","null","",NA,NA,NA,NA,""
"image-keyboard-response",100,166583,"0.0-3.29-2.29","456qwcu92c6crcb",685,"145.csv","","null","resources/images/coin2.png","null","",NA,NA,NA,NA,""
"image-keyboard-response",101,167309,"0.0-3.30-0.30","456qwcu92c6crcb",685,"145.csv","","723.0999999046326","resources/trios/L4T4A3.jpg","37","restless",0.5,0.5,0.7,0.865347242313179,"false"
"image-keyboard-response",102,167721,"0.0-3.30-1.30","456qwcu92c6crcb",685,"145.csv","","null","resources/maskTrios/L4BB.jpg","null","",NA,NA,NA,NA,""
"image-keyboard-response",103,168931,"0.0-3.30-2.30","456qwcu92c6crcb",685,"145.csv","","null","resources/images/fishbone.png","null","",NA,NA,NA,NA,""
"image-keyboard-response",104,169638,"0.0-3.31-0.31","456qwcu92c6crcb",685,"145.csv","","705.0999999046326","resources/trios/L4T2A1.jpg","37","restless",0.4,0.5,0.7,0.171608191022974,"true"
"image-keyboard-response",105,170050,"0.0-3.31-1.31","456qwcu92c6crcb",685,"145.csv","","null","resources/maskTrios/L4BB.jpg","null","",NA,NA,NA,NA,""
"image-keyboard-response",106,171266,"0.0-3.31-2.31","456qwcu92c6crcb",685,"145.csv","","null","resources/images/coin2.png","null","",NA,NA,NA,NA,""
"image-keyboard-response",107,172148,"0.0-3.32-0.32","456qwcu92c6crcb",685,"145.csv","","880.0999999046326","resources/trios/L2T2A1.jpg","39","restless",0.4,0.5,0.7,0.310706587236475,"true"
"image-keyboard-response",108,172568,"0.0-3.32-1.32","456qwcu92c6crcb",685,"145.csv","","null","resources/maskTrios/BBA1.jpg","null","",NA,NA,NA,NA,""
"image-keyboard-response",109,173777,"0.0-3.32-2.32","456qwcu92c6crcb",685,"145.csv","","null","resources/images/coin2.png","null","",NA,NA,NA,NA,""
"image-keyboard-response",110,174508,"0.0-3.33-0.33","456qwcu92c6crcb",685,"145.csv","","728.1000000238419","resources/trios/L2T2A1.jpg","38","restless",0.4,0.5,0.7,0.178066821413935,"true"
"image-keyboard-response",111,174923,"0.0-3.33-1.33","456qwcu92c6crcb",685,"145.csv","","null","resources/maskTrios/BT2B.jpg","null","",NA,NA,NA,NA,""
"image-keyboard-response",112,176140,"0.0-3.33-2.33","456qwcu92c6crcb",685,"145.csv","","null","resources/images/coin2.png","null","",NA,NA,NA,NA,""
"image-keyboard-response",113,176925,"0.0-3.34-0.34","456qwcu92c6crcb",685,"145.csv","","786.5","resources/trios/L2T4A1.jpg","39","restless",0.4,0.5,0.7,0.538665923735908,"true"
"image-keyboard-response",114,177337,"0.0-3.34-1.34","456qwcu92c6crcb",685,"145.csv","","null","resources/maskTrios/BBA1.jpg","null","",NA,NA,NA,NA,""
"image-keyboard-response",115,178544,"0.0-3.34-2.34","456qwcu92c6crcb",685,"145.csv","","null","resources/images/coin2.png","null","",NA,NA,NA,NA,""
"image-keyboard-response",116,179169,"0.0-3.35-0.35","456qwcu92c6crcb",685,"145.csv","","623.3999999761581","resources/trios/L4T2A1.jpg","37","restless",0.4,0.5,0.7,0.0315466714743435,"true"
"image-keyboard-response",117,179575,"0.0-3.35-1.35","456qwcu92c6crcb",685,"145.csv","","null","resources/maskTrios/L4BB.jpg","null","",NA,NA,NA,NA,""
"image-keyboard-response",118,180790,"0.0-3.35-2.35","456qwcu92c6crcb",685,"145.csv","","null","resources/images/coin2.png","null","",NA,NA,NA,NA,""
"image-keyboard-response",119,181546,"0.0-3.36-0.36","456qwcu92c6crcb",685,"145.csv","","754.5","resources/trios/L4T2A3.jpg","39","restless",0.3,0.5,0.7,0.444568923433037,"true"
"image-keyboard-response",120,181959,"0.0-3.36-1.36","456qwcu92c6crcb",685,"145.csv","","null","resources/maskTrios/BBA3.jpg","null","",NA,NA,NA,NA,""
"image-keyboard-response",121,183167,"0.0-3.36-2.36","456qwcu92c6crcb",685,"145.csv","","null","resources/images/coin2.png","null","",NA,NA,NA,NA,""
"image-keyboard-response",122,184529,"0.0-3.37-0.37","456qwcu92c6crcb",685,"145.csv","","1360.5","resources/trios/L4T4A3.jpg","39","restless",0.3,0.5,0.7,0.368160659554898,"true"
"image-keyboard-response",123,184949,"0.0-3.37-1.37","456qwcu92c6crcb",685,"145.csv","","null","resources/maskTrios/BBA3.jpg","null","",NA,NA,NA,NA,""
"image-keyboard-response",124,186165,"0.0-3.37-2.37","456qwcu92c6crcb",685,"145.csv","","null","resources/images/coin2.png","null","",NA,NA,NA,NA,""
"image-keyboard-response",125,187112,"0.0-3.38-0.38","456qwcu92c6crcb",685,"145.csv","","944.5","resources/trios/L2T4A3.jpg","39","restless",0.3,0.5,0.7,0.0333287190215521,"true"
"image-keyboard-response",126,187532,"0.0-3.38-1.38","456qwcu92c6crcb",685,"145.csv","","null","resources/maskTrios/BBA3.jpg","null","",NA,NA,NA,NA,""
"image-keyboard-response",127,188739,"0.0-3.38-2.38","456qwcu92c6crcb",685,"145.csv","","null","resources/images/coin2.png","null","",NA,NA,NA,NA,""
"image-keyboard-response",128,189734,"0.0-3.39-0.39","456qwcu92c6crcb",685,"145.csv","","993.1000000238419","resources/trios/L2T2A3.jpg","37","restless",0.3,0.5,0.7,0.489600287796526,"false"
"image-keyboard-response",129,190150,"0.0-3.39-1.39","456qwcu92c6crcb",685,"145.csv","","null","resources/maskTrios/L2BB.jpg","null","",NA,NA,NA,NA,""
"image-keyboard-response",130,191369,"0.0-3.39-2.39","456qwcu92c6crcb",685,"145.csv","","null","resources/images/fishbone.png","null","",NA,NA,NA,NA,""
"image-keyboard-response",131,192165,"0.0-3.40-0.40","456qwcu92c6crcb",685,"145.csv","","795.1000000238419","resources/trios/L2T2A3.jpg","39","restless",0.3,0.5,0.7,0.383999058769411,"true"
"image-keyboard-response",132,192575,"0.0-3.40-1.40","456qwcu92c6crcb",685,"145.csv","","null","resources/maskTrios/BBA3.jpg","null","",NA,NA,NA,NA,""
"image-keyboard-response",133,193789,"0.0-3.40-2.40","456qwcu92c6crcb",685,"145.csv","","null","resources/images/coin2.png","null","",NA,NA,NA,NA,""
"image-keyboard-response",134,194329,"0.0-3.41-0.41","456qwcu92c6crcb",685,"145.csv","","538.8999999761581","resources/trios/L4T4A1.jpg","38","restless",0.3,0.5,0.8,0.746988851028502,"false"
"image-keyboard-response",135,194746,"0.0-3.41-1.41","456qwcu92c6crcb",685,"145.csv","","null","resources/maskTrios/BT4B.jpg","null","",NA,NA,NA,NA,""
"image-keyboard-response",136,195961,"0.0-3.41-2.41","456qwcu92c6crcb",685,"145.csv","","null","resources/images/fishbone.png","null","",NA,NA,NA,NA,""
"image-keyboard-response",137,196415,"0.0-3.42-0.42","456qwcu92c6crcb",685,"145.csv","","452","resources/trios/L2T2A1.jpg","39","restless",0.3,0.5,0.8,0.42214911017951,"true"
"image-keyboard-response",138,196836,"0.0-3.42-1.42","456qwcu92c6crcb",685,"145.csv","","null","resources/maskTrios/BBA1.jpg","null","",NA,NA,NA,NA,""
"image-keyboard-response",139,198054,"0.0-3.42-2.42","456qwcu92c6crcb",685,"145.csv","","null","resources/images/coin2.png","null","",NA,NA,NA,NA,""
"image-keyboard-response",140,198781,"0.0-3.43-0.43","456qwcu92c6crcb",685,"145.csv","","724.4000000953674","resources/trios/L2T2A3.jpg","38","restless",0.3,0.4,0.8,0.29637667346632,"true"
"image-keyboard-response",141,199191,"0.0-3.43-1.43","456qwcu92c6crcb",685,"145.csv","","null","resources/maskTrios/BT2B.jpg","null","",NA,NA,NA,NA,""
"image-keyboard-response",142,200406,"0.0-3.43-2.43","456qwcu92c6crcb",685,"145.csv","","null","resources/images/coin2.png","null","",NA,NA,NA,NA,""
"image-keyboard-response",143,201220,"0.0-3.44-0.44","456qwcu92c6crcb",685,"145.csv","","812.1000000238419","resources/trios/L4T4A1.jpg","39","restless",0.3,0.4,0.8,0.255164075288191,"true"
"image-keyboard-response",144,201632,"0.0-3.44-1.44","456qwcu92c6crcb",685,"145.csv","","null","resources/maskTrios/BBA1.jpg","null","",NA,NA,NA,NA,""
"image-keyboard-response",145,202846,"0.0-3.44-2.44","456qwcu92c6crcb",685,"145.csv","","null","resources/images/coin2.png","null","",NA,NA,NA,NA,""
"image-keyboard-response",146,203567,"0.0-3.45-0.45","456qwcu92c6crcb",685,"145.csv","","719.8999999761581","resources/trios/L4T2A3.jpg","38","restless",0.3,0.4,0.8,0.162103946120497,"true"
"image-keyboard-response",147,203981,"0.0-3.45-1.45","456qwcu92c6crcb",685,"145.csv","","null","resources/maskTrios/BT2B.jpg","null","",NA,NA,NA,NA,""
"image-keyboard-response",148,205188,"0.0-3.45-2.45","456qwcu92c6crcb",685,"145.csv","","null","resources/images/coin2.png","null","",NA,NA,NA,NA,""
"image-keyboard-response",149,205747,"0.0-3.46-0.46","456qwcu92c6crcb",685,"145.csv","","557.1000000238419","resources/trios/L2T2A3.jpg","38","restless",0.3,0.4,0.8,0.393396945046513,"true"
"image-keyboard-response",150,206162,"0.0-3.46-1.46","456qwcu92c6crcb",685,"145.csv","","null","resources/maskTrios/BT2B.jpg","null","",NA,NA,NA,NA,""
"image-keyboard-response",151,207373,"0.0-3.46-2.46","456qwcu92c6crcb",685,"145.csv","","null","resources/images/coin2.png","null","",NA,NA,NA,NA,""
"image-keyboard-response",152,207973,"0.0-3.47-0.47","456qwcu92c6crcb",685,"145.csv","","597.5","resources/trios/L2T2A1.jpg","38","restless",0.3,0.3,0.8,0.544478686059374,"false"
"image-keyboard-response",153,208391,"0.0-3.47-1.47","456qwcu92c6crcb",685,"145.csv","","null","resources/maskTrios/BT2B.jpg","null","",NA,NA,NA,NA,""
"image-keyboard-response",154,209602,"0.0-3.47-2.47","456qwcu92c6crcb",685,"145.csv","","null","resources/images/fishbone.png","null","",NA,NA,NA,NA,""
"image-keyboard-response",155,210054,"0.0-3.48-0.48","456qwcu92c6crcb",685,"145.csv","","450.60000002384186","resources/trios/L4T4A1.jpg","39","restless",0.3,0.3,0.8,0.550988365124855,"true"
"image-keyboard-response",156,210471,"0.0-3.48-1.48","456qwcu92c6crcb",685,"145.csv","","null","resources/maskTrios/BBA1.jpg","null","",NA,NA,NA,NA,""
"image-keyboard-response",157,211689,"0.0-3.48-2.48","456qwcu92c6crcb",685,"145.csv","","null","resources/images/coin2.png","null","",NA,NA,NA,NA,""
"image-keyboard-response",158,212249,"0.0-3.49-0.49","456qwcu92c6crcb",685,"145.csv","","557.2999999523163","resources/trios/L4T2A3.jpg","39","restless",0.3,0.3,0.8,0.0368853277941916,"true"
"image-keyboard-response",159,212659,"0.0-3.49-1.49","456qwcu92c6crcb",685,"145.csv","","null","resources/maskTrios/BBA3.jpg","null","",NA,NA,NA,NA,""
"image-keyboard-response",160,213869,"0.0-3.49-2.49","456qwcu92c6crcb",685,"145.csv","","null","resources/images/coin2.png","null","",NA,NA,NA,NA,""
"image-keyboard-response",161,214369,"0.0-3.50-0.50","456qwcu92c6crcb",685,"145.csv","","498.2000000476837","resources/trios/L2T2A3.jpg","38","restless",0.3,0.3,0.8,0.783290068209613,"false"
"image-keyboard-response",162,214787,"0.0-3.50-1.50","456qwcu92c6crcb",685,"145.csv","","null","resources/maskTrios/BT2B.jpg","null","",NA,NA,NA,NA,""
"image-keyboard-response",163,215996,"0.0-3.50-2.50","456qwcu92c6crcb",685,"145.csv","","null","resources/images/fishbone.png","null","",NA,NA,NA,NA,""
"image-keyboard-response",164,216412,"0.0-3.51-0.51","456qwcu92c6crcb",685,"145.csv","","414.5","resources/trios/L2T2A1.jpg","39","restless",0.3,0.3,0.8,0.65592096280271,"true"
"image-keyboard-response",165,216827,"0.0-3.51-1.51","456qwcu92c6crcb",685,"145.csv","","null","resources/maskTrios/BBA1.jpg","null","",NA,NA,NA,NA,""
"image-keyboard-response",166,218035,"0.0-3.51-2.51","456qwcu92c6crcb",685,"145.csv","","null","resources/images/coin2.png","null","",NA,NA,NA,NA,""
"image-keyboard-response",167,218917,"0.0-3.52-0.52","456qwcu92c6crcb",685,"145.csv","","879.5","resources/trios/L4T4A3.jpg","39","restless",0.3,0.3,0.7,0.884314861108151,"false"
"image-keyboard-response",168,219333,"0.0-3.52-1.52","456qwcu92c6crcb",685,"145.csv","","null","resources/maskTrios/BBA3.jpg","null","",NA,NA,NA,NA,""
"image-keyboard-response",169,220549,"0.0-3.52-2.52","456qwcu92c6crcb",685,"145.csv","","null","resources/images/fishbone.png","null","",NA,NA,NA,NA,""
"image-keyboard-response",170,220927,"0.0-3.53-0.53","456qwcu92c6crcb",685,"145.csv","","376.89999997615814","resources/trios/L2T2A3.jpg","39","restless",0.3,0.3,0.7,0.343734408270806,"true"
"image-keyboard-response",171,221343,"0.0-3.53-1.53","456qwcu92c6crcb",685,"145.csv","","null","resources/maskTrios/BBA3.jpg","null","",NA,NA,NA,NA,""
"image-keyboard-response",172,222556,"0.0-3.53-2.53","456qwcu92c6crcb",685,"145.csv","","null","resources/images/coin2.png","null","",NA,NA,NA,NA,""
"image-keyboard-response",173,223128,"0.0-3.54-0.54","456qwcu92c6crcb",685,"145.csv","","569.7999999523163","resources/trios/L2T4A3.jpg","39","restless",0.3,0.3,0.7,0.940493757785903,"false"
"image-keyboard-response",174,223545,"0.0-3.54-1.54","456qwcu92c6crcb",685,"145.csv","","null","resources/maskTrios/BBA3.jpg","null","",NA,NA,NA,NA,""
"image-keyboard-response",175,224754,"0.0-3.54-2.54","456qwcu92c6crcb",685,"145.csv","","null","resources/images/fishbone.png","null","",NA,NA,NA,NA,""
"image-keyboard-response",176,225261,"0.0-3.55-0.55","456qwcu92c6crcb",685,"145.csv","","504.89999997615814","resources/trios/L4T2A3.jpg","39","restless",0.3,0.3,0.7,0.977617036671232,"false"
"image-keyboard-response",177,225679,"0.0-3.55-1.55","456qwcu92c6crcb",685,"145.csv","","null","resources/maskTrios/BBA3.jpg","null","",NA,NA,NA,NA,""
"image-keyboard-response",178,226902,"0.0-3.55-2.55","456qwcu92c6crcb",685,"145.csv","","null","resources/images/fishbone.png","null","",NA,NA,NA,NA,""
"image-keyboard-response",179,227382,"0.0-3.56-0.56","456qwcu92c6crcb",685,"145.csv","","477.7000000476837","resources/trios/L2T2A3.jpg","37","restless",0.3,0.3,0.7,0.934030237858232,"false"
"image-keyboard-response",180,227806,"0.0-3.56-1.56","456qwcu92c6crcb",685,"145.csv","","null","resources/maskTrios/L2BB.jpg","null","",NA,NA,NA,NA,""
"image-keyboard-response",181,229019,"0.0-3.56-2.56","456qwcu92c6crcb",685,"145.csv","","null","resources/images/fishbone.png","null","",NA,NA,NA,NA,""
"image-keyboard-response",182,229460,"0.0-3.57-0.57","456qwcu92c6crcb",685,"145.csv","","439.5","resources/trios/L4T2A1.jpg","39","restless",0.3,0.3,0.7,0.31140464658998,"true"
"image-keyboard-response",183,229878,"0.0-3.57-1.57","456qwcu92c6crcb",685,"145.csv","","null","resources/maskTrios/BBA1.jpg","null","",NA,NA,NA,NA,""
"image-keyboard-response",184,231101,"0.0-3.57-2.57","456qwcu92c6crcb",685,"145.csv","","null","resources/images/coin2.png","null","",NA,NA,NA,NA,""
"image-keyboard-response",185,231685,"0.0-3.58-0.58","456qwcu92c6crcb",685,"145.csv","","582.4000000953674","resources/trios/L2T4A1.jpg","38","restless",0.3,0.3,0.7,0.332355966183371,"false"
"image-keyboard-response",186,232106,"0.0-3.58-1.58","456qwcu92c6crcb",685,"145.csv","","null","resources/maskTrios/BT4B.jpg","null","",NA,NA,NA,NA,""
"image-keyboard-response",187,233318,"0.0-3.58-2.58","456qwcu92c6crcb",685,"145.csv","","null","resources/images/fishbone.png","null","",NA,NA,NA,NA,""
"image-keyboard-response",188,233670,"0.0-3.59-0.59","456qwcu92c6crcb",685,"145.csv","","349.39999997615814","resources/trios/L4T2A1.jpg","39","restless",0.3,0.3,0.7,0.41346288260925,"true"
"image-keyboard-response",189,234080,"0.0-3.59-1.59","456qwcu92c6crcb",685,"145.csv","","null","resources/maskTrios/BBA1.jpg","null","",NA,NA,NA,NA,""
"image-keyboard-response",190,235295,"0.0-3.59-2.59","456qwcu92c6crcb",685,"145.csv","","null","resources/images/coin2.png","null","",NA,NA,NA,NA,""
"image-keyboard-response",191,235714,"0.0-3.60-0.60","456qwcu92c6crcb",685,"145.csv","","417.5","resources/trios/L4T4A3.jpg","39","restless",0.3,0.3,0.7,0.763709421071019,"false"
"image-keyboard-response",192,236124,"0.0-3.60-1.60","456qwcu92c6crcb",685,"145.csv","","null","resources/maskTrios/BBA3.jpg","null","",NA,NA,NA,NA,""
"image-keyboard-response",193,237335,"0.0-3.60-2.60","456qwcu92c6crcb",685,"145.csv","","null","resources/images/fishbone.png","null","",NA,NA,NA,NA,""
"image-keyboard-response",194,238263,"0.0-3.61-0.61","456qwcu92c6crcb",685,"145.csv","","927.1000000238419","resources/trios/L2T4A1.jpg","37","restless",0.2,0.3,0.7,0.900472978617226,"false"
"image-keyboard-response",195,238671,"0.0-3.61-1.61","456qwcu92c6crcb",685,"145.csv","","null","resources/maskTrios/L2BB.jpg","null","",NA,NA,NA,NA,""
"image-keyboard-response",196,239885,"0.0-3.61-2.61","456qwcu92c6crcb",685,"145.csv","","null","resources/images/fishbone.png","null","",NA,NA,NA,NA,""
"image-keyboard-response",197,240234,"0.0-3.62-0.62","456qwcu92c6crcb",685,"145.csv","","347.2000000476837","resources/trios/L2T2A3.jpg","39","restless",0.2,0.3,0.7,0.776685322052663,"false"
"image-keyboard-response",198,240658,"0.0-3.62-1.62","456qwcu92c6crcb",685,"145.csv","","null","resources/maskTrios/BBA3.jpg","null","",NA,NA,NA,NA,""
"image-keyboard-response",199,241877,"0.0-3.62-2.62","456qwcu92c6crcb",685,"145.csv","","null","resources/images/fishbone.png","null","",NA,NA,NA,NA,""
"image-keyboard-response",200,242314,"0.0-3.63-0.63","456qwcu92c6crcb",685,"145.csv","","434.5","resources/trios/L2T2A1.jpg","38","restless",0.3,0.3,0.7,0.629694791867989,"false"
"image-keyboard-response",201,242738,"0.0-3.63-1.63","456qwcu92c6crcb",685,"145.csv","","null","resources/maskTrios/BT2B.jpg","null","",NA,NA,NA,NA,""
"image-keyboard-response",202,243962,"0.0-3.63-2.63","456qwcu92c6crcb",685,"145.csv","","null","resources/images/fishbone.png","null","",NA,NA,NA,NA,""
"image-keyboard-response",203,244394,"0.0-3.64-0.64","456qwcu92c6crcb",685,"145.csv","","429.8000000715256","resources/trios/L2T2A1.jpg","37","restless",0.3,0.3,0.7,0.169253018919266,"true"
"image-keyboard-response",204,244805,"0.0-3.64-1.64","456qwcu92c6crcb",685,"145.csv","","null","resources/maskTrios/L2BB.jpg","null","",NA,NA,NA,NA,""
"image-keyboard-response",205,246022,"0.0-3.64-2.64","456qwcu92c6crcb",685,"145.csv","","null","resources/images/coin2.png","null","",NA,NA,NA,NA,""
"image-keyboard-response",206,247101,"0.0-3.65-0.65","456qwcu92c6crcb",685,"145.csv","","1077.9000000953674","resources/trios/L4T2A3.jpg","38","restless",0.3,0.3,0.7,0.418874779447292,"false"
"image-keyboard-response",207,247508,"0.0-3.65-1.65","456qwcu92c6crcb",685,"145.csv","","null","resources/maskTrios/BT2B.jpg","null","",NA,NA,NA,NA,""
"image-keyboard-response",208,248723,"0.0-3.65-2.65","456qwcu92c6crcb",685,"145.csv","","null","resources/images/fishbone.png","null","",NA,NA,NA,NA,""
"image-keyboard-response",209,249274,"0.0-3.66-0.66","456qwcu92c6crcb",685,"145.csv","","548","resources/trios/L2T2A3.jpg","37","restless",0.3,0.3,0.7,0.882582911747455,"false"
"image-keyboard-response",210,249690,"0.0-3.66-1.66","456qwcu92c6crcb",685,"145.csv","","null","resources/maskTrios/L2BB.jpg","null","",NA,NA,NA,NA,""
"image-keyboard-response",211,250903,"0.0-3.66-2.66","456qwcu92c6crcb",685,"145.csv","","null","resources/images/fishbone.png","null","",NA,NA,NA,NA,""
"image-keyboard-response",212,251292,"0.0-3.67-0.67","456qwcu92c6crcb",685,"145.csv","","385.7000000476837","resources/trios/L4T4A3.jpg","39","restless",0.3,0.3,0.7,0.77855664485134,"false"
"image-keyboard-response",213,251703,"0.0-3.67-1.67","456qwcu92c6crcb",685,"145.csv","","null","resources/maskTrios/BBA3.jpg","null","",NA,NA,NA,NA,""
"image-keyboard-response",214,252919,"0.0-3.67-2.67","456qwcu92c6crcb",685,"145.csv","","null","resources/images/fishbone.png","null","",NA,NA,NA,NA,""
"image-keyboard-response",215,253553,"0.0-3.68-0.68","456qwcu92c6crcb",685,"145.csv","","632.5","resources/trios/L4T4A1.jpg","38","restless",0.3,0.3,0.7,0.714155685876282,"false"
"image-keyboard-response",216,253959,"0.0-3.68-1.68","456qwcu92c6crcb",685,"145.csv","","null","resources/maskTrios/BT4B.jpg","null","",NA,NA,NA,NA,""
"image-keyboard-response",217,255166,"0.0-3.68-2.68","456qwcu92c6crcb",685,"145.csv","","null","resources/images/fishbone.png","null","",NA,NA,NA,NA,""
"image-keyboard-response",218,255553,"0.0-3.69-0.69","456qwcu92c6crcb",685,"145.csv","","385.7000000476837","resources/trios/L4T4A1.jpg","39","restless",0.3,0.3,0.7,0.0523377413279853,"true"
"image-keyboard-response",219,255971,"0.0-3.69-1.69","456qwcu92c6crcb",685,"145.csv","","null","resources/maskTrios/BBA1.jpg","null","",NA,NA,NA,NA,""
"image-keyboard-response",220,257180,"0.0-3.69-2.69","456qwcu92c6crcb",685,"145.csv","","null","resources/images/coin2.png","null","",NA,NA,NA,NA,""
"image-keyboard-response",221,258687,"0.0-3.70-0.70","456qwcu92c6crcb",685,"145.csv","","1506.1000000238419","resources/trios/L2T2A1.jpg","39","restless",0.4,0.3,0.7,0.615196492921844,"true"
"image-keyboard-response",222,259092,"0.0-3.70-1.70","456qwcu92c6crcb",685,"145.csv","","null","resources/maskTrios/BBA1.jpg","null","",NA,NA,NA,NA,""
"image-keyboard-response",223,260310,"0.0-3.70-2.70","456qwcu92c6crcb",685,"145.csv","","null","resources/images/coin2.png","null","",NA,NA,NA,NA,""
"image-keyboard-response",224,261154,"0.0-3.71-0.71","456qwcu92c6crcb",685,"145.csv","","842.8000000715256","resources/trios/L4T2A1.jpg","39","restless",0.4,0.3,0.7,0.947310490055166,"false"
"image-keyboard-response",225,261567,"0.0-3.71-1.71","456qwcu92c6crcb",685,"145.csv","","null","resources/maskTrios/BBA1.jpg","null","",NA,NA,NA,NA,""
"image-keyboard-response",226,262777,"0.0-3.71-2.71","456qwcu92c6crcb",685,"145.csv","","null","resources/images/fishbone.png","null","",NA,NA,NA,NA,""
"image-keyboard-response",227,263533,"0.0-3.72-0.72","456qwcu92c6crcb",685,"145.csv","","754.1000000238419","resources/trios/L2T4A3.jpg","37","restless",0.4,0.3,0.7,0.242372289104042,"true"
"image-keyboard-response",228,263947,"0.0-3.72-1.72","456qwcu92c6crcb",685,"145.csv","","null","resources/maskTrios/L2BB.jpg","null","",NA,NA,NA,NA,""
"image-keyboard-response",229,265172,"0.0-3.72-2.72","456qwcu92c6crcb",685,"145.csv","","null","resources/images/coin2.png","null","",NA,NA,NA,NA,""
"image-keyboard-response",230,265749,"0.0-3.73-0.73","456qwcu92c6crcb",685,"145.csv","","574.6999999284744","resources/trios/L2T2A1.jpg","39","restless",0.5,0.3,0.7,0.653148918294475,"true"
"image-keyboard-response",231,266160,"0.0-3.73-1.73","456qwcu92c6crcb",685,"145.csv","","null","resources/maskTrios/BBA1.jpg","null","",NA,NA,NA,NA,""
"image-keyboard-response",232,267366,"0.0-3.73-2.73","456qwcu92c6crcb",685,"145.csv","","null","resources/images/coin2.png","null","",NA,NA,NA,NA,""
"image-keyboard-response",233,268226,"0.0-3.74-0.74","456qwcu92c6crcb",685,"145.csv","","857.8000000715256","resources/trios/L4T2A3.jpg","37","restless",0.5,0.4,0.7,0.171297743110199,"true"
"image-keyboard-response",234,268643,"0.0-3.74-1.74","456qwcu92c6crcb",685,"145.csv","","null","resources/maskTrios/L4BB.jpg","null","",NA,NA,NA,NA,""
"image-keyboard-response",235,269860,"0.0-3.74-2.74","456qwcu92c6crcb",685,"145.csv","","null","resources/images/coin2.png","null","",NA,NA,NA,NA,""
"image-keyboard-response",236,270251,"0.0-3.75-0.75","456qwcu92c6crcb",685,"145.csv","","389.10000002384186","resources/trios/L2T2A3.jpg","39","restless",0.5,0.4,0.7,0.737199312061107,"false"
"image-keyboard-response",237,270671,"0.0-3.75-1.75","456qwcu92c6crcb",685,"145.csv","","null","resources/maskTrios/BBA3.jpg","null","",NA,NA,NA,NA,""
"image-keyboard-response",238,271882,"0.0-3.75-2.75","456qwcu92c6crcb",685,"145.csv","","null","resources/images/fishbone.png","null","",NA,NA,NA,NA,""
"image-keyboard-response",239,272165,"0.0-3.76-0.76","456qwcu92c6crcb",685,"145.csv","","280.2999999523163","resources/trios/L4T2A1.jpg","38","restless",0.6,0.4,0.7,0.792739434348632,"false"
"image-keyboard-response",240,272573,"0.0-3.76-1.76","456qwcu92c6crcb",685,"145.csv","","null","resources/maskTrios/BT2B.jpg","null","",NA,NA,NA,NA,""
"image-keyboard-response",241,273792,"0.0-3.76-2.76","456qwcu92c6crcb",685,"145.csv","","null","resources/images/fishbone.png","null","",NA,NA,NA,NA,""
"image-keyboard-response",242,274086,"0.0-3.77-0.77","456qwcu92c6crcb",685,"145.csv","","292.39999997615814","resources/trios/L4T2A1.jpg","37","restless",0.6,0.4,0.7,0.0711651916099887,"true"
"image-keyboard-response",243,274502,"0.0-3.77-1.77","456qwcu92c6crcb",685,"145.csv","","null","resources/maskTrios/L4BB.jpg","null","",NA,NA,NA,NA,""
"image-keyboard-response",244,275714,"0.0-3.77-2.77","456qwcu92c6crcb",685,"145.csv","","null","resources/images/coin2.png","null","",NA,NA,NA,NA,""
"image-keyboard-response",245,276076,"0.0-3.78-0.78","456qwcu92c6crcb",685,"145.csv","","359.7999999523163","resources/trios/L2T4A3.jpg","37","restless",0.6,0.4,0.7,0.241902462876856,"true"
"image-keyboard-response",246,276490,"0.0-3.78-1.78","456qwcu92c6crcb",685,"145.csv","","null","resources/maskTrios/L2BB.jpg","null","",NA,NA,NA,NA,""
"image-keyboard-response",247,277707,"0.0-3.78-2.78","456qwcu92c6crcb",685,"145.csv","","null","resources/images/coin2.png","null","",NA,NA,NA,NA,""
"image-keyboard-response",248,278000,"0.0-3.79-0.79","456qwcu92c6crcb",685,"145.csv","","291","resources/trios/L4T4A3.jpg","37","restless",0.6,0.4,0.7,0.519802198694288,"true"
"image-keyboard-response",249,278406,"0.0-3.79-1.79","456qwcu92c6crcb",685,"145.csv","","null","resources/maskTrios/L4BB.jpg","null","",NA,NA,NA,NA,""
"image-keyboard-response",250,279625,"0.0-3.79-2.79","456qwcu92c6crcb",685,"145.csv","","null","resources/images/coin2.png","null","",NA,NA,NA,NA,""
"image-keyboard-response",251,280000,"0.0-3.80-0.80","456qwcu92c6crcb",685,"145.csv","","373.5","resources/trios/L4T4A3.jpg","38","restless",0.6,0.4,0.7,0.333230674453101,"true"
"image-keyboard-response",252,280405,"0.0-3.80-1.80","456qwcu92c6crcb",685,"145.csv","","null","resources/maskTrios/BT4B.jpg","null","",NA,NA,NA,NA,""
"image-keyboard-response",253,281622,"0.0-3.80-2.80","456qwcu92c6crcb",685,"145.csv","","null","resources/images/coin2.png","null","",NA,NA,NA,NA,""
"image-keyboard-response",254,281934,"0.0-3.81-0.81","456qwcu92c6crcb",685,"145.csv","","310.60000002384186","resources/trios/L4T4A3.jpg","37","restless",0.6,0.3,0.7,0.14982869124288,"true"
"image-keyboard-response",255,282342,"0.0-3.81-1.81","456qwcu92c6crcb",685,"145.csv","","null","resources/maskTrios/L4BB.jpg","null","",NA,NA,NA,NA,""
"image-keyboard-response",256,283551,"0.0-3.81-2.81","456qwcu92c6crcb",685,"145.csv","","null","resources/images/coin2.png","null","",NA,NA,NA,NA,""
"image-keyboard-response",257,284099,"0.0-3.82-0.82","456qwcu92c6crcb",685,"145.csv","","546.3999999761581","resources/trios/L2T2A3.jpg","38","restless",0.6,0.3,0.7,0.200039685944947,"true"
"image-keyboard-response",258,284509,"0.0-3.82-1.82","456qwcu92c6crcb",685,"145.csv","","null","resources/maskTrios/BT2B.jpg","null","",NA,NA,NA,NA,""
"image-keyboard-response",259,285721,"0.0-3.82-2.82","456qwcu92c6crcb",685,"145.csv","","null","resources/images/coin2.png","null","",NA,NA,NA,NA,""
"image-keyboard-response",260,286114,"0.0-3.83-0.83","456qwcu92c6crcb",685,"145.csv","","391.7000000476837","resources/trios/L2T2A1.jpg","37","restless",0.6,0.3,0.7,0.929714374238693,"false"
"image-keyboard-response",261,286530,"0.0-3.83-1.83","456qwcu92c6crcb",685,"145.csv","","null","resources/maskTrios/L2BB.jpg","null","",NA,NA,NA,NA,""
"image-keyboard-response",262,287748,"0.0-3.83-2.83","456qwcu92c6crcb",685,"145.csv","","null","resources/images/fishbone.png","null","",NA,NA,NA,NA,""
"image-keyboard-response",263,288077,"0.0-3.84-0.84","456qwcu92c6crcb",685,"145.csv","","327.60000002384186","resources/trios/L2T4A3.jpg","39","restless",0.6,0.3,0.7,0.148398112899327,"true"
"image-keyboard-response",264,288490,"0.0-3.84-1.84","456qwcu92c6crcb",685,"145.csv","","null","resources/maskTrios/BBA3.jpg","null","",NA,NA,NA,NA,""
"image-keyboard-response",265,289707,"0.0-3.84-2.84","456qwcu92c6crcb",685,"145.csv","","null","resources/images/coin2.png","null","",NA,NA,NA,NA,""
"image-keyboard-response",266,290062,"0.0-3.85-0.85","456qwcu92c6crcb",685,"145.csv","","352.8000000715256","resources/trios/L2T4A1.jpg","38","restless",0.6,0.3,0.7,0.999209063451295,"false"
"image-keyboard-response",267,290474,"0.0-3.85-1.85","456qwcu92c6crcb",685,"145.csv","","null","resources/maskTrios/BT4B.jpg","null","",NA,NA,NA,NA,""
"image-keyboard-response",268,291684,"0.0-3.85-2.85","456qwcu92c6crcb",685,"145.csv","","null","resources/images/fishbone.png","null","",NA,NA,NA,NA,""
"image-keyboard-response",269,291976,"0.0-3.86-0.86","456qwcu92c6crcb",685,"145.csv","","290.10000002384186","resources/trios/L4T2A1.jpg","37","restless",0.6,0.4,0.7,0.823726187599649,"false"
"image-keyboard-response",270,292380,"0.0-3.86-1.86","456qwcu92c6crcb",685,"145.csv","","null","resources/maskTrios/L4BB.jpg","null","",NA,NA,NA,NA,""
"image-keyboard-response",271,293594,"0.0-3.86-2.86","456qwcu92c6crcb",685,"145.csv","","null","resources/images/fishbone.png","null","",NA,NA,NA,NA,""
"image-keyboard-response",272,294016,"0.0-3.87-0.87","456qwcu92c6crcb",685,"145.csv","","420.60000002384186","resources/trios/L2T4A3.jpg","39","restless",0.6,0.5,0.7,0.210925834783214,"true"
"image-keyboard-response",273,294427,"0.0-3.87-1.87","456qwcu92c6crcb",685,"145.csv","","null","resources/maskTrios/BBA3.jpg","null","",NA,NA,NA,NA,""
"image-keyboard-response",274,295643,"0.0-3.87-2.87","456qwcu92c6crcb",685,"145.csv","","null","resources/images/coin2.png","null","",NA,NA,NA,NA,""
"image-keyboard-response",275,295909,"0.0-3.88-0.88","456qwcu92c6crcb",685,"145.csv","","263.39999997615814","resources/trios/L4T4A3.jpg","39","restless",0.6,0.5,0.7,0.778601372427134,"false"
"image-keyboard-response",276,296320,"0.0-3.88-1.88","456qwcu92c6crcb",685,"145.csv","","null","resources/maskTrios/BBA3.jpg","null","",NA,NA,NA,NA,""
"image-keyboard-response",277,297526,"0.0-3.88-2.88","456qwcu92c6crcb",685,"145.csv","","null","resources/images/fishbone.png","null","",NA,NA,NA,NA,""
"image-keyboard-response",278,297828,"0.0-3.89-0.89","456qwcu92c6crcb",685,"145.csv","","300.2999999523163","resources/trios/L2T4A1.jpg","38","restless",0.6,0.6,0.7,0.568213185402416,"true"
"image-keyboard-response",279,298243,"0.0-3.89-1.89","456qwcu92c6crcb",685,"145.csv","","null","resources/maskTrios/BT4B.jpg","null","",NA,NA,NA,NA,""
"image-keyboard-response",280,299462,"0.0-3.89-2.89","456qwcu92c6crcb",685,"145.csv","","null","resources/images/coin2.png","null","",NA,NA,NA,NA,""
"image-keyboard-response",281,300264,"0.0-3.90-0.90","456qwcu92c6crcb",685,"145.csv","","800.1999999284744","resources/trios/L4T2A3.jpg","38","restless",0.6,0.6,0.7,0.14811369321442,"true"
"image-keyboard-response",282,300680,"0.0-3.90-1.90","456qwcu92c6crcb",685,"145.csv","","null","resources/maskTrios/BT2B.jpg","null","",NA,NA,NA,NA,""
"image-keyboard-response",283,301896,"0.0-3.90-2.90","456qwcu92c6crcb",685,"145.csv","","null","resources/images/coin2.png","null","",NA,NA,NA,NA,""
"image-keyboard-response",284,303094,"0.0-3.91-0.91","456qwcu92c6crcb",685,"145.csv","","1195.2999999523163","resources/trios/L2T2A3.jpg","37","restless",0.6,0.6,0.6,0.404042100965102,"true"
"image-keyboard-response",285,303507,"0.0-3.91-1.91","456qwcu92c6crcb",685,"145.csv","","null","resources/maskTrios/L2BB.jpg","null","",NA,NA,NA,NA,""
"image-keyboard-response",286,304724,"0.0-3.91-2.91","456qwcu92c6crcb",685,"145.csv","","null","resources/images/coin2.png","null","",NA,NA,NA,NA,""
"image-keyboard-response",287,305193,"0.0-3.92-0.92","456qwcu92c6crcb",685,"145.csv","","466.89999997615814","resources/trios/L2T2A1.jpg","39","restless",0.6,0.6,0.6,0.235118504062027,"true"
"image-keyboard-response",288,305602,"0.0-3.92-1.92","456qwcu92c6crcb",685,"145.csv","","null","resources/maskTrios/BBA1.jpg","null","",NA,NA,NA,NA,""
"image-keyboard-response",289,306818,"0.0-3.92-2.92","456qwcu92c6crcb",685,"145.csv","","null","resources/images/coin2.png","null","",NA,NA,NA,NA,""
"image-keyboard-response",290,319369,"0.0-3.93-0.93","456qwcu92c6crcb",685,"145.csv","","12549.799999952316","resources/trios/L2T4A1.jpg","39","restless",0.6,0.6,0.5,0.424709044842817,"true"
"image-keyboard-response",291,319786,"0.0-3.93-1.93","456qwcu92c6crcb",685,"145.csv","","null","resources/maskTrios/BBA1.jpg","null","",NA,NA,NA,NA,""
"image-keyboard-response",292,321008,"0.0-3.93-2.93","456qwcu92c6crcb",685,"145.csv","","null","resources/images/coin2.png","null","",NA,NA,NA,NA,""
"image-keyboard-response",293,321426,"0.0-3.94-0.94","456qwcu92c6crcb",685,"145.csv","","416.39999997615814","resources/trios/L4T2A1.jpg","37","restless",0.6,0.6,0.5,0.35510338172858,"true"
"image-keyboard-response",294,321839,"0.0-3.94-1.94","456qwcu92c6crcb",685,"145.csv","","null","resources/maskTrios/L4BB.jpg","null","",NA,NA,NA,NA,""
"image-keyboard-response",295,323053,"0.0-3.94-2.94","456qwcu92c6crcb",685,"145.csv","","null","resources/images/coin2.png","null","",NA,NA,NA,NA,""
"image-keyboard-response",296,323487,"0.0-3.95-0.95","456qwcu92c6crcb",685,"145.csv","","431.89999997615814","resources/trios/L2T4A3.jpg","39","restless",0.7,0.7,0.6,0.18222495532415,"true"
"image-keyboard-response",297,323899,"0.0-3.95-1.95","456qwcu92c6crcb",685,"145.csv","","null","resources/maskTrios/BBA3.jpg","null","",NA,NA,NA,NA,""
"image-keyboard-response",298,325120,"0.0-3.95-2.95","456qwcu92c6crcb",685,"145.csv","","null","resources/images/coin2.png","null","",NA,NA,NA,NA,""
"image-keyboard-response",299,325417,"0.0-3.96-0.96","456qwcu92c6crcb",685,"145.csv","","294.2999999523163","resources/trios/L2T2A1.jpg","37","restless",0.7,0.7,0.6,0.0346581369910801,"true"
"image-keyboard-response",300,325844,"0.0-3.96-1.96","456qwcu92c6crcb",685,"145.csv","","null","resources/maskTrios/L2BB.jpg","null","",NA,NA,NA,NA,""
"image-keyboard-response",301,327060,"0.0-3.96-2.96","456qwcu92c6crcb",685,"145.csv","","null","resources/images/coin2.png","null","",NA,NA,NA,NA,""
"image-keyboard-response",302,327412,"0.0-3.97-0.97","456qwcu92c6crcb",685,"145.csv","","350.10000002384186","resources/trios/L2T2A3.jpg","38","restless",0.7,0.7,0.6,0.0418735219486659,"true"
"image-keyboard-response",303,327822,"0.0-3.97-1.97","456qwcu92c6crcb",685,"145.csv","","null","resources/maskTrios/BT2B.jpg","null","",NA,NA,NA,NA,""
"image-keyboard-response",304,329040,"0.0-3.97-2.97","456qwcu92c6crcb",685,"145.csv","","null","resources/images/coin2.png","null","",NA,NA,NA,NA,""
"image-keyboard-response",305,329255,"0.0-3.98-0.98","456qwcu92c6crcb",685,"145.csv","","212.39999997615814","resources/trios/L4T4A1.jpg","39","restless",0.7,0.7,0.6,0.994013134418941,"false"
"image-keyboard-response",306,329666,"0.0-3.98-1.98","456qwcu92c6crcb",685,"145.csv","","null","resources/maskTrios/BBA1.jpg","null","",NA,NA,NA,NA,""
"image-keyboard-response",307,330873,"0.0-3.98-2.98","456qwcu92c6crcb",685,"145.csv","","null","resources/images/fishbone.png","null","",NA,NA,NA,NA,""
"image-keyboard-response",308,331215,"0.0-3.99-0.99","456qwcu92c6crcb",685,"145.csv","","339.2999999523163","resources/trios/L2T2A3.jpg","38","restless",0.7,0.7,0.6,0.977720447913711,"false"
"image-keyboard-response",309,331627,"0.0-3.99-1.99","456qwcu92c6crcb",685,"145.csv","","null","resources/maskTrios/BT2B.jpg","null","",NA,NA,NA,NA,""
"image-keyboard-response",310,332837,"0.0-3.99-2.99","456qwcu92c6crcb",685,"145.csv","","null","resources/images/fishbone.png","null","",NA,NA,NA,NA,""
"image-keyboard-response",311,333042,"0.0-3.100-0.100","456qwcu92c6crcb",685,"145.csv","","203.19999992847443","resources/trios/L4T4A3.jpg","37","restless",0.7,0.7,0.6,0.700494897355129,"false"
"image-keyboard-response",312,333455,"0.0-3.100-1.100","456qwcu92c6crcb",685,"145.csv","","null","resources/maskTrios/L4BB.jpg","null","",NA,NA,NA,NA,""
"image-keyboard-response",313,334668,"0.0-3.100-2.100","456qwcu92c6crcb",685,"145.csv","","null","resources/images/fishbone.png","null","",NA,NA,NA,NA,""
"image-keyboard-response",314,334669,"0.0-3.101-0.101","456qwcu92c6crcb",685,"145.csv","","0.20000004768371582","resources/trios/L2T4A1.jpg","38","restless",0.7,0.6,0.6,0.0660018115899945,"true"
"image-keyboard-response",315,335089,"0.0-3.101-1.101","456qwcu92c6crcb",685,"145.csv","","null","resources/maskTrios/BT4B.jpg","null","",NA,NA,NA,NA,""
"image-keyboard-response",316,336304,"0.0-3.101-2.101","456qwcu92c6crcb",685,"145.csv","","null","resources/images/coin2.png","null","",NA,NA,NA,NA,""
"image-keyboard-response",317,336598,"0.0-3.102-0.102","456qwcu92c6crcb",685,"145.csv","","292.7000000476837","resources/trios/L2T2A3.jpg","39","restless",0.8,0.6,0.6,0.477196808388285,"true"
"image-keyboard-response",318,337017,"0.0-3.102-1.102","456qwcu92c6crcb",685,"145.csv","","null","resources/maskTrios/BBA3.jpg","null","",NA,NA,NA,NA,""
"image-keyboard-response",319,338236,"0.0-3.102-2.102","456qwcu92c6crcb",685,"145.csv","","null","resources/images/coin2.png","null","",NA,NA,NA,NA,""
"image-keyboard-response",320,340768,"0.0-3.103-0.103","456qwcu92c6crcb",685,"145.csv","","2530.100000023842","resources/trios/L4T4A3.jpg","39","restless",0.8,0.6,0.6,0.786921618386516,"false"
"image-keyboard-response",321,341174,"0.0-3.103-1.103","456qwcu92c6crcb",685,"145.csv","","null","resources/maskTrios/BBA3.jpg","null","",NA,NA,NA,NA,""
"image-keyboard-response",322,342393,"0.0-3.103-2.103","456qwcu92c6crcb",685,"145.csv","","null","resources/images/fishbone.png","null","",NA,NA,NA,NA,""
"image-keyboard-response",323,343036,"0.0-3.104-0.104","456qwcu92c6crcb",685,"145.csv","","640","resources/trios/L4T4A1.jpg","37","restless",0.9,0.6,0.6,0.4410550445225,"true"
"image-keyboard-response",324,343455,"0.0-3.104-1.104","456qwcu92c6crcb",685,"145.csv","","null","resources/maskTrios/L4BB.jpg","null","",NA,NA,NA,NA,""
"image-keyboard-response",325,344669,"0.0-3.104-2.104","456qwcu92c6crcb",685,"145.csv","","null","resources/images/coin2.png","null","",NA,NA,NA,NA,""
"image-keyboard-response",326,344952,"0.0-3.105-0.105","456qwcu92c6crcb",685,"145.csv","","281.7999999523163","resources/trios/L2T4A1.jpg","38","restless",0.9,0.6,0.6,0.176745260996905,"true"
"image-keyboard-response",327,345359,"0.0-3.105-1.105","456qwcu92c6crcb",685,"145.csv","","null","resources/maskTrios/BT4B.jpg","null","",NA,NA,NA,NA,""
"image-keyboard-response",328,346574,"0.0-3.105-2.105","456qwcu92c6crcb",685,"145.csv","","null","resources/images/coin2.png","null","",NA,NA,NA,NA,""
"image-keyboard-response",329,346991,"0.0-3.106-0.106","456qwcu92c6crcb",685,"145.csv","","415.7999999523163","resources/trios/L4T4A3.jpg","37","restless",0.9,0.6,0.6,0.433314692264425,"true"
"image-keyboard-response",330,347411,"0.0-3.106-1.106","456qwcu92c6crcb",685,"145.csv","","null","resources/maskTrios/L4BB.jpg","null","",NA,NA,NA,NA,""
"image-keyboard-response",331,348620,"0.0-3.106-2.106","456qwcu92c6crcb",685,"145.csv","","null","resources/images/coin2.png","null","",NA,NA,NA,NA,""
"image-keyboard-response",332,348817,"0.0-3.107-0.107","456qwcu92c6crcb",685,"145.csv","","195.30000007152557","resources/trios/L2T2A3.jpg","38","restless",0.9,0.5,0.6,0.724539199026001,"false"
"image-keyboard-response",333,349226,"0.0-3.107-1.107","456qwcu92c6crcb",685,"145.csv","","null","resources/maskTrios/BT2B.jpg","null","",NA,NA,NA,NA,""
"image-keyboard-response",334,350437,"0.0-3.107-2.107","456qwcu92c6crcb",685,"145.csv","","null","resources/images/fishbone.png","null","",NA,NA,NA,NA,""
"image-keyboard-response",335,350699,"0.0-3.108-0.108","456qwcu92c6crcb",685,"145.csv","","260.39999997615814","resources/trios/L2T2A3.jpg","39","restless",0.9,0.5,0.6,0.810591454896102,"false"
"image-keyboard-response",336,351122,"0.0-3.108-1.108","456qwcu92c6crcb",685,"145.csv","","null","resources/maskTrios/BBA3.jpg","null","",NA,NA,NA,NA,""
"image-keyboard-response",337,352333,"0.0-3.108-2.108","456qwcu92c6crcb",685,"145.csv","","null","resources/images/fishbone.png","null","",NA,NA,NA,NA,""
"image-keyboard-response",338,352649,"0.0-3.109-0.109","456qwcu92c6crcb",685,"145.csv","","314.39999997615814","resources/trios/L2T2A1.jpg","37","restless",0.9,0.5,0.6,0.521535270439028,"true"
"image-keyboard-response",339,353060,"0.0-3.109-1.109","456qwcu92c6crcb",685,"145.csv","","null","resources/maskTrios/L2BB.jpg","null","",NA,NA,NA,NA,""
"image-keyboard-response",340,354268,"0.0-3.109-2.109","456qwcu92c6crcb",685,"145.csv","","null","resources/images/coin2.png","null","",NA,NA,NA,NA,""
"image-keyboard-response",341,354599,"0.0-3.110-0.110","456qwcu92c6crcb",685,"145.csv","","329.10000002384186","resources/trios/L2T4A3.jpg","37","restless",0.9,0.5,0.6,0.850141712509233,"true"
"image-keyboard-response",342,355007,"0.0-3.110-1.110","456qwcu92c6crcb",685,"145.csv","","null","resources/maskTrios/L2BB.jpg","null","",NA,NA,NA,NA,""
"image-keyboard-response",343,356220,"0.0-3.110-2.110","456qwcu92c6crcb",685,"145.csv","","null","resources/images/coin2.png","null","",NA,NA,NA,NA,""
"image-keyboard-response",344,356819,"0.0-3.111-0.111","456qwcu92c6crcb",685,"145.csv","","597.2000000476837","resources/trios/L4T4A3.jpg","38","restless",0.9,0.5,0.6,0.712178966478181,"false"
"image-keyboard-response",345,357242,"0.0-3.111-1.111","456qwcu92c6crcb",685,"145.csv","","null","resources/maskTrios/BT4B.jpg","null","",NA,NA,NA,NA,""
"image-keyboard-response",346,358456,"0.0-3.111-2.111","456qwcu92c6crcb",685,"145.csv","","null","resources/images/fishbone.png","null","",NA,NA,NA,NA,""
"image-keyboard-response",347,358712,"0.0-3.112-0.112","456qwcu92c6crcb",685,"145.csv","","253.5","resources/trios/L4T4A1.jpg","37","restless",0.9,0.5,0.6,0.0320483235860651,"true"
"image-keyboard-response",348,359117,"0.0-3.112-1.112","456qwcu92c6crcb",685,"145.csv","","null","resources/maskTrios/L4BB.jpg","null","",NA,NA,NA,NA,""
"image-keyboard-response",349,360330,"0.0-3.112-2.112","456qwcu92c6crcb",685,"145.csv","","null","resources/images/coin2.png","null","",NA,NA,NA,NA,""
"image-keyboard-response",350,360855,"0.0-3.113-0.113","456qwcu92c6crcb",685,"145.csv","","524.5","resources/trios/L4T4A1.jpg","37","restless",0.9,0.5,0.7,0.984259549269416,"false"
"image-keyboard-response",351,361260,"0.0-3.113-1.113","456qwcu92c6crcb",685,"145.csv","","null","resources/maskTrios/L4BB.jpg","null","",NA,NA,NA,NA,""
"image-keyboard-response",352,362474,"0.0-3.113-2.113","456qwcu92c6crcb",685,"145.csv","","null","resources/images/fishbone.png","null","",NA,NA,NA,NA,""
"image-keyboard-response",353,363963,"0.0-3.114-0.114","456qwcu92c6crcb",685,"145.csv","","1487.4000000953674","resources/trios/L4T4A1.jpg","38","restless",0.9,0.5,0.7,0.452473868463714,"true"
"image-keyboard-response",354,364373,"0.0-3.114-1.114","456qwcu92c6crcb",685,"145.csv","","null","resources/maskTrios/BT4B.jpg","null","",NA,NA,NA,NA,""
"image-keyboard-response",355,365587,"0.0-3.114-2.114","456qwcu92c6crcb",685,"145.csv","","null","resources/images/coin2.png","null","",NA,NA,NA,NA,""
"image-keyboard-response",356,365893,"0.0-3.115-0.115","456qwcu92c6crcb",685,"145.csv","","303.39999997615814","resources/trios/L4T2A3.jpg","39","restless",0.9,0.5,0.7,0.0485120313856566,"true"
"image-keyboard-response",357,366306,"0.0-3.115-1.115","456qwcu92c6crcb",685,"145.csv","","null","resources/maskTrios/BBA3.jpg","null","",NA,NA,NA,NA,""
"image-keyboard-response",358,367511,"0.0-3.115-2.115","456qwcu92c6crcb",685,"145.csv","","null","resources/images/coin2.png","null","",NA,NA,NA,NA,""
"image-keyboard-response",359,367757,"0.0-3.116-0.116","456qwcu92c6crcb",685,"145.csv","","245.10000002384186","resources/trios/L2T2A3.jpg","38","restless",0.9,0.5,0.7,0.769739164480857,"false"
"image-keyboard-response",360,368179,"0.0-3.116-1.116","456qwcu92c6crcb",685,"145.csv","","null","resources/maskTrios/BT2B.jpg","null","",NA,NA,NA,NA,""
"image-keyboard-response",361,369395,"0.0-3.116-2.116","456qwcu92c6crcb",685,"145.csv","","null","resources/images/fishbone.png","null","",NA,NA,NA,NA,""
"image-keyboard-response",362,369637,"0.0-3.117-0.117","456qwcu92c6crcb",685,"145.csv","","240.10000002384186","resources/trios/L4T2A1.jpg","39","restless",0.9,0.5,0.7,0.387391158326215,"true"
"image-keyboard-response",363,370055,"0.0-3.117-1.117","456qwcu92c6crcb",685,"145.csv","","null","resources/maskTrios/BBA1.jpg","null","",NA,NA,NA,NA,""
"image-keyboard-response",364,371264,"0.0-3.117-2.117","456qwcu92c6crcb",685,"145.csv","","null","resources/images/coin2.png","null","",NA,NA,NA,NA,""
"image-keyboard-response",365,371642,"0.0-3.118-0.118","456qwcu92c6crcb",685,"145.csv","","376.10000002384186","resources/trios/L2T4A1.jpg","37","restless",0.9,0.5,0.7,0.223835784032024,"true"
"image-keyboard-response",366,372065,"0.0-3.118-1.118","456qwcu92c6crcb",685,"145.csv","","null","resources/maskTrios/L2BB.jpg","null","",NA,NA,NA,NA,""
"image-keyboard-response",367,373273,"0.0-3.118-2.118","456qwcu92c6crcb",685,"145.csv","","null","resources/images/coin2.png","null","",NA,NA,NA,NA,""
"image-keyboard-response",368,378188,"0.0-3.119-0.119","456qwcu92c6crcb",685,"145.csv","","4912.100000023842","resources/trios/L4T4A1.jpg","38","restless",0.9,0.4,0.7,0.877153353799778,"false"
"image-keyboard-response",369,378602,"0.0-3.119-1.119","456qwcu92c6crcb",685,"145.csv","","null","resources/maskTrios/BT4B.jpg","null","",NA,NA,NA,NA,""
"image-keyboard-response",370,379823,"0.0-3.119-2.119","456qwcu92c6crcb",685,"145.csv","","null","resources/images/fishbone.png","null","",NA,NA,NA,NA,""
"image-keyboard-response",371,380147,"0.0-3.120-0.120","456qwcu92c6crcb",685,"145.csv","","322.2999999523163","resources/trios/L2T2A3.jpg","39","restless",0.9,0.4,0.7,0.702093454514208,"false"
"image-keyboard-response",372,380570,"0.0-3.120-1.120","456qwcu92c6crcb",685,"145.csv","","null","resources/maskTrios/BBA3.jpg","null","",NA,NA,NA,NA,""
"image-keyboard-response",373,381781,"0.0-3.120-2.120","456qwcu92c6crcb",685,"145.csv","","null","resources/images/fishbone.png","null","",NA,NA,NA,NA,""
"image-keyboard-response",374,382078,"0.0-3.121-0.121","456qwcu92c6crcb",685,"145.csv","","295.5","resources/trios/L4T4A1.jpg","37","restless",0.9,0.4,0.7,0.711955593534877,"true"
"image-keyboard-response",375,382492,"0.0-3.121-1.121","456qwcu92c6crcb",685,"145.csv","","null","resources/maskTrios/L4BB.jpg","null","",NA,NA,NA,NA,""
"image-keyboard-response",376,383707,"0.0-3.121-2.121","456qwcu92c6crcb",685,"145.csv","","null","resources/images/coin2.png","null","",NA,NA,NA,NA,""
"image-keyboard-response",377,383980,"0.0-3.122-0.122","456qwcu92c6crcb",685,"145.csv","","271.1999999284744","resources/trios/L4T2A3.jpg","38","restless",0.9,0.4,0.7,0.595513014583726,"false"
"image-keyboard-response",378,384391,"0.0-3.122-1.122","456qwcu92c6crcb",685,"145.csv","","null","resources/maskTrios/BT2B.jpg","null","",NA,NA,NA,NA,""
"image-keyboard-response",379,385612,"0.0-3.122-2.122","456qwcu92c6crcb",685,"145.csv","","null","resources/images/fishbone.png","null","",NA,NA,NA,NA,""
"image-keyboard-response",380,385947,"0.0-3.123-0.123","456qwcu92c6crcb",685,"145.csv","","332.5","resources/trios/L2T2A3.jpg","37","restless",0.9,0.4,0.7,0.841449719759485,"true"
"image-keyboard-response",381,386361,"0.0-3.123-1.123","456qwcu92c6crcb",685,"145.csv","","null","resources/maskTrios/L2BB.jpg","null","",NA,NA,NA,NA,""
"image-keyboard-response",382,387574,"0.0-3.123-2.123","456qwcu92c6crcb",685,"145.csv","","null","resources/images/coin2.png","null","",NA,NA,NA,NA,""
"image-keyboard-response",383,388062,"0.0-3.124-0.124","456qwcu92c6crcb",685,"145.csv","","486.09999990463257","resources/trios/L4T2A1.jpg","37","restless",0.9,0.4,0.7,0.358702146440984,"true"
"image-keyboard-response",384,388476,"0.0-3.124-1.124","456qwcu92c6crcb",685,"145.csv","","null","resources/maskTrios/L4BB.jpg","null","",NA,NA,NA,NA,""
"image-keyboard-response",385,389691,"0.0-3.124-2.124","456qwcu92c6crcb",685,"145.csv","","null","resources/images/coin2.png","null","",NA,NA,NA,NA,""
"image-keyboard-response",386,390092,"0.0-3.125-0.125","456qwcu92c6crcb",685,"145.csv","","399","resources/trios/L2T4A1.jpg","38","restless",0.8,0.4,0.8,0.703080061685301,"false"
"image-keyboard-response",387,390502,"0.0-3.125-1.125","456qwcu92c6crcb",685,"145.csv","","null","resources/maskTrios/BT4B.jpg","null","",NA,NA,NA,NA,""
"image-keyboard-response",388,391718,"0.0-3.125-2.125","456qwcu92c6crcb",685,"145.csv","","null","resources/images/fishbone.png","null","",NA,NA,NA,NA,""
"image-keyboard-response",389,391995,"0.0-3.126-0.126","456qwcu92c6crcb",685,"145.csv","","275.6999999284744","resources/trios/L2T2A1.jpg","37","restless",0.8,0.4,0.8,0.589425151227455,"true"
"image-keyboard-response",390,392408,"0.0-3.126-1.126","456qwcu92c6crcb",685,"145.csv","","null","resources/maskTrios/L2BB.jpg","null","",NA,NA,NA,NA,""
"image-keyboard-response",391,393613,"0.0-3.126-2.126","456qwcu92c6crcb",685,"145.csv","","null","resources/images/coin2.png","null","",NA,NA,NA,NA,""
"image-keyboard-response",392,393870,"0.0-3.127-0.127","456qwcu92c6crcb",685,"145.csv","","252.20000004768372","resources/trios/L2T2A3.jpg","39","restless",0.8,0.4,0.8,0.775335045667042,"true"
"image-keyboard-response",393,394289,"0.0-3.127-1.127","456qwcu92c6crcb",685,"145.csv","","null","resources/maskTrios/BBA3.jpg","null","",NA,NA,NA,NA,""
"image-keyboard-response",394,395505,"0.0-3.127-2.127","456qwcu92c6crcb",685,"145.csv","","null","resources/images/coin2.png","null","",NA,NA,NA,NA,""
"image-keyboard-response",395,395854,"0.0-3.128-0.128","456qwcu92c6crcb",685,"145.csv","","347","resources/trios/L4T4A1.jpg","39","restless",0.8,0.4,0.7,0.0915860741568613,"true"
"image-keyboard-response",396,396267,"0.0-3.128-1.128","456qwcu92c6crcb",685,"145.csv","","null","resources/maskTrios/BBA1.jpg","null","",NA,NA,NA,NA,""
"image-keyboard-response",397,397490,"0.0-3.128-2.128","456qwcu92c6crcb",685,"145.csv","","null","resources/images/coin2.png","null","",NA,NA,NA,NA,""
"image-keyboard-response",398,397947,"0.0-3.129-0.129","456qwcu92c6crcb",685,"145.csv","","455.59999990463257","resources/trios/L4T4A3.jpg","37","restless",0.8,0.4,0.7,0.64046727572922,"true"
"image-keyboard-response",399,398357,"0.0-3.129-1.129","456qwcu92c6crcb",685,"145.csv","","null","resources/maskTrios/L4BB.jpg","null","",NA,NA,NA,NA,""
"image-keyboard-response",400,399574,"0.0-3.129-2.129","456qwcu92c6crcb",685,"145.csv","","null","resources/images/coin2.png","null","",NA,NA,NA,NA,""
"image-keyboard-response",401,399805,"0.0-3.130-0.130","456qwcu92c6crcb",685,"145.csv","","230.70000004768372","resources/trios/L4T2A3.jpg","39","restless",0.8,0.4,0.7,0.575114159079831,"true"
"image-keyboard-response",402,400222,"0.0-3.130-1.130","456qwcu92c6crcb",685,"145.csv","","null","resources/maskTrios/BBA3.jpg","null","",NA,NA,NA,NA,""
"image-keyboard-response",403,401437,"0.0-3.130-2.130","456qwcu92c6crcb",685,"145.csv","","null","resources/images/coin2.png","null","",NA,NA,NA,NA,""
"image-keyboard-response",404,401614,"0.0-3.131-0.131","456qwcu92c6crcb",685,"145.csv","","175.79999995231628","resources/trios/L2T4A3.jpg","38","restless",0.8,0.4,0.7,0.653982637218017,"false"
"image-keyboard-response",405,402025,"0.0-3.131-1.131","456qwcu92c6crcb",685,"145.csv","","null","resources/maskTrios/BT4B.jpg","null","",NA,NA,NA,NA,""
"image-keyboard-response",406,403232,"0.0-3.131-2.131","456qwcu92c6crcb",685,"145.csv","","null","resources/images/fishbone.png","null","",NA,NA,NA,NA,""
"image-keyboard-response",407,403373,"0.0-3.132-0.132","456qwcu92c6crcb",685,"145.csv","","138.89999997615814","resources/trios/L4T2A1.jpg","37","restless",0.8,0.4,0.8,0.763332288741895,"true"
"image-keyboard-response",408,403788,"0.0-3.132-1.132","456qwcu92c6crcb",685,"145.csv","","null","resources/maskTrios/L4BB.jpg","null","",NA,NA,NA,NA,""
"image-keyboard-response",409,405005,"0.0-3.132-2.132","456qwcu92c6crcb",685,"145.csv","","null","resources/images/coin2.png","null","",NA,NA,NA,NA,""
"image-keyboard-response",410,405290,"0.0-3.133-0.133","456qwcu92c6crcb",685,"145.csv","","283","resources/trios/L2T2A1.jpg","39","restless",0.8,0.5,0.8,0.945247592210281,"false"
"image-keyboard-response",411,405692,"0.0-3.133-1.133","456qwcu92c6crcb",685,"145.csv","","null","resources/maskTrios/BBA1.jpg","null","",NA,NA,NA,NA,""
"image-keyboard-response",412,406902,"0.0-3.133-2.133","456qwcu92c6crcb",685,"145.csv","","null","resources/images/fishbone.png","null","",NA,NA,NA,NA,""
"image-keyboard-response",413,407129,"0.0-3.134-0.134","456qwcu92c6crcb",685,"145.csv","","225","resources/trios/L2T4A1.jpg","37","restless",0.8,0.5,0.8,0.251734173760056,"true"
"image-keyboard-response",414,407546,"0.0-3.134-1.134","456qwcu92c6crcb",685,"145.csv","","null","resources/maskTrios/L2BB.jpg","null","",NA,NA,NA,NA,""
"image-keyboard-response",415,408762,"0.0-3.134-2.134","456qwcu92c6crcb",685,"145.csv","","null","resources/images/coin2.png","null","",NA,NA,NA,NA,""
"image-keyboard-response",416,409001,"0.0-3.135-0.135","456qwcu92c6crcb",685,"145.csv","","236.80000007152557","resources/trios/L4T2A1.jpg","38","restless",0.8,0.5,0.8,0.967981045384108,"false"
"image-keyboard-response",417,409410,"0.0-3.135-1.135","456qwcu92c6crcb",685,"145.csv","","null","resources/maskTrios/BT2B.jpg","null","",NA,NA,NA,NA,""
"image-keyboard-response",418,410624,"0.0-3.135-2.135","456qwcu92c6crcb",685,"145.csv","","null","resources/images/fishbone.png","null","",NA,NA,NA,NA,""
"image-keyboard-response",419,410815,"0.0-3.136-0.136","456qwcu92c6crcb",685,"145.csv","","189.60000002384186","resources/trios/L4T4A1.jpg","37","restless",0.8,0.5,0.8,0.608223683362757,"true"
"image-keyboard-response",420,411235,"0.0-3.136-1.136","456qwcu92c6crcb",685,"145.csv","","null","resources/maskTrios/L4BB.jpg","null","",NA,NA,NA,NA,""
"image-keyboard-response",421,412446,"0.0-3.136-2.136","456qwcu92c6crcb",685,"145.csv","","null","resources/images/coin2.png","null","",NA,NA,NA,NA,""
"image-keyboard-response",422,412651,"0.0-3.137-0.137","456qwcu92c6crcb",685,"145.csv","","202.89999997615814","resources/trios/L2T2A3.jpg","39","restless",0.8,0.5,0.8,0.221366541908627,"true"
"image-keyboard-response",423,413065,"0.0-3.137-1.137","456qwcu92c6crcb",685,"145.csv","","null","resources/maskTrios/BBA3.jpg","null","",NA,NA,NA,NA,""
"image-keyboard-response",424,414281,"0.0-3.137-2.137","456qwcu92c6crcb",685,"145.csv","","null","resources/images/coin2.png","null","",NA,NA,NA,NA,""
"image-keyboard-response",425,414764,"0.0-3.138-0.138","456qwcu92c6crcb",685,"145.csv","","481.7999999523163","resources/trios/L4T2A1.jpg","38","restless",0.7,0.4,0.8,0.434895216612582,"false"
"image-keyboard-response",426,415174,"0.0-3.138-1.138","456qwcu92c6crcb",685,"145.csv","","null","resources/maskTrios/BT2B.jpg","null","",NA,NA,NA,NA,""
"image-keyboard-response",427,416395,"0.0-3.138-2.138","456qwcu92c6crcb",685,"145.csv","","null","resources/images/fishbone.png","null","",NA,NA,NA,NA,""
"image-keyboard-response",428,416683,"0.0-3.139-0.139","456qwcu92c6crcb",685,"145.csv","","286.10000002384186","resources/trios/L2T2A3.jpg","37","restless",0.7,0.4,0.8,0.821925067108528,"false"
"image-keyboard-response",429,417102,"0.0-3.139-1.139","456qwcu92c6crcb",685,"145.csv","","null","resources/maskTrios/L2BB.jpg","null","",NA,NA,NA,NA,""
"image-keyboard-response",430,418315,"0.0-3.139-2.139","456qwcu92c6crcb",685,"145.csv","","null","resources/images/fishbone.png","null","",NA,NA,NA,NA,""
"image-keyboard-response",431,418557,"0.0-3.140-0.140","456qwcu92c6crcb",685,"145.csv","","245.5","resources/trios/L2T4A3.jpg","38","restless",0.8,0.4,0.8,0.726347055659436,"false"
"image-keyboard-response",432,418978,"0.0-3.140-1.140","456qwcu92c6crcb",685,"145.csv","","null","resources/maskTrios/BT4B.jpg","null","",NA,NA,NA,NA,""
"image-keyboard-response",433,420199,"0.0-3.140-2.140","456qwcu92c6crcb",685,"145.csv","","null","resources/images/fishbone.png","null","",NA,NA,NA,NA,""
"image-keyboard-response",434,420601,"0.0-3.141-0.141","456qwcu92c6crcb",685,"145.csv","","400.5","resources/trios/L2T2A1.jpg","39","restless",0.8,0.4,0.8,0.410166081488021,"true"
"image-keyboard-response",435,421013,"0.0-3.141-1.141","456qwcu92c6crcb",685,"145.csv","","null","resources/maskTrios/BBA1.jpg","null","",NA,NA,NA,NA,""
"image-keyboard-response",436,422238,"0.0-3.141-2.141","456qwcu92c6crcb",685,"145.csv","","null","resources/images/coin2.png","null","",NA,NA,NA,NA,""
"image-keyboard-response",437,422697,"0.0-3.142-0.142","456qwcu92c6crcb",685,"145.csv","","456.3000000715256","resources/trios/L2T4A3.jpg","37","restless",0.8,0.4,0.8,0.655728822410061,"true"
"image-keyboard-response",438,423109,"0.0-3.142-1.142","456qwcu92c6crcb",685,"145.csv","","null","resources/maskTrios/L2BB.jpg","null","",NA,NA,NA,NA,""
"image-keyboard-response",439,424319,"0.0-3.142-2.142","456qwcu92c6crcb",685,"145.csv","","null","resources/images/coin2.png","null","",NA,NA,NA,NA,""
"image-keyboard-response",440,424544,"0.0-3.143-0.143","456qwcu92c6crcb",685,"145.csv","","222.29999995231628","resources/trios/L4T4A3.jpg","38","restless",0.8,0.4,0.8,0.0340349543953504,"true"
"image-keyboard-response",441,424947,"0.0-3.143-1.143","456qwcu92c6crcb",685,"145.csv","","null","resources/maskTrios/BT4B.jpg","null","",NA,NA,NA,NA,""
"image-keyboard-response",442,426164,"0.0-3.143-2.143","456qwcu92c6crcb",685,"145.csv","","null","resources/images/coin2.png","null","",NA,NA,NA,NA,""
"image-keyboard-response",443,426233,"0.0-3.144-0.144","456qwcu92c6crcb",685,"145.csv","","67.60000002384186","resources/trios/L2T2A1.jpg","37","restless",0.8,0.4,0.8,0.762843070921031,"true"
"image-keyboard-response",444,426652,"0.0-3.144-1.144","456qwcu92c6crcb",685,"145.csv","","null","resources/maskTrios/L2BB.jpg","null","",NA,NA,NA,NA,""
"image-keyboard-response",445,427867,"0.0-3.144-2.144","456qwcu92c6crcb",685,"145.csv","","null","resources/images/coin2.png","null","",NA,NA,NA,NA,""
"image-keyboard-response",446,428090,"0.0-3.145-0.145","456qwcu92c6crcb",685,"145.csv","","221.40000009536743","resources/trios/L2T2A3.jpg","39","restless",0.8,0.4,0.8,0.0259838442566627,"true"
"image-keyboard-response",447,428499,"0.0-3.145-1.145","456qwcu92c6crcb",685,"145.csv","","null","resources/maskTrios/BBA3.jpg","null","",NA,NA,NA,NA,""
"image-keyboard-response",448,429706,"0.0-3.145-2.145","456qwcu92c6crcb",685,"145.csv","","null","resources/images/coin2.png","null","",NA,NA,NA,NA,""
"image-keyboard-response",449,429934,"0.0-3.146-0.146","456qwcu92c6crcb",685,"145.csv","","227.10000002384186","resources/trios/L4T4A3.jpg","38","restless",0.8,0.4,0.8,0.772424649855869,"false"
"image-keyboard-response",450,430347,"0.0-3.146-1.146","456qwcu92c6crcb",685,"145.csv","","null","resources/maskTrios/BT4B.jpg","null","",NA,NA,NA,NA,""
"image-keyboard-response",451,431557,"0.0-3.146-2.146","456qwcu92c6crcb",685,"145.csv","","null","resources/images/fishbone.png","null","",NA,NA,NA,NA,""
"image-keyboard-response",452,431738,"0.0-3.147-0.147","456qwcu92c6crcb",685,"145.csv","","179.10000002384186","resources/trios/L4T2A3.jpg","38","restless",0.8,0.4,0.8,0.412635410317645,"false"
"image-keyboard-response",453,432151,"0.0-3.147-1.147","456qwcu92c6crcb",685,"145.csv","","null","resources/maskTrios/BT2B.jpg","null","",NA,NA,NA,NA,""
"image-keyboard-response",454,433373,"0.0-3.147-2.147","456qwcu92c6crcb",685,"145.csv","","null","resources/images/fishbone.png","null","",NA,NA,NA,NA,""
"image-keyboard-response",455,433619,"0.0-3.148-0.148","456qwcu92c6crcb",685,"145.csv","","243.80000007152557","resources/trios/L2T2A1.jpg","37","restless",0.7,0.4,0.8,0.106539343116982,"true"
"image-keyboard-response",456,434024,"0.0-3.148-1.148","456qwcu92c6crcb",685,"145.csv","","null","resources/maskTrios/L2BB.jpg","null","",NA,NA,NA,NA,""
"image-keyboard-response",457,435241,"0.0-3.148-2.148","456qwcu92c6crcb",685,"145.csv","","null","resources/images/coin2.png","null","",NA,NA,NA,NA,""
"image-keyboard-response",458,435452,"0.0-3.149-0.149","456qwcu92c6crcb",685,"145.csv","","209","resources/trios/L2T4A3.jpg","39","restless",0.7,0.4,0.8,0.272837701147667,"true"
"image-keyboard-response",459,435868,"0.0-3.149-1.149","456qwcu92c6crcb",685,"145.csv","","null","resources/maskTrios/BBA3.jpg","null","",NA,NA,NA,NA,""
"image-keyboard-response",460,437076,"0.0-3.149-2.149","456qwcu92c6crcb",685,"145.csv","","null","resources/images/coin2.png","null","",NA,NA,NA,NA,""
"image-keyboard-response",461,437378,"0.0-3.150-0.150","456qwcu92c6crcb",685,"145.csv","","299.59999990463257","resources/trios/L4T4A1.jpg","37","restless",0.7,0.4,0.8,0.200212366460398,"true"
"image-keyboard-response",462,437789,"0.0-3.150-1.150","456qwcu92c6crcb",685,"145.csv","","null","resources/maskTrios/L4BB.jpg","null","",NA,NA,NA,NA,""
"image-keyboard-response",463,439011,"0.0-3.150-2.150","456qwcu92c6crcb",685,"145.csv","","null","resources/images/coin2.png","null","",NA,NA,NA,NA,""
"image-keyboard-response",464,439166,"0.0-3.151-0.151","456qwcu92c6crcb",685,"145.csv","","152.29999995231628","resources/trios/L2T2A1.jpg","38","restless",0.7,0.4,0.8,0.525260812702427,"false"
"image-keyboard-response",465,439588,"0.0-3.151-1.151","456qwcu92c6crcb",685,"145.csv","","null","resources/maskTrios/BT2B.jpg","null","",NA,NA,NA,NA,""
"image-keyboard-response",466,440793,"0.0-3.151-2.151","456qwcu92c6crcb",685,"145.csv","","null","resources/images/fishbone.png","null","",NA,NA,NA,NA,""
"image-keyboard-response",467,440831,"0.0-3.152-0.152","456qwcu92c6crcb",685,"145.csv","","36.5","resources/trios/L2T2A3.jpg","37","restless",0.7,0.4,0.8,0.460056120964162,"true"
"image-keyboard-response",468,441249,"0.0-3.152-1.152","456qwcu92c6crcb",685,"145.csv","","null","resources/maskTrios/L2BB.jpg","null","",NA,NA,NA,NA,""
"image-keyboard-response",469,442465,"0.0-3.152-2.152","456qwcu92c6crcb",685,"145.csv","","null","resources/images/coin2.png","null","",NA,NA,NA,NA,""
"image-keyboard-response",470,442608,"0.0-3.153-0.153","456qwcu92c6crcb",685,"145.csv","","141.09999990463257","resources/trios/L4T4A3.jpg","39","restless",0.7,0.4,0.8,0.909590105904138,"false"
"image-keyboard-response",471,443019,"0.0-3.153-1.153","456qwcu92c6crcb",685,"145.csv","","null","resources/maskTrios/BBA3.jpg","null","",NA,NA,NA,NA,""
"image-keyboard-response",472,444232,"0.0-3.153-2.153","456qwcu92c6crcb",685,"145.csv","","null","resources/images/fishbone.png","null","",NA,NA,NA,NA,""
"image-keyboard-response",473,444602,"0.0-3.154-0.154","456qwcu92c6crcb",685,"145.csv","","368.40000009536743","resources/trios/L4T2A1.jpg","38","restless",0.7,0.4,0.8,0.573869976880579,"false"
"image-keyboard-response",474,445021,"0.0-3.154-1.154","456qwcu92c6crcb",685,"145.csv","","null","resources/maskTrios/BT2B.jpg","null","",NA,NA,NA,NA,""
"image-keyboard-response",475,446236,"0.0-3.154-2.154","456qwcu92c6crcb",685,"145.csv","","null","resources/images/fishbone.png","null","",NA,NA,NA,NA,""
"image-keyboard-response",476,446476,"0.0-3.155-0.155","456qwcu92c6crcb",685,"145.csv","","238.80000007152557","resources/trios/L4T2A1.jpg","37","restless",0.6,0.4,0.8,0.647161972169151,"false"
"image-keyboard-response",477,446889,"0.0-3.155-1.155","456qwcu92c6crcb",685,"145.csv","","null","resources/maskTrios/L4BB.jpg","null","",NA,NA,NA,NA,""
"image-keyboard-response",478,448108,"0.0-3.155-2.155","456qwcu92c6crcb",685,"145.csv","","null","resources/images/fishbone.png","null","",NA,NA,NA,NA,""
"image-keyboard-response",479,448156,"0.0-3.156-0.156","456qwcu92c6crcb",685,"145.csv","","46.89999997615814","resources/trios/L2T4A3.jpg","39","restless",0.6,0.4,0.8,0.758690922599895,"true"
"image-keyboard-response",480,448573,"0.0-3.156-1.156","456qwcu92c6crcb",685,"145.csv","","null","resources/maskTrios/BBA3.jpg","null","",NA,NA,NA,NA,""
"image-keyboard-response",481,449790,"0.0-3.156-2.156","456qwcu92c6crcb",685,"145.csv","","null","resources/images/coin2.png","null","",NA,NA,NA,NA,""
"image-keyboard-response",482,450075,"0.0-3.157-0.157","456qwcu92c6crcb",685,"145.csv","","282.89999997615814","resources/trios/L2T2A1.jpg","39","restless",0.6,0.4,0.8,0.255419631702252,"true"
"image-keyboard-response",483,450482,"0.0-3.157-1.157","456qwcu92c6crcb",685,"145.csv","","null","resources/maskTrios/BBA1.jpg","null","",NA,NA,NA,NA,""
"image-keyboard-response",484,451701,"0.0-3.157-2.157","456qwcu92c6crcb",685,"145.csv","","null","resources/images/coin2.png","null","",NA,NA,NA,NA,""
"image-keyboard-response",485,451994,"0.0-3.158-0.158","456qwcu92c6crcb",685,"145.csv","","291.6999999284744","resources/trios/L4T2A1.jpg","38","restless",0.6,0.4,0.8,0.637993310695256,"false"
"image-keyboard-response",486,452407,"0.0-3.158-1.158","456qwcu92c6crcb",685,"145.csv","","null","resources/maskTrios/BT2B.jpg","null","",NA,NA,NA,NA,""
"image-keyboard-response",487,453615,"0.0-3.158-2.158","456qwcu92c6crcb",685,"145.csv","","null","resources/images/fishbone.png","null","",NA,NA,NA,NA,""
"image-keyboard-response",488,453883,"0.0-3.159-0.159","456qwcu92c6crcb",685,"145.csv","","266","resources/trios/L2T2A1.jpg","39","restless",0.6,0.4,0.8,0.202555196201514,"true"
"image-keyboard-response",489,454295,"0.0-3.159-1.159","456qwcu92c6crcb",685,"145.csv","","null","resources/maskTrios/BBA1.jpg","null","",NA,NA,NA,NA,""
"image-keyboard-response",490,455515,"0.0-3.159-2.159","456qwcu92c6crcb",685,"145.csv","","null","resources/images/coin2.png","null","",NA,NA,NA,NA,""
"image-keyboard-response",491,455829,"0.0-3.160-0.160","456qwcu92c6crcb",685,"145.csv","","313.10000002384186","resources/trios/L2T4A3.jpg","39","restless",0.6,0.4,0.8,0.376626086110102,"true"
"image-keyboard-response",492,456255,"0.0-3.160-1.160","456qwcu92c6crcb",685,"145.csv","","null","resources/maskTrios/BBA3.jpg","null","",NA,NA,NA,NA,""
"image-keyboard-response",493,457469,"0.0-3.160-2.160","456qwcu92c6crcb",685,"145.csv","","null","resources/images/coin2.png","null","",NA,NA,NA,NA,""
"image-keyboard-response",494,457807,"0.0-3.161-0.161","456qwcu92c6crcb",685,"145.csv","","335.1999999284744","resources/trios/L4T2A1.jpg","39","restless",0.6,0.4,0.8,0.570853568185193,"true"
"image-keyboard-response",495,458218,"0.0-3.161-1.161","456qwcu92c6crcb",685,"145.csv","","null","resources/maskTrios/BBA1.jpg","null","",NA,NA,NA,NA,""
"image-keyboard-response",496,459435,"0.0-3.161-2.161","456qwcu92c6crcb",685,"145.csv","","null","resources/images/coin2.png","null","",NA,NA,NA,NA,""
"image-keyboard-response",497,459717,"0.0-3.162-0.162","456qwcu92c6crcb",685,"145.csv","","280.2999999523163","resources/trios/L4T4A3.jpg","37","restless",0.6,0.4,0.8,0.770369776746533,"false"
"image-keyboard-response",498,460125,"0.0-3.162-1.162","456qwcu92c6crcb",685,"145.csv","","null","resources/maskTrios/L4BB.jpg","null","",NA,NA,NA,NA,""
"image-keyboard-response",499,461334,"0.0-3.162-2.162","456qwcu92c6crcb",685,"145.csv","","null","resources/images/fishbone.png","null","",NA,NA,NA,NA,""
"image-keyboard-response",500,461540,"0.0-3.163-0.163","456qwcu92c6crcb",685,"145.csv","","204.39999997615814","resources/trios/L4T2A3.jpg","39","restless",0.6,0.4,0.8,0.582550563773367,"true"
"image-keyboard-response",501,461945,"0.0-3.163-1.163","456qwcu92c6crcb",685,"145.csv","","null","resources/maskTrios/BBA3.jpg","null","",NA,NA,NA,NA,""
"image-keyboard-response",502,463165,"0.0-3.163-2.163","456qwcu92c6crcb",685,"145.csv","","null","resources/images/coin2.png","null","",NA,NA,NA,NA,""
"image-keyboard-response",503,463424,"0.0-3.164-0.164","456qwcu92c6crcb",685,"145.csv","","257.2000000476837","resources/trios/L2T4A3.jpg","39","restless",0.6,0.4,0.8,0.69308137793436,"true"
"image-keyboard-response",504,463846,"0.0-3.164-1.164","456qwcu92c6crcb",685,"145.csv","","null","resources/maskTrios/BBA3.jpg","null","",NA,NA,NA,NA,""
"image-keyboard-response",505,465056,"0.0-3.164-2.164","456qwcu92c6crcb",685,"145.csv","","null","resources/images/coin2.png","null","",NA,NA,NA,NA,""
"image-keyboard-response",506,465268,"0.0-3.165-0.165","456qwcu92c6crcb",685,"145.csv","","210.20000004768372","resources/trios/L2T4A1.jpg","39","restless",0.6,0.4,0.8,0.429629950302158,"true"
"image-keyboard-response",507,465676,"0.0-3.165-1.165","456qwcu92c6crcb",685,"145.csv","","null","resources/maskTrios/BBA1.jpg","null","",NA,NA,NA,NA,""
"image-keyboard-response",508,466886,"0.0-3.165-2.165","456qwcu92c6crcb",685,"145.csv","","null","resources/images/coin2.png","null","",NA,NA,NA,NA,""
"image-keyboard-response",509,467112,"0.0-3.166-0.166","456qwcu92c6crcb",685,"145.csv","","223.5","resources/trios/L4T2A1.jpg","38","restless",0.6,0.4,0.7,0.647967564596532,"false"
"image-keyboard-response",510,467522,"0.0-3.166-1.166","456qwcu92c6crcb",685,"145.csv","","null","resources/maskTrios/BT2B.jpg","null","",NA,NA,NA,NA,""
"image-keyboard-response",511,468740,"0.0-3.166-2.166","456qwcu92c6crcb",685,"145.csv","","null","resources/images/fishbone.png","null","",NA,NA,NA,NA,""
"image-keyboard-response",512,468940,"0.0-3.167-0.167","456qwcu92c6crcb",685,"145.csv","","197","resources/trios/L4T2A3.jpg","39","restless",0.6,0.4,0.7,0.191643894823687,"true"
"image-keyboard-response",513,469353,"0.0-3.167-1.167","456qwcu92c6crcb",685,"145.csv","","null","resources/maskTrios/BBA3.jpg","null","",NA,NA,NA,NA,""
"image-keyboard-response",514,470571,"0.0-3.167-2.167","456qwcu92c6crcb",685,"145.csv","","null","resources/images/coin2.png","null","",NA,NA,NA,NA,""
"image-keyboard-response",515,470798,"0.0-3.168-0.168","456qwcu92c6crcb",685,"145.csv","","225.5","resources/trios/L4T4A3.jpg","39","restless",0.6,0.4,0.7,0.971754979447544,"false"
"image-keyboard-response",516,471214,"0.0-3.168-1.168","456qwcu92c6crcb",685,"145.csv","","null","resources/maskTrios/BBA3.jpg","null","",NA,NA,NA,NA,""
"image-keyboard-response",517,472433,"0.0-3.168-2.168","456qwcu92c6crcb",685,"145.csv","","null","resources/images/fishbone.png","null","",NA,NA,NA,NA,""
"image-keyboard-response",518,472658,"0.0-3.169-0.169","456qwcu92c6crcb",685,"145.csv","","223.60000002384186","resources/trios/L4T2A3.jpg","38","restless",0.5,0.5,0.7,0.794696832891541,"false"
"image-keyboard-response",519,473075,"0.0-3.169-1.169","456qwcu92c6crcb",685,"145.csv","","null","resources/maskTrios/BT2B.jpg","null","",NA,NA,NA,NA,""
"image-keyboard-response",520,474288,"0.0-3.169-2.169","456qwcu92c6crcb",685,"145.csv","","null","resources/images/fishbone.png","null","",NA,NA,NA,NA,""
"image-keyboard-response",521,474796,"0.0-3.170-0.170","456qwcu92c6crcb",685,"145.csv","","506.40000009536743","resources/trios/L4T2A3.jpg","37","restless",0.5,0.5,0.7,0.861588611733709,"false"
"image-keyboard-response",522,475212,"0.0-3.170-1.170","456qwcu92c6crcb",685,"145.csv","","null","resources/maskTrios/L4BB.jpg","null","",NA,NA,NA,NA,""
"image-keyboard-response",523,476429,"0.0-3.170-2.170","456qwcu92c6crcb",685,"145.csv","","null","resources/images/fishbone.png","null","",NA,NA,NA,NA,""
"image-keyboard-response",524,476691,"0.0-3.171-0.171","456qwcu92c6crcb",685,"145.csv","","259.60000002384186","resources/trios/L4T4A1.jpg","38","restless",0.5,0.4,0.7,0.773044163027854,"false"
"image-keyboard-response",525,477108,"0.0-3.171-1.171","456qwcu92c6crcb",685,"145.csv","","null","resources/maskTrios/BT4B.jpg","null","",NA,NA,NA,NA,""
"image-keyboard-response",526,478315,"0.0-3.171-2.171","456qwcu92c6crcb",685,"145.csv","","null","resources/images/fishbone.png","null","",NA,NA,NA,NA,""
"image-keyboard-response",527,478449,"0.0-3.172-0.172","456qwcu92c6crcb",685,"145.csv","","132.29999995231628","resources/trios/L2T4A1.jpg","39","restless",0.5,0.4,0.7,0.0654422289043768,"true"
"image-keyboard-response",528,478875,"0.0-3.172-1.172","456qwcu92c6crcb",685,"145.csv","","null","resources/maskTrios/BBA1.jpg","null","",NA,NA,NA,NA,""
"image-keyboard-response",529,480098,"0.0-3.172-2.172","456qwcu92c6crcb",685,"145.csv","","null","resources/images/coin2.png","null","",NA,NA,NA,NA,""
"image-keyboard-response",530,480329,"0.0-3.173-0.173","456qwcu92c6crcb",685,"145.csv","","228.39999997615814","resources/trios/L2T2A3.jpg","39","restless",0.5,0.4,0.7,0.508905060319933,"true"
"image-keyboard-response",531,480735,"0.0-3.173-1.173","456qwcu92c6crcb",685,"145.csv","","null","resources/maskTrios/BBA3.jpg","null","",NA,NA,NA,NA,""
"image-keyboard-response",532,481945,"0.0-3.173-2.173","456qwcu92c6crcb",685,"145.csv","","null","resources/images/coin2.png","null","",NA,NA,NA,NA,""
"image-keyboard-response",533,482164,"0.0-3.174-0.174","456qwcu92c6crcb",685,"145.csv","","217.29999995231628","resources/trios/L4T2A1.jpg","39","restless",0.5,0.4,0.7,0.583925030851695,"true"
"image-keyboard-response",534,482587,"0.0-3.174-1.174","456qwcu92c6crcb",685,"145.csv","","null","resources/maskTrios/BBA1.jpg","null","",NA,NA,NA,NA,""
"image-keyboard-response",535,483805,"0.0-3.174-2.174","456qwcu92c6crcb",685,"145.csv","","null","resources/images/coin2.png","null","",NA,NA,NA,NA,""
"image-keyboard-response",536,484038,"0.0-3.175-0.175","456qwcu92c6crcb",685,"145.csv","","231.10000002384186","resources/trios/L4T4A1.jpg","39","restless",0.5,0.4,0.7,0.475645370680722,"true"
"image-keyboard-response",537,484452,"0.0-3.175-1.175","456qwcu92c6crcb",685,"145.csv","","null","resources/maskTrios/BBA1.jpg","null","",NA,NA,NA,NA,""
"image-keyboard-response",538,485674,"0.0-3.175-2.175","456qwcu92c6crcb",685,"145.csv","","null","resources/images/coin2.png","null","",NA,NA,NA,NA,""
"image-keyboard-response",539,485882,"0.0-3.176-0.176","456qwcu92c6crcb",685,"145.csv","","205.70000004768372","resources/trios/L4T2A1.jpg","39","restless",0.6,0.4,0.6,0.33615375978304,"true"
"image-keyboard-response",540,486292,"0.0-3.176-1.176","456qwcu92c6crcb",685,"145.csv","","null","resources/maskTrios/BBA1.jpg","null","",NA,NA,NA,NA,""
"image-keyboard-response",541,487513,"0.0-3.176-2.176","456qwcu92c6crcb",685,"145.csv","","null","resources/images/coin2.png","null","",NA,NA,NA,NA,""
"image-keyboard-response",542,487816,"0.0-3.177-0.177","456qwcu92c6crcb",685,"145.csv","","301.7000000476837","resources/trios/L4T4A3.jpg","39","restless",0.7,0.4,0.6,0.665685609568303,"false"
"image-keyboard-response",543,488223,"0.0-3.177-1.177","456qwcu92c6crcb",685,"145.csv","","null","resources/maskTrios/BBA3.jpg","null","",NA,NA,NA,NA,""
"image-keyboard-response",544,489430,"0.0-3.177-2.177","456qwcu92c6crcb",685,"145.csv","","null","resources/images/fishbone.png","null","",NA,NA,NA,NA,""
"image-keyboard-response",545,489616,"0.0-3.178-0.178","456qwcu92c6crcb",685,"145.csv","","183.60000002384186","resources/trios/L2T2A1.jpg","38","restless",0.7,0.4,0.6,0.680020172514417,"false"
"image-keyboard-response",546,490026,"0.0-3.178-1.178","456qwcu92c6crcb",685,"145.csv","","null","resources/maskTrios/BT2B.jpg","null","",NA,NA,NA,NA,""
"image-keyboard-response",547,491233,"0.0-3.178-2.178","456qwcu92c6crcb",685,"145.csv","","null","resources/images/fishbone.png","null","",NA,NA,NA,NA,""
"image-keyboard-response",548,491444,"0.0-3.179-0.179","456qwcu92c6crcb",685,"145.csv","","208.70000004768372","resources/trios/L2T4A1.jpg","37","restless",0.7,0.4,0.6,0.306572329392194,"true"
"image-keyboard-response",549,491866,"0.0-3.179-1.179","456qwcu92c6crcb",685,"145.csv","","null","resources/maskTrios/L2BB.jpg","null","",NA,NA,NA,NA,""
"image-keyboard-response",550,493084,"0.0-3.179-2.179","456qwcu92c6crcb",685,"145.csv","","null","resources/images/coin2.png","null","",NA,NA,NA,NA,""
"image-keyboard-response",551,493322,"0.0-3.180-0.180","456qwcu92c6crcb",685,"145.csv","","236.09999990463257","resources/trios/L4T4A1.jpg","37","restless",0.7,0.4,0.6,0.956121507039295,"false"
"image-keyboard-response",552,493739,"0.0-3.180-1.180","456qwcu92c6crcb",685,"145.csv","","null","resources/maskTrios/L4BB.jpg","null","",NA,NA,NA,NA,""
"image-keyboard-response",553,494953,"0.0-3.180-2.180","456qwcu92c6crcb",685,"145.csv","","null","resources/images/fishbone.png","null","",NA,NA,NA,NA,""
"image-keyboard-response",554,495201,"0.0-3.181-0.181","456qwcu92c6crcb",685,"145.csv","","246.19999992847443","resources/trios/L2T4A3.jpg","38","restless",0.7,0.4,0.5,0.668561044144609,"false"
"image-keyboard-response",555,495619,"0.0-3.181-1.181","456qwcu92c6crcb",685,"145.csv","","null","resources/maskTrios/BT4B.jpg","null","",NA,NA,NA,NA,""
"image-keyboard-response",556,496844,"0.0-3.181-2.181","456qwcu92c6crcb",685,"145.csv","","null","resources/images/fishbone.png","null","",NA,NA,NA,NA,""
"image-keyboard-response",557,497005,"0.0-3.182-0.182","456qwcu92c6crcb",685,"145.csv","","159.60000002384186","resources/trios/L2T4A1.jpg","39","restless",0.7,0.4,0.5,0.0697607194922261,"true"
"image-keyboard-response",558,497417,"0.0-3.182-1.182","456qwcu92c6crcb",685,"145.csv","","null","resources/maskTrios/BBA1.jpg","null","",NA,NA,NA,NA,""
"image-keyboard-response",559,498627,"0.0-3.182-2.182","456qwcu92c6crcb",685,"145.csv","","null","resources/images/coin2.png","null","",NA,NA,NA,NA,""
"image-keyboard-response",560,498854,"0.0-3.183-0.183","456qwcu92c6crcb",685,"145.csv","","224.69999992847443","resources/trios/L2T2A1.jpg","39","restless",0.7,0.5,0.5,0.659072284309295,"false"
"image-keyboard-response",561,499275,"0.0-3.183-1.183","456qwcu92c6crcb",685,"145.csv","","null","resources/maskTrios/BBA1.jpg","null","",NA,NA,NA,NA,""
"image-keyboard-response",562,500487,"0.0-3.183-2.183","456qwcu92c6crcb",685,"145.csv","","null","resources/images/fishbone.png","null","",NA,NA,NA,NA,""
"image-keyboard-response",563,500702,"0.0-3.184-0.184","456qwcu92c6crcb",685,"145.csv","","213.40000009536743","resources/trios/L4T2A1.jpg","39","restless",0.7,0.4,0.5,0.326245409287045,"true"
"image-keyboard-response",564,501114,"0.0-3.184-1.184","456qwcu92c6crcb",685,"145.csv","","null","resources/maskTrios/BBA1.jpg","null","",NA,NA,NA,NA,""
"image-keyboard-response",565,502328,"0.0-3.184-2.184","456qwcu92c6crcb",685,"145.csv","","null","resources/images/coin2.png","null","",NA,NA,NA,NA,""
"image-keyboard-response",566,502543,"0.0-3.185-0.185","456qwcu92c6crcb",685,"145.csv","","214.19999992847443","resources/trios/L2T4A3.jpg","39","restless",0.7,0.4,0.4,0.426577323798385,"false"
"image-keyboard-response",567,502964,"0.0-3.185-1.185","456qwcu92c6crcb",685,"145.csv","","null","resources/maskTrios/BBA3.jpg","null","",NA,NA,NA,NA,""
"image-keyboard-response",568,504173,"0.0-3.185-2.185","456qwcu92c6crcb",685,"145.csv","","null","resources/images/fishbone.png","null","",NA,NA,NA,NA,""
"image-keyboard-response",569,504386,"0.0-3.186-0.186","456qwcu92c6crcb",685,"145.csv","","210.89999997615814","resources/trios/L2T4A3.jpg","39","restless",0.7,0.4,0.4,0.379394740045556,"true"
"image-keyboard-response",570,504803,"0.0-3.186-1.186","456qwcu92c6crcb",685,"145.csv","","null","resources/maskTrios/BBA3.jpg","null","",NA,NA,NA,NA,""
"image-keyboard-response",571,506013,"0.0-3.186-2.186","456qwcu92c6crcb",685,"145.csv","","null","resources/images/coin2.png","null","",NA,NA,NA,NA,""
"image-keyboard-response",572,506959,"0.0-3.187-0.187","456qwcu92c6crcb",685,"145.csv","","945.2999999523163","resources/trios/L4T2A1.jpg","38","restless",0.7,0.4,0.4,0.204517056498553,"true"
"image-keyboard-response",573,507374,"0.0-3.187-1.187","456qwcu92c6crcb",685,"145.csv","","null","resources/maskTrios/BT2B.jpg","null","",NA,NA,NA,NA,""
"image-keyboard-response",574,508578,"0.0-3.187-2.187","456qwcu92c6crcb",685,"145.csv","","null","resources/images/coin2.png","null","",NA,NA,NA,NA,""
"image-keyboard-response",575,512015,"0.0-3.188-0.188","456qwcu92c6crcb",685,"145.csv","","3435.5","resources/trios/L2T4A1.jpg","39","restless",0.7,0.4,0.4,0.45716269401683,"false"
"image-keyboard-response",576,512427,"0.0-3.188-1.188","456qwcu92c6crcb",685,"145.csv","","null","resources/maskTrios/BBA1.jpg","null","",NA,NA,NA,NA,""
"image-keyboard-response",577,513651,"0.0-3.188-2.188","456qwcu92c6crcb",685,"145.csv","","null","resources/images/fishbone.png","null","",NA,NA,NA,NA,""
"image-keyboard-response",578,514190,"0.0-3.189-0.189","456qwcu92c6crcb",685,"145.csv","","537.2999999523163","resources/trios/L4T2A1.jpg","38","restless",0.6,0.4,0.4,0.340455539799208,"true"
"image-keyboard-response",579,514599,"0.0-3.189-1.189","456qwcu92c6crcb",685,"145.csv","","null","resources/maskTrios/BT2B.jpg","null","",NA,NA,NA,NA,""
"image-keyboard-response",580,515815,"0.0-3.189-2.189","456qwcu92c6crcb",685,"145.csv","","null","resources/images/coin2.png","null","",NA,NA,NA,NA,""
"image-keyboard-response",581,516694,"0.0-3.190-0.190","456qwcu92c6crcb",685,"145.csv","","877.3000000715256","resources/trios/L2T4A1.jpg","37","restless",0.7,0.4,0.3,0.133972467219524,"true"
"image-keyboard-response",582,517104,"0.0-3.190-1.190","456qwcu92c6crcb",685,"145.csv","","null","resources/maskTrios/L2BB.jpg","null","",NA,NA,NA,NA,""
"image-keyboard-response",583,518315,"0.0-3.190-2.190","456qwcu92c6crcb",685,"145.csv","","null","resources/images/coin2.png","null","",NA,NA,NA,NA,""
"image-keyboard-response",584,519340,"0.0-3.191-0.191","456qwcu92c6crcb",685,"145.csv","","1023.1000000238419","resources/trios/L4T2A3.jpg","39","restless",0.7,0.4,0.3,0.821737280687067,"false"
"image-keyboard-response",585,519761,"0.0-3.191-1.191","456qwcu92c6crcb",685,"145.csv","","null","resources/maskTrios/BBA3.jpg","null","",NA,NA,NA,NA,""
"image-keyboard-response",586,520975,"0.0-3.191-2.191","456qwcu92c6crcb",685,"145.csv","","null","resources/images/fishbone.png","null","",NA,NA,NA,NA,""
"image-keyboard-response",587,521511,"0.0-3.192-0.192","456qwcu92c6crcb",685,"145.csv","","534.1999999284744","resources/trios/L2T2A3.jpg","38","restless",0.7,0.4,0.2,0.967532474047648,"false"
"image-keyboard-response",588,521927,"0.0-3.192-1.192","456qwcu92c6crcb",685,"145.csv","","null","resources/maskTrios/BT2B.jpg","null","",NA,NA,NA,NA,""
"image-keyboard-response",589,523137,"0.0-3.192-2.192","456qwcu92c6crcb",685,"145.csv","","null","resources/images/fishbone.png","null","",NA,NA,NA,NA,""
"image-keyboard-response",590,523993,"0.0-3.193-0.193","456qwcu92c6crcb",685,"145.csv","","853.8000000715256","resources/trios/L4T2A3.jpg","38","restless",0.7,0.4,0.2,0.840988537254004,"false"
"image-keyboard-response",591,524409,"0.0-3.193-1.193","456qwcu92c6crcb",685,"145.csv","","null","resources/maskTrios/BT2B.jpg","null","",NA,NA,NA,NA,""
"image-keyboard-response",592,525619,"0.0-3.193-2.193","456qwcu92c6crcb",685,"145.csv","","null","resources/images/fishbone.png","null","",NA,NA,NA,NA,""
"image-keyboard-response",593,526150,"0.0-3.194-0.194","456qwcu92c6crcb",685,"145.csv","","529.8999999761581","resources/trios/L2T2A1.jpg","38","restless",0.7,0.4,0.2,0.579613326319739,"false"
"image-keyboard-response",594,526571,"0.0-3.194-1.194","456qwcu92c6crcb",685,"145.csv","","null","resources/maskTrios/BT2B.jpg","null","",NA,NA,NA,NA,""
"image-keyboard-response",595,527784,"0.0-3.194-2.194","456qwcu92c6crcb",685,"145.csv","","null","resources/images/fishbone.png","null","",NA,NA,NA,NA,""
"image-keyboard-response",596,528100,"0.0-3.195-0.195","456qwcu92c6crcb",685,"145.csv","","313.5","resources/trios/L4T4A3.jpg","39","restless",0.6,0.4,0.2,0.68808382073747,"false"
"image-keyboard-response",597,528524,"0.0-3.195-1.195","456qwcu92c6crcb",685,"145.csv","","null","resources/maskTrios/BBA3.jpg","null","",NA,NA,NA,NA,""
"image-keyboard-response",598,529737,"0.0-3.195-2.195","456qwcu92c6crcb",685,"145.csv","","null","resources/images/fishbone.png","null","",NA,NA,NA,NA,""
"image-keyboard-response",599,530013,"0.0-3.196-0.196","456qwcu92c6crcb",685,"145.csv","","273.7000000476837","resources/trios/L2T2A3.jpg","37","restless",0.5,0.5,0.2,0.907336929804106,"false"
"image-keyboard-response",600,530420,"0.0-3.196-1.196","456qwcu92c6crcb",685,"145.csv","","null","resources/maskTrios/L2BB.jpg","null","",NA,NA,NA,NA,""
"image-keyboard-response",601,531632,"0.0-3.196-2.196","456qwcu92c6crcb",685,"145.csv","","null","resources/images/fishbone.png","null","",NA,NA,NA,NA,""
"image-keyboard-response",602,531862,"0.0-3.197-0.197","456qwcu92c6crcb",685,"145.csv","","228.40000009536743","resources/trios/L4T4A3.jpg","38","restless",0.5,0.5,0.2,0.678008558135622,"false"
"image-keyboard-response",603,532283,"0.0-3.197-1.197","456qwcu92c6crcb",685,"145.csv","","null","resources/maskTrios/BT4B.jpg","null","",NA,NA,NA,NA,""
"image-keyboard-response",604,533500,"0.0-3.197-2.197","456qwcu92c6crcb",685,"145.csv","","null","resources/images/fishbone.png","null","",NA,NA,NA,NA,""
"image-keyboard-response",605,533691,"0.0-3.198-0.198","456qwcu92c6crcb",685,"145.csv","","188.5","resources/trios/L2T4A1.jpg","39","restless",0.5,0.5,0.1,0.991281943203805,"false"
"image-keyboard-response",606,534114,"0.0-3.198-1.198","456qwcu92c6crcb",685,"145.csv","","null","resources/maskTrios/BBA1.jpg","null","",NA,NA,NA,NA,""
