"trial_type","trial_index","time_elapsed","internal_node_id","subject","participantCode","walkNumber","success","rt","stimulus","key_press","test_part","leftProb","midProb","rightProb","generatedNum","correct"
"pavlovia",0,964,"0.0-0.0","sv5yfm8wr8snk7y",603,"19.csv","","","","","",NA,NA,NA,NA,""
"fullscreen",1,23188,"0.0-1.0","sv5yfm8wr8snk7y",603,"19.csv","true","","","","",NA,NA,NA,NA,""
"html-keyboard-response",2,51758,"0.0-2.0-0.0","sv5yfm8wr8snk7y",603,"19.csv","","28568.099999904633","<p><font size='6'>Arrrgh!</p></font><p>Can you be the best pirate? Try to find lots of gold! But beware, some islands have more gold than others, and over time, the island with the most gold may change. Can YOU figure it out? </p><font size='6'>GOOD LUCK, CAPTAIN!!!</font><p>Press any key to begin</p>","32","",NA,NA,NA,NA,""
"image-keyboard-response",3,54764,"0.0-2.0-1.0","sv5yfm8wr8snk7y",603,"19.csv","","null","resources/image_sets/111.png","null","",NA,NA,NA,NA,""
"image-keyboard-response",4,57289,"0.0-2.0-2.0","sv5yfm8wr8snk7y",603,"19.csv","","2523.100000023842","resources/image_sets/left_highlight.png","37","",NA,NA,NA,NA,""
"image-keyboard-response",5,58553,"0.0-2.0-3.0","sv5yfm8wr8snk7y",603,"19.csv","","1261.1000000238419","resources/image_sets/mid_highlight.png","38","",NA,NA,NA,NA,""
"image-keyboard-response",6,58923,"0.0-2.0-4.0","sv5yfm8wr8snk7y",603,"19.csv","","368.5","resources/image_sets/right_highlight.png","39","",NA,NA,NA,NA,""
"image-keyboard-response",7,60992,"0.0-2.0-5.0","sv5yfm8wr8snk7y",603,"19.csv","","2067.5","resources/image_sets/111.png","13","",NA,NA,NA,NA,""
"image-keyboard-response",8,63709,"0.0-2.0-6.0","sv5yfm8wr8snk7y",603,"19.csv","","2715.5999999046326","resources/images/coin2.png","13","",NA,NA,NA,NA,""
"image-keyboard-response",9,65083,"0.0-2.0-7.0","sv5yfm8wr8snk7y",603,"19.csv","","1371.2999999523163","resources/images/fishbone.png","13","",NA,NA,NA,NA,""
"html-keyboard-response",10,66515,"0.0-2.0-8.0","sv5yfm8wr8snk7y",603,"19.csv","","1431.1000000238419","<p>Your first journey will be a long one, but you will get a well deserved break at the end</p><p>After the break you will have four more journeys, but each will be much shorter than the first, and you will have breaks in between each</p><p>Press Enter to begin</p>","13","",NA,NA,NA,NA,""
"image-keyboard-response",11,67701,"0.0-3.0-0.0","sv5yfm8wr8snk7y",603,"19.csv","","1182.5","resources/trios/L2T2A2.jpg","37","restless",0.3,0.7,0.9,0.171735007907962,"true"
"image-keyboard-response",12,68110,"0.0-3.0-1.0","sv5yfm8wr8snk7y",603,"19.csv","","null","resources/maskTrios/L2BB.jpg","null","",NA,NA,NA,NA,""
"image-keyboard-response",13,69317,"0.0-3.0-2.0","sv5yfm8wr8snk7y",603,"19.csv","","null","resources/images/coin2.png","null","",NA,NA,NA,NA,""
"image-keyboard-response",14,69738,"0.0-3.1-0.1","sv5yfm8wr8snk7y",603,"19.csv","","418.2000000476837","resources/trios/L1T2A2.jpg","37","restless",0.3,0.7,0.9,0.712717001060274,"false"
"image-keyboard-response",15,70146,"0.0-3.1-1.1","sv5yfm8wr8snk7y",603,"19.csv","","null","resources/maskTrios/L1BB.jpg","null","",NA,NA,NA,NA,""
"image-keyboard-response",16,71353,"0.0-3.1-2.1","sv5yfm8wr8snk7y",603,"19.csv","","null","resources/images/fishbone.png","null","",NA,NA,NA,NA,""
"image-keyboard-response",17,71718,"0.0-3.2-0.2","sv5yfm8wr8snk7y",603,"19.csv","","363","resources/trios/L2T1A1.jpg","38","restless",0.3,0.7,0.9,0.630297529634829,"true"
"image-keyboard-response",18,72125,"0.0-3.2-1.2","sv5yfm8wr8snk7y",603,"19.csv","","null","resources/maskTrios/BT1B.jpg","null","",NA,NA,NA,NA,""
"image-keyboard-response",19,73332,"0.0-3.2-2.2","sv5yfm8wr8snk7y",603,"19.csv","","null","resources/images/coin2.png","null","",NA,NA,NA,NA,""
"image-keyboard-response",20,73453,"0.0-3.3-0.3","sv5yfm8wr8snk7y",603,"19.csv","","118.40000009536743","resources/trios/L1T2A2.jpg","38","restless",0.3,0.7,0.9,0.918052360383964,"false"
"image-keyboard-response",21,73860,"0.0-3.3-1.3","sv5yfm8wr8snk7y",603,"19.csv","","null","resources/maskTrios/BT2B.jpg","null","",NA,NA,NA,NA,""
"image-keyboard-response",22,75063,"0.0-3.3-2.3","sv5yfm8wr8snk7y",603,"19.csv","","null","resources/images/fishbone.png","null","",NA,NA,NA,NA,""
"image-keyboard-response",23,75504,"0.0-3.4-0.4","sv5yfm8wr8snk7y",603,"19.csv","","439.10000002384186","resources/trios/L1T1A2.jpg","39","restless",0.3,0.7,0.9,0.84832268611899,"true"
"image-keyboard-response",24,75912,"0.0-3.4-1.4","sv5yfm8wr8snk7y",603,"19.csv","","null","resources/maskTrios/BBA2.jpg","null","",NA,NA,NA,NA,""
"image-keyboard-response",25,77119,"0.0-3.4-2.4","sv5yfm8wr8snk7y",603,"19.csv","","null","resources/images/coin2.png","null","",NA,NA,NA,NA,""
"image-keyboard-response",26,77405,"0.0-3.5-0.5","sv5yfm8wr8snk7y",603,"19.csv","","283.5","resources/trios/L2T2A2.jpg","39","restless",0.3,0.7,0.9,0.193596539184156,"true"
"image-keyboard-response",27,77812,"0.0-3.5-1.5","sv5yfm8wr8snk7y",603,"19.csv","","null","resources/maskTrios/BBA2.jpg","null","",NA,NA,NA,NA,""
"image-keyboard-response",28,79019,"0.0-3.5-2.5","sv5yfm8wr8snk7y",603,"19.csv","","null","resources/images/coin2.png","null","",NA,NA,NA,NA,""
"image-keyboard-response",29,79318,"0.0-3.6-0.6","sv5yfm8wr8snk7y",603,"19.csv","","296.60000002384186","resources/trios/L2T1A2.jpg","39","restless",0.4,0.7,0.9,0.627659830991143,"true"
"image-keyboard-response",30,79725,"0.0-3.6-1.6","sv5yfm8wr8snk7y",603,"19.csv","","null","resources/maskTrios/BBA2.jpg","null","",NA,NA,NA,NA,""
"image-keyboard-response",31,80933,"0.0-3.6-2.6","sv5yfm8wr8snk7y",603,"19.csv","","null","resources/images/coin2.png","null","",NA,NA,NA,NA,""
"image-keyboard-response",32,81205,"0.0-3.7-0.7","sv5yfm8wr8snk7y",603,"19.csv","","270.39999997615814","resources/trios/L1T2A2.jpg","39","restless",0.4,0.7,0.9,0.923428447184747,"false"
"image-keyboard-response",33,81613,"0.0-3.7-1.7","sv5yfm8wr8snk7y",603,"19.csv","","null","resources/maskTrios/BBA2.jpg","null","",NA,NA,NA,NA,""
"image-keyboard-response",34,82816,"0.0-3.7-2.7","sv5yfm8wr8snk7y",603,"19.csv","","null","resources/images/fishbone.png","null","",NA,NA,NA,NA,""
"image-keyboard-response",35,83091,"0.0-3.8-0.8","sv5yfm8wr8snk7y",603,"19.csv","","273.10000002384186","resources/trios/L1T1A2.jpg","38","restless",0.4,0.7,0.9,0.868573836827109,"false"
"image-keyboard-response",36,83498,"0.0-3.8-1.8","sv5yfm8wr8snk7y",603,"19.csv","","null","resources/maskTrios/BT1B.jpg","null","",NA,NA,NA,NA,""
"image-keyboard-response",37,84702,"0.0-3.8-2.8","sv5yfm8wr8snk7y",603,"19.csv","","null","resources/images/fishbone.png","null","",NA,NA,NA,NA,""
"image-keyboard-response",38,85653,"0.0-3.9-0.9","sv5yfm8wr8snk7y",603,"19.csv","","948.6000000238419","resources/trios/L2T1A1.jpg","37","restless",0.4,0.7,0.9,0.726609053337529,"false"
"image-keyboard-response",39,86059,"0.0-3.9-1.9","sv5yfm8wr8snk7y",603,"19.csv","","null","resources/maskTrios/L2BB.jpg","null","",NA,NA,NA,NA,""
"image-keyboard-response",40,87265,"0.0-3.9-2.9","sv5yfm8wr8snk7y",603,"19.csv","","null","resources/images/fishbone.png","null","",NA,NA,NA,NA,""
"image-keyboard-response",41,87519,"0.0-3.10-0.10","sv5yfm8wr8snk7y",603,"19.csv","","251.20000004768372","resources/trios/L1T1A2.jpg","39","restless",0.4,0.7,0.9,0.425816603180157,"true"
"image-keyboard-response",42,87928,"0.0-3.10-1.10","sv5yfm8wr8snk7y",603,"19.csv","","null","resources/maskTrios/BBA2.jpg","null","",NA,NA,NA,NA,""
"image-keyboard-response",43,89135,"0.0-3.10-2.10","sv5yfm8wr8snk7y",603,"19.csv","","null","resources/images/coin2.png","null","",NA,NA,NA,NA,""
"image-keyboard-response",44,89429,"0.0-3.11-0.11","sv5yfm8wr8snk7y",603,"19.csv","","291.7999999523163","resources/trios/L1T2A2.jpg","39","restless",0.4,0.7,0.9,0.0127617575871199,"true"
"image-keyboard-response",45,89837,"0.0-3.11-1.11","sv5yfm8wr8snk7y",603,"19.csv","","null","resources/maskTrios/BBA2.jpg","null","",NA,NA,NA,NA,""
"image-keyboard-response",46,91044,"0.0-3.11-2.11","sv5yfm8wr8snk7y",603,"19.csv","","null","resources/images/coin2.png","null","",NA,NA,NA,NA,""
"image-keyboard-response",47,91396,"0.0-3.12-0.12","sv5yfm8wr8snk7y",603,"19.csv","","349.6999999284744","resources/trios/L1T1A1.jpg","39","restless",0.4,0.7,0.9,0.618854520312124,"true"
"image-keyboard-response",48,91803,"0.0-3.12-1.12","sv5yfm8wr8snk7y",603,"19.csv","","null","resources/maskTrios/BBA1.jpg","null","",NA,NA,NA,NA,""
"image-keyboard-response",49,93006,"0.0-3.12-2.12","sv5yfm8wr8snk7y",603,"19.csv","","null","resources/images/coin2.png","null","",NA,NA,NA,NA,""
"image-keyboard-response",50,93403,"0.0-3.13-0.13","sv5yfm8wr8snk7y",603,"19.csv","","395.5","resources/trios/L1T2A1.jpg","39","restless",0.4,0.6,0.8,0.528799084514433,"true"
"image-keyboard-response",51,93810,"0.0-3.13-1.13","sv5yfm8wr8snk7y",603,"19.csv","","null","resources/maskTrios/BBA1.jpg","null","",NA,NA,NA,NA,""
"image-keyboard-response",52,95018,"0.0-3.13-2.13","sv5yfm8wr8snk7y",603,"19.csv","","null","resources/images/coin2.png","null","",NA,NA,NA,NA,""
"image-keyboard-response",53,95314,"0.0-3.14-0.14","sv5yfm8wr8snk7y",603,"19.csv","","294.2999999523163","resources/trios/L2T1A2.jpg","39","restless",0.4,0.6,0.8,0.22290115313419,"true"
"image-keyboard-response",54,95720,"0.0-3.14-1.14","sv5yfm8wr8snk7y",603,"19.csv","","null","resources/maskTrios/BBA2.jpg","null","",NA,NA,NA,NA,""
"image-keyboard-response",55,96927,"0.0-3.14-2.14","sv5yfm8wr8snk7y",603,"19.csv","","null","resources/images/coin2.png","null","",NA,NA,NA,NA,""
"image-keyboard-response",56,97195,"0.0-3.15-0.15","sv5yfm8wr8snk7y",603,"19.csv","","266.5","resources/trios/L1T2A1.jpg","39","restless",0.4,0.6,0.8,0.215749166591146,"true"
"image-keyboard-response",57,97600,"0.0-3.15-1.15","sv5yfm8wr8snk7y",603,"19.csv","","null","resources/maskTrios/BBA1.jpg","null","",NA,NA,NA,NA,""
"image-keyboard-response",58,98807,"0.0-3.15-2.15","sv5yfm8wr8snk7y",603,"19.csv","","null","resources/images/coin2.png","null","",NA,NA,NA,NA,""
"image-keyboard-response",59,99298,"0.0-3.16-0.16","sv5yfm8wr8snk7y",603,"19.csv","","487.8000000715256","resources/trios/L1T1A2.jpg","39","restless",0.4,0.6,0.8,0.307096855725532,"true"
"image-keyboard-response",60,99705,"0.0-3.16-1.16","sv5yfm8wr8snk7y",603,"19.csv","","null","resources/maskTrios/BBA2.jpg","null","",NA,NA,NA,NA,""
"image-keyboard-response",61,100912,"0.0-3.16-2.16","sv5yfm8wr8snk7y",603,"19.csv","","null","resources/images/coin2.png","null","",NA,NA,NA,NA,""
"image-keyboard-response",62,101339,"0.0-3.17-0.17","sv5yfm8wr8snk7y",603,"19.csv","","424.2999999523163","resources/trios/L1T1A1.jpg","39","restless",0.4,0.6,0.8,0.34639661882944,"true"
"image-keyboard-response",63,101746,"0.0-3.17-1.17","sv5yfm8wr8snk7y",603,"19.csv","","null","resources/maskTrios/BBA1.jpg","null","",NA,NA,NA,NA,""
"image-keyboard-response",64,102953,"0.0-3.17-2.17","sv5yfm8wr8snk7y",603,"19.csv","","null","resources/images/coin2.png","null","",NA,NA,NA,NA,""
"image-keyboard-response",65,103747,"0.0-3.18-0.18","sv5yfm8wr8snk7y",603,"19.csv","","791.7000000476837","resources/trios/L2T2A1.jpg","39","restless",0.5,0.6,0.8,0.752032418717428,"true"
"image-keyboard-response",66,104154,"0.0-3.18-1.18","sv5yfm8wr8snk7y",603,"19.csv","","null","resources/maskTrios/BBA1.jpg","null","",NA,NA,NA,NA,""
"image-keyboard-response",67,105361,"0.0-3.18-2.18","sv5yfm8wr8snk7y",603,"19.csv","","null","resources/images/coin2.png","null","",NA,NA,NA,NA,""
"image-keyboard-response",68,105614,"0.0-3.19-0.19","sv5yfm8wr8snk7y",603,"19.csv","","250.10000002384186","resources/trios/L1T2A2.jpg","39","restless",0.5,0.6,0.8,0.132616042731556,"true"
"image-keyboard-response",69,106021,"0.0-3.19-1.19","sv5yfm8wr8snk7y",603,"19.csv","","null","resources/maskTrios/BBA2.jpg","null","",NA,NA,NA,NA,""
"image-keyboard-response",70,107228,"0.0-3.19-2.19","sv5yfm8wr8snk7y",603,"19.csv","","null","resources/images/coin2.png","null","",NA,NA,NA,NA,""
"image-keyboard-response",71,107491,"0.0-3.20-0.20","sv5yfm8wr8snk7y",603,"19.csv","","260.5","resources/trios/L2T1A1.jpg","39","restless",0.6,0.6,0.8,0.457962419063939,"true"
"image-keyboard-response",72,107898,"0.0-3.20-1.20","sv5yfm8wr8snk7y",603,"19.csv","","null","resources/maskTrios/BBA1.jpg","null","",NA,NA,NA,NA,""
"image-keyboard-response",73,109102,"0.0-3.20-2.20","sv5yfm8wr8snk7y",603,"19.csv","","null","resources/images/coin2.png","null","",NA,NA,NA,NA,""
"image-keyboard-response",74,109355,"0.0-3.21-0.21","sv5yfm8wr8snk7y",603,"19.csv","","250.20000004768372","resources/trios/L2T2A2.jpg","39","restless",0.6,0.6,0.8,0.299328893094234,"true"
"image-keyboard-response",75,109762,"0.0-3.21-1.21","sv5yfm8wr8snk7y",603,"19.csv","","null","resources/maskTrios/BBA2.jpg","null","",NA,NA,NA,NA,""
"image-keyboard-response",76,110968,"0.0-3.21-2.21","sv5yfm8wr8snk7y",603,"19.csv","","null","resources/images/coin2.png","null","",NA,NA,NA,NA,""
"image-keyboard-response",77,111900,"0.0-3.22-0.22","sv5yfm8wr8snk7y",603,"19.csv","","929.5","resources/trios/L1T2A1.jpg","39","restless",0.6,0.6,0.8,0.433205247678295,"true"
"image-keyboard-response",78,112303,"0.0-3.22-1.22","sv5yfm8wr8snk7y",603,"19.csv","","null","resources/maskTrios/BBA1.jpg","null","",NA,NA,NA,NA,""
"image-keyboard-response",79,113510,"0.0-3.22-2.22","sv5yfm8wr8snk7y",603,"19.csv","","null","resources/images/coin2.png","null","",NA,NA,NA,NA,""
"image-keyboard-response",80,115444,"0.0-3.23-0.23","sv5yfm8wr8snk7y",603,"19.csv","","1932","resources/trios/L2T2A1.jpg","39","restless",0.6,0.6,0.8,0.103036735852739,"true"
"image-keyboard-response",81,115851,"0.0-3.23-1.23","sv5yfm8wr8snk7y",603,"19.csv","","null","resources/maskTrios/BBA1.jpg","null","",NA,NA,NA,NA,""
"image-keyboard-response",82,117058,"0.0-3.23-2.23","sv5yfm8wr8snk7y",603,"19.csv","","null","resources/images/coin2.png","null","",NA,NA,NA,NA,""
"image-keyboard-response",83,117597,"0.0-3.24-0.24","sv5yfm8wr8snk7y",603,"19.csv","","536.7000000476837","resources/trios/L2T1A1.jpg","39","restless",0.6,0.6,0.8,0.527324845616272,"true"
"image-keyboard-response",84,118005,"0.0-3.24-1.24","sv5yfm8wr8snk7y",603,"19.csv","","null","resources/maskTrios/BBA1.jpg","null","",NA,NA,NA,NA,""
"image-keyboard-response",85,119212,"0.0-3.24-2.24","sv5yfm8wr8snk7y",603,"19.csv","","null","resources/images/coin2.png","null","",NA,NA,NA,NA,""
"image-keyboard-response",86,119850,"0.0-3.25-0.25","sv5yfm8wr8snk7y",603,"19.csv","","636.1000000238419","resources/trios/L2T2A2.jpg","39","restless",0.6,0.6,0.8,0.367231876430171,"true"
"image-keyboard-response",87,120258,"0.0-3.25-1.25","sv5yfm8wr8snk7y",603,"19.csv","","null","resources/maskTrios/BBA2.jpg","null","",NA,NA,NA,NA,""
"image-keyboard-response",88,121465,"0.0-3.25-2.25","sv5yfm8wr8snk7y",603,"19.csv","","null","resources/images/coin2.png","null","",NA,NA,NA,NA,""
"image-keyboard-response",89,121840,"0.0-3.26-0.26","sv5yfm8wr8snk7y",603,"19.csv","","373.10000002384186","resources/trios/L1T1A1.jpg","39","restless",0.6,0.5,0.8,0.630530549766524,"true"
"image-keyboard-response",90,122246,"0.0-3.26-1.26","sv5yfm8wr8snk7y",603,"19.csv","","null","resources/maskTrios/BBA1.jpg","null","",NA,NA,NA,NA,""
"image-keyboard-response",91,123449,"0.0-3.26-2.26","sv5yfm8wr8snk7y",603,"19.csv","","null","resources/images/coin2.png","null","",NA,NA,NA,NA,""
"image-keyboard-response",92,123835,"0.0-3.27-0.27","sv5yfm8wr8snk7y",603,"19.csv","","383.10000002384186","resources/trios/L2T2A2.jpg","39","restless",0.6,0.5,0.8,0.182009101686788,"true"
"image-keyboard-response",93,124242,"0.0-3.27-1.27","sv5yfm8wr8snk7y",603,"19.csv","","null","resources/maskTrios/BBA2.jpg","null","",NA,NA,NA,NA,""
"image-keyboard-response",94,125445,"0.0-3.27-2.27","sv5yfm8wr8snk7y",603,"19.csv","","null","resources/images/coin2.png","null","",NA,NA,NA,NA,""
"image-keyboard-response",95,125710,"0.0-3.28-0.28","sv5yfm8wr8snk7y",603,"19.csv","","262.7999999523163","resources/trios/L1T1A1.jpg","39","restless",0.6,0.5,0.8,0.498447554064,"true"
"image-keyboard-response",96,126117,"0.0-3.28-1.28","sv5yfm8wr8snk7y",603,"19.csv","","null","resources/maskTrios/BBA1.jpg","null","",NA,NA,NA,NA,""
"image-keyboard-response",97,127324,"0.0-3.28-2.28","sv5yfm8wr8snk7y",603,"19.csv","","null","resources/images/coin2.png","null","",NA,NA,NA,NA,""
"image-keyboard-response",98,127777,"0.0-3.29-0.29","sv5yfm8wr8snk7y",603,"19.csv","","451","resources/trios/L1T2A2.jpg","39","restless",0.6,0.5,0.8,0.87604446670567,"false"
"image-keyboard-response",99,128187,"0.0-3.29-1.29","sv5yfm8wr8snk7y",603,"19.csv","","null","resources/maskTrios/BBA2.jpg","null","",NA,NA,NA,NA,""
"image-keyboard-response",100,129394,"0.0-3.29-2.29","sv5yfm8wr8snk7y",603,"19.csv","","null","resources/images/fishbone.png","null","",NA,NA,NA,NA,""
"image-keyboard-response",101,130574,"0.0-3.30-0.30","sv5yfm8wr8snk7y",603,"19.csv","","1177.8000000715256","resources/trios/L1T2A2.jpg","38","restless",0.6,0.5,0.8,0.0328998456233984,"true"
"image-keyboard-response",102,130981,"0.0-3.30-1.30","sv5yfm8wr8snk7y",603,"19.csv","","null","resources/maskTrios/BT2B.jpg","null","",NA,NA,NA,NA,""
"image-keyboard-response",103,132185,"0.0-3.30-2.30","sv5yfm8wr8snk7y",603,"19.csv","","null","resources/images/coin2.png","null","",NA,NA,NA,NA,""
"image-keyboard-response",104,132986,"0.0-3.31-0.31","sv5yfm8wr8snk7y",603,"19.csv","","798.2999999523163","resources/trios/L2T1A1.jpg","38","restless",0.6,0.5,0.8,0.479162515803082,"true"
"image-keyboard-response",105,133393,"0.0-3.31-1.31","sv5yfm8wr8snk7y",603,"19.csv","","null","resources/maskTrios/BT1B.jpg","null","",NA,NA,NA,NA,""
"image-keyboard-response",106,134599,"0.0-3.31-2.31","sv5yfm8wr8snk7y",603,"19.csv","","null","resources/images/coin2.png","null","",NA,NA,NA,NA,""
"image-keyboard-response",107,135013,"0.0-3.32-0.32","sv5yfm8wr8snk7y",603,"19.csv","","412.39999997615814","resources/trios/L1T1A1.jpg","38","restless",0.6,0.5,0.8,0.547069972798635,"false"
"image-keyboard-response",108,135420,"0.0-3.32-1.32","sv5yfm8wr8snk7y",603,"19.csv","","null","resources/maskTrios/BT1B.jpg","null","",NA,NA,NA,NA,""
"image-keyboard-response",109,136625,"0.0-3.32-2.32","sv5yfm8wr8snk7y",603,"19.csv","","null","resources/images/fishbone.png","null","",NA,NA,NA,NA,""
"image-keyboard-response",110,137146,"0.0-3.33-0.33","sv5yfm8wr8snk7y",603,"19.csv","","519.2999999523163","resources/trios/L1T2A2.jpg","37","restless",0.6,0.5,0.8,0.580641402955262,"true"
"image-keyboard-response",111,137553,"0.0-3.33-1.33","sv5yfm8wr8snk7y",603,"19.csv","","null","resources/maskTrios/L1BB.jpg","null","",NA,NA,NA,NA,""
"image-keyboard-response",112,138760,"0.0-3.33-2.33","sv5yfm8wr8snk7y",603,"19.csv","","null","resources/images/coin2.png","null","",NA,NA,NA,NA,""
"image-keyboard-response",113,139108,"0.0-3.34-0.34","sv5yfm8wr8snk7y",603,"19.csv","","345.6999999284744","resources/trios/L1T1A1.jpg","37","restless",0.6,0.5,0.8,0.228188976286581,"true"
"image-keyboard-response",114,139516,"0.0-3.34-1.34","sv5yfm8wr8snk7y",603,"19.csv","","null","resources/maskTrios/L1BB.jpg","null","",NA,NA,NA,NA,""
"image-keyboard-response",115,140719,"0.0-3.34-2.34","sv5yfm8wr8snk7y",603,"19.csv","","null","resources/images/coin2.png","null","",NA,NA,NA,NA,""
"image-keyboard-response",116,141169,"0.0-3.35-0.35","sv5yfm8wr8snk7y",603,"19.csv","","447.10000002384186","resources/trios/L1T2A2.jpg","37","restless",0.6,0.6,0.8,0.863840928493859,"false"
"image-keyboard-response",117,141576,"0.0-3.35-1.35","sv5yfm8wr8snk7y",603,"19.csv","","null","resources/maskTrios/L1BB.jpg","null","",NA,NA,NA,NA,""
"image-keyboard-response",118,142778,"0.0-3.35-2.35","sv5yfm8wr8snk7y",603,"19.csv","","null","resources/images/fishbone.png","null","",NA,NA,NA,NA,""
"image-keyboard-response",119,143703,"0.0-3.36-0.36","sv5yfm8wr8snk7y",603,"19.csv","","922.3999999761581","resources/trios/L1T1A1.jpg","39","restless",0.5,0.6,0.8,0.871179870635833,"false"
"image-keyboard-response",120,144107,"0.0-3.36-1.36","sv5yfm8wr8snk7y",603,"19.csv","","null","resources/maskTrios/BBA1.jpg","null","",NA,NA,NA,NA,""
"image-keyboard-response",121,145312,"0.0-3.36-2.36","sv5yfm8wr8snk7y",603,"19.csv","","null","resources/images/fishbone.png","null","",NA,NA,NA,NA,""
"image-keyboard-response",122,145588,"0.0-3.37-0.37","sv5yfm8wr8snk7y",603,"19.csv","","273.2999999523163","resources/trios/L1T2A1.jpg","37","restless",0.5,0.6,0.8,0.139999600336932,"true"
"image-keyboard-response",123,145995,"0.0-3.37-1.37","sv5yfm8wr8snk7y",603,"19.csv","","null","resources/maskTrios/L1BB.jpg","null","",NA,NA,NA,NA,""
"image-keyboard-response",124,147201,"0.0-3.37-2.37","sv5yfm8wr8snk7y",603,"19.csv","","null","resources/images/coin2.png","null","",NA,NA,NA,NA,""
"image-keyboard-response",125,147525,"0.0-3.38-0.38","sv5yfm8wr8snk7y",603,"19.csv","","321.1999999284744","resources/trios/L1T1A1.jpg","37","restless",0.5,0.6,0.7,0.216859391911337,"true"
"image-keyboard-response",126,147932,"0.0-3.38-1.38","sv5yfm8wr8snk7y",603,"19.csv","","null","resources/maskTrios/L1BB.jpg","null","",NA,NA,NA,NA,""
"image-keyboard-response",127,149139,"0.0-3.38-2.38","sv5yfm8wr8snk7y",603,"19.csv","","null","resources/images/coin2.png","null","",NA,NA,NA,NA,""
"image-keyboard-response",128,149530,"0.0-3.39-0.39","sv5yfm8wr8snk7y",603,"19.csv","","388.39999997615814","resources/trios/L1T1A2.jpg","37","restless",0.5,0.6,0.7,0.459313526241483,"true"
"image-keyboard-response",129,149937,"0.0-3.39-1.39","sv5yfm8wr8snk7y",603,"19.csv","","null","resources/maskTrios/L1BB.jpg","null","",NA,NA,NA,NA,""
"image-keyboard-response",130,151144,"0.0-3.39-2.39","sv5yfm8wr8snk7y",603,"19.csv","","null","resources/images/coin2.png","null","",NA,NA,NA,NA,""
"image-keyboard-response",131,151584,"0.0-3.40-0.40","sv5yfm8wr8snk7y",603,"19.csv","","438.10000002384186","resources/trios/L1T2A2.jpg","37","restless",0.5,0.5,0.7,0.105377966207274,"true"
"image-keyboard-response",132,151991,"0.0-3.40-1.40","sv5yfm8wr8snk7y",603,"19.csv","","null","resources/maskTrios/L1BB.jpg","null","",NA,NA,NA,NA,""
"image-keyboard-response",133,153195,"0.0-3.40-2.40","sv5yfm8wr8snk7y",603,"19.csv","","null","resources/images/coin2.png","null","",NA,NA,NA,NA,""
"image-keyboard-response",134,153291,"0.0-3.41-0.41","sv5yfm8wr8snk7y",603,"19.csv","","93.40000009536743","resources/trios/L2T1A2.jpg","37","restless",0.5,0.5,0.7,0.404285632525286,"true"
"image-keyboard-response",135,153698,"0.0-3.41-1.41","sv5yfm8wr8snk7y",603,"19.csv","","null","resources/maskTrios/L2BB.jpg","null","",NA,NA,NA,NA,""
"image-keyboard-response",136,154905,"0.0-3.41-2.41","sv5yfm8wr8snk7y",603,"19.csv","","null","resources/images/coin2.png","null","",NA,NA,NA,NA,""
"image-keyboard-response",137,155127,"0.0-3.42-0.42","sv5yfm8wr8snk7y",603,"19.csv","","219.59999990463257","resources/trios/L1T1A1.jpg","37","restless",0.5,0.5,0.7,0.0354645256072534,"true"
"image-keyboard-response",138,155529,"0.0-3.42-1.42","sv5yfm8wr8snk7y",603,"19.csv","","null","resources/maskTrios/L1BB.jpg","null","",NA,NA,NA,NA,""
"image-keyboard-response",139,156732,"0.0-3.42-2.42","sv5yfm8wr8snk7y",603,"19.csv","","null","resources/images/coin2.png","null","",NA,NA,NA,NA,""
"image-keyboard-response",140,156804,"0.0-3.43-0.43","sv5yfm8wr8snk7y",603,"19.csv","","70.60000002384186","resources/trios/L2T2A1.jpg","37","restless",0.5,0.5,0.7,0.661400438741058,"false"
"image-keyboard-response",141,157209,"0.0-3.43-1.43","sv5yfm8wr8snk7y",603,"19.csv","","null","resources/maskTrios/L2BB.jpg","null","",NA,NA,NA,NA,""
"image-keyboard-response",142,158411,"0.0-3.43-2.43","sv5yfm8wr8snk7y",603,"19.csv","","null","resources/images/fishbone.png","null","",NA,NA,NA,NA,""
"image-keyboard-response",143,158532,"0.0-3.44-0.44","sv5yfm8wr8snk7y",603,"19.csv","","118.60000002384186","resources/trios/L1T2A1.jpg","38","restless",0.5,0.5,0.6,0.241195759680487,"true"
"image-keyboard-response",144,158937,"0.0-3.44-1.44","sv5yfm8wr8snk7y",603,"19.csv","","null","resources/maskTrios/BT2B.jpg","null","",NA,NA,NA,NA,""
"image-keyboard-response",145,160143,"0.0-3.44-2.44","sv5yfm8wr8snk7y",603,"19.csv","","null","resources/images/coin2.png","null","",NA,NA,NA,NA,""
"image-keyboard-response",146,160253,"0.0-3.45-0.45","sv5yfm8wr8snk7y",603,"19.csv","","107.60000002384186","resources/trios/L1T2A2.jpg","38","restless",0.5,0.5,0.6,0.966683372758813,"false"
"image-keyboard-response",147,160658,"0.0-3.45-1.45","sv5yfm8wr8snk7y",603,"19.csv","","null","resources/maskTrios/BT2B.jpg","null","",NA,NA,NA,NA,""
"image-keyboard-response",148,161865,"0.0-3.45-2.45","sv5yfm8wr8snk7y",603,"19.csv","","null","resources/images/fishbone.png","null","",NA,NA,NA,NA,""
"image-keyboard-response",149,162013,"0.0-3.46-0.46","sv5yfm8wr8snk7y",603,"19.csv","","147.60000002384186","resources/trios/L2T1A2.jpg","38","restless",0.4,0.5,0.6,0.908943982423592,"false"
"image-keyboard-response",150,162421,"0.0-3.46-1.46","sv5yfm8wr8snk7y",603,"19.csv","","null","resources/maskTrios/BT1B.jpg","null","",NA,NA,NA,NA,""
"image-keyboard-response",151,163627,"0.0-3.46-2.46","sv5yfm8wr8snk7y",603,"19.csv","","null","resources/images/fishbone.png","null","",NA,NA,NA,NA,""
"image-keyboard-response",152,163795,"0.0-3.47-0.47","sv5yfm8wr8snk7y",603,"19.csv","","165.19999992847443","resources/trios/L1T2A1.jpg","39","restless",0.4,0.5,0.6,0.197971695559022,"true"
"image-keyboard-response",153,164199,"0.0-3.47-1.47","sv5yfm8wr8snk7y",603,"19.csv","","null","resources/maskTrios/BBA1.jpg","null","",NA,NA,NA,NA,""
"image-keyboard-response",154,165404,"0.0-3.47-2.47","sv5yfm8wr8snk7y",603,"19.csv","","null","resources/images/coin2.png","null","",NA,NA,NA,NA,""
"image-keyboard-response",155,165609,"0.0-3.48-0.48","sv5yfm8wr8snk7y",603,"19.csv","","202.5","resources/trios/L1T1A2.jpg","39","restless",0.4,0.5,0.5,0.194015896620781,"true"
"image-keyboard-response",156,166015,"0.0-3.48-1.48","sv5yfm8wr8snk7y",603,"19.csv","","null","resources/maskTrios/BBA2.jpg","null","",NA,NA,NA,NA,""
"image-keyboard-response",157,167222,"0.0-3.48-2.48","sv5yfm8wr8snk7y",603,"19.csv","","null","resources/images/coin2.png","null","",NA,NA,NA,NA,""
"image-keyboard-response",158,167282,"0.0-3.49-0.49","sv5yfm8wr8snk7y",603,"19.csv","","58.89999997615814","resources/trios/L1T2A1.jpg","39","restless",0.4,0.5,0.5,0.593857590358194,"false"
"image-keyboard-response",159,167689,"0.0-3.49-1.49","sv5yfm8wr8snk7y",603,"19.csv","","null","resources/maskTrios/BBA1.jpg","null","",NA,NA,NA,NA,""
"image-keyboard-response",160,168896,"0.0-3.49-2.49","sv5yfm8wr8snk7y",603,"19.csv","","null","resources/images/fishbone.png","null","",NA,NA,NA,NA,""
"image-keyboard-response",161,168990,"0.0-3.50-0.50","sv5yfm8wr8snk7y",603,"19.csv","","91.79999995231628","resources/trios/L2T2A2.jpg","39","restless",0.4,0.5,0.5,0.811829909587195,"false"
"image-keyboard-response",162,169397,"0.0-3.50-1.50","sv5yfm8wr8snk7y",603,"19.csv","","null","resources/maskTrios/BBA2.jpg","null","",NA,NA,NA,NA,""
"image-keyboard-response",163,170604,"0.0-3.50-2.50","sv5yfm8wr8snk7y",603,"19.csv","","null","resources/images/fishbone.png","null","",NA,NA,NA,NA,""
"image-keyboard-response",164,170960,"0.0-3.51-0.51","sv5yfm8wr8snk7y",603,"19.csv","","353.7999999523163","resources/trios/L2T1A2.jpg","38","restless",0.4,0.6,0.5,0.74265702752548,"false"
"image-keyboard-response",165,171363,"0.0-3.51-1.51","sv5yfm8wr8snk7y",603,"19.csv","","null","resources/maskTrios/BT1B.jpg","null","",NA,NA,NA,NA,""
"image-keyboard-response",166,172570,"0.0-3.51-2.51","sv5yfm8wr8snk7y",603,"19.csv","","null","resources/images/fishbone.png","null","",NA,NA,NA,NA,""
"image-keyboard-response",167,172805,"0.0-3.52-0.52","sv5yfm8wr8snk7y",603,"19.csv","","232.80000007152557","resources/trios/L1T2A2.jpg","39","restless",0.4,0.6,0.5,0.415088744382757,"true"
"image-keyboard-response",168,173210,"0.0-3.52-1.52","sv5yfm8wr8snk7y",603,"19.csv","","null","resources/maskTrios/BBA2.jpg","null","",NA,NA,NA,NA,""
"image-keyboard-response",169,174415,"0.0-3.52-2.52","sv5yfm8wr8snk7y",603,"19.csv","","null","resources/images/coin2.png","null","",NA,NA,NA,NA,""
"image-keyboard-response",170,174671,"0.0-3.53-0.53","sv5yfm8wr8snk7y",603,"19.csv","","254","resources/trios/L1T2A1.jpg","39","restless",0.4,0.6,0.5,0.406622668912684,"true"
"image-keyboard-response",171,175074,"0.0-3.53-1.53","sv5yfm8wr8snk7y",603,"19.csv","","null","resources/maskTrios/BBA1.jpg","null","",NA,NA,NA,NA,""
"image-keyboard-response",172,176281,"0.0-3.53-2.53","sv5yfm8wr8snk7y",603,"19.csv","","null","resources/images/coin2.png","null","",NA,NA,NA,NA,""
"image-keyboard-response",173,176291,"0.0-3.54-0.54","sv5yfm8wr8snk7y",603,"19.csv","","8.5","resources/trios/L2T2A1.jpg","39","restless",0.4,0.6,0.5,0.73231583256483,"false"
"image-keyboard-response",174,176698,"0.0-3.54-1.54","sv5yfm8wr8snk7y",603,"19.csv","","null","resources/maskTrios/BBA1.jpg","null","",NA,NA,NA,NA,""
"image-keyboard-response",175,177904,"0.0-3.54-2.54","sv5yfm8wr8snk7y",603,"19.csv","","null","resources/images/fishbone.png","null","",NA,NA,NA,NA,""
"image-keyboard-response",176,178594,"0.0-3.55-0.55","sv5yfm8wr8snk7y",603,"19.csv","","687.5","resources/trios/L2T2A2.jpg","37","restless",0.4,0.6,0.5,0.713549449237665,"false"
"image-keyboard-response",177,178997,"0.0-3.55-1.55","sv5yfm8wr8snk7y",603,"19.csv","","null","resources/maskTrios/L2BB.jpg","null","",NA,NA,NA,NA,""
"image-keyboard-response",178,180204,"0.0-3.55-2.55","sv5yfm8wr8snk7y",603,"19.csv","","null","resources/images/fishbone.png","null","",NA,NA,NA,NA,""
"image-keyboard-response",179,180257,"0.0-3.56-0.56","sv5yfm8wr8snk7y",603,"19.csv","","50.700000047683716","resources/trios/L2T1A2.jpg","38","restless",0.4,0.6,0.5,0.525135510143475,"true"
"image-keyboard-response",180,180664,"0.0-3.56-1.56","sv5yfm8wr8snk7y",603,"19.csv","","null","resources/maskTrios/BT1B.jpg","null","",NA,NA,NA,NA,""
"image-keyboard-response",181,181869,"0.0-3.56-2.56","sv5yfm8wr8snk7y",603,"19.csv","","null","resources/images/coin2.png","null","",NA,NA,NA,NA,""
"image-keyboard-response",182,182264,"0.0-3.57-0.57","sv5yfm8wr8snk7y",603,"19.csv","","392.7000000476837","resources/trios/L2T2A2.jpg","38","restless",0.4,0.6,0.5,0.00369513562429491,"true"
"image-keyboard-response",183,182671,"0.0-3.57-1.57","sv5yfm8wr8snk7y",603,"19.csv","","null","resources/maskTrios/BT2B.jpg","null","",NA,NA,NA,NA,""
"image-keyboard-response",184,183879,"0.0-3.57-2.57","sv5yfm8wr8snk7y",603,"19.csv","","null","resources/images/coin2.png","null","",NA,NA,NA,NA,""
"image-keyboard-response",185,184047,"0.0-3.58-0.58","sv5yfm8wr8snk7y",603,"19.csv","","165.79999995231628","resources/trios/L2T2A1.jpg","38","restless",0.4,0.6,0.5,0.352044451279878,"true"
"image-keyboard-response",186,184454,"0.0-3.58-1.58","sv5yfm8wr8snk7y",603,"19.csv","","null","resources/maskTrios/BT2B.jpg","null","",NA,NA,NA,NA,""
"image-keyboard-response",187,185657,"0.0-3.58-2.58","sv5yfm8wr8snk7y",603,"19.csv","","null","resources/images/coin2.png","null","",NA,NA,NA,NA,""
"image-keyboard-response",188,185800,"0.0-3.59-0.59","sv5yfm8wr8snk7y",603,"19.csv","","141.30000007152557","resources/trios/L1T1A2.jpg","38","restless",0.4,0.6,0.5,0.329716832541998,"true"
"image-keyboard-response",189,186205,"0.0-3.59-1.59","sv5yfm8wr8snk7y",603,"19.csv","","null","resources/maskTrios/BT1B.jpg","null","",NA,NA,NA,NA,""
"image-keyboard-response",190,187412,"0.0-3.59-2.59","sv5yfm8wr8snk7y",603,"19.csv","","null","resources/images/coin2.png","null","",NA,NA,NA,NA,""
"image-keyboard-response",191,187430,"0.0-3.60-0.60","sv5yfm8wr8snk7y",603,"19.csv","","16.100000023841858","resources/trios/L1T1A2.jpg","38","restless",0.4,0.6,0.5,0.920691839320873,"false"
"image-keyboard-response",192,187831,"0.0-3.60-1.60","sv5yfm8wr8snk7y",603,"19.csv","","null","resources/maskTrios/BT1B.jpg","null","",NA,NA,NA,NA,""
"image-keyboard-response",193,189038,"0.0-3.60-2.60","sv5yfm8wr8snk7y",603,"19.csv","","null","resources/images/fishbone.png","null","",NA,NA,NA,NA,""
"image-keyboard-response",194,189075,"0.0-3.61-0.61","sv5yfm8wr8snk7y",603,"19.csv","","35.200000047683716","resources/trios/L1T1A2.jpg","39","restless",0.4,0.6,0.5,0.645870218427042,"false"
"image-keyboard-response",195,189482,"0.0-3.61-1.61","sv5yfm8wr8snk7y",603,"19.csv","","null","resources/maskTrios/BBA2.jpg","null","",NA,NA,NA,NA,""
"image-keyboard-response",196,190686,"0.0-3.61-2.61","sv5yfm8wr8snk7y",603,"19.csv","","null","resources/images/fishbone.png","null","",NA,NA,NA,NA,""
"image-keyboard-response",197,190815,"0.0-3.62-0.62","sv5yfm8wr8snk7y",603,"19.csv","","126.70000004768372","resources/trios/L2T2A2.jpg","39","restless",0.4,0.7,0.5,0.853445641715397,"false"
"image-keyboard-response",198,191220,"0.0-3.62-1.62","sv5yfm8wr8snk7y",603,"19.csv","","null","resources/maskTrios/BBA2.jpg","null","",NA,NA,NA,NA,""
"image-keyboard-response",199,192425,"0.0-3.62-2.62","sv5yfm8wr8snk7y",603,"19.csv","","null","resources/images/fishbone.png","null","",NA,NA,NA,NA,""
"image-keyboard-response",200,192568,"0.0-3.63-0.63","sv5yfm8wr8snk7y",603,"19.csv","","140.29999995231628","resources/trios/L1T1A2.jpg","38","restless",0.4,0.7,0.5,0.95969824670597,"false"
"image-keyboard-response",201,192975,"0.0-3.63-1.63","sv5yfm8wr8snk7y",603,"19.csv","","null","resources/maskTrios/BT1B.jpg","null","",NA,NA,NA,NA,""
"image-keyboard-response",202,194182,"0.0-3.63-2.63","sv5yfm8wr8snk7y",603,"19.csv","","null","resources/images/fishbone.png","null","",NA,NA,NA,NA,""
"image-keyboard-response",203,194359,"0.0-3.64-0.64","sv5yfm8wr8snk7y",603,"19.csv","","174.90000009536743","resources/trios/L1T1A2.jpg","39","restless",0.4,0.7,0.5,0.143690891993359,"true"
"image-keyboard-response",204,194763,"0.0-3.64-1.64","sv5yfm8wr8snk7y",603,"19.csv","","null","resources/maskTrios/BBA2.jpg","null","",NA,NA,NA,NA,""
"image-keyboard-response",205,195968,"0.0-3.64-2.64","sv5yfm8wr8snk7y",603,"19.csv","","null","resources/images/coin2.png","null","",NA,NA,NA,NA,""
"image-keyboard-response",206,196159,"0.0-3.65-0.65","sv5yfm8wr8snk7y",603,"19.csv","","188.69999992847443","resources/trios/L1T1A2.jpg","39","restless",0.4,0.7,0.5,0.0197173841650851,"true"
"image-keyboard-response",207,196566,"0.0-3.65-1.65","sv5yfm8wr8snk7y",603,"19.csv","","null","resources/maskTrios/BBA2.jpg","null","",NA,NA,NA,NA,""
"image-keyboard-response",208,197769,"0.0-3.65-2.65","sv5yfm8wr8snk7y",603,"19.csv","","null","resources/images/coin2.png","null","",NA,NA,NA,NA,""
"image-keyboard-response",209,197934,"0.0-3.66-0.66","sv5yfm8wr8snk7y",603,"19.csv","","162.69999992847443","resources/trios/L1T2A1.jpg","39","restless",0.4,0.7,0.4,0.414894017542115,"false"
"image-keyboard-response",210,198338,"0.0-3.66-1.66","sv5yfm8wr8snk7y",603,"19.csv","","null","resources/maskTrios/BBA1.jpg","null","",NA,NA,NA,NA,""
"image-keyboard-response",211,199544,"0.0-3.66-2.66","sv5yfm8wr8snk7y",603,"19.csv","","null","resources/images/fishbone.png","null","",NA,NA,NA,NA,""
"image-keyboard-response",212,199643,"0.0-3.67-0.67","sv5yfm8wr8snk7y",603,"19.csv","","97.20000004768372","resources/trios/L1T1A2.jpg","39","restless",0.4,0.7,0.4,0.259173796488565,"true"
"image-keyboard-response",213,200050,"0.0-3.67-1.67","sv5yfm8wr8snk7y",603,"19.csv","","null","resources/maskTrios/BBA2.jpg","null","",NA,NA,NA,NA,""
"image-keyboard-response",214,201257,"0.0-3.67-2.67","sv5yfm8wr8snk7y",603,"19.csv","","null","resources/images/coin2.png","null","",NA,NA,NA,NA,""
"image-keyboard-response",215,201374,"0.0-3.68-0.68","sv5yfm8wr8snk7y",603,"19.csv","","114","resources/trios/L1T1A2.jpg","38","restless",0.4,0.7,0.4,0.963700646538832,"false"
"image-keyboard-response",216,201781,"0.0-3.68-1.68","sv5yfm8wr8snk7y",603,"19.csv","","null","resources/maskTrios/BT1B.jpg","null","",NA,NA,NA,NA,""
"image-keyboard-response",217,202983,"0.0-3.68-2.68","sv5yfm8wr8snk7y",603,"19.csv","","null","resources/images/fishbone.png","null","",NA,NA,NA,NA,""
"image-keyboard-response",218,203074,"0.0-3.69-0.69","sv5yfm8wr8snk7y",603,"19.csv","","89.5","resources/trios/L2T2A1.jpg","37","restless",0.4,0.7,0.4,0.841219850184409,"false"
"image-keyboard-response",219,203481,"0.0-3.69-1.69","sv5yfm8wr8snk7y",603,"19.csv","","null","resources/maskTrios/L2BB.jpg","null","",NA,NA,NA,NA,""
"image-keyboard-response",220,204687,"0.0-3.69-2.69","sv5yfm8wr8snk7y",603,"19.csv","","null","resources/images/fishbone.png","null","",NA,NA,NA,NA,""
"image-keyboard-response",221,204771,"0.0-3.70-0.70","sv5yfm8wr8snk7y",603,"19.csv","","81.5","resources/trios/L1T1A1.jpg","38","restless",0.4,0.7,0.4,0.0948817293518645,"true"
"image-keyboard-response",222,205179,"0.0-3.70-1.70","sv5yfm8wr8snk7y",603,"19.csv","","null","resources/maskTrios/BT1B.jpg","null","",NA,NA,NA,NA,""
"image-keyboard-response",223,206384,"0.0-3.70-2.70","sv5yfm8wr8snk7y",603,"19.csv","","null","resources/images/coin2.png","null","",NA,NA,NA,NA,""
"image-keyboard-response",224,207264,"0.0-3.71-0.71","sv5yfm8wr8snk7y",603,"19.csv","","877.2000000476837","resources/trios/L2T1A2.jpg","38","restless",0.4,0.7,0.4,0.129272926706331,"true"
"image-keyboard-response",225,207671,"0.0-3.71-1.71","sv5yfm8wr8snk7y",603,"19.csv","","null","resources/maskTrios/BT1B.jpg","null","",NA,NA,NA,NA,""
"image-keyboard-response",226,208877,"0.0-3.71-2.71","sv5yfm8wr8snk7y",603,"19.csv","","null","resources/images/coin2.png","null","",NA,NA,NA,NA,""
"image-keyboard-response",227,209058,"0.0-3.72-0.72","sv5yfm8wr8snk7y",603,"19.csv","","178","resources/trios/L1T2A1.jpg","38","restless",0.4,0.7,0.3,0.329289116087941,"true"
"image-keyboard-response",228,209465,"0.0-3.72-1.72","sv5yfm8wr8snk7y",603,"19.csv","","null","resources/maskTrios/BT2B.jpg","null","",NA,NA,NA,NA,""
"image-keyboard-response",229,210668,"0.0-3.72-2.72","sv5yfm8wr8snk7y",603,"19.csv","","null","resources/images/coin2.png","null","",NA,NA,NA,NA,""
"image-keyboard-response",230,210875,"0.0-3.73-0.73","sv5yfm8wr8snk7y",603,"19.csv","","205.59999990463257","resources/trios/L2T2A1.jpg","38","restless",0.4,0.7,0.3,0.107018467487089,"true"
"image-keyboard-response",231,211283,"0.0-3.73-1.73","sv5yfm8wr8snk7y",603,"19.csv","","null","resources/maskTrios/BT2B.jpg","null","",NA,NA,NA,NA,""
"image-keyboard-response",232,212488,"0.0-3.73-2.73","sv5yfm8wr8snk7y",603,"19.csv","","null","resources/images/coin2.png","null","",NA,NA,NA,NA,""
"image-keyboard-response",233,212741,"0.0-3.74-0.74","sv5yfm8wr8snk7y",603,"19.csv","","250.80000007152557","resources/trios/L1T2A1.jpg","38","restless",0.4,0.7,0.4,0.744511426366062,"false"
"image-keyboard-response",234,213147,"0.0-3.74-1.74","sv5yfm8wr8snk7y",603,"19.csv","","null","resources/maskTrios/BT2B.jpg","null","",NA,NA,NA,NA,""
"image-keyboard-response",235,214349,"0.0-3.74-2.74","sv5yfm8wr8snk7y",603,"19.csv","","null","resources/images/fishbone.png","null","",NA,NA,NA,NA,""
"image-keyboard-response",236,214360,"0.0-3.75-0.75","sv5yfm8wr8snk7y",603,"19.csv","","9.700000047683716","resources/trios/L1T1A2.jpg","38","restless",0.4,0.7,0.4,0.394360011176803,"true"
"image-keyboard-response",237,214767,"0.0-3.75-1.75","sv5yfm8wr8snk7y",603,"19.csv","","null","resources/maskTrios/BT1B.jpg","null","",NA,NA,NA,NA,""
"image-keyboard-response",238,215970,"0.0-3.75-2.75","sv5yfm8wr8snk7y",603,"19.csv","","null","resources/images/coin2.png","null","",NA,NA,NA,NA,""
"image-keyboard-response",239,215988,"0.0-3.76-0.76","sv5yfm8wr8snk7y",603,"19.csv","","17","resources/trios/L1T1A1.jpg","38","restless",0.4,0.8,0.4,0.919490208280157,"false"
"image-keyboard-response",240,216395,"0.0-3.76-1.76","sv5yfm8wr8snk7y",603,"19.csv","","null","resources/maskTrios/BT1B.jpg","null","",NA,NA,NA,NA,""
"image-keyboard-response",241,217601,"0.0-3.76-2.76","sv5yfm8wr8snk7y",603,"19.csv","","null","resources/images/fishbone.png","null","",NA,NA,NA,NA,""
"image-keyboard-response",242,217672,"0.0-3.77-0.77","sv5yfm8wr8snk7y",603,"19.csv","","68.10000002384186","resources/trios/L1T2A1.jpg","39","restless",0.4,0.8,0.4,0.923138402730037,"false"
"image-keyboard-response",243,218079,"0.0-3.77-1.77","sv5yfm8wr8snk7y",603,"19.csv","","null","resources/maskTrios/BBA1.jpg","null","",NA,NA,NA,NA,""
"image-keyboard-response",244,219286,"0.0-3.77-2.77","sv5yfm8wr8snk7y",603,"19.csv","","null","resources/images/fishbone.png","null","",NA,NA,NA,NA,""
"image-keyboard-response",245,219523,"0.0-3.78-0.78","sv5yfm8wr8snk7y",603,"19.csv","","235.69999992847443","resources/trios/L2T1A1.jpg","38","restless",0.4,0.8,0.4,0.214771531719685,"true"
"image-keyboard-response",246,219928,"0.0-3.78-1.78","sv5yfm8wr8snk7y",603,"19.csv","","null","resources/maskTrios/BT1B.jpg","null","",NA,NA,NA,NA,""
"image-keyboard-response",247,221136,"0.0-3.78-2.78","sv5yfm8wr8snk7y",603,"19.csv","","null","resources/images/coin2.png","null","",NA,NA,NA,NA,""
"image-keyboard-response",248,221307,"0.0-3.79-0.79","sv5yfm8wr8snk7y",603,"19.csv","","168.79999995231628","resources/trios/L1T1A2.jpg","38","restless",0.4,0.8,0.4,0.889288017718567,"false"
"image-keyboard-response",249,221710,"0.0-3.79-1.79","sv5yfm8wr8snk7y",603,"19.csv","","null","resources/maskTrios/BT1B.jpg","null","",NA,NA,NA,NA,""
"image-keyboard-response",250,222912,"0.0-3.79-2.79","sv5yfm8wr8snk7y",603,"19.csv","","null","resources/images/fishbone.png","null","",NA,NA,NA,NA,""
"image-keyboard-response",251,223456,"0.0-3.80-0.80","sv5yfm8wr8snk7y",603,"19.csv","","539.7000000476837","resources/trios/L1T2A1.jpg","37","restless",0.4,0.8,0.4,0.188757290015226,"true"
"image-keyboard-response",252,223863,"0.0-3.80-1.80","sv5yfm8wr8snk7y",603,"19.csv","","null","resources/maskTrios/L1BB.jpg","null","",NA,NA,NA,NA,""
"image-keyboard-response",253,225067,"0.0-3.80-2.80","sv5yfm8wr8snk7y",603,"19.csv","","null","resources/images/coin2.png","null","",NA,NA,NA,NA,""
"image-keyboard-response",254,225392,"0.0-3.81-0.81","sv5yfm8wr8snk7y",603,"19.csv","","323.1999999284744","resources/trios/L2T2A1.jpg","37","restless",0.4,0.8,0.4,0.994942603136169,"false"
"image-keyboard-response",255,225798,"0.0-3.81-1.81","sv5yfm8wr8snk7y",603,"19.csv","","null","resources/maskTrios/L2BB.jpg","null","",NA,NA,NA,NA,""
"image-keyboard-response",256,227003,"0.0-3.81-2.81","sv5yfm8wr8snk7y",603,"19.csv","","null","resources/images/fishbone.png","null","",NA,NA,NA,NA,""
"image-keyboard-response",257,227099,"0.0-3.82-0.82","sv5yfm8wr8snk7y",603,"19.csv","","93.69999992847443","resources/trios/L2T2A1.jpg","39","restless",0.4,0.8,0.4,0.61059985522845,"false"
"image-keyboard-response",258,227506,"0.0-3.82-1.82","sv5yfm8wr8snk7y",603,"19.csv","","null","resources/maskTrios/BBA1.jpg","null","",NA,NA,NA,NA,""
"image-keyboard-response",259,228713,"0.0-3.82-2.82","sv5yfm8wr8snk7y",603,"19.csv","","null","resources/images/fishbone.png","null","",NA,NA,NA,NA,""
"image-keyboard-response",260,228798,"0.0-3.83-0.83","sv5yfm8wr8snk7y",603,"19.csv","","82.10000002384186","resources/trios/L2T2A1.jpg","39","restless",0.4,0.8,0.4,0.672808707602792,"false"
"image-keyboard-response",261,229205,"0.0-3.83-1.83","sv5yfm8wr8snk7y",603,"19.csv","","null","resources/maskTrios/BBA1.jpg","null","",NA,NA,NA,NA,""
"image-keyboard-response",262,230408,"0.0-3.83-2.83","sv5yfm8wr8snk7y",603,"19.csv","","null","resources/images/fishbone.png","null","",NA,NA,NA,NA,""
"image-keyboard-response",263,230541,"0.0-3.84-0.84","sv5yfm8wr8snk7y",603,"19.csv","","130.89999997615814","resources/trios/L2T1A1.jpg","38","restless",0.4,0.8,0.4,0.0781013092165572,"true"
"image-keyboard-response",264,230947,"0.0-3.84-1.84","sv5yfm8wr8snk7y",603,"19.csv","","null","resources/maskTrios/BT1B.jpg","null","",NA,NA,NA,NA,""
"image-keyboard-response",265,232152,"0.0-3.84-2.84","sv5yfm8wr8snk7y",603,"19.csv","","null","resources/images/coin2.png","null","",NA,NA,NA,NA,""
"image-keyboard-response",266,232191,"0.0-3.85-0.85","sv5yfm8wr8snk7y",603,"19.csv","","37","resources/trios/L1T2A2.jpg","38","restless",0.4,0.8,0.4,0.200267812924609,"true"
"image-keyboard-response",267,232598,"0.0-3.85-1.85","sv5yfm8wr8snk7y",603,"19.csv","","null","resources/maskTrios/BT2B.jpg","null","",NA,NA,NA,NA,""
"image-keyboard-response",268,233801,"0.0-3.85-2.85","sv5yfm8wr8snk7y",603,"19.csv","","null","resources/images/coin2.png","null","",NA,NA,NA,NA,""
"image-keyboard-response",269,233855,"0.0-3.86-0.86","sv5yfm8wr8snk7y",603,"19.csv","","52.200000047683716","resources/trios/L1T2A2.jpg","38","restless",0.4,0.8,0.4,0.561047877436265,"true"
"image-keyboard-response",270,234262,"0.0-3.86-1.86","sv5yfm8wr8snk7y",603,"19.csv","","null","resources/maskTrios/BT2B.jpg","null","",NA,NA,NA,NA,""
"image-keyboard-response",271,235469,"0.0-3.86-2.86","sv5yfm8wr8snk7y",603,"19.csv","","null","resources/images/coin2.png","null","",NA,NA,NA,NA,""
"image-keyboard-response",272,235894,"0.0-3.87-0.87","sv5yfm8wr8snk7y",603,"19.csv","","422.2999999523163","resources/trios/L2T2A2.jpg","38","restless",0.4,0.8,0.4,0.393225370054152,"true"
"image-keyboard-response",273,236301,"0.0-3.87-1.87","sv5yfm8wr8snk7y",603,"19.csv","","null","resources/maskTrios/BT2B.jpg","null","",NA,NA,NA,NA,""
"image-keyboard-response",274,237508,"0.0-3.87-2.87","sv5yfm8wr8snk7y",603,"19.csv","","null","resources/images/coin2.png","null","",NA,NA,NA,NA,""
"image-keyboard-response",275,237545,"0.0-3.88-0.88","sv5yfm8wr8snk7y",603,"19.csv","","34.299999952316284","resources/trios/L2T1A1.jpg","38","restless",0.4,0.9,0.5,0.228354541787244,"true"
"image-keyboard-response",276,237952,"0.0-3.88-1.88","sv5yfm8wr8snk7y",603,"19.csv","","null","resources/maskTrios/BT1B.jpg","null","",NA,NA,NA,NA,""
"image-keyboard-response",277,239158,"0.0-3.88-2.88","sv5yfm8wr8snk7y",603,"19.csv","","null","resources/images/coin2.png","null","",NA,NA,NA,NA,""
"image-keyboard-response",278,239394,"0.0-3.89-0.89","sv5yfm8wr8snk7y",603,"19.csv","","234.39999997615814","resources/trios/L1T1A2.jpg","38","restless",0.4,0.9,0.5,0.839073980246329,"true"
"image-keyboard-response",279,239799,"0.0-3.89-1.89","sv5yfm8wr8snk7y",603,"19.csv","","null","resources/maskTrios/BT1B.jpg","null","",NA,NA,NA,NA,""
"image-keyboard-response",280,241006,"0.0-3.89-2.89","sv5yfm8wr8snk7y",603,"19.csv","","null","resources/images/coin2.png","null","",NA,NA,NA,NA,""
"image-keyboard-response",281,241091,"0.0-3.90-0.90","sv5yfm8wr8snk7y",603,"19.csv","","83.09999990463257","resources/trios/L2T2A2.jpg","38","restless",0.4,0.9,0.5,0.69769131598555,"true"
"image-keyboard-response",282,241497,"0.0-3.90-1.90","sv5yfm8wr8snk7y",603,"19.csv","","null","resources/maskTrios/BT2B.jpg","null","",NA,NA,NA,NA,""
"image-keyboard-response",283,242704,"0.0-3.90-2.90","sv5yfm8wr8snk7y",603,"19.csv","","null","resources/images/coin2.png","null","",NA,NA,NA,NA,""
"image-keyboard-response",284,242765,"0.0-3.91-0.91","sv5yfm8wr8snk7y",603,"19.csv","","59","resources/trios/L1T1A2.jpg","38","restless",0.4,0.9,0.5,0.462213704789942,"true"
"image-keyboard-response",285,243172,"0.0-3.91-1.91","sv5yfm8wr8snk7y",603,"19.csv","","null","resources/maskTrios/BT1B.jpg","null","",NA,NA,NA,NA,""
"image-keyboard-response",286,244379,"0.0-3.91-2.91","sv5yfm8wr8snk7y",603,"19.csv","","null","resources/images/coin2.png","null","",NA,NA,NA,NA,""
"image-keyboard-response",287,244409,"0.0-3.92-0.92","sv5yfm8wr8snk7y",603,"19.csv","","27.600000023841858","resources/trios/L2T1A2.jpg","38","restless",0.4,0.9,0.5,0.694910768577415,"true"
"image-keyboard-response",288,244812,"0.0-3.92-1.92","sv5yfm8wr8snk7y",603,"19.csv","","null","resources/maskTrios/BT1B.jpg","null","",NA,NA,NA,NA,""
"image-keyboard-response",289,246019,"0.0-3.92-2.92","sv5yfm8wr8snk7y",603,"19.csv","","null","resources/images/coin2.png","null","",NA,NA,NA,NA,""
"image-keyboard-response",290,246029,"0.0-3.93-0.93","sv5yfm8wr8snk7y",603,"19.csv","","7.800000071525574","resources/trios/L2T1A1.jpg","38","restless",0.4,0.8,0.5,0.78177100559399,"true"
"image-keyboard-response",291,246431,"0.0-3.93-1.93","sv5yfm8wr8snk7y",603,"19.csv","","null","resources/maskTrios/BT1B.jpg","null","",NA,NA,NA,NA,""
"image-keyboard-response",292,247638,"0.0-3.93-2.93","sv5yfm8wr8snk7y",603,"19.csv","","null","resources/images/coin2.png","null","",NA,NA,NA,NA,""
"image-keyboard-response",293,247658,"0.0-3.94-0.94","sv5yfm8wr8snk7y",603,"19.csv","","17.600000023841858","resources/trios/L2T1A1.jpg","38","restless",0.4,0.8,0.5,0.725503871163188,"true"
"image-keyboard-response",294,248065,"0.0-3.94-1.94","sv5yfm8wr8snk7y",603,"19.csv","","null","resources/maskTrios/BT1B.jpg","null","",NA,NA,NA,NA,""
"image-keyboard-response",295,249268,"0.0-3.94-2.94","sv5yfm8wr8snk7y",603,"19.csv","","null","resources/images/coin2.png","null","",NA,NA,NA,NA,""
"image-keyboard-response",296,249404,"0.0-3.95-0.95","sv5yfm8wr8snk7y",603,"19.csv","","134","resources/trios/L1T2A1.jpg","38","restless",0.4,0.8,0.5,0.790046730567808,"true"
"image-keyboard-response",297,249811,"0.0-3.95-1.95","sv5yfm8wr8snk7y",603,"19.csv","","null","resources/maskTrios/BT2B.jpg","null","",NA,NA,NA,NA,""
"image-keyboard-response",298,251019,"0.0-3.95-2.95","sv5yfm8wr8snk7y",603,"19.csv","","null","resources/images/coin2.png","null","",NA,NA,NA,NA,""
"image-keyboard-response",299,251094,"0.0-3.96-0.96","sv5yfm8wr8snk7y",603,"19.csv","","73","resources/trios/L1T1A1.jpg","38","restless",0.4,0.8,0.5,0.80681412754503,"false"
"image-keyboard-response",300,251501,"0.0-3.96-1.96","sv5yfm8wr8snk7y",603,"19.csv","","null","resources/maskTrios/BT1B.jpg","null","",NA,NA,NA,NA,""
"image-keyboard-response",301,252704,"0.0-3.96-2.96","sv5yfm8wr8snk7y",603,"19.csv","","null","resources/images/fishbone.png","null","",NA,NA,NA,NA,""
"image-keyboard-response",302,253117,"0.0-3.97-0.97","sv5yfm8wr8snk7y",603,"19.csv","","411.3000000715256","resources/trios/L2T1A2.jpg","37","restless",0.4,0.7,0.5,0.724352565190127,"false"
"image-keyboard-response",303,253525,"0.0-3.97-1.97","sv5yfm8wr8snk7y",603,"19.csv","","null","resources/maskTrios/L2BB.jpg","null","",NA,NA,NA,NA,""
"image-keyboard-response",304,254727,"0.0-3.97-2.97","sv5yfm8wr8snk7y",603,"19.csv","","null","resources/images/fishbone.png","null","",NA,NA,NA,NA,""
"image-keyboard-response",305,255103,"0.0-3.98-0.98","sv5yfm8wr8snk7y",603,"19.csv","","373.7000000476837","resources/trios/L1T1A2.jpg","37","restless",0.4,0.7,0.5,0.117405053349741,"true"
"image-keyboard-response",306,255511,"0.0-3.98-1.98","sv5yfm8wr8snk7y",603,"19.csv","","null","resources/maskTrios/L1BB.jpg","null","",NA,NA,NA,NA,""
"image-keyboard-response",307,256718,"0.0-3.98-2.98","sv5yfm8wr8snk7y",603,"19.csv","","null","resources/images/coin2.png","null","",NA,NA,NA,NA,""
"image-keyboard-response",308,256751,"0.0-3.99-0.99","sv5yfm8wr8snk7y",603,"19.csv","","30.899999976158142","resources/trios/L1T2A1.jpg","37","restless",0.4,0.7,0.5,0.480792561406374,"false"
"image-keyboard-response",309,257159,"0.0-3.99-1.99","sv5yfm8wr8snk7y",603,"19.csv","","null","resources/maskTrios/L1BB.jpg","null","",NA,NA,NA,NA,""
"image-keyboard-response",310,258363,"0.0-3.99-2.99","sv5yfm8wr8snk7y",603,"19.csv","","null","resources/images/fishbone.png","null","",NA,NA,NA,NA,""
"image-keyboard-response",311,258525,"0.0-3.100-0.100","sv5yfm8wr8snk7y",603,"19.csv","","160.20000004768372","resources/trios/L2T2A2.jpg","38","restless",0.4,0.7,0.5,0.903008582550457,"false"
"image-keyboard-response",312,258933,"0.0-3.100-1.100","sv5yfm8wr8snk7y",603,"19.csv","","null","resources/maskTrios/BT2B.jpg","null","",NA,NA,NA,NA,""
"image-keyboard-response",313,260136,"0.0-3.100-2.100","sv5yfm8wr8snk7y",603,"19.csv","","null","resources/images/fishbone.png","null","",NA,NA,NA,NA,""
"image-keyboard-response",314,260252,"0.0-3.101-0.101","sv5yfm8wr8snk7y",603,"19.csv","","114.5","resources/trios/L2T1A1.jpg","39","restless",0.5,0.7,0.5,0.602005548833341,"false"
"image-keyboard-response",315,260657,"0.0-3.101-1.101","sv5yfm8wr8snk7y",603,"19.csv","","null","resources/maskTrios/BBA1.jpg","null","",NA,NA,NA,NA,""
"image-keyboard-response",316,261864,"0.0-3.101-2.101","sv5yfm8wr8snk7y",603,"19.csv","","null","resources/images/fishbone.png","null","",NA,NA,NA,NA,""
"image-keyboard-response",317,261910,"0.0-3.102-0.102","sv5yfm8wr8snk7y",603,"19.csv","","44.200000047683716","resources/trios/L1T2A1.jpg","38","restless",0.5,0.7,0.5,0.472022268509547,"true"
"image-keyboard-response",318,262317,"0.0-3.102-1.102","sv5yfm8wr8snk7y",603,"19.csv","","null","resources/maskTrios/BT2B.jpg","null","",NA,NA,NA,NA,""
"image-keyboard-response",319,263524,"0.0-3.102-2.102","sv5yfm8wr8snk7y",603,"19.csv","","null","resources/images/coin2.png","null","",NA,NA,NA,NA,""
"image-keyboard-response",320,263610,"0.0-3.103-0.103","sv5yfm8wr8snk7y",603,"19.csv","","82.69999992847443","resources/trios/L1T1A1.jpg","38","restless",0.5,0.7,0.5,0.894328822553371,"false"
"image-keyboard-response",321,264018,"0.0-3.103-1.103","sv5yfm8wr8snk7y",603,"19.csv","","null","resources/maskTrios/BT1B.jpg","null","",NA,NA,NA,NA,""
"image-keyboard-response",322,265221,"0.0-3.103-2.103","sv5yfm8wr8snk7y",603,"19.csv","","null","resources/images/fishbone.png","null","",NA,NA,NA,NA,""
"image-keyboard-response",323,265325,"0.0-3.104-0.104","sv5yfm8wr8snk7y",603,"19.csv","","101.70000004768372","resources/trios/L2T1A1.jpg","37","restless",0.5,0.7,0.5,0.325344486984156,"true"
"image-keyboard-response",324,265732,"0.0-3.104-1.104","sv5yfm8wr8snk7y",603,"19.csv","","null","resources/maskTrios/L2BB.jpg","null","",NA,NA,NA,NA,""
"image-keyboard-response",325,266939,"0.0-3.104-2.104","sv5yfm8wr8snk7y",603,"19.csv","","null","resources/images/coin2.png","null","",NA,NA,NA,NA,""
"image-keyboard-response",326,267021,"0.0-3.105-0.105","sv5yfm8wr8snk7y",603,"19.csv","","80","resources/trios/L1T2A2.jpg","37","restless",0.5,0.7,0.5,0.474337836685811,"true"
"image-keyboard-response",327,267425,"0.0-3.105-1.105","sv5yfm8wr8snk7y",603,"19.csv","","null","resources/maskTrios/L1BB.jpg","null","",NA,NA,NA,NA,""
"image-keyboard-response",328,268632,"0.0-3.105-2.105","sv5yfm8wr8snk7y",603,"19.csv","","null","resources/images/coin2.png","null","",NA,NA,NA,NA,""
"image-keyboard-response",329,268743,"0.0-3.106-0.106","sv5yfm8wr8snk7y",603,"19.csv","","108.79999995231628","resources/trios/L1T2A1.jpg","37","restless",0.5,0.7,0.5,0.443577911369345,"true"
"image-keyboard-response",330,269150,"0.0-3.106-1.106","sv5yfm8wr8snk7y",603,"19.csv","","null","resources/maskTrios/L1BB.jpg","null","",NA,NA,NA,NA,""
"image-keyboard-response",331,270352,"0.0-3.106-2.106","sv5yfm8wr8snk7y",603,"19.csv","","null","resources/images/coin2.png","null","",NA,NA,NA,NA,""
"image-keyboard-response",332,270395,"0.0-3.107-0.107","sv5yfm8wr8snk7y",603,"19.csv","","40.60000002384186","resources/trios/L2T2A2.jpg","37","restless",0.4,0.7,0.5,0.248069261134868,"true"
"image-keyboard-response",333,270799,"0.0-3.107-1.107","sv5yfm8wr8snk7y",603,"19.csv","","null","resources/maskTrios/L2BB.jpg","null","",NA,NA,NA,NA,""
"image-keyboard-response",334,272003,"0.0-3.107-2.107","sv5yfm8wr8snk7y",603,"19.csv","","null","resources/images/coin2.png","null","",NA,NA,NA,NA,""
"image-keyboard-response",335,272051,"0.0-3.108-0.108","sv5yfm8wr8snk7y",603,"19.csv","","45.800000071525574","resources/trios/L2T1A1.jpg","37","restless",0.4,0.6,0.5,0.741632276702011,"false"
"image-keyboard-response",336,272458,"0.0-3.108-1.108","sv5yfm8wr8snk7y",603,"19.csv","","null","resources/maskTrios/L2BB.jpg","null","",NA,NA,NA,NA,""
"image-keyboard-response",337,273661,"0.0-3.108-2.108","sv5yfm8wr8snk7y",603,"19.csv","","null","resources/images/fishbone.png","null","",NA,NA,NA,NA,""
"image-keyboard-response",338,273777,"0.0-3.109-0.109","sv5yfm8wr8snk7y",603,"19.csv","","113.39999997615814","resources/trios/L1T1A2.jpg","37","restless",0.4,0.5,0.5,0.217636557957107,"true"
"image-keyboard-response",339,274184,"0.0-3.109-1.109","sv5yfm8wr8snk7y",603,"19.csv","","null","resources/maskTrios/L1BB.jpg","null","",NA,NA,NA,NA,""
"image-keyboard-response",340,275391,"0.0-3.109-2.109","sv5yfm8wr8snk7y",603,"19.csv","","null","resources/images/coin2.png","null","",NA,NA,NA,NA,""
"image-keyboard-response",341,275578,"0.0-3.110-0.110","sv5yfm8wr8snk7y",603,"19.csv","","185.5","resources/trios/L2T1A1.jpg","37","restless",0.4,0.4,0.5,0.522841255930039,"false"
"image-keyboard-response",342,275983,"0.0-3.110-1.110","sv5yfm8wr8snk7y",603,"19.csv","","null","resources/maskTrios/L2BB.jpg","null","",NA,NA,NA,NA,""
"image-keyboard-response",343,277189,"0.0-3.110-2.110","sv5yfm8wr8snk7y",603,"19.csv","","null","resources/images/fishbone.png","null","",NA,NA,NA,NA,""
"image-keyboard-response",344,278323,"0.0-3.111-0.111","sv5yfm8wr8snk7y",603,"19.csv","","1131.8000000715256","resources/trios/L2T2A1.jpg","38","restless",0.4,0.4,0.5,0.0719068286794398,"true"
"image-keyboard-response",345,278730,"0.0-3.111-1.111","sv5yfm8wr8snk7y",603,"19.csv","","null","resources/maskTrios/BT2B.jpg","null","",NA,NA,NA,NA,""
"image-keyboard-response",346,279933,"0.0-3.111-2.111","sv5yfm8wr8snk7y",603,"19.csv","","null","resources/images/coin2.png","null","",NA,NA,NA,NA,""
"image-keyboard-response",347,280062,"0.0-3.112-0.112","sv5yfm8wr8snk7y",603,"19.csv","","127","resources/trios/L1T1A1.jpg","38","restless",0.5,0.4,0.5,0.407370567471119,"false"
"image-keyboard-response",348,280469,"0.0-3.112-1.112","sv5yfm8wr8snk7y",603,"19.csv","","null","resources/maskTrios/BT1B.jpg","null","",NA,NA,NA,NA,""
"image-keyboard-response",349,281675,"0.0-3.112-2.112","sv5yfm8wr8snk7y",603,"19.csv","","null","resources/images/fishbone.png","null","",NA,NA,NA,NA,""
"image-keyboard-response",350,281731,"0.0-3.113-0.113","sv5yfm8wr8snk7y",603,"19.csv","","53.40000009536743","resources/trios/L2T1A1.jpg","39","restless",0.5,0.4,0.4,0.852618373824979,"false"
"image-keyboard-response",351,282136,"0.0-3.113-1.113","sv5yfm8wr8snk7y",603,"19.csv","","null","resources/maskTrios/BBA1.jpg","null","",NA,NA,NA,NA,""
"image-keyboard-response",352,283343,"0.0-3.113-2.113","sv5yfm8wr8snk7y",603,"19.csv","","null","resources/images/fishbone.png","null","",NA,NA,NA,NA,""
"image-keyboard-response",353,283498,"0.0-3.114-0.114","sv5yfm8wr8snk7y",603,"19.csv","","152.80000007152557","resources/trios/L1T2A2.jpg","39","restless",0.5,0.4,0.4,0.555610098845787,"false"
"image-keyboard-response",354,283903,"0.0-3.114-1.114","sv5yfm8wr8snk7y",603,"19.csv","","null","resources/maskTrios/BBA2.jpg","null","",NA,NA,NA,NA,""
"image-keyboard-response",355,285107,"0.0-3.114-2.114","sv5yfm8wr8snk7y",603,"19.csv","","null","resources/images/fishbone.png","null","",NA,NA,NA,NA,""
"image-keyboard-response",356,285302,"0.0-3.115-0.115","sv5yfm8wr8snk7y",603,"19.csv","","192.60000002384186","resources/trios/L2T1A1.jpg","38","restless",0.4,0.4,0.5,0.701498842873982,"false"
"image-keyboard-response",357,285708,"0.0-3.115-1.115","sv5yfm8wr8snk7y",603,"19.csv","","null","resources/maskTrios/BT1B.jpg","null","",NA,NA,NA,NA,""
"image-keyboard-response",358,286915,"0.0-3.115-2.115","sv5yfm8wr8snk7y",603,"19.csv","","null","resources/images/fishbone.png","null","",NA,NA,NA,NA,""
"image-keyboard-response",359,287086,"0.0-3.116-0.116","sv5yfm8wr8snk7y",603,"19.csv","","169.5","resources/trios/L2T1A1.jpg","38","restless",0.4,0.4,0.5,0.910978373821406,"false"
"image-keyboard-response",360,287493,"0.0-3.116-1.116","sv5yfm8wr8snk7y",603,"19.csv","","null","resources/maskTrios/BT1B.jpg","null","",NA,NA,NA,NA,""
"image-keyboard-response",361,288699,"0.0-3.116-2.116","sv5yfm8wr8snk7y",603,"19.csv","","null","resources/images/fishbone.png","null","",NA,NA,NA,NA,""
"image-keyboard-response",362,288953,"0.0-3.117-0.117","sv5yfm8wr8snk7y",603,"19.csv","","251.5","resources/trios/L2T1A2.jpg","37","restless",0.4,0.4,0.5,0.559068162652146,"false"
"image-keyboard-response",363,289357,"0.0-3.117-1.117","sv5yfm8wr8snk7y",603,"19.csv","","null","resources/maskTrios/L2BB.jpg","null","",NA,NA,NA,NA,""
"image-keyboard-response",364,290559,"0.0-3.117-2.117","sv5yfm8wr8snk7y",603,"19.csv","","null","resources/images/fishbone.png","null","",NA,NA,NA,NA,""
"image-keyboard-response",365,290670,"0.0-3.118-0.118","sv5yfm8wr8snk7y",603,"19.csv","","108.89999997615814","resources/trios/L1T1A1.jpg","38","restless",0.5,0.4,0.5,0.710364850500093,"false"
"image-keyboard-response",366,291078,"0.0-3.118-1.118","sv5yfm8wr8snk7y",603,"19.csv","","null","resources/maskTrios/BT1B.jpg","null","",NA,NA,NA,NA,""
"image-keyboard-response",367,292284,"0.0-3.118-2.118","sv5yfm8wr8snk7y",603,"19.csv","","null","resources/images/fishbone.png","null","",NA,NA,NA,NA,""
"image-keyboard-response",368,292431,"0.0-3.119-0.119","sv5yfm8wr8snk7y",603,"19.csv","","144.5","resources/trios/L2T1A1.jpg","39","restless",0.5,0.4,0.5,0.98692878528243,"false"
"image-keyboard-response",369,292838,"0.0-3.119-1.119","sv5yfm8wr8snk7y",603,"19.csv","","null","resources/maskTrios/BBA1.jpg","null","",NA,NA,NA,NA,""
"image-keyboard-response",370,294043,"0.0-3.119-2.119","sv5yfm8wr8snk7y",603,"19.csv","","null","resources/images/fishbone.png","null","",NA,NA,NA,NA,""
"image-keyboard-response",371,294102,"0.0-3.120-0.120","sv5yfm8wr8snk7y",603,"19.csv","","57.299999952316284","resources/trios/L2T2A1.jpg","38","restless",0.5,0.4,0.5,0.339247229203734,"true"
"image-keyboard-response",372,294507,"0.0-3.120-1.120","sv5yfm8wr8snk7y",603,"19.csv","","null","resources/maskTrios/BT2B.jpg","null","",NA,NA,NA,NA,""
"image-keyboard-response",373,295714,"0.0-3.120-2.120","sv5yfm8wr8snk7y",603,"19.csv","","null","resources/images/coin2.png","null","",NA,NA,NA,NA,""
"image-keyboard-response",374,295822,"0.0-3.121-0.121","sv5yfm8wr8snk7y",603,"19.csv","","104.39999997615814","resources/trios/L2T2A1.jpg","38","restless",0.5,0.4,0.5,0.827220216828815,"false"
"image-keyboard-response",375,296227,"0.0-3.121-1.121","sv5yfm8wr8snk7y",603,"19.csv","","null","resources/maskTrios/BT2B.jpg","null","",NA,NA,NA,NA,""
"image-keyboard-response",376,297430,"0.0-3.121-2.121","sv5yfm8wr8snk7y",603,"19.csv","","null","resources/images/fishbone.png","null","",NA,NA,NA,NA,""
"image-keyboard-response",377,297568,"0.0-3.122-0.122","sv5yfm8wr8snk7y",603,"19.csv","","135.5","resources/trios/L1T2A1.jpg","37","restless",0.5,0.4,0.6,0.841652051313487,"false"
"image-keyboard-response",378,297975,"0.0-3.122-1.122","sv5yfm8wr8snk7y",603,"19.csv","","null","resources/maskTrios/L1BB.jpg","null","",NA,NA,NA,NA,""
"image-keyboard-response",379,299182,"0.0-3.122-2.122","sv5yfm8wr8snk7y",603,"19.csv","","null","resources/images/fishbone.png","null","",NA,NA,NA,NA,""
"image-keyboard-response",380,299480,"0.0-3.123-0.123","sv5yfm8wr8snk7y",603,"19.csv","","295.6999999284744","resources/trios/L1T2A1.jpg","38","restless",0.5,0.4,0.6,0.320726356217755,"true"
"image-keyboard-response",381,299887,"0.0-3.123-1.123","sv5yfm8wr8snk7y",603,"19.csv","","null","resources/maskTrios/BT2B.jpg","null","",NA,NA,NA,NA,""
"image-keyboard-response",382,301089,"0.0-3.123-2.123","sv5yfm8wr8snk7y",603,"19.csv","","null","resources/images/coin2.png","null","",NA,NA,NA,NA,""
"image-keyboard-response",383,301160,"0.0-3.124-0.124","sv5yfm8wr8snk7y",603,"19.csv","","68.90000009536743","resources/trios/L2T2A1.jpg","38","restless",0.5,0.4,0.6,0.309017382421529,"true"
"image-keyboard-response",384,301567,"0.0-3.124-1.124","sv5yfm8wr8snk7y",603,"19.csv","","null","resources/maskTrios/BT2B.jpg","null","",NA,NA,NA,NA,""
"image-keyboard-response",385,302772,"0.0-3.124-2.124","sv5yfm8wr8snk7y",603,"19.csv","","null","resources/images/coin2.png","null","",NA,NA,NA,NA,""
"image-keyboard-response",386,302810,"0.0-3.125-0.125","sv5yfm8wr8snk7y",603,"19.csv","","35.89999997615814","resources/trios/L1T2A1.jpg","38","restless",0.6,0.4,0.6,0.2892283394255,"true"
"image-keyboard-response",387,303216,"0.0-3.125-1.125","sv5yfm8wr8snk7y",603,"19.csv","","null","resources/maskTrios/BT2B.jpg","null","",NA,NA,NA,NA,""
"image-keyboard-response",388,304423,"0.0-3.125-2.125","sv5yfm8wr8snk7y",603,"19.csv","","null","resources/images/coin2.png","null","",NA,NA,NA,NA,""
"image-keyboard-response",389,304598,"0.0-3.126-0.126","sv5yfm8wr8snk7y",603,"19.csv","","172.39999997615814","resources/trios/L1T2A1.jpg","38","restless",0.5,0.3,0.6,0.0913314126932236,"true"
"image-keyboard-response",390,305005,"0.0-3.126-1.126","sv5yfm8wr8snk7y",603,"19.csv","","null","resources/maskTrios/BT2B.jpg","null","",NA,NA,NA,NA,""
"image-keyboard-response",391,306212,"0.0-3.126-2.126","sv5yfm8wr8snk7y",603,"19.csv","","null","resources/images/coin2.png","null","",NA,NA,NA,NA,""
"image-keyboard-response",392,306405,"0.0-3.127-0.127","sv5yfm8wr8snk7y",603,"19.csv","","191","resources/trios/L2T2A1.jpg","38","restless",0.5,0.3,0.6,0.410460324001293,"false"
"image-keyboard-response",393,306810,"0.0-3.127-1.127","sv5yfm8wr8snk7y",603,"19.csv","","null","resources/maskTrios/BT2B.jpg","null","",NA,NA,NA,NA,""
"image-keyboard-response",394,308017,"0.0-3.127-2.127","sv5yfm8wr8snk7y",603,"19.csv","","null","resources/images/fishbone.png","null","",NA,NA,NA,NA,""
"image-keyboard-response",395,308049,"0.0-3.128-0.128","sv5yfm8wr8snk7y",603,"19.csv","","30.5","resources/trios/L2T2A1.jpg","38","restless",0.5,0.3,0.6,0.327885225134809,"false"
"image-keyboard-response",396,308456,"0.0-3.128-1.128","sv5yfm8wr8snk7y",603,"19.csv","","null","resources/maskTrios/BT2B.jpg","null","",NA,NA,NA,NA,""
"image-keyboard-response",397,309662,"0.0-3.128-2.128","sv5yfm8wr8snk7y",603,"19.csv","","null","resources/images/fishbone.png","null","",NA,NA,NA,NA,""
"image-keyboard-response",398,309761,"0.0-3.129-0.129","sv5yfm8wr8snk7y",603,"19.csv","","96.5","resources/trios/L1T1A1.jpg","38","restless",0.5,0.3,0.6,0.112187762330027,"true"
"image-keyboard-response",399,310168,"0.0-3.129-1.129","sv5yfm8wr8snk7y",603,"19.csv","","null","resources/maskTrios/BT1B.jpg","null","",NA,NA,NA,NA,""
"image-keyboard-response",400,311375,"0.0-3.129-2.129","sv5yfm8wr8snk7y",603,"19.csv","","null","resources/images/coin2.png","null","",NA,NA,NA,NA,""
"image-keyboard-response",401,311598,"0.0-3.130-0.130","sv5yfm8wr8snk7y",603,"19.csv","","220.89999997615814","resources/trios/L2T1A2.jpg","38","restless",0.5,0.3,0.6,0.416928014116347,"false"
"image-keyboard-response",402,312005,"0.0-3.130-1.130","sv5yfm8wr8snk7y",603,"19.csv","","null","resources/maskTrios/BT1B.jpg","null","",NA,NA,NA,NA,""
"image-keyboard-response",403,313212,"0.0-3.130-2.130","sv5yfm8wr8snk7y",603,"19.csv","","null","resources/images/fishbone.png","null","",NA,NA,NA,NA,""
"image-keyboard-response",404,313494,"0.0-3.131-0.131","sv5yfm8wr8snk7y",603,"19.csv","","279.59999990463257","resources/trios/L2T2A1.jpg","39","restless",0.6,0.3,0.6,0.935499685574045,"false"
"image-keyboard-response",405,313901,"0.0-3.131-1.131","sv5yfm8wr8snk7y",603,"19.csv","","null","resources/maskTrios/BBA1.jpg","null","",NA,NA,NA,NA,""
"image-keyboard-response",406,315105,"0.0-3.131-2.131","sv5yfm8wr8snk7y",603,"19.csv","","null","resources/images/fishbone.png","null","",NA,NA,NA,NA,""
"image-keyboard-response",407,315151,"0.0-3.132-0.132","sv5yfm8wr8snk7y",603,"19.csv","","43.89999997615814","resources/trios/L1T2A2.jpg","39","restless",0.6,0.3,0.6,0.682340662082197,"false"
"image-keyboard-response",408,315558,"0.0-3.132-1.132","sv5yfm8wr8snk7y",603,"19.csv","","null","resources/maskTrios/BBA2.jpg","null","",NA,NA,NA,NA,""
"image-keyboard-response",409,316765,"0.0-3.132-2.132","sv5yfm8wr8snk7y",603,"19.csv","","null","resources/images/fishbone.png","null","",NA,NA,NA,NA,""
"image-keyboard-response",410,316853,"0.0-3.133-0.133","sv5yfm8wr8snk7y",603,"19.csv","","86.29999995231628","resources/trios/L2T2A1.jpg","38","restless",0.6,0.2,0.6,0.606264890965049,"false"
"image-keyboard-response",411,317260,"0.0-3.133-1.133","sv5yfm8wr8snk7y",603,"19.csv","","null","resources/maskTrios/BT2B.jpg","null","",NA,NA,NA,NA,""
"image-keyboard-response",412,318462,"0.0-3.133-2.133","sv5yfm8wr8snk7y",603,"19.csv","","null","resources/images/fishbone.png","null","",NA,NA,NA,NA,""
"image-keyboard-response",413,318593,"0.0-3.134-0.134","sv5yfm8wr8snk7y",603,"19.csv","","128.80000007152557","resources/trios/L2T1A1.jpg","37","restless",0.6,0.2,0.6,0.611666556748769,"false"
"image-keyboard-response",414,319000,"0.0-3.134-1.134","sv5yfm8wr8snk7y",603,"19.csv","","null","resources/maskTrios/L2BB.jpg","null","",NA,NA,NA,NA,""
"image-keyboard-response",415,320206,"0.0-3.134-2.134","sv5yfm8wr8snk7y",603,"19.csv","","null","resources/images/fishbone.png","null","",NA,NA,NA,NA,""
"image-keyboard-response",416,320422,"0.0-3.135-0.135","sv5yfm8wr8snk7y",603,"19.csv","","213.59999990463257","resources/trios/L2T2A2.jpg","38","restless",0.6,0.2,0.6,0.286392492563474,"false"
"image-keyboard-response",417,320829,"0.0-3.135-1.135","sv5yfm8wr8snk7y",603,"19.csv","","null","resources/maskTrios/BT2B.jpg","null","",NA,NA,NA,NA,""
"image-keyboard-response",418,322032,"0.0-3.135-2.135","sv5yfm8wr8snk7y",603,"19.csv","","null","resources/images/fishbone.png","null","",NA,NA,NA,NA,""
"image-keyboard-response",419,322205,"0.0-3.136-0.136","sv5yfm8wr8snk7y",603,"19.csv","","170.29999995231628","resources/trios/L2T2A2.jpg","39","restless",0.6,0.2,0.6,0.657109437978919,"false"
"image-keyboard-response",420,322608,"0.0-3.136-1.136","sv5yfm8wr8snk7y",603,"19.csv","","null","resources/maskTrios/BBA2.jpg","null","",NA,NA,NA,NA,""
"image-keyboard-response",421,323815,"0.0-3.136-2.136","sv5yfm8wr8snk7y",603,"19.csv","","null","resources/images/fishbone.png","null","",NA,NA,NA,NA,""
"image-keyboard-response",422,324215,"0.0-3.137-0.137","sv5yfm8wr8snk7y",603,"19.csv","","397.5","resources/trios/L2T1A1.jpg","38","restless",0.6,0.2,0.6,0.277380467455699,"false"
"image-keyboard-response",423,324617,"0.0-3.137-1.137","sv5yfm8wr8snk7y",603,"19.csv","","null","resources/maskTrios/BT1B.jpg","null","",NA,NA,NA,NA,""
"image-keyboard-response",424,325823,"0.0-3.137-2.137","sv5yfm8wr8snk7y",603,"19.csv","","null","resources/images/fishbone.png","null","",NA,NA,NA,NA,""
"image-keyboard-response",425,325963,"0.0-3.138-0.138","sv5yfm8wr8snk7y",603,"19.csv","","137.90000009536743","resources/trios/L1T2A1.jpg","37","restless",0.6,0.2,0.6,0.629162534377609,"false"
"image-keyboard-response",426,326370,"0.0-3.138-1.138","sv5yfm8wr8snk7y",603,"19.csv","","null","resources/maskTrios/L1BB.jpg","null","",NA,NA,NA,NA,""
"image-keyboard-response",427,327577,"0.0-3.138-2.138","sv5yfm8wr8snk7y",603,"19.csv","","null","resources/images/fishbone.png","null","",NA,NA,NA,NA,""
"image-keyboard-response",428,327689,"0.0-3.139-0.139","sv5yfm8wr8snk7y",603,"19.csv","","109.69999992847443","resources/trios/L1T1A1.jpg","37","restless",0.6,0.2,0.6,0.698281810215528,"false"
"image-keyboard-response",429,328093,"0.0-3.139-1.139","sv5yfm8wr8snk7y",603,"19.csv","","null","resources/maskTrios/L1BB.jpg","null","",NA,NA,NA,NA,""
"image-keyboard-response",430,329300,"0.0-3.139-2.139","sv5yfm8wr8snk7y",603,"19.csv","","null","resources/images/fishbone.png","null","",NA,NA,NA,NA,""
"image-keyboard-response",431,329505,"0.0-3.140-0.140","sv5yfm8wr8snk7y",603,"19.csv","","203.39999997615814","resources/trios/L2T2A2.jpg","37","restless",0.5,0.2,0.7,0.278092319854464,"true"
"image-keyboard-response",432,329913,"0.0-3.140-1.140","sv5yfm8wr8snk7y",603,"19.csv","","null","resources/maskTrios/L2BB.jpg","null","",NA,NA,NA,NA,""
"image-keyboard-response",433,331120,"0.0-3.140-2.140","sv5yfm8wr8snk7y",603,"19.csv","","null","resources/images/coin2.png","null","",NA,NA,NA,NA,""
"image-keyboard-response",434,331207,"0.0-3.141-0.141","sv5yfm8wr8snk7y",603,"19.csv","","85.10000002384186","resources/trios/L2T1A2.jpg","37","restless",0.5,0.2,0.7,0.068018505769851,"true"
"image-keyboard-response",435,331615,"0.0-3.141-1.141","sv5yfm8wr8snk7y",603,"19.csv","","null","resources/maskTrios/L2BB.jpg","null","",NA,NA,NA,NA,""
"image-keyboard-response",436,332818,"0.0-3.141-2.141","sv5yfm8wr8snk7y",603,"19.csv","","null","resources/images/coin2.png","null","",NA,NA,NA,NA,""
"image-keyboard-response",437,332832,"0.0-3.142-0.142","sv5yfm8wr8snk7y",603,"19.csv","","11.5","resources/trios/L2T1A1.jpg","37","restless",0.5,0.2,0.7,0.593135762464834,"false"
"image-keyboard-response",438,333235,"0.0-3.142-1.142","sv5yfm8wr8snk7y",603,"19.csv","","null","resources/maskTrios/L2BB.jpg","null","",NA,NA,NA,NA,""
"image-keyboard-response",439,334441,"0.0-3.142-2.142","sv5yfm8wr8snk7y",603,"19.csv","","null","resources/images/fishbone.png","null","",NA,NA,NA,NA,""
"image-keyboard-response",440,334756,"0.0-3.143-0.143","sv5yfm8wr8snk7y",603,"19.csv","","312.3000000715256","resources/trios/L1T1A1.jpg","37","restless",0.5,0.2,0.7,0.949242724004766,"false"
"image-keyboard-response",441,335161,"0.0-3.143-1.143","sv5yfm8wr8snk7y",603,"19.csv","","null","resources/maskTrios/L1BB.jpg","null","",NA,NA,NA,NA,""
"image-keyboard-response",442,336364,"0.0-3.143-2.143","sv5yfm8wr8snk7y",603,"19.csv","","null","resources/images/fishbone.png","null","",NA,NA,NA,NA,""
"image-keyboard-response",443,336992,"0.0-3.144-0.144","sv5yfm8wr8snk7y",603,"19.csv","","626.5","resources/trios/L2T1A1.jpg","38","restless",0.5,0.2,0.7,0.157188671120755,"true"
"image-keyboard-response",444,337399,"0.0-3.144-1.144","sv5yfm8wr8snk7y",603,"19.csv","","null","resources/maskTrios/BT1B.jpg","null","",NA,NA,NA,NA,""
"image-keyboard-response",445,338606,"0.0-3.144-2.144","sv5yfm8wr8snk7y",603,"19.csv","","null","resources/images/coin2.png","null","",NA,NA,NA,NA,""
"image-keyboard-response",446,338953,"0.0-3.145-0.145","sv5yfm8wr8snk7y",603,"19.csv","","344.60000002384186","resources/trios/L2T2A1.jpg","38","restless",0.5,0.2,0.7,0.576024423619176,"false"
"image-keyboard-response",447,339360,"0.0-3.145-1.145","sv5yfm8wr8snk7y",603,"19.csv","","null","resources/maskTrios/BT2B.jpg","null","",NA,NA,NA,NA,""
"image-keyboard-response",448,340567,"0.0-3.145-2.145","sv5yfm8wr8snk7y",603,"19.csv","","null","resources/images/fishbone.png","null","",NA,NA,NA,NA,""
"image-keyboard-response",449,340994,"0.0-3.146-0.146","sv5yfm8wr8snk7y",603,"19.csv","","424.59999990463257","resources/trios/L1T2A1.jpg","38","restless",0.4,0.2,0.7,0.866508065661483,"false"
"image-keyboard-response",450,341401,"0.0-3.146-1.146","sv5yfm8wr8snk7y",603,"19.csv","","null","resources/maskTrios/BT2B.jpg","null","",NA,NA,NA,NA,""
"image-keyboard-response",451,342608,"0.0-3.146-2.146","sv5yfm8wr8snk7y",603,"19.csv","","null","resources/images/fishbone.png","null","",NA,NA,NA,NA,""
"image-keyboard-response",452,343095,"0.0-3.147-0.147","sv5yfm8wr8snk7y",603,"19.csv","","484.59999990463257","resources/trios/L1T1A1.jpg","38","restless",0.4,0.2,0.8,0.729997405799541,"false"
"image-keyboard-response",453,343502,"0.0-3.147-1.147","sv5yfm8wr8snk7y",603,"19.csv","","null","resources/maskTrios/BT1B.jpg","null","",NA,NA,NA,NA,""
"image-keyboard-response",454,344705,"0.0-3.147-2.147","sv5yfm8wr8snk7y",603,"19.csv","","null","resources/images/fishbone.png","null","",NA,NA,NA,NA,""
"image-keyboard-response",455,345353,"0.0-3.148-0.148","sv5yfm8wr8snk7y",603,"19.csv","","645.3999999761581","resources/trios/L1T2A1.jpg","39","restless",0.4,0.3,0.7,0.767647768593594,"false"
"image-keyboard-response",456,345758,"0.0-3.148-1.148","sv5yfm8wr8snk7y",603,"19.csv","","null","resources/maskTrios/BBA1.jpg","null","",NA,NA,NA,NA,""
"image-keyboard-response",457,346965,"0.0-3.148-2.148","sv5yfm8wr8snk7y",603,"19.csv","","null","resources/images/fishbone.png","null","",NA,NA,NA,NA,""
"image-keyboard-response",458,347260,"0.0-3.149-0.149","sv5yfm8wr8snk7y",603,"19.csv","","293.5","resources/trios/L2T2A2.jpg","37","restless",0.4,0.3,0.7,0.798141192504037,"false"
"image-keyboard-response",459,347668,"0.0-3.149-1.149","sv5yfm8wr8snk7y",603,"19.csv","","null","resources/maskTrios/L2BB.jpg","null","",NA,NA,NA,NA,""
"image-keyboard-response",460,348871,"0.0-3.149-2.149","sv5yfm8wr8snk7y",603,"19.csv","","null","resources/images/fishbone.png","null","",NA,NA,NA,NA,""
"image-keyboard-response",461,349509,"0.0-3.150-0.150","sv5yfm8wr8snk7y",603,"19.csv","","636.3000000715256","resources/trios/L2T2A2.jpg","38","restless",0.4,0.3,0.7,0.672416081387047,"false"
"image-keyboard-response",462,349913,"0.0-3.150-1.150","sv5yfm8wr8snk7y",603,"19.csv","","null","resources/maskTrios/BT2B.jpg","null","",NA,NA,NA,NA,""
"image-keyboard-response",463,351118,"0.0-3.150-2.150","sv5yfm8wr8snk7y",603,"19.csv","","null","resources/images/fishbone.png","null","",NA,NA,NA,NA,""
"image-keyboard-response",464,351528,"0.0-3.151-0.151","sv5yfm8wr8snk7y",603,"19.csv","","407.10000002384186","resources/trios/L1T1A1.jpg","39","restless",0.4,0.3,0.7,0.617702760214275,"true"
"image-keyboard-response",465,351932,"0.0-3.151-1.151","sv5yfm8wr8snk7y",603,"19.csv","","null","resources/maskTrios/BBA1.jpg","null","",NA,NA,NA,NA,""
"image-keyboard-response",466,353139,"0.0-3.151-2.151","sv5yfm8wr8snk7y",603,"19.csv","","null","resources/images/coin2.png","null","",NA,NA,NA,NA,""
"image-keyboard-response",467,353412,"0.0-3.152-0.152","sv5yfm8wr8snk7y",603,"19.csv","","270.5","resources/trios/L2T1A2.jpg","39","restless",0.4,0.3,0.7,0.553890207043655,"true"
"image-keyboard-response",468,353819,"0.0-3.152-1.152","sv5yfm8wr8snk7y",603,"19.csv","","null","resources/maskTrios/BBA2.jpg","null","",NA,NA,NA,NA,""
"image-keyboard-response",469,355027,"0.0-3.152-2.152","sv5yfm8wr8snk7y",603,"19.csv","","null","resources/images/coin2.png","null","",NA,NA,NA,NA,""
"image-keyboard-response",470,355676,"0.0-3.153-0.153","sv5yfm8wr8snk7y",603,"19.csv","","646.8000000715256","resources/trios/L1T2A1.jpg","39","restless",0.4,0.3,0.7,0.615389246549298,"true"
"image-keyboard-response",471,356083,"0.0-3.153-1.153","sv5yfm8wr8snk7y",603,"19.csv","","null","resources/maskTrios/BBA1.jpg","null","",NA,NA,NA,NA,""
"image-keyboard-response",472,357290,"0.0-3.153-2.153","sv5yfm8wr8snk7y",603,"19.csv","","null","resources/images/coin2.png","null","",NA,NA,NA,NA,""
"image-keyboard-response",473,358066,"0.0-3.154-0.154","sv5yfm8wr8snk7y",603,"19.csv","","773.7999999523163","resources/trios/L1T2A1.jpg","39","restless",0.4,0.3,0.7,0.368371718748296,"true"
"image-keyboard-response",474,358473,"0.0-3.154-1.154","sv5yfm8wr8snk7y",603,"19.csv","","null","resources/maskTrios/BBA1.jpg","null","",NA,NA,NA,NA,""
"image-keyboard-response",475,359681,"0.0-3.154-2.154","sv5yfm8wr8snk7y",603,"19.csv","","null","resources/images/coin2.png","null","",NA,NA,NA,NA,""
"image-keyboard-response",476,360195,"0.0-3.155-0.155","sv5yfm8wr8snk7y",603,"19.csv","","511.60000002384186","resources/trios/L1T2A1.jpg","39","restless",0.4,0.4,0.7,0.0704622759812854,"true"
"image-keyboard-response",477,360602,"0.0-3.155-1.155","sv5yfm8wr8snk7y",603,"19.csv","","null","resources/maskTrios/BBA1.jpg","null","",NA,NA,NA,NA,""
"image-keyboard-response",478,361808,"0.0-3.155-2.155","sv5yfm8wr8snk7y",603,"19.csv","","null","resources/images/coin2.png","null","",NA,NA,NA,NA,""
"image-keyboard-response",479,362215,"0.0-3.156-0.156","sv5yfm8wr8snk7y",603,"19.csv","","404.39999997615814","resources/trios/L1T2A1.jpg","39","restless",0.5,0.4,0.7,0.0786611008486295,"true"
"image-keyboard-response",480,362619,"0.0-3.156-1.156","sv5yfm8wr8snk7y",603,"19.csv","","null","resources/maskTrios/BBA1.jpg","null","",NA,NA,NA,NA,""
"image-keyboard-response",481,363826,"0.0-3.156-2.156","sv5yfm8wr8snk7y",603,"19.csv","","null","resources/images/coin2.png","null","",NA,NA,NA,NA,""
"image-keyboard-response",482,364443,"0.0-3.157-0.157","sv5yfm8wr8snk7y",603,"19.csv","","615","resources/trios/L2T2A2.jpg","39","restless",0.5,0.4,0.7,0.356269701917402,"true"
"image-keyboard-response",483,364851,"0.0-3.157-1.157","sv5yfm8wr8snk7y",603,"19.csv","","null","resources/maskTrios/BBA2.jpg","null","",NA,NA,NA,NA,""
"image-keyboard-response",484,366058,"0.0-3.157-2.157","sv5yfm8wr8snk7y",603,"19.csv","","null","resources/images/coin2.png","null","",NA,NA,NA,NA,""
"image-keyboard-response",485,367043,"0.0-3.158-0.158","sv5yfm8wr8snk7y",603,"19.csv","","982.7000000476837","resources/trios/L1T2A2.jpg","39","restless",0.4,0.4,0.7,0.997164207737185,"false"
"image-keyboard-response",486,367450,"0.0-3.158-1.158","sv5yfm8wr8snk7y",603,"19.csv","","null","resources/maskTrios/BBA2.jpg","null","",NA,NA,NA,NA,""
"image-keyboard-response",487,368657,"0.0-3.158-2.158","sv5yfm8wr8snk7y",603,"19.csv","","null","resources/images/fishbone.png","null","",NA,NA,NA,NA,""
"image-keyboard-response",488,373599,"0.0-3.159-0.159","sv5yfm8wr8snk7y",603,"19.csv","","4939.699999928474","resources/trios/L2T2A2.jpg","38","restless",0.4,0.5,0.7,0.494051101040929,"true"
"image-keyboard-response",489,374006,"0.0-3.159-1.159","sv5yfm8wr8snk7y",603,"19.csv","","null","resources/maskTrios/BT2B.jpg","null","",NA,NA,NA,NA,""
"image-keyboard-response",490,375214,"0.0-3.159-2.159","sv5yfm8wr8snk7y",603,"19.csv","","null","resources/images/coin2.png","null","",NA,NA,NA,NA,""
"image-keyboard-response",491,375695,"0.0-3.160-0.160","sv5yfm8wr8snk7y",603,"19.csv","","478.89999997615814","resources/trios/L2T1A2.jpg","38","restless",0.4,0.5,0.7,0.662303458988296,"false"
"image-keyboard-response",492,376102,"0.0-3.160-1.160","sv5yfm8wr8snk7y",603,"19.csv","","null","resources/maskTrios/BT1B.jpg","null","",NA,NA,NA,NA,""
"image-keyboard-response",493,377309,"0.0-3.160-2.160","sv5yfm8wr8snk7y",603,"19.csv","","null","resources/images/fishbone.png","null","",NA,NA,NA,NA,""
"image-keyboard-response",494,383874,"0.0-3.161-0.161","sv5yfm8wr8snk7y",603,"19.csv","","6563.100000023842","resources/trios/L1T1A2.jpg","37","restless",0.4,0.6,0.7,0.992939007875195,"false"
"image-keyboard-response",495,384282,"0.0-3.161-1.161","sv5yfm8wr8snk7y",603,"19.csv","","null","resources/maskTrios/L1BB.jpg","null","",NA,NA,NA,NA,""
"image-keyboard-response",496,385489,"0.0-3.161-2.161","sv5yfm8wr8snk7y",603,"19.csv","","null","resources/images/fishbone.png","null","",NA,NA,NA,NA,""
"image-keyboard-response",497,385819,"0.0-3.162-0.162","sv5yfm8wr8snk7y",603,"19.csv","","328.10000002384186","resources/trios/L1T1A1.jpg","38","restless",0.4,0.6,0.7,0.0719863781257524,"true"
"image-keyboard-response",498,386223,"0.0-3.162-1.162","sv5yfm8wr8snk7y",603,"19.csv","","null","resources/maskTrios/BT1B.jpg","null","",NA,NA,NA,NA,""
"image-keyboard-response",499,387430,"0.0-3.162-2.162","sv5yfm8wr8snk7y",603,"19.csv","","null","resources/images/coin2.png","null","",NA,NA,NA,NA,""
"image-keyboard-response",500,389486,"0.0-3.163-0.163","sv5yfm8wr8snk7y",603,"19.csv","","2053.5","resources/trios/L1T1A2.jpg","38","restless",0.4,0.6,0.7,0.905993064115682,"false"
"image-keyboard-response",501,389893,"0.0-3.163-1.163","sv5yfm8wr8snk7y",603,"19.csv","","null","resources/maskTrios/BT1B.jpg","null","",NA,NA,NA,NA,""
"image-keyboard-response",502,391100,"0.0-3.163-2.163","sv5yfm8wr8snk7y",603,"19.csv","","null","resources/images/fishbone.png","null","",NA,NA,NA,NA,""
"image-keyboard-response",503,391360,"0.0-3.164-0.164","sv5yfm8wr8snk7y",603,"19.csv","","257.2000000476837","resources/trios/L1T2A2.jpg","37","restless",0.4,0.6,0.7,0.860870138923171,"false"
"image-keyboard-response",504,391767,"0.0-3.164-1.164","sv5yfm8wr8snk7y",603,"19.csv","","null","resources/maskTrios/L1BB.jpg","null","",NA,NA,NA,NA,""
"image-keyboard-response",505,392971,"0.0-3.164-2.164","sv5yfm8wr8snk7y",603,"19.csv","","null","resources/images/fishbone.png","null","",NA,NA,NA,NA,""
"image-keyboard-response",506,394614,"0.0-3.165-0.165","sv5yfm8wr8snk7y",603,"19.csv","","1640.5","resources/trios/L2T2A1.jpg","38","restless",0.4,0.6,0.7,0.278215910323299,"true"
"image-keyboard-response",507,395017,"0.0-3.165-1.165","sv5yfm8wr8snk7y",603,"19.csv","","null","resources/maskTrios/BT2B.jpg","null","",NA,NA,NA,NA,""
"image-keyboard-response",508,396224,"0.0-3.165-2.165","sv5yfm8wr8snk7y",603,"19.csv","","null","resources/images/coin2.png","null","",NA,NA,NA,NA,""
"image-keyboard-response",509,396461,"0.0-3.166-0.166","sv5yfm8wr8snk7y",603,"19.csv","","234.69999992847443","resources/trios/L1T2A2.jpg","39","restless",0.4,0.6,0.7,0.67732500181498,"true"
"image-keyboard-response",510,396868,"0.0-3.166-1.166","sv5yfm8wr8snk7y",603,"19.csv","","null","resources/maskTrios/BBA2.jpg","null","",NA,NA,NA,NA,""
"image-keyboard-response",511,398072,"0.0-3.166-2.166","sv5yfm8wr8snk7y",603,"19.csv","","null","resources/images/coin2.png","null","",NA,NA,NA,NA,""
"image-keyboard-response",512,398357,"0.0-3.167-0.167","sv5yfm8wr8snk7y",603,"19.csv","","282.5","resources/trios/L1T2A2.jpg","39","restless",0.4,0.6,0.7,0.681107285318953,"true"
"image-keyboard-response",513,398764,"0.0-3.167-1.167","sv5yfm8wr8snk7y",603,"19.csv","","null","resources/maskTrios/BBA2.jpg","null","",NA,NA,NA,NA,""
"image-keyboard-response",514,399971,"0.0-3.167-2.167","sv5yfm8wr8snk7y",603,"19.csv","","null","resources/images/coin2.png","null","",NA,NA,NA,NA,""
"image-keyboard-response",515,400393,"0.0-3.168-0.168","sv5yfm8wr8snk7y",603,"19.csv","","420.10000002384186","resources/trios/L1T2A2.jpg","39","restless",0.5,0.5,0.7,0.764277397605828,"false"
"image-keyboard-response",516,400797,"0.0-3.168-1.168","sv5yfm8wr8snk7y",603,"19.csv","","null","resources/maskTrios/BBA2.jpg","null","",NA,NA,NA,NA,""
"image-keyboard-response",517,402004,"0.0-3.168-2.168","sv5yfm8wr8snk7y",603,"19.csv","","null","resources/images/fishbone.png","null","",NA,NA,NA,NA,""
"image-keyboard-response",518,402594,"0.0-3.169-0.169","sv5yfm8wr8snk7y",603,"19.csv","","588.1000000238419","resources/trios/L2T2A1.jpg","38","restless",0.5,0.5,0.7,0.913718050424221,"false"
"image-keyboard-response",519,403001,"0.0-3.169-1.169","sv5yfm8wr8snk7y",603,"19.csv","","null","resources/maskTrios/BT2B.jpg","null","",NA,NA,NA,NA,""
"image-keyboard-response",520,404208,"0.0-3.169-2.169","sv5yfm8wr8snk7y",603,"19.csv","","null","resources/images/fishbone.png","null","",NA,NA,NA,NA,""
"image-keyboard-response",521,405725,"0.0-3.170-0.170","sv5yfm8wr8snk7y",603,"19.csv","","1514.8000000715256","resources/trios/L2T1A2.jpg","37","restless",0.5,0.5,0.8,0.0658455187699847,"true"
"image-keyboard-response",522,406133,"0.0-3.170-1.170","sv5yfm8wr8snk7y",603,"19.csv","","null","resources/maskTrios/L2BB.jpg","null","",NA,NA,NA,NA,""
"image-keyboard-response",523,407338,"0.0-3.170-2.170","sv5yfm8wr8snk7y",603,"19.csv","","null","resources/images/coin2.png","null","",NA,NA,NA,NA,""
"image-keyboard-response",524,408678,"0.0-3.171-0.171","sv5yfm8wr8snk7y",603,"19.csv","","1337.9000000953674","resources/trios/L2T2A2.jpg","37","restless",0.5,0.5,0.8,0.901356987364231,"false"
"image-keyboard-response",525,409085,"0.0-3.171-1.171","sv5yfm8wr8snk7y",603,"19.csv","","null","resources/maskTrios/L2BB.jpg","null","",NA,NA,NA,NA,""
"image-keyboard-response",526,410292,"0.0-3.171-2.171","sv5yfm8wr8snk7y",603,"19.csv","","null","resources/images/fishbone.png","null","",NA,NA,NA,NA,""
"image-keyboard-response",527,411804,"0.0-3.172-0.172","sv5yfm8wr8snk7y",603,"19.csv","","1509.1000000238419","resources/trios/L1T1A1.jpg","38","restless",0.5,0.5,0.8,0.612515571158327,"false"
"image-keyboard-response",528,412207,"0.0-3.172-1.172","sv5yfm8wr8snk7y",603,"19.csv","","null","resources/maskTrios/BT1B.jpg","null","",NA,NA,NA,NA,""
"image-keyboard-response",529,413411,"0.0-3.172-2.172","sv5yfm8wr8snk7y",603,"19.csv","","null","resources/images/fishbone.png","null","",NA,NA,NA,NA,""
"image-keyboard-response",530,419408,"0.0-3.173-0.173","sv5yfm8wr8snk7y",603,"19.csv","","5994.600000023842","resources/trios/L2T1A2.jpg","38","restless",0.5,0.5,0.8,0.658221003776354,"false"
"image-keyboard-response",531,419815,"0.0-3.173-1.173","sv5yfm8wr8snk7y",603,"19.csv","","null","resources/maskTrios/BT1B.jpg","null","",NA,NA,NA,NA,""
"image-keyboard-response",532,421017,"0.0-3.173-2.173","sv5yfm8wr8snk7y",603,"19.csv","","null","resources/images/fishbone.png","null","",NA,NA,NA,NA,""
"image-keyboard-response",533,424581,"0.0-3.174-0.174","sv5yfm8wr8snk7y",603,"19.csv","","3561.2999999523163","resources/trios/L1T1A1.jpg","38","restless",0.5,0.5,0.8,0.707833825223027,"false"
"image-keyboard-response",534,424988,"0.0-3.174-1.174","sv5yfm8wr8snk7y",603,"19.csv","","null","resources/maskTrios/BT1B.jpg","null","",NA,NA,NA,NA,""
"image-keyboard-response",535,426195,"0.0-3.174-2.174","sv5yfm8wr8snk7y",603,"19.csv","","null","resources/images/fishbone.png","null","",NA,NA,NA,NA,""
"image-keyboard-response",536,442370,"0.0-3.175-0.175","sv5yfm8wr8snk7y",603,"19.csv","","16172.5","resources/trios/L1T1A1.jpg","38","restless",0.5,0.5,0.8,0.0763349293256252,"true"
"image-keyboard-response",537,442777,"0.0-3.175-1.175","sv5yfm8wr8snk7y",603,"19.csv","","null","resources/maskTrios/BT1B.jpg","null","",NA,NA,NA,NA,""
"image-keyboard-response",538,443981,"0.0-3.175-2.175","sv5yfm8wr8snk7y",603,"19.csv","","null","resources/images/coin2.png","null","",NA,NA,NA,NA,""
"image-keyboard-response",539,445710,"0.0-3.176-0.176","sv5yfm8wr8snk7y",603,"19.csv","","1726.5","resources/trios/L1T2A2.jpg","38","restless",0.5,0.5,0.8,0.113887076036343,"true"
"image-keyboard-response",540,446118,"0.0-3.176-1.176","sv5yfm8wr8snk7y",603,"19.csv","","null","resources/maskTrios/BT2B.jpg","null","",NA,NA,NA,NA,""
"image-keyboard-response",541,447325,"0.0-3.176-2.176","sv5yfm8wr8snk7y",603,"19.csv","","null","resources/images/coin2.png","null","",NA,NA,NA,NA,""
"image-keyboard-response",542,452687,"0.0-3.177-0.177","sv5yfm8wr8snk7y",603,"19.csv","","5359.600000023842","resources/trios/L2T1A2.jpg","38","restless",0.5,0.5,0.8,0.858663918771186,"false"
"image-keyboard-response",543,453094,"0.0-3.177-1.177","sv5yfm8wr8snk7y",603,"19.csv","","null","resources/maskTrios/BT1B.jpg","null","",NA,NA,NA,NA,""
"image-keyboard-response",544,454301,"0.0-3.177-2.177","sv5yfm8wr8snk7y",603,"19.csv","","null","resources/images/fishbone.png","null","",NA,NA,NA,NA,""
"image-keyboard-response",545,454939,"0.0-3.178-0.178","sv5yfm8wr8snk7y",603,"19.csv","","635.3999999761581","resources/trios/L1T1A1.jpg","38","restless",0.5,0.5,0.8,0.401434393752993,"true"
"image-keyboard-response",546,455346,"0.0-3.178-1.178","sv5yfm8wr8snk7y",603,"19.csv","","null","resources/maskTrios/BT1B.jpg","null","",NA,NA,NA,NA,""
"image-keyboard-response",547,456550,"0.0-3.178-2.178","sv5yfm8wr8snk7y",603,"19.csv","","null","resources/images/coin2.png","null","",NA,NA,NA,NA,""
"image-keyboard-response",548,457878,"0.0-3.179-0.179","sv5yfm8wr8snk7y",603,"19.csv","","1325.2000000476837","resources/trios/L2T2A1.jpg","38","restless",0.5,0.5,0.8,0.379758790259183,"true"
"image-keyboard-response",549,458285,"0.0-3.179-1.179","sv5yfm8wr8snk7y",603,"19.csv","","null","resources/maskTrios/BT2B.jpg","null","",NA,NA,NA,NA,""
"image-keyboard-response",550,459492,"0.0-3.179-2.179","sv5yfm8wr8snk7y",603,"19.csv","","null","resources/images/coin2.png","null","",NA,NA,NA,NA,""
"image-keyboard-response",551,459862,"0.0-3.180-0.180","sv5yfm8wr8snk7y",603,"19.csv","","368.5","resources/trios/L2T2A1.jpg","38","restless",0.5,0.5,0.8,0.367194337609021,"true"
"image-keyboard-response",552,460270,"0.0-3.180-1.180","sv5yfm8wr8snk7y",603,"19.csv","","null","resources/maskTrios/BT2B.jpg","null","",NA,NA,NA,NA,""
"image-keyboard-response",553,461477,"0.0-3.180-2.180","sv5yfm8wr8snk7y",603,"19.csv","","null","resources/images/coin2.png","null","",NA,NA,NA,NA,""
"image-keyboard-response",554,462010,"0.0-3.181-0.181","sv5yfm8wr8snk7y",603,"19.csv","","530.7999999523163","resources/trios/L2T1A2.jpg","38","restless",0.5,0.5,0.8,0.0335876480166346,"true"
"image-keyboard-response",555,462415,"0.0-3.181-1.181","sv5yfm8wr8snk7y",603,"19.csv","","null","resources/maskTrios/BT1B.jpg","null","",NA,NA,NA,NA,""
"image-keyboard-response",556,463617,"0.0-3.181-2.181","sv5yfm8wr8snk7y",603,"19.csv","","null","resources/images/coin2.png","null","",NA,NA,NA,NA,""
"image-keyboard-response",557,464001,"0.0-3.182-0.182","sv5yfm8wr8snk7y",603,"19.csv","","381.90000009536743","resources/trios/L1T1A1.jpg","38","restless",0.5,0.5,0.8,0.772574269979245,"false"
"image-keyboard-response",558,464405,"0.0-3.182-1.182","sv5yfm8wr8snk7y",603,"19.csv","","null","resources/maskTrios/BT1B.jpg","null","",NA,NA,NA,NA,""
"image-keyboard-response",559,465612,"0.0-3.182-2.182","sv5yfm8wr8snk7y",603,"19.csv","","null","resources/images/fishbone.png","null","",NA,NA,NA,NA,""
"image-keyboard-response",560,465894,"0.0-3.183-0.183","sv5yfm8wr8snk7y",603,"19.csv","","279.60000002384186","resources/trios/L1T2A2.jpg","38","restless",0.5,0.5,0.8,0.743770768996967,"false"
"image-keyboard-response",561,466301,"0.0-3.183-1.183","sv5yfm8wr8snk7y",603,"19.csv","","null","resources/maskTrios/BT2B.jpg","null","",NA,NA,NA,NA,""
"image-keyboard-response",562,467508,"0.0-3.183-2.183","sv5yfm8wr8snk7y",603,"19.csv","","null","resources/images/fishbone.png","null","",NA,NA,NA,NA,""
"image-keyboard-response",563,469000,"0.0-3.184-0.184","sv5yfm8wr8snk7y",603,"19.csv","","1489.8000000715256","resources/trios/L2T2A2.jpg","37","restless",0.5,0.4,0.8,0.0655383103266181,"true"
"image-keyboard-response",564,469408,"0.0-3.184-1.184","sv5yfm8wr8snk7y",603,"19.csv","","null","resources/maskTrios/L2BB.jpg","null","",NA,NA,NA,NA,""
"image-keyboard-response",565,470615,"0.0-3.184-2.184","sv5yfm8wr8snk7y",603,"19.csv","","null","resources/images/coin2.png","null","",NA,NA,NA,NA,""
"image-keyboard-response",566,471340,"0.0-3.185-0.185","sv5yfm8wr8snk7y",603,"19.csv","","722.8000000715256","resources/trios/L2T1A1.jpg","37","restless",0.5,0.4,0.8,0.00724100913484316,"true"
"image-keyboard-response",567,471748,"0.0-3.185-1.185","sv5yfm8wr8snk7y",603,"19.csv","","null","resources/maskTrios/L2BB.jpg","null","",NA,NA,NA,NA,""
"image-keyboard-response",568,472950,"0.0-3.185-2.185","sv5yfm8wr8snk7y",603,"19.csv","","null","resources/images/coin2.png","null","",NA,NA,NA,NA,""
"image-keyboard-response",569,475106,"0.0-3.186-0.186","sv5yfm8wr8snk7y",603,"19.csv","","2153.5","resources/trios/L1T2A2.jpg","37","restless",0.5,0.4,0.8,0.686820468637466,"false"
"image-keyboard-response",570,475509,"0.0-3.186-1.186","sv5yfm8wr8snk7y",603,"19.csv","","null","resources/maskTrios/L1BB.jpg","null","",NA,NA,NA,NA,""
"image-keyboard-response",571,476713,"0.0-3.186-2.186","sv5yfm8wr8snk7y",603,"19.csv","","null","resources/images/fishbone.png","null","",NA,NA,NA,NA,""
"image-keyboard-response",572,484773,"0.0-3.187-0.187","sv5yfm8wr8snk7y",603,"19.csv","","8057.700000047684","resources/trios/L2T2A1.jpg","38","restless",0.5,0.4,0.8,0.348173774670831,"true"
"image-keyboard-response",573,485176,"0.0-3.187-1.187","sv5yfm8wr8snk7y",603,"19.csv","","null","resources/maskTrios/BT2B.jpg","null","",NA,NA,NA,NA,""
"image-keyboard-response",574,486384,"0.0-3.187-2.187","sv5yfm8wr8snk7y",603,"19.csv","","null","resources/images/coin2.png","null","",NA,NA,NA,NA,""
"image-keyboard-response",575,486848,"0.0-3.188-0.188","sv5yfm8wr8snk7y",603,"19.csv","","461.6999999284744","resources/trios/L1T2A2.jpg","38","restless",0.5,0.5,0.8,0.10715344965432,"true"
"image-keyboard-response",576,487255,"0.0-3.188-1.188","sv5yfm8wr8snk7y",603,"19.csv","","null","resources/maskTrios/BT2B.jpg","null","",NA,NA,NA,NA,""
"image-keyboard-response",577,488463,"0.0-3.188-2.188","sv5yfm8wr8snk7y",603,"19.csv","","null","resources/images/coin2.png","null","",NA,NA,NA,NA,""
"image-keyboard-response",578,492048,"0.0-3.189-0.189","sv5yfm8wr8snk7y",603,"19.csv","","3583.399999976158","resources/trios/L2T1A1.jpg","38","restless",0.5,0.5,0.8,0.909914852881178,"false"
"image-keyboard-response",579,492456,"0.0-3.189-1.189","sv5yfm8wr8snk7y",603,"19.csv","","null","resources/maskTrios/BT1B.jpg","null","",NA,NA,NA,NA,""
"image-keyboard-response",580,493663,"0.0-3.189-2.189","sv5yfm8wr8snk7y",603,"19.csv","","null","resources/images/fishbone.png","null","",NA,NA,NA,NA,""
"image-keyboard-response",581,494197,"0.0-3.190-0.190","sv5yfm8wr8snk7y",603,"19.csv","","531.6000000238419","resources/trios/L1T1A1.jpg","37","restless",0.5,0.5,0.8,0.630009201897391,"false"
"image-keyboard-response",582,494604,"0.0-3.190-1.190","sv5yfm8wr8snk7y",603,"19.csv","","null","resources/maskTrios/L1BB.jpg","null","",NA,NA,NA,NA,""
"image-keyboard-response",583,495811,"0.0-3.190-2.190","sv5yfm8wr8snk7y",603,"19.csv","","null","resources/images/fishbone.png","null","",NA,NA,NA,NA,""
"image-keyboard-response",584,499931,"0.0-3.191-0.191","sv5yfm8wr8snk7y",603,"19.csv","","4117.100000023842","resources/trios/L1T1A1.jpg","37","restless",0.5,0.5,0.8,0.249131670420248,"true"
"image-keyboard-response",585,500338,"0.0-3.191-1.191","sv5yfm8wr8snk7y",603,"19.csv","","null","resources/maskTrios/L1BB.jpg","null","",NA,NA,NA,NA,""
"image-keyboard-response",586,501546,"0.0-3.191-2.191","sv5yfm8wr8snk7y",603,"19.csv","","null","resources/images/coin2.png","null","",NA,NA,NA,NA,""
"image-keyboard-response",587,506985,"0.0-3.192-0.192","sv5yfm8wr8snk7y",603,"19.csv","","5437.199999928474","resources/trios/L1T1A2.jpg","38","restless",0.5,0.4,0.8,0.778258764386777,"false"
"image-keyboard-response",588,507393,"0.0-3.192-1.192","sv5yfm8wr8snk7y",603,"19.csv","","null","resources/maskTrios/BT1B.jpg","null","",NA,NA,NA,NA,""
"image-keyboard-response",589,508595,"0.0-3.192-2.192","sv5yfm8wr8snk7y",603,"19.csv","","null","resources/images/fishbone.png","null","",NA,NA,NA,NA,""
"image-keyboard-response",590,508962,"0.0-3.193-0.193","sv5yfm8wr8snk7y",603,"19.csv","","363.60000002384186","resources/trios/L2T1A1.jpg","38","restless",0.5,0.4,0.7,0.499432959800017,"false"
"image-keyboard-response",591,509369,"0.0-3.193-1.193","sv5yfm8wr8snk7y",603,"19.csv","","null","resources/maskTrios/BT1B.jpg","null","",NA,NA,NA,NA,""
"image-keyboard-response",592,510576,"0.0-3.193-2.193","sv5yfm8wr8snk7y",603,"19.csv","","null","resources/images/fishbone.png","null","",NA,NA,NA,NA,""
"image-keyboard-response",593,511064,"0.0-3.194-0.194","sv5yfm8wr8snk7y",603,"19.csv","","485.5","resources/trios/L2T1A2.jpg","38","restless",0.5,0.4,0.7,0.753585276712906,"false"
"image-keyboard-response",594,511471,"0.0-3.194-1.194","sv5yfm8wr8snk7y",603,"19.csv","","null","resources/maskTrios/BT1B.jpg","null","",NA,NA,NA,NA,""
"image-keyboard-response",595,512678,"0.0-3.194-2.194","sv5yfm8wr8snk7y",603,"19.csv","","null","resources/images/fishbone.png","null","",NA,NA,NA,NA,""
"image-keyboard-response",596,513283,"0.0-3.195-0.195","sv5yfm8wr8snk7y",603,"19.csv","","603","resources/trios/L1T2A1.jpg","38","restless",0.5,0.4,0.7,0.261934717961009,"true"
"image-keyboard-response",597,513690,"0.0-3.195-1.195","sv5yfm8wr8snk7y",603,"19.csv","","null","resources/maskTrios/BT2B.jpg","null","",NA,NA,NA,NA,""
"image-keyboard-response",598,514897,"0.0-3.195-2.195","sv5yfm8wr8snk7y",603,"19.csv","","null","resources/images/coin2.png","null","",NA,NA,NA,NA,""
"image-keyboard-response",599,515332,"0.0-3.196-0.196","sv5yfm8wr8snk7y",603,"19.csv","","431.89999997615814","resources/trios/L1T1A1.jpg","38","restless",0.5,0.4,0.7,0.455549754626771,"false"
"image-keyboard-response",600,515739,"0.0-3.196-1.196","sv5yfm8wr8snk7y",603,"19.csv","","null","resources/maskTrios/BT1B.jpg","null","",NA,NA,NA,NA,""
"image-keyboard-response",601,516943,"0.0-3.196-2.196","sv5yfm8wr8snk7y",603,"19.csv","","null","resources/images/fishbone.png","null","",NA,NA,NA,NA,""
"image-keyboard-response",602,517243,"0.0-3.197-0.197","sv5yfm8wr8snk7y",603,"19.csv","","297.5","resources/trios/L1T1A1.jpg","39","restless",0.5,0.4,0.7,0.363675628294631,"true"
"image-keyboard-response",603,517650,"0.0-3.197-1.197","sv5yfm8wr8snk7y",603,"19.csv","","null","resources/maskTrios/BBA1.jpg","null","",NA,NA,NA,NA,""
"image-keyboard-response",604,518853,"0.0-3.197-2.197","sv5yfm8wr8snk7y",603,"19.csv","","null","resources/images/coin2.png","null","",NA,NA,NA,NA,""
"image-keyboard-response",605,519218,"0.0-3.198-0.198","sv5yfm8wr8snk7y",603,"19.csv","","362.2999999523163","resources/trios/L2T1A2.jpg","39","restless",0.5,0.4,0.7,0.405203220859093,"true"
"image-keyboard-response",606,519625,"0.0-3.198-1.198","sv5yfm8wr8snk7y",603,"19.csv","","null","resources/maskTrios/BBA2.jpg","null","",NA,NA,NA,NA,""
"image-keyboard-response",607,520832,"0.0-3.198-2.198","sv5yfm8wr8snk7y",603,"19.csv","","null","resources/images/coin2.png","null","",NA,NA,NA,NA,""
"image-keyboard-response",608,521361,"0.0-3.199-0.199","sv5yfm8wr8snk7y",603,"19.csv","","526.2999999523163","resources/trios/L1T1A2.jpg","39","restless",0.5,0.4,0.6,0.152738346991206,"true"
"image-keyboard-response",609,521767,"0.0-3.199-1.199","sv5yfm8wr8snk7y",603,"19.csv","","null","resources/maskTrios/BBA2.jpg","null","",NA,NA,NA,NA,""
"image-keyboard-response",610,522971,"0.0-3.199-2.199","sv5yfm8wr8snk7y",603,"19.csv","","null","resources/images/coin2.png","null","",NA,NA,NA,NA,""
