"trial_type","trial_index","time_elapsed","internal_node_id","subject","participantCode","walkNumber","success","rt","stimulus","key_press","test_part","leftProb","midProb","rightProb","generatedNum","correct"
"pavlovia",0,995,"0.0-0.0","1ohxsaojoyhv0xs",450,"34.csv","","","","","",NA,NA,NA,NA,""
"fullscreen",1,3962,"0.0-1.0","1ohxsaojoyhv0xs",450,"34.csv","true","","","","",NA,NA,NA,NA,""
"html-keyboard-response",2,10740,"0.0-2.0-0.0","1ohxsaojoyhv0xs",450,"34.csv","","6776.600000023842","<p><font size='6'>Arrrgh!</p></font><p>Can you be the best pirate? Try to find lots of gold! But beware, some islands have more gold than others, and over time, the island with the most gold may change. Can YOU figure it out? </p><font size='6'>GOOD LUCK, CAPTAIN!!!</font><p>Press any key to begin</p>","32","",NA,NA,NA,NA,""
"image-keyboard-response",3,13747,"0.0-2.0-1.0","1ohxsaojoyhv0xs",450,"34.csv","","null","resources/image_sets/111.png","null","",NA,NA,NA,NA,""
"image-keyboard-response",4,18772,"0.0-2.0-2.0","1ohxsaojoyhv0xs",450,"34.csv","","5022.600000023842","resources/image_sets/left_highlight.png","37","",NA,NA,NA,NA,""
"image-keyboard-response",5,19800,"0.0-2.0-3.0","1ohxsaojoyhv0xs",450,"34.csv","","1025.7000000476837","resources/image_sets/mid_highlight.png","38","",NA,NA,NA,NA,""
"image-keyboard-response",6,20392,"0.0-2.0-4.0","1ohxsaojoyhv0xs",450,"34.csv","","590.9000000357628","resources/image_sets/right_highlight.png","39","",NA,NA,NA,NA,""
"image-keyboard-response",7,22116,"0.0-2.0-5.0","1ohxsaojoyhv0xs",450,"34.csv","","1721.800000011921","resources/image_sets/111.png","13","",NA,NA,NA,NA,""
"image-keyboard-response",8,24803,"0.0-2.0-6.0","1ohxsaojoyhv0xs",450,"34.csv","","2685.2999999523163","resources/images/coin2.png","13","",NA,NA,NA,NA,""
"image-keyboard-response",9,26164,"0.0-2.0-7.0","1ohxsaojoyhv0xs",450,"34.csv","","1359.300000011921","resources/images/fishbone.png","13","",NA,NA,NA,NA,""
"html-keyboard-response",10,30140,"0.0-2.0-8.0","1ohxsaojoyhv0xs",450,"34.csv","","3974.699999988079","<p>Your first journey will be a long one, but you will get a well deserved break at the end</p><p>After the break you will have four more journeys, but each will be much shorter than the first, and you will have breaks in between each</p><p>Press Enter to begin</p>","13","",NA,NA,NA,NA,""
"image-keyboard-response",11,32528,"0.0-3.0-0.0","1ohxsaojoyhv0xs",450,"34.csv","","2384.699999988079","resources/trios/L4T4A3.jpg","38","restless",0.3,0.9,0.7,0.756492663825782,"true"
"image-keyboard-response",12,32932,"0.0-3.0-1.0","1ohxsaojoyhv0xs",450,"34.csv","","null","resources/maskTrios/BT4B.jpg","null","",NA,NA,NA,NA,""
"image-keyboard-response",13,34141,"0.0-3.0-2.0","1ohxsaojoyhv0xs",450,"34.csv","","null","resources/images/coin2.png","null","",NA,NA,NA,NA,""
"image-keyboard-response",14,36324,"0.0-3.1-0.1","1ohxsaojoyhv0xs",450,"34.csv","","2180.600000023842","resources/trios/L4T1A2.jpg","37","restless",0.3,0.9,0.7,0.253806761978485,"true"
"image-keyboard-response",15,36730,"0.0-3.1-1.1","1ohxsaojoyhv0xs",450,"34.csv","","null","resources/maskTrios/L4BB.jpg","null","",NA,NA,NA,NA,""
"image-keyboard-response",16,37933,"0.0-3.1-2.1","1ohxsaojoyhv0xs",450,"34.csv","","null","resources/images/coin2.png","null","",NA,NA,NA,NA,""
"image-keyboard-response",17,39389,"0.0-3.2-0.2","1ohxsaojoyhv0xs",450,"34.csv","","1453.5999999642372","resources/trios/L1T1A2.jpg","38","restless",0.3,0.9,0.7,0.449713504454357,"true"
"image-keyboard-response",18,39794,"0.0-3.2-1.2","1ohxsaojoyhv0xs",450,"34.csv","","null","resources/maskTrios/BT1B.jpg","null","",NA,NA,NA,NA,""
"image-keyboard-response",19,40999,"0.0-3.2-2.2","1ohxsaojoyhv0xs",450,"34.csv","","null","resources/images/coin2.png","null","",NA,NA,NA,NA,""
"image-keyboard-response",20,42859,"0.0-3.3-0.3","1ohxsaojoyhv0xs",450,"34.csv","","1858.1000000238419","resources/trios/L1T4A2.jpg","37","restless",0.4,0.9,0.8,0.707638011989603,"false"
"image-keyboard-response",21,43267,"0.0-3.3-1.3","1ohxsaojoyhv0xs",450,"34.csv","","null","resources/maskTrios/L1BB.jpg","null","",NA,NA,NA,NA,""
"image-keyboard-response",22,44473,"0.0-3.3-2.3","1ohxsaojoyhv0xs",450,"34.csv","","null","resources/images/fishbone.png","null","",NA,NA,NA,NA,""
"image-keyboard-response",23,46266,"0.0-3.4-0.4","1ohxsaojoyhv0xs",450,"34.csv","","1790.699999988079","resources/trios/L4T1A3.jpg","39","restless",0.4,0.9,0.8,0.132666261552861,"true"
"image-keyboard-response",24,46669,"0.0-3.4-1.4","1ohxsaojoyhv0xs",450,"34.csv","","null","resources/maskTrios/BBA3.jpg","null","",NA,NA,NA,NA,""
"image-keyboard-response",25,47877,"0.0-3.4-2.4","1ohxsaojoyhv0xs",450,"34.csv","","null","resources/images/coin2.png","null","",NA,NA,NA,NA,""
"image-keyboard-response",26,48664,"0.0-3.5-0.5","1ohxsaojoyhv0xs",450,"34.csv","","785.6000000238419","resources/trios/L1T1A2.jpg","38","restless",0.4,0.9,0.7,0.0193448497644013,"true"
"image-keyboard-response",27,49069,"0.0-3.5-1.5","1ohxsaojoyhv0xs",450,"34.csv","","null","resources/maskTrios/BT1B.jpg","null","",NA,NA,NA,NA,""
"image-keyboard-response",28,50276,"0.0-3.5-2.5","1ohxsaojoyhv0xs",450,"34.csv","","null","resources/images/coin2.png","null","",NA,NA,NA,NA,""
"image-keyboard-response",29,50948,"0.0-3.6-0.6","1ohxsaojoyhv0xs",450,"34.csv","","669.5","resources/trios/L4T1A3.jpg","37","restless",0.4,0.9,0.7,0.621639998059604,"false"
"image-keyboard-response",30,51354,"0.0-3.6-1.6","1ohxsaojoyhv0xs",450,"34.csv","","null","resources/maskTrios/L4BB.jpg","null","",NA,NA,NA,NA,""
"image-keyboard-response",31,52561,"0.0-3.6-2.6","1ohxsaojoyhv0xs",450,"34.csv","","null","resources/images/fishbone.png","null","",NA,NA,NA,NA,""
"image-keyboard-response",32,54301,"0.0-3.7-0.7","1ohxsaojoyhv0xs",450,"34.csv","","1737.5","resources/trios/L1T4A3.jpg","39","restless",0.4,0.9,0.7,0.266086324410899,"true"
"image-keyboard-response",33,54708,"0.0-3.7-1.7","1ohxsaojoyhv0xs",450,"34.csv","","null","resources/maskTrios/BBA3.jpg","null","",NA,NA,NA,NA,""
"image-keyboard-response",34,55910,"0.0-3.7-2.7","1ohxsaojoyhv0xs",450,"34.csv","","null","resources/images/coin2.png","null","",NA,NA,NA,NA,""
"image-keyboard-response",35,56376,"0.0-3.8-0.8","1ohxsaojoyhv0xs",450,"34.csv","","463.5999999642372","resources/trios/L1T4A3.jpg","37","restless",0.4,0.9,0.7,0.19796495405497,"true"
"image-keyboard-response",36,56780,"0.0-3.8-1.8","1ohxsaojoyhv0xs",450,"34.csv","","null","resources/maskTrios/L1BB.jpg","null","",NA,NA,NA,NA,""
"image-keyboard-response",37,57987,"0.0-3.8-2.8","1ohxsaojoyhv0xs",450,"34.csv","","null","resources/images/coin2.png","null","",NA,NA,NA,NA,""
"image-keyboard-response",38,58667,"0.0-3.9-0.9","1ohxsaojoyhv0xs",450,"34.csv","","677.9000000357628","resources/trios/L1T1A3.jpg","38","restless",0.4,0.9,0.7,0.581897258347142,"true"
"image-keyboard-response",39,59070,"0.0-3.9-1.9","1ohxsaojoyhv0xs",450,"34.csv","","null","resources/maskTrios/BT1B.jpg","null","",NA,NA,NA,NA,""
"image-keyboard-response",40,60274,"0.0-3.9-2.9","1ohxsaojoyhv0xs",450,"34.csv","","null","resources/images/coin2.png","null","",NA,NA,NA,NA,""
"image-keyboard-response",41,61398,"0.0-3.10-0.10","1ohxsaojoyhv0xs",450,"34.csv","","1122.1000000238419","resources/trios/L1T4A2.jpg","37","restless",0.4,0.9,0.7,0.353863587209099,"true"
"image-keyboard-response",42,61807,"0.0-3.10-1.10","1ohxsaojoyhv0xs",450,"34.csv","","null","resources/maskTrios/L1BB.jpg","null","",NA,NA,NA,NA,""
"image-keyboard-response",43,63014,"0.0-3.10-2.10","1ohxsaojoyhv0xs",450,"34.csv","","null","resources/images/coin2.png","null","",NA,NA,NA,NA,""
"image-keyboard-response",44,63479,"0.0-3.11-0.11","1ohxsaojoyhv0xs",450,"34.csv","","463.5","resources/trios/L4T1A2.jpg","39","restless",0.4,0.9,0.7,0.816483074158709,"false"
"image-keyboard-response",45,63882,"0.0-3.11-1.11","1ohxsaojoyhv0xs",450,"34.csv","","null","resources/maskTrios/BBA2.jpg","null","",NA,NA,NA,NA,""
"image-keyboard-response",46,65089,"0.0-3.11-2.11","1ohxsaojoyhv0xs",450,"34.csv","","null","resources/images/fishbone.png","null","",NA,NA,NA,NA,""
"image-keyboard-response",47,65567,"0.0-3.12-0.12","1ohxsaojoyhv0xs",450,"34.csv","","475.80000001192093","resources/trios/L4T1A3.jpg","39","restless",0.5,0.9,0.7,0.69787761359179,"true"
"image-keyboard-response",48,65974,"0.0-3.12-1.12","1ohxsaojoyhv0xs",450,"34.csv","","null","resources/maskTrios/BBA3.jpg","null","",NA,NA,NA,NA,""
"image-keyboard-response",49,67181,"0.0-3.12-2.12","1ohxsaojoyhv0xs",450,"34.csv","","null","resources/images/coin2.png","null","",NA,NA,NA,NA,""
"image-keyboard-response",50,67683,"0.0-3.13-0.13","1ohxsaojoyhv0xs",450,"34.csv","","499.0999999642372","resources/trios/L4T4A3.jpg","38","restless",0.6,0.9,0.7,0.942988975219663,"false"
"image-keyboard-response",51,68089,"0.0-3.13-1.13","1ohxsaojoyhv0xs",450,"34.csv","","null","resources/maskTrios/BT4B.jpg","null","",NA,NA,NA,NA,""
"image-keyboard-response",52,69293,"0.0-3.13-2.13","1ohxsaojoyhv0xs",450,"34.csv","","null","resources/images/fishbone.png","null","",NA,NA,NA,NA,""
"image-keyboard-response",53,69529,"0.0-3.14-0.14","1ohxsaojoyhv0xs",450,"34.csv","","233.39999997615814","resources/trios/L4T4A3.jpg","37","restless",0.6,0.9,0.8,0.446953902452741,"true"
"image-keyboard-response",54,69936,"0.0-3.14-1.14","1ohxsaojoyhv0xs",450,"34.csv","","null","resources/maskTrios/L4BB.jpg","null","",NA,NA,NA,NA,""
"image-keyboard-response",55,71138,"0.0-3.14-2.14","1ohxsaojoyhv0xs",450,"34.csv","","null","resources/images/coin2.png","null","",NA,NA,NA,NA,""
"image-keyboard-response",56,71542,"0.0-3.15-0.15","1ohxsaojoyhv0xs",450,"34.csv","","401.10000002384186","resources/trios/L4T1A2.jpg","37","restless",0.7,0.9,0.8,0.00237459059187217,"true"
"image-keyboard-response",57,71948,"0.0-3.15-1.15","1ohxsaojoyhv0xs",450,"34.csv","","null","resources/maskTrios/L4BB.jpg","null","",NA,NA,NA,NA,""
"image-keyboard-response",58,73156,"0.0-3.15-2.15","1ohxsaojoyhv0xs",450,"34.csv","","null","resources/images/coin2.png","null","",NA,NA,NA,NA,""
"image-keyboard-response",59,73436,"0.0-3.16-0.16","1ohxsaojoyhv0xs",450,"34.csv","","278.80000001192093","resources/trios/L1T4A2.jpg","38","restless",0.7,0.9,0.8,0.909961803363897,"false"
"image-keyboard-response",60,73841,"0.0-3.16-1.16","1ohxsaojoyhv0xs",450,"34.csv","","null","resources/maskTrios/BT4B.jpg","null","",NA,NA,NA,NA,""
"image-keyboard-response",61,75044,"0.0-3.16-2.16","1ohxsaojoyhv0xs",450,"34.csv","","null","resources/images/fishbone.png","null","",NA,NA,NA,NA,""
"image-keyboard-response",62,75509,"0.0-3.17-0.17","1ohxsaojoyhv0xs",450,"34.csv","","463.30000001192093","resources/trios/L4T4A3.jpg","39","restless",0.7,0.8,0.8,0.107062870499502,"true"
"image-keyboard-response",63,75915,"0.0-3.17-1.17","1ohxsaojoyhv0xs",450,"34.csv","","null","resources/maskTrios/BBA3.jpg","null","",NA,NA,NA,NA,""
"image-keyboard-response",64,77123,"0.0-3.17-2.17","1ohxsaojoyhv0xs",450,"34.csv","","null","resources/images/coin2.png","null","",NA,NA,NA,NA,""
"image-keyboard-response",65,77383,"0.0-3.18-0.18","1ohxsaojoyhv0xs",450,"34.csv","","258.39999997615814","resources/trios/L1T4A2.jpg","38","restless",0.7,0.7,0.8,0.709406085128688,"false"
"image-keyboard-response",66,77788,"0.0-3.18-1.18","1ohxsaojoyhv0xs",450,"34.csv","","null","resources/maskTrios/BT4B.jpg","null","",NA,NA,NA,NA,""
"image-keyboard-response",67,78995,"0.0-3.18-2.18","1ohxsaojoyhv0xs",450,"34.csv","","null","resources/images/fishbone.png","null","",NA,NA,NA,NA,""
"image-keyboard-response",68,79342,"0.0-3.19-0.19","1ohxsaojoyhv0xs",450,"34.csv","","345.2000000476837","resources/trios/L4T1A3.jpg","38","restless",0.7,0.7,0.8,0.64693294326928,"true"
"image-keyboard-response",69,79750,"0.0-3.19-1.19","1ohxsaojoyhv0xs",450,"34.csv","","null","resources/maskTrios/BT1B.jpg","null","",NA,NA,NA,NA,""
"image-keyboard-response",70,80953,"0.0-3.19-2.19","1ohxsaojoyhv0xs",450,"34.csv","","null","resources/images/coin2.png","null","",NA,NA,NA,NA,""
"image-keyboard-response",71,81255,"0.0-3.20-0.20","1ohxsaojoyhv0xs",450,"34.csv","","299.80000001192093","resources/trios/L1T4A3.jpg","37","restless",0.7,0.7,0.8,0.894841257670576,"false"
"image-keyboard-response",72,81660,"0.0-3.20-1.20","1ohxsaojoyhv0xs",450,"34.csv","","null","resources/maskTrios/L1BB.jpg","null","",NA,NA,NA,NA,""
"image-keyboard-response",73,82867,"0.0-3.20-2.20","1ohxsaojoyhv0xs",450,"34.csv","","null","resources/images/fishbone.png","null","",NA,NA,NA,NA,""
"image-keyboard-response",74,83133,"0.0-3.21-0.21","1ohxsaojoyhv0xs",450,"34.csv","","264.69999998807907","resources/trios/L4T1A3.jpg","39","restless",0.7,0.7,0.8,0.851955280777037,"false"
"image-keyboard-response",75,83540,"0.0-3.21-1.21","1ohxsaojoyhv0xs",450,"34.csv","","null","resources/maskTrios/BBA3.jpg","null","",NA,NA,NA,NA,""
"image-keyboard-response",76,84747,"0.0-3.21-2.21","1ohxsaojoyhv0xs",450,"34.csv","","null","resources/images/fishbone.png","null","",NA,NA,NA,NA,""
"image-keyboard-response",77,85022,"0.0-3.22-0.22","1ohxsaojoyhv0xs",450,"34.csv","","273","resources/trios/L1T1A3.jpg","38","restless",0.6,0.7,0.8,0.545499453624408,"true"
"image-keyboard-response",78,85428,"0.0-3.22-1.22","1ohxsaojoyhv0xs",450,"34.csv","","null","resources/maskTrios/BT1B.jpg","null","",NA,NA,NA,NA,""
"image-keyboard-response",79,86635,"0.0-3.22-2.22","1ohxsaojoyhv0xs",450,"34.csv","","null","resources/images/coin2.png","null","",NA,NA,NA,NA,""
"image-keyboard-response",80,86924,"0.0-3.23-0.23","1ohxsaojoyhv0xs",450,"34.csv","","287.10000002384186","resources/trios/L4T4A2.jpg","37","restless",0.6,0.7,0.8,0.327100931095967,"true"
"image-keyboard-response",81,87328,"0.0-3.23-1.23","1ohxsaojoyhv0xs",450,"34.csv","","null","resources/maskTrios/L4BB.jpg","null","",NA,NA,NA,NA,""
"image-keyboard-response",82,88535,"0.0-3.23-2.23","1ohxsaojoyhv0xs",450,"34.csv","","null","resources/images/coin2.png","null","",NA,NA,NA,NA,""
"image-keyboard-response",83,88816,"0.0-3.24-0.24","1ohxsaojoyhv0xs",450,"34.csv","","279.39999997615814","resources/trios/L1T1A3.jpg","39","restless",0.6,0.7,0.8,0.162507191768041,"true"
"image-keyboard-response",84,89224,"0.0-3.24-1.24","1ohxsaojoyhv0xs",450,"34.csv","","null","resources/maskTrios/BBA3.jpg","null","",NA,NA,NA,NA,""
"image-keyboard-response",85,90427,"0.0-3.24-2.24","1ohxsaojoyhv0xs",450,"34.csv","","null","resources/images/coin2.png","null","",NA,NA,NA,NA,""
"image-keyboard-response",86,90813,"0.0-3.25-0.25","1ohxsaojoyhv0xs",450,"34.csv","","384.5","resources/trios/L1T4A3.jpg","38","restless",0.6,0.7,0.8,0.552836254644925,"true"
"image-keyboard-response",87,91220,"0.0-3.25-1.25","1ohxsaojoyhv0xs",450,"34.csv","","null","resources/maskTrios/BT4B.jpg","null","",NA,NA,NA,NA,""
"image-keyboard-response",88,92427,"0.0-3.25-2.25","1ohxsaojoyhv0xs",450,"34.csv","","null","resources/images/coin2.png","null","",NA,NA,NA,NA,""
"image-keyboard-response",89,92668,"0.0-3.26-0.26","1ohxsaojoyhv0xs",450,"34.csv","","239.5","resources/trios/L4T4A2.jpg","37","restless",0.6,0.7,0.8,0.153566837484424,"true"
"image-keyboard-response",90,93075,"0.0-3.26-1.26","1ohxsaojoyhv0xs",450,"34.csv","","null","resources/maskTrios/L4BB.jpg","null","",NA,NA,NA,NA,""
"image-keyboard-response",91,94280,"0.0-3.26-2.26","1ohxsaojoyhv0xs",450,"34.csv","","null","resources/images/coin2.png","null","",NA,NA,NA,NA,""
"image-keyboard-response",92,94588,"0.0-3.27-0.27","1ohxsaojoyhv0xs",450,"34.csv","","306","resources/trios/L4T1A2.jpg","39","restless",0.6,0.7,0.8,0.0730182900165344,"true"
"image-keyboard-response",93,94995,"0.0-3.27-1.27","1ohxsaojoyhv0xs",450,"34.csv","","null","resources/maskTrios/BBA2.jpg","null","",NA,NA,NA,NA,""
"image-keyboard-response",94,96202,"0.0-3.27-2.27","1ohxsaojoyhv0xs",450,"34.csv","","null","resources/images/coin2.png","null","",NA,NA,NA,NA,""
"image-keyboard-response",95,96393,"0.0-3.28-0.28","1ohxsaojoyhv0xs",450,"34.csv","","189.69999998807907","resources/trios/L1T4A3.jpg","38","restless",0.6,0.7,0.8,0.911221501454563,"false"
"image-keyboard-response",96,96801,"0.0-3.28-1.28","1ohxsaojoyhv0xs",450,"34.csv","","null","resources/maskTrios/BT4B.jpg","null","",NA,NA,NA,NA,""
"image-keyboard-response",97,98007,"0.0-3.28-2.28","1ohxsaojoyhv0xs",450,"34.csv","","null","resources/images/fishbone.png","null","",NA,NA,NA,NA,""
"image-keyboard-response",98,98267,"0.0-3.29-0.29","1ohxsaojoyhv0xs",450,"34.csv","","254.80000001192093","resources/trios/L4T4A3.jpg","38","restless",0.6,0.6,0.9,0.268035429185586,"true"
"image-keyboard-response",99,98674,"0.0-3.29-1.29","1ohxsaojoyhv0xs",450,"34.csv","","null","resources/maskTrios/BT4B.jpg","null","",NA,NA,NA,NA,""
"image-keyboard-response",100,99881,"0.0-3.29-2.29","1ohxsaojoyhv0xs",450,"34.csv","","null","resources/images/coin2.png","null","",NA,NA,NA,NA,""
"image-keyboard-response",101,100150,"0.0-3.30-0.30","1ohxsaojoyhv0xs",450,"34.csv","","266.5","resources/trios/L4T4A3.jpg","37","restless",0.6,0.6,0.9,0.0980796582905366,"true"
"image-keyboard-response",102,100556,"0.0-3.30-1.30","1ohxsaojoyhv0xs",450,"34.csv","","null","resources/maskTrios/L4BB.jpg","null","",NA,NA,NA,NA,""
"image-keyboard-response",103,101759,"0.0-3.30-2.30","1ohxsaojoyhv0xs",450,"34.csv","","null","resources/images/coin2.png","null","",NA,NA,NA,NA,""
"image-keyboard-response",104,102330,"0.0-3.31-0.31","1ohxsaojoyhv0xs",450,"34.csv","","568.9000000357628","resources/trios/L1T1A3.jpg","38","restless",0.6,0.6,0.9,0.0919499825607824,"true"
"image-keyboard-response",105,102737,"0.0-3.31-1.31","1ohxsaojoyhv0xs",450,"34.csv","","null","resources/maskTrios/BT1B.jpg","null","",NA,NA,NA,NA,""
"image-keyboard-response",106,103941,"0.0-3.31-2.31","1ohxsaojoyhv0xs",450,"34.csv","","null","resources/images/coin2.png","null","",NA,NA,NA,NA,""
"image-keyboard-response",107,104388,"0.0-3.32-0.32","1ohxsaojoyhv0xs",450,"34.csv","","445.69999998807907","resources/trios/L4T1A2.jpg","39","restless",0.6,0.6,0.8,0.348600469992693,"true"
"image-keyboard-response",108,104792,"0.0-3.32-1.32","1ohxsaojoyhv0xs",450,"34.csv","","null","resources/maskTrios/BBA2.jpg","null","",NA,NA,NA,NA,""
"image-keyboard-response",109,105999,"0.0-3.32-2.32","1ohxsaojoyhv0xs",450,"34.csv","","null","resources/images/coin2.png","null","",NA,NA,NA,NA,""
"image-keyboard-response",110,106274,"0.0-3.33-0.33","1ohxsaojoyhv0xs",450,"34.csv","","272.80000001192093","resources/trios/L1T1A3.jpg","37","restless",0.7,0.6,0.8,0.134718923441421,"true"
"image-keyboard-response",111,106682,"0.0-3.33-1.33","1ohxsaojoyhv0xs",450,"34.csv","","null","resources/maskTrios/L1BB.jpg","null","",NA,NA,NA,NA,""
"image-keyboard-response",112,107887,"0.0-3.33-2.33","1ohxsaojoyhv0xs",450,"34.csv","","null","resources/images/coin2.png","null","",NA,NA,NA,NA,""
"image-keyboard-response",113,108224,"0.0-3.34-0.34","1ohxsaojoyhv0xs",450,"34.csv","","335.4000000357628","resources/trios/L1T1A3.jpg","38","restless",0.6,0.6,0.8,0.311097644344498,"true"
"image-keyboard-response",114,108630,"0.0-3.34-1.34","1ohxsaojoyhv0xs",450,"34.csv","","null","resources/maskTrios/BT1B.jpg","null","",NA,NA,NA,NA,""
"image-keyboard-response",115,109835,"0.0-3.34-2.34","1ohxsaojoyhv0xs",450,"34.csv","","null","resources/images/coin2.png","null","",NA,NA,NA,NA,""
"image-keyboard-response",116,110194,"0.0-3.35-0.35","1ohxsaojoyhv0xs",450,"34.csv","","356.19999998807907","resources/trios/L1T1A2.jpg","37","restless",0.6,0.5,0.8,0.184216622526074,"true"
"image-keyboard-response",117,110600,"0.0-3.35-1.35","1ohxsaojoyhv0xs",450,"34.csv","","null","resources/maskTrios/L1BB.jpg","null","",NA,NA,NA,NA,""
"image-keyboard-response",118,111807,"0.0-3.35-2.35","1ohxsaojoyhv0xs",450,"34.csv","","null","resources/images/coin2.png","null","",NA,NA,NA,NA,""
"image-keyboard-response",119,112146,"0.0-3.36-0.36","1ohxsaojoyhv0xs",450,"34.csv","","337","resources/trios/L1T4A3.jpg","39","restless",0.6,0.5,0.8,0.737466754800804,"true"
"image-keyboard-response",120,112550,"0.0-3.36-1.36","1ohxsaojoyhv0xs",450,"34.csv","","null","resources/maskTrios/BBA3.jpg","null","",NA,NA,NA,NA,""
"image-keyboard-response",121,113756,"0.0-3.36-2.36","1ohxsaojoyhv0xs",450,"34.csv","","null","resources/images/coin2.png","null","",NA,NA,NA,NA,""
"image-keyboard-response",122,114041,"0.0-3.37-0.37","1ohxsaojoyhv0xs",450,"34.csv","","282.39999997615814","resources/trios/L1T4A3.jpg","38","restless",0.5,0.5,0.8,0.904829304942406,"false"
"image-keyboard-response",123,114446,"0.0-3.37-1.37","1ohxsaojoyhv0xs",450,"34.csv","","null","resources/maskTrios/BT4B.jpg","null","",NA,NA,NA,NA,""
"image-keyboard-response",124,115652,"0.0-3.37-2.37","1ohxsaojoyhv0xs",450,"34.csv","","null","resources/images/fishbone.png","null","",NA,NA,NA,NA,""
"image-keyboard-response",125,115872,"0.0-3.38-0.38","1ohxsaojoyhv0xs",450,"34.csv","","217.5","resources/trios/L1T1A3.jpg","39","restless",0.5,0.6,0.7,0.889105712745242,"false"
"image-keyboard-response",126,116279,"0.0-3.38-1.38","1ohxsaojoyhv0xs",450,"34.csv","","null","resources/maskTrios/BBA3.jpg","null","",NA,NA,NA,NA,""
"image-keyboard-response",127,117486,"0.0-3.38-2.38","1ohxsaojoyhv0xs",450,"34.csv","","null","resources/images/fishbone.png","null","",NA,NA,NA,NA,""
"image-keyboard-response",128,117786,"0.0-3.39-0.39","1ohxsaojoyhv0xs",450,"34.csv","","298.10000002384186","resources/trios/L1T4A3.jpg","38","restless",0.5,0.6,0.7,0.631000677495407,"false"
"image-keyboard-response",129,118193,"0.0-3.39-1.39","1ohxsaojoyhv0xs",450,"34.csv","","null","resources/maskTrios/BT4B.jpg","null","",NA,NA,NA,NA,""
"image-keyboard-response",130,119399,"0.0-3.39-2.39","1ohxsaojoyhv0xs",450,"34.csv","","null","resources/images/fishbone.png","null","",NA,NA,NA,NA,""
"image-keyboard-response",131,119649,"0.0-3.40-0.40","1ohxsaojoyhv0xs",450,"34.csv","","247.69999998807907","resources/trios/L4T4A3.jpg","37","restless",0.5,0.6,0.7,0.468348427359381,"true"
"image-keyboard-response",132,120053,"0.0-3.40-1.40","1ohxsaojoyhv0xs",450,"34.csv","","null","resources/maskTrios/L4BB.jpg","null","",NA,NA,NA,NA,""
"image-keyboard-response",133,121258,"0.0-3.40-2.40","1ohxsaojoyhv0xs",450,"34.csv","","null","resources/images/coin2.png","null","",NA,NA,NA,NA,""
"image-keyboard-response",134,121832,"0.0-3.41-0.41","1ohxsaojoyhv0xs",450,"34.csv","","572.1999999880791","resources/trios/L4T4A3.jpg","38","restless",0.5,0.6,0.7,0.336432303834894,"true"
"image-keyboard-response",135,122240,"0.0-3.41-1.41","1ohxsaojoyhv0xs",450,"34.csv","","null","resources/maskTrios/BT4B.jpg","null","",NA,NA,NA,NA,""
"image-keyboard-response",136,123446,"0.0-3.41-2.41","1ohxsaojoyhv0xs",450,"34.csv","","null","resources/images/coin2.png","null","",NA,NA,NA,NA,""
"image-keyboard-response",137,123744,"0.0-3.42-0.42","1ohxsaojoyhv0xs",450,"34.csv","","295.2999999523163","resources/trios/L4T1A2.jpg","39","restless",0.5,0.6,0.8,0.824606235217582,"false"
"image-keyboard-response",138,124146,"0.0-3.42-1.42","1ohxsaojoyhv0xs",450,"34.csv","","null","resources/maskTrios/BBA2.jpg","null","",NA,NA,NA,NA,""
"image-keyboard-response",139,125352,"0.0-3.42-2.42","1ohxsaojoyhv0xs",450,"34.csv","","null","resources/images/fishbone.png","null","",NA,NA,NA,NA,""
"image-keyboard-response",140,125595,"0.0-3.43-0.43","1ohxsaojoyhv0xs",450,"34.csv","","240.29999995231628","resources/trios/L1T4A3.jpg","37","restless",0.5,0.6,0.8,0.0791717572634101,"true"
"image-keyboard-response",141,126002,"0.0-3.43-1.43","1ohxsaojoyhv0xs",450,"34.csv","","null","resources/maskTrios/L1BB.jpg","null","",NA,NA,NA,NA,""
"image-keyboard-response",142,127206,"0.0-3.43-2.43","1ohxsaojoyhv0xs",450,"34.csv","","null","resources/images/coin2.png","null","",NA,NA,NA,NA,""
"image-keyboard-response",143,127499,"0.0-3.44-0.44","1ohxsaojoyhv0xs",450,"34.csv","","290.69999998807907","resources/trios/L1T4A3.jpg","38","restless",0.5,0.6,0.8,0.320977363275856,"true"
"image-keyboard-response",144,127906,"0.0-3.44-1.44","1ohxsaojoyhv0xs",450,"34.csv","","null","resources/maskTrios/BT4B.jpg","null","",NA,NA,NA,NA,""
"image-keyboard-response",145,129113,"0.0-3.44-2.44","1ohxsaojoyhv0xs",450,"34.csv","","null","resources/images/coin2.png","null","",NA,NA,NA,NA,""
"image-keyboard-response",146,129452,"0.0-3.45-0.45","1ohxsaojoyhv0xs",450,"34.csv","","337.10000002384186","resources/trios/L4T4A2.jpg","37","restless",0.5,0.6,0.8,0.401500894227777,"true"
"image-keyboard-response",147,129858,"0.0-3.45-1.45","1ohxsaojoyhv0xs",450,"34.csv","","null","resources/maskTrios/L4BB.jpg","null","",NA,NA,NA,NA,""
"image-keyboard-response",148,131065,"0.0-3.45-2.45","1ohxsaojoyhv0xs",450,"34.csv","","null","resources/images/coin2.png","null","",NA,NA,NA,NA,""
"image-keyboard-response",149,131354,"0.0-3.46-0.46","1ohxsaojoyhv0xs",450,"34.csv","","287.5","resources/trios/L4T4A2.jpg","39","restless",0.5,0.6,0.7,0.551335615990512,"true"
"image-keyboard-response",150,131758,"0.0-3.46-1.46","1ohxsaojoyhv0xs",450,"34.csv","","null","resources/maskTrios/BBA2.jpg","null","",NA,NA,NA,NA,""
"image-keyboard-response",151,132965,"0.0-3.46-2.46","1ohxsaojoyhv0xs",450,"34.csv","","null","resources/images/coin2.png","null","",NA,NA,NA,NA,""
"image-keyboard-response",152,133204,"0.0-3.47-0.47","1ohxsaojoyhv0xs",450,"34.csv","","236.80000001192093","resources/trios/L1T1A2.jpg","37","restless",0.5,0.7,0.7,0.233071182184021,"true"
"image-keyboard-response",153,133607,"0.0-3.47-1.47","1ohxsaojoyhv0xs",450,"34.csv","","null","resources/maskTrios/L1BB.jpg","null","",NA,NA,NA,NA,""
"image-keyboard-response",154,134814,"0.0-3.47-2.47","1ohxsaojoyhv0xs",450,"34.csv","","null","resources/images/coin2.png","null","",NA,NA,NA,NA,""
"image-keyboard-response",155,135052,"0.0-3.48-0.48","1ohxsaojoyhv0xs",450,"34.csv","","235.19999998807907","resources/trios/L4T1A3.jpg","38","restless",0.5,0.7,0.8,0.848225019945178,"false"
"image-keyboard-response",156,135457,"0.0-3.48-1.48","1ohxsaojoyhv0xs",450,"34.csv","","null","resources/maskTrios/BT1B.jpg","null","",NA,NA,NA,NA,""
"image-keyboard-response",157,136661,"0.0-3.48-2.48","1ohxsaojoyhv0xs",450,"34.csv","","null","resources/images/fishbone.png","null","",NA,NA,NA,NA,""
"image-keyboard-response",158,136930,"0.0-3.49-0.49","1ohxsaojoyhv0xs",450,"34.csv","","267.4000000357628","resources/trios/L1T1A3.jpg","39","restless",0.4,0.6,0.8,0.924373320666726,"false"
"image-keyboard-response",159,137334,"0.0-3.49-1.49","1ohxsaojoyhv0xs",450,"34.csv","","null","resources/maskTrios/BBA3.jpg","null","",NA,NA,NA,NA,""
"image-keyboard-response",160,138538,"0.0-3.49-2.49","1ohxsaojoyhv0xs",450,"34.csv","","null","resources/images/fishbone.png","null","",NA,NA,NA,NA,""
"image-keyboard-response",161,138835,"0.0-3.50-0.50","1ohxsaojoyhv0xs",450,"34.csv","","295.19999998807907","resources/trios/L4T4A3.jpg","37","restless",0.4,0.6,0.8,0.8643449129807,"false"
"image-keyboard-response",162,139242,"0.0-3.50-1.50","1ohxsaojoyhv0xs",450,"34.csv","","null","resources/maskTrios/L4BB.jpg","null","",NA,NA,NA,NA,""
"image-keyboard-response",163,140448,"0.0-3.50-2.50","1ohxsaojoyhv0xs",450,"34.csv","","null","resources/images/fishbone.png","null","",NA,NA,NA,NA,""
"image-keyboard-response",164,140708,"0.0-3.51-0.51","1ohxsaojoyhv0xs",450,"34.csv","","257.30000001192093","resources/trios/L1T4A3.jpg","39","restless",0.4,0.6,0.8,0.24003981837952,"true"
"image-keyboard-response",165,141115,"0.0-3.51-1.51","1ohxsaojoyhv0xs",450,"34.csv","","null","resources/maskTrios/BBA3.jpg","null","",NA,NA,NA,NA,""
"image-keyboard-response",166,142321,"0.0-3.51-2.51","1ohxsaojoyhv0xs",450,"34.csv","","null","resources/images/coin2.png","null","",NA,NA,NA,NA,""
"image-keyboard-response",167,142861,"0.0-3.52-0.52","1ohxsaojoyhv0xs",450,"34.csv","","538.1000000238419","resources/trios/L4T1A3.jpg","38","restless",0.4,0.6,0.8,0.17723930673743,"true"
"image-keyboard-response",168,143267,"0.0-3.52-1.52","1ohxsaojoyhv0xs",450,"34.csv","","null","resources/maskTrios/BT1B.jpg","null","",NA,NA,NA,NA,""
"image-keyboard-response",169,144472,"0.0-3.52-2.52","1ohxsaojoyhv0xs",450,"34.csv","","null","resources/images/coin2.png","null","",NA,NA,NA,NA,""
"image-keyboard-response",170,144775,"0.0-3.53-0.53","1ohxsaojoyhv0xs",450,"34.csv","","300.39999997615814","resources/trios/L4T4A2.jpg","39","restless",0.4,0.6,0.8,0.511771325181067,"true"
"image-keyboard-response",171,145182,"0.0-3.53-1.53","1ohxsaojoyhv0xs",450,"34.csv","","null","resources/maskTrios/BBA2.jpg","null","",NA,NA,NA,NA,""
"image-keyboard-response",172,146385,"0.0-3.53-2.53","1ohxsaojoyhv0xs",450,"34.csv","","null","resources/images/coin2.png","null","",NA,NA,NA,NA,""
"image-keyboard-response",173,146636,"0.0-3.54-0.54","1ohxsaojoyhv0xs",450,"34.csv","","248.5","resources/trios/L4T1A3.jpg","37","restless",0.4,0.6,0.8,0.0794598205602153,"true"
"image-keyboard-response",174,147043,"0.0-3.54-1.54","1ohxsaojoyhv0xs",450,"34.csv","","null","resources/maskTrios/L4BB.jpg","null","",NA,NA,NA,NA,""
"image-keyboard-response",175,148251,"0.0-3.54-2.54","1ohxsaojoyhv0xs",450,"34.csv","","null","resources/images/coin2.png","null","",NA,NA,NA,NA,""
"image-keyboard-response",176,148696,"0.0-3.55-0.55","1ohxsaojoyhv0xs",450,"34.csv","","443","resources/trios/L1T1A2.jpg","38","restless",0.4,0.6,0.8,0.527010309185427,"true"
"image-keyboard-response",177,149103,"0.0-3.55-1.55","1ohxsaojoyhv0xs",450,"34.csv","","null","resources/maskTrios/BT1B.jpg","null","",NA,NA,NA,NA,""
"image-keyboard-response",178,150306,"0.0-3.55-2.55","1ohxsaojoyhv0xs",450,"34.csv","","null","resources/images/coin2.png","null","",NA,NA,NA,NA,""
"image-keyboard-response",179,150668,"0.0-3.56-0.56","1ohxsaojoyhv0xs",450,"34.csv","","360.0999999642372","resources/trios/L1T1A2.jpg","39","restless",0.4,0.6,0.8,0.402861540934706,"true"
"image-keyboard-response",180,151071,"0.0-3.56-1.56","1ohxsaojoyhv0xs",450,"34.csv","","null","resources/maskTrios/BBA2.jpg","null","",NA,NA,NA,NA,""
"image-keyboard-response",181,152278,"0.0-3.56-2.56","1ohxsaojoyhv0xs",450,"34.csv","","null","resources/images/coin2.png","null","",NA,NA,NA,NA,""
"image-keyboard-response",182,152623,"0.0-3.57-0.57","1ohxsaojoyhv0xs",450,"34.csv","","342.39999997615814","resources/trios/L1T1A3.jpg","37","restless",0.4,0.7,0.8,0.246292593106077,"true"
"image-keyboard-response",183,153030,"0.0-3.57-1.57","1ohxsaojoyhv0xs",450,"34.csv","","null","resources/maskTrios/L1BB.jpg","null","",NA,NA,NA,NA,""
"image-keyboard-response",184,154237,"0.0-3.57-2.57","1ohxsaojoyhv0xs",450,"34.csv","","null","resources/images/coin2.png","null","",NA,NA,NA,NA,""
"image-keyboard-response",185,154530,"0.0-3.58-0.58","1ohxsaojoyhv0xs",450,"34.csv","","289.2999999523163","resources/trios/L4T1A3.jpg","38","restless",0.4,0.7,0.8,0.802348035810587,"false"
"image-keyboard-response",186,154937,"0.0-3.58-1.58","1ohxsaojoyhv0xs",450,"34.csv","","null","resources/maskTrios/BT1B.jpg","null","",NA,NA,NA,NA,""
"image-keyboard-response",187,156144,"0.0-3.58-2.58","1ohxsaojoyhv0xs",450,"34.csv","","null","resources/images/fishbone.png","null","",NA,NA,NA,NA,""
"image-keyboard-response",188,156556,"0.0-3.59-0.59","1ohxsaojoyhv0xs",450,"34.csv","","410.39999997615814","resources/trios/L1T4A2.jpg","39","restless",0.4,0.7,0.8,0.952109468232313,"false"
"image-keyboard-response",189,156964,"0.0-3.59-1.59","1ohxsaojoyhv0xs",450,"34.csv","","null","resources/maskTrios/BBA2.jpg","null","",NA,NA,NA,NA,""
"image-keyboard-response",190,158171,"0.0-3.59-2.59","1ohxsaojoyhv0xs",450,"34.csv","","null","resources/images/fishbone.png","null","",NA,NA,NA,NA,""
"image-keyboard-response",191,158473,"0.0-3.60-0.60","1ohxsaojoyhv0xs",450,"34.csv","","299.7999999523163","resources/trios/L4T4A2.jpg","37","restless",0.4,0.6,0.8,0.344939474407785,"true"
"image-keyboard-response",192,158878,"0.0-3.60-1.60","1ohxsaojoyhv0xs",450,"34.csv","","null","resources/maskTrios/L4BB.jpg","null","",NA,NA,NA,NA,""
"image-keyboard-response",193,160084,"0.0-3.60-2.60","1ohxsaojoyhv0xs",450,"34.csv","","null","resources/images/coin2.png","null","",NA,NA,NA,NA,""
"image-keyboard-response",194,160397,"0.0-3.61-0.61","1ohxsaojoyhv0xs",450,"34.csv","","310.30000001192093","resources/trios/L4T4A3.jpg","38","restless",0.4,0.5,0.8,0.55996075616888,"false"
"image-keyboard-response",195,160804,"0.0-3.61-1.61","1ohxsaojoyhv0xs",450,"34.csv","","null","resources/maskTrios/BT4B.jpg","null","",NA,NA,NA,NA,""
"image-keyboard-response",196,162011,"0.0-3.61-2.61","1ohxsaojoyhv0xs",450,"34.csv","","null","resources/images/fishbone.png","null","",NA,NA,NA,NA,""
"image-keyboard-response",197,162130,"0.0-3.62-0.62","1ohxsaojoyhv0xs",450,"34.csv","","117.30000001192093","resources/trios/L4T4A3.jpg","39","restless",0.4,0.5,0.9,0.812087392777853,"true"
"image-keyboard-response",198,162535,"0.0-3.62-1.62","1ohxsaojoyhv0xs",450,"34.csv","","null","resources/maskTrios/BBA3.jpg","null","",NA,NA,NA,NA,""
"image-keyboard-response",199,163742,"0.0-3.62-2.62","1ohxsaojoyhv0xs",450,"34.csv","","null","resources/images/coin2.png","null","",NA,NA,NA,NA,""
"image-keyboard-response",200,164069,"0.0-3.63-0.63","1ohxsaojoyhv0xs",450,"34.csv","","324.89999997615814","resources/trios/L4T1A3.jpg","37","restless",0.4,0.5,0.9,0.193882248149341,"true"
"image-keyboard-response",201,164475,"0.0-3.63-1.63","1ohxsaojoyhv0xs",450,"34.csv","","null","resources/maskTrios/L4BB.jpg","null","",NA,NA,NA,NA,""
"image-keyboard-response",202,165682,"0.0-3.63-2.63","1ohxsaojoyhv0xs",450,"34.csv","","null","resources/images/coin2.png","null","",NA,NA,NA,NA,""
"image-keyboard-response",203,166143,"0.0-3.64-0.64","1ohxsaojoyhv0xs",450,"34.csv","","458.89999997615814","resources/trios/L4T1A2.jpg","38","restless",0.4,0.5,0.9,0.0723899433212223,"true"
"image-keyboard-response",204,166550,"0.0-3.64-1.64","1ohxsaojoyhv0xs",450,"34.csv","","null","resources/maskTrios/BT1B.jpg","null","",NA,NA,NA,NA,""
"image-keyboard-response",205,167756,"0.0-3.64-2.64","1ohxsaojoyhv0xs",450,"34.csv","","null","resources/images/coin2.png","null","",NA,NA,NA,NA,""
"image-keyboard-response",206,168041,"0.0-3.65-0.65","1ohxsaojoyhv0xs",450,"34.csv","","282.4000000357628","resources/trios/L1T1A2.jpg","39","restless",0.4,0.4,0.9,0.812350832573902,"true"
"image-keyboard-response",207,168444,"0.0-3.65-1.65","1ohxsaojoyhv0xs",450,"34.csv","","null","resources/maskTrios/BBA2.jpg","null","",NA,NA,NA,NA,""
"image-keyboard-response",208,169651,"0.0-3.65-2.65","1ohxsaojoyhv0xs",450,"34.csv","","null","resources/images/coin2.png","null","",NA,NA,NA,NA,""
"image-keyboard-response",209,169960,"0.0-3.66-0.66","1ohxsaojoyhv0xs",450,"34.csv","","307.30000001192093","resources/trios/L1T4A3.jpg","37","restless",0.4,0.4,0.9,0.89585389688136,"false"
"image-keyboard-response",210,170364,"0.0-3.66-1.66","1ohxsaojoyhv0xs",450,"34.csv","","null","resources/maskTrios/L1BB.jpg","null","",NA,NA,NA,NA,""
"image-keyboard-response",211,171569,"0.0-3.66-2.66","1ohxsaojoyhv0xs",450,"34.csv","","null","resources/images/fishbone.png","null","",NA,NA,NA,NA,""
"image-keyboard-response",212,171870,"0.0-3.67-0.67","1ohxsaojoyhv0xs",450,"34.csv","","298.39999997615814","resources/trios/L4T4A2.jpg","39","restless",0.4,0.4,0.9,0.829019972330009,"true"
"image-keyboard-response",213,172276,"0.0-3.67-1.67","1ohxsaojoyhv0xs",450,"34.csv","","null","resources/maskTrios/BBA2.jpg","null","",NA,NA,NA,NA,""
"image-keyboard-response",214,173480,"0.0-3.67-2.67","1ohxsaojoyhv0xs",450,"34.csv","","null","resources/images/coin2.png","null","",NA,NA,NA,NA,""
"image-keyboard-response",215,173790,"0.0-3.68-0.68","1ohxsaojoyhv0xs",450,"34.csv","","307.2999999523163","resources/trios/L1T4A2.jpg","38","restless",0.4,0.3,0.9,0.802631763030053,"false"
"image-keyboard-response",216,174196,"0.0-3.68-1.68","1ohxsaojoyhv0xs",450,"34.csv","","null","resources/maskTrios/BT4B.jpg","null","",NA,NA,NA,NA,""
"image-keyboard-response",217,175403,"0.0-3.68-2.68","1ohxsaojoyhv0xs",450,"34.csv","","null","resources/images/fishbone.png","null","",NA,NA,NA,NA,""
"image-keyboard-response",218,175657,"0.0-3.69-0.69","1ohxsaojoyhv0xs",450,"34.csv","","251.5","resources/trios/L4T1A3.jpg","39","restless",0.4,0.3,0.9,0.444989136830553,"true"
"image-keyboard-response",219,176064,"0.0-3.69-1.69","1ohxsaojoyhv0xs",450,"34.csv","","null","resources/maskTrios/BBA3.jpg","null","",NA,NA,NA,NA,""
"image-keyboard-response",220,177267,"0.0-3.69-2.69","1ohxsaojoyhv0xs",450,"34.csv","","null","resources/images/coin2.png","null","",NA,NA,NA,NA,""
"image-keyboard-response",221,177510,"0.0-3.70-0.70","1ohxsaojoyhv0xs",450,"34.csv","","241.19999998807907","resources/trios/L1T4A2.jpg","37","restless",0.4,0.3,0.9,0.488827720358892,"false"
"image-keyboard-response",222,177917,"0.0-3.70-1.70","1ohxsaojoyhv0xs",450,"34.csv","","null","resources/maskTrios/L1BB.jpg","null","",NA,NA,NA,NA,""
"image-keyboard-response",223,179124,"0.0-3.70-2.70","1ohxsaojoyhv0xs",450,"34.csv","","null","resources/images/fishbone.png","null","",NA,NA,NA,NA,""
"image-keyboard-response",224,179424,"0.0-3.71-0.71","1ohxsaojoyhv0xs",450,"34.csv","","297.69999998807907","resources/trios/L1T4A2.jpg","38","restless",0.4,0.3,0.9,0.190524863196104,"true"
"image-keyboard-response",225,179827,"0.0-3.71-1.71","1ohxsaojoyhv0xs",450,"34.csv","","null","resources/maskTrios/BT4B.jpg","null","",NA,NA,NA,NA,""
"image-keyboard-response",226,181032,"0.0-3.71-2.71","1ohxsaojoyhv0xs",450,"34.csv","","null","resources/images/coin2.png","null","",NA,NA,NA,NA,""
"image-keyboard-response",227,181357,"0.0-3.72-0.72","1ohxsaojoyhv0xs",450,"34.csv","","322.39999997615814","resources/trios/L4T4A3.jpg","37","restless",0.4,0.3,0.9,0.266134965991952,"true"
"image-keyboard-response",228,181763,"0.0-3.72-1.72","1ohxsaojoyhv0xs",450,"34.csv","","null","resources/maskTrios/L4BB.jpg","null","",NA,NA,NA,NA,""
"image-keyboard-response",229,182969,"0.0-3.72-2.72","1ohxsaojoyhv0xs",450,"34.csv","","null","resources/images/coin2.png","null","",NA,NA,NA,NA,""
"image-keyboard-response",230,183320,"0.0-3.73-0.73","1ohxsaojoyhv0xs",450,"34.csv","","348.30000001192093","resources/trios/L4T1A3.jpg","39","restless",0.4,0.3,0.9,0.0837341073447773,"true"
"image-keyboard-response",231,183723,"0.0-3.73-1.73","1ohxsaojoyhv0xs",450,"34.csv","","null","resources/maskTrios/BBA3.jpg","null","",NA,NA,NA,NA,""
"image-keyboard-response",232,184928,"0.0-3.73-2.73","1ohxsaojoyhv0xs",450,"34.csv","","null","resources/images/coin2.png","null","",NA,NA,NA,NA,""
"image-keyboard-response",233,185212,"0.0-3.74-0.74","1ohxsaojoyhv0xs",450,"34.csv","","281.0999999642372","resources/trios/L4T4A2.jpg","38","restless",0.5,0.3,0.9,0.478504866523888,"false"
"image-keyboard-response",234,185619,"0.0-3.74-1.74","1ohxsaojoyhv0xs",450,"34.csv","","null","resources/maskTrios/BT4B.jpg","null","",NA,NA,NA,NA,""
"image-keyboard-response",235,186823,"0.0-3.74-2.74","1ohxsaojoyhv0xs",450,"34.csv","","null","resources/images/fishbone.png","null","",NA,NA,NA,NA,""
"image-keyboard-response",236,187075,"0.0-3.75-0.75","1ohxsaojoyhv0xs",450,"34.csv","","249.19999998807907","resources/trios/L4T4A2.jpg","39","restless",0.5,0.3,0.9,0.660808735289504,"true"
"image-keyboard-response",237,187480,"0.0-3.75-1.75","1ohxsaojoyhv0xs",450,"34.csv","","null","resources/maskTrios/BBA2.jpg","null","",NA,NA,NA,NA,""
"image-keyboard-response",238,188683,"0.0-3.75-2.75","1ohxsaojoyhv0xs",450,"34.csv","","null","resources/images/coin2.png","null","",NA,NA,NA,NA,""
"image-keyboard-response",239,189002,"0.0-3.76-0.76","1ohxsaojoyhv0xs",450,"34.csv","","316.60000002384186","resources/trios/L1T1A3.jpg","37","restless",0.4,0.3,0.8,0.442537497824744,"false"
"image-keyboard-response",240,189409,"0.0-3.76-1.76","1ohxsaojoyhv0xs",450,"34.csv","","null","resources/maskTrios/L1BB.jpg","null","",NA,NA,NA,NA,""
"image-keyboard-response",241,190616,"0.0-3.76-2.76","1ohxsaojoyhv0xs",450,"34.csv","","null","resources/images/fishbone.png","null","",NA,NA,NA,NA,""
"image-keyboard-response",242,190895,"0.0-3.77-0.77","1ohxsaojoyhv0xs",450,"34.csv","","276.69999998807907","resources/trios/L1T1A3.jpg","38","restless",0.4,0.3,0.8,0.995899652966434,"false"
"image-keyboard-response",243,191303,"0.0-3.77-1.77","1ohxsaojoyhv0xs",450,"34.csv","","null","resources/maskTrios/BT1B.jpg","null","",NA,NA,NA,NA,""
"image-keyboard-response",244,192509,"0.0-3.77-2.77","1ohxsaojoyhv0xs",450,"34.csv","","null","resources/images/fishbone.png","null","",NA,NA,NA,NA,""
"image-keyboard-response",245,192823,"0.0-3.78-0.78","1ohxsaojoyhv0xs",450,"34.csv","","312","resources/trios/L1T4A3.jpg","39","restless",0.4,0.3,0.8,0.871287957724361,"false"
"image-keyboard-response",246,193227,"0.0-3.78-1.78","1ohxsaojoyhv0xs",450,"34.csv","","null","resources/maskTrios/BBA3.jpg","null","",NA,NA,NA,NA,""
"image-keyboard-response",247,194434,"0.0-3.78-2.78","1ohxsaojoyhv0xs",450,"34.csv","","null","resources/images/fishbone.png","null","",NA,NA,NA,NA,""
"image-keyboard-response",248,194460,"0.0-3.79-0.79","1ohxsaojoyhv0xs",450,"34.csv","","24","resources/trios/L4T1A2.jpg","38","restless",0.4,0.3,0.8,0.422747414447324,"false"
"image-keyboard-response",249,194863,"0.0-3.79-1.79","1ohxsaojoyhv0xs",450,"34.csv","","null","resources/maskTrios/BT1B.jpg","null","",NA,NA,NA,NA,""
"image-keyboard-response",250,196068,"0.0-3.79-2.79","1ohxsaojoyhv0xs",450,"34.csv","","null","resources/images/fishbone.png","null","",NA,NA,NA,NA,""
"image-keyboard-response",251,197298,"0.0-3.80-0.80","1ohxsaojoyhv0xs",450,"34.csv","","1228.5","resources/trios/L1T1A3.jpg","37","restless",0.4,0.3,0.8,0.482442420672321,"false"
"image-keyboard-response",252,197703,"0.0-3.80-1.80","1ohxsaojoyhv0xs",450,"34.csv","","null","resources/maskTrios/L1BB.jpg","null","",NA,NA,NA,NA,""
"image-keyboard-response",253,198909,"0.0-3.80-2.80","1ohxsaojoyhv0xs",450,"34.csv","","null","resources/images/fishbone.png","null","",NA,NA,NA,NA,""
"image-keyboard-response",254,199172,"0.0-3.81-0.81","1ohxsaojoyhv0xs",450,"34.csv","","260.19999998807907","resources/trios/L4T1A2.jpg","38","restless",0.4,0.3,0.8,0.458776103692601,"false"
"image-keyboard-response",255,199580,"0.0-3.81-1.81","1ohxsaojoyhv0xs",450,"34.csv","","null","resources/maskTrios/BT1B.jpg","null","",NA,NA,NA,NA,""
"image-keyboard-response",256,200783,"0.0-3.81-2.81","1ohxsaojoyhv0xs",450,"34.csv","","null","resources/images/fishbone.png","null","",NA,NA,NA,NA,""
"image-keyboard-response",257,201030,"0.0-3.82-0.82","1ohxsaojoyhv0xs",450,"34.csv","","244.79999995231628","resources/trios/L4T1A2.jpg","39","restless",0.4,0.3,0.8,0.0857766301047014,"true"
"image-keyboard-response",258,201437,"0.0-3.82-1.82","1ohxsaojoyhv0xs",450,"34.csv","","null","resources/maskTrios/BBA2.jpg","null","",NA,NA,NA,NA,""
"image-keyboard-response",259,202642,"0.0-3.82-2.82","1ohxsaojoyhv0xs",450,"34.csv","","null","resources/images/coin2.png","null","",NA,NA,NA,NA,""
"image-keyboard-response",260,203029,"0.0-3.83-0.83","1ohxsaojoyhv0xs",450,"34.csv","","384.69999998807907","resources/trios/L4T1A2.jpg","39","restless",0.4,0.4,0.8,0.44748574864659,"true"
"image-keyboard-response",261,203437,"0.0-3.83-1.83","1ohxsaojoyhv0xs",450,"34.csv","","null","resources/maskTrios/BBA2.jpg","null","",NA,NA,NA,NA,""
"image-keyboard-response",262,204642,"0.0-3.83-2.83","1ohxsaojoyhv0xs",450,"34.csv","","null","resources/images/coin2.png","null","",NA,NA,NA,NA,""
"image-keyboard-response",263,204896,"0.0-3.84-0.84","1ohxsaojoyhv0xs",450,"34.csv","","251.39999997615814","resources/trios/L1T4A3.jpg","37","restless",0.4,0.4,0.8,0.146712207856972,"true"
"image-keyboard-response",264,205302,"0.0-3.84-1.84","1ohxsaojoyhv0xs",450,"34.csv","","null","resources/maskTrios/L1BB.jpg","null","",NA,NA,NA,NA,""
"image-keyboard-response",265,206509,"0.0-3.84-2.84","1ohxsaojoyhv0xs",450,"34.csv","","null","resources/images/coin2.png","null","",NA,NA,NA,NA,""
"image-keyboard-response",266,206857,"0.0-3.85-0.85","1ohxsaojoyhv0xs",450,"34.csv","","345.89999997615814","resources/trios/L4T1A3.jpg","38","restless",0.4,0.4,0.8,0.67150394087351,"false"
"image-keyboard-response",267,207262,"0.0-3.85-1.85","1ohxsaojoyhv0xs",450,"34.csv","","null","resources/maskTrios/BT1B.jpg","null","",NA,NA,NA,NA,""
"image-keyboard-response",268,208466,"0.0-3.85-2.85","1ohxsaojoyhv0xs",450,"34.csv","","null","resources/images/fishbone.png","null","",NA,NA,NA,NA,""
"image-keyboard-response",269,208712,"0.0-3.86-0.86","1ohxsaojoyhv0xs",450,"34.csv","","244.30000001192093","resources/trios/L1T1A3.jpg","38","restless",0.5,0.4,0.8,0.131569596912338,"true"
"image-keyboard-response",270,209118,"0.0-3.86-1.86","1ohxsaojoyhv0xs",450,"34.csv","","null","resources/maskTrios/BT1B.jpg","null","",NA,NA,NA,NA,""
"image-keyboard-response",271,210322,"0.0-3.86-2.86","1ohxsaojoyhv0xs",450,"34.csv","","null","resources/images/coin2.png","null","",NA,NA,NA,NA,""
"image-keyboard-response",272,210626,"0.0-3.87-0.87","1ohxsaojoyhv0xs",450,"34.csv","","301.80000001192093","resources/trios/L1T1A2.jpg","37","restless",0.5,0.4,0.8,0.385100747609966,"true"
"image-keyboard-response",273,211029,"0.0-3.87-1.87","1ohxsaojoyhv0xs",450,"34.csv","","null","resources/maskTrios/L1BB.jpg","null","",NA,NA,NA,NA,""
"image-keyboard-response",274,212236,"0.0-3.87-2.87","1ohxsaojoyhv0xs",450,"34.csv","","null","resources/images/coin2.png","null","",NA,NA,NA,NA,""
"image-keyboard-response",275,212535,"0.0-3.88-0.88","1ohxsaojoyhv0xs",450,"34.csv","","297.19999998807907","resources/trios/L4T4A3.jpg","39","restless",0.6,0.5,0.8,0.777348545673447,"true"
"image-keyboard-response",276,212942,"0.0-3.88-1.88","1ohxsaojoyhv0xs",450,"34.csv","","null","resources/maskTrios/BBA3.jpg","null","",NA,NA,NA,NA,""
"image-keyboard-response",277,214146,"0.0-3.88-2.88","1ohxsaojoyhv0xs",450,"34.csv","","null","resources/images/coin2.png","null","",NA,NA,NA,NA,""
"image-keyboard-response",278,214399,"0.0-3.89-0.89","1ohxsaojoyhv0xs",450,"34.csv","","251.39999997615814","resources/trios/L4T4A2.jpg","38","restless",0.6,0.5,0.8,0.206829942553261,"true"
"image-keyboard-response",279,214802,"0.0-3.89-1.89","1ohxsaojoyhv0xs",450,"34.csv","","null","resources/maskTrios/BT4B.jpg","null","",NA,NA,NA,NA,""
"image-keyboard-response",280,216005,"0.0-3.89-2.89","1ohxsaojoyhv0xs",450,"34.csv","","null","resources/images/coin2.png","null","",NA,NA,NA,NA,""
"image-keyboard-response",281,216240,"0.0-3.90-0.90","1ohxsaojoyhv0xs",450,"34.csv","","232.5999999642372","resources/trios/L1T1A2.jpg","37","restless",0.6,0.5,0.8,0.217198661560099,"true"
"image-keyboard-response",282,216643,"0.0-3.90-1.90","1ohxsaojoyhv0xs",450,"34.csv","","null","resources/maskTrios/L1BB.jpg","null","",NA,NA,NA,NA,""
"image-keyboard-response",283,217848,"0.0-3.90-2.90","1ohxsaojoyhv0xs",450,"34.csv","","null","resources/images/coin2.png","null","",NA,NA,NA,NA,""
"image-keyboard-response",284,218258,"0.0-3.91-0.91","1ohxsaojoyhv0xs",450,"34.csv","","408","resources/trios/L4T4A3.jpg","39","restless",0.6,0.5,0.8,0.16831702101546,"true"
"image-keyboard-response",285,218662,"0.0-3.91-1.91","1ohxsaojoyhv0xs",450,"34.csv","","null","resources/maskTrios/BBA3.jpg","null","",NA,NA,NA,NA,""
"image-keyboard-response",286,219869,"0.0-3.91-2.91","1ohxsaojoyhv0xs",450,"34.csv","","null","resources/images/coin2.png","null","",NA,NA,NA,NA,""
"image-keyboard-response",287,220166,"0.0-3.92-0.92","1ohxsaojoyhv0xs",450,"34.csv","","294.69999998807907","resources/trios/L4T4A2.jpg","37","restless",0.6,0.5,0.8,0.864483389884333,"false"
"image-keyboard-response",288,220570,"0.0-3.92-1.92","1ohxsaojoyhv0xs",450,"34.csv","","null","resources/maskTrios/L4BB.jpg","null","",NA,NA,NA,NA,""
"image-keyboard-response",289,221777,"0.0-3.92-2.92","1ohxsaojoyhv0xs",450,"34.csv","","null","resources/images/fishbone.png","null","",NA,NA,NA,NA,""
"image-keyboard-response",290,221977,"0.0-3.93-0.93","1ohxsaojoyhv0xs",450,"34.csv","","198.4000000357628","resources/trios/L1T1A3.jpg","38","restless",0.6,0.5,0.8,0.564308051585076,"false"
"image-keyboard-response",291,222382,"0.0-3.93-1.93","1ohxsaojoyhv0xs",450,"34.csv","","null","resources/maskTrios/BT1B.jpg","null","",NA,NA,NA,NA,""
"image-keyboard-response",292,223588,"0.0-3.93-2.93","1ohxsaojoyhv0xs",450,"34.csv","","null","resources/images/fishbone.png","null","",NA,NA,NA,NA,""
"image-keyboard-response",293,223899,"0.0-3.94-0.94","1ohxsaojoyhv0xs",450,"34.csv","","308.5","resources/trios/L1T4A3.jpg","37","restless",0.6,0.5,0.8,0.038270894139627,"true"
"image-keyboard-response",294,224301,"0.0-3.94-1.94","1ohxsaojoyhv0xs",450,"34.csv","","null","resources/maskTrios/L1BB.jpg","null","",NA,NA,NA,NA,""
"image-keyboard-response",295,225508,"0.0-3.94-2.94","1ohxsaojoyhv0xs",450,"34.csv","","null","resources/images/coin2.png","null","",NA,NA,NA,NA,""
"image-keyboard-response",296,225762,"0.0-3.95-0.95","1ohxsaojoyhv0xs",450,"34.csv","","251.19999998807907","resources/trios/L4T4A3.jpg","39","restless",0.6,0.5,0.8,0.1933958228597,"true"
"image-keyboard-response",297,226166,"0.0-3.95-1.95","1ohxsaojoyhv0xs",450,"34.csv","","null","resources/maskTrios/BBA3.jpg","null","",NA,NA,NA,NA,""
"image-keyboard-response",298,227371,"0.0-3.95-2.95","1ohxsaojoyhv0xs",450,"34.csv","","null","resources/images/coin2.png","null","",NA,NA,NA,NA,""
"image-keyboard-response",299,227662,"0.0-3.96-0.96","1ohxsaojoyhv0xs",450,"34.csv","","288.80000001192093","resources/trios/L1T1A2.jpg","38","restless",0.6,0.5,0.8,0.60135945867165,"false"
"image-keyboard-response",300,228070,"0.0-3.96-1.96","1ohxsaojoyhv0xs",450,"34.csv","","null","resources/maskTrios/BT1B.jpg","null","",NA,NA,NA,NA,""
"image-keyboard-response",301,229274,"0.0-3.96-2.96","1ohxsaojoyhv0xs",450,"34.csv","","null","resources/images/fishbone.png","null","",NA,NA,NA,NA,""
"image-keyboard-response",302,229558,"0.0-3.97-0.97","1ohxsaojoyhv0xs",450,"34.csv","","282","resources/trios/L1T1A3.jpg","37","restless",0.6,0.4,0.8,0.642737803346812,"false"
"image-keyboard-response",303,229961,"0.0-3.97-1.97","1ohxsaojoyhv0xs",450,"34.csv","","null","resources/maskTrios/L1BB.jpg","null","",NA,NA,NA,NA,""
"image-keyboard-response",304,231167,"0.0-3.97-2.97","1ohxsaojoyhv0xs",450,"34.csv","","null","resources/images/fishbone.png","null","",NA,NA,NA,NA,""
"image-keyboard-response",305,231234,"0.0-3.98-0.98","1ohxsaojoyhv0xs",450,"34.csv","","64.60000002384186","resources/trios/L4T1A3.jpg","39","restless",0.6,0.4,0.8,0.143610401714019,"true"
"image-keyboard-response",306,231641,"0.0-3.98-1.98","1ohxsaojoyhv0xs",450,"34.csv","","null","resources/maskTrios/BBA3.jpg","null","",NA,NA,NA,NA,""
"image-keyboard-response",307,232848,"0.0-3.98-2.98","1ohxsaojoyhv0xs",450,"34.csv","","null","resources/images/coin2.png","null","",NA,NA,NA,NA,""
"image-keyboard-response",308,233202,"0.0-3.99-0.99","1ohxsaojoyhv0xs",450,"34.csv","","351.80000001192093","resources/trios/L1T1A3.jpg","38","restless",0.5,0.4,0.7,0.35417011377951,"true"
"image-keyboard-response",309,233606,"0.0-3.99-1.99","1ohxsaojoyhv0xs",450,"34.csv","","null","resources/maskTrios/BT1B.jpg","null","",NA,NA,NA,NA,""
"image-keyboard-response",310,234813,"0.0-3.99-2.99","1ohxsaojoyhv0xs",450,"34.csv","","null","resources/images/coin2.png","null","",NA,NA,NA,NA,""
"image-keyboard-response",311,235090,"0.0-3.100-0.100","1ohxsaojoyhv0xs",450,"34.csv","","275.10000002384186","resources/trios/L1T4A3.jpg","37","restless",0.5,0.4,0.7,0.00395873971481886,"true"
"image-keyboard-response",312,235497,"0.0-3.100-1.100","1ohxsaojoyhv0xs",450,"34.csv","","null","resources/maskTrios/L1BB.jpg","null","",NA,NA,NA,NA,""
"image-keyboard-response",313,236701,"0.0-3.100-2.100","1ohxsaojoyhv0xs",450,"34.csv","","null","resources/images/coin2.png","null","",NA,NA,NA,NA,""
"image-keyboard-response",314,237188,"0.0-3.101-0.101","1ohxsaojoyhv0xs",450,"34.csv","","484.69999998807907","resources/trios/L4T1A3.jpg","39","restless",0.5,0.4,0.7,0.580516970310309,"true"
"image-keyboard-response",315,237595,"0.0-3.101-1.101","1ohxsaojoyhv0xs",450,"34.csv","","null","resources/maskTrios/BBA3.jpg","null","",NA,NA,NA,NA,""
"image-keyboard-response",316,238801,"0.0-3.101-2.101","1ohxsaojoyhv0xs",450,"34.csv","","null","resources/images/coin2.png","null","",NA,NA,NA,NA,""
"image-keyboard-response",317,239191,"0.0-3.102-0.102","1ohxsaojoyhv0xs",450,"34.csv","","387.80000001192093","resources/trios/L1T4A2.jpg","38","restless",0.5,0.4,0.7,0.0356932503910796,"true"
"image-keyboard-response",318,239596,"0.0-3.102-1.102","1ohxsaojoyhv0xs",450,"34.csv","","null","resources/maskTrios/BT4B.jpg","null","",NA,NA,NA,NA,""
"image-keyboard-response",319,240801,"0.0-3.102-2.102","1ohxsaojoyhv0xs",450,"34.csv","","null","resources/images/coin2.png","null","",NA,NA,NA,NA,""
"image-keyboard-response",320,241363,"0.0-3.103-0.103","1ohxsaojoyhv0xs",450,"34.csv","","559","resources/trios/L4T1A2.jpg","37","restless",0.5,0.4,0.7,0.77591063519841,"false"
"image-keyboard-response",321,241770,"0.0-3.103-1.103","1ohxsaojoyhv0xs",450,"34.csv","","null","resources/maskTrios/L4BB.jpg","null","",NA,NA,NA,NA,""
"image-keyboard-response",322,242973,"0.0-3.103-2.103","1ohxsaojoyhv0xs",450,"34.csv","","null","resources/images/fishbone.png","null","",NA,NA,NA,NA,""
"image-keyboard-response",323,243357,"0.0-3.104-0.104","1ohxsaojoyhv0xs",450,"34.csv","","381.39999997615814","resources/trios/L4T4A3.jpg","38","restless",0.5,0.4,0.7,0.581810092659175,"false"
"image-keyboard-response",324,243760,"0.0-3.104-1.104","1ohxsaojoyhv0xs",450,"34.csv","","null","resources/maskTrios/BT4B.jpg","null","",NA,NA,NA,NA,""
"image-keyboard-response",325,244967,"0.0-3.104-2.104","1ohxsaojoyhv0xs",450,"34.csv","","null","resources/images/fishbone.png","null","",NA,NA,NA,NA,""
"image-keyboard-response",326,245206,"0.0-3.105-0.105","1ohxsaojoyhv0xs",450,"34.csv","","237","resources/trios/L1T1A3.jpg","39","restless",0.5,0.4,0.7,0.248045790524905,"true"
"image-keyboard-response",327,245612,"0.0-3.105-1.105","1ohxsaojoyhv0xs",450,"34.csv","","null","resources/maskTrios/BBA3.jpg","null","",NA,NA,NA,NA,""
"image-keyboard-response",328,246818,"0.0-3.105-2.105","1ohxsaojoyhv0xs",450,"34.csv","","null","resources/images/coin2.png","null","",NA,NA,NA,NA,""
"image-keyboard-response",329,247224,"0.0-3.106-0.106","1ohxsaojoyhv0xs",450,"34.csv","","403.0999999642372","resources/trios/L1T4A3.jpg","38","restless",0.5,0.4,0.7,0.445730488847379,"false"
"image-keyboard-response",330,247630,"0.0-3.106-1.106","1ohxsaojoyhv0xs",450,"34.csv","","null","resources/maskTrios/BT4B.jpg","null","",NA,NA,NA,NA,""
"image-keyboard-response",331,248837,"0.0-3.106-2.106","1ohxsaojoyhv0xs",450,"34.csv","","null","resources/images/fishbone.png","null","",NA,NA,NA,NA,""
"image-keyboard-response",332,249228,"0.0-3.107-0.107","1ohxsaojoyhv0xs",450,"34.csv","","389.89999997615814","resources/trios/L1T4A3.jpg","37","restless",0.5,0.4,0.7,0.172422689588728,"true"
"image-keyboard-response",333,249631,"0.0-3.107-1.107","1ohxsaojoyhv0xs",450,"34.csv","","null","resources/maskTrios/L1BB.jpg","null","",NA,NA,NA,NA,""
"image-keyboard-response",334,250838,"0.0-3.107-2.107","1ohxsaojoyhv0xs",450,"34.csv","","null","resources/images/coin2.png","null","",NA,NA,NA,NA,""
"image-keyboard-response",335,251917,"0.0-3.108-0.108","1ohxsaojoyhv0xs",450,"34.csv","","1076.7999999523163","resources/trios/L1T1A3.jpg","39","restless",0.5,0.4,0.7,0.57794809253259,"true"
"image-keyboard-response",336,252320,"0.0-3.108-1.108","1ohxsaojoyhv0xs",450,"34.csv","","null","resources/maskTrios/BBA3.jpg","null","",NA,NA,NA,NA,""
"image-keyboard-response",337,253527,"0.0-3.108-2.108","1ohxsaojoyhv0xs",450,"34.csv","","null","resources/images/coin2.png","null","",NA,NA,NA,NA,""
"image-keyboard-response",338,254485,"0.0-3.109-0.109","1ohxsaojoyhv0xs",450,"34.csv","","956.1000000238419","resources/trios/L4T4A2.jpg","38","restless",0.5,0.4,0.7,0.828067172694527,"false"
"image-keyboard-response",339,254892,"0.0-3.109-1.109","1ohxsaojoyhv0xs",450,"34.csv","","null","resources/maskTrios/BT4B.jpg","null","",NA,NA,NA,NA,""
"image-keyboard-response",340,256099,"0.0-3.109-2.109","1ohxsaojoyhv0xs",450,"34.csv","","null","resources/images/fishbone.png","null","",NA,NA,NA,NA,""
"image-keyboard-response",341,256590,"0.0-3.110-0.110","1ohxsaojoyhv0xs",450,"34.csv","","489.2000000476837","resources/trios/L1T4A3.jpg","37","restless",0.5,0.4,0.7,0.527884639286508,"false"
"image-keyboard-response",342,256992,"0.0-3.110-1.110","1ohxsaojoyhv0xs",450,"34.csv","","null","resources/maskTrios/L1BB.jpg","null","",NA,NA,NA,NA,""
"image-keyboard-response",343,258199,"0.0-3.110-2.110","1ohxsaojoyhv0xs",450,"34.csv","","null","resources/images/fishbone.png","null","",NA,NA,NA,NA,""
"image-keyboard-response",344,258528,"0.0-3.111-0.111","1ohxsaojoyhv0xs",450,"34.csv","","326.39999997615814","resources/trios/L1T4A3.jpg","38","restless",0.5,0.4,0.7,0.59905816554971,"false"
"image-keyboard-response",345,258935,"0.0-3.111-1.111","1ohxsaojoyhv0xs",450,"34.csv","","null","resources/maskTrios/BT4B.jpg","null","",NA,NA,NA,NA,""
"image-keyboard-response",346,260140,"0.0-3.111-2.111","1ohxsaojoyhv0xs",450,"34.csv","","null","resources/images/fishbone.png","null","",NA,NA,NA,NA,""
"image-keyboard-response",347,260207,"0.0-3.112-0.112","1ohxsaojoyhv0xs",450,"34.csv","","65.20000004768372","resources/trios/L1T4A3.jpg","39","restless",0.5,0.4,0.7,0.642054575419946,"true"
"image-keyboard-response",348,260614,"0.0-3.112-1.112","1ohxsaojoyhv0xs",450,"34.csv","","null","resources/maskTrios/BBA3.jpg","null","",NA,NA,NA,NA,""
"image-keyboard-response",349,261820,"0.0-3.112-2.112","1ohxsaojoyhv0xs",450,"34.csv","","null","resources/images/coin2.png","null","",NA,NA,NA,NA,""
"image-keyboard-response",350,262098,"0.0-3.113-0.113","1ohxsaojoyhv0xs",450,"34.csv","","276.10000002384186","resources/trios/L1T1A3.jpg","37","restless",0.5,0.4,0.8,0.501327567321239,"false"
"image-keyboard-response",351,262502,"0.0-3.113-1.113","1ohxsaojoyhv0xs",450,"34.csv","","null","resources/maskTrios/L1BB.jpg","null","",NA,NA,NA,NA,""
"image-keyboard-response",352,263706,"0.0-3.113-2.113","1ohxsaojoyhv0xs",450,"34.csv","","null","resources/images/fishbone.png","null","",NA,NA,NA,NA,""
"image-keyboard-response",353,264049,"0.0-3.114-0.114","1ohxsaojoyhv0xs",450,"34.csv","","341.30000001192093","resources/trios/L4T4A2.jpg","38","restless",0.5,0.4,0.8,0.421596927776885,"false"
"image-keyboard-response",354,264455,"0.0-3.114-1.114","1ohxsaojoyhv0xs",450,"34.csv","","null","resources/maskTrios/BT4B.jpg","null","",NA,NA,NA,NA,""
"image-keyboard-response",355,265659,"0.0-3.114-2.114","1ohxsaojoyhv0xs",450,"34.csv","","null","resources/images/fishbone.png","null","",NA,NA,NA,NA,""
"image-keyboard-response",356,265911,"0.0-3.115-0.115","1ohxsaojoyhv0xs",450,"34.csv","","249.10000002384186","resources/trios/L1T4A2.jpg","39","restless",0.5,0.3,0.8,0.964884121629716,"false"
"image-keyboard-response",357,266313,"0.0-3.115-1.115","1ohxsaojoyhv0xs",450,"34.csv","","null","resources/maskTrios/BBA2.jpg","null","",NA,NA,NA,NA,""
"image-keyboard-response",358,267520,"0.0-3.115-2.115","1ohxsaojoyhv0xs",450,"34.csv","","null","resources/images/fishbone.png","null","",NA,NA,NA,NA,""
"image-keyboard-response",359,267809,"0.0-3.116-0.116","1ohxsaojoyhv0xs",450,"34.csv","","287.5","resources/trios/L4T4A2.jpg","38","restless",0.5,0.3,0.8,0.358258035788161,"false"
"image-keyboard-response",360,268212,"0.0-3.116-1.116","1ohxsaojoyhv0xs",450,"34.csv","","null","resources/maskTrios/BT4B.jpg","null","",NA,NA,NA,NA,""
"image-keyboard-response",361,269415,"0.0-3.116-2.116","1ohxsaojoyhv0xs",450,"34.csv","","null","resources/images/fishbone.png","null","",NA,NA,NA,NA,""
"image-keyboard-response",362,269797,"0.0-3.117-0.117","1ohxsaojoyhv0xs",450,"34.csv","","379.5","resources/trios/L1T1A2.jpg","37","restless",0.5,0.3,0.8,0.252874425325284,"true"
"image-keyboard-response",363,270199,"0.0-3.117-1.117","1ohxsaojoyhv0xs",450,"34.csv","","null","resources/maskTrios/L1BB.jpg","null","",NA,NA,NA,NA,""
"image-keyboard-response",364,271405,"0.0-3.117-2.117","1ohxsaojoyhv0xs",450,"34.csv","","null","resources/images/coin2.png","null","",NA,NA,NA,NA,""
"image-keyboard-response",365,271847,"0.0-3.118-0.118","1ohxsaojoyhv0xs",450,"34.csv","","439.5","resources/trios/L4T1A2.jpg","38","restless",0.5,0.3,0.8,0.585452221902168,"false"
"image-keyboard-response",366,272251,"0.0-3.118-1.118","1ohxsaojoyhv0xs",450,"34.csv","","null","resources/maskTrios/BT1B.jpg","null","",NA,NA,NA,NA,""
"image-keyboard-response",367,273455,"0.0-3.118-2.118","1ohxsaojoyhv0xs",450,"34.csv","","null","resources/images/fishbone.png","null","",NA,NA,NA,NA,""
"image-keyboard-response",368,273735,"0.0-3.119-0.119","1ohxsaojoyhv0xs",450,"34.csv","","278.2000000476837","resources/trios/L4T1A2.jpg","37","restless",0.5,0.3,0.8,0.0243007411206733,"true"
"image-keyboard-response",369,274139,"0.0-3.119-1.119","1ohxsaojoyhv0xs",450,"34.csv","","null","resources/maskTrios/L4BB.jpg","null","",NA,NA,NA,NA,""
"image-keyboard-response",370,275342,"0.0-3.119-2.119","1ohxsaojoyhv0xs",450,"34.csv","","null","resources/images/coin2.png","null","",NA,NA,NA,NA,""
"image-keyboard-response",371,276761,"0.0-3.120-0.120","1ohxsaojoyhv0xs",450,"34.csv","","1416.699999988079","resources/trios/L4T4A2.jpg","39","restless",0.5,0.3,0.8,0.554142500508105,"true"
"image-keyboard-response",372,277167,"0.0-3.120-1.120","1ohxsaojoyhv0xs",450,"34.csv","","null","resources/maskTrios/BBA2.jpg","null","",NA,NA,NA,NA,""
"image-keyboard-response",373,278373,"0.0-3.120-2.120","1ohxsaojoyhv0xs",450,"34.csv","","null","resources/images/coin2.png","null","",NA,NA,NA,NA,""
"image-keyboard-response",374,278738,"0.0-3.121-0.121","1ohxsaojoyhv0xs",450,"34.csv","","362.69999998807907","resources/trios/L4T4A3.jpg","38","restless",0.5,0.3,0.8,0.760541302447924,"false"
"image-keyboard-response",375,279145,"0.0-3.121-1.121","1ohxsaojoyhv0xs",450,"34.csv","","null","resources/maskTrios/BT4B.jpg","null","",NA,NA,NA,NA,""
"image-keyboard-response",376,280351,"0.0-3.121-2.121","1ohxsaojoyhv0xs",450,"34.csv","","null","resources/images/fishbone.png","null","",NA,NA,NA,NA,""
"image-keyboard-response",377,280684,"0.0-3.122-0.122","1ohxsaojoyhv0xs",450,"34.csv","","331","resources/trios/L1T4A3.jpg","39","restless",0.6,0.3,0.8,0.504955204675466,"true"
"image-keyboard-response",378,281089,"0.0-3.122-1.122","1ohxsaojoyhv0xs",450,"34.csv","","null","resources/maskTrios/BBA3.jpg","null","",NA,NA,NA,NA,""
"image-keyboard-response",379,282297,"0.0-3.122-2.122","1ohxsaojoyhv0xs",450,"34.csv","","null","resources/images/coin2.png","null","",NA,NA,NA,NA,""
"image-keyboard-response",380,282870,"0.0-3.123-0.123","1ohxsaojoyhv0xs",450,"34.csv","","571.5","resources/trios/L4T4A3.jpg","37","restless",0.6,0.3,0.8,0.926416508466065,"false"
"image-keyboard-response",381,283273,"0.0-3.123-1.123","1ohxsaojoyhv0xs",450,"34.csv","","null","resources/maskTrios/L4BB.jpg","null","",NA,NA,NA,NA,""
"image-keyboard-response",382,284479,"0.0-3.123-2.123","1ohxsaojoyhv0xs",450,"34.csv","","null","resources/images/fishbone.png","null","",NA,NA,NA,NA,""
"image-keyboard-response",383,284569,"0.0-3.124-0.124","1ohxsaojoyhv0xs",450,"34.csv","","88.09999996423721","resources/trios/L4T4A2.jpg","38","restless",0.6,0.3,0.8,0.0370693570769112,"true"
"image-keyboard-response",384,284973,"0.0-3.124-1.124","1ohxsaojoyhv0xs",450,"34.csv","","null","resources/maskTrios/BT4B.jpg","null","",NA,NA,NA,NA,""
"image-keyboard-response",385,286179,"0.0-3.124-2.124","1ohxsaojoyhv0xs",450,"34.csv","","null","resources/images/coin2.png","null","",NA,NA,NA,NA,""
"image-keyboard-response",386,288762,"0.0-3.125-0.125","1ohxsaojoyhv0xs",450,"34.csv","","2581.100000023842","resources/trios/L1T4A3.jpg","39","restless",0.6,0.3,0.8,0.744259910268016,"true"
"image-keyboard-response",387,289165,"0.0-3.125-1.125","1ohxsaojoyhv0xs",450,"34.csv","","null","resources/maskTrios/BBA3.jpg","null","",NA,NA,NA,NA,""
"image-keyboard-response",388,290368,"0.0-3.125-2.125","1ohxsaojoyhv0xs",450,"34.csv","","null","resources/images/coin2.png","null","",NA,NA,NA,NA,""
"image-keyboard-response",389,296996,"0.0-3.126-0.126","1ohxsaojoyhv0xs",450,"34.csv","","6626.300000011921","resources/trios/L1T1A2.jpg","37","restless",0.5,0.4,0.8,0.565293703978631,"false"
"image-keyboard-response",390,297402,"0.0-3.126-1.126","1ohxsaojoyhv0xs",450,"34.csv","","null","resources/maskTrios/L1BB.jpg","null","",NA,NA,NA,NA,""
"image-keyboard-response",391,298606,"0.0-3.126-2.126","1ohxsaojoyhv0xs",450,"34.csv","","null","resources/images/fishbone.png","null","",NA,NA,NA,NA,""
"image-keyboard-response",392,298950,"0.0-3.127-0.127","1ohxsaojoyhv0xs",450,"34.csv","","341.80000001192093","resources/trios/L4T1A3.jpg","38","restless",0.5,0.4,0.8,0.134399107976636,"true"
"image-keyboard-response",393,299356,"0.0-3.127-1.127","1ohxsaojoyhv0xs",450,"34.csv","","null","resources/maskTrios/BT1B.jpg","null","",NA,NA,NA,NA,""
"image-keyboard-response",394,300563,"0.0-3.127-2.127","1ohxsaojoyhv0xs",450,"34.csv","","null","resources/images/coin2.png","null","",NA,NA,NA,NA,""
"image-keyboard-response",395,300864,"0.0-3.128-0.128","1ohxsaojoyhv0xs",450,"34.csv","","299.0999999642372","resources/trios/L1T4A2.jpg","39","restless",0.5,0.4,0.8,0.547146980379188,"true"
"image-keyboard-response",396,301268,"0.0-3.128-1.128","1ohxsaojoyhv0xs",450,"34.csv","","null","resources/maskTrios/BBA2.jpg","null","",NA,NA,NA,NA,""
"image-keyboard-response",397,302473,"0.0-3.128-2.128","1ohxsaojoyhv0xs",450,"34.csv","","null","resources/images/coin2.png","null","",NA,NA,NA,NA,""
"image-keyboard-response",398,302867,"0.0-3.129-0.129","1ohxsaojoyhv0xs",450,"34.csv","","392.19999998807907","resources/trios/L4T1A3.jpg","37","restless",0.5,0.4,0.8,0.459826134611076,"true"
"image-keyboard-response",399,303273,"0.0-3.129-1.129","1ohxsaojoyhv0xs",450,"34.csv","","null","resources/maskTrios/L4BB.jpg","null","",NA,NA,NA,NA,""
"image-keyboard-response",400,304478,"0.0-3.129-2.129","1ohxsaojoyhv0xs",450,"34.csv","","null","resources/images/coin2.png","null","",NA,NA,NA,NA,""
"image-keyboard-response",401,304831,"0.0-3.130-0.130","1ohxsaojoyhv0xs",450,"34.csv","","351.2999999523163","resources/trios/L1T4A3.jpg","38","restless",0.5,0.4,0.8,0.865963187845454,"false"
"image-keyboard-response",402,305238,"0.0-3.130-1.130","1ohxsaojoyhv0xs",450,"34.csv","","null","resources/maskTrios/BT4B.jpg","null","",NA,NA,NA,NA,""
"image-keyboard-response",403,306445,"0.0-3.130-2.130","1ohxsaojoyhv0xs",450,"34.csv","","null","resources/images/fishbone.png","null","",NA,NA,NA,NA,""
"image-keyboard-response",404,306725,"0.0-3.131-0.131","1ohxsaojoyhv0xs",450,"34.csv","","277.5","resources/trios/L1T4A3.jpg","39","restless",0.5,0.4,0.8,0.623948013365878,"true"
"image-keyboard-response",405,307130,"0.0-3.131-1.131","1ohxsaojoyhv0xs",450,"34.csv","","null","resources/maskTrios/BBA3.jpg","null","",NA,NA,NA,NA,""
"image-keyboard-response",406,308337,"0.0-3.131-2.131","1ohxsaojoyhv0xs",450,"34.csv","","null","resources/images/coin2.png","null","",NA,NA,NA,NA,""
"image-keyboard-response",407,308620,"0.0-3.132-0.132","1ohxsaojoyhv0xs",450,"34.csv","","280.19999998807907","resources/trios/L1T1A2.jpg","38","restless",0.6,0.4,0.8,0.866625205930735,"false"
"image-keyboard-response",408,309023,"0.0-3.132-1.132","1ohxsaojoyhv0xs",450,"34.csv","","null","resources/maskTrios/BT1B.jpg","null","",NA,NA,NA,NA,""
"image-keyboard-response",409,310225,"0.0-3.132-2.132","1ohxsaojoyhv0xs",450,"34.csv","","null","resources/images/fishbone.png","null","",NA,NA,NA,NA,""
"image-keyboard-response",410,310645,"0.0-3.133-0.133","1ohxsaojoyhv0xs",450,"34.csv","","417.39999997615814","resources/trios/L1T1A3.jpg","37","restless",0.6,0.4,0.8,0.728488229693314,"false"
"image-keyboard-response",411,311049,"0.0-3.133-1.133","1ohxsaojoyhv0xs",450,"34.csv","","null","resources/maskTrios/L1BB.jpg","null","",NA,NA,NA,NA,""
"image-keyboard-response",412,312254,"0.0-3.133-2.133","1ohxsaojoyhv0xs",450,"34.csv","","null","resources/images/fishbone.png","null","",NA,NA,NA,NA,""
"image-keyboard-response",413,312299,"0.0-3.134-0.134","1ohxsaojoyhv0xs",450,"34.csv","","42.19999998807907","resources/trios/L4T4A2.jpg","37","restless",0.6,0.5,0.7,0.478701769222408,"true"
"image-keyboard-response",414,312703,"0.0-3.134-1.134","1ohxsaojoyhv0xs",450,"34.csv","","null","resources/maskTrios/L4BB.jpg","null","",NA,NA,NA,NA,""
"image-keyboard-response",415,313906,"0.0-3.134-2.134","1ohxsaojoyhv0xs",450,"34.csv","","null","resources/images/coin2.png","null","",NA,NA,NA,NA,""
"image-keyboard-response",416,314222,"0.0-3.135-0.135","1ohxsaojoyhv0xs",450,"34.csv","","313.30000001192093","resources/trios/L4T4A2.jpg","38","restless",0.6,0.5,0.7,0.0623075805993767,"true"
"image-keyboard-response",417,314629,"0.0-3.135-1.135","1ohxsaojoyhv0xs",450,"34.csv","","null","resources/maskTrios/BT4B.jpg","null","",NA,NA,NA,NA,""
"image-keyboard-response",418,315831,"0.0-3.135-2.135","1ohxsaojoyhv0xs",450,"34.csv","","null","resources/images/coin2.png","null","",NA,NA,NA,NA,""
"image-keyboard-response",419,316232,"0.0-3.136-0.136","1ohxsaojoyhv0xs",450,"34.csv","","398.5","resources/trios/L4T4A2.jpg","37","restless",0.6,0.5,0.7,0.851069739234757,"false"
"image-keyboard-response",420,316637,"0.0-3.136-1.136","1ohxsaojoyhv0xs",450,"34.csv","","null","resources/maskTrios/L4BB.jpg","null","",NA,NA,NA,NA,""
"image-keyboard-response",421,317844,"0.0-3.136-2.136","1ohxsaojoyhv0xs",450,"34.csv","","null","resources/images/fishbone.png","null","",NA,NA,NA,NA,""
"image-keyboard-response",422,318337,"0.0-3.137-0.137","1ohxsaojoyhv0xs",450,"34.csv","","490.9000000357628","resources/trios/L4T4A2.jpg","38","restless",0.6,0.5,0.7,0.789582816539796,"false"
"image-keyboard-response",423,318740,"0.0-3.137-1.137","1ohxsaojoyhv0xs",450,"34.csv","","null","resources/maskTrios/BT4B.jpg","null","",NA,NA,NA,NA,""
"image-keyboard-response",424,319947,"0.0-3.137-2.137","1ohxsaojoyhv0xs",450,"34.csv","","null","resources/images/fishbone.png","null","",NA,NA,NA,NA,""
"image-keyboard-response",425,320379,"0.0-3.138-0.138","1ohxsaojoyhv0xs",450,"34.csv","","429.4000000357628","resources/trios/L4T4A2.jpg","39","restless",0.6,0.5,0.7,0.608175263442464,"true"
"image-keyboard-response",426,320782,"0.0-3.138-1.138","1ohxsaojoyhv0xs",450,"34.csv","","null","resources/maskTrios/BBA2.jpg","null","",NA,NA,NA,NA,""
"image-keyboard-response",427,321986,"0.0-3.138-2.138","1ohxsaojoyhv0xs",450,"34.csv","","null","resources/images/coin2.png","null","",NA,NA,NA,NA,""
"image-keyboard-response",428,322641,"0.0-3.139-0.139","1ohxsaojoyhv0xs",450,"34.csv","","652.8000000119209","resources/trios/L4T1A2.jpg","38","restless",0.6,0.5,0.7,0.575498566735112,"false"
"image-keyboard-response",429,323046,"0.0-3.139-1.139","1ohxsaojoyhv0xs",450,"34.csv","","null","resources/maskTrios/BT1B.jpg","null","",NA,NA,NA,NA,""
"image-keyboard-response",430,324249,"0.0-3.139-2.139","1ohxsaojoyhv0xs",450,"34.csv","","null","resources/images/fishbone.png","null","",NA,NA,NA,NA,""
"image-keyboard-response",431,324780,"0.0-3.140-0.140","1ohxsaojoyhv0xs",450,"34.csv","","528.8999999761581","resources/trios/L1T4A2.jpg","37","restless",0.6,0.5,0.6,0.615262049679008,"false"
"image-keyboard-response",432,325187,"0.0-3.140-1.140","1ohxsaojoyhv0xs",450,"34.csv","","null","resources/maskTrios/L1BB.jpg","null","",NA,NA,NA,NA,""
"image-keyboard-response",433,326391,"0.0-3.140-2.140","1ohxsaojoyhv0xs",450,"34.csv","","null","resources/images/fishbone.png","null","",NA,NA,NA,NA,""
"image-keyboard-response",434,326698,"0.0-3.141-0.141","1ohxsaojoyhv0xs",450,"34.csv","","304.39999997615814","resources/trios/L1T1A3.jpg","39","restless",0.6,0.5,0.6,0.282943917081278,"true"
"image-keyboard-response",435,327105,"0.0-3.141-1.141","1ohxsaojoyhv0xs",450,"34.csv","","null","resources/maskTrios/BBA3.jpg","null","",NA,NA,NA,NA,""
"image-keyboard-response",436,328311,"0.0-3.141-2.141","1ohxsaojoyhv0xs",450,"34.csv","","null","resources/images/coin2.png","null","",NA,NA,NA,NA,""
"image-keyboard-response",437,328925,"0.0-3.142-0.142","1ohxsaojoyhv0xs",450,"34.csv","","610.8999999761581","resources/trios/L1T1A2.jpg","38","restless",0.6,0.5,0.6,0.336368614659092,"true"
"image-keyboard-response",438,329328,"0.0-3.142-1.142","1ohxsaojoyhv0xs",450,"34.csv","","null","resources/maskTrios/BT1B.jpg","null","",NA,NA,NA,NA,""
"image-keyboard-response",439,330535,"0.0-3.142-2.142","1ohxsaojoyhv0xs",450,"34.csv","","null","resources/images/coin2.png","null","",NA,NA,NA,NA,""
"image-keyboard-response",440,330921,"0.0-3.143-0.143","1ohxsaojoyhv0xs",450,"34.csv","","383.5","resources/trios/L1T4A3.jpg","37","restless",0.5,0.5,0.6,0.55863819570504,"false"
"image-keyboard-response",441,331324,"0.0-3.143-1.143","1ohxsaojoyhv0xs",450,"34.csv","","null","resources/maskTrios/L1BB.jpg","null","",NA,NA,NA,NA,""
"image-keyboard-response",442,332529,"0.0-3.143-2.143","1ohxsaojoyhv0xs",450,"34.csv","","null","resources/images/fishbone.png","null","",NA,NA,NA,NA,""
"image-keyboard-response",443,333019,"0.0-3.144-0.144","1ohxsaojoyhv0xs",450,"34.csv","","487.7999999523163","resources/trios/L1T4A2.jpg","38","restless",0.5,0.5,0.6,0.237222148640903,"true"
"image-keyboard-response",444,333425,"0.0-3.144-1.144","1ohxsaojoyhv0xs",450,"34.csv","","null","resources/maskTrios/BT4B.jpg","null","",NA,NA,NA,NA,""
"image-keyboard-response",445,334632,"0.0-3.144-2.144","1ohxsaojoyhv0xs",450,"34.csv","","null","resources/images/coin2.png","null","",NA,NA,NA,NA,""
"image-keyboard-response",446,335045,"0.0-3.145-0.145","1ohxsaojoyhv0xs",450,"34.csv","","410.7000000476837","resources/trios/L1T1A3.jpg","39","restless",0.6,0.5,0.6,0.378976120799351,"true"
"image-keyboard-response",447,335448,"0.0-3.145-1.145","1ohxsaojoyhv0xs",450,"34.csv","","null","resources/maskTrios/BBA3.jpg","null","",NA,NA,NA,NA,""
"image-keyboard-response",448,336652,"0.0-3.145-2.145","1ohxsaojoyhv0xs",450,"34.csv","","null","resources/images/coin2.png","null","",NA,NA,NA,NA,""
"image-keyboard-response",449,337031,"0.0-3.146-0.146","1ohxsaojoyhv0xs",450,"34.csv","","377.19999998807907","resources/trios/L1T1A3.jpg","38","restless",0.6,0.5,0.6,0.119985596922635,"true"
"image-keyboard-response",450,337436,"0.0-3.146-1.146","1ohxsaojoyhv0xs",450,"34.csv","","null","resources/maskTrios/BT1B.jpg","null","",NA,NA,NA,NA,""
"image-keyboard-response",451,338643,"0.0-3.146-2.146","1ohxsaojoyhv0xs",450,"34.csv","","null","resources/images/coin2.png","null","",NA,NA,NA,NA,""
"image-keyboard-response",452,338951,"0.0-3.147-0.147","1ohxsaojoyhv0xs",450,"34.csv","","306.30000001192093","resources/trios/L4T1A2.jpg","37","restless",0.7,0.5,0.6,0.034701938001835,"true"
"image-keyboard-response",453,339358,"0.0-3.147-1.147","1ohxsaojoyhv0xs",450,"34.csv","","null","resources/maskTrios/L4BB.jpg","null","",NA,NA,NA,NA,""
"image-keyboard-response",454,340563,"0.0-3.147-2.147","1ohxsaojoyhv0xs",450,"34.csv","","null","resources/images/coin2.png","null","",NA,NA,NA,NA,""
"image-keyboard-response",455,340933,"0.0-3.148-0.148","1ohxsaojoyhv0xs",450,"34.csv","","368.2000000476837","resources/trios/L1T1A3.jpg","39","restless",0.7,0.5,0.6,0.0924149896681097,"true"
"image-keyboard-response",456,341336,"0.0-3.148-1.148","1ohxsaojoyhv0xs",450,"34.csv","","null","resources/maskTrios/BBA3.jpg","null","",NA,NA,NA,NA,""
"image-keyboard-response",457,342543,"0.0-3.148-2.148","1ohxsaojoyhv0xs",450,"34.csv","","null","resources/images/coin2.png","null","",NA,NA,NA,NA,""
"image-keyboard-response",458,342721,"0.0-3.149-0.149","1ohxsaojoyhv0xs",450,"34.csv","","175.60000002384186","resources/trios/L4T4A3.jpg","38","restless",0.7,0.5,0.6,0.0423377304729797,"true"
"image-keyboard-response",459,343125,"0.0-3.149-1.149","1ohxsaojoyhv0xs",450,"34.csv","","null","resources/maskTrios/BT4B.jpg","null","",NA,NA,NA,NA,""
"image-keyboard-response",460,344333,"0.0-3.149-2.149","1ohxsaojoyhv0xs",450,"34.csv","","null","resources/images/coin2.png","null","",NA,NA,NA,NA,""
"image-keyboard-response",461,344674,"0.0-3.150-0.150","1ohxsaojoyhv0xs",450,"34.csv","","338.80000001192093","resources/trios/L4T1A2.jpg","37","restless",0.7,0.5,0.6,0.460633941072246,"true"
"image-keyboard-response",462,345078,"0.0-3.150-1.150","1ohxsaojoyhv0xs",450,"34.csv","","null","resources/maskTrios/L4BB.jpg","null","",NA,NA,NA,NA,""
"image-keyboard-response",463,346285,"0.0-3.150-2.150","1ohxsaojoyhv0xs",450,"34.csv","","null","resources/images/coin2.png","null","",NA,NA,NA,NA,""
"image-keyboard-response",464,346541,"0.0-3.151-0.151","1ohxsaojoyhv0xs",450,"34.csv","","253.60000002384186","resources/trios/L4T1A2.jpg","38","restless",0.7,0.6,0.6,0.481693133958898,"true"
"image-keyboard-response",465,346948,"0.0-3.151-1.151","1ohxsaojoyhv0xs",450,"34.csv","","null","resources/maskTrios/BT1B.jpg","null","",NA,NA,NA,NA,""
"image-keyboard-response",466,348151,"0.0-3.151-2.151","1ohxsaojoyhv0xs",450,"34.csv","","null","resources/images/coin2.png","null","",NA,NA,NA,NA,""
"image-keyboard-response",467,348465,"0.0-3.152-0.152","1ohxsaojoyhv0xs",450,"34.csv","","310.89999997615814","resources/trios/L1T4A2.jpg","39","restless",0.8,0.6,0.6,0.835218495917519,"false"
"image-keyboard-response",468,348868,"0.0-3.152-1.152","1ohxsaojoyhv0xs",450,"34.csv","","null","resources/maskTrios/BBA2.jpg","null","",NA,NA,NA,NA,""
"image-keyboard-response",469,350075,"0.0-3.152-2.152","1ohxsaojoyhv0xs",450,"34.csv","","null","resources/images/fishbone.png","null","",NA,NA,NA,NA,""
"image-keyboard-response",470,350401,"0.0-3.153-0.153","1ohxsaojoyhv0xs",450,"34.csv","","323.80000001192093","resources/trios/L1T1A3.jpg","38","restless",0.8,0.6,0.6,0.630421549016158,"false"
"image-keyboard-response",471,350808,"0.0-3.153-1.153","1ohxsaojoyhv0xs",450,"34.csv","","null","resources/maskTrios/BT1B.jpg","null","",NA,NA,NA,NA,""
"image-keyboard-response",472,352010,"0.0-3.153-2.153","1ohxsaojoyhv0xs",450,"34.csv","","null","resources/images/fishbone.png","null","",NA,NA,NA,NA,""
"image-keyboard-response",473,352261,"0.0-3.154-0.154","1ohxsaojoyhv0xs",450,"34.csv","","248.5","resources/trios/L4T4A2.jpg","37","restless",0.8,0.6,0.5,0.0331651051008677,"true"
"image-keyboard-response",474,352665,"0.0-3.154-1.154","1ohxsaojoyhv0xs",450,"34.csv","","null","resources/maskTrios/L4BB.jpg","null","",NA,NA,NA,NA,""
"image-keyboard-response",475,353872,"0.0-3.154-2.154","1ohxsaojoyhv0xs",450,"34.csv","","null","resources/images/coin2.png","null","",NA,NA,NA,NA,""
"image-keyboard-response",476,354136,"0.0-3.155-0.155","1ohxsaojoyhv0xs",450,"34.csv","","261.5999999642372","resources/trios/L1T4A2.jpg","39","restless",0.8,0.6,0.5,0.857252707655467,"false"
"image-keyboard-response",477,354539,"0.0-3.155-1.155","1ohxsaojoyhv0xs",450,"34.csv","","null","resources/maskTrios/BBA2.jpg","null","",NA,NA,NA,NA,""
"image-keyboard-response",478,355745,"0.0-3.155-2.155","1ohxsaojoyhv0xs",450,"34.csv","","null","resources/images/fishbone.png","null","",NA,NA,NA,NA,""
"image-keyboard-response",479,356135,"0.0-3.156-0.156","1ohxsaojoyhv0xs",450,"34.csv","","387.60000002384186","resources/trios/L4T1A2.jpg","38","restless",0.8,0.6,0.5,0.11486783215091,"true"
"image-keyboard-response",480,356541,"0.0-3.156-1.156","1ohxsaojoyhv0xs",450,"34.csv","","null","resources/maskTrios/BT1B.jpg","null","",NA,NA,NA,NA,""
"image-keyboard-response",481,357747,"0.0-3.156-2.156","1ohxsaojoyhv0xs",450,"34.csv","","null","resources/images/coin2.png","null","",NA,NA,NA,NA,""
"image-keyboard-response",482,358179,"0.0-3.157-0.157","1ohxsaojoyhv0xs",450,"34.csv","","429.19999998807907","resources/trios/L4T1A2.jpg","37","restless",0.8,0.5,0.5,0.60239200737558,"true"
"image-keyboard-response",483,358586,"0.0-3.157-1.157","1ohxsaojoyhv0xs",450,"34.csv","","null","resources/maskTrios/L4BB.jpg","null","",NA,NA,NA,NA,""
"image-keyboard-response",484,359794,"0.0-3.157-2.157","1ohxsaojoyhv0xs",450,"34.csv","","null","resources/images/coin2.png","null","",NA,NA,NA,NA,""
"image-keyboard-response",485,360125,"0.0-3.158-0.158","1ohxsaojoyhv0xs",450,"34.csv","","328.9000000357628","resources/trios/L1T1A2.jpg","39","restless",0.8,0.5,0.5,0.751818442072376,"false"
"image-keyboard-response",486,360532,"0.0-3.158-1.158","1ohxsaojoyhv0xs",450,"34.csv","","null","resources/maskTrios/BBA2.jpg","null","",NA,NA,NA,NA,""
"image-keyboard-response",487,361735,"0.0-3.158-2.158","1ohxsaojoyhv0xs",450,"34.csv","","null","resources/images/fishbone.png","null","",NA,NA,NA,NA,""
"image-keyboard-response",488,362045,"0.0-3.159-0.159","1ohxsaojoyhv0xs",450,"34.csv","","308","resources/trios/L4T1A3.jpg","38","restless",0.8,0.5,0.5,0.792230576326791,"false"
"image-keyboard-response",489,362449,"0.0-3.159-1.159","1ohxsaojoyhv0xs",450,"34.csv","","null","resources/maskTrios/BT1B.jpg","null","",NA,NA,NA,NA,""
"image-keyboard-response",490,363655,"0.0-3.159-2.159","1ohxsaojoyhv0xs",450,"34.csv","","null","resources/images/fishbone.png","null","",NA,NA,NA,NA,""
"image-keyboard-response",491,363931,"0.0-3.160-0.160","1ohxsaojoyhv0xs",450,"34.csv","","273.89999997615814","resources/trios/L1T4A3.jpg","38","restless",0.8,0.5,0.6,0.622726362644136,"false"
"image-keyboard-response",492,364335,"0.0-3.160-1.160","1ohxsaojoyhv0xs",450,"34.csv","","null","resources/maskTrios/BT4B.jpg","null","",NA,NA,NA,NA,""
"image-keyboard-response",493,365542,"0.0-3.160-2.160","1ohxsaojoyhv0xs",450,"34.csv","","null","resources/images/fishbone.png","null","",NA,NA,NA,NA,""
"image-keyboard-response",494,365838,"0.0-3.161-0.161","1ohxsaojoyhv0xs",450,"34.csv","","294.0999999642372","resources/trios/L1T1A3.jpg","39","restless",0.8,0.5,0.6,0.914612192364002,"false"
"image-keyboard-response",495,366242,"0.0-3.161-1.161","1ohxsaojoyhv0xs",450,"34.csv","","null","resources/maskTrios/BBA3.jpg","null","",NA,NA,NA,NA,""
"image-keyboard-response",496,367447,"0.0-3.161-2.161","1ohxsaojoyhv0xs",450,"34.csv","","null","resources/images/fishbone.png","null","",NA,NA,NA,NA,""
"image-keyboard-response",497,367725,"0.0-3.162-0.162","1ohxsaojoyhv0xs",450,"34.csv","","276.2000000476837","resources/trios/L1T4A2.jpg","37","restless",0.8,0.5,0.5,0.475997293815031,"true"
"image-keyboard-response",498,368133,"0.0-3.162-1.162","1ohxsaojoyhv0xs",450,"34.csv","","null","resources/maskTrios/L1BB.jpg","null","",NA,NA,NA,NA,""
"image-keyboard-response",499,369335,"0.0-3.162-2.162","1ohxsaojoyhv0xs",450,"34.csv","","null","resources/images/coin2.png","null","",NA,NA,NA,NA,""
"image-keyboard-response",500,369693,"0.0-3.163-0.163","1ohxsaojoyhv0xs",450,"34.csv","","355.39999997615814","resources/trios/L4T4A3.jpg","38","restless",0.8,0.6,0.5,0.324802606060022,"true"
"image-keyboard-response",501,370096,"0.0-3.163-1.163","1ohxsaojoyhv0xs",450,"34.csv","","null","resources/maskTrios/BT4B.jpg","null","",NA,NA,NA,NA,""
"image-keyboard-response",502,371303,"0.0-3.163-2.163","1ohxsaojoyhv0xs",450,"34.csv","","null","resources/images/coin2.png","null","",NA,NA,NA,NA,""
"image-keyboard-response",503,371562,"0.0-3.164-0.164","1ohxsaojoyhv0xs",450,"34.csv","","257.10000002384186","resources/trios/L4T1A2.jpg","39","restless",0.8,0.6,0.5,0.64789092753524,"false"
"image-keyboard-response",504,371967,"0.0-3.164-1.164","1ohxsaojoyhv0xs",450,"34.csv","","null","resources/maskTrios/BBA2.jpg","null","",NA,NA,NA,NA,""
"image-keyboard-response",505,373172,"0.0-3.164-2.164","1ohxsaojoyhv0xs",450,"34.csv","","null","resources/images/fishbone.png","null","",NA,NA,NA,NA,""
"image-keyboard-response",506,373508,"0.0-3.165-0.165","1ohxsaojoyhv0xs",450,"34.csv","","333.80000001192093","resources/trios/L1T4A3.jpg","38","restless",0.8,0.6,0.5,0.856788802578239,"false"
"image-keyboard-response",507,373915,"0.0-3.165-1.165","1ohxsaojoyhv0xs",450,"34.csv","","null","resources/maskTrios/BT4B.jpg","null","",NA,NA,NA,NA,""
"image-keyboard-response",508,375121,"0.0-3.165-2.165","1ohxsaojoyhv0xs",450,"34.csv","","null","resources/images/fishbone.png","null","",NA,NA,NA,NA,""
"image-keyboard-response",509,375489,"0.0-3.166-0.166","1ohxsaojoyhv0xs",450,"34.csv","","366.5","resources/trios/L4T4A2.jpg","37","restless",0.8,0.6,0.6,0.955029915529682,"false"
"image-keyboard-response",510,375895,"0.0-3.166-1.166","1ohxsaojoyhv0xs",450,"34.csv","","null","resources/maskTrios/L4BB.jpg","null","",NA,NA,NA,NA,""
"image-keyboard-response",511,377102,"0.0-3.166-2.166","1ohxsaojoyhv0xs",450,"34.csv","","null","resources/images/fishbone.png","null","",NA,NA,NA,NA,""
"image-keyboard-response",512,377199,"0.0-3.167-0.167","1ohxsaojoyhv0xs",450,"34.csv","","94.80000001192093","resources/trios/L4T1A2.jpg","38","restless",0.8,0.6,0.6,0.562773883715104,"true"
"image-keyboard-response",513,377606,"0.0-3.167-1.167","1ohxsaojoyhv0xs",450,"34.csv","","null","resources/maskTrios/BT1B.jpg","null","",NA,NA,NA,NA,""
"image-keyboard-response",514,378813,"0.0-3.167-2.167","1ohxsaojoyhv0xs",450,"34.csv","","null","resources/images/coin2.png","null","",NA,NA,NA,NA,""
"image-keyboard-response",515,379754,"0.0-3.168-0.168","1ohxsaojoyhv0xs",450,"34.csv","","938.5","resources/trios/L1T4A3.jpg","39","restless",0.9,0.7,0.6,0.823053629027376,"false"
"image-keyboard-response",516,380161,"0.0-3.168-1.168","1ohxsaojoyhv0xs",450,"34.csv","","null","resources/maskTrios/BBA3.jpg","null","",NA,NA,NA,NA,""
"image-keyboard-response",517,381364,"0.0-3.168-2.168","1ohxsaojoyhv0xs",450,"34.csv","","null","resources/images/fishbone.png","null","",NA,NA,NA,NA,""
"image-keyboard-response",518,381752,"0.0-3.169-0.169","1ohxsaojoyhv0xs",450,"34.csv","","385.69999998807907","resources/trios/L4T1A2.jpg","37","restless",0.9,0.7,0.6,0.0600367993589079,"true"
"image-keyboard-response",519,382157,"0.0-3.169-1.169","1ohxsaojoyhv0xs",450,"34.csv","","null","resources/maskTrios/L4BB.jpg","null","",NA,NA,NA,NA,""
"image-keyboard-response",520,383364,"0.0-3.169-2.169","1ohxsaojoyhv0xs",450,"34.csv","","null","resources/images/coin2.png","null","",NA,NA,NA,NA,""
"image-keyboard-response",521,383782,"0.0-3.170-0.170","1ohxsaojoyhv0xs",450,"34.csv","","414.69999998807907","resources/trios/L4T4A2.jpg","38","restless",0.9,0.7,0.6,0.256493082943517,"true"
"image-keyboard-response",522,384187,"0.0-3.170-1.170","1ohxsaojoyhv0xs",450,"34.csv","","null","resources/maskTrios/BT4B.jpg","null","",NA,NA,NA,NA,""
"image-keyboard-response",523,385394,"0.0-3.170-2.170","1ohxsaojoyhv0xs",450,"34.csv","","null","resources/images/coin2.png","null","",NA,NA,NA,NA,""
"image-keyboard-response",524,385759,"0.0-3.171-0.171","1ohxsaojoyhv0xs",450,"34.csv","","361.80000001192093","resources/trios/L1T4A2.jpg","39","restless",0.9,0.7,0.5,0.214351092591774,"true"
"image-keyboard-response",525,386162,"0.0-3.171-1.171","1ohxsaojoyhv0xs",450,"34.csv","","null","resources/maskTrios/BBA2.jpg","null","",NA,NA,NA,NA,""
"image-keyboard-response",526,387369,"0.0-3.171-2.171","1ohxsaojoyhv0xs",450,"34.csv","","null","resources/images/coin2.png","null","",NA,NA,NA,NA,""
"image-keyboard-response",527,387709,"0.0-3.172-0.172","1ohxsaojoyhv0xs",450,"34.csv","","337.7999999523163","resources/trios/L4T4A3.jpg","38","restless",0.9,0.7,0.5,0.320767876664175,"true"
"image-keyboard-response",528,388114,"0.0-3.172-1.172","1ohxsaojoyhv0xs",450,"34.csv","","null","resources/maskTrios/BT4B.jpg","null","",NA,NA,NA,NA,""
"image-keyboard-response",529,389319,"0.0-3.172-2.172","1ohxsaojoyhv0xs",450,"34.csv","","null","resources/images/coin2.png","null","",NA,NA,NA,NA,""
"image-keyboard-response",530,389771,"0.0-3.173-0.173","1ohxsaojoyhv0xs",450,"34.csv","","449.19999998807907","resources/trios/L4T4A3.jpg","38","restless",0.9,0.7,0.5,0.345633334499335,"true"
"image-keyboard-response",531,390174,"0.0-3.173-1.173","1ohxsaojoyhv0xs",450,"34.csv","","null","resources/maskTrios/BT4B.jpg","null","",NA,NA,NA,NA,""
"image-keyboard-response",532,391380,"0.0-3.173-2.173","1ohxsaojoyhv0xs",450,"34.csv","","null","resources/images/coin2.png","null","",NA,NA,NA,NA,""
"image-keyboard-response",533,391672,"0.0-3.174-0.174","1ohxsaojoyhv0xs",450,"34.csv","","289.19999998807907","resources/trios/L1T1A2.jpg","37","restless",0.9,0.7,0.5,0.648742262790043,"true"
"image-keyboard-response",534,392079,"0.0-3.174-1.174","1ohxsaojoyhv0xs",450,"34.csv","","null","resources/maskTrios/L1BB.jpg","null","",NA,NA,NA,NA,""
"image-keyboard-response",535,393287,"0.0-3.174-2.174","1ohxsaojoyhv0xs",450,"34.csv","","null","resources/images/coin2.png","null","",NA,NA,NA,NA,""
"image-keyboard-response",536,393596,"0.0-3.175-0.175","1ohxsaojoyhv0xs",450,"34.csv","","306.60000002384186","resources/trios/L4T4A3.jpg","39","restless",0.9,0.7,0.5,0.999228218485088,"false"
"image-keyboard-response",537,393999,"0.0-3.175-1.175","1ohxsaojoyhv0xs",450,"34.csv","","null","resources/maskTrios/BBA3.jpg","null","",NA,NA,NA,NA,""
"image-keyboard-response",538,395206,"0.0-3.175-2.175","1ohxsaojoyhv0xs",450,"34.csv","","null","resources/images/fishbone.png","null","",NA,NA,NA,NA,""
"image-keyboard-response",539,395511,"0.0-3.176-0.176","1ohxsaojoyhv0xs",450,"34.csv","","302.69999998807907","resources/trios/L4T1A2.jpg","38","restless",0.9,0.7,0.5,0.037642003326404,"true"
"image-keyboard-response",540,395919,"0.0-3.176-1.176","1ohxsaojoyhv0xs",450,"34.csv","","null","resources/maskTrios/BT1B.jpg","null","",NA,NA,NA,NA,""
"image-keyboard-response",541,397126,"0.0-3.176-2.176","1ohxsaojoyhv0xs",450,"34.csv","","null","resources/images/coin2.png","null","",NA,NA,NA,NA,""
"image-keyboard-response",542,397422,"0.0-3.177-0.177","1ohxsaojoyhv0xs",450,"34.csv","","294.10000002384186","resources/trios/L4T1A3.jpg","37","restless",0.9,0.7,0.5,0.737699091038062,"true"
"image-keyboard-response",543,397826,"0.0-3.177-1.177","1ohxsaojoyhv0xs",450,"34.csv","","null","resources/maskTrios/L4BB.jpg","null","",NA,NA,NA,NA,""
"image-keyboard-response",544,399033,"0.0-3.177-2.177","1ohxsaojoyhv0xs",450,"34.csv","","null","resources/images/coin2.png","null","",NA,NA,NA,NA,""
"image-keyboard-response",545,399291,"0.0-3.178-0.178","1ohxsaojoyhv0xs",450,"34.csv","","256.10000002384186","resources/trios/L4T1A2.jpg","39","restless",0.9,0.7,0.4,0.5904066300634,"false"
"image-keyboard-response",546,399694,"0.0-3.178-1.178","1ohxsaojoyhv0xs",450,"34.csv","","null","resources/maskTrios/BBA2.jpg","null","",NA,NA,NA,NA,""
"image-keyboard-response",547,400900,"0.0-3.178-2.178","1ohxsaojoyhv0xs",450,"34.csv","","null","resources/images/fishbone.png","null","",NA,NA,NA,NA,""
"image-keyboard-response",548,401179,"0.0-3.179-0.179","1ohxsaojoyhv0xs",450,"34.csv","","277","resources/trios/L1T1A2.jpg","38","restless",0.9,0.7,0.4,0.817737714922848,"false"
"image-keyboard-response",549,401587,"0.0-3.179-1.179","1ohxsaojoyhv0xs",450,"34.csv","","null","resources/maskTrios/BT1B.jpg","null","",NA,NA,NA,NA,""
"image-keyboard-response",550,402793,"0.0-3.179-2.179","1ohxsaojoyhv0xs",450,"34.csv","","null","resources/images/fishbone.png","null","",NA,NA,NA,NA,""
"image-keyboard-response",551,403173,"0.0-3.180-0.180","1ohxsaojoyhv0xs",450,"34.csv","","378.69999998807907","resources/trios/L4T4A2.jpg","37","restless",0.9,0.6,0.3,0.385961817201204,"true"
"image-keyboard-response",552,403578,"0.0-3.180-1.180","1ohxsaojoyhv0xs",450,"34.csv","","null","resources/maskTrios/L4BB.jpg","null","",NA,NA,NA,NA,""
"image-keyboard-response",553,404781,"0.0-3.180-2.180","1ohxsaojoyhv0xs",450,"34.csv","","null","resources/images/coin2.png","null","",NA,NA,NA,NA,""
"image-keyboard-response",554,405204,"0.0-3.181-0.181","1ohxsaojoyhv0xs",450,"34.csv","","420.19999998807907","resources/trios/L1T1A2.jpg","38","restless",0.9,0.6,0.3,0.891035423933936,"false"
"image-keyboard-response",555,405612,"0.0-3.181-1.181","1ohxsaojoyhv0xs",450,"34.csv","","null","resources/maskTrios/BT1B.jpg","null","",NA,NA,NA,NA,""
"image-keyboard-response",556,406819,"0.0-3.181-2.181","1ohxsaojoyhv0xs",450,"34.csv","","null","resources/images/fishbone.png","null","",NA,NA,NA,NA,""
"image-keyboard-response",557,407103,"0.0-3.182-0.182","1ohxsaojoyhv0xs",450,"34.csv","","281.5","resources/trios/L1T4A3.jpg","39","restless",0.9,0.6,0.3,0.188633304844441,"true"
"image-keyboard-response",558,407507,"0.0-3.182-1.182","1ohxsaojoyhv0xs",450,"34.csv","","null","resources/maskTrios/BBA3.jpg","null","",NA,NA,NA,NA,""
"image-keyboard-response",559,408712,"0.0-3.182-2.182","1ohxsaojoyhv0xs",450,"34.csv","","null","resources/images/coin2.png","null","",NA,NA,NA,NA,""
"image-keyboard-response",560,409038,"0.0-3.183-0.183","1ohxsaojoyhv0xs",450,"34.csv","","323","resources/trios/L4T4A3.jpg","38","restless",0.9,0.5,0.3,0.262081258701103,"true"
"image-keyboard-response",561,409441,"0.0-3.183-1.183","1ohxsaojoyhv0xs",450,"34.csv","","null","resources/maskTrios/BT4B.jpg","null","",NA,NA,NA,NA,""
"image-keyboard-response",562,410645,"0.0-3.183-2.183","1ohxsaojoyhv0xs",450,"34.csv","","null","resources/images/coin2.png","null","",NA,NA,NA,NA,""
"image-keyboard-response",563,410973,"0.0-3.184-0.184","1ohxsaojoyhv0xs",450,"34.csv","","326.80000001192093","resources/trios/L1T1A2.jpg","37","restless",0.9,0.5,0.3,0.438060208776361,"true"
"image-keyboard-response",564,411380,"0.0-3.184-1.184","1ohxsaojoyhv0xs",450,"34.csv","","null","resources/maskTrios/L1BB.jpg","null","",NA,NA,NA,NA,""
"image-keyboard-response",565,412586,"0.0-3.184-2.184","1ohxsaojoyhv0xs",450,"34.csv","","null","resources/images/coin2.png","null","",NA,NA,NA,NA,""
"image-keyboard-response",566,412949,"0.0-3.185-0.185","1ohxsaojoyhv0xs",450,"34.csv","","360.60000002384186","resources/trios/L1T1A2.jpg","39","restless",0.9,0.5,0.3,0.127002506533937,"true"
"image-keyboard-response",567,413353,"0.0-3.185-1.185","1ohxsaojoyhv0xs",450,"34.csv","","null","resources/maskTrios/BBA2.jpg","null","",NA,NA,NA,NA,""
"image-keyboard-response",568,414560,"0.0-3.185-2.185","1ohxsaojoyhv0xs",450,"34.csv","","null","resources/images/coin2.png","null","",NA,NA,NA,NA,""
"image-keyboard-response",569,415139,"0.0-3.186-0.186","1ohxsaojoyhv0xs",450,"34.csv","","576.1000000238419","resources/trios/L4T4A3.jpg","38","restless",0.8,0.5,0.3,0.200793695352231,"true"
"image-keyboard-response",570,415545,"0.0-3.186-1.186","1ohxsaojoyhv0xs",450,"34.csv","","null","resources/maskTrios/BT4B.jpg","null","",NA,NA,NA,NA,""
"image-keyboard-response",571,416752,"0.0-3.186-2.186","1ohxsaojoyhv0xs",450,"34.csv","","null","resources/images/coin2.png","null","",NA,NA,NA,NA,""
"image-keyboard-response",572,417078,"0.0-3.187-0.187","1ohxsaojoyhv0xs",450,"34.csv","","323.5","resources/trios/L4T1A2.jpg","37","restless",0.8,0.5,0.3,0.582289501444712,"true"
"image-keyboard-response",573,417480,"0.0-3.187-1.187","1ohxsaojoyhv0xs",450,"34.csv","","null","resources/maskTrios/L4BB.jpg","null","",NA,NA,NA,NA,""
"image-keyboard-response",574,418687,"0.0-3.187-2.187","1ohxsaojoyhv0xs",450,"34.csv","","null","resources/images/coin2.png","null","",NA,NA,NA,NA,""
"image-keyboard-response",575,418989,"0.0-3.188-0.188","1ohxsaojoyhv0xs",450,"34.csv","","299.4000000357628","resources/trios/L4T1A2.jpg","39","restless",0.8,0.5,0.3,0.596008290477065,"false"
"image-keyboard-response",576,419393,"0.0-3.188-1.188","1ohxsaojoyhv0xs",450,"34.csv","","null","resources/maskTrios/BBA2.jpg","null","",NA,NA,NA,NA,""
"image-keyboard-response",577,420595,"0.0-3.188-2.188","1ohxsaojoyhv0xs",450,"34.csv","","null","resources/images/fishbone.png","null","",NA,NA,NA,NA,""
"image-keyboard-response",578,421763,"0.0-3.189-0.189","1ohxsaojoyhv0xs",450,"34.csv","","1166.1000000238419","resources/trios/L1T1A2.jpg","38","restless",0.8,0.4,0.3,0.660741133874478,"false"
"image-keyboard-response",579,422170,"0.0-3.189-1.189","1ohxsaojoyhv0xs",450,"34.csv","","null","resources/maskTrios/BT1B.jpg","null","",NA,NA,NA,NA,""
"image-keyboard-response",580,423375,"0.0-3.189-2.189","1ohxsaojoyhv0xs",450,"34.csv","","null","resources/images/fishbone.png","null","",NA,NA,NA,NA,""
"image-keyboard-response",581,423959,"0.0-3.190-0.190","1ohxsaojoyhv0xs",450,"34.csv","","581.3999999761581","resources/trios/L4T4A3.jpg","37","restless",0.7,0.3,0.3,0.317276174343038,"true"
"image-keyboard-response",582,424363,"0.0-3.190-1.190","1ohxsaojoyhv0xs",450,"34.csv","","null","resources/maskTrios/L4BB.jpg","null","",NA,NA,NA,NA,""
"image-keyboard-response",583,425569,"0.0-3.190-2.190","1ohxsaojoyhv0xs",450,"34.csv","","null","resources/images/coin2.png","null","",NA,NA,NA,NA,""
"image-keyboard-response",584,426169,"0.0-3.191-0.191","1ohxsaojoyhv0xs",450,"34.csv","","597.6999999880791","resources/trios/L4T4A3.jpg","39","restless",0.7,0.3,0.3,0.107756595363962,"true"
"image-keyboard-response",585,426572,"0.0-3.191-1.191","1ohxsaojoyhv0xs",450,"34.csv","","null","resources/maskTrios/BBA3.jpg","null","",NA,NA,NA,NA,""
"image-keyboard-response",586,427780,"0.0-3.191-2.191","1ohxsaojoyhv0xs",450,"34.csv","","null","resources/images/coin2.png","null","",NA,NA,NA,NA,""
"image-keyboard-response",587,428301,"0.0-3.192-0.192","1ohxsaojoyhv0xs",450,"34.csv","","519.3999999761581","resources/trios/L1T4A3.jpg","38","restless",0.7,0.3,0.3,0.820047354258109,"false"
"image-keyboard-response",588,428709,"0.0-3.192-1.192","1ohxsaojoyhv0xs",450,"34.csv","","null","resources/maskTrios/BT4B.jpg","null","",NA,NA,NA,NA,""
"image-keyboard-response",589,429912,"0.0-3.192-2.192","1ohxsaojoyhv0xs",450,"34.csv","","null","resources/images/fishbone.png","null","",NA,NA,NA,NA,""
"image-keyboard-response",590,430337,"0.0-3.193-0.193","1ohxsaojoyhv0xs",450,"34.csv","","422.89999997615814","resources/trios/L4T4A3.jpg","39","restless",0.7,0.3,0.3,0.504103167834649,"false"
"image-keyboard-response",591,430744,"0.0-3.193-1.193","1ohxsaojoyhv0xs",450,"34.csv","","null","resources/maskTrios/BBA3.jpg","null","",NA,NA,NA,NA,""
"image-keyboard-response",592,431950,"0.0-3.193-2.193","1ohxsaojoyhv0xs",450,"34.csv","","null","resources/images/fishbone.png","null","",NA,NA,NA,NA,""
"image-keyboard-response",593,432235,"0.0-3.194-0.194","1ohxsaojoyhv0xs",450,"34.csv","","282.0999999642372","resources/trios/L1T4A3.jpg","37","restless",0.7,0.3,0.3,0.202006534539235,"true"
"image-keyboard-response",594,432638,"0.0-3.194-1.194","1ohxsaojoyhv0xs",450,"34.csv","","null","resources/maskTrios/L1BB.jpg","null","",NA,NA,NA,NA,""
"image-keyboard-response",595,433844,"0.0-3.194-2.194","1ohxsaojoyhv0xs",450,"34.csv","","null","resources/images/coin2.png","null","",NA,NA,NA,NA,""
"image-keyboard-response",596,434481,"0.0-3.195-0.195","1ohxsaojoyhv0xs",450,"34.csv","","634.7000000476837","resources/trios/L1T1A2.jpg","38","restless",0.7,0.3,0.3,0.575101949669272,"false"
"image-keyboard-response",597,434888,"0.0-3.195-1.195","1ohxsaojoyhv0xs",450,"34.csv","","null","resources/maskTrios/BT1B.jpg","null","",NA,NA,NA,NA,""
"image-keyboard-response",598,436092,"0.0-3.195-2.195","1ohxsaojoyhv0xs",450,"34.csv","","null","resources/images/fishbone.png","null","",NA,NA,NA,NA,""
"image-keyboard-response",599,436590,"0.0-3.196-0.196","1ohxsaojoyhv0xs",450,"34.csv","","496.10000002384186","resources/trios/L4T1A3.jpg","39","restless",0.7,0.3,0.3,0.57886359667113,"false"
"image-keyboard-response",600,436994,"0.0-3.196-1.196","1ohxsaojoyhv0xs",450,"34.csv","","null","resources/maskTrios/BBA3.jpg","null","",NA,NA,NA,NA,""
"image-keyboard-response",601,438201,"0.0-3.196-2.196","1ohxsaojoyhv0xs",450,"34.csv","","null","resources/images/fishbone.png","null","",NA,NA,NA,NA,""
"image-keyboard-response",602,438702,"0.0-3.197-0.197","1ohxsaojoyhv0xs",450,"34.csv","","498.60000002384186","resources/trios/L1T4A3.jpg","37","restless",0.7,0.3,0.3,0.704806950585378,"false"
"image-keyboard-response",603,439108,"0.0-3.197-1.197","1ohxsaojoyhv0xs",450,"34.csv","","null","resources/maskTrios/L1BB.jpg","null","",NA,NA,NA,NA,""
"image-keyboard-response",604,440312,"0.0-3.197-2.197","1ohxsaojoyhv0xs",450,"34.csv","","null","resources/images/fishbone.png","null","",NA,NA,NA,NA,""
"image-keyboard-response",605,440626,"0.0-3.198-0.198","1ohxsaojoyhv0xs",450,"34.csv","","311.5","resources/trios/L4T1A3.jpg","38","restless",0.7,0.3,0.3,0.93328530438876,"false"
"image-keyboard-response",606,441032,"0.0-3.198-1.198","1ohxsaojoyhv0xs",450,"34.csv","","null","resources/maskTrios/BT1B.jpg","null","",NA,NA,NA,NA,""
"image-keyboard-response",607,442235,"0.0-3.198-2.198","1ohxsaojoyhv0xs",450,"34.csv","","null","resources/images/fishbone.png","null","",NA,NA,NA,NA,""
"image-keyboard-response",608,442529,"0.0-3.199-0.199","1ohxsaojoyhv0xs",450,"34.csv","","291.10000002384186","resources/trios/L1T1A2.jpg","39","restless",0.6,0.3,0.3,0.441333407068379,"false"
"image-keyboard-response",609,442932,"0.0-3.199-1.199","1ohxsaojoyhv0xs",450,"34.csv","","null","resources/maskTrios/BBA2.jpg","null","",NA,NA,NA,NA,""
