"trial_type","trial_index","time_elapsed","internal_node_id","subject","participantCode","walkNumber","success","rt","stimulus","key_press","test_part","leftProb","midProb","rightProb","generatedNum","correct"
"pavlovia",0,1009,"0.0-0.0","4pac2lkzdwll4r3",191,"126.csv","","","","","",NA,NA,NA,NA,""
"fullscreen",1,4415,"0.0-1.0","4pac2lkzdwll4r3",191,"126.csv","true","","","","",NA,NA,NA,NA,""
"html-keyboard-response",2,10314,"0.0-2.0-0.0","4pac2lkzdwll4r3",191,"126.csv","","5895.79999999702","<p><font size='6'>Arrrgh!</p></font><p>Can you be the best pirate? Try to find lots of gold! But beware, some islands have more gold than others, and over time, the island with the most gold may change. Can YOU figure it out? </p><font size='6'>GOOD LUCK, CAPTAIN!!!</font><p>Press any key to begin</p>","32","",NA,NA,NA,NA,""
"image-keyboard-response",3,13321,"0.0-2.0-1.0","4pac2lkzdwll4r3",191,"126.csv","","null","resources/image_sets/111.png","null","",NA,NA,NA,NA,""
"image-keyboard-response",4,26625,"0.0-2.0-2.0","4pac2lkzdwll4r3",191,"126.csv","","13302.29999999702","resources/image_sets/left_highlight.png","37","",NA,NA,NA,NA,""
"image-keyboard-response",5,35821,"0.0-2.0-3.0","4pac2lkzdwll4r3",191,"126.csv","","9195.20000000298","resources/image_sets/mid_highlight.png","38","",NA,NA,NA,NA,""
"image-keyboard-response",6,38256,"0.0-2.0-4.0","4pac2lkzdwll4r3",191,"126.csv","","2434.0999999940395","resources/image_sets/right_highlight.png","39","",NA,NA,NA,NA,""
"image-keyboard-response",7,43329,"0.0-2.0-5.0","4pac2lkzdwll4r3",191,"126.csv","","5071.70000000298","resources/image_sets/111.png","13","",NA,NA,NA,NA,""
"image-keyboard-response",8,46767,"0.0-2.0-6.0","4pac2lkzdwll4r3",191,"126.csv","","3437.1000000089407","resources/images/coin2.png","13","",NA,NA,NA,NA,""
"image-keyboard-response",9,48860,"0.0-2.0-7.0","4pac2lkzdwll4r3",191,"126.csv","","2091.7000000029802","resources/images/fishbone.png","13","",NA,NA,NA,NA,""
"html-keyboard-response",10,54491,"0.0-2.0-8.0","4pac2lkzdwll4r3",191,"126.csv","","5630","<p>Your first journey will be a long one, but you will get a well deserved break at the end</p><p>After the break you will have four more journeys, but each will be much shorter than the first, and you will have breaks in between each</p><p>Press Enter to begin</p>","13","",NA,NA,NA,NA,""
"image-keyboard-response",11,57617,"0.0-3.0-0.0","4pac2lkzdwll4r3",191,"126.csv","","3124.699999988079","resources/trios/L4T4A2.jpg","39","restless",0.9,0.7,0.3,0.537688700558466,"false"
"image-keyboard-response",12,58021,"0.0-3.0-1.0","4pac2lkzdwll4r3",191,"126.csv","","null","resources/maskTrios/BBA2.jpg","null","",NA,NA,NA,NA,""
"image-keyboard-response",13,59227,"0.0-3.0-2.0","4pac2lkzdwll4r3",191,"126.csv","","null","resources/images/fishbone.png","null","",NA,NA,NA,NA,""
"image-keyboard-response",14,61002,"0.0-3.1-0.1","4pac2lkzdwll4r3",191,"126.csv","","1773","resources/trios/L4T1A2.jpg","38","restless",0.9,0.7,0.3,0.195402793256695,"true"
"image-keyboard-response",15,61408,"0.0-3.1-1.1","4pac2lkzdwll4r3",191,"126.csv","","null","resources/maskTrios/BT1B.jpg","null","",NA,NA,NA,NA,""
"image-keyboard-response",16,62615,"0.0-3.1-2.1","4pac2lkzdwll4r3",191,"126.csv","","null","resources/images/coin2.png","null","",NA,NA,NA,NA,""
"image-keyboard-response",17,63753,"0.0-3.2-0.2","4pac2lkzdwll4r3",191,"126.csv","","1136.800000011921","resources/trios/L4T1A1.jpg","37","restless",0.9,0.7,0.3,0.112977118274046,"true"
"image-keyboard-response",18,64158,"0.0-3.2-1.2","4pac2lkzdwll4r3",191,"126.csv","","null","resources/maskTrios/L4BB.jpg","null","",NA,NA,NA,NA,""
"image-keyboard-response",19,65364,"0.0-3.2-2.2","4pac2lkzdwll4r3",191,"126.csv","","null","resources/images/coin2.png","null","",NA,NA,NA,NA,""
"image-keyboard-response",20,68008,"0.0-3.3-0.3","4pac2lkzdwll4r3",191,"126.csv","","2642.6000000089407","resources/trios/L4T1A1.jpg","38","restless",0.9,0.7,0.3,0.210429529128025,"true"
"image-keyboard-response",21,68414,"0.0-3.3-1.3","4pac2lkzdwll4r3",191,"126.csv","","null","resources/maskTrios/BT1B.jpg","null","",NA,NA,NA,NA,""
"image-keyboard-response",22,69618,"0.0-3.3-2.3","4pac2lkzdwll4r3",191,"126.csv","","null","resources/images/coin2.png","null","",NA,NA,NA,NA,""
"image-keyboard-response",23,69999,"0.0-3.4-0.4","4pac2lkzdwll4r3",191,"126.csv","","379.40000000596046","resources/trios/L1T1A2.jpg","37","restless",0.9,0.7,0.3,0.888876025901163,"true"
"image-keyboard-response",24,70401,"0.0-3.4-1.4","4pac2lkzdwll4r3",191,"126.csv","","null","resources/maskTrios/L1BB.jpg","null","",NA,NA,NA,NA,""
"image-keyboard-response",25,71607,"0.0-3.4-2.4","4pac2lkzdwll4r3",191,"126.csv","","null","resources/images/coin2.png","null","",NA,NA,NA,NA,""
"image-keyboard-response",26,72145,"0.0-3.5-0.5","4pac2lkzdwll4r3",191,"126.csv","","536.9000000059605","resources/trios/L1T1A2.jpg","37","restless",0.9,0.7,0.2,0.550531531459328,"true"
"image-keyboard-response",27,72546,"0.0-3.5-1.5","4pac2lkzdwll4r3",191,"126.csv","","null","resources/maskTrios/L1BB.jpg","null","",NA,NA,NA,NA,""
"image-keyboard-response",28,73751,"0.0-3.5-2.5","4pac2lkzdwll4r3",191,"126.csv","","null","resources/images/coin2.png","null","",NA,NA,NA,NA,""
"image-keyboard-response",29,74077,"0.0-3.6-0.6","4pac2lkzdwll4r3",191,"126.csv","","324.20000000298023","resources/trios/L1T1A1.jpg","38","restless",0.9,0.7,0.2,0.42008549947033,"true"
"image-keyboard-response",30,74482,"0.0-3.6-1.6","4pac2lkzdwll4r3",191,"126.csv","","null","resources/maskTrios/BT1B.jpg","null","",NA,NA,NA,NA,""
"image-keyboard-response",31,75688,"0.0-3.6-2.6","4pac2lkzdwll4r3",191,"126.csv","","null","resources/images/coin2.png","null","",NA,NA,NA,NA,""
"image-keyboard-response",32,76054,"0.0-3.7-0.7","4pac2lkzdwll4r3",191,"126.csv","","364.59999999403954","resources/trios/L4T4A2.jpg","37","restless",0.8,0.7,0.2,0.48771757801723,"true"
"image-keyboard-response",33,76457,"0.0-3.7-1.7","4pac2lkzdwll4r3",191,"126.csv","","null","resources/maskTrios/L4BB.jpg","null","",NA,NA,NA,NA,""
"image-keyboard-response",34,77660,"0.0-3.7-2.7","4pac2lkzdwll4r3",191,"126.csv","","null","resources/images/coin2.png","null","",NA,NA,NA,NA,""
"image-keyboard-response",35,77676,"0.0-3.8-0.8","4pac2lkzdwll4r3",191,"126.csv","","13.700000002980232","resources/trios/L1T1A2.jpg","38","restless",0.8,0.7,0.2,0.399941840920789,"true"
"image-keyboard-response",36,78082,"0.0-3.8-1.8","4pac2lkzdwll4r3",191,"126.csv","","null","resources/maskTrios/BT1B.jpg","null","",NA,NA,NA,NA,""
"image-keyboard-response",37,79284,"0.0-3.8-2.8","4pac2lkzdwll4r3",191,"126.csv","","null","resources/images/coin2.png","null","",NA,NA,NA,NA,""
"image-keyboard-response",38,79510,"0.0-3.9-0.9","4pac2lkzdwll4r3",191,"126.csv","","224.70000000298023","resources/trios/L4T4A2.jpg","37","restless",0.8,0.7,0.3,0.412987899975399,"true"
"image-keyboard-response",39,79916,"0.0-3.9-1.9","4pac2lkzdwll4r3",191,"126.csv","","null","resources/maskTrios/L4BB.jpg","null","",NA,NA,NA,NA,""
"image-keyboard-response",40,81121,"0.0-3.9-2.9","4pac2lkzdwll4r3",191,"126.csv","","null","resources/images/coin2.png","null","",NA,NA,NA,NA,""
"image-keyboard-response",41,81382,"0.0-3.10-0.10","4pac2lkzdwll4r3",191,"126.csv","","260.59999999403954","resources/trios/L4T1A1.jpg","38","restless",0.8,0.7,0.3,0.705892937160804,"false"
"image-keyboard-response",42,81786,"0.0-3.10-1.10","4pac2lkzdwll4r3",191,"126.csv","","null","resources/maskTrios/BT1B.jpg","null","",NA,NA,NA,NA,""
"image-keyboard-response",43,82989,"0.0-3.10-2.10","4pac2lkzdwll4r3",191,"126.csv","","null","resources/images/fishbone.png","null","",NA,NA,NA,NA,""
"image-keyboard-response",44,83352,"0.0-3.11-0.11","4pac2lkzdwll4r3",191,"126.csv","","360.90000000596046","resources/trios/L1T4A2.jpg","38","restless",0.8,0.7,0.3,0.441118094371547,"true"
"image-keyboard-response",45,83758,"0.0-3.11-1.11","4pac2lkzdwll4r3",191,"126.csv","","null","resources/maskTrios/BT4B.jpg","null","",NA,NA,NA,NA,""
"image-keyboard-response",46,84960,"0.0-3.11-2.11","4pac2lkzdwll4r3",191,"126.csv","","null","resources/images/coin2.png","null","",NA,NA,NA,NA,""
"image-keyboard-response",47,86313,"0.0-3.12-0.12","4pac2lkzdwll4r3",191,"126.csv","","1351.5","resources/trios/L4T1A2.jpg","37","restless",0.8,0.7,0.3,0.61058416822292,"true"
"image-keyboard-response",48,86717,"0.0-3.12-1.12","4pac2lkzdwll4r3",191,"126.csv","","null","resources/maskTrios/L4BB.jpg","null","",NA,NA,NA,NA,""
"image-keyboard-response",49,87922,"0.0-3.12-2.12","4pac2lkzdwll4r3",191,"126.csv","","null","resources/images/coin2.png","null","",NA,NA,NA,NA,""
"image-keyboard-response",50,88310,"0.0-3.13-0.13","4pac2lkzdwll4r3",191,"126.csv","","387.3999999910593","resources/trios/L4T4A1.jpg","38","restless",0.8,0.7,0.3,0.110163358121161,"true"
"image-keyboard-response",51,88713,"0.0-3.13-1.13","4pac2lkzdwll4r3",191,"126.csv","","null","resources/maskTrios/BT4B.jpg","null","",NA,NA,NA,NA,""
"image-keyboard-response",52,89917,"0.0-3.13-2.13","4pac2lkzdwll4r3",191,"126.csv","","null","resources/images/coin2.png","null","",NA,NA,NA,NA,""
"image-keyboard-response",53,90259,"0.0-3.14-0.14","4pac2lkzdwll4r3",191,"126.csv","","340.20000000298023","resources/trios/L4T4A2.jpg","38","restless",0.8,0.8,0.3,0.617885119418319,"true"
"image-keyboard-response",54,90665,"0.0-3.14-1.14","4pac2lkzdwll4r3",191,"126.csv","","null","resources/maskTrios/BT4B.jpg","null","",NA,NA,NA,NA,""
"image-keyboard-response",55,91867,"0.0-3.14-2.14","4pac2lkzdwll4r3",191,"126.csv","","null","resources/images/coin2.png","null","",NA,NA,NA,NA,""
"image-keyboard-response",56,92178,"0.0-3.15-0.15","4pac2lkzdwll4r3",191,"126.csv","","309.29999999701977","resources/trios/L1T4A1.jpg","38","restless",0.7,0.8,0.3,0.455398423037286,"true"
"image-keyboard-response",57,92583,"0.0-3.15-1.15","4pac2lkzdwll4r3",191,"126.csv","","null","resources/maskTrios/BT4B.jpg","null","",NA,NA,NA,NA,""
"image-keyboard-response",58,93785,"0.0-3.15-2.15","4pac2lkzdwll4r3",191,"126.csv","","null","resources/images/coin2.png","null","",NA,NA,NA,NA,""
"image-keyboard-response",59,94344,"0.0-3.16-0.16","4pac2lkzdwll4r3",191,"126.csv","","558","resources/trios/L1T4A1.jpg","38","restless",0.7,0.9,0.3,0.0447444066171037,"true"
"image-keyboard-response",60,94749,"0.0-3.16-1.16","4pac2lkzdwll4r3",191,"126.csv","","null","resources/maskTrios/BT4B.jpg","null","",NA,NA,NA,NA,""
"image-keyboard-response",61,95951,"0.0-3.16-2.16","4pac2lkzdwll4r3",191,"126.csv","","null","resources/images/coin2.png","null","",NA,NA,NA,NA,""
"image-keyboard-response",62,96056,"0.0-3.17-0.17","4pac2lkzdwll4r3",191,"126.csv","","104","resources/trios/L1T1A2.jpg","38","restless",0.7,0.8,0.3,0.909342729567358,"false"
"image-keyboard-response",63,96460,"0.0-3.17-1.17","4pac2lkzdwll4r3",191,"126.csv","","null","resources/maskTrios/BT1B.jpg","null","",NA,NA,NA,NA,""
"image-keyboard-response",64,97667,"0.0-3.17-2.17","4pac2lkzdwll4r3",191,"126.csv","","null","resources/images/fishbone.png","null","",NA,NA,NA,NA,""
"image-keyboard-response",65,98922,"0.0-3.18-0.18","4pac2lkzdwll4r3",191,"126.csv","","1254.4000000059605","resources/trios/L4T4A2.jpg","37","restless",0.6,0.8,0.3,0.51183377911132,"true"
"image-keyboard-response",66,99326,"0.0-3.18-1.18","4pac2lkzdwll4r3",191,"126.csv","","null","resources/maskTrios/L4BB.jpg","null","",NA,NA,NA,NA,""
"image-keyboard-response",67,100532,"0.0-3.18-2.18","4pac2lkzdwll4r3",191,"126.csv","","null","resources/images/coin2.png","null","",NA,NA,NA,NA,""
"image-keyboard-response",68,102804,"0.0-3.19-0.19","4pac2lkzdwll4r3",191,"126.csv","","2270.2000000029802","resources/trios/L1T1A2.jpg","38","restless",0.6,0.8,0.3,0.520612155290496,"true"
"image-keyboard-response",69,103206,"0.0-3.19-1.19","4pac2lkzdwll4r3",191,"126.csv","","null","resources/maskTrios/BT1B.jpg","null","",NA,NA,NA,NA,""
"image-keyboard-response",70,104412,"0.0-3.19-2.19","4pac2lkzdwll4r3",191,"126.csv","","null","resources/images/coin2.png","null","",NA,NA,NA,NA,""
"image-keyboard-response",71,104795,"0.0-3.20-0.20","4pac2lkzdwll4r3",191,"126.csv","","381.20000000298023","resources/trios/L4T1A1.jpg","38","restless",0.6,0.8,0.3,0.244007071234564,"true"
"image-keyboard-response",72,105200,"0.0-3.20-1.20","4pac2lkzdwll4r3",191,"126.csv","","null","resources/maskTrios/BT1B.jpg","null","",NA,NA,NA,NA,""
"image-keyboard-response",73,106401,"0.0-3.20-2.20","4pac2lkzdwll4r3",191,"126.csv","","null","resources/images/coin2.png","null","",NA,NA,NA,NA,""
"image-keyboard-response",74,107286,"0.0-3.21-0.21","4pac2lkzdwll4r3",191,"126.csv","","883.9000000059605","resources/trios/L1T4A1.jpg","37","restless",0.5,0.8,0.3,0.674243414047529,"false"
"image-keyboard-response",75,107688,"0.0-3.21-1.21","4pac2lkzdwll4r3",191,"126.csv","","null","resources/maskTrios/L1BB.jpg","null","",NA,NA,NA,NA,""
"image-keyboard-response",76,108893,"0.0-3.21-2.21","4pac2lkzdwll4r3",191,"126.csv","","null","resources/images/fishbone.png","null","",NA,NA,NA,NA,""
"image-keyboard-response",77,109896,"0.0-3.22-0.22","4pac2lkzdwll4r3",191,"126.csv","","1002.2999999970198","resources/trios/L1T4A2.jpg","39","restless",0.5,0.8,0.3,0.312818878944527,"false"
"image-keyboard-response",78,110300,"0.0-3.22-1.22","4pac2lkzdwll4r3",191,"126.csv","","null","resources/maskTrios/BBA2.jpg","null","",NA,NA,NA,NA,""
"image-keyboard-response",79,111503,"0.0-3.22-2.22","4pac2lkzdwll4r3",191,"126.csv","","null","resources/images/fishbone.png","null","",NA,NA,NA,NA,""
"image-keyboard-response",80,112519,"0.0-3.23-0.23","4pac2lkzdwll4r3",191,"126.csv","","1014.2000000029802","resources/trios/L1T1A2.jpg","38","restless",0.5,0.7,0.3,0.92150782802696,"false"
"image-keyboard-response",81,112923,"0.0-3.23-1.23","4pac2lkzdwll4r3",191,"126.csv","","null","resources/maskTrios/BT1B.jpg","null","",NA,NA,NA,NA,""
"image-keyboard-response",82,114126,"0.0-3.23-2.23","4pac2lkzdwll4r3",191,"126.csv","","null","resources/images/fishbone.png","null","",NA,NA,NA,NA,""
"image-keyboard-response",83,115219,"0.0-3.24-0.24","4pac2lkzdwll4r3",191,"126.csv","","1092.1000000089407","resources/trios/L4T1A2.jpg","37","restless",0.5,0.7,0.3,0.875737172301783,"false"
"image-keyboard-response",84,115623,"0.0-3.24-1.24","4pac2lkzdwll4r3",191,"126.csv","","null","resources/maskTrios/L4BB.jpg","null","",NA,NA,NA,NA,""
"image-keyboard-response",85,116826,"0.0-3.24-2.24","4pac2lkzdwll4r3",191,"126.csv","","null","resources/images/fishbone.png","null","",NA,NA,NA,NA,""
"image-keyboard-response",86,117908,"0.0-3.25-0.25","4pac2lkzdwll4r3",191,"126.csv","","1081","resources/trios/L4T4A1.jpg","38","restless",0.5,0.7,0.3,0.240026413276597,"true"
"image-keyboard-response",87,118314,"0.0-3.25-1.25","4pac2lkzdwll4r3",191,"126.csv","","null","resources/maskTrios/BT4B.jpg","null","",NA,NA,NA,NA,""
"image-keyboard-response",88,119518,"0.0-3.25-2.25","4pac2lkzdwll4r3",191,"126.csv","","null","resources/images/coin2.png","null","",NA,NA,NA,NA,""
"image-keyboard-response",89,120503,"0.0-3.26-0.26","4pac2lkzdwll4r3",191,"126.csv","","983.0999999940395","resources/trios/L4T1A1.jpg","37","restless",0.5,0.7,0.3,0.180535189958938,"true"
"image-keyboard-response",90,120906,"0.0-3.26-1.26","4pac2lkzdwll4r3",191,"126.csv","","null","resources/maskTrios/L4BB.jpg","null","",NA,NA,NA,NA,""
"image-keyboard-response",91,122110,"0.0-3.26-2.26","4pac2lkzdwll4r3",191,"126.csv","","null","resources/images/coin2.png","null","",NA,NA,NA,NA,""
"image-keyboard-response",92,122825,"0.0-3.27-0.27","4pac2lkzdwll4r3",191,"126.csv","","713.5","resources/trios/L4T4A2.jpg","38","restless",0.5,0.7,0.3,0.262725940317889,"true"
"image-keyboard-response",93,123231,"0.0-3.27-1.27","4pac2lkzdwll4r3",191,"126.csv","","null","resources/maskTrios/BT4B.jpg","null","",NA,NA,NA,NA,""
"image-keyboard-response",94,124433,"0.0-3.27-2.27","4pac2lkzdwll4r3",191,"126.csv","","null","resources/images/coin2.png","null","",NA,NA,NA,NA,""
"image-keyboard-response",95,126441,"0.0-3.28-0.28","4pac2lkzdwll4r3",191,"126.csv","","2007.5999999940395","resources/trios/L1T1A2.jpg","38","restless",0.5,0.7,0.3,0.310338177902969,"true"
"image-keyboard-response",96,126843,"0.0-3.28-1.28","4pac2lkzdwll4r3",191,"126.csv","","null","resources/maskTrios/BT1B.jpg","null","",NA,NA,NA,NA,""
"image-keyboard-response",97,128050,"0.0-3.28-2.28","4pac2lkzdwll4r3",191,"126.csv","","null","resources/images/coin2.png","null","",NA,NA,NA,NA,""
"image-keyboard-response",98,128626,"0.0-3.29-0.29","4pac2lkzdwll4r3",191,"126.csv","","574.7000000029802","resources/trios/L4T1A1.jpg","38","restless",0.5,0.7,0.3,0.78709821681889,"false"
"image-keyboard-response",99,129032,"0.0-3.29-1.29","4pac2lkzdwll4r3",191,"126.csv","","null","resources/maskTrios/BT1B.jpg","null","",NA,NA,NA,NA,""
"image-keyboard-response",100,130235,"0.0-3.29-2.29","4pac2lkzdwll4r3",191,"126.csv","","null","resources/images/fishbone.png","null","",NA,NA,NA,NA,""
"image-keyboard-response",101,131223,"0.0-3.30-0.30","4pac2lkzdwll4r3",191,"126.csv","","986","resources/trios/L4T4A1.jpg","38","restless",0.5,0.7,0.3,0.906554654211952,"false"
"image-keyboard-response",102,131627,"0.0-3.30-1.30","4pac2lkzdwll4r3",191,"126.csv","","null","resources/maskTrios/BT4B.jpg","null","",NA,NA,NA,NA,""
"image-keyboard-response",103,132832,"0.0-3.30-2.30","4pac2lkzdwll4r3",191,"126.csv","","null","resources/images/fishbone.png","null","",NA,NA,NA,NA,""
"image-keyboard-response",104,133479,"0.0-3.31-0.31","4pac2lkzdwll4r3",191,"126.csv","","645.7999999970198","resources/trios/L4T1A1.jpg","38","restless",0.5,0.7,0.3,0.959543822274104,"false"
"image-keyboard-response",105,133884,"0.0-3.31-1.31","4pac2lkzdwll4r3",191,"126.csv","","null","resources/maskTrios/BT1B.jpg","null","",NA,NA,NA,NA,""
"image-keyboard-response",106,135086,"0.0-3.31-2.31","4pac2lkzdwll4r3",191,"126.csv","","null","resources/images/fishbone.png","null","",NA,NA,NA,NA,""
"image-keyboard-response",107,136272,"0.0-3.32-0.32","4pac2lkzdwll4r3",191,"126.csv","","1185","resources/trios/L4T1A2.jpg","38","restless",0.5,0.7,0.3,0.575643984343225,"true"
"image-keyboard-response",108,136675,"0.0-3.32-1.32","4pac2lkzdwll4r3",191,"126.csv","","null","resources/maskTrios/BT1B.jpg","null","",NA,NA,NA,NA,""
"image-keyboard-response",109,137881,"0.0-3.32-2.32","4pac2lkzdwll4r3",191,"126.csv","","null","resources/images/coin2.png","null","",NA,NA,NA,NA,""
"image-keyboard-response",110,138972,"0.0-3.33-0.33","4pac2lkzdwll4r3",191,"126.csv","","1089.5","resources/trios/L4T4A1.jpg","38","restless",0.5,0.7,0.3,0.822893369816411,"false"
"image-keyboard-response",111,139378,"0.0-3.33-1.33","4pac2lkzdwll4r3",191,"126.csv","","null","resources/maskTrios/BT4B.jpg","null","",NA,NA,NA,NA,""
"image-keyboard-response",112,140582,"0.0-3.33-2.33","4pac2lkzdwll4r3",191,"126.csv","","null","resources/images/fishbone.png","null","",NA,NA,NA,NA,""
"image-keyboard-response",113,141180,"0.0-3.34-0.34","4pac2lkzdwll4r3",191,"126.csv","","596.7999999970198","resources/trios/L4T4A2.jpg","37","restless",0.5,0.7,0.3,0.66342651059178,"false"
"image-keyboard-response",114,141586,"0.0-3.34-1.34","4pac2lkzdwll4r3",191,"126.csv","","null","resources/maskTrios/L4BB.jpg","null","",NA,NA,NA,NA,""
"image-keyboard-response",115,142791,"0.0-3.34-2.34","4pac2lkzdwll4r3",191,"126.csv","","null","resources/images/fishbone.png","null","",NA,NA,NA,NA,""
"image-keyboard-response",116,143550,"0.0-3.35-0.35","4pac2lkzdwll4r3",191,"126.csv","","758.4000000059605","resources/trios/L4T4A1.jpg","39","restless",0.5,0.7,0.3,0.203905598826134,"true"
"image-keyboard-response",117,143956,"0.0-3.35-1.35","4pac2lkzdwll4r3",191,"126.csv","","null","resources/maskTrios/BBA1.jpg","null","",NA,NA,NA,NA,""
"image-keyboard-response",118,145157,"0.0-3.35-2.35","4pac2lkzdwll4r3",191,"126.csv","","null","resources/images/coin2.png","null","",NA,NA,NA,NA,""
"image-keyboard-response",119,145544,"0.0-3.36-0.36","4pac2lkzdwll4r3",191,"126.csv","","386","resources/trios/L4T1A2.jpg","39","restless",0.5,0.7,0.3,0.639180578924248,"false"
"image-keyboard-response",120,145948,"0.0-3.36-1.36","4pac2lkzdwll4r3",191,"126.csv","","null","resources/maskTrios/BBA2.jpg","null","",NA,NA,NA,NA,""
"image-keyboard-response",121,147150,"0.0-3.36-2.36","4pac2lkzdwll4r3",191,"126.csv","","null","resources/images/fishbone.png","null","",NA,NA,NA,NA,""
"image-keyboard-response",122,147691,"0.0-3.37-0.37","4pac2lkzdwll4r3",191,"126.csv","","539.5999999940395","resources/trios/L1T1A2.jpg","39","restless",0.5,0.7,0.3,0.0189686977104009,"true"
"image-keyboard-response",123,148093,"0.0-3.37-1.37","4pac2lkzdwll4r3",191,"126.csv","","null","resources/maskTrios/BBA2.jpg","null","",NA,NA,NA,NA,""
"image-keyboard-response",124,149300,"0.0-3.37-2.37","4pac2lkzdwll4r3",191,"126.csv","","null","resources/images/coin2.png","null","",NA,NA,NA,NA,""
"image-keyboard-response",125,150918,"0.0-3.38-0.38","4pac2lkzdwll4r3",191,"126.csv","","1616.7000000029802","resources/trios/L4T4A2.jpg","39","restless",0.5,0.7,0.3,0.507763280030253,"false"
"image-keyboard-response",126,151322,"0.0-3.38-1.38","4pac2lkzdwll4r3",191,"126.csv","","null","resources/maskTrios/BBA2.jpg","null","",NA,NA,NA,NA,""
"image-keyboard-response",127,152526,"0.0-3.38-2.38","4pac2lkzdwll4r3",191,"126.csv","","null","resources/images/fishbone.png","null","",NA,NA,NA,NA,""
"image-keyboard-response",128,153313,"0.0-3.39-0.39","4pac2lkzdwll4r3",191,"126.csv","","786","resources/trios/L4T4A2.jpg","38","restless",0.5,0.7,0.3,0.334248942555323,"true"
"image-keyboard-response",129,153716,"0.0-3.39-1.39","4pac2lkzdwll4r3",191,"126.csv","","null","resources/maskTrios/BT4B.jpg","null","",NA,NA,NA,NA,""
"image-keyboard-response",130,154920,"0.0-3.39-2.39","4pac2lkzdwll4r3",191,"126.csv","","null","resources/images/coin2.png","null","",NA,NA,NA,NA,""
"image-keyboard-response",131,156658,"0.0-3.40-0.40","4pac2lkzdwll4r3",191,"126.csv","","1736.7000000029802","resources/trios/L1T1A1.jpg","38","restless",0.5,0.7,0.3,0.238209141236314,"true"
"image-keyboard-response",132,157064,"0.0-3.40-1.40","4pac2lkzdwll4r3",191,"126.csv","","null","resources/maskTrios/BT1B.jpg","null","",NA,NA,NA,NA,""
"image-keyboard-response",133,158268,"0.0-3.40-2.40","4pac2lkzdwll4r3",191,"126.csv","","null","resources/images/coin2.png","null","",NA,NA,NA,NA,""
"image-keyboard-response",134,158799,"0.0-3.41-0.41","4pac2lkzdwll4r3",191,"126.csv","","529.2999999970198","resources/trios/L1T1A2.jpg","38","restless",0.4,0.7,0.3,0.812785112602315,"false"
"image-keyboard-response",135,159201,"0.0-3.41-1.41","4pac2lkzdwll4r3",191,"126.csv","","null","resources/maskTrios/BT1B.jpg","null","",NA,NA,NA,NA,""
"image-keyboard-response",136,160405,"0.0-3.41-2.41","4pac2lkzdwll4r3",191,"126.csv","","null","resources/images/fishbone.png","null","",NA,NA,NA,NA,""
"image-keyboard-response",137,162031,"0.0-3.42-0.42","4pac2lkzdwll4r3",191,"126.csv","","1624.699999988079","resources/trios/L4T4A2.jpg","38","restless",0.4,0.6,0.3,0.730419027513385,"false"
"image-keyboard-response",138,162436,"0.0-3.42-1.42","4pac2lkzdwll4r3",191,"126.csv","","null","resources/maskTrios/BT4B.jpg","null","",NA,NA,NA,NA,""
"image-keyboard-response",139,163638,"0.0-3.42-2.42","4pac2lkzdwll4r3",191,"126.csv","","null","resources/images/fishbone.png","null","",NA,NA,NA,NA,""
"image-keyboard-response",140,164892,"0.0-3.43-0.43","4pac2lkzdwll4r3",191,"126.csv","","1252.800000011921","resources/trios/L1T1A2.jpg","38","restless",0.4,0.6,0.3,0.712146315906713,"false"
"image-keyboard-response",141,165294,"0.0-3.43-1.43","4pac2lkzdwll4r3",191,"126.csv","","null","resources/maskTrios/BT1B.jpg","null","",NA,NA,NA,NA,""
"image-keyboard-response",142,166498,"0.0-3.43-2.43","4pac2lkzdwll4r3",191,"126.csv","","null","resources/images/fishbone.png","null","",NA,NA,NA,NA,""
"image-keyboard-response",143,167866,"0.0-3.44-0.44","4pac2lkzdwll4r3",191,"126.csv","","1366.7000000029802","resources/trios/L1T4A1.jpg","37","restless",0.4,0.6,0.3,0.102706147877069,"true"
"image-keyboard-response",144,168271,"0.0-3.44-1.44","4pac2lkzdwll4r3",191,"126.csv","","null","resources/maskTrios/L1BB.jpg","null","",NA,NA,NA,NA,""
"image-keyboard-response",145,169476,"0.0-3.44-2.44","4pac2lkzdwll4r3",191,"126.csv","","null","resources/images/coin2.png","null","",NA,NA,NA,NA,""
"image-keyboard-response",146,171101,"0.0-3.45-0.45","4pac2lkzdwll4r3",191,"126.csv","","1623.5","resources/trios/L1T1A2.jpg","37","restless",0.4,0.6,0.3,0.407194282987189,"false"
"image-keyboard-response",147,171506,"0.0-3.45-1.45","4pac2lkzdwll4r3",191,"126.csv","","null","resources/maskTrios/L1BB.jpg","null","",NA,NA,NA,NA,""
"image-keyboard-response",148,172709,"0.0-3.45-2.45","4pac2lkzdwll4r3",191,"126.csv","","null","resources/images/fishbone.png","null","",NA,NA,NA,NA,""
"image-keyboard-response",149,173749,"0.0-3.46-0.46","4pac2lkzdwll4r3",191,"126.csv","","1038.4000000059605","resources/trios/L1T4A1.jpg","38","restless",0.4,0.6,0.3,0.808019702252231,"false"
"image-keyboard-response",150,174151,"0.0-3.46-1.46","4pac2lkzdwll4r3",191,"126.csv","","null","resources/maskTrios/BT4B.jpg","null","",NA,NA,NA,NA,""
"image-keyboard-response",151,175355,"0.0-3.46-2.46","4pac2lkzdwll4r3",191,"126.csv","","null","resources/images/fishbone.png","null","",NA,NA,NA,NA,""
"image-keyboard-response",152,176060,"0.0-3.47-0.47","4pac2lkzdwll4r3",191,"126.csv","","703.9000000059605","resources/trios/L4T4A1.jpg","38","restless",0.4,0.6,0.3,0.2115514632098,"true"
"image-keyboard-response",153,176463,"0.0-3.47-1.47","4pac2lkzdwll4r3",191,"126.csv","","null","resources/maskTrios/BT4B.jpg","null","",NA,NA,NA,NA,""
"image-keyboard-response",154,177668,"0.0-3.47-2.47","4pac2lkzdwll4r3",191,"126.csv","","null","resources/images/coin2.png","null","",NA,NA,NA,NA,""
"image-keyboard-response",155,178638,"0.0-3.48-0.48","4pac2lkzdwll4r3",191,"126.csv","","968.8999999910593","resources/trios/L1T1A2.jpg","39","restless",0.4,0.6,0.3,0.954014365544985,"false"
"image-keyboard-response",156,179043,"0.0-3.48-1.48","4pac2lkzdwll4r3",191,"126.csv","","null","resources/maskTrios/BBA2.jpg","null","",NA,NA,NA,NA,""
"image-keyboard-response",157,180247,"0.0-3.48-2.48","4pac2lkzdwll4r3",191,"126.csv","","null","resources/images/fishbone.png","null","",NA,NA,NA,NA,""
"image-keyboard-response",158,180986,"0.0-3.49-0.49","4pac2lkzdwll4r3",191,"126.csv","","737.9000000059605","resources/trios/L4T1A1.jpg","38","restless",0.4,0.7,0.3,0.069059141942704,"true"
"image-keyboard-response",159,181392,"0.0-3.49-1.49","4pac2lkzdwll4r3",191,"126.csv","","null","resources/maskTrios/BT1B.jpg","null","",NA,NA,NA,NA,""
"image-keyboard-response",160,182596,"0.0-3.49-2.49","4pac2lkzdwll4r3",191,"126.csv","","null","resources/images/coin2.png","null","",NA,NA,NA,NA,""
"image-keyboard-response",161,184061,"0.0-3.50-0.50","4pac2lkzdwll4r3",191,"126.csv","","1464.1000000089407","resources/trios/L4T4A2.jpg","38","restless",0.4,0.7,0.3,0.685465112922939,"true"
"image-keyboard-response",162,184467,"0.0-3.50-1.50","4pac2lkzdwll4r3",191,"126.csv","","null","resources/maskTrios/BT4B.jpg","null","",NA,NA,NA,NA,""
"image-keyboard-response",163,185671,"0.0-3.50-2.50","4pac2lkzdwll4r3",191,"126.csv","","null","resources/images/coin2.png","null","",NA,NA,NA,NA,""
"image-keyboard-response",164,186399,"0.0-3.51-0.51","4pac2lkzdwll4r3",191,"126.csv","","726.5999999940395","resources/trios/L4T4A2.jpg","38","restless",0.4,0.7,0.3,0.587157931005994,"true"
"image-keyboard-response",165,186801,"0.0-3.51-1.51","4pac2lkzdwll4r3",191,"126.csv","","null","resources/maskTrios/BT4B.jpg","null","",NA,NA,NA,NA,""
"image-keyboard-response",166,188004,"0.0-3.51-2.51","4pac2lkzdwll4r3",191,"126.csv","","null","resources/images/coin2.png","null","",NA,NA,NA,NA,""
"image-keyboard-response",167,188792,"0.0-3.52-0.52","4pac2lkzdwll4r3",191,"126.csv","","786.7999999970198","resources/trios/L4T1A1.jpg","38","restless",0.4,0.7,0.3,0.426800153146348,"true"
"image-keyboard-response",168,189195,"0.0-3.52-1.52","4pac2lkzdwll4r3",191,"126.csv","","null","resources/maskTrios/BT1B.jpg","null","",NA,NA,NA,NA,""
"image-keyboard-response",169,190400,"0.0-3.52-2.52","4pac2lkzdwll4r3",191,"126.csv","","null","resources/images/coin2.png","null","",NA,NA,NA,NA,""
"image-keyboard-response",170,191166,"0.0-3.53-0.53","4pac2lkzdwll4r3",191,"126.csv","","765.2999999970198","resources/trios/L4T4A2.jpg","39","restless",0.5,0.7,0.3,0.20523128162676,"true"
"image-keyboard-response",171,191568,"0.0-3.53-1.53","4pac2lkzdwll4r3",191,"126.csv","","null","resources/maskTrios/BBA2.jpg","null","",NA,NA,NA,NA,""
"image-keyboard-response",172,192773,"0.0-3.53-2.53","4pac2lkzdwll4r3",191,"126.csv","","null","resources/images/coin2.png","null","",NA,NA,NA,NA,""
"image-keyboard-response",173,193290,"0.0-3.54-0.54","4pac2lkzdwll4r3",191,"126.csv","","515.7000000029802","resources/trios/L4T4A1.jpg","38","restless",0.5,0.7,0.3,0.595328219676786,"true"
"image-keyboard-response",174,193697,"0.0-3.54-1.54","4pac2lkzdwll4r3",191,"126.csv","","null","resources/maskTrios/BT4B.jpg","null","",NA,NA,NA,NA,""
"image-keyboard-response",175,194898,"0.0-3.54-2.54","4pac2lkzdwll4r3",191,"126.csv","","null","resources/images/coin2.png","null","",NA,NA,NA,NA,""
"image-keyboard-response",176,195393,"0.0-3.55-0.55","4pac2lkzdwll4r3",191,"126.csv","","493.90000000596046","resources/trios/L4T4A2.jpg","38","restless",0.5,0.6,0.3,0.556938243111305,"true"
"image-keyboard-response",177,195796,"0.0-3.55-1.55","4pac2lkzdwll4r3",191,"126.csv","","null","resources/maskTrios/BT4B.jpg","null","",NA,NA,NA,NA,""
"image-keyboard-response",178,197000,"0.0-3.55-2.55","4pac2lkzdwll4r3",191,"126.csv","","null","resources/images/coin2.png","null","",NA,NA,NA,NA,""
"image-keyboard-response",179,198463,"0.0-3.56-0.56","4pac2lkzdwll4r3",191,"126.csv","","1462","resources/trios/L4T1A2.jpg","37","restless",0.5,0.6,0.3,0.746847866870867,"false"
"image-keyboard-response",180,198865,"0.0-3.56-1.56","4pac2lkzdwll4r3",191,"126.csv","","null","resources/maskTrios/L4BB.jpg","null","",NA,NA,NA,NA,""
"image-keyboard-response",181,200067,"0.0-3.56-2.56","4pac2lkzdwll4r3",191,"126.csv","","null","resources/images/fishbone.png","null","",NA,NA,NA,NA,""
"image-keyboard-response",182,200461,"0.0-3.57-0.57","4pac2lkzdwll4r3",191,"126.csv","","392.40000000596046","resources/trios/L1T4A2.jpg","38","restless",0.5,0.6,0.3,0.345672839927469,"true"
"image-keyboard-response",183,200867,"0.0-3.57-1.57","4pac2lkzdwll4r3",191,"126.csv","","null","resources/maskTrios/BT4B.jpg","null","",NA,NA,NA,NA,""
"image-keyboard-response",184,202074,"0.0-3.57-2.57","4pac2lkzdwll4r3",191,"126.csv","","null","resources/images/coin2.png","null","",NA,NA,NA,NA,""
"image-keyboard-response",185,202500,"0.0-3.58-0.58","4pac2lkzdwll4r3",191,"126.csv","","424.6000000089407","resources/trios/L4T1A2.jpg","38","restless",0.5,0.6,0.3,0.777447624594384,"false"
"image-keyboard-response",186,202901,"0.0-3.58-1.58","4pac2lkzdwll4r3",191,"126.csv","","null","resources/maskTrios/BT1B.jpg","null","",NA,NA,NA,NA,""
"image-keyboard-response",187,204107,"0.0-3.58-2.58","4pac2lkzdwll4r3",191,"126.csv","","null","resources/images/fishbone.png","null","",NA,NA,NA,NA,""
"image-keyboard-response",188,204869,"0.0-3.59-0.59","4pac2lkzdwll4r3",191,"126.csv","","760.3999999910593","resources/trios/L1T4A1.jpg","38","restless",0.5,0.6,0.3,0.309539404867942,"true"
"image-keyboard-response",189,205273,"0.0-3.59-1.59","4pac2lkzdwll4r3",191,"126.csv","","null","resources/maskTrios/BT4B.jpg","null","",NA,NA,NA,NA,""
"image-keyboard-response",190,206475,"0.0-3.59-2.59","4pac2lkzdwll4r3",191,"126.csv","","null","resources/images/coin2.png","null","",NA,NA,NA,NA,""
"image-keyboard-response",191,207019,"0.0-3.60-0.60","4pac2lkzdwll4r3",191,"126.csv","","543.2000000029802","resources/trios/L4T4A2.jpg","38","restless",0.5,0.6,0.3,0.0346755736982414,"true"
"image-keyboard-response",192,207422,"0.0-3.60-1.60","4pac2lkzdwll4r3",191,"126.csv","","null","resources/maskTrios/BT4B.jpg","null","",NA,NA,NA,NA,""
"image-keyboard-response",193,208626,"0.0-3.60-2.60","4pac2lkzdwll4r3",191,"126.csv","","null","resources/images/coin2.png","null","",NA,NA,NA,NA,""
"image-keyboard-response",194,209203,"0.0-3.61-0.61","4pac2lkzdwll4r3",191,"126.csv","","575.5","resources/trios/L1T4A1.jpg","38","restless",0.5,0.6,0.3,0.277151882589199,"true"
"image-keyboard-response",195,209607,"0.0-3.61-1.61","4pac2lkzdwll4r3",191,"126.csv","","null","resources/maskTrios/BT4B.jpg","null","",NA,NA,NA,NA,""
"image-keyboard-response",196,210810,"0.0-3.61-2.61","4pac2lkzdwll4r3",191,"126.csv","","null","resources/images/coin2.png","null","",NA,NA,NA,NA,""
"image-keyboard-response",197,211371,"0.0-3.62-0.62","4pac2lkzdwll4r3",191,"126.csv","","559.7999999970198","resources/trios/L1T4A1.jpg","39","restless",0.5,0.6,0.3,0.418273461103828,"false"
"image-keyboard-response",198,211777,"0.0-3.62-1.62","4pac2lkzdwll4r3",191,"126.csv","","null","resources/maskTrios/BBA1.jpg","null","",NA,NA,NA,NA,""
"image-keyboard-response",199,212981,"0.0-3.62-2.62","4pac2lkzdwll4r3",191,"126.csv","","null","resources/images/fishbone.png","null","",NA,NA,NA,NA,""
"image-keyboard-response",200,213290,"0.0-3.63-0.63","4pac2lkzdwll4r3",191,"126.csv","","307.20000000298023","resources/trios/L4T4A2.jpg","38","restless",0.5,0.6,0.3,0.362449139180067,"true"
"image-keyboard-response",201,213692,"0.0-3.63-1.63","4pac2lkzdwll4r3",191,"126.csv","","null","resources/maskTrios/BT4B.jpg","null","",NA,NA,NA,NA,""
"image-keyboard-response",202,214894,"0.0-3.63-2.63","4pac2lkzdwll4r3",191,"126.csv","","null","resources/images/coin2.png","null","",NA,NA,NA,NA,""
"image-keyboard-response",203,215165,"0.0-3.64-0.64","4pac2lkzdwll4r3",191,"126.csv","","270.29999999701977","resources/trios/L1T4A2.jpg","38","restless",0.5,0.5,0.3,0.674533117554991,"false"
"image-keyboard-response",204,215569,"0.0-3.64-1.64","4pac2lkzdwll4r3",191,"126.csv","","null","resources/maskTrios/BT4B.jpg","null","",NA,NA,NA,NA,""
"image-keyboard-response",205,216774,"0.0-3.64-2.64","4pac2lkzdwll4r3",191,"126.csv","","null","resources/images/fishbone.png","null","",NA,NA,NA,NA,""
"image-keyboard-response",206,217086,"0.0-3.65-0.65","4pac2lkzdwll4r3",191,"126.csv","","310.29999999701977","resources/trios/L4T1A2.jpg","38","restless",0.5,0.5,0.3,0.0485187044616975,"true"
"image-keyboard-response",207,217487,"0.0-3.65-1.65","4pac2lkzdwll4r3",191,"126.csv","","null","resources/maskTrios/BT1B.jpg","null","",NA,NA,NA,NA,""
"image-keyboard-response",208,218692,"0.0-3.65-2.65","4pac2lkzdwll4r3",191,"126.csv","","null","resources/images/coin2.png","null","",NA,NA,NA,NA,""
"image-keyboard-response",209,219066,"0.0-3.66-0.66","4pac2lkzdwll4r3",191,"126.csv","","372.6000000089407","resources/trios/L1T4A1.jpg","38","restless",0.5,0.5,0.2,0.513383476149954,"false"
"image-keyboard-response",210,219468,"0.0-3.66-1.66","4pac2lkzdwll4r3",191,"126.csv","","null","resources/maskTrios/BT4B.jpg","null","",NA,NA,NA,NA,""
"image-keyboard-response",211,220672,"0.0-3.66-2.66","4pac2lkzdwll4r3",191,"126.csv","","null","resources/images/fishbone.png","null","",NA,NA,NA,NA,""
"image-keyboard-response",212,220926,"0.0-3.67-0.67","4pac2lkzdwll4r3",191,"126.csv","","252.40000000596046","resources/trios/L4T1A1.jpg","38","restless",0.5,0.5,0.2,0.215098658460044,"true"
"image-keyboard-response",213,221332,"0.0-3.67-1.67","4pac2lkzdwll4r3",191,"126.csv","","null","resources/maskTrios/BT1B.jpg","null","",NA,NA,NA,NA,""
"image-keyboard-response",214,222535,"0.0-3.67-2.67","4pac2lkzdwll4r3",191,"126.csv","","null","resources/images/coin2.png","null","",NA,NA,NA,NA,""
"image-keyboard-response",215,222814,"0.0-3.68-0.68","4pac2lkzdwll4r3",191,"126.csv","","278.29999999701977","resources/trios/L4T4A1.jpg","38","restless",0.5,0.5,0.2,0.779083534544598,"false"
"image-keyboard-response",216,223221,"0.0-3.68-1.68","4pac2lkzdwll4r3",191,"126.csv","","null","resources/maskTrios/BT4B.jpg","null","",NA,NA,NA,NA,""
"image-keyboard-response",217,224423,"0.0-3.68-2.68","4pac2lkzdwll4r3",191,"126.csv","","null","resources/images/fishbone.png","null","",NA,NA,NA,NA,""
"image-keyboard-response",218,224774,"0.0-3.69-0.69","4pac2lkzdwll4r3",191,"126.csv","","349.40000000596046","resources/trios/L4T1A1.jpg","38","restless",0.5,0.5,0.3,0.530409181099064,"false"
"image-keyboard-response",219,225177,"0.0-3.69-1.69","4pac2lkzdwll4r3",191,"126.csv","","null","resources/maskTrios/BT1B.jpg","null","",NA,NA,NA,NA,""
"image-keyboard-response",220,226380,"0.0-3.69-2.69","4pac2lkzdwll4r3",191,"126.csv","","null","resources/images/fishbone.png","null","",NA,NA,NA,NA,""
"image-keyboard-response",221,226987,"0.0-3.70-0.70","4pac2lkzdwll4r3",191,"126.csv","","605.5","resources/trios/L1T1A2.jpg","37","restless",0.5,0.5,0.3,0.0172197535941552,"true"
"image-keyboard-response",222,227392,"0.0-3.70-1.70","4pac2lkzdwll4r3",191,"126.csv","","null","resources/maskTrios/L1BB.jpg","null","",NA,NA,NA,NA,""
"image-keyboard-response",223,228597,"0.0-3.70-2.70","4pac2lkzdwll4r3",191,"126.csv","","null","resources/images/coin2.png","null","",NA,NA,NA,NA,""
"image-keyboard-response",224,229034,"0.0-3.71-0.71","4pac2lkzdwll4r3",191,"126.csv","","435.79999999701977","resources/trios/L1T4A1.jpg","37","restless",0.5,0.5,0.3,0.65546697447794,"false"
"image-keyboard-response",225,229437,"0.0-3.71-1.71","4pac2lkzdwll4r3",191,"126.csv","","null","resources/maskTrios/L1BB.jpg","null","",NA,NA,NA,NA,""
"image-keyboard-response",226,230640,"0.0-3.71-2.71","4pac2lkzdwll4r3",191,"126.csv","","null","resources/images/fishbone.png","null","",NA,NA,NA,NA,""
"image-keyboard-response",227,230970,"0.0-3.72-0.72","4pac2lkzdwll4r3",191,"126.csv","","328.29999999701977","resources/trios/L1T1A1.jpg","38","restless",0.6,0.6,0.3,0.206551668557652,"true"
"image-keyboard-response",228,231376,"0.0-3.72-1.72","4pac2lkzdwll4r3",191,"126.csv","","null","resources/maskTrios/BT1B.jpg","null","",NA,NA,NA,NA,""
"image-keyboard-response",229,232581,"0.0-3.72-2.72","4pac2lkzdwll4r3",191,"126.csv","","null","resources/images/coin2.png","null","",NA,NA,NA,NA,""
"image-keyboard-response",230,232944,"0.0-3.73-0.73","4pac2lkzdwll4r3",191,"126.csv","","362","resources/trios/L4T4A1.jpg","38","restless",0.6,0.6,0.3,0.366514181058108,"true"
"image-keyboard-response",231,233347,"0.0-3.73-1.73","4pac2lkzdwll4r3",191,"126.csv","","null","resources/maskTrios/BT4B.jpg","null","",NA,NA,NA,NA,""
"image-keyboard-response",232,234552,"0.0-3.73-2.73","4pac2lkzdwll4r3",191,"126.csv","","null","resources/images/coin2.png","null","",NA,NA,NA,NA,""
"image-keyboard-response",233,235084,"0.0-3.74-0.74","4pac2lkzdwll4r3",191,"126.csv","","531.2000000029802","resources/trios/L4T4A1.jpg","38","restless",0.6,0.6,0.3,0.0153635625266777,"true"
"image-keyboard-response",234,235488,"0.0-3.74-1.74","4pac2lkzdwll4r3",191,"126.csv","","null","resources/maskTrios/BT4B.jpg","null","",NA,NA,NA,NA,""
"image-keyboard-response",235,236691,"0.0-3.74-2.74","4pac2lkzdwll4r3",191,"126.csv","","null","resources/images/coin2.png","null","",NA,NA,NA,NA,""
"image-keyboard-response",236,237097,"0.0-3.75-0.75","4pac2lkzdwll4r3",191,"126.csv","","404.29999999701977","resources/trios/L1T4A1.jpg","39","restless",0.5,0.6,0.3,0.0902148666643854,"true"
"image-keyboard-response",237,237502,"0.0-3.75-1.75","4pac2lkzdwll4r3",191,"126.csv","","null","resources/maskTrios/BBA1.jpg","null","",NA,NA,NA,NA,""
"image-keyboard-response",238,238705,"0.0-3.75-2.75","4pac2lkzdwll4r3",191,"126.csv","","null","resources/images/coin2.png","null","",NA,NA,NA,NA,""
"image-keyboard-response",239,239070,"0.0-3.76-0.76","4pac2lkzdwll4r3",191,"126.csv","","364.20000000298023","resources/trios/L4T1A1.jpg","37","restless",0.5,0.6,0.3,0.996261720158308,"false"
"image-keyboard-response",240,239474,"0.0-3.76-1.76","4pac2lkzdwll4r3",191,"126.csv","","null","resources/maskTrios/L4BB.jpg","null","",NA,NA,NA,NA,""
"image-keyboard-response",241,240680,"0.0-3.76-2.76","4pac2lkzdwll4r3",191,"126.csv","","null","resources/images/fishbone.png","null","",NA,NA,NA,NA,""
"image-keyboard-response",242,240944,"0.0-3.77-0.77","4pac2lkzdwll4r3",191,"126.csv","","262.20000000298023","resources/trios/L4T4A1.jpg","38","restless",0.5,0.6,0.3,0.936740238730119,"false"
"image-keyboard-response",243,241346,"0.0-3.77-1.77","4pac2lkzdwll4r3",191,"126.csv","","null","resources/maskTrios/BT4B.jpg","null","",NA,NA,NA,NA,""
"image-keyboard-response",244,242550,"0.0-3.77-2.77","4pac2lkzdwll4r3",191,"126.csv","","null","resources/images/fishbone.png","null","",NA,NA,NA,NA,""
"image-keyboard-response",245,242862,"0.0-3.78-0.78","4pac2lkzdwll4r3",191,"126.csv","","310.5","resources/trios/L1T4A1.jpg","38","restless",0.5,0.6,0.3,0.00335608393697795,"true"
"image-keyboard-response",246,243264,"0.0-3.78-1.78","4pac2lkzdwll4r3",191,"126.csv","","null","resources/maskTrios/BT4B.jpg","null","",NA,NA,NA,NA,""
"image-keyboard-response",247,244467,"0.0-3.78-2.78","4pac2lkzdwll4r3",191,"126.csv","","null","resources/images/coin2.png","null","",NA,NA,NA,NA,""
"image-keyboard-response",248,245094,"0.0-3.79-0.79","4pac2lkzdwll4r3",191,"126.csv","","626.2999999970198","resources/trios/L1T4A2.jpg","38","restless",0.5,0.6,0.3,0.288035911177511,"true"
"image-keyboard-response",249,245498,"0.0-3.79-1.79","4pac2lkzdwll4r3",191,"126.csv","","null","resources/maskTrios/BT4B.jpg","null","",NA,NA,NA,NA,""
"image-keyboard-response",250,246705,"0.0-3.79-2.79","4pac2lkzdwll4r3",191,"126.csv","","null","resources/images/coin2.png","null","",NA,NA,NA,NA,""
"image-keyboard-response",251,246994,"0.0-3.80-0.80","4pac2lkzdwll4r3",191,"126.csv","","288.5","resources/trios/L4T1A2.jpg","38","restless",0.5,0.6,0.3,0.563909778357273,"true"
"image-keyboard-response",252,247399,"0.0-3.80-1.80","4pac2lkzdwll4r3",191,"126.csv","","null","resources/maskTrios/BT1B.jpg","null","",NA,NA,NA,NA,""
"image-keyboard-response",253,248603,"0.0-3.80-2.80","4pac2lkzdwll4r3",191,"126.csv","","null","resources/images/coin2.png","null","",NA,NA,NA,NA,""
"image-keyboard-response",254,248896,"0.0-3.81-0.81","4pac2lkzdwll4r3",191,"126.csv","","291.90000000596046","resources/trios/L1T1A1.jpg","38","restless",0.5,0.6,0.3,0.718878901539626,"false"
"image-keyboard-response",255,249299,"0.0-3.81-1.81","4pac2lkzdwll4r3",191,"126.csv","","null","resources/maskTrios/BT1B.jpg","null","",NA,NA,NA,NA,""
"image-keyboard-response",256,250501,"0.0-3.81-2.81","4pac2lkzdwll4r3",191,"126.csv","","null","resources/images/fishbone.png","null","",NA,NA,NA,NA,""
"image-keyboard-response",257,250769,"0.0-3.82-0.82","4pac2lkzdwll4r3",191,"126.csv","","267.1000000089407","resources/trios/L1T1A1.jpg","39","restless",0.5,0.6,0.3,8.67563387432213e-05,"true"
"image-keyboard-response",258,251172,"0.0-3.82-1.82","4pac2lkzdwll4r3",191,"126.csv","","null","resources/maskTrios/BBA1.jpg","null","",NA,NA,NA,NA,""
"image-keyboard-response",259,252375,"0.0-3.82-2.82","4pac2lkzdwll4r3",191,"126.csv","","null","resources/images/coin2.png","null","",NA,NA,NA,NA,""
"image-keyboard-response",260,253716,"0.0-3.83-0.83","4pac2lkzdwll4r3",191,"126.csv","","1339.8999999910593","resources/trios/L4T4A2.jpg","39","restless",0.5,0.6,0.2,0.448861947145652,"false"
"image-keyboard-response",261,254117,"0.0-3.83-1.83","4pac2lkzdwll4r3",191,"126.csv","","null","resources/maskTrios/BBA2.jpg","null","",NA,NA,NA,NA,""
"image-keyboard-response",262,255318,"0.0-3.83-2.83","4pac2lkzdwll4r3",191,"126.csv","","null","resources/images/fishbone.png","null","",NA,NA,NA,NA,""
"image-keyboard-response",263,255685,"0.0-3.84-0.84","4pac2lkzdwll4r3",191,"126.csv","","365.90000000596046","resources/trios/L4T1A1.jpg","37","restless",0.5,0.6,0.2,0.908644391931991,"false"
"image-keyboard-response",264,256091,"0.0-3.84-1.84","4pac2lkzdwll4r3",191,"126.csv","","null","resources/maskTrios/L4BB.jpg","null","",NA,NA,NA,NA,""
"image-keyboard-response",265,257294,"0.0-3.84-2.84","4pac2lkzdwll4r3",191,"126.csv","","null","resources/images/fishbone.png","null","",NA,NA,NA,NA,""
"image-keyboard-response",266,257625,"0.0-3.85-0.85","4pac2lkzdwll4r3",191,"126.csv","","329.79999999701977","resources/trios/L1T4A2.jpg","38","restless",0.5,0.7,0.2,0.710055862177469,"false"
"image-keyboard-response",267,258026,"0.0-3.85-1.85","4pac2lkzdwll4r3",191,"126.csv","","null","resources/maskTrios/BT4B.jpg","null","",NA,NA,NA,NA,""
"image-keyboard-response",268,259232,"0.0-3.85-2.85","4pac2lkzdwll4r3",191,"126.csv","","null","resources/images/fishbone.png","null","",NA,NA,NA,NA,""
"image-keyboard-response",269,259493,"0.0-3.86-0.86","4pac2lkzdwll4r3",191,"126.csv","","259.70000000298023","resources/trios/L1T4A2.jpg","38","restless",0.5,0.7,0.2,0.48449371177885,"true"
"image-keyboard-response",270,259899,"0.0-3.86-1.86","4pac2lkzdwll4r3",191,"126.csv","","null","resources/maskTrios/BT4B.jpg","null","",NA,NA,NA,NA,""
"image-keyboard-response",271,261104,"0.0-3.86-2.86","4pac2lkzdwll4r3",191,"126.csv","","null","resources/images/coin2.png","null","",NA,NA,NA,NA,""
"image-keyboard-response",272,261308,"0.0-3.87-0.87","4pac2lkzdwll4r3",191,"126.csv","","202","resources/trios/L4T4A2.jpg","38","restless",0.5,0.7,0.2,0.960392121250171,"false"
"image-keyboard-response",273,261712,"0.0-3.87-1.87","4pac2lkzdwll4r3",191,"126.csv","","null","resources/maskTrios/BT4B.jpg","null","",NA,NA,NA,NA,""
"image-keyboard-response",274,262915,"0.0-3.87-2.87","4pac2lkzdwll4r3",191,"126.csv","","null","resources/images/fishbone.png","null","",NA,NA,NA,NA,""
"image-keyboard-response",275,263135,"0.0-3.88-0.88","4pac2lkzdwll4r3",191,"126.csv","","218.90000000596046","resources/trios/L1T4A2.jpg","38","restless",0.5,0.7,0.2,0.451697767236527,"true"
"image-keyboard-response",276,263539,"0.0-3.88-1.88","4pac2lkzdwll4r3",191,"126.csv","","null","resources/maskTrios/BT4B.jpg","null","",NA,NA,NA,NA,""
"image-keyboard-response",277,264740,"0.0-3.88-2.88","4pac2lkzdwll4r3",191,"126.csv","","null","resources/images/coin2.png","null","",NA,NA,NA,NA,""
"image-keyboard-response",278,264898,"0.0-3.89-0.89","4pac2lkzdwll4r3",191,"126.csv","","156.20000000298023","resources/trios/L1T1A1.jpg","38","restless",0.5,0.7,0.2,0.2068259950495,"true"
"image-keyboard-response",279,265299,"0.0-3.89-1.89","4pac2lkzdwll4r3",191,"126.csv","","null","resources/maskTrios/BT1B.jpg","null","",NA,NA,NA,NA,""
"image-keyboard-response",280,266502,"0.0-3.89-2.89","4pac2lkzdwll4r3",191,"126.csv","","null","resources/images/coin2.png","null","",NA,NA,NA,NA,""
"image-keyboard-response",281,266751,"0.0-3.90-0.90","4pac2lkzdwll4r3",191,"126.csv","","247.5","resources/trios/L4T1A1.jpg","38","restless",0.5,0.7,0.2,0.379644482595693,"true"
"image-keyboard-response",282,267152,"0.0-3.90-1.90","4pac2lkzdwll4r3",191,"126.csv","","null","resources/maskTrios/BT1B.jpg","null","",NA,NA,NA,NA,""
"image-keyboard-response",283,268354,"0.0-3.90-2.90","4pac2lkzdwll4r3",191,"126.csv","","null","resources/images/coin2.png","null","",NA,NA,NA,NA,""
"image-keyboard-response",284,268631,"0.0-3.91-0.91","4pac2lkzdwll4r3",191,"126.csv","","276","resources/trios/L4T1A2.jpg","38","restless",0.5,0.7,0.2,0.143278427997559,"true"
"image-keyboard-response",285,269037,"0.0-3.91-1.91","4pac2lkzdwll4r3",191,"126.csv","","null","resources/maskTrios/BT1B.jpg","null","",NA,NA,NA,NA,""
"image-keyboard-response",286,270241,"0.0-3.91-2.91","4pac2lkzdwll4r3",191,"126.csv","","null","resources/images/coin2.png","null","",NA,NA,NA,NA,""
"image-keyboard-response",287,270508,"0.0-3.92-0.92","4pac2lkzdwll4r3",191,"126.csv","","266","resources/trios/L4T4A1.jpg","38","restless",0.5,0.7,0.2,0.305987928802806,"true"
"image-keyboard-response",288,270913,"0.0-3.92-1.92","4pac2lkzdwll4r3",191,"126.csv","","null","resources/maskTrios/BT4B.jpg","null","",NA,NA,NA,NA,""
"image-keyboard-response",289,272115,"0.0-3.92-2.92","4pac2lkzdwll4r3",191,"126.csv","","null","resources/images/coin2.png","null","",NA,NA,NA,NA,""
"image-keyboard-response",290,272382,"0.0-3.93-0.93","4pac2lkzdwll4r3",191,"126.csv","","265.40000000596046","resources/trios/L4T4A1.jpg","38","restless",0.5,0.7,0.2,0.252002320832088,"true"
"image-keyboard-response",291,272787,"0.0-3.93-1.93","4pac2lkzdwll4r3",191,"126.csv","","null","resources/maskTrios/BT4B.jpg","null","",NA,NA,NA,NA,""
"image-keyboard-response",292,273994,"0.0-3.93-2.93","4pac2lkzdwll4r3",191,"126.csv","","null","resources/images/coin2.png","null","",NA,NA,NA,NA,""
"image-keyboard-response",293,274157,"0.0-3.94-0.94","4pac2lkzdwll4r3",191,"126.csv","","162.40000000596046","resources/trios/L4T1A2.jpg","38","restless",0.4,0.7,0.3,0.373427374962204,"true"
"image-keyboard-response",294,274560,"0.0-3.94-1.94","4pac2lkzdwll4r3",191,"126.csv","","null","resources/maskTrios/BT1B.jpg","null","",NA,NA,NA,NA,""
"image-keyboard-response",295,275766,"0.0-3.94-2.94","4pac2lkzdwll4r3",191,"126.csv","","null","resources/images/coin2.png","null","",NA,NA,NA,NA,""
"image-keyboard-response",296,275904,"0.0-3.95-0.95","4pac2lkzdwll4r3",191,"126.csv","","136.5","resources/trios/L4T1A1.jpg","38","restless",0.4,0.7,0.3,0.576571728989827,"true"
"image-keyboard-response",297,276306,"0.0-3.95-1.95","4pac2lkzdwll4r3",191,"126.csv","","null","resources/maskTrios/BT1B.jpg","null","",NA,NA,NA,NA,""
"image-keyboard-response",298,277508,"0.0-3.95-2.95","4pac2lkzdwll4r3",191,"126.csv","","null","resources/images/coin2.png","null","",NA,NA,NA,NA,""
"image-keyboard-response",299,278214,"0.0-3.96-0.96","4pac2lkzdwll4r3",191,"126.csv","","704.2000000029802","resources/trios/L1T4A2.jpg","38","restless",0.4,0.7,0.3,0.482455481262909,"true"
"image-keyboard-response",300,278615,"0.0-3.96-1.96","4pac2lkzdwll4r3",191,"126.csv","","null","resources/maskTrios/BT4B.jpg","null","",NA,NA,NA,NA,""
"image-keyboard-response",301,279818,"0.0-3.96-2.96","4pac2lkzdwll4r3",191,"126.csv","","null","resources/images/coin2.png","null","",NA,NA,NA,NA,""
"image-keyboard-response",302,280223,"0.0-3.97-0.97","4pac2lkzdwll4r3",191,"126.csv","","403","resources/trios/L1T1A2.jpg","38","restless",0.4,0.6,0.3,0.681280806063789,"false"
"image-keyboard-response",303,280624,"0.0-3.97-1.97","4pac2lkzdwll4r3",191,"126.csv","","null","resources/maskTrios/BT1B.jpg","null","",NA,NA,NA,NA,""
"image-keyboard-response",304,281826,"0.0-3.97-2.97","4pac2lkzdwll4r3",191,"126.csv","","null","resources/images/fishbone.png","null","",NA,NA,NA,NA,""
"image-keyboard-response",305,282267,"0.0-3.98-0.98","4pac2lkzdwll4r3",191,"126.csv","","440.20000000298023","resources/trios/L1T4A1.jpg","38","restless",0.4,0.6,0.3,0.222439006054626,"true"
"image-keyboard-response",306,282672,"0.0-3.98-1.98","4pac2lkzdwll4r3",191,"126.csv","","null","resources/maskTrios/BT4B.jpg","null","",NA,NA,NA,NA,""
"image-keyboard-response",307,283873,"0.0-3.98-2.98","4pac2lkzdwll4r3",191,"126.csv","","null","resources/images/coin2.png","null","",NA,NA,NA,NA,""
"image-keyboard-response",308,284269,"0.0-3.99-0.99","4pac2lkzdwll4r3",191,"126.csv","","394.6000000089407","resources/trios/L1T1A2.jpg","38","restless",0.4,0.6,0.3,0.974126289611529,"false"
"image-keyboard-response",309,284671,"0.0-3.99-1.99","4pac2lkzdwll4r3",191,"126.csv","","null","resources/maskTrios/BT1B.jpg","null","",NA,NA,NA,NA,""
"image-keyboard-response",310,285877,"0.0-3.99-2.99","4pac2lkzdwll4r3",191,"126.csv","","null","resources/images/fishbone.png","null","",NA,NA,NA,NA,""
"image-keyboard-response",311,286073,"0.0-3.100-0.100","4pac2lkzdwll4r3",191,"126.csv","","195","resources/trios/L4T1A1.jpg","38","restless",0.4,0.6,0.3,0.514037801958838,"true"
"image-keyboard-response",312,286480,"0.0-3.100-1.100","4pac2lkzdwll4r3",191,"126.csv","","null","resources/maskTrios/BT1B.jpg","null","",NA,NA,NA,NA,""
"image-keyboard-response",313,287686,"0.0-3.100-2.100","4pac2lkzdwll4r3",191,"126.csv","","null","resources/images/coin2.png","null","",NA,NA,NA,NA,""
"image-keyboard-response",314,288200,"0.0-3.101-0.101","4pac2lkzdwll4r3",191,"126.csv","","512.7999999970198","resources/trios/L1T1A2.jpg","38","restless",0.4,0.6,0.3,0.562150755717708,"true"
"image-keyboard-response",315,288605,"0.0-3.101-1.101","4pac2lkzdwll4r3",191,"126.csv","","null","resources/maskTrios/BT1B.jpg","null","",NA,NA,NA,NA,""
"image-keyboard-response",316,289810,"0.0-3.101-2.101","4pac2lkzdwll4r3",191,"126.csv","","null","resources/images/coin2.png","null","",NA,NA,NA,NA,""
"image-keyboard-response",317,290191,"0.0-3.102-0.102","4pac2lkzdwll4r3",191,"126.csv","","379.90000000596046","resources/trios/L4T4A1.jpg","38","restless",0.4,0.6,0.3,0.635269594491129,"false"
"image-keyboard-response",318,290597,"0.0-3.102-1.102","4pac2lkzdwll4r3",191,"126.csv","","null","resources/maskTrios/BT4B.jpg","null","",NA,NA,NA,NA,""
"image-keyboard-response",319,291798,"0.0-3.102-2.102","4pac2lkzdwll4r3",191,"126.csv","","null","resources/images/fishbone.png","null","",NA,NA,NA,NA,""
"image-keyboard-response",320,292094,"0.0-3.103-0.103","4pac2lkzdwll4r3",191,"126.csv","","294.20000000298023","resources/trios/L1T1A1.jpg","38","restless",0.4,0.6,0.3,0.816760420941743,"false"
"image-keyboard-response",321,292498,"0.0-3.103-1.103","4pac2lkzdwll4r3",191,"126.csv","","null","resources/maskTrios/BT1B.jpg","null","",NA,NA,NA,NA,""
"image-keyboard-response",322,293704,"0.0-3.103-2.103","4pac2lkzdwll4r3",191,"126.csv","","null","resources/images/fishbone.png","null","",NA,NA,NA,NA,""
"image-keyboard-response",323,293992,"0.0-3.104-0.104","4pac2lkzdwll4r3",191,"126.csv","","286.09999999403954","resources/trios/L4T4A1.jpg","38","restless",0.4,0.6,0.3,0.4533053751605,"true"
"image-keyboard-response",324,294397,"0.0-3.104-1.104","4pac2lkzdwll4r3",191,"126.csv","","null","resources/maskTrios/BT4B.jpg","null","",NA,NA,NA,NA,""
"image-keyboard-response",325,295604,"0.0-3.104-2.104","4pac2lkzdwll4r3",191,"126.csv","","null","resources/images/coin2.png","null","",NA,NA,NA,NA,""
"image-keyboard-response",326,295923,"0.0-3.105-0.105","4pac2lkzdwll4r3",191,"126.csv","","318.59999999403954","resources/trios/L1T4A2.jpg","38","restless",0.4,0.6,0.2,0.619039534622063,"false"
"image-keyboard-response",327,296329,"0.0-3.105-1.105","4pac2lkzdwll4r3",191,"126.csv","","null","resources/maskTrios/BT4B.jpg","null","",NA,NA,NA,NA,""
"image-keyboard-response",328,297535,"0.0-3.105-2.105","4pac2lkzdwll4r3",191,"126.csv","","null","resources/images/fishbone.png","null","",NA,NA,NA,NA,""
"image-keyboard-response",329,297808,"0.0-3.106-0.106","4pac2lkzdwll4r3",191,"126.csv","","272","resources/trios/L4T1A1.jpg","37","restless",0.3,0.6,0.2,0.862003290978378,"false"
"image-keyboard-response",330,298213,"0.0-3.106-1.106","4pac2lkzdwll4r3",191,"126.csv","","null","resources/maskTrios/L4BB.jpg","null","",NA,NA,NA,NA,""
"image-keyboard-response",331,299416,"0.0-3.106-2.106","4pac2lkzdwll4r3",191,"126.csv","","null","resources/images/fishbone.png","null","",NA,NA,NA,NA,""
"image-keyboard-response",332,299712,"0.0-3.107-0.107","4pac2lkzdwll4r3",191,"126.csv","","294.70000000298023","resources/trios/L1T1A2.jpg","39","restless",0.3,0.6,0.2,0.486482489337159,"false"
"image-keyboard-response",333,300117,"0.0-3.107-1.107","4pac2lkzdwll4r3",191,"126.csv","","null","resources/maskTrios/BBA2.jpg","null","",NA,NA,NA,NA,""
"image-keyboard-response",334,301319,"0.0-3.107-2.107","4pac2lkzdwll4r3",191,"126.csv","","null","resources/images/fishbone.png","null","",NA,NA,NA,NA,""
"image-keyboard-response",335,301604,"0.0-3.108-0.108","4pac2lkzdwll4r3",191,"126.csv","","284.29999999701977","resources/trios/L4T1A1.jpg","38","restless",0.3,0.6,0.2,0.795865090270131,"false"
"image-keyboard-response",336,302009,"0.0-3.108-1.108","4pac2lkzdwll4r3",191,"126.csv","","null","resources/maskTrios/BT1B.jpg","null","",NA,NA,NA,NA,""
"image-keyboard-response",337,303216,"0.0-3.108-2.108","4pac2lkzdwll4r3",191,"126.csv","","null","resources/images/fishbone.png","null","",NA,NA,NA,NA,""
"image-keyboard-response",338,303477,"0.0-3.109-0.109","4pac2lkzdwll4r3",191,"126.csv","","260.40000000596046","resources/trios/L4T4A2.jpg","39","restless",0.2,0.6,0.2,0.754147709165455,"false"
"image-keyboard-response",339,303880,"0.0-3.109-1.109","4pac2lkzdwll4r3",191,"126.csv","","null","resources/maskTrios/BBA2.jpg","null","",NA,NA,NA,NA,""
"image-keyboard-response",340,305082,"0.0-3.109-2.109","4pac2lkzdwll4r3",191,"126.csv","","null","resources/images/fishbone.png","null","",NA,NA,NA,NA,""
"image-keyboard-response",341,305385,"0.0-3.110-0.110","4pac2lkzdwll4r3",191,"126.csv","","301.8999999910593","resources/trios/L1T4A2.jpg","38","restless",0.2,0.6,0.1,0.864773643116919,"false"
"image-keyboard-response",342,305787,"0.0-3.110-1.110","4pac2lkzdwll4r3",191,"126.csv","","null","resources/maskTrios/BT4B.jpg","null","",NA,NA,NA,NA,""
"image-keyboard-response",343,306989,"0.0-3.110-2.110","4pac2lkzdwll4r3",191,"126.csv","","null","resources/images/fishbone.png","null","",NA,NA,NA,NA,""
"image-keyboard-response",344,307259,"0.0-3.111-0.111","4pac2lkzdwll4r3",191,"126.csv","","268.70000000298023","resources/trios/L4T1A2.jpg","38","restless",0.2,0.6,0.1,0.206932212678747,"true"
"image-keyboard-response",345,307662,"0.0-3.111-1.111","4pac2lkzdwll4r3",191,"126.csv","","null","resources/maskTrios/BT1B.jpg","null","",NA,NA,NA,NA,""
"image-keyboard-response",346,308867,"0.0-3.111-2.111","4pac2lkzdwll4r3",191,"126.csv","","null","resources/images/coin2.png","null","",NA,NA,NA,NA,""
"image-keyboard-response",347,309265,"0.0-3.112-0.112","4pac2lkzdwll4r3",191,"126.csv","","396.90000000596046","resources/trios/L4T4A1.jpg","38","restless",0.1,0.6,0.1,0.170891484748615,"true"
"image-keyboard-response",348,309672,"0.0-3.112-1.112","4pac2lkzdwll4r3",191,"126.csv","","null","resources/maskTrios/BT4B.jpg","null","",NA,NA,NA,NA,""
"image-keyboard-response",349,310875,"0.0-3.112-2.112","4pac2lkzdwll4r3",191,"126.csv","","null","resources/images/coin2.png","null","",NA,NA,NA,NA,""
"image-keyboard-response",350,311034,"0.0-3.113-0.113","4pac2lkzdwll4r3",191,"126.csv","","157.09999999403954","resources/trios/L4T1A1.jpg","38","restless",0.1,0.6,0.1,0.517193707401855,"true"
"image-keyboard-response",351,311440,"0.0-3.113-1.113","4pac2lkzdwll4r3",191,"126.csv","","null","resources/maskTrios/BT1B.jpg","null","",NA,NA,NA,NA,""
"image-keyboard-response",352,312644,"0.0-3.113-2.113","4pac2lkzdwll4r3",191,"126.csv","","null","resources/images/coin2.png","null","",NA,NA,NA,NA,""
"image-keyboard-response",353,312903,"0.0-3.114-0.114","4pac2lkzdwll4r3",191,"126.csv","","257.3999999910593","resources/trios/L4T4A2.jpg","38","restless",0.1,0.6,0.1,0.764501554064837,"false"
"image-keyboard-response",354,313309,"0.0-3.114-1.114","4pac2lkzdwll4r3",191,"126.csv","","null","resources/maskTrios/BT4B.jpg","null","",NA,NA,NA,NA,""
"image-keyboard-response",355,314514,"0.0-3.114-2.114","4pac2lkzdwll4r3",191,"126.csv","","null","resources/images/fishbone.png","null","",NA,NA,NA,NA,""
"image-keyboard-response",356,314832,"0.0-3.115-0.115","4pac2lkzdwll4r3",191,"126.csv","","317.3999999910593","resources/trios/L4T1A2.jpg","38","restless",0.2,0.6,0.2,0.646363580363065,"false"
"image-keyboard-response",357,315239,"0.0-3.115-1.115","4pac2lkzdwll4r3",191,"126.csv","","null","resources/maskTrios/BT1B.jpg","null","",NA,NA,NA,NA,""
"image-keyboard-response",358,316444,"0.0-3.115-2.115","4pac2lkzdwll4r3",191,"126.csv","","null","resources/images/fishbone.png","null","",NA,NA,NA,NA,""
"image-keyboard-response",359,316716,"0.0-3.116-0.116","4pac2lkzdwll4r3",191,"126.csv","","270.8999999910593","resources/trios/L1T4A1.jpg","38","restless",0.2,0.6,0.2,0.17441108349284,"true"
"image-keyboard-response",360,317122,"0.0-3.116-1.116","4pac2lkzdwll4r3",191,"126.csv","","null","resources/maskTrios/BT4B.jpg","null","",NA,NA,NA,NA,""
"image-keyboard-response",361,318324,"0.0-3.116-2.116","4pac2lkzdwll4r3",191,"126.csv","","null","resources/images/coin2.png","null","",NA,NA,NA,NA,""
"image-keyboard-response",362,318628,"0.0-3.117-0.117","4pac2lkzdwll4r3",191,"126.csv","","302.70000000298023","resources/trios/L1T4A2.jpg","38","restless",0.2,0.6,0.2,0.988194806387058,"false"
"image-keyboard-response",363,319031,"0.0-3.117-1.117","4pac2lkzdwll4r3",191,"126.csv","","null","resources/maskTrios/BT4B.jpg","null","",NA,NA,NA,NA,""
"image-keyboard-response",364,320237,"0.0-3.117-2.117","4pac2lkzdwll4r3",191,"126.csv","","null","resources/images/fishbone.png","null","",NA,NA,NA,NA,""
"image-keyboard-response",365,320493,"0.0-3.118-0.118","4pac2lkzdwll4r3",191,"126.csv","","255.20000000298023","resources/trios/L4T1A2.jpg","38","restless",0.3,0.6,0.2,0.667022766733748,"false"
"image-keyboard-response",366,320895,"0.0-3.118-1.118","4pac2lkzdwll4r3",191,"126.csv","","null","resources/maskTrios/BT1B.jpg","null","",NA,NA,NA,NA,""
"image-keyboard-response",367,322096,"0.0-3.118-2.118","4pac2lkzdwll4r3",191,"126.csv","","null","resources/images/fishbone.png","null","",NA,NA,NA,NA,""
"image-keyboard-response",368,322326,"0.0-3.119-0.119","4pac2lkzdwll4r3",191,"126.csv","","228.30000001192093","resources/trios/L4T1A2.jpg","38","restless",0.3,0.6,0.3,0.150102896063434,"true"
"image-keyboard-response",369,322729,"0.0-3.119-1.119","4pac2lkzdwll4r3",191,"126.csv","","null","resources/maskTrios/BT1B.jpg","null","",NA,NA,NA,NA,""
"image-keyboard-response",370,323935,"0.0-3.119-2.119","4pac2lkzdwll4r3",191,"126.csv","","null","resources/images/coin2.png","null","",NA,NA,NA,NA,""
"image-keyboard-response",371,324171,"0.0-3.120-0.120","4pac2lkzdwll4r3",191,"126.csv","","234.90000000596046","resources/trios/L1T4A1.jpg","38","restless",0.3,0.6,0.3,0.849439482714442,"false"
"image-keyboard-response",372,324576,"0.0-3.120-1.120","4pac2lkzdwll4r3",191,"126.csv","","null","resources/maskTrios/BT4B.jpg","null","",NA,NA,NA,NA,""
"image-keyboard-response",373,325779,"0.0-3.120-2.120","4pac2lkzdwll4r3",191,"126.csv","","null","resources/images/fishbone.png","null","",NA,NA,NA,NA,""
"image-keyboard-response",374,326079,"0.0-3.121-0.121","4pac2lkzdwll4r3",191,"126.csv","","299","resources/trios/L4T1A2.jpg","38","restless",0.3,0.6,0.3,0.0878771631943751,"true"
"image-keyboard-response",375,326485,"0.0-3.121-1.121","4pac2lkzdwll4r3",191,"126.csv","","null","resources/maskTrios/BT1B.jpg","null","",NA,NA,NA,NA,""
"image-keyboard-response",376,327691,"0.0-3.121-2.121","4pac2lkzdwll4r3",191,"126.csv","","null","resources/images/coin2.png","null","",NA,NA,NA,NA,""
"image-keyboard-response",377,327733,"0.0-3.122-0.122","4pac2lkzdwll4r3",191,"126.csv","","41","resources/trios/L4T1A2.jpg","38","restless",0.3,0.6,0.3,0.156729932997634,"true"
"image-keyboard-response",378,328137,"0.0-3.122-1.122","4pac2lkzdwll4r3",191,"126.csv","","null","resources/maskTrios/BT1B.jpg","null","",NA,NA,NA,NA,""
"image-keyboard-response",379,329338,"0.0-3.122-2.122","4pac2lkzdwll4r3",191,"126.csv","","null","resources/images/coin2.png","null","",NA,NA,NA,NA,""
"image-keyboard-response",380,329621,"0.0-3.123-0.123","4pac2lkzdwll4r3",191,"126.csv","","281.6000000089407","resources/trios/L1T1A1.jpg","38","restless",0.4,0.6,0.4,0.736289970633004,"false"
"image-keyboard-response",381,330026,"0.0-3.123-1.123","4pac2lkzdwll4r3",191,"126.csv","","null","resources/maskTrios/BT1B.jpg","null","",NA,NA,NA,NA,""
"image-keyboard-response",382,331232,"0.0-3.123-2.123","4pac2lkzdwll4r3",191,"126.csv","","null","resources/images/fishbone.png","null","",NA,NA,NA,NA,""
"image-keyboard-response",383,332374,"0.0-3.124-0.124","4pac2lkzdwll4r3",191,"126.csv","","1141.2999999970198","resources/trios/L1T1A2.jpg","38","restless",0.4,0.5,0.4,0.941934233724641,"false"
"image-keyboard-response",384,332779,"0.0-3.124-1.124","4pac2lkzdwll4r3",191,"126.csv","","null","resources/maskTrios/BT1B.jpg","null","",NA,NA,NA,NA,""
"image-keyboard-response",385,333983,"0.0-3.124-2.124","4pac2lkzdwll4r3",191,"126.csv","","null","resources/images/fishbone.png","null","",NA,NA,NA,NA,""
"image-keyboard-response",386,334523,"0.0-3.125-0.125","4pac2lkzdwll4r3",191,"126.csv","","538.2000000029802","resources/trios/L4T1A1.jpg","38","restless",0.4,0.5,0.5,0.396877102283533,"true"
"image-keyboard-response",387,334926,"0.0-3.125-1.125","4pac2lkzdwll4r3",191,"126.csv","","null","resources/maskTrios/BT1B.jpg","null","",NA,NA,NA,NA,""
"image-keyboard-response",388,336131,"0.0-3.125-2.125","4pac2lkzdwll4r3",191,"126.csv","","null","resources/images/coin2.png","null","",NA,NA,NA,NA,""
"image-keyboard-response",389,336496,"0.0-3.126-0.126","4pac2lkzdwll4r3",191,"126.csv","","363.5","resources/trios/L1T4A1.jpg","38","restless",0.4,0.5,0.5,0.154068288326359,"true"
"image-keyboard-response",390,336901,"0.0-3.126-1.126","4pac2lkzdwll4r3",191,"126.csv","","null","resources/maskTrios/BT4B.jpg","null","",NA,NA,NA,NA,""
"image-keyboard-response",391,338106,"0.0-3.126-2.126","4pac2lkzdwll4r3",191,"126.csv","","null","resources/images/coin2.png","null","",NA,NA,NA,NA,""
"image-keyboard-response",392,338357,"0.0-3.127-0.127","4pac2lkzdwll4r3",191,"126.csv","","250.20000000298023","resources/trios/L4T4A1.jpg","38","restless",0.4,0.6,0.5,0.936676075256494,"false"
"image-keyboard-response",393,338763,"0.0-3.127-1.127","4pac2lkzdwll4r3",191,"126.csv","","null","resources/maskTrios/BT4B.jpg","null","",NA,NA,NA,NA,""
"image-keyboard-response",394,339967,"0.0-3.127-2.127","4pac2lkzdwll4r3",191,"126.csv","","null","resources/images/fishbone.png","null","",NA,NA,NA,NA,""
"image-keyboard-response",395,340640,"0.0-3.128-0.128","4pac2lkzdwll4r3",191,"126.csv","","671","resources/trios/L1T1A2.jpg","37","restless",0.4,0.6,0.5,0.0294582500098763,"true"
"image-keyboard-response",396,341045,"0.0-3.128-1.128","4pac2lkzdwll4r3",191,"126.csv","","null","resources/maskTrios/L1BB.jpg","null","",NA,NA,NA,NA,""
"image-keyboard-response",397,342248,"0.0-3.128-2.128","4pac2lkzdwll4r3",191,"126.csv","","null","resources/images/coin2.png","null","",NA,NA,NA,NA,""
"image-keyboard-response",398,342612,"0.0-3.129-0.129","4pac2lkzdwll4r3",191,"126.csv","","362.29999999701977","resources/trios/L1T1A2.jpg","37","restless",0.4,0.6,0.4,0.276730902543293,"true"
"image-keyboard-response",399,343017,"0.0-3.129-1.129","4pac2lkzdwll4r3",191,"126.csv","","null","resources/maskTrios/L1BB.jpg","null","",NA,NA,NA,NA,""
"image-keyboard-response",400,344222,"0.0-3.129-2.129","4pac2lkzdwll4r3",191,"126.csv","","null","resources/images/coin2.png","null","",NA,NA,NA,NA,""
"image-keyboard-response",401,344623,"0.0-3.130-0.130","4pac2lkzdwll4r3",191,"126.csv","","400","resources/trios/L1T1A2.jpg","39","restless",0.4,0.5,0.4,0.684743718834225,"false"
"image-keyboard-response",402,345028,"0.0-3.130-1.130","4pac2lkzdwll4r3",191,"126.csv","","null","resources/maskTrios/BBA2.jpg","null","",NA,NA,NA,NA,""
"image-keyboard-response",403,346234,"0.0-3.130-2.130","4pac2lkzdwll4r3",191,"126.csv","","null","resources/images/fishbone.png","null","",NA,NA,NA,NA,""
"image-keyboard-response",404,346686,"0.0-3.131-0.131","4pac2lkzdwll4r3",191,"126.csv","","450.90000000596046","resources/trios/L1T4A1.jpg","38","restless",0.4,0.5,0.3,0.156123250163212,"true"
"image-keyboard-response",405,347091,"0.0-3.131-1.131","4pac2lkzdwll4r3",191,"126.csv","","null","resources/maskTrios/BT4B.jpg","null","",NA,NA,NA,NA,""
"image-keyboard-response",406,348292,"0.0-3.131-2.131","4pac2lkzdwll4r3",191,"126.csv","","null","resources/images/coin2.png","null","",NA,NA,NA,NA,""
"image-keyboard-response",407,348714,"0.0-3.132-0.132","4pac2lkzdwll4r3",191,"126.csv","","420.5","resources/trios/L4T1A2.jpg","38","restless",0.4,0.5,0.4,0.88906086259096,"false"
"image-keyboard-response",408,349120,"0.0-3.132-1.132","4pac2lkzdwll4r3",191,"126.csv","","null","resources/maskTrios/BT1B.jpg","null","",NA,NA,NA,NA,""
"image-keyboard-response",409,350322,"0.0-3.132-2.132","4pac2lkzdwll4r3",191,"126.csv","","null","resources/images/fishbone.png","null","",NA,NA,NA,NA,""
"image-keyboard-response",410,350848,"0.0-3.133-0.133","4pac2lkzdwll4r3",191,"126.csv","","524.7999999970198","resources/trios/L1T1A1.jpg","38","restless",0.4,0.5,0.4,0.780384465490063,"false"
"image-keyboard-response",411,351253,"0.0-3.133-1.133","4pac2lkzdwll4r3",191,"126.csv","","null","resources/maskTrios/BT1B.jpg","null","",NA,NA,NA,NA,""
"image-keyboard-response",412,352459,"0.0-3.133-2.133","4pac2lkzdwll4r3",191,"126.csv","","null","resources/images/fishbone.png","null","",NA,NA,NA,NA,""
"image-keyboard-response",413,352704,"0.0-3.134-0.134","4pac2lkzdwll4r3",191,"126.csv","","243.59999999403954","resources/trios/L1T1A2.jpg","38","restless",0.4,0.5,0.4,0.807660730837078,"false"
"image-keyboard-response",414,353105,"0.0-3.134-1.134","4pac2lkzdwll4r3",191,"126.csv","","null","resources/maskTrios/BT1B.jpg","null","",NA,NA,NA,NA,""
"image-keyboard-response",415,354307,"0.0-3.134-2.134","4pac2lkzdwll4r3",191,"126.csv","","null","resources/images/fishbone.png","null","",NA,NA,NA,NA,""
"image-keyboard-response",416,354705,"0.0-3.135-0.135","4pac2lkzdwll4r3",191,"126.csv","","396.59999999403954","resources/trios/L1T4A1.jpg","38","restless",0.4,0.5,0.5,0.835170409076804,"false"
"image-keyboard-response",417,355107,"0.0-3.135-1.135","4pac2lkzdwll4r3",191,"126.csv","","null","resources/maskTrios/BT4B.jpg","null","",NA,NA,NA,NA,""
"image-keyboard-response",418,356311,"0.0-3.135-2.135","4pac2lkzdwll4r3",191,"126.csv","","null","resources/images/fishbone.png","null","",NA,NA,NA,NA,""
"image-keyboard-response",419,356583,"0.0-3.136-0.136","4pac2lkzdwll4r3",191,"126.csv","","271.09999999403954","resources/trios/L1T4A2.jpg","38","restless",0.4,0.5,0.5,0.560669338347714,"false"
"image-keyboard-response",420,356990,"0.0-3.136-1.136","4pac2lkzdwll4r3",191,"126.csv","","null","resources/maskTrios/BT4B.jpg","null","",NA,NA,NA,NA,""
"image-keyboard-response",421,358193,"0.0-3.136-2.136","4pac2lkzdwll4r3",191,"126.csv","","null","resources/images/fishbone.png","null","",NA,NA,NA,NA,""
"image-keyboard-response",422,358450,"0.0-3.137-0.137","4pac2lkzdwll4r3",191,"126.csv","","255.20000000298023","resources/trios/L4T4A2.jpg","39","restless",0.4,0.5,0.5,0.940392012369383,"false"
"image-keyboard-response",423,358852,"0.0-3.137-1.137","4pac2lkzdwll4r3",191,"126.csv","","null","resources/maskTrios/BBA2.jpg","null","",NA,NA,NA,NA,""
"image-keyboard-response",424,360054,"0.0-3.137-2.137","4pac2lkzdwll4r3",191,"126.csv","","null","resources/images/fishbone.png","null","",NA,NA,NA,NA,""
"image-keyboard-response",425,360340,"0.0-3.138-0.138","4pac2lkzdwll4r3",191,"126.csv","","284.5","resources/trios/L4T4A1.jpg","39","restless",0.5,0.5,0.6,0.984466393267979,"false"
"image-keyboard-response",426,360745,"0.0-3.138-1.138","4pac2lkzdwll4r3",191,"126.csv","","null","resources/maskTrios/BBA1.jpg","null","",NA,NA,NA,NA,""
"image-keyboard-response",427,361951,"0.0-3.138-2.138","4pac2lkzdwll4r3",191,"126.csv","","null","resources/images/fishbone.png","null","",NA,NA,NA,NA,""
"image-keyboard-response",428,362222,"0.0-3.139-0.139","4pac2lkzdwll4r3",191,"126.csv","","270","resources/trios/L4T4A1.jpg","39","restless",0.5,0.4,0.7,0.270173439208586,"true"
"image-keyboard-response",429,362627,"0.0-3.139-1.139","4pac2lkzdwll4r3",191,"126.csv","","null","resources/maskTrios/BBA1.jpg","null","",NA,NA,NA,NA,""
"image-keyboard-response",430,363828,"0.0-3.139-2.139","4pac2lkzdwll4r3",191,"126.csv","","null","resources/images/coin2.png","null","",NA,NA,NA,NA,""
"image-keyboard-response",431,364560,"0.0-3.140-0.140","4pac2lkzdwll4r3",191,"126.csv","","730.7999999970198","resources/trios/L4T1A1.jpg","39","restless",0.5,0.4,0.7,0.0694590456677979,"true"
"image-keyboard-response",432,364967,"0.0-3.140-1.140","4pac2lkzdwll4r3",191,"126.csv","","null","resources/maskTrios/BBA1.jpg","null","",NA,NA,NA,NA,""
"image-keyboard-response",433,366171,"0.0-3.140-2.140","4pac2lkzdwll4r3",191,"126.csv","","null","resources/images/coin2.png","null","",NA,NA,NA,NA,""
"image-keyboard-response",434,366446,"0.0-3.141-0.141","4pac2lkzdwll4r3",191,"126.csv","","273.1000000089407","resources/trios/L1T1A2.jpg","39","restless",0.5,0.4,0.7,0.835852092028745,"false"
"image-keyboard-response",435,366851,"0.0-3.141-1.141","4pac2lkzdwll4r3",191,"126.csv","","null","resources/maskTrios/BBA2.jpg","null","",NA,NA,NA,NA,""
"image-keyboard-response",436,368057,"0.0-3.141-2.141","4pac2lkzdwll4r3",191,"126.csv","","null","resources/images/fishbone.png","null","",NA,NA,NA,NA,""
"image-keyboard-response",437,368292,"0.0-3.142-0.142","4pac2lkzdwll4r3",191,"126.csv","","233.90000000596046","resources/trios/L1T4A2.jpg","37","restless",0.5,0.4,0.7,0.622629924007223,"false"
"image-keyboard-response",438,368695,"0.0-3.142-1.142","4pac2lkzdwll4r3",191,"126.csv","","null","resources/maskTrios/L1BB.jpg","null","",NA,NA,NA,NA,""
"image-keyboard-response",439,369897,"0.0-3.142-2.142","4pac2lkzdwll4r3",191,"126.csv","","null","resources/images/fishbone.png","null","",NA,NA,NA,NA,""
"image-keyboard-response",440,370036,"0.0-3.143-0.143","4pac2lkzdwll4r3",191,"126.csv","","138.09999999403954","resources/trios/L4T1A2.jpg","39","restless",0.5,0.4,0.7,0.66079234144262,"true"
"image-keyboard-response",441,370441,"0.0-3.143-1.143","4pac2lkzdwll4r3",191,"126.csv","","null","resources/maskTrios/BBA2.jpg","null","",NA,NA,NA,NA,""
"image-keyboard-response",442,371645,"0.0-3.143-2.143","4pac2lkzdwll4r3",191,"126.csv","","null","resources/images/coin2.png","null","",NA,NA,NA,NA,""
"image-keyboard-response",443,371953,"0.0-3.144-0.144","4pac2lkzdwll4r3",191,"126.csv","","306.20000000298023","resources/trios/L4T1A2.jpg","38","restless",0.5,0.5,0.7,0.0573516348795671,"true"
"image-keyboard-response",444,372356,"0.0-3.144-1.144","4pac2lkzdwll4r3",191,"126.csv","","null","resources/maskTrios/BT1B.jpg","null","",NA,NA,NA,NA,""
"image-keyboard-response",445,373562,"0.0-3.144-2.144","4pac2lkzdwll4r3",191,"126.csv","","null","resources/images/coin2.png","null","",NA,NA,NA,NA,""
"image-keyboard-response",446,373741,"0.0-3.145-0.145","4pac2lkzdwll4r3",191,"126.csv","","177.8999999910593","resources/trios/L1T4A1.jpg","38","restless",0.5,0.5,0.7,0.813361396391611,"false"
"image-keyboard-response",447,374143,"0.0-3.145-1.145","4pac2lkzdwll4r3",191,"126.csv","","null","resources/maskTrios/BT4B.jpg","null","",NA,NA,NA,NA,""
"image-keyboard-response",448,375347,"0.0-3.145-2.145","4pac2lkzdwll4r3",191,"126.csv","","null","resources/images/fishbone.png","null","",NA,NA,NA,NA,""
"image-keyboard-response",449,375598,"0.0-3.146-0.146","4pac2lkzdwll4r3",191,"126.csv","","249.40000000596046","resources/trios/L1T1A2.jpg","38","restless",0.5,0.4,0.7,0.441445097353805,"false"
"image-keyboard-response",450,376004,"0.0-3.146-1.146","4pac2lkzdwll4r3",191,"126.csv","","null","resources/maskTrios/BT1B.jpg","null","",NA,NA,NA,NA,""
"image-keyboard-response",451,377208,"0.0-3.146-2.146","4pac2lkzdwll4r3",191,"126.csv","","null","resources/images/fishbone.png","null","",NA,NA,NA,NA,""
"image-keyboard-response",452,377479,"0.0-3.147-0.147","4pac2lkzdwll4r3",191,"126.csv","","270","resources/trios/L1T4A1.jpg","38","restless",0.5,0.4,0.8,0.60153886740227,"false"
"image-keyboard-response",453,377884,"0.0-3.147-1.147","4pac2lkzdwll4r3",191,"126.csv","","null","resources/maskTrios/BT4B.jpg","null","",NA,NA,NA,NA,""
"image-keyboard-response",454,379088,"0.0-3.147-2.147","4pac2lkzdwll4r3",191,"126.csv","","null","resources/images/fishbone.png","null","",NA,NA,NA,NA,""
"image-keyboard-response",455,379194,"0.0-3.148-0.148","4pac2lkzdwll4r3",191,"126.csv","","104.09999999403954","resources/trios/L1T4A1.jpg","39","restless",0.5,0.4,0.8,0.0690444235065213,"true"
"image-keyboard-response",456,379601,"0.0-3.148-1.148","4pac2lkzdwll4r3",191,"126.csv","","null","resources/maskTrios/BBA1.jpg","null","",NA,NA,NA,NA,""
"image-keyboard-response",457,380806,"0.0-3.148-2.148","4pac2lkzdwll4r3",191,"126.csv","","null","resources/images/coin2.png","null","",NA,NA,NA,NA,""
"image-keyboard-response",458,381010,"0.0-3.149-0.149","4pac2lkzdwll4r3",191,"126.csv","","202.59999999403954","resources/trios/L4T1A1.jpg","39","restless",0.5,0.4,0.8,0.307794413172716,"true"
"image-keyboard-response",459,381418,"0.0-3.149-1.149","4pac2lkzdwll4r3",191,"126.csv","","null","resources/maskTrios/BBA1.jpg","null","",NA,NA,NA,NA,""
"image-keyboard-response",460,382627,"0.0-3.149-2.149","4pac2lkzdwll4r3",191,"126.csv","","null","resources/images/coin2.png","null","",NA,NA,NA,NA,""
"image-keyboard-response",461,382793,"0.0-3.150-0.150","4pac2lkzdwll4r3",191,"126.csv","","164.20000000298023","resources/trios/L1T1A1.jpg","39","restless",0.5,0.4,0.8,0.651087709939943,"true"
"image-keyboard-response",462,383198,"0.0-3.150-1.150","4pac2lkzdwll4r3",191,"126.csv","","null","resources/maskTrios/BBA1.jpg","null","",NA,NA,NA,NA,""
"image-keyboard-response",463,384404,"0.0-3.150-2.150","4pac2lkzdwll4r3",191,"126.csv","","null","resources/images/coin2.png","null","",NA,NA,NA,NA,""
"image-keyboard-response",464,384413,"0.0-3.151-0.151","4pac2lkzdwll4r3",191,"126.csv","","7.600000008940697","resources/trios/L4T4A2.jpg","39","restless",0.5,0.4,0.8,0.261658716388023,"true"
"image-keyboard-response",465,384816,"0.0-3.151-1.151","4pac2lkzdwll4r3",191,"126.csv","","null","resources/maskTrios/BBA2.jpg","null","",NA,NA,NA,NA,""
"image-keyboard-response",466,386021,"0.0-3.151-2.151","4pac2lkzdwll4r3",191,"126.csv","","null","resources/images/coin2.png","null","",NA,NA,NA,NA,""
"image-keyboard-response",467,386078,"0.0-3.152-0.152","4pac2lkzdwll4r3",191,"126.csv","","55.20000000298023","resources/trios/L1T1A2.jpg","39","restless",0.5,0.4,0.8,0.0411459310263604,"true"
"image-keyboard-response",468,386485,"0.0-3.152-1.152","4pac2lkzdwll4r3",191,"126.csv","","null","resources/maskTrios/BBA2.jpg","null","",NA,NA,NA,NA,""
"image-keyboard-response",469,387693,"0.0-3.152-2.152","4pac2lkzdwll4r3",191,"126.csv","","null","resources/images/coin2.png","null","",NA,NA,NA,NA,""
"image-keyboard-response",470,387747,"0.0-3.153-0.153","4pac2lkzdwll4r3",191,"126.csv","","52.3999999910593","resources/trios/L1T1A2.jpg","39","restless",0.5,0.4,0.8,0.892783368006782,"false"
"image-keyboard-response",471,388152,"0.0-3.153-1.153","4pac2lkzdwll4r3",191,"126.csv","","null","resources/maskTrios/BBA2.jpg","null","",NA,NA,NA,NA,""
"image-keyboard-response",472,389357,"0.0-3.153-2.153","4pac2lkzdwll4r3",191,"126.csv","","null","resources/images/fishbone.png","null","",NA,NA,NA,NA,""
"image-keyboard-response",473,390325,"0.0-3.154-0.154","4pac2lkzdwll4r3",191,"126.csv","","964.3999999910593","resources/trios/L4T4A1.jpg","39","restless",0.5,0.5,0.8,0.128229783045093,"true"
"image-keyboard-response",474,390732,"0.0-3.154-1.154","4pac2lkzdwll4r3",191,"126.csv","","null","resources/maskTrios/BBA1.jpg","null","",NA,NA,NA,NA,""
"image-keyboard-response",475,391940,"0.0-3.154-2.154","4pac2lkzdwll4r3",191,"126.csv","","null","resources/images/coin2.png","null","",NA,NA,NA,NA,""
"image-keyboard-response",476,392197,"0.0-3.155-0.155","4pac2lkzdwll4r3",191,"126.csv","","256","resources/trios/L4T4A2.jpg","39","restless",0.5,0.5,0.8,0.222931096724375,"true"
"image-keyboard-response",477,392604,"0.0-3.155-1.155","4pac2lkzdwll4r3",191,"126.csv","","null","resources/maskTrios/BBA2.jpg","null","",NA,NA,NA,NA,""
"image-keyboard-response",478,393812,"0.0-3.155-2.155","4pac2lkzdwll4r3",191,"126.csv","","null","resources/images/coin2.png","null","",NA,NA,NA,NA,""
"image-keyboard-response",479,394003,"0.0-3.156-0.156","4pac2lkzdwll4r3",191,"126.csv","","189.40000000596046","resources/trios/L4T1A1.jpg","39","restless",0.5,0.5,0.8,0.127478587638614,"true"
"image-keyboard-response",480,394409,"0.0-3.156-1.156","4pac2lkzdwll4r3",191,"126.csv","","null","resources/maskTrios/BBA1.jpg","null","",NA,NA,NA,NA,""
"image-keyboard-response",481,395616,"0.0-3.156-2.156","4pac2lkzdwll4r3",191,"126.csv","","null","resources/images/coin2.png","null","",NA,NA,NA,NA,""
"image-keyboard-response",482,395712,"0.0-3.157-0.157","4pac2lkzdwll4r3",191,"126.csv","","94.30000001192093","resources/trios/L4T4A2.jpg","39","restless",0.5,0.5,0.8,0.169704985656204,"true"
"image-keyboard-response",483,396114,"0.0-3.157-1.157","4pac2lkzdwll4r3",191,"126.csv","","null","resources/maskTrios/BBA2.jpg","null","",NA,NA,NA,NA,""
"image-keyboard-response",484,397318,"0.0-3.157-2.157","4pac2lkzdwll4r3",191,"126.csv","","null","resources/images/coin2.png","null","",NA,NA,NA,NA,""
"image-keyboard-response",485,397456,"0.0-3.158-0.158","4pac2lkzdwll4r3",191,"126.csv","","137.20000000298023","resources/trios/L4T4A1.jpg","39","restless",0.5,0.5,0.8,0.767351423192006,"true"
"image-keyboard-response",486,397860,"0.0-3.158-1.158","4pac2lkzdwll4r3",191,"126.csv","","null","resources/maskTrios/BBA1.jpg","null","",NA,NA,NA,NA,""
"image-keyboard-response",487,399068,"0.0-3.158-2.158","4pac2lkzdwll4r3",191,"126.csv","","null","resources/images/coin2.png","null","",NA,NA,NA,NA,""
"image-keyboard-response",488,400660,"0.0-3.159-0.159","4pac2lkzdwll4r3",191,"126.csv","","1589.300000011921","resources/trios/L1T1A1.jpg","39","restless",0.5,0.5,0.8,0.0224495796930291,"true"
"image-keyboard-response",489,401064,"0.0-3.159-1.159","4pac2lkzdwll4r3",191,"126.csv","","null","resources/maskTrios/BBA1.jpg","null","",NA,NA,NA,NA,""
"image-keyboard-response",490,402271,"0.0-3.159-2.159","4pac2lkzdwll4r3",191,"126.csv","","null","resources/images/coin2.png","null","",NA,NA,NA,NA,""
"image-keyboard-response",491,402579,"0.0-3.160-0.160","4pac2lkzdwll4r3",191,"126.csv","","306.29999999701977","resources/trios/L4T1A1.jpg","39","restless",0.5,0.5,0.8,0.733529123648481,"true"
"image-keyboard-response",492,402985,"0.0-3.160-1.160","4pac2lkzdwll4r3",191,"126.csv","","null","resources/maskTrios/BBA1.jpg","null","",NA,NA,NA,NA,""
"image-keyboard-response",493,404187,"0.0-3.160-2.160","4pac2lkzdwll4r3",191,"126.csv","","null","resources/images/coin2.png","null","",NA,NA,NA,NA,""
"image-keyboard-response",494,404894,"0.0-3.161-0.161","4pac2lkzdwll4r3",191,"126.csv","","705.5","resources/trios/L1T4A1.jpg","39","restless",0.5,0.5,0.8,0.796448989685416,"true"
"image-keyboard-response",495,405300,"0.0-3.161-1.161","4pac2lkzdwll4r3",191,"126.csv","","null","resources/maskTrios/BBA1.jpg","null","",NA,NA,NA,NA,""
"image-keyboard-response",496,406503,"0.0-3.161-2.161","4pac2lkzdwll4r3",191,"126.csv","","null","resources/images/coin2.png","null","",NA,NA,NA,NA,""
"image-keyboard-response",497,406981,"0.0-3.162-0.162","4pac2lkzdwll4r3",191,"126.csv","","476.79999999701977","resources/trios/L4T4A2.jpg","39","restless",0.5,0.5,0.8,0.240681813401687,"true"
"image-keyboard-response",498,407388,"0.0-3.162-1.162","4pac2lkzdwll4r3",191,"126.csv","","null","resources/maskTrios/BBA2.jpg","null","",NA,NA,NA,NA,""
"image-keyboard-response",499,408591,"0.0-3.162-2.162","4pac2lkzdwll4r3",191,"126.csv","","null","resources/images/coin2.png","null","",NA,NA,NA,NA,""
"image-keyboard-response",500,408886,"0.0-3.163-0.163","4pac2lkzdwll4r3",191,"126.csv","","293.79999999701977","resources/trios/L1T1A2.jpg","39","restless",0.5,0.5,0.8,0.0252917327601205,"true"
"image-keyboard-response",501,409290,"0.0-3.163-1.163","4pac2lkzdwll4r3",191,"126.csv","","null","resources/maskTrios/BBA2.jpg","null","",NA,NA,NA,NA,""
"image-keyboard-response",502,410494,"0.0-3.163-2.163","4pac2lkzdwll4r3",191,"126.csv","","null","resources/images/coin2.png","null","",NA,NA,NA,NA,""
"image-keyboard-response",503,410890,"0.0-3.164-0.164","4pac2lkzdwll4r3",191,"126.csv","","394","resources/trios/L4T1A1.jpg","39","restless",0.5,0.5,0.8,0.034456248736656,"true"
"image-keyboard-response",504,411297,"0.0-3.164-1.164","4pac2lkzdwll4r3",191,"126.csv","","null","resources/maskTrios/BBA1.jpg","null","",NA,NA,NA,NA,""
"image-keyboard-response",505,412500,"0.0-3.164-2.164","4pac2lkzdwll4r3",191,"126.csv","","null","resources/images/coin2.png","null","",NA,NA,NA,NA,""
"image-keyboard-response",506,412785,"0.0-3.165-0.165","4pac2lkzdwll4r3",191,"126.csv","","284.29999999701977","resources/trios/L1T4A1.jpg","39","restless",0.5,0.5,0.8,0.762865055911523,"true"
"image-keyboard-response",507,413189,"0.0-3.165-1.165","4pac2lkzdwll4r3",191,"126.csv","","null","resources/maskTrios/BBA1.jpg","null","",NA,NA,NA,NA,""
"image-keyboard-response",508,414391,"0.0-3.165-2.165","4pac2lkzdwll4r3",191,"126.csv","","null","resources/images/coin2.png","null","",NA,NA,NA,NA,""
"image-keyboard-response",509,414452,"0.0-3.166-0.166","4pac2lkzdwll4r3",191,"126.csv","","58.80000001192093","resources/trios/L1T1A1.jpg","39","restless",0.5,0.5,0.8,0.758217745260593,"true"
"image-keyboard-response",510,414858,"0.0-3.166-1.166","4pac2lkzdwll4r3",191,"126.csv","","null","resources/maskTrios/BBA1.jpg","null","",NA,NA,NA,NA,""
"image-keyboard-response",511,416060,"0.0-3.166-2.166","4pac2lkzdwll4r3",191,"126.csv","","null","resources/images/coin2.png","null","",NA,NA,NA,NA,""
"image-keyboard-response",512,416391,"0.0-3.167-0.167","4pac2lkzdwll4r3",191,"126.csv","","329.3999999910593","resources/trios/L4T4A2.jpg","39","restless",0.5,0.5,0.7,0.526147464733072,"true"
"image-keyboard-response",513,416794,"0.0-3.167-1.167","4pac2lkzdwll4r3",191,"126.csv","","null","resources/maskTrios/BBA2.jpg","null","",NA,NA,NA,NA,""
"image-keyboard-response",514,417999,"0.0-3.167-2.167","4pac2lkzdwll4r3",191,"126.csv","","null","resources/images/coin2.png","null","",NA,NA,NA,NA,""
"image-keyboard-response",515,418074,"0.0-3.168-0.168","4pac2lkzdwll4r3",191,"126.csv","","73.5","resources/trios/L4T4A2.jpg","39","restless",0.6,0.5,0.7,0.756211613380223,"false"
"image-keyboard-response",516,418476,"0.0-3.168-1.168","4pac2lkzdwll4r3",191,"126.csv","","null","resources/maskTrios/BBA2.jpg","null","",NA,NA,NA,NA,""
"image-keyboard-response",517,419682,"0.0-3.168-2.168","4pac2lkzdwll4r3",191,"126.csv","","null","resources/images/fishbone.png","null","",NA,NA,NA,NA,""
"image-keyboard-response",518,419745,"0.0-3.169-0.169","4pac2lkzdwll4r3",191,"126.csv","","62.19999998807907","resources/trios/L1T4A1.jpg","39","restless",0.6,0.5,0.7,0.800602343807367,"false"
"image-keyboard-response",519,420148,"0.0-3.169-1.169","4pac2lkzdwll4r3",191,"126.csv","","null","resources/maskTrios/BBA1.jpg","null","",NA,NA,NA,NA,""
"image-keyboard-response",520,421351,"0.0-3.169-2.169","4pac2lkzdwll4r3",191,"126.csv","","null","resources/images/fishbone.png","null","",NA,NA,NA,NA,""
"image-keyboard-response",521,421671,"0.0-3.170-0.170","4pac2lkzdwll4r3",191,"126.csv","","318.6000000089407","resources/trios/L1T1A1.jpg","39","restless",0.6,0.5,0.7,0.19258017461018,"true"
"image-keyboard-response",522,422075,"0.0-3.170-1.170","4pac2lkzdwll4r3",191,"126.csv","","null","resources/maskTrios/BBA1.jpg","null","",NA,NA,NA,NA,""
"image-keyboard-response",523,423279,"0.0-3.170-2.170","4pac2lkzdwll4r3",191,"126.csv","","null","resources/images/coin2.png","null","",NA,NA,NA,NA,""
"image-keyboard-response",524,423588,"0.0-3.171-0.171","4pac2lkzdwll4r3",191,"126.csv","","307.90000000596046","resources/trios/L4T1A1.jpg","39","restless",0.6,0.5,0.7,0.491829594744259,"true"
"image-keyboard-response",525,423993,"0.0-3.171-1.171","4pac2lkzdwll4r3",191,"126.csv","","null","resources/maskTrios/BBA1.jpg","null","",NA,NA,NA,NA,""
"image-keyboard-response",526,425195,"0.0-3.171-2.171","4pac2lkzdwll4r3",191,"126.csv","","null","resources/images/coin2.png","null","",NA,NA,NA,NA,""
"image-keyboard-response",527,425565,"0.0-3.172-0.172","4pac2lkzdwll4r3",191,"126.csv","","368.40000000596046","resources/trios/L1T4A1.jpg","39","restless",0.6,0.5,0.7,0.569312672177179,"true"
"image-keyboard-response",528,425971,"0.0-3.172-1.172","4pac2lkzdwll4r3",191,"126.csv","","null","resources/maskTrios/BBA1.jpg","null","",NA,NA,NA,NA,""
"image-keyboard-response",529,427176,"0.0-3.172-2.172","4pac2lkzdwll4r3",191,"126.csv","","null","resources/images/coin2.png","null","",NA,NA,NA,NA,""
"image-keyboard-response",530,427639,"0.0-3.173-0.173","4pac2lkzdwll4r3",191,"126.csv","","461.09999999403954","resources/trios/L4T4A1.jpg","39","restless",0.6,0.4,0.7,0.540984119731978,"true"
"image-keyboard-response",531,428044,"0.0-3.173-1.173","4pac2lkzdwll4r3",191,"126.csv","","null","resources/maskTrios/BBA1.jpg","null","",NA,NA,NA,NA,""
"image-keyboard-response",532,429251,"0.0-3.173-2.173","4pac2lkzdwll4r3",191,"126.csv","","null","resources/images/coin2.png","null","",NA,NA,NA,NA,""
"image-keyboard-response",533,429762,"0.0-3.174-0.174","4pac2lkzdwll4r3",191,"126.csv","","510","resources/trios/L4T1A1.jpg","39","restless",0.6,0.4,0.7,0.940473982607756,"false"
"image-keyboard-response",534,430164,"0.0-3.174-1.174","4pac2lkzdwll4r3",191,"126.csv","","null","resources/maskTrios/BBA1.jpg","null","",NA,NA,NA,NA,""
"image-keyboard-response",535,431367,"0.0-3.174-2.174","4pac2lkzdwll4r3",191,"126.csv","","null","resources/images/fishbone.png","null","",NA,NA,NA,NA,""
"image-keyboard-response",536,431897,"0.0-3.175-0.175","4pac2lkzdwll4r3",191,"126.csv","","528.5","resources/trios/L4T4A1.jpg","38","restless",0.6,0.4,0.7,0.303594711824795,"true"
"image-keyboard-response",537,432301,"0.0-3.175-1.175","4pac2lkzdwll4r3",191,"126.csv","","null","resources/maskTrios/BT4B.jpg","null","",NA,NA,NA,NA,""
"image-keyboard-response",538,433504,"0.0-3.175-2.175","4pac2lkzdwll4r3",191,"126.csv","","null","resources/images/coin2.png","null","",NA,NA,NA,NA,""
"image-keyboard-response",539,433997,"0.0-3.176-0.176","4pac2lkzdwll4r3",191,"126.csv","","491.5","resources/trios/L4T1A2.jpg","38","restless",0.6,0.4,0.7,0.925154972962708,"false"
"image-keyboard-response",540,434403,"0.0-3.176-1.176","4pac2lkzdwll4r3",191,"126.csv","","null","resources/maskTrios/BT1B.jpg","null","",NA,NA,NA,NA,""
"image-keyboard-response",541,435606,"0.0-3.176-2.176","4pac2lkzdwll4r3",191,"126.csv","","null","resources/images/fishbone.png","null","",NA,NA,NA,NA,""
"image-keyboard-response",542,435872,"0.0-3.177-0.177","4pac2lkzdwll4r3",191,"126.csv","","264.79999999701977","resources/trios/L4T1A2.jpg","38","restless",0.6,0.4,0.7,0.541672066665455,"false"
"image-keyboard-response",543,436278,"0.0-3.177-1.177","4pac2lkzdwll4r3",191,"126.csv","","null","resources/maskTrios/BT1B.jpg","null","",NA,NA,NA,NA,""
"image-keyboard-response",544,437482,"0.0-3.177-2.177","4pac2lkzdwll4r3",191,"126.csv","","null","resources/images/fishbone.png","null","",NA,NA,NA,NA,""
"image-keyboard-response",545,437685,"0.0-3.178-0.178","4pac2lkzdwll4r3",191,"126.csv","","202.5","resources/trios/L1T4A2.jpg","38","restless",0.6,0.4,0.7,0.592414031357582,"false"
"image-keyboard-response",546,438088,"0.0-3.178-1.178","4pac2lkzdwll4r3",191,"126.csv","","null","resources/maskTrios/BT4B.jpg","null","",NA,NA,NA,NA,""
"image-keyboard-response",547,439291,"0.0-3.178-2.178","4pac2lkzdwll4r3",191,"126.csv","","null","resources/images/fishbone.png","null","",NA,NA,NA,NA,""
"image-keyboard-response",548,439474,"0.0-3.179-0.179","4pac2lkzdwll4r3",191,"126.csv","","181.90000000596046","resources/trios/L4T1A1.jpg","39","restless",0.6,0.4,0.7,0.238261135652254,"true"
"image-keyboard-response",549,439880,"0.0-3.179-1.179","4pac2lkzdwll4r3",191,"126.csv","","null","resources/maskTrios/BBA1.jpg","null","",NA,NA,NA,NA,""
"image-keyboard-response",550,441083,"0.0-3.179-2.179","4pac2lkzdwll4r3",191,"126.csv","","null","resources/images/coin2.png","null","",NA,NA,NA,NA,""
"image-keyboard-response",551,441373,"0.0-3.180-0.180","4pac2lkzdwll4r3",191,"126.csv","","288.90000000596046","resources/trios/L4T1A1.jpg","39","restless",0.6,0.4,0.7,0.774355802712001,"false"
"image-keyboard-response",552,441779,"0.0-3.180-1.180","4pac2lkzdwll4r3",191,"126.csv","","null","resources/maskTrios/BBA1.jpg","null","",NA,NA,NA,NA,""
"image-keyboard-response",553,442983,"0.0-3.180-2.180","4pac2lkzdwll4r3",191,"126.csv","","null","resources/images/fishbone.png","null","",NA,NA,NA,NA,""
"image-keyboard-response",554,443257,"0.0-3.181-0.181","4pac2lkzdwll4r3",191,"126.csv","","272.6000000089407","resources/trios/L4T1A1.jpg","37","restless",0.6,0.4,0.7,0.655912459769916,"false"
"image-keyboard-response",555,443660,"0.0-3.181-1.181","4pac2lkzdwll4r3",191,"126.csv","","null","resources/maskTrios/L4BB.jpg","null","",NA,NA,NA,NA,""
"image-keyboard-response",556,444865,"0.0-3.181-2.181","4pac2lkzdwll4r3",191,"126.csv","","null","resources/images/fishbone.png","null","",NA,NA,NA,NA,""
"image-keyboard-response",557,445234,"0.0-3.182-0.182","4pac2lkzdwll4r3",191,"126.csv","","368.5","resources/trios/L1T4A1.jpg","37","restless",0.6,0.3,0.7,0.618733527993272,"false"
"image-keyboard-response",558,445638,"0.0-3.182-1.182","4pac2lkzdwll4r3",191,"126.csv","","null","resources/maskTrios/L1BB.jpg","null","",NA,NA,NA,NA,""
"image-keyboard-response",559,446841,"0.0-3.182-2.182","4pac2lkzdwll4r3",191,"126.csv","","null","resources/images/fishbone.png","null","",NA,NA,NA,NA,""
"image-keyboard-response",560,447086,"0.0-3.183-0.183","4pac2lkzdwll4r3",191,"126.csv","","243.59999999403954","resources/trios/L1T4A2.jpg","39","restless",0.6,0.3,0.7,0.508036137188064,"true"
"image-keyboard-response",561,447491,"0.0-3.183-1.183","4pac2lkzdwll4r3",191,"126.csv","","null","resources/maskTrios/BBA2.jpg","null","",NA,NA,NA,NA,""
"image-keyboard-response",562,448695,"0.0-3.183-2.183","4pac2lkzdwll4r3",191,"126.csv","","null","resources/images/coin2.png","null","",NA,NA,NA,NA,""
"image-keyboard-response",563,449144,"0.0-3.184-0.184","4pac2lkzdwll4r3",191,"126.csv","","447.59999999403954","resources/trios/L4T1A2.jpg","39","restless",0.6,0.3,0.7,0.0612007783970985,"true"
"image-keyboard-response",564,449548,"0.0-3.184-1.184","4pac2lkzdwll4r3",191,"126.csv","","null","resources/maskTrios/BBA2.jpg","null","",NA,NA,NA,NA,""
"image-keyboard-response",565,450754,"0.0-3.184-2.184","4pac2lkzdwll4r3",191,"126.csv","","null","resources/images/coin2.png","null","",NA,NA,NA,NA,""
"image-keyboard-response",566,451305,"0.0-3.185-0.185","4pac2lkzdwll4r3",191,"126.csv","","549.7999999970198","resources/trios/L4T4A1.jpg","39","restless",0.6,0.3,0.7,0.757279451076366,"false"
"image-keyboard-response",567,451708,"0.0-3.185-1.185","4pac2lkzdwll4r3",191,"126.csv","","null","resources/maskTrios/BBA1.jpg","null","",NA,NA,NA,NA,""
"image-keyboard-response",568,452914,"0.0-3.185-2.185","4pac2lkzdwll4r3",191,"126.csv","","null","resources/images/fishbone.png","null","",NA,NA,NA,NA,""
"image-keyboard-response",569,453345,"0.0-3.186-0.186","4pac2lkzdwll4r3",191,"126.csv","","429.70000000298023","resources/trios/L4T4A2.jpg","39","restless",0.5,0.3,0.6,0.45708599061543,"true"
"image-keyboard-response",570,453748,"0.0-3.186-1.186","4pac2lkzdwll4r3",191,"126.csv","","null","resources/maskTrios/BBA2.jpg","null","",NA,NA,NA,NA,""
"image-keyboard-response",571,454954,"0.0-3.186-2.186","4pac2lkzdwll4r3",191,"126.csv","","null","resources/images/coin2.png","null","",NA,NA,NA,NA,""
"image-keyboard-response",572,455234,"0.0-3.187-0.187","4pac2lkzdwll4r3",191,"126.csv","","278.5","resources/trios/L1T1A2.jpg","39","restless",0.5,0.3,0.6,0.419807953617449,"true"
"image-keyboard-response",573,455638,"0.0-3.187-1.187","4pac2lkzdwll4r3",191,"126.csv","","null","resources/maskTrios/BBA2.jpg","null","",NA,NA,NA,NA,""
"image-keyboard-response",574,456843,"0.0-3.187-2.187","4pac2lkzdwll4r3",191,"126.csv","","null","resources/images/coin2.png","null","",NA,NA,NA,NA,""
"image-keyboard-response",575,456876,"0.0-3.188-0.188","4pac2lkzdwll4r3",191,"126.csv","","31.200000002980232","resources/trios/L4T4A2.jpg","39","restless",0.5,0.3,0.6,0.611006429151421,"false"
"image-keyboard-response",576,457280,"0.0-3.188-1.188","4pac2lkzdwll4r3",191,"126.csv","","null","resources/maskTrios/BBA2.jpg","null","",NA,NA,NA,NA,""
"image-keyboard-response",577,458486,"0.0-3.188-2.188","4pac2lkzdwll4r3",191,"126.csv","","null","resources/images/fishbone.png","null","",NA,NA,NA,NA,""
"image-keyboard-response",578,458720,"0.0-3.189-0.189","4pac2lkzdwll4r3",191,"126.csv","","232.70000000298023","resources/trios/L1T4A2.jpg","38","restless",0.5,0.3,0.5,0.352307171284898,"false"
"image-keyboard-response",579,459124,"0.0-3.189-1.189","4pac2lkzdwll4r3",191,"126.csv","","null","resources/maskTrios/BT4B.jpg","null","",NA,NA,NA,NA,""
"image-keyboard-response",580,460330,"0.0-3.189-2.189","4pac2lkzdwll4r3",191,"126.csv","","null","resources/images/fishbone.png","null","",NA,NA,NA,NA,""
"image-keyboard-response",581,460864,"0.0-3.190-0.190","4pac2lkzdwll4r3",191,"126.csv","","532.3000000119209","resources/trios/L4T1A2.jpg","38","restless",0.5,0.3,0.5,0.758319890602676,"false"
"image-keyboard-response",582,461266,"0.0-3.190-1.190","4pac2lkzdwll4r3",191,"126.csv","","null","resources/maskTrios/BT1B.jpg","null","",NA,NA,NA,NA,""
"image-keyboard-response",583,462473,"0.0-3.190-2.190","4pac2lkzdwll4r3",191,"126.csv","","null","resources/images/fishbone.png","null","",NA,NA,NA,NA,""
"image-keyboard-response",584,462704,"0.0-3.191-0.191","4pac2lkzdwll4r3",191,"126.csv","","230.59999999403954","resources/trios/L4T1A2.jpg","39","restless",0.5,0.2,0.5,0.750694018154496,"false"
"image-keyboard-response",585,463111,"0.0-3.191-1.191","4pac2lkzdwll4r3",191,"126.csv","","null","resources/maskTrios/BBA2.jpg","null","",NA,NA,NA,NA,""
"image-keyboard-response",586,464312,"0.0-3.191-2.191","4pac2lkzdwll4r3",191,"126.csv","","null","resources/images/fishbone.png","null","",NA,NA,NA,NA,""
"image-keyboard-response",587,464588,"0.0-3.192-0.192","4pac2lkzdwll4r3",191,"126.csv","","274.1000000089407","resources/trios/L4T1A2.jpg","39","restless",0.5,0.2,0.4,0.751572115451663,"false"
"image-keyboard-response",588,464990,"0.0-3.192-1.192","4pac2lkzdwll4r3",191,"126.csv","","null","resources/maskTrios/BBA2.jpg","null","",NA,NA,NA,NA,""
"image-keyboard-response",589,466195,"0.0-3.192-2.192","4pac2lkzdwll4r3",191,"126.csv","","null","resources/images/fishbone.png","null","",NA,NA,NA,NA,""
"image-keyboard-response",590,467156,"0.0-3.193-0.193","4pac2lkzdwll4r3",191,"126.csv","","959.4000000059605","resources/trios/L1T4A1.jpg","39","restless",0.5,0.2,0.4,0.766464619817849,"false"
"image-keyboard-response",591,467560,"0.0-3.193-1.193","4pac2lkzdwll4r3",191,"126.csv","","null","resources/maskTrios/BBA1.jpg","null","",NA,NA,NA,NA,""
"image-keyboard-response",592,468766,"0.0-3.193-2.193","4pac2lkzdwll4r3",191,"126.csv","","null","resources/images/fishbone.png","null","",NA,NA,NA,NA,""
"image-keyboard-response",593,469114,"0.0-3.194-0.194","4pac2lkzdwll4r3",191,"126.csv","","346.70000000298023","resources/trios/L1T1A1.jpg","37","restless",0.5,0.2,0.4,0.801033662224146,"false"
"image-keyboard-response",594,469519,"0.0-3.194-1.194","4pac2lkzdwll4r3",191,"126.csv","","null","resources/maskTrios/L1BB.jpg","null","",NA,NA,NA,NA,""
"image-keyboard-response",595,470720,"0.0-3.194-2.194","4pac2lkzdwll4r3",191,"126.csv","","null","resources/images/fishbone.png","null","",NA,NA,NA,NA,""
"image-keyboard-response",596,471214,"0.0-3.195-0.195","4pac2lkzdwll4r3",191,"126.csv","","493.20000000298023","resources/trios/L1T1A2.jpg","37","restless",0.5,0.2,0.4,0.417927616237175,"true"
"image-keyboard-response",597,471616,"0.0-3.195-1.195","4pac2lkzdwll4r3",191,"126.csv","","null","resources/maskTrios/L1BB.jpg","null","",NA,NA,NA,NA,""
"image-keyboard-response",598,472821,"0.0-3.195-2.195","4pac2lkzdwll4r3",191,"126.csv","","null","resources/images/coin2.png","null","",NA,NA,NA,NA,""
"image-keyboard-response",599,473071,"0.0-3.196-0.196","4pac2lkzdwll4r3",191,"126.csv","","248.59999999403954","resources/trios/L1T1A1.jpg","37","restless",0.5,0.2,0.4,0.0577857567753155,"true"
"image-keyboard-response",600,473476,"0.0-3.196-1.196","4pac2lkzdwll4r3",191,"126.csv","","null","resources/maskTrios/L1BB.jpg","null","",NA,NA,NA,NA,""
"image-keyboard-response",601,474680,"0.0-3.196-2.196","4pac2lkzdwll4r3",191,"126.csv","","null","resources/images/coin2.png","null","",NA,NA,NA,NA,""
"image-keyboard-response",602,474998,"0.0-3.197-0.197","4pac2lkzdwll4r3",191,"126.csv","","317.09999999403954","resources/trios/L4T4A2.jpg","37","restless",0.6,0.2,0.4,0.617970824272112,"false"
"image-keyboard-response",603,475404,"0.0-3.197-1.197","4pac2lkzdwll4r3",191,"126.csv","","null","resources/maskTrios/L4BB.jpg","null","",NA,NA,NA,NA,""
"image-keyboard-response",604,476608,"0.0-3.197-2.197","4pac2lkzdwll4r3",191,"126.csv","","null","resources/images/fishbone.png","null","",NA,NA,NA,NA,""
"image-keyboard-response",605,477048,"0.0-3.198-0.198","4pac2lkzdwll4r3",191,"126.csv","","439","resources/trios/L4T4A2.jpg","38","restless",0.6,0.2,0.4,0.73252148944918,"false"
"image-keyboard-response",606,477454,"0.0-3.198-1.198","4pac2lkzdwll4r3",191,"126.csv","","null","resources/maskTrios/BT4B.jpg","null","",NA,NA,NA,NA,""
