"trial_type","trial_index","time_elapsed","internal_node_id","subject","participantCode","walkNumber","success","rt","stimulus","key_press","test_part","leftProb","midProb","rightProb","generatedNum","correct"
"pavlovia",0,1072,"0.0-0.0","vxusfx6v6b01xjd",939,"166.csv","","","","","",NA,NA,NA,NA,""
"fullscreen",1,4267,"0.0-1.0","vxusfx6v6b01xjd",939,"166.csv","true","","","","",NA,NA,NA,NA,""
"html-keyboard-response",2,7881,"0.0-2.0-0.0","vxusfx6v6b01xjd",939,"166.csv","","3612","<p><font size='6'>Arrrgh!</p></font><p>Can you be the best pirate? Try to find lots of gold! But beware, some islands have more gold than others, and over time, the island with the most gold may change. Can YOU figure it out? </p><font size='6'>GOOD LUCK, CAPTAIN!!!</font><p>Press any key to begin</p>","32","",NA,NA,NA,NA,""
"image-keyboard-response",3,10884,"0.0-2.0-1.0","vxusfx6v6b01xjd",939,"166.csv","","null","resources/image_sets/111.png","null","",NA,NA,NA,NA,""
"image-keyboard-response",4,16259,"0.0-2.0-2.0","vxusfx6v6b01xjd",939,"166.csv","","5373","resources/image_sets/left_highlight.png","37","",NA,NA,NA,NA,""
"image-keyboard-response",5,19107,"0.0-2.0-3.0","vxusfx6v6b01xjd",939,"166.csv","","2846.9999999999964","resources/image_sets/mid_highlight.png","38","",NA,NA,NA,NA,""
"image-keyboard-response",6,19902,"0.0-2.0-4.0","vxusfx6v6b01xjd",939,"166.csv","","794","resources/image_sets/right_highlight.png","39","",NA,NA,NA,NA,""
"image-keyboard-response",7,23530,"0.0-2.0-5.0","vxusfx6v6b01xjd",939,"166.csv","","3627","resources/image_sets/111.png","13","",NA,NA,NA,NA,""
"image-keyboard-response",8,25948,"0.0-2.0-6.0","vxusfx6v6b01xjd",939,"166.csv","","2417","resources/images/coin2.png","13","",NA,NA,NA,NA,""
"image-keyboard-response",9,28218,"0.0-2.0-7.0","vxusfx6v6b01xjd",939,"166.csv","","2267.9999999999964","resources/images/fishbone.png","13","",NA,NA,NA,NA,""
"html-keyboard-response",10,30929,"0.0-2.0-8.0","vxusfx6v6b01xjd",939,"166.csv","","2710","<p>Your first journey will be a long one, but you will get a well deserved break at the end</p><p>After the break you will have four more journeys, but each will be much shorter than the first, and you will have breaks in between each</p><p>Press Enter to begin</p>","13","",NA,NA,NA,NA,""
"image-keyboard-response",11,32980,"0.0-3.0-0.0","vxusfx6v6b01xjd",939,"166.csv","","2050","resources/trios/L2T4A2.jpg","37","restless",0.3,0.9,0.7,0.146103201976609,"true"
"image-keyboard-response",12,33384,"0.0-3.0-1.0","vxusfx6v6b01xjd",939,"166.csv","","null","resources/maskTrios/L2BB.jpg","null","",NA,NA,NA,NA,""
"image-keyboard-response",13,34588,"0.0-3.0-2.0","vxusfx6v6b01xjd",939,"166.csv","","null","resources/images/coin2.png","null","",NA,NA,NA,NA,""
"image-keyboard-response",14,36059,"0.0-3.1-0.1","vxusfx6v6b01xjd",939,"166.csv","","1469.0000000000073","resources/trios/L1T2A2.jpg","39","restless",0.3,0.9,0.7,0.503124987785452,"true"
"image-keyboard-response",15,36462,"0.0-3.1-1.1","vxusfx6v6b01xjd",939,"166.csv","","null","resources/maskTrios/BBA2.jpg","null","",NA,NA,NA,NA,""
"image-keyboard-response",16,37664,"0.0-3.1-2.1","vxusfx6v6b01xjd",939,"166.csv","","null","resources/images/coin2.png","null","",NA,NA,NA,NA,""
"image-keyboard-response",17,38257,"0.0-3.2-0.2","vxusfx6v6b01xjd",939,"166.csv","","591.0000000000073","resources/trios/L2T4A3.jpg","38","restless",0.3,0.9,0.7,0.432919324316313,"true"
"image-keyboard-response",18,38660,"0.0-3.2-1.2","vxusfx6v6b01xjd",939,"166.csv","","null","resources/maskTrios/BT4B.jpg","null","",NA,NA,NA,NA,""
"image-keyboard-response",19,39865,"0.0-3.2-2.2","vxusfx6v6b01xjd",939,"166.csv","","null","resources/images/coin2.png","null","",NA,NA,NA,NA,""
"image-keyboard-response",20,42434,"0.0-3.3-0.3","vxusfx6v6b01xjd",939,"166.csv","","2567.0000000000073","resources/trios/L2T2A3.jpg","39","restless",0.3,0.9,0.7,0.68465501943037,"true"
"image-keyboard-response",21,42837,"0.0-3.3-1.3","vxusfx6v6b01xjd",939,"166.csv","","null","resources/maskTrios/BBA3.jpg","null","",NA,NA,NA,NA,""
"image-keyboard-response",22,44039,"0.0-3.3-2.3","vxusfx6v6b01xjd",939,"166.csv","","null","resources/images/coin2.png","null","",NA,NA,NA,NA,""
"image-keyboard-response",23,44847,"0.0-3.4-0.4","vxusfx6v6b01xjd",939,"166.csv","","802","resources/trios/L2T2A3.jpg","37","restless",0.2,0.9,0.7,0.228993166534033,"false"
"image-keyboard-response",24,45250,"0.0-3.4-1.4","vxusfx6v6b01xjd",939,"166.csv","","null","resources/maskTrios/L2BB.jpg","null","",NA,NA,NA,NA,""
"image-keyboard-response",25,46451,"0.0-3.4-2.4","vxusfx6v6b01xjd",939,"166.csv","","null","resources/images/fishbone.png","null","",NA,NA,NA,NA,""
"image-keyboard-response",26,46888,"0.0-3.5-0.5","vxusfx6v6b01xjd",939,"166.csv","","436","resources/trios/L2T4A3.jpg","39","restless",0.2,0.9,0.7,0.566351810579131,"true"
"image-keyboard-response",27,47290,"0.0-3.5-1.5","vxusfx6v6b01xjd",939,"166.csv","","null","resources/maskTrios/BBA3.jpg","null","",NA,NA,NA,NA,""
"image-keyboard-response",28,48493,"0.0-3.5-2.5","vxusfx6v6b01xjd",939,"166.csv","","null","resources/images/coin2.png","null","",NA,NA,NA,NA,""
"image-keyboard-response",29,48871,"0.0-3.6-0.6","vxusfx6v6b01xjd",939,"166.csv","","377","resources/trios/L2T2A2.jpg","39","restless",0.2,0.9,0.7,0.836677316954035,"false"
"image-keyboard-response",30,49273,"0.0-3.6-1.6","vxusfx6v6b01xjd",939,"166.csv","","null","resources/maskTrios/BBA2.jpg","null","",NA,NA,NA,NA,""
"image-keyboard-response",31,50476,"0.0-3.6-2.6","vxusfx6v6b01xjd",939,"166.csv","","null","resources/images/fishbone.png","null","",NA,NA,NA,NA,""
"image-keyboard-response",32,50964,"0.0-3.7-0.7","vxusfx6v6b01xjd",939,"166.csv","","487","resources/trios/L1T4A3.jpg","38","restless",0.2,0.9,0.7,0.379357633279838,"true"
"image-keyboard-response",33,51367,"0.0-3.7-1.7","vxusfx6v6b01xjd",939,"166.csv","","null","resources/maskTrios/BT4B.jpg","null","",NA,NA,NA,NA,""
"image-keyboard-response",34,52569,"0.0-3.7-2.7","vxusfx6v6b01xjd",939,"166.csv","","null","resources/images/coin2.png","null","",NA,NA,NA,NA,""
"image-keyboard-response",35,53096,"0.0-3.8-0.8","vxusfx6v6b01xjd",939,"166.csv","","523.9999999999927","resources/trios/L2T2A3.jpg","37","restless",0.2,0.9,0.7,0.751865976801786,"false"
"image-keyboard-response",36,53498,"0.0-3.8-1.8","vxusfx6v6b01xjd",939,"166.csv","","null","resources/maskTrios/L2BB.jpg","null","",NA,NA,NA,NA,""
"image-keyboard-response",37,54701,"0.0-3.8-2.8","vxusfx6v6b01xjd",939,"166.csv","","null","resources/images/fishbone.png","null","",NA,NA,NA,NA,""
"image-keyboard-response",38,55192,"0.0-3.9-0.9","vxusfx6v6b01xjd",939,"166.csv","","489.9999999999927","resources/trios/L2T2A2.jpg","39","restless",0.2,0.9,0.7,0.415480562250477,"true"
"image-keyboard-response",39,55595,"0.0-3.9-1.9","vxusfx6v6b01xjd",939,"166.csv","","null","resources/maskTrios/BBA2.jpg","null","",NA,NA,NA,NA,""
"image-keyboard-response",40,56797,"0.0-3.9-2.9","vxusfx6v6b01xjd",939,"166.csv","","null","resources/images/coin2.png","null","",NA,NA,NA,NA,""
"image-keyboard-response",41,57276,"0.0-3.10-0.10","vxusfx6v6b01xjd",939,"166.csv","","478","resources/trios/L2T4A2.jpg","38","restless",0.2,0.9,0.7,0.0524051046249694,"true"
"image-keyboard-response",42,57679,"0.0-3.10-1.10","vxusfx6v6b01xjd",939,"166.csv","","null","resources/maskTrios/BT4B.jpg","null","",NA,NA,NA,NA,""
"image-keyboard-response",43,58881,"0.0-3.10-2.10","vxusfx6v6b01xjd",939,"166.csv","","null","resources/images/coin2.png","null","",NA,NA,NA,NA,""
"image-keyboard-response",44,61149,"0.0-3.11-0.11","vxusfx6v6b01xjd",939,"166.csv","","2263.9999999999927","resources/trios/L2T4A2.jpg","39","restless",0.2,0.9,0.8,0.722157109117573,"true"
"image-keyboard-response",45,61552,"0.0-3.11-1.11","vxusfx6v6b01xjd",939,"166.csv","","null","resources/maskTrios/BBA2.jpg","null","",NA,NA,NA,NA,""
"image-keyboard-response",46,62754,"0.0-3.11-2.11","vxusfx6v6b01xjd",939,"166.csv","","null","resources/images/coin2.png","null","",NA,NA,NA,NA,""
"image-keyboard-response",47,64595,"0.0-3.12-0.12","vxusfx6v6b01xjd",939,"166.csv","","1840","resources/trios/L1T4A2.jpg","37","restless",0.2,0.9,0.8,0.558119919159467,"false"
"image-keyboard-response",48,64998,"0.0-3.12-1.12","vxusfx6v6b01xjd",939,"166.csv","","null","resources/maskTrios/L1BB.jpg","null","",NA,NA,NA,NA,""
"image-keyboard-response",49,66200,"0.0-3.12-2.12","vxusfx6v6b01xjd",939,"166.csv","","null","resources/images/fishbone.png","null","",NA,NA,NA,NA,""
"image-keyboard-response",50,66710,"0.0-3.13-0.13","vxusfx6v6b01xjd",939,"166.csv","","508","resources/trios/L2T4A3.jpg","37","restless",0.2,0.9,0.8,0.208784805537019,"false"
"image-keyboard-response",51,67112,"0.0-3.13-1.13","vxusfx6v6b01xjd",939,"166.csv","","null","resources/maskTrios/L2BB.jpg","null","",NA,NA,NA,NA,""
"image-keyboard-response",52,68314,"0.0-3.13-2.13","vxusfx6v6b01xjd",939,"166.csv","","null","resources/images/fishbone.png","null","",NA,NA,NA,NA,""
"image-keyboard-response",53,69042,"0.0-3.14-0.14","vxusfx6v6b01xjd",939,"166.csv","","723","resources/trios/L2T4A2.jpg","38","restless",0.2,0.9,0.8,0.518213771719168,"true"
"image-keyboard-response",54,69445,"0.0-3.14-1.14","vxusfx6v6b01xjd",939,"166.csv","","null","resources/maskTrios/BT4B.jpg","null","",NA,NA,NA,NA,""
"image-keyboard-response",55,70648,"0.0-3.14-2.14","vxusfx6v6b01xjd",939,"166.csv","","null","resources/images/coin2.png","null","",NA,NA,NA,NA,""
"image-keyboard-response",56,71062,"0.0-3.15-0.15","vxusfx6v6b01xjd",939,"166.csv","","413","resources/trios/L1T4A3.jpg","38","restless",0.2,0.9,0.8,0.4338176211677,"true"
"image-keyboard-response",57,71465,"0.0-3.15-1.15","vxusfx6v6b01xjd",939,"166.csv","","null","resources/maskTrios/BT4B.jpg","null","",NA,NA,NA,NA,""
"image-keyboard-response",58,72668,"0.0-3.15-2.15","vxusfx6v6b01xjd",939,"166.csv","","null","resources/images/coin2.png","null","",NA,NA,NA,NA,""
"image-keyboard-response",59,72994,"0.0-3.16-0.16","vxusfx6v6b01xjd",939,"166.csv","","325.00000000001455","resources/trios/L1T2A3.jpg","38","restless",0.2,0.9,0.8,0.241704462820122,"true"
"image-keyboard-response",60,73397,"0.0-3.16-1.16","vxusfx6v6b01xjd",939,"166.csv","","null","resources/maskTrios/BT2B.jpg","null","",NA,NA,NA,NA,""
"image-keyboard-response",61,74600,"0.0-3.16-2.16","vxusfx6v6b01xjd",939,"166.csv","","null","resources/images/coin2.png","null","",NA,NA,NA,NA,""
"image-keyboard-response",62,74991,"0.0-3.17-0.17","vxusfx6v6b01xjd",939,"166.csv","","390","resources/trios/L1T4A2.jpg","38","restless",0.2,0.9,0.8,0.11531751002608,"true"
"image-keyboard-response",63,75393,"0.0-3.17-1.17","vxusfx6v6b01xjd",939,"166.csv","","null","resources/maskTrios/BT4B.jpg","null","",NA,NA,NA,NA,""
"image-keyboard-response",64,76595,"0.0-3.17-2.17","vxusfx6v6b01xjd",939,"166.csv","","null","resources/images/coin2.png","null","",NA,NA,NA,NA,""
"image-keyboard-response",65,76635,"0.0-3.18-0.18","vxusfx6v6b01xjd",939,"166.csv","","35","resources/trios/L1T2A3.jpg","38","restless",0.3,0.8,0.8,0.851645299788627,"false"
"image-keyboard-response",66,77038,"0.0-3.18-1.18","vxusfx6v6b01xjd",939,"166.csv","","null","resources/maskTrios/BT2B.jpg","null","",NA,NA,NA,NA,""
"image-keyboard-response",67,78240,"0.0-3.18-2.18","vxusfx6v6b01xjd",939,"166.csv","","null","resources/images/fishbone.png","null","",NA,NA,NA,NA,""
"image-keyboard-response",68,78649,"0.0-3.19-0.19","vxusfx6v6b01xjd",939,"166.csv","","407","resources/trios/L1T4A2.jpg","38","restless",0.3,0.8,0.8,0.957090474610303,"false"
"image-keyboard-response",69,79052,"0.0-3.19-1.19","vxusfx6v6b01xjd",939,"166.csv","","null","resources/maskTrios/BT4B.jpg","null","",NA,NA,NA,NA,""
"image-keyboard-response",70,80254,"0.0-3.19-2.19","vxusfx6v6b01xjd",939,"166.csv","","null","resources/images/fishbone.png","null","",NA,NA,NA,NA,""
"image-keyboard-response",71,80707,"0.0-3.20-0.20","vxusfx6v6b01xjd",939,"166.csv","","450.99999999998545","resources/trios/L1T2A2.jpg","39","restless",0.3,0.8,0.8,0.311173599196337,"true"
"image-keyboard-response",72,81110,"0.0-3.20-1.20","vxusfx6v6b01xjd",939,"166.csv","","null","resources/maskTrios/BBA2.jpg","null","",NA,NA,NA,NA,""
"image-keyboard-response",73,82312,"0.0-3.20-2.20","vxusfx6v6b01xjd",939,"166.csv","","null","resources/images/coin2.png","null","",NA,NA,NA,NA,""
"image-keyboard-response",74,82750,"0.0-3.21-0.21","vxusfx6v6b01xjd",939,"166.csv","","436","resources/trios/L2T2A3.jpg","39","restless",0.3,0.8,0.8,0.898393065691948,"false"
"image-keyboard-response",75,83153,"0.0-3.21-1.21","vxusfx6v6b01xjd",939,"166.csv","","null","resources/maskTrios/BBA3.jpg","null","",NA,NA,NA,NA,""
"image-keyboard-response",76,84354,"0.0-3.21-2.21","vxusfx6v6b01xjd",939,"166.csv","","null","resources/images/fishbone.png","null","",NA,NA,NA,NA,""
"image-keyboard-response",77,84694,"0.0-3.22-0.22","vxusfx6v6b01xjd",939,"166.csv","","338","resources/trios/L2T2A2.jpg","39","restless",0.3,0.7,0.9,0.59293291669719,"true"
"image-keyboard-response",78,85096,"0.0-3.22-1.22","vxusfx6v6b01xjd",939,"166.csv","","null","resources/maskTrios/BBA2.jpg","null","",NA,NA,NA,NA,""
"image-keyboard-response",79,86299,"0.0-3.22-2.22","vxusfx6v6b01xjd",939,"166.csv","","null","resources/images/coin2.png","null","",NA,NA,NA,NA,""
"image-keyboard-response",80,86644,"0.0-3.23-0.23","vxusfx6v6b01xjd",939,"166.csv","","344","resources/trios/L2T4A2.jpg","39","restless",0.3,0.7,0.9,0.250719001396476,"true"
"image-keyboard-response",81,87047,"0.0-3.23-1.23","vxusfx6v6b01xjd",939,"166.csv","","null","resources/maskTrios/BBA2.jpg","null","",NA,NA,NA,NA,""
"image-keyboard-response",82,88252,"0.0-3.23-2.23","vxusfx6v6b01xjd",939,"166.csv","","null","resources/images/coin2.png","null","",NA,NA,NA,NA,""
"image-keyboard-response",83,88619,"0.0-3.24-0.24","vxusfx6v6b01xjd",939,"166.csv","","366","resources/trios/L1T2A3.jpg","39","restless",0.3,0.7,0.9,0.0170093181288701,"true"
"image-keyboard-response",84,89022,"0.0-3.24-1.24","vxusfx6v6b01xjd",939,"166.csv","","null","resources/maskTrios/BBA3.jpg","null","",NA,NA,NA,NA,""
"image-keyboard-response",85,90224,"0.0-3.24-2.24","vxusfx6v6b01xjd",939,"166.csv","","null","resources/images/coin2.png","null","",NA,NA,NA,NA,""
"image-keyboard-response",86,90618,"0.0-3.25-0.25","vxusfx6v6b01xjd",939,"166.csv","","391.99999999998545","resources/trios/L1T2A3.jpg","39","restless",0.4,0.7,0.9,0.481730659467591,"true"
"image-keyboard-response",87,91021,"0.0-3.25-1.25","vxusfx6v6b01xjd",939,"166.csv","","null","resources/maskTrios/BBA3.jpg","null","",NA,NA,NA,NA,""
"image-keyboard-response",88,92223,"0.0-3.25-2.25","vxusfx6v6b01xjd",939,"166.csv","","null","resources/images/coin2.png","null","",NA,NA,NA,NA,""
"image-keyboard-response",89,92502,"0.0-3.26-0.26","vxusfx6v6b01xjd",939,"166.csv","","278","resources/trios/L1T2A3.jpg","39","restless",0.5,0.7,0.9,0.483845100665237,"true"
"image-keyboard-response",90,92905,"0.0-3.26-1.26","vxusfx6v6b01xjd",939,"166.csv","","null","resources/maskTrios/BBA3.jpg","null","",NA,NA,NA,NA,""
"image-keyboard-response",91,94108,"0.0-3.26-2.26","vxusfx6v6b01xjd",939,"166.csv","","null","resources/images/coin2.png","null","",NA,NA,NA,NA,""
"image-keyboard-response",92,94127,"0.0-3.27-0.27","vxusfx6v6b01xjd",939,"166.csv","","17","resources/trios/L1T4A2.jpg","39","restless",0.5,0.6,0.9,0.822772535895593,"true"
"image-keyboard-response",93,94530,"0.0-3.27-1.27","vxusfx6v6b01xjd",939,"166.csv","","null","resources/maskTrios/BBA2.jpg","null","",NA,NA,NA,NA,""
"image-keyboard-response",94,95732,"0.0-3.27-2.27","vxusfx6v6b01xjd",939,"166.csv","","null","resources/images/coin2.png","null","",NA,NA,NA,NA,""
"image-keyboard-response",95,96015,"0.0-3.28-0.28","vxusfx6v6b01xjd",939,"166.csv","","282.00000000001455","resources/trios/L1T4A2.jpg","39","restless",0.5,0.6,0.9,0.874170474039053,"true"
"image-keyboard-response",96,96418,"0.0-3.28-1.28","vxusfx6v6b01xjd",939,"166.csv","","null","resources/maskTrios/BBA2.jpg","null","",NA,NA,NA,NA,""
"image-keyboard-response",97,97620,"0.0-3.28-2.28","vxusfx6v6b01xjd",939,"166.csv","","null","resources/images/coin2.png","null","",NA,NA,NA,NA,""
"image-keyboard-response",98,97905,"0.0-3.29-0.29","vxusfx6v6b01xjd",939,"166.csv","","283","resources/trios/L1T4A2.jpg","39","restless",0.5,0.5,0.9,0.581220888198109,"true"
"image-keyboard-response",99,98308,"0.0-3.29-1.29","vxusfx6v6b01xjd",939,"166.csv","","null","resources/maskTrios/BBA2.jpg","null","",NA,NA,NA,NA,""
"image-keyboard-response",100,99509,"0.0-3.29-2.29","vxusfx6v6b01xjd",939,"166.csv","","null","resources/images/coin2.png","null","",NA,NA,NA,NA,""
"image-keyboard-response",101,100542,"0.0-3.30-0.30","vxusfx6v6b01xjd",939,"166.csv","","1031","resources/trios/L1T4A3.jpg","39","restless",0.5,0.5,0.8,0.689232223213421,"true"
"image-keyboard-response",102,100944,"0.0-3.30-1.30","vxusfx6v6b01xjd",939,"166.csv","","null","resources/maskTrios/BBA3.jpg","null","",NA,NA,NA,NA,""
"image-keyboard-response",103,102147,"0.0-3.30-2.30","vxusfx6v6b01xjd",939,"166.csv","","null","resources/images/coin2.png","null","",NA,NA,NA,NA,""
"image-keyboard-response",104,102502,"0.0-3.31-0.31","vxusfx6v6b01xjd",939,"166.csv","","350","resources/trios/L1T4A2.jpg","39","restless",0.5,0.5,0.8,0.816233585145227,"false"
"image-keyboard-response",105,102904,"0.0-3.31-1.31","vxusfx6v6b01xjd",939,"166.csv","","null","resources/maskTrios/BBA2.jpg","null","",NA,NA,NA,NA,""
"image-keyboard-response",106,104107,"0.0-3.31-2.31","vxusfx6v6b01xjd",939,"166.csv","","null","resources/images/fishbone.png","null","",NA,NA,NA,NA,""
"image-keyboard-response",107,104511,"0.0-3.32-0.32","vxusfx6v6b01xjd",939,"166.csv","","402.99999999998545","resources/trios/L2T2A3.jpg","39","restless",0.4,0.5,0.8,0.89574887042655,"false"
"image-keyboard-response",108,104914,"0.0-3.32-1.32","vxusfx6v6b01xjd",939,"166.csv","","null","resources/maskTrios/BBA3.jpg","null","",NA,NA,NA,NA,""
"image-keyboard-response",109,106116,"0.0-3.32-2.32","vxusfx6v6b01xjd",939,"166.csv","","null","resources/images/fishbone.png","null","",NA,NA,NA,NA,""
"image-keyboard-response",110,106511,"0.0-3.33-0.33","vxusfx6v6b01xjd",939,"166.csv","","393","resources/trios/L2T2A2.jpg","39","restless",0.4,0.5,0.8,0.557080720781224,"true"
"image-keyboard-response",111,106914,"0.0-3.33-1.33","vxusfx6v6b01xjd",939,"166.csv","","null","resources/maskTrios/BBA2.jpg","null","",NA,NA,NA,NA,""
"image-keyboard-response",112,108117,"0.0-3.33-2.33","vxusfx6v6b01xjd",939,"166.csv","","null","resources/images/coin2.png","null","",NA,NA,NA,NA,""
"image-keyboard-response",113,108572,"0.0-3.34-0.34","vxusfx6v6b01xjd",939,"166.csv","","451.99999999998545","resources/trios/L1T4A3.jpg","39","restless",0.4,0.5,0.8,0.480428461392059,"true"
"image-keyboard-response",114,108975,"0.0-3.34-1.34","vxusfx6v6b01xjd",939,"166.csv","","null","resources/maskTrios/BBA3.jpg","null","",NA,NA,NA,NA,""
"image-keyboard-response",115,110179,"0.0-3.34-2.34","vxusfx6v6b01xjd",939,"166.csv","","null","resources/images/coin2.png","null","",NA,NA,NA,NA,""
"image-keyboard-response",116,110411,"0.0-3.35-0.35","vxusfx6v6b01xjd",939,"166.csv","","230","resources/trios/L1T2A2.jpg","39","restless",0.4,0.5,0.8,0.691198941795669,"true"
"image-keyboard-response",117,110814,"0.0-3.35-1.35","vxusfx6v6b01xjd",939,"166.csv","","null","resources/maskTrios/BBA2.jpg","null","",NA,NA,NA,NA,""
"image-keyboard-response",118,112017,"0.0-3.35-2.35","vxusfx6v6b01xjd",939,"166.csv","","null","resources/images/coin2.png","null","",NA,NA,NA,NA,""
"image-keyboard-response",119,112271,"0.0-3.36-0.36","vxusfx6v6b01xjd",939,"166.csv","","253","resources/trios/L1T2A3.jpg","39","restless",0.4,0.5,0.8,0.875504870487626,"false"
"image-keyboard-response",120,112674,"0.0-3.36-1.36","vxusfx6v6b01xjd",939,"166.csv","","null","resources/maskTrios/BBA3.jpg","null","",NA,NA,NA,NA,""
"image-keyboard-response",121,113876,"0.0-3.36-2.36","vxusfx6v6b01xjd",939,"166.csv","","null","resources/images/fishbone.png","null","",NA,NA,NA,NA,""
"image-keyboard-response",122,114305,"0.0-3.37-0.37","vxusfx6v6b01xjd",939,"166.csv","","428","resources/trios/L2T2A3.jpg","39","restless",0.4,0.5,0.9,0.00715426714756395,"true"
"image-keyboard-response",123,114707,"0.0-3.37-1.37","vxusfx6v6b01xjd",939,"166.csv","","null","resources/maskTrios/BBA3.jpg","null","",NA,NA,NA,NA,""
"image-keyboard-response",124,115909,"0.0-3.37-2.37","vxusfx6v6b01xjd",939,"166.csv","","null","resources/images/coin2.png","null","",NA,NA,NA,NA,""
"image-keyboard-response",125,116265,"0.0-3.38-0.38","vxusfx6v6b01xjd",939,"166.csv","","355","resources/trios/L2T4A3.jpg","39","restless",0.4,0.5,0.9,0.600508108621098,"true"
"image-keyboard-response",126,116667,"0.0-3.38-1.38","vxusfx6v6b01xjd",939,"166.csv","","null","resources/maskTrios/BBA3.jpg","null","",NA,NA,NA,NA,""
"image-keyboard-response",127,117869,"0.0-3.38-2.38","vxusfx6v6b01xjd",939,"166.csv","","null","resources/images/coin2.png","null","",NA,NA,NA,NA,""
"image-keyboard-response",128,118217,"0.0-3.39-0.39","vxusfx6v6b01xjd",939,"166.csv","","345.99999999998545","resources/trios/L1T2A3.jpg","39","restless",0.4,0.6,0.9,0.309926509603395,"true"
"image-keyboard-response",129,118619,"0.0-3.39-1.39","vxusfx6v6b01xjd",939,"166.csv","","null","resources/maskTrios/BBA3.jpg","null","",NA,NA,NA,NA,""
"image-keyboard-response",130,119822,"0.0-3.39-2.39","vxusfx6v6b01xjd",939,"166.csv","","null","resources/images/coin2.png","null","",NA,NA,NA,NA,""
"image-keyboard-response",131,120118,"0.0-3.40-0.40","vxusfx6v6b01xjd",939,"166.csv","","291.00000000001455","resources/trios/L2T4A2.jpg","39","restless",0.4,0.6,0.9,0.626806948025532,"true"
"image-keyboard-response",132,120521,"0.0-3.40-1.40","vxusfx6v6b01xjd",939,"166.csv","","null","resources/maskTrios/BBA2.jpg","null","",NA,NA,NA,NA,""
"image-keyboard-response",133,121723,"0.0-3.40-2.40","vxusfx6v6b01xjd",939,"166.csv","","null","resources/images/coin2.png","null","",NA,NA,NA,NA,""
"image-keyboard-response",134,122059,"0.0-3.41-0.41","vxusfx6v6b01xjd",939,"166.csv","","333","resources/trios/L2T2A3.jpg","39","restless",0.4,0.6,0.9,0.11489279601274,"true"
"image-keyboard-response",135,122461,"0.0-3.41-1.41","vxusfx6v6b01xjd",939,"166.csv","","null","resources/maskTrios/BBA3.jpg","null","",NA,NA,NA,NA,""
"image-keyboard-response",136,123664,"0.0-3.41-2.41","vxusfx6v6b01xjd",939,"166.csv","","null","resources/images/coin2.png","null","",NA,NA,NA,NA,""
"image-keyboard-response",137,124048,"0.0-3.42-0.42","vxusfx6v6b01xjd",939,"166.csv","","382","resources/trios/L2T4A2.jpg","39","restless",0.5,0.6,0.9,0.183399587054311,"true"
"image-keyboard-response",138,124450,"0.0-3.42-1.42","vxusfx6v6b01xjd",939,"166.csv","","null","resources/maskTrios/BBA2.jpg","null","",NA,NA,NA,NA,""
"image-keyboard-response",139,125653,"0.0-3.42-2.42","vxusfx6v6b01xjd",939,"166.csv","","null","resources/images/coin2.png","null","",NA,NA,NA,NA,""
"image-keyboard-response",140,126075,"0.0-3.43-0.43","vxusfx6v6b01xjd",939,"166.csv","","414.99999999998545","resources/trios/L1T2A3.jpg","39","restless",0.5,0.6,0.9,0.652085003367588,"true"
"image-keyboard-response",141,126477,"0.0-3.43-1.43","vxusfx6v6b01xjd",939,"166.csv","","null","resources/maskTrios/BBA3.jpg","null","",NA,NA,NA,NA,""
"image-keyboard-response",142,127680,"0.0-3.43-2.43","vxusfx6v6b01xjd",939,"166.csv","","null","resources/images/coin2.png","null","",NA,NA,NA,NA,""
"image-keyboard-response",143,128085,"0.0-3.44-0.44","vxusfx6v6b01xjd",939,"166.csv","","404","resources/trios/L1T4A2.jpg","39","restless",0.5,0.6,0.9,0.63013515602094,"true"
"image-keyboard-response",144,128488,"0.0-3.44-1.44","vxusfx6v6b01xjd",939,"166.csv","","null","resources/maskTrios/BBA2.jpg","null","",NA,NA,NA,NA,""
"image-keyboard-response",145,129691,"0.0-3.44-2.44","vxusfx6v6b01xjd",939,"166.csv","","null","resources/images/coin2.png","null","",NA,NA,NA,NA,""
"image-keyboard-response",146,130077,"0.0-3.45-0.45","vxusfx6v6b01xjd",939,"166.csv","","386.0000000000291","resources/trios/L1T4A2.jpg","39","restless",0.5,0.5,0.9,0.94236150607367,"false"
"image-keyboard-response",147,130480,"0.0-3.45-1.45","vxusfx6v6b01xjd",939,"166.csv","","null","resources/maskTrios/BBA2.jpg","null","",NA,NA,NA,NA,""
"image-keyboard-response",148,131682,"0.0-3.45-2.45","vxusfx6v6b01xjd",939,"166.csv","","null","resources/images/fishbone.png","null","",NA,NA,NA,NA,""
"image-keyboard-response",149,132013,"0.0-3.46-0.46","vxusfx6v6b01xjd",939,"166.csv","","329","resources/trios/L2T4A2.jpg","39","restless",0.5,0.5,0.9,0.901022553805826,"false"
"image-keyboard-response",150,132416,"0.0-3.46-1.46","vxusfx6v6b01xjd",939,"166.csv","","null","resources/maskTrios/BBA2.jpg","null","",NA,NA,NA,NA,""
"image-keyboard-response",151,133621,"0.0-3.46-2.46","vxusfx6v6b01xjd",939,"166.csv","","null","resources/images/fishbone.png","null","",NA,NA,NA,NA,""
"image-keyboard-response",152,133850,"0.0-3.47-0.47","vxusfx6v6b01xjd",939,"166.csv","","228","resources/trios/L1T2A2.jpg","39","restless",0.5,0.5,0.9,0.290347014353608,"true"
"image-keyboard-response",153,134253,"0.0-3.47-1.47","vxusfx6v6b01xjd",939,"166.csv","","null","resources/maskTrios/BBA2.jpg","null","",NA,NA,NA,NA,""
"image-keyboard-response",154,135455,"0.0-3.47-2.47","vxusfx6v6b01xjd",939,"166.csv","","null","resources/images/coin2.png","null","",NA,NA,NA,NA,""
"image-keyboard-response",155,135793,"0.0-3.48-0.48","vxusfx6v6b01xjd",939,"166.csv","","337","resources/trios/L2T2A2.jpg","39","restless",0.5,0.5,0.9,0.58418232574541,"true"
"image-keyboard-response",156,136195,"0.0-3.48-1.48","vxusfx6v6b01xjd",939,"166.csv","","null","resources/maskTrios/BBA2.jpg","null","",NA,NA,NA,NA,""
"image-keyboard-response",157,137398,"0.0-3.48-2.48","vxusfx6v6b01xjd",939,"166.csv","","null","resources/images/coin2.png","null","",NA,NA,NA,NA,""
"image-keyboard-response",158,137809,"0.0-3.49-0.49","vxusfx6v6b01xjd",939,"166.csv","","410","resources/trios/L2T4A2.jpg","39","restless",0.5,0.5,0.8,0.848863972570415,"false"
"image-keyboard-response",159,138214,"0.0-3.49-1.49","vxusfx6v6b01xjd",939,"166.csv","","null","resources/maskTrios/BBA2.jpg","null","",NA,NA,NA,NA,""
"image-keyboard-response",160,139417,"0.0-3.49-2.49","vxusfx6v6b01xjd",939,"166.csv","","null","resources/images/fishbone.png","null","",NA,NA,NA,NA,""
"image-keyboard-response",161,139927,"0.0-3.50-0.50","vxusfx6v6b01xjd",939,"166.csv","","508","resources/trios/L2T2A3.jpg","38","restless",0.4,0.6,0.8,0.277506790615076,"true"
"image-keyboard-response",162,140330,"0.0-3.50-1.50","vxusfx6v6b01xjd",939,"166.csv","","null","resources/maskTrios/BT2B.jpg","null","",NA,NA,NA,NA,""
"image-keyboard-response",163,141532,"0.0-3.50-2.50","vxusfx6v6b01xjd",939,"166.csv","","null","resources/images/coin2.png","null","",NA,NA,NA,NA,""
"image-keyboard-response",164,141991,"0.0-3.51-0.51","vxusfx6v6b01xjd",939,"166.csv","","455","resources/trios/L2T4A2.jpg","38","restless",0.4,0.5,0.8,0.947130500006516,"false"
"image-keyboard-response",165,142393,"0.0-3.51-1.51","vxusfx6v6b01xjd",939,"166.csv","","null","resources/maskTrios/BT4B.jpg","null","",NA,NA,NA,NA,""
"image-keyboard-response",166,143595,"0.0-3.51-2.51","vxusfx6v6b01xjd",939,"166.csv","","null","resources/images/fishbone.png","null","",NA,NA,NA,NA,""
"image-keyboard-response",167,143833,"0.0-3.52-0.52","vxusfx6v6b01xjd",939,"166.csv","","236","resources/trios/L1T4A2.jpg","38","restless",0.3,0.5,0.8,0.988560718415628,"false"
"image-keyboard-response",168,144235,"0.0-3.52-1.52","vxusfx6v6b01xjd",939,"166.csv","","null","resources/maskTrios/BT4B.jpg","null","",NA,NA,NA,NA,""
"image-keyboard-response",169,145438,"0.0-3.52-2.52","vxusfx6v6b01xjd",939,"166.csv","","null","resources/images/fishbone.png","null","",NA,NA,NA,NA,""
"image-keyboard-response",170,145754,"0.0-3.53-0.53","vxusfx6v6b01xjd",939,"166.csv","","314","resources/trios/L1T2A2.jpg","37","restless",0.2,0.5,0.8,0.292172686896137,"false"
"image-keyboard-response",171,146156,"0.0-3.53-1.53","vxusfx6v6b01xjd",939,"166.csv","","null","resources/maskTrios/L1BB.jpg","null","",NA,NA,NA,NA,""
"image-keyboard-response",172,147358,"0.0-3.53-2.53","vxusfx6v6b01xjd",939,"166.csv","","null","resources/images/fishbone.png","null","",NA,NA,NA,NA,""
"image-keyboard-response",173,147632,"0.0-3.54-0.54","vxusfx6v6b01xjd",939,"166.csv","","269","resources/trios/L1T2A2.jpg","37","restless",0.3,0.4,0.8,0.24400159950314,"true"
"image-keyboard-response",174,148034,"0.0-3.54-1.54","vxusfx6v6b01xjd",939,"166.csv","","null","resources/maskTrios/L1BB.jpg","null","",NA,NA,NA,NA,""
"image-keyboard-response",175,149237,"0.0-3.54-2.54","vxusfx6v6b01xjd",939,"166.csv","","null","resources/images/coin2.png","null","",NA,NA,NA,NA,""
"image-keyboard-response",176,149662,"0.0-3.55-0.55","vxusfx6v6b01xjd",939,"166.csv","","422","resources/trios/L1T2A3.jpg","37","restless",0.3,0.4,0.8,0.62425254196606,"false"
"image-keyboard-response",177,150064,"0.0-3.55-1.55","vxusfx6v6b01xjd",939,"166.csv","","null","resources/maskTrios/L1BB.jpg","null","",NA,NA,NA,NA,""
"image-keyboard-response",178,151266,"0.0-3.55-2.55","vxusfx6v6b01xjd",939,"166.csv","","null","resources/images/fishbone.png","null","",NA,NA,NA,NA,""
"image-keyboard-response",179,151492,"0.0-3.56-0.56","vxusfx6v6b01xjd",939,"166.csv","","224","resources/trios/L1T4A2.jpg","37","restless",0.2,0.4,0.8,0.893537489215357,"false"
"image-keyboard-response",180,151894,"0.0-3.56-1.56","vxusfx6v6b01xjd",939,"166.csv","","null","resources/maskTrios/L1BB.jpg","null","",NA,NA,NA,NA,""
"image-keyboard-response",181,153096,"0.0-3.56-2.56","vxusfx6v6b01xjd",939,"166.csv","","null","resources/images/fishbone.png","null","",NA,NA,NA,NA,""
"image-keyboard-response",182,153436,"0.0-3.57-0.57","vxusfx6v6b01xjd",939,"166.csv","","337.0000000000291","resources/trios/L2T2A2.jpg","37","restless",0.2,0.4,0.8,0.434938907125418,"false"
"image-keyboard-response",183,153838,"0.0-3.57-1.57","vxusfx6v6b01xjd",939,"166.csv","","null","resources/maskTrios/L2BB.jpg","null","",NA,NA,NA,NA,""
"image-keyboard-response",184,155041,"0.0-3.57-2.57","vxusfx6v6b01xjd",939,"166.csv","","null","resources/images/fishbone.png","null","",NA,NA,NA,NA,""
"image-keyboard-response",185,155536,"0.0-3.58-0.58","vxusfx6v6b01xjd",939,"166.csv","","492.9999999999709","resources/trios/L2T4A2.jpg","39","restless",0.2,0.5,0.8,0.525180527026183,"true"
"image-keyboard-response",186,155938,"0.0-3.58-1.58","vxusfx6v6b01xjd",939,"166.csv","","null","resources/maskTrios/BBA2.jpg","null","",NA,NA,NA,NA,""
"image-keyboard-response",187,157141,"0.0-3.58-2.58","vxusfx6v6b01xjd",939,"166.csv","","null","resources/images/coin2.png","null","",NA,NA,NA,NA,""
"image-keyboard-response",188,157562,"0.0-3.59-0.59","vxusfx6v6b01xjd",939,"166.csv","","419","resources/trios/L1T4A3.jpg","39","restless",0.2,0.5,0.7,0.965851453925198,"false"
"image-keyboard-response",189,157965,"0.0-3.59-1.59","vxusfx6v6b01xjd",939,"166.csv","","null","resources/maskTrios/BBA3.jpg","null","",NA,NA,NA,NA,""
"image-keyboard-response",190,159168,"0.0-3.59-2.59","vxusfx6v6b01xjd",939,"166.csv","","null","resources/images/fishbone.png","null","",NA,NA,NA,NA,""
"image-keyboard-response",191,159188,"0.0-3.60-0.60","vxusfx6v6b01xjd",939,"166.csv","","17","resources/trios/L1T2A2.jpg","39","restless",0.2,0.5,0.7,0.0685552789555605,"true"
"image-keyboard-response",192,159590,"0.0-3.60-1.60","vxusfx6v6b01xjd",939,"166.csv","","null","resources/maskTrios/BBA2.jpg","null","",NA,NA,NA,NA,""
"image-keyboard-response",193,160793,"0.0-3.60-2.60","vxusfx6v6b01xjd",939,"166.csv","","null","resources/images/coin2.png","null","",NA,NA,NA,NA,""
"image-keyboard-response",194,161117,"0.0-3.61-0.61","vxusfx6v6b01xjd",939,"166.csv","","322","resources/trios/L1T2A3.jpg","39","restless",0.2,0.5,0.6,0.707075653255429,"false"
"image-keyboard-response",195,161519,"0.0-3.61-1.61","vxusfx6v6b01xjd",939,"166.csv","","null","resources/maskTrios/BBA3.jpg","null","",NA,NA,NA,NA,""
"image-keyboard-response",196,162722,"0.0-3.61-2.61","vxusfx6v6b01xjd",939,"166.csv","","null","resources/images/fishbone.png","null","",NA,NA,NA,NA,""
"image-keyboard-response",197,163086,"0.0-3.62-0.62","vxusfx6v6b01xjd",939,"166.csv","","363","resources/trios/L1T2A3.jpg","39","restless",0.2,0.5,0.6,0.861450117562639,"false"
"image-keyboard-response",198,163488,"0.0-3.62-1.62","vxusfx6v6b01xjd",939,"166.csv","","null","resources/maskTrios/BBA3.jpg","null","",NA,NA,NA,NA,""
"image-keyboard-response",199,164690,"0.0-3.62-2.62","vxusfx6v6b01xjd",939,"166.csv","","null","resources/images/fishbone.png","null","",NA,NA,NA,NA,""
"image-keyboard-response",200,164990,"0.0-3.63-0.63","vxusfx6v6b01xjd",939,"166.csv","","298","resources/trios/L1T4A3.jpg","39","restless",0.2,0.6,0.6,0.338442065531458,"true"
"image-keyboard-response",201,165392,"0.0-3.63-1.63","vxusfx6v6b01xjd",939,"166.csv","","null","resources/maskTrios/BBA3.jpg","null","",NA,NA,NA,NA,""
"image-keyboard-response",202,166595,"0.0-3.63-2.63","vxusfx6v6b01xjd",939,"166.csv","","null","resources/images/coin2.png","null","",NA,NA,NA,NA,""
"image-keyboard-response",203,167003,"0.0-3.64-0.64","vxusfx6v6b01xjd",939,"166.csv","","403","resources/trios/L1T2A3.jpg","39","restless",0.2,0.6,0.6,0.0685651332815935,"true"
"image-keyboard-response",204,167406,"0.0-3.64-1.64","vxusfx6v6b01xjd",939,"166.csv","","null","resources/maskTrios/BBA3.jpg","null","",NA,NA,NA,NA,""
"image-keyboard-response",205,168609,"0.0-3.64-2.64","vxusfx6v6b01xjd",939,"166.csv","","null","resources/images/coin2.png","null","",NA,NA,NA,NA,""
"image-keyboard-response",206,168951,"0.0-3.65-0.65","vxusfx6v6b01xjd",939,"166.csv","","342","resources/trios/L1T4A3.jpg","39","restless",0.2,0.6,0.6,0.0132377256201521,"true"
"image-keyboard-response",207,169354,"0.0-3.65-1.65","vxusfx6v6b01xjd",939,"166.csv","","null","resources/maskTrios/BBA3.jpg","null","",NA,NA,NA,NA,""
"image-keyboard-response",208,170557,"0.0-3.65-2.65","vxusfx6v6b01xjd",939,"166.csv","","null","resources/images/coin2.png","null","",NA,NA,NA,NA,""
"image-keyboard-response",209,170727,"0.0-3.66-0.66","vxusfx6v6b01xjd",939,"166.csv","","169","resources/trios/L2T4A2.jpg","39","restless",0.2,0.6,0.6,0.0399903205455219,"true"
"image-keyboard-response",210,171130,"0.0-3.66-1.66","vxusfx6v6b01xjd",939,"166.csv","","null","resources/maskTrios/BBA2.jpg","null","",NA,NA,NA,NA,""
"image-keyboard-response",211,172332,"0.0-3.66-2.66","vxusfx6v6b01xjd",939,"166.csv","","null","resources/images/coin2.png","null","",NA,NA,NA,NA,""
"image-keyboard-response",212,172929,"0.0-3.67-0.67","vxusfx6v6b01xjd",939,"166.csv","","593.9999999999709","resources/trios/L2T2A3.jpg","39","restless",0.2,0.6,0.6,0.397355774281279,"true"
"image-keyboard-response",213,173332,"0.0-3.67-1.67","vxusfx6v6b01xjd",939,"166.csv","","null","resources/maskTrios/BBA3.jpg","null","",NA,NA,NA,NA,""
"image-keyboard-response",214,174535,"0.0-3.67-2.67","vxusfx6v6b01xjd",939,"166.csv","","null","resources/images/coin2.png","null","",NA,NA,NA,NA,""
"image-keyboard-response",215,174920,"0.0-3.68-0.68","vxusfx6v6b01xjd",939,"166.csv","","384","resources/trios/L1T2A2.jpg","39","restless",0.2,0.6,0.6,0.180122508097606,"true"
"image-keyboard-response",216,175322,"0.0-3.68-1.68","vxusfx6v6b01xjd",939,"166.csv","","null","resources/maskTrios/BBA2.jpg","null","",NA,NA,NA,NA,""
"image-keyboard-response",217,176524,"0.0-3.68-2.68","vxusfx6v6b01xjd",939,"166.csv","","null","resources/images/coin2.png","null","",NA,NA,NA,NA,""
"image-keyboard-response",218,176915,"0.0-3.69-0.69","vxusfx6v6b01xjd",939,"166.csv","","389","resources/trios/L1T4A2.jpg","39","restless",0.2,0.6,0.6,0.283749125925297,"true"
"image-keyboard-response",219,177317,"0.0-3.69-1.69","vxusfx6v6b01xjd",939,"166.csv","","null","resources/maskTrios/BBA2.jpg","null","",NA,NA,NA,NA,""
"image-keyboard-response",220,178520,"0.0-3.69-2.69","vxusfx6v6b01xjd",939,"166.csv","","null","resources/images/coin2.png","null","",NA,NA,NA,NA,""
"image-keyboard-response",221,178987,"0.0-3.70-0.70","vxusfx6v6b01xjd",939,"166.csv","","465","resources/trios/L1T4A3.jpg","39","restless",0.3,0.6,0.6,0.258739762390187,"true"
"image-keyboard-response",222,179389,"0.0-3.70-1.70","vxusfx6v6b01xjd",939,"166.csv","","null","resources/maskTrios/BBA3.jpg","null","",NA,NA,NA,NA,""
"image-keyboard-response",223,180592,"0.0-3.70-2.70","vxusfx6v6b01xjd",939,"166.csv","","null","resources/images/coin2.png","null","",NA,NA,NA,NA,""
"image-keyboard-response",224,180897,"0.0-3.71-0.71","vxusfx6v6b01xjd",939,"166.csv","","303","resources/trios/L2T4A2.jpg","39","restless",0.3,0.5,0.6,0.771620230044209,"false"
"image-keyboard-response",225,181299,"0.0-3.71-1.71","vxusfx6v6b01xjd",939,"166.csv","","null","resources/maskTrios/BBA2.jpg","null","",NA,NA,NA,NA,""
"image-keyboard-response",226,182501,"0.0-3.71-2.71","vxusfx6v6b01xjd",939,"166.csv","","null","resources/images/fishbone.png","null","",NA,NA,NA,NA,""
"image-keyboard-response",227,182686,"0.0-3.72-0.72","vxusfx6v6b01xjd",939,"166.csv","","182","resources/trios/L1T4A3.jpg","39","restless",0.3,0.5,0.6,0.412280836217892,"true"
"image-keyboard-response",228,183088,"0.0-3.72-1.72","vxusfx6v6b01xjd",939,"166.csv","","null","resources/maskTrios/BBA3.jpg","null","",NA,NA,NA,NA,""
"image-keyboard-response",229,184291,"0.0-3.72-2.72","vxusfx6v6b01xjd",939,"166.csv","","null","resources/images/coin2.png","null","",NA,NA,NA,NA,""
"image-keyboard-response",230,184605,"0.0-3.73-0.73","vxusfx6v6b01xjd",939,"166.csv","","313","resources/trios/L2T4A3.jpg","39","restless",0.3,0.5,0.6,0.0908772694740435,"true"
"image-keyboard-response",231,185007,"0.0-3.73-1.73","vxusfx6v6b01xjd",939,"166.csv","","null","resources/maskTrios/BBA3.jpg","null","",NA,NA,NA,NA,""
"image-keyboard-response",232,186210,"0.0-3.73-2.73","vxusfx6v6b01xjd",939,"166.csv","","null","resources/images/coin2.png","null","",NA,NA,NA,NA,""
"image-keyboard-response",233,186278,"0.0-3.74-0.74","vxusfx6v6b01xjd",939,"166.csv","","66","resources/trios/L2T4A2.jpg","39","restless",0.3,0.5,0.6,0.230234233188398,"true"
"image-keyboard-response",234,186680,"0.0-3.74-1.74","vxusfx6v6b01xjd",939,"166.csv","","null","resources/maskTrios/BBA2.jpg","null","",NA,NA,NA,NA,""
"image-keyboard-response",235,187883,"0.0-3.74-2.74","vxusfx6v6b01xjd",939,"166.csv","","null","resources/images/coin2.png","null","",NA,NA,NA,NA,""
"image-keyboard-response",236,188177,"0.0-3.75-0.75","vxusfx6v6b01xjd",939,"166.csv","","291","resources/trios/L2T2A3.jpg","39","restless",0.3,0.5,0.6,0.969178139469859,"false"
"image-keyboard-response",237,188580,"0.0-3.75-1.75","vxusfx6v6b01xjd",939,"166.csv","","null","resources/maskTrios/BBA3.jpg","null","",NA,NA,NA,NA,""
"image-keyboard-response",238,189782,"0.0-3.75-2.75","vxusfx6v6b01xjd",939,"166.csv","","null","resources/images/fishbone.png","null","",NA,NA,NA,NA,""
"image-keyboard-response",239,190166,"0.0-3.76-0.76","vxusfx6v6b01xjd",939,"166.csv","","381","resources/trios/L1T2A3.jpg","39","restless",0.3,0.5,0.6,0.715449266225937,"false"
"image-keyboard-response",240,190569,"0.0-3.76-1.76","vxusfx6v6b01xjd",939,"166.csv","","null","resources/maskTrios/BBA3.jpg","null","",NA,NA,NA,NA,""
"image-keyboard-response",241,191770,"0.0-3.76-2.76","vxusfx6v6b01xjd",939,"166.csv","","null","resources/images/fishbone.png","null","",NA,NA,NA,NA,""
"image-keyboard-response",242,192086,"0.0-3.77-0.77","vxusfx6v6b01xjd",939,"166.csv","","314.0000000000291","resources/trios/L1T4A3.jpg","39","restless",0.4,0.5,0.6,0.174163947266489,"true"
"image-keyboard-response",243,192488,"0.0-3.77-1.77","vxusfx6v6b01xjd",939,"166.csv","","null","resources/maskTrios/BBA3.jpg","null","",NA,NA,NA,NA,""
"image-keyboard-response",244,193691,"0.0-3.77-2.77","vxusfx6v6b01xjd",939,"166.csv","","null","resources/images/coin2.png","null","",NA,NA,NA,NA,""
"image-keyboard-response",245,194041,"0.0-3.78-0.78","vxusfx6v6b01xjd",939,"166.csv","","347.9999999999709","resources/trios/L1T2A3.jpg","39","restless",0.4,0.5,0.6,0.797242816409073,"false"
"image-keyboard-response",246,194443,"0.0-3.78-1.78","vxusfx6v6b01xjd",939,"166.csv","","null","resources/maskTrios/BBA3.jpg","null","",NA,NA,NA,NA,""
"image-keyboard-response",247,195645,"0.0-3.78-2.78","vxusfx6v6b01xjd",939,"166.csv","","null","resources/images/fishbone.png","null","",NA,NA,NA,NA,""
"image-keyboard-response",248,195919,"0.0-3.79-0.79","vxusfx6v6b01xjd",939,"166.csv","","272.0000000000291","resources/trios/L2T2A2.jpg","39","restless",0.4,0.6,0.6,0.418143200176959,"true"
"image-keyboard-response",249,196321,"0.0-3.79-1.79","vxusfx6v6b01xjd",939,"166.csv","","null","resources/maskTrios/BBA2.jpg","null","",NA,NA,NA,NA,""
"image-keyboard-response",250,197523,"0.0-3.79-2.79","vxusfx6v6b01xjd",939,"166.csv","","null","resources/images/coin2.png","null","",NA,NA,NA,NA,""
"image-keyboard-response",251,197639,"0.0-3.80-0.80","vxusfx6v6b01xjd",939,"166.csv","","111","resources/trios/L2T4A3.jpg","39","restless",0.4,0.6,0.6,0.324441115201402,"true"
"image-keyboard-response",252,198042,"0.0-3.80-1.80","vxusfx6v6b01xjd",939,"166.csv","","null","resources/maskTrios/BBA3.jpg","null","",NA,NA,NA,NA,""
"image-keyboard-response",253,199245,"0.0-3.80-2.80","vxusfx6v6b01xjd",939,"166.csv","","null","resources/images/coin2.png","null","",NA,NA,NA,NA,""
"image-keyboard-response",254,199615,"0.0-3.81-0.81","vxusfx6v6b01xjd",939,"166.csv","","369","resources/trios/L1T4A2.jpg","39","restless",0.4,0.6,0.6,0.360247337795501,"true"
"image-keyboard-response",255,200018,"0.0-3.81-1.81","vxusfx6v6b01xjd",939,"166.csv","","null","resources/maskTrios/BBA2.jpg","null","",NA,NA,NA,NA,""
"image-keyboard-response",256,201220,"0.0-3.81-2.81","vxusfx6v6b01xjd",939,"166.csv","","null","resources/images/coin2.png","null","",NA,NA,NA,NA,""
"image-keyboard-response",257,201631,"0.0-3.82-0.82","vxusfx6v6b01xjd",939,"166.csv","","409","resources/trios/L2T2A2.jpg","39","restless",0.4,0.6,0.6,0.20494751004865,"true"
"image-keyboard-response",258,202033,"0.0-3.82-1.82","vxusfx6v6b01xjd",939,"166.csv","","null","resources/maskTrios/BBA2.jpg","null","",NA,NA,NA,NA,""
"image-keyboard-response",259,203235,"0.0-3.82-2.82","vxusfx6v6b01xjd",939,"166.csv","","null","resources/images/coin2.png","null","",NA,NA,NA,NA,""
"image-keyboard-response",260,203502,"0.0-3.83-0.83","vxusfx6v6b01xjd",939,"166.csv","","263","resources/trios/L2T4A3.jpg","39","restless",0.4,0.5,0.6,0.380905831994519,"true"
"image-keyboard-response",261,203905,"0.0-3.83-1.83","vxusfx6v6b01xjd",939,"166.csv","","null","resources/maskTrios/BBA3.jpg","null","",NA,NA,NA,NA,""
"image-keyboard-response",262,205107,"0.0-3.83-2.83","vxusfx6v6b01xjd",939,"166.csv","","null","resources/images/coin2.png","null","",NA,NA,NA,NA,""
"image-keyboard-response",263,205206,"0.0-3.84-0.84","vxusfx6v6b01xjd",939,"166.csv","","97","resources/trios/L2T4A3.jpg","39","restless",0.4,0.5,0.6,0.0739013261424541,"true"
"image-keyboard-response",264,205609,"0.0-3.84-1.84","vxusfx6v6b01xjd",939,"166.csv","","null","resources/maskTrios/BBA3.jpg","null","",NA,NA,NA,NA,""
"image-keyboard-response",265,206811,"0.0-3.84-2.84","vxusfx6v6b01xjd",939,"166.csv","","null","resources/images/coin2.png","null","",NA,NA,NA,NA,""
"image-keyboard-response",266,206816,"0.0-3.85-0.85","vxusfx6v6b01xjd",939,"166.csv","","2","resources/trios/L2T2A3.jpg","39","restless",0.4,0.4,0.6,0.155987896315143,"true"
"image-keyboard-response",267,207218,"0.0-3.85-1.85","vxusfx6v6b01xjd",939,"166.csv","","null","resources/maskTrios/BBA3.jpg","null","",NA,NA,NA,NA,""
"image-keyboard-response",268,208421,"0.0-3.85-2.85","vxusfx6v6b01xjd",939,"166.csv","","null","resources/images/coin2.png","null","",NA,NA,NA,NA,""
"image-keyboard-response",269,208799,"0.0-3.86-0.86","vxusfx6v6b01xjd",939,"166.csv","","376","resources/trios/L2T2A2.jpg","39","restless",0.4,0.4,0.5,0.404084632108924,"true"
"image-keyboard-response",270,209202,"0.0-3.86-1.86","vxusfx6v6b01xjd",939,"166.csv","","null","resources/maskTrios/BBA2.jpg","null","",NA,NA,NA,NA,""
"image-keyboard-response",271,210405,"0.0-3.86-2.86","vxusfx6v6b01xjd",939,"166.csv","","null","resources/images/coin2.png","null","",NA,NA,NA,NA,""
"image-keyboard-response",272,210965,"0.0-3.87-0.87","vxusfx6v6b01xjd",939,"166.csv","","558","resources/trios/L1T4A2.jpg","39","restless",0.4,0.4,0.4,0.221530421933546,"true"
"image-keyboard-response",273,211368,"0.0-3.87-1.87","vxusfx6v6b01xjd",939,"166.csv","","null","resources/maskTrios/BBA2.jpg","null","",NA,NA,NA,NA,""
"image-keyboard-response",274,212570,"0.0-3.87-2.87","vxusfx6v6b01xjd",939,"166.csv","","null","resources/images/coin2.png","null","",NA,NA,NA,NA,""
"image-keyboard-response",275,212952,"0.0-3.88-0.88","vxusfx6v6b01xjd",939,"166.csv","","380","resources/trios/L2T4A2.jpg","39","restless",0.4,0.4,0.4,0.0567405840121209,"true"
"image-keyboard-response",276,213355,"0.0-3.88-1.88","vxusfx6v6b01xjd",939,"166.csv","","null","resources/maskTrios/BBA2.jpg","null","",NA,NA,NA,NA,""
"image-keyboard-response",277,214557,"0.0-3.88-2.88","vxusfx6v6b01xjd",939,"166.csv","","null","resources/images/coin2.png","null","",NA,NA,NA,NA,""
"image-keyboard-response",278,215452,"0.0-3.89-0.89","vxusfx6v6b01xjd",939,"166.csv","","893","resources/trios/L1T2A3.jpg","39","restless",0.4,0.4,0.4,0.477572867006513,"false"
"image-keyboard-response",279,215854,"0.0-3.89-1.89","vxusfx6v6b01xjd",939,"166.csv","","null","resources/maskTrios/BBA3.jpg","null","",NA,NA,NA,NA,""
"image-keyboard-response",280,217055,"0.0-3.89-2.89","vxusfx6v6b01xjd",939,"166.csv","","null","resources/images/fishbone.png","null","",NA,NA,NA,NA,""
"image-keyboard-response",281,218780,"0.0-3.90-0.90","vxusfx6v6b01xjd",939,"166.csv","","1723.999999999971","resources/trios/L2T4A2.jpg","39","restless",0.4,0.3,0.4,0.232846487668116,"true"
"image-keyboard-response",282,219183,"0.0-3.90-1.90","vxusfx6v6b01xjd",939,"166.csv","","null","resources/maskTrios/BBA2.jpg","null","",NA,NA,NA,NA,""
"image-keyboard-response",283,220385,"0.0-3.90-2.90","vxusfx6v6b01xjd",939,"166.csv","","null","resources/images/coin2.png","null","",NA,NA,NA,NA,""
"image-keyboard-response",284,220617,"0.0-3.91-0.91","vxusfx6v6b01xjd",939,"166.csv","","230","resources/trios/L2T4A3.jpg","39","restless",0.4,0.3,0.4,0.891702846897502,"false"
"image-keyboard-response",285,221020,"0.0-3.91-1.91","vxusfx6v6b01xjd",939,"166.csv","","null","resources/maskTrios/BBA3.jpg","null","",NA,NA,NA,NA,""
"image-keyboard-response",286,222222,"0.0-3.91-2.91","vxusfx6v6b01xjd",939,"166.csv","","null","resources/images/fishbone.png","null","",NA,NA,NA,NA,""
"image-keyboard-response",287,222737,"0.0-3.92-0.92","vxusfx6v6b01xjd",939,"166.csv","","513.9999999999709","resources/trios/L1T2A3.jpg","39","restless",0.4,0.3,0.4,0.845182469443419,"false"
"image-keyboard-response",288,223140,"0.0-3.92-1.92","vxusfx6v6b01xjd",939,"166.csv","","null","resources/maskTrios/BBA3.jpg","null","",NA,NA,NA,NA,""
"image-keyboard-response",289,224342,"0.0-3.92-2.92","vxusfx6v6b01xjd",939,"166.csv","","null","resources/images/fishbone.png","null","",NA,NA,NA,NA,""
"image-keyboard-response",290,224482,"0.0-3.93-0.93","vxusfx6v6b01xjd",939,"166.csv","","139","resources/trios/L2T4A3.jpg","39","restless",0.4,0.2,0.4,0.273070160613034,"true"
"image-keyboard-response",291,224884,"0.0-3.93-1.93","vxusfx6v6b01xjd",939,"166.csv","","null","resources/maskTrios/BBA3.jpg","null","",NA,NA,NA,NA,""
"image-keyboard-response",292,226085,"0.0-3.93-2.93","vxusfx6v6b01xjd",939,"166.csv","","null","resources/images/coin2.png","null","",NA,NA,NA,NA,""
"image-keyboard-response",293,226380,"0.0-3.94-0.94","vxusfx6v6b01xjd",939,"166.csv","","293","resources/trios/L2T2A2.jpg","39","restless",0.5,0.2,0.4,0.899474934982138,"false"
"image-keyboard-response",294,226783,"0.0-3.94-1.94","vxusfx6v6b01xjd",939,"166.csv","","null","resources/maskTrios/BBA2.jpg","null","",NA,NA,NA,NA,""
"image-keyboard-response",295,227985,"0.0-3.94-2.94","vxusfx6v6b01xjd",939,"166.csv","","null","resources/images/fishbone.png","null","",NA,NA,NA,NA,""
"image-keyboard-response",296,228359,"0.0-3.95-0.95","vxusfx6v6b01xjd",939,"166.csv","","372","resources/trios/L2T2A3.jpg","39","restless",0.5,0.2,0.4,0.962467553700246,"false"
"image-keyboard-response",297,228761,"0.0-3.95-1.95","vxusfx6v6b01xjd",939,"166.csv","","null","resources/maskTrios/BBA3.jpg","null","",NA,NA,NA,NA,""
"image-keyboard-response",298,229964,"0.0-3.95-2.95","vxusfx6v6b01xjd",939,"166.csv","","null","resources/images/fishbone.png","null","",NA,NA,NA,NA,""
"image-keyboard-response",299,230175,"0.0-3.96-0.96","vxusfx6v6b01xjd",939,"166.csv","","210","resources/trios/L2T2A2.jpg","39","restless",0.5,0.2,0.4,0.780092224088276,"false"
"image-keyboard-response",300,230578,"0.0-3.96-1.96","vxusfx6v6b01xjd",939,"166.csv","","null","resources/maskTrios/BBA2.jpg","null","",NA,NA,NA,NA,""
"image-keyboard-response",301,231780,"0.0-3.96-2.96","vxusfx6v6b01xjd",939,"166.csv","","null","resources/images/fishbone.png","null","",NA,NA,NA,NA,""
"image-keyboard-response",302,232090,"0.0-3.97-0.97","vxusfx6v6b01xjd",939,"166.csv","","308","resources/trios/L1T2A2.jpg","38","restless",0.5,0.2,0.3,0.578598040219393,"false"
"image-keyboard-response",303,232492,"0.0-3.97-1.97","vxusfx6v6b01xjd",939,"166.csv","","null","resources/maskTrios/BT2B.jpg","null","",NA,NA,NA,NA,""
"image-keyboard-response",304,233695,"0.0-3.97-2.97","vxusfx6v6b01xjd",939,"166.csv","","null","resources/images/fishbone.png","null","",NA,NA,NA,NA,""
"image-keyboard-response",305,234096,"0.0-3.98-0.98","vxusfx6v6b01xjd",939,"166.csv","","400","resources/trios/L1T4A2.jpg","38","restless",0.5,0.2,0.3,0.216235092533635,"false"
"image-keyboard-response",306,234501,"0.0-3.98-1.98","vxusfx6v6b01xjd",939,"166.csv","","null","resources/maskTrios/BT4B.jpg","null","",NA,NA,NA,NA,""
"image-keyboard-response",307,235703,"0.0-3.98-2.98","vxusfx6v6b01xjd",939,"166.csv","","null","resources/images/fishbone.png","null","",NA,NA,NA,NA,""
"image-keyboard-response",308,236920,"0.0-3.99-0.99","vxusfx6v6b01xjd",939,"166.csv","","1215.000000000029","resources/trios/L1T4A3.jpg","38","restless",0.5,0.2,0.3,0.721762261345757,"false"
"image-keyboard-response",309,237323,"0.0-3.99-1.99","vxusfx6v6b01xjd",939,"166.csv","","null","resources/maskTrios/BT4B.jpg","null","",NA,NA,NA,NA,""
"image-keyboard-response",310,238525,"0.0-3.99-2.99","vxusfx6v6b01xjd",939,"166.csv","","null","resources/images/fishbone.png","null","",NA,NA,NA,NA,""
"image-keyboard-response",311,238652,"0.0-3.100-0.100","vxusfx6v6b01xjd",939,"166.csv","","125","resources/trios/L2T4A2.jpg","37","restless",0.5,0.2,0.3,0.974627221476209,"false"
"image-keyboard-response",312,239055,"0.0-3.100-1.100","vxusfx6v6b01xjd",939,"166.csv","","null","resources/maskTrios/L2BB.jpg","null","",NA,NA,NA,NA,""
"image-keyboard-response",313,240256,"0.0-3.100-2.100","vxusfx6v6b01xjd",939,"166.csv","","null","resources/images/fishbone.png","null","",NA,NA,NA,NA,""
"image-keyboard-response",314,240260,"0.0-3.101-0.101","vxusfx6v6b01xjd",939,"166.csv","","1.0000000000291038","resources/trios/L1T2A2.jpg","37","restless",0.5,0.2,0.3,0.0511344619990705,"true"
"image-keyboard-response",315,240664,"0.0-3.101-1.101","vxusfx6v6b01xjd",939,"166.csv","","null","resources/maskTrios/L1BB.jpg","null","",NA,NA,NA,NA,""
"image-keyboard-response",316,241866,"0.0-3.101-2.101","vxusfx6v6b01xjd",939,"166.csv","","null","resources/images/coin2.png","null","",NA,NA,NA,NA,""
"image-keyboard-response",317,242272,"0.0-3.102-0.102","vxusfx6v6b01xjd",939,"166.csv","","404.0000000000291","resources/trios/L1T4A2.jpg","37","restless",0.5,0.2,0.3,0.818808858300143,"false"
"image-keyboard-response",318,242674,"0.0-3.102-1.102","vxusfx6v6b01xjd",939,"166.csv","","null","resources/maskTrios/L1BB.jpg","null","",NA,NA,NA,NA,""
"image-keyboard-response",319,243876,"0.0-3.102-2.102","vxusfx6v6b01xjd",939,"166.csv","","null","resources/images/fishbone.png","null","",NA,NA,NA,NA,""
"image-keyboard-response",320,244364,"0.0-3.103-0.103","vxusfx6v6b01xjd",939,"166.csv","","486","resources/trios/L1T4A3.jpg","37","restless",0.5,0.2,0.3,0.913423486664675,"false"
"image-keyboard-response",321,244767,"0.0-3.103-1.103","vxusfx6v6b01xjd",939,"166.csv","","null","resources/maskTrios/L1BB.jpg","null","",NA,NA,NA,NA,""
"image-keyboard-response",322,245968,"0.0-3.103-2.103","vxusfx6v6b01xjd",939,"166.csv","","null","resources/images/fishbone.png","null","",NA,NA,NA,NA,""
"image-keyboard-response",323,246281,"0.0-3.104-0.104","vxusfx6v6b01xjd",939,"166.csv","","311","resources/trios/L2T2A3.jpg","37","restless",0.5,0.2,0.3,0.181040981026185,"true"
"image-keyboard-response",324,246684,"0.0-3.104-1.104","vxusfx6v6b01xjd",939,"166.csv","","null","resources/maskTrios/L2BB.jpg","null","",NA,NA,NA,NA,""
"image-keyboard-response",325,247887,"0.0-3.104-2.104","vxusfx6v6b01xjd",939,"166.csv","","null","resources/images/coin2.png","null","",NA,NA,NA,NA,""
"image-keyboard-response",326,248295,"0.0-3.105-0.105","vxusfx6v6b01xjd",939,"166.csv","","407.0000000000291","resources/trios/L1T2A2.jpg","37","restless",0.5,0.3,0.3,0.834688544187456,"false"
"image-keyboard-response",327,248700,"0.0-3.105-1.105","vxusfx6v6b01xjd",939,"166.csv","","null","resources/maskTrios/L1BB.jpg","null","",NA,NA,NA,NA,""
"image-keyboard-response",328,249902,"0.0-3.105-2.105","vxusfx6v6b01xjd",939,"166.csv","","null","resources/images/fishbone.png","null","",NA,NA,NA,NA,""
"image-keyboard-response",329,250334,"0.0-3.106-0.106","vxusfx6v6b01xjd",939,"166.csv","","430","resources/trios/L2T2A3.jpg","37","restless",0.5,0.3,0.3,0.97936042017617,"false"
"image-keyboard-response",330,250737,"0.0-3.106-1.106","vxusfx6v6b01xjd",939,"166.csv","","null","resources/maskTrios/L2BB.jpg","null","",NA,NA,NA,NA,""
"image-keyboard-response",331,251939,"0.0-3.106-2.106","vxusfx6v6b01xjd",939,"166.csv","","null","resources/images/fishbone.png","null","",NA,NA,NA,NA,""
"image-keyboard-response",332,252234,"0.0-3.107-0.107","vxusfx6v6b01xjd",939,"166.csv","","294","resources/trios/L2T2A2.jpg","38","restless",0.5,0.3,0.2,0.100844161051628,"true"
"image-keyboard-response",333,252636,"0.0-3.107-1.107","vxusfx6v6b01xjd",939,"166.csv","","null","resources/maskTrios/BT2B.jpg","null","",NA,NA,NA,NA,""
"image-keyboard-response",334,253839,"0.0-3.107-2.107","vxusfx6v6b01xjd",939,"166.csv","","null","resources/images/coin2.png","null","",NA,NA,NA,NA,""
"image-keyboard-response",335,254287,"0.0-3.108-0.108","vxusfx6v6b01xjd",939,"166.csv","","447","resources/trios/L1T4A2.jpg","38","restless",0.5,0.3,0.2,0.411868385786516,"false"
"image-keyboard-response",336,254690,"0.0-3.108-1.108","vxusfx6v6b01xjd",939,"166.csv","","null","resources/maskTrios/BT4B.jpg","null","",NA,NA,NA,NA,""
"image-keyboard-response",337,255892,"0.0-3.108-2.108","vxusfx6v6b01xjd",939,"166.csv","","null","resources/images/fishbone.png","null","",NA,NA,NA,NA,""
"image-keyboard-response",338,256469,"0.0-3.109-0.109","vxusfx6v6b01xjd",939,"166.csv","","576.0000000000291","resources/trios/L2T4A2.jpg","38","restless",0.5,0.3,0.2,0.862185181765548,"false"
"image-keyboard-response",339,256872,"0.0-3.109-1.109","vxusfx6v6b01xjd",939,"166.csv","","null","resources/maskTrios/BT4B.jpg","null","",NA,NA,NA,NA,""
"image-keyboard-response",340,258074,"0.0-3.109-2.109","vxusfx6v6b01xjd",939,"166.csv","","null","resources/images/fishbone.png","null","",NA,NA,NA,NA,""
"image-keyboard-response",341,258343,"0.0-3.110-0.110","vxusfx6v6b01xjd",939,"166.csv","","265","resources/trios/L1T4A2.jpg","39","restless",0.5,0.3,0.2,0.0388237473747031,"true"
"image-keyboard-response",342,258746,"0.0-3.110-1.110","vxusfx6v6b01xjd",939,"166.csv","","null","resources/maskTrios/BBA2.jpg","null","",NA,NA,NA,NA,""
"image-keyboard-response",343,259949,"0.0-3.110-2.110","vxusfx6v6b01xjd",939,"166.csv","","null","resources/images/coin2.png","null","",NA,NA,NA,NA,""
"image-keyboard-response",344,262431,"0.0-3.111-0.111","vxusfx6v6b01xjd",939,"166.csv","","2479","resources/trios/L1T4A2.jpg","39","restless",0.5,0.3,0.2,0.594633090040667,"false"
"image-keyboard-response",345,262834,"0.0-3.111-1.111","vxusfx6v6b01xjd",939,"166.csv","","null","resources/maskTrios/BBA2.jpg","null","",NA,NA,NA,NA,""
"image-keyboard-response",346,264036,"0.0-3.111-2.111","vxusfx6v6b01xjd",939,"166.csv","","null","resources/images/fishbone.png","null","",NA,NA,NA,NA,""
"image-keyboard-response",347,264150,"0.0-3.112-0.112","vxusfx6v6b01xjd",939,"166.csv","","112","resources/trios/L2T2A2.jpg","39","restless",0.4,0.3,0.2,0.78263943318596,"false"
"image-keyboard-response",348,264552,"0.0-3.112-1.112","vxusfx6v6b01xjd",939,"166.csv","","null","resources/maskTrios/BBA2.jpg","null","",NA,NA,NA,NA,""
"image-keyboard-response",349,265755,"0.0-3.112-2.112","vxusfx6v6b01xjd",939,"166.csv","","null","resources/images/fishbone.png","null","",NA,NA,NA,NA,""
"image-keyboard-response",350,266516,"0.0-3.113-0.113","vxusfx6v6b01xjd",939,"166.csv","","760","resources/trios/L2T2A2.jpg","39","restless",0.4,0.3,0.2,0.255514789262614,"false"
"image-keyboard-response",351,266918,"0.0-3.113-1.113","vxusfx6v6b01xjd",939,"166.csv","","null","resources/maskTrios/BBA2.jpg","null","",NA,NA,NA,NA,""
"image-keyboard-response",352,268121,"0.0-3.113-2.113","vxusfx6v6b01xjd",939,"166.csv","","null","resources/images/fishbone.png","null","",NA,NA,NA,NA,""
"image-keyboard-response",353,268250,"0.0-3.114-0.114","vxusfx6v6b01xjd",939,"166.csv","","128","resources/trios/L2T4A2.jpg","39","restless",0.4,0.3,0.2,0.140520598967998,"true"
"image-keyboard-response",354,268652,"0.0-3.114-1.114","vxusfx6v6b01xjd",939,"166.csv","","null","resources/maskTrios/BBA2.jpg","null","",NA,NA,NA,NA,""
"image-keyboard-response",355,269855,"0.0-3.114-2.114","vxusfx6v6b01xjd",939,"166.csv","","null","resources/images/coin2.png","null","",NA,NA,NA,NA,""
"image-keyboard-response",356,270571,"0.0-3.115-0.115","vxusfx6v6b01xjd",939,"166.csv","","714","resources/trios/L1T2A2.jpg","39","restless",0.4,0.3,0.2,0.336455249493733,"false"
"image-keyboard-response",357,270974,"0.0-3.115-1.115","vxusfx6v6b01xjd",939,"166.csv","","null","resources/maskTrios/BBA2.jpg","null","",NA,NA,NA,NA,""
"image-keyboard-response",358,272176,"0.0-3.115-2.115","vxusfx6v6b01xjd",939,"166.csv","","null","resources/images/fishbone.png","null","",NA,NA,NA,NA,""
"image-keyboard-response",359,272997,"0.0-3.116-0.116","vxusfx6v6b01xjd",939,"166.csv","","817","resources/trios/L2T2A3.jpg","39","restless",0.4,0.3,0.2,0.187585019974502,"true"
"image-keyboard-response",360,273400,"0.0-3.116-1.116","vxusfx6v6b01xjd",939,"166.csv","","null","resources/maskTrios/BBA3.jpg","null","",NA,NA,NA,NA,""
"image-keyboard-response",361,274602,"0.0-3.116-2.116","vxusfx6v6b01xjd",939,"166.csv","","null","resources/images/coin2.png","null","",NA,NA,NA,NA,""
"image-keyboard-response",362,274894,"0.0-3.117-0.117","vxusfx6v6b01xjd",939,"166.csv","","290","resources/trios/L1T4A2.jpg","39","restless",0.4,0.3,0.2,0.144912380130615,"true"
"image-keyboard-response",363,275297,"0.0-3.117-1.117","vxusfx6v6b01xjd",939,"166.csv","","null","resources/maskTrios/BBA2.jpg","null","",NA,NA,NA,NA,""
"image-keyboard-response",364,276499,"0.0-3.117-2.117","vxusfx6v6b01xjd",939,"166.csv","","null","resources/images/coin2.png","null","",NA,NA,NA,NA,""
"image-keyboard-response",365,276828,"0.0-3.118-0.118","vxusfx6v6b01xjd",939,"166.csv","","328","resources/trios/L1T2A2.jpg","39","restless",0.4,0.3,0.2,0.942247679569816,"false"
"image-keyboard-response",366,277231,"0.0-3.118-1.118","vxusfx6v6b01xjd",939,"166.csv","","null","resources/maskTrios/BBA2.jpg","null","",NA,NA,NA,NA,""
"image-keyboard-response",367,278433,"0.0-3.118-2.118","vxusfx6v6b01xjd",939,"166.csv","","null","resources/images/fishbone.png","null","",NA,NA,NA,NA,""
"image-keyboard-response",368,278750,"0.0-3.119-0.119","vxusfx6v6b01xjd",939,"166.csv","","315","resources/trios/L2T4A2.jpg","39","restless",0.4,0.3,0.2,0.454000593781556,"false"
"image-keyboard-response",369,279152,"0.0-3.119-1.119","vxusfx6v6b01xjd",939,"166.csv","","null","resources/maskTrios/BBA2.jpg","null","",NA,NA,NA,NA,""
"image-keyboard-response",370,280354,"0.0-3.119-2.119","vxusfx6v6b01xjd",939,"166.csv","","null","resources/images/fishbone.png","null","",NA,NA,NA,NA,""
"image-keyboard-response",371,280518,"0.0-3.120-0.120","vxusfx6v6b01xjd",939,"166.csv","","160","resources/trios/L2T2A2.jpg","39","restless",0.4,0.3,0.2,0.141837541479971,"true"
"image-keyboard-response",372,280921,"0.0-3.120-1.120","vxusfx6v6b01xjd",939,"166.csv","","null","resources/maskTrios/BBA2.jpg","null","",NA,NA,NA,NA,""
"image-keyboard-response",373,282123,"0.0-3.120-2.120","vxusfx6v6b01xjd",939,"166.csv","","null","resources/images/coin2.png","null","",NA,NA,NA,NA,""
"image-keyboard-response",374,282554,"0.0-3.121-0.121","vxusfx6v6b01xjd",939,"166.csv","","429","resources/trios/L2T4A3.jpg","39","restless",0.4,0.3,0.2,0.855009047295618,"false"
"image-keyboard-response",375,282956,"0.0-3.121-1.121","vxusfx6v6b01xjd",939,"166.csv","","null","resources/maskTrios/BBA3.jpg","null","",NA,NA,NA,NA,""
"image-keyboard-response",376,284158,"0.0-3.121-2.121","vxusfx6v6b01xjd",939,"166.csv","","null","resources/images/fishbone.png","null","",NA,NA,NA,NA,""
"image-keyboard-response",377,284452,"0.0-3.122-0.122","vxusfx6v6b01xjd",939,"166.csv","","292","resources/trios/L2T4A3.jpg","39","restless",0.4,0.4,0.3,0.668626928750318,"false"
"image-keyboard-response",378,284855,"0.0-3.122-1.122","vxusfx6v6b01xjd",939,"166.csv","","null","resources/maskTrios/BBA3.jpg","null","",NA,NA,NA,NA,""
"image-keyboard-response",379,286057,"0.0-3.122-2.122","vxusfx6v6b01xjd",939,"166.csv","","null","resources/images/fishbone.png","null","",NA,NA,NA,NA,""
"image-keyboard-response",380,286584,"0.0-3.123-0.123","vxusfx6v6b01xjd",939,"166.csv","","525","resources/trios/L1T2A2.jpg","39","restless",0.4,0.4,0.3,0.243661127084508,"true"
"image-keyboard-response",381,286986,"0.0-3.123-1.123","vxusfx6v6b01xjd",939,"166.csv","","null","resources/maskTrios/BBA2.jpg","null","",NA,NA,NA,NA,""
"image-keyboard-response",382,288188,"0.0-3.123-2.123","vxusfx6v6b01xjd",939,"166.csv","","null","resources/images/coin2.png","null","",NA,NA,NA,NA,""
"image-keyboard-response",383,288200,"0.0-3.124-0.124","vxusfx6v6b01xjd",939,"166.csv","","11","resources/trios/L1T2A2.jpg","39","restless",0.4,0.4,0.3,0.217185256932671,"true"
"image-keyboard-response",384,288603,"0.0-3.124-1.124","vxusfx6v6b01xjd",939,"166.csv","","null","resources/maskTrios/BBA2.jpg","null","",NA,NA,NA,NA,""
"image-keyboard-response",385,289806,"0.0-3.124-2.124","vxusfx6v6b01xjd",939,"166.csv","","null","resources/images/coin2.png","null","",NA,NA,NA,NA,""
"image-keyboard-response",386,290159,"0.0-3.125-0.125","vxusfx6v6b01xjd",939,"166.csv","","348","resources/trios/L1T2A2.jpg","39","restless",0.4,0.4,0.3,0.920359872130779,"false"
"image-keyboard-response",387,290562,"0.0-3.125-1.125","vxusfx6v6b01xjd",939,"166.csv","","null","resources/maskTrios/BBA2.jpg","null","",NA,NA,NA,NA,""
"image-keyboard-response",388,291763,"0.0-3.125-2.125","vxusfx6v6b01xjd",939,"166.csv","","null","resources/images/fishbone.png","null","",NA,NA,NA,NA,""
"image-keyboard-response",389,292068,"0.0-3.126-0.126","vxusfx6v6b01xjd",939,"166.csv","","302","resources/trios/L1T2A2.jpg","39","restless",0.5,0.4,0.3,0.854534032367011,"false"
"image-keyboard-response",390,292471,"0.0-3.126-1.126","vxusfx6v6b01xjd",939,"166.csv","","null","resources/maskTrios/BBA2.jpg","null","",NA,NA,NA,NA,""
"image-keyboard-response",391,293673,"0.0-3.126-2.126","vxusfx6v6b01xjd",939,"166.csv","","null","resources/images/fishbone.png","null","",NA,NA,NA,NA,""
"image-keyboard-response",392,293844,"0.0-3.127-0.127","vxusfx6v6b01xjd",939,"166.csv","","170","resources/trios/L1T4A3.jpg","39","restless",0.5,0.4,0.3,0.764401803752677,"false"
"image-keyboard-response",393,294247,"0.0-3.127-1.127","vxusfx6v6b01xjd",939,"166.csv","","null","resources/maskTrios/BBA3.jpg","null","",NA,NA,NA,NA,""
"image-keyboard-response",394,295448,"0.0-3.127-2.127","vxusfx6v6b01xjd",939,"166.csv","","null","resources/images/fishbone.png","null","",NA,NA,NA,NA,""
"image-keyboard-response",395,295756,"0.0-3.128-0.128","vxusfx6v6b01xjd",939,"166.csv","","306","resources/trios/L1T4A2.jpg","39","restless",0.5,0.4,0.3,0.869858970589842,"false"
"image-keyboard-response",396,296159,"0.0-3.128-1.128","vxusfx6v6b01xjd",939,"166.csv","","null","resources/maskTrios/BBA2.jpg","null","",NA,NA,NA,NA,""
"image-keyboard-response",397,297361,"0.0-3.128-2.128","vxusfx6v6b01xjd",939,"166.csv","","null","resources/images/fishbone.png","null","",NA,NA,NA,NA,""
"image-keyboard-response",398,297619,"0.0-3.129-0.129","vxusfx6v6b01xjd",939,"166.csv","","255","resources/trios/L2T4A3.jpg","39","restless",0.6,0.4,0.3,0.697183756237956,"false"
"image-keyboard-response",399,298022,"0.0-3.129-1.129","vxusfx6v6b01xjd",939,"166.csv","","null","resources/maskTrios/BBA3.jpg","null","",NA,NA,NA,NA,""
"image-keyboard-response",400,299225,"0.0-3.129-2.129","vxusfx6v6b01xjd",939,"166.csv","","null","resources/images/fishbone.png","null","",NA,NA,NA,NA,""
"image-keyboard-response",401,299451,"0.0-3.130-0.130","vxusfx6v6b01xjd",939,"166.csv","","224","resources/trios/L2T4A2.jpg","39","restless",0.6,0.4,0.3,0.039307151020365,"true"
"image-keyboard-response",402,299854,"0.0-3.130-1.130","vxusfx6v6b01xjd",939,"166.csv","","null","resources/maskTrios/BBA2.jpg","null","",NA,NA,NA,NA,""
"image-keyboard-response",403,301056,"0.0-3.130-2.130","vxusfx6v6b01xjd",939,"166.csv","","null","resources/images/coin2.png","null","",NA,NA,NA,NA,""
"image-keyboard-response",404,301258,"0.0-3.131-0.131","vxusfx6v6b01xjd",939,"166.csv","","200.9999999999418","resources/trios/L2T4A2.jpg","39","restless",0.6,0.4,0.3,0.156771264456367,"true"
"image-keyboard-response",405,301661,"0.0-3.131-1.131","vxusfx6v6b01xjd",939,"166.csv","","null","resources/maskTrios/BBA2.jpg","null","",NA,NA,NA,NA,""
"image-keyboard-response",406,302864,"0.0-3.131-2.131","vxusfx6v6b01xjd",939,"166.csv","","null","resources/images/coin2.png","null","",NA,NA,NA,NA,""
"image-keyboard-response",407,302916,"0.0-3.132-0.132","vxusfx6v6b01xjd",939,"166.csv","","51","resources/trios/L1T4A3.jpg","39","restless",0.6,0.4,0.3,0.728683412697893,"false"
"image-keyboard-response",408,303318,"0.0-3.132-1.132","vxusfx6v6b01xjd",939,"166.csv","","null","resources/maskTrios/BBA3.jpg","null","",NA,NA,NA,NA,""
"image-keyboard-response",409,304520,"0.0-3.132-2.132","vxusfx6v6b01xjd",939,"166.csv","","null","resources/images/fishbone.png","null","",NA,NA,NA,NA,""
"image-keyboard-response",410,304762,"0.0-3.133-0.133","vxusfx6v6b01xjd",939,"166.csv","","240","resources/trios/L2T2A3.jpg","39","restless",0.6,0.4,0.3,0.300971743658112,"false"
"image-keyboard-response",411,305164,"0.0-3.133-1.133","vxusfx6v6b01xjd",939,"166.csv","","null","resources/maskTrios/BBA3.jpg","null","",NA,NA,NA,NA,""
"image-keyboard-response",412,306367,"0.0-3.133-2.133","vxusfx6v6b01xjd",939,"166.csv","","null","resources/images/fishbone.png","null","",NA,NA,NA,NA,""
"image-keyboard-response",413,306548,"0.0-3.134-0.134","vxusfx6v6b01xjd",939,"166.csv","","180","resources/trios/L2T4A3.jpg","39","restless",0.6,0.3,0.3,0.544747102229014,"false"
"image-keyboard-response",414,306951,"0.0-3.134-1.134","vxusfx6v6b01xjd",939,"166.csv","","null","resources/maskTrios/BBA3.jpg","null","",NA,NA,NA,NA,""
"image-keyboard-response",415,308154,"0.0-3.134-2.134","vxusfx6v6b01xjd",939,"166.csv","","null","resources/images/fishbone.png","null","",NA,NA,NA,NA,""
"image-keyboard-response",416,326244,"0.0-3.135-0.135","vxusfx6v6b01xjd",939,"166.csv","","18083","resources/trios/L2T2A3.jpg","39","restless",0.6,0.3,0.3,0.102008940952528,"true"
"image-keyboard-response",417,326646,"0.0-3.135-1.135","vxusfx6v6b01xjd",939,"166.csv","","null","resources/maskTrios/BBA3.jpg","null","",NA,NA,NA,NA,""
"image-keyboard-response",418,327849,"0.0-3.135-2.135","vxusfx6v6b01xjd",939,"166.csv","","null","resources/images/coin2.png","null","",NA,NA,NA,NA,""
"image-keyboard-response",419,328909,"0.0-3.136-0.136","vxusfx6v6b01xjd",939,"166.csv","","1057.0000000000582","resources/trios/L2T2A2.jpg","39","restless",0.6,0.3,0.3,0.21688622201702,"true"
"image-keyboard-response",420,329311,"0.0-3.136-1.136","vxusfx6v6b01xjd",939,"166.csv","","null","resources/maskTrios/BBA2.jpg","null","",NA,NA,NA,NA,""
"image-keyboard-response",421,330514,"0.0-3.136-2.136","vxusfx6v6b01xjd",939,"166.csv","","null","resources/images/coin2.png","null","",NA,NA,NA,NA,""
"image-keyboard-response",422,330640,"0.0-3.137-0.137","vxusfx6v6b01xjd",939,"166.csv","","122","resources/trios/L2T2A3.jpg","39","restless",0.6,0.3,0.3,0.616450960891727,"false"
"image-keyboard-response",423,331041,"0.0-3.137-1.137","vxusfx6v6b01xjd",939,"166.csv","","null","resources/maskTrios/BBA3.jpg","null","",NA,NA,NA,NA,""
"image-keyboard-response",424,332243,"0.0-3.137-2.137","vxusfx6v6b01xjd",939,"166.csv","","null","resources/images/fishbone.png","null","",NA,NA,NA,NA,""
"image-keyboard-response",425,332320,"0.0-3.138-0.138","vxusfx6v6b01xjd",939,"166.csv","","75.00000000005821","resources/trios/L1T2A3.jpg","39","restless",0.6,0.3,0.3,0.95552511064107,"false"
"image-keyboard-response",426,332722,"0.0-3.138-1.138","vxusfx6v6b01xjd",939,"166.csv","","null","resources/maskTrios/BBA3.jpg","null","",NA,NA,NA,NA,""
"image-keyboard-response",427,333925,"0.0-3.138-2.138","vxusfx6v6b01xjd",939,"166.csv","","null","resources/images/fishbone.png","null","",NA,NA,NA,NA,""
"image-keyboard-response",428,334234,"0.0-3.139-0.139","vxusfx6v6b01xjd",939,"166.csv","","308","resources/trios/L2T2A2.jpg","39","restless",0.6,0.3,0.3,0.236668494948852,"true"
"image-keyboard-response",429,334637,"0.0-3.139-1.139","vxusfx6v6b01xjd",939,"166.csv","","null","resources/maskTrios/BBA2.jpg","null","",NA,NA,NA,NA,""
"image-keyboard-response",430,335838,"0.0-3.139-2.139","vxusfx6v6b01xjd",939,"166.csv","","null","resources/images/coin2.png","null","",NA,NA,NA,NA,""
"image-keyboard-response",431,335895,"0.0-3.140-0.140","vxusfx6v6b01xjd",939,"166.csv","","55","resources/trios/L1T4A2.jpg","39","restless",0.6,0.3,0.3,0.964744523423329,"false"
"image-keyboard-response",432,336297,"0.0-3.140-1.140","vxusfx6v6b01xjd",939,"166.csv","","null","resources/maskTrios/BBA2.jpg","null","",NA,NA,NA,NA,""
"image-keyboard-response",433,337500,"0.0-3.140-2.140","vxusfx6v6b01xjd",939,"166.csv","","null","resources/images/fishbone.png","null","",NA,NA,NA,NA,""
"image-keyboard-response",434,337688,"0.0-3.141-0.141","vxusfx6v6b01xjd",939,"166.csv","","187.0000000000582","resources/trios/L1T4A2.jpg","39","restless",0.6,0.3,0.3,0.864384554387815,"false"
"image-keyboard-response",435,338090,"0.0-3.141-1.141","vxusfx6v6b01xjd",939,"166.csv","","null","resources/maskTrios/BBA2.jpg","null","",NA,NA,NA,NA,""
"image-keyboard-response",436,339293,"0.0-3.141-2.141","vxusfx6v6b01xjd",939,"166.csv","","null","resources/images/fishbone.png","null","",NA,NA,NA,NA,""
"image-keyboard-response",437,339486,"0.0-3.142-0.142","vxusfx6v6b01xjd",939,"166.csv","","192.0000000000582","resources/trios/L2T2A2.jpg","39","restless",0.6,0.4,0.3,0.173005303131228,"true"
"image-keyboard-response",438,339888,"0.0-3.142-1.142","vxusfx6v6b01xjd",939,"166.csv","","null","resources/maskTrios/BBA2.jpg","null","",NA,NA,NA,NA,""
"image-keyboard-response",439,341091,"0.0-3.142-2.142","vxusfx6v6b01xjd",939,"166.csv","","null","resources/images/coin2.png","null","",NA,NA,NA,NA,""
"image-keyboard-response",440,341302,"0.0-3.143-0.143","vxusfx6v6b01xjd",939,"166.csv","","209","resources/trios/L1T2A3.jpg","39","restless",0.6,0.4,0.3,0.167676204407435,"true"
"image-keyboard-response",441,341704,"0.0-3.143-1.143","vxusfx6v6b01xjd",939,"166.csv","","null","resources/maskTrios/BBA3.jpg","null","",NA,NA,NA,NA,""
"image-keyboard-response",442,342906,"0.0-3.143-2.143","vxusfx6v6b01xjd",939,"166.csv","","null","resources/images/coin2.png","null","",NA,NA,NA,NA,""
"image-keyboard-response",443,343002,"0.0-3.144-0.144","vxusfx6v6b01xjd",939,"166.csv","","91","resources/trios/L2T2A3.jpg","39","restless",0.6,0.4,0.3,0.992379223110812,"false"
"image-keyboard-response",444,343404,"0.0-3.144-1.144","vxusfx6v6b01xjd",939,"166.csv","","null","resources/maskTrios/BBA3.jpg","null","",NA,NA,NA,NA,""
"image-keyboard-response",445,344606,"0.0-3.144-2.144","vxusfx6v6b01xjd",939,"166.csv","","null","resources/images/fishbone.png","null","",NA,NA,NA,NA,""
"image-keyboard-response",446,344805,"0.0-3.145-0.145","vxusfx6v6b01xjd",939,"166.csv","","197","resources/trios/L1T2A2.jpg","39","restless",0.6,0.4,0.3,0.265043050689194,"true"
"image-keyboard-response",447,345207,"0.0-3.145-1.145","vxusfx6v6b01xjd",939,"166.csv","","null","resources/maskTrios/BBA2.jpg","null","",NA,NA,NA,NA,""
"image-keyboard-response",448,346409,"0.0-3.145-2.145","vxusfx6v6b01xjd",939,"166.csv","","null","resources/images/coin2.png","null","",NA,NA,NA,NA,""
"image-keyboard-response",449,346563,"0.0-3.146-0.146","vxusfx6v6b01xjd",939,"166.csv","","152","resources/trios/L1T2A3.jpg","39","restless",0.6,0.4,0.3,0.0742483682835705,"true"
"image-keyboard-response",450,346965,"0.0-3.146-1.146","vxusfx6v6b01xjd",939,"166.csv","","null","resources/maskTrios/BBA3.jpg","null","",NA,NA,NA,NA,""
"image-keyboard-response",451,348168,"0.0-3.146-2.146","vxusfx6v6b01xjd",939,"166.csv","","null","resources/images/coin2.png","null","",NA,NA,NA,NA,""
"image-keyboard-response",452,348265,"0.0-3.147-0.147","vxusfx6v6b01xjd",939,"166.csv","","93.99999999994179","resources/trios/L2T2A3.jpg","39","restless",0.6,0.4,0.3,0.990910984896904,"false"
"image-keyboard-response",453,348668,"0.0-3.147-1.147","vxusfx6v6b01xjd",939,"166.csv","","null","resources/maskTrios/BBA3.jpg","null","",NA,NA,NA,NA,""
"image-keyboard-response",454,349871,"0.0-3.147-2.147","vxusfx6v6b01xjd",939,"166.csv","","null","resources/images/fishbone.png","null","",NA,NA,NA,NA,""
"image-keyboard-response",455,350010,"0.0-3.148-0.148","vxusfx6v6b01xjd",939,"166.csv","","135.9999999999418","resources/trios/L1T4A3.jpg","39","restless",0.6,0.4,0.3,0.0296197425907837,"true"
"image-keyboard-response",456,350412,"0.0-3.148-1.148","vxusfx6v6b01xjd",939,"166.csv","","null","resources/maskTrios/BBA3.jpg","null","",NA,NA,NA,NA,""
"image-keyboard-response",457,351615,"0.0-3.148-2.148","vxusfx6v6b01xjd",939,"166.csv","","null","resources/images/coin2.png","null","",NA,NA,NA,NA,""
"image-keyboard-response",458,351745,"0.0-3.149-0.149","vxusfx6v6b01xjd",939,"166.csv","","128","resources/trios/L1T2A2.jpg","39","restless",0.6,0.4,0.4,0.521886521159105,"false"
"image-keyboard-response",459,352147,"0.0-3.149-1.149","vxusfx6v6b01xjd",939,"166.csv","","null","resources/maskTrios/BBA2.jpg","null","",NA,NA,NA,NA,""
"image-keyboard-response",460,353350,"0.0-3.149-2.149","vxusfx6v6b01xjd",939,"166.csv","","null","resources/images/fishbone.png","null","",NA,NA,NA,NA,""
"image-keyboard-response",461,354151,"0.0-3.150-0.150","vxusfx6v6b01xjd",939,"166.csv","","799","resources/trios/L1T2A3.jpg","39","restless",0.7,0.5,0.4,0.0562705371810178,"true"
"image-keyboard-response",462,354552,"0.0-3.150-1.150","vxusfx6v6b01xjd",939,"166.csv","","null","resources/maskTrios/BBA3.jpg","null","",NA,NA,NA,NA,""
"image-keyboard-response",463,355755,"0.0-3.150-2.150","vxusfx6v6b01xjd",939,"166.csv","","null","resources/images/coin2.png","null","",NA,NA,NA,NA,""
"image-keyboard-response",464,355839,"0.0-3.151-0.151","vxusfx6v6b01xjd",939,"166.csv","","83","resources/trios/L2T4A3.jpg","39","restless",0.7,0.5,0.4,0.177101314145752,"true"
"image-keyboard-response",465,356242,"0.0-3.151-1.151","vxusfx6v6b01xjd",939,"166.csv","","null","resources/maskTrios/BBA3.jpg","null","",NA,NA,NA,NA,""
"image-keyboard-response",466,357446,"0.0-3.151-2.151","vxusfx6v6b01xjd",939,"166.csv","","null","resources/images/coin2.png","null","",NA,NA,NA,NA,""
"image-keyboard-response",467,357454,"0.0-3.152-0.152","vxusfx6v6b01xjd",939,"166.csv","","6","resources/trios/L1T2A2.jpg","39","restless",0.7,0.5,0.4,0.568221341721545,"false"
"image-keyboard-response",468,357857,"0.0-3.152-1.152","vxusfx6v6b01xjd",939,"166.csv","","null","resources/maskTrios/BBA2.jpg","null","",NA,NA,NA,NA,""
"image-keyboard-response",469,359059,"0.0-3.152-2.152","vxusfx6v6b01xjd",939,"166.csv","","null","resources/images/fishbone.png","null","",NA,NA,NA,NA,""
"image-keyboard-response",470,359364,"0.0-3.153-0.153","vxusfx6v6b01xjd",939,"166.csv","","303","resources/trios/L2T2A3.jpg","39","restless",0.7,0.5,0.4,0.926824568463274,"false"
"image-keyboard-response",471,359766,"0.0-3.153-1.153","vxusfx6v6b01xjd",939,"166.csv","","null","resources/maskTrios/BBA3.jpg","null","",NA,NA,NA,NA,""
"image-keyboard-response",472,360969,"0.0-3.153-2.153","vxusfx6v6b01xjd",939,"166.csv","","null","resources/images/fishbone.png","null","",NA,NA,NA,NA,""
"image-keyboard-response",473,361003,"0.0-3.154-0.154","vxusfx6v6b01xjd",939,"166.csv","","32","resources/trios/L1T2A2.jpg","39","restless",0.7,0.5,0.4,0.364852349440329,"true"
"image-keyboard-response",474,361405,"0.0-3.154-1.154","vxusfx6v6b01xjd",939,"166.csv","","null","resources/maskTrios/BBA2.jpg","null","",NA,NA,NA,NA,""
"image-keyboard-response",475,362608,"0.0-3.154-2.154","vxusfx6v6b01xjd",939,"166.csv","","null","resources/images/coin2.png","null","",NA,NA,NA,NA,""
"image-keyboard-response",476,362799,"0.0-3.155-0.155","vxusfx6v6b01xjd",939,"166.csv","","188","resources/trios/L1T4A2.jpg","39","restless",0.7,0.5,0.4,0.318958353743402,"true"
"image-keyboard-response",477,363201,"0.0-3.155-1.155","vxusfx6v6b01xjd",939,"166.csv","","null","resources/maskTrios/BBA2.jpg","null","",NA,NA,NA,NA,""
"image-keyboard-response",478,364404,"0.0-3.155-2.155","vxusfx6v6b01xjd",939,"166.csv","","null","resources/images/coin2.png","null","",NA,NA,NA,NA,""
"image-keyboard-response",479,364572,"0.0-3.156-0.156","vxusfx6v6b01xjd",939,"166.csv","","166","resources/trios/L1T4A3.jpg","39","restless",0.7,0.5,0.4,0.535965388571129,"false"
"image-keyboard-response",480,364974,"0.0-3.156-1.156","vxusfx6v6b01xjd",939,"166.csv","","null","resources/maskTrios/BBA3.jpg","null","",NA,NA,NA,NA,""
"image-keyboard-response",481,366177,"0.0-3.156-2.156","vxusfx6v6b01xjd",939,"166.csv","","null","resources/images/fishbone.png","null","",NA,NA,NA,NA,""
"image-keyboard-response",482,366460,"0.0-3.157-0.157","vxusfx6v6b01xjd",939,"166.csv","","282","resources/trios/L1T4A2.jpg","39","restless",0.7,0.5,0.4,0.429875721703349,"false"
"image-keyboard-response",483,366862,"0.0-3.157-1.157","vxusfx6v6b01xjd",939,"166.csv","","null","resources/maskTrios/BBA2.jpg","null","",NA,NA,NA,NA,""
"image-keyboard-response",484,368064,"0.0-3.157-2.157","vxusfx6v6b01xjd",939,"166.csv","","null","resources/images/fishbone.png","null","",NA,NA,NA,NA,""
"image-keyboard-response",485,368122,"0.0-3.158-0.158","vxusfx6v6b01xjd",939,"166.csv","","56","resources/trios/L1T2A3.jpg","39","restless",0.7,0.5,0.4,0.856966211721145,"false"
"image-keyboard-response",486,368524,"0.0-3.158-1.158","vxusfx6v6b01xjd",939,"166.csv","","null","resources/maskTrios/BBA3.jpg","null","",NA,NA,NA,NA,""
"image-keyboard-response",487,369726,"0.0-3.158-2.158","vxusfx6v6b01xjd",939,"166.csv","","null","resources/images/fishbone.png","null","",NA,NA,NA,NA,""
"image-keyboard-response",488,370077,"0.0-3.159-0.159","vxusfx6v6b01xjd",939,"166.csv","","349","resources/trios/L1T2A3.jpg","39","restless",0.7,0.6,0.4,0.669013916305711,"false"
"image-keyboard-response",489,370479,"0.0-3.159-1.159","vxusfx6v6b01xjd",939,"166.csv","","null","resources/maskTrios/BBA3.jpg","null","",NA,NA,NA,NA,""
"image-keyboard-response",490,371682,"0.0-3.159-2.159","vxusfx6v6b01xjd",939,"166.csv","","null","resources/images/fishbone.png","null","",NA,NA,NA,NA,""
"image-keyboard-response",491,371734,"0.0-3.160-0.160","vxusfx6v6b01xjd",939,"166.csv","","51","resources/trios/L1T4A2.jpg","39","restless",0.7,0.5,0.4,0.806395154103454,"false"
"image-keyboard-response",492,372136,"0.0-3.160-1.160","vxusfx6v6b01xjd",939,"166.csv","","null","resources/maskTrios/BBA2.jpg","null","",NA,NA,NA,NA,""
"image-keyboard-response",493,373338,"0.0-3.160-2.160","vxusfx6v6b01xjd",939,"166.csv","","null","resources/images/fishbone.png","null","",NA,NA,NA,NA,""
"image-keyboard-response",494,373540,"0.0-3.161-0.161","vxusfx6v6b01xjd",939,"166.csv","","200","resources/trios/L2T2A2.jpg","39","restless",0.8,0.5,0.4,0.178943079531441,"true"
"image-keyboard-response",495,373942,"0.0-3.161-1.161","vxusfx6v6b01xjd",939,"166.csv","","null","resources/maskTrios/BBA2.jpg","null","",NA,NA,NA,NA,""
"image-keyboard-response",496,375145,"0.0-3.161-2.161","vxusfx6v6b01xjd",939,"166.csv","","null","resources/images/coin2.png","null","",NA,NA,NA,NA,""
"image-keyboard-response",497,375211,"0.0-3.162-0.162","vxusfx6v6b01xjd",939,"166.csv","","62","resources/trios/L1T4A3.jpg","39","restless",0.8,0.5,0.4,0.155555079961709,"true"
"image-keyboard-response",498,375613,"0.0-3.162-1.162","vxusfx6v6b01xjd",939,"166.csv","","null","resources/maskTrios/BBA3.jpg","null","",NA,NA,NA,NA,""
"image-keyboard-response",499,376815,"0.0-3.162-2.162","vxusfx6v6b01xjd",939,"166.csv","","null","resources/images/coin2.png","null","",NA,NA,NA,NA,""
"image-keyboard-response",500,376866,"0.0-3.163-0.163","vxusfx6v6b01xjd",939,"166.csv","","50","resources/trios/L2T4A2.jpg","39","restless",0.8,0.5,0.4,0.148024508101608,"true"
"image-keyboard-response",501,377269,"0.0-3.163-1.163","vxusfx6v6b01xjd",939,"166.csv","","null","resources/maskTrios/BBA2.jpg","null","",NA,NA,NA,NA,""
"image-keyboard-response",502,378471,"0.0-3.163-2.163","vxusfx6v6b01xjd",939,"166.csv","","null","resources/images/coin2.png","null","",NA,NA,NA,NA,""
"image-keyboard-response",503,379157,"0.0-3.164-0.164","vxusfx6v6b01xjd",939,"166.csv","","684","resources/trios/L1T4A2.jpg","39","restless",0.7,0.5,0.4,0.676261405460199,"false"
"image-keyboard-response",504,379559,"0.0-3.164-1.164","vxusfx6v6b01xjd",939,"166.csv","","null","resources/maskTrios/BBA2.jpg","null","",NA,NA,NA,NA,""
"image-keyboard-response",505,380762,"0.0-3.164-2.164","vxusfx6v6b01xjd",939,"166.csv","","null","resources/images/fishbone.png","null","",NA,NA,NA,NA,""
"image-keyboard-response",506,380909,"0.0-3.165-0.165","vxusfx6v6b01xjd",939,"166.csv","","145","resources/trios/L2T2A2.jpg","39","restless",0.7,0.5,0.4,0.26423435703052,"true"
"image-keyboard-response",507,381311,"0.0-3.165-1.165","vxusfx6v6b01xjd",939,"166.csv","","null","resources/maskTrios/BBA2.jpg","null","",NA,NA,NA,NA,""
"image-keyboard-response",508,382514,"0.0-3.165-2.165","vxusfx6v6b01xjd",939,"166.csv","","null","resources/images/coin2.png","null","",NA,NA,NA,NA,""
"image-keyboard-response",509,382694,"0.0-3.166-0.166","vxusfx6v6b01xjd",939,"166.csv","","178","resources/trios/L1T4A3.jpg","39","restless",0.7,0.5,0.4,0.57150379486626,"false"
"image-keyboard-response",510,383096,"0.0-3.166-1.166","vxusfx6v6b01xjd",939,"166.csv","","null","resources/maskTrios/BBA3.jpg","null","",NA,NA,NA,NA,""
"image-keyboard-response",511,384298,"0.0-3.166-2.166","vxusfx6v6b01xjd",939,"166.csv","","null","resources/images/fishbone.png","null","",NA,NA,NA,NA,""
"image-keyboard-response",512,384503,"0.0-3.167-0.167","vxusfx6v6b01xjd",939,"166.csv","","202","resources/trios/L1T2A3.jpg","39","restless",0.6,0.5,0.4,0.338378965036758,"true"
"image-keyboard-response",513,384905,"0.0-3.167-1.167","vxusfx6v6b01xjd",939,"166.csv","","null","resources/maskTrios/BBA3.jpg","null","",NA,NA,NA,NA,""
"image-keyboard-response",514,386107,"0.0-3.167-2.167","vxusfx6v6b01xjd",939,"166.csv","","null","resources/images/coin2.png","null","",NA,NA,NA,NA,""
"image-keyboard-response",515,386208,"0.0-3.168-0.168","vxusfx6v6b01xjd",939,"166.csv","","99","resources/trios/L1T2A2.jpg","39","restless",0.6,0.5,0.4,0.869182062643647,"false"
"image-keyboard-response",516,386610,"0.0-3.168-1.168","vxusfx6v6b01xjd",939,"166.csv","","null","resources/maskTrios/BBA2.jpg","null","",NA,NA,NA,NA,""
"image-keyboard-response",517,387812,"0.0-3.168-2.168","vxusfx6v6b01xjd",939,"166.csv","","null","resources/images/fishbone.png","null","",NA,NA,NA,NA,""
"image-keyboard-response",518,388279,"0.0-3.169-0.169","vxusfx6v6b01xjd",939,"166.csv","","466","resources/trios/L1T2A2.jpg","39","restless",0.6,0.5,0.4,0.0878317472179486,"true"
"image-keyboard-response",519,388682,"0.0-3.169-1.169","vxusfx6v6b01xjd",939,"166.csv","","null","resources/maskTrios/BBA2.jpg","null","",NA,NA,NA,NA,""
"image-keyboard-response",520,389884,"0.0-3.169-2.169","vxusfx6v6b01xjd",939,"166.csv","","null","resources/images/coin2.png","null","",NA,NA,NA,NA,""
"image-keyboard-response",521,390027,"0.0-3.170-0.170","vxusfx6v6b01xjd",939,"166.csv","","140.9999999999418","resources/trios/L2T2A2.jpg","39","restless",0.6,0.5,0.4,0.642326691845517,"false"
"image-keyboard-response",522,390429,"0.0-3.170-1.170","vxusfx6v6b01xjd",939,"166.csv","","null","resources/maskTrios/BBA2.jpg","null","",NA,NA,NA,NA,""
"image-keyboard-response",523,391632,"0.0-3.170-2.170","vxusfx6v6b01xjd",939,"166.csv","","null","resources/images/fishbone.png","null","",NA,NA,NA,NA,""
"image-keyboard-response",524,391792,"0.0-3.171-0.171","vxusfx6v6b01xjd",939,"166.csv","","158","resources/trios/L2T4A3.jpg","39","restless",0.6,0.5,0.4,0.73156427656107,"false"
"image-keyboard-response",525,392195,"0.0-3.171-1.171","vxusfx6v6b01xjd",939,"166.csv","","null","resources/maskTrios/BBA3.jpg","null","",NA,NA,NA,NA,""
"image-keyboard-response",526,393397,"0.0-3.171-2.171","vxusfx6v6b01xjd",939,"166.csv","","null","resources/images/fishbone.png","null","",NA,NA,NA,NA,""
"image-keyboard-response",527,393570,"0.0-3.172-0.172","vxusfx6v6b01xjd",939,"166.csv","","170.9999999999418","resources/trios/L2T2A2.jpg","39","restless",0.5,0.5,0.4,0.723817941758145,"false"
"image-keyboard-response",528,393972,"0.0-3.172-1.172","vxusfx6v6b01xjd",939,"166.csv","","null","resources/maskTrios/BBA2.jpg","null","",NA,NA,NA,NA,""
"image-keyboard-response",529,395174,"0.0-3.172-2.172","vxusfx6v6b01xjd",939,"166.csv","","null","resources/images/fishbone.png","null","",NA,NA,NA,NA,""
"image-keyboard-response",530,395743,"0.0-3.173-0.173","vxusfx6v6b01xjd",939,"166.csv","","567","resources/trios/L1T4A2.jpg","39","restless",0.5,0.5,0.4,0.661975640882316,"false"
"image-keyboard-response",531,396145,"0.0-3.173-1.173","vxusfx6v6b01xjd",939,"166.csv","","null","resources/maskTrios/BBA2.jpg","null","",NA,NA,NA,NA,""
"image-keyboard-response",532,397348,"0.0-3.173-2.173","vxusfx6v6b01xjd",939,"166.csv","","null","resources/images/fishbone.png","null","",NA,NA,NA,NA,""
"image-keyboard-response",533,398639,"0.0-3.174-0.174","vxusfx6v6b01xjd",939,"166.csv","","1286","resources/trios/L2T4A3.jpg","39","restless",0.5,0.5,0.4,0.091250185886207,"true"
"image-keyboard-response",534,399042,"0.0-3.174-1.174","vxusfx6v6b01xjd",939,"166.csv","","null","resources/maskTrios/BBA3.jpg","null","",NA,NA,NA,NA,""
"image-keyboard-response",535,400245,"0.0-3.174-2.174","vxusfx6v6b01xjd",939,"166.csv","","null","resources/images/coin2.png","null","",NA,NA,NA,NA,""
"image-keyboard-response",536,400486,"0.0-3.175-0.175","vxusfx6v6b01xjd",939,"166.csv","","239","resources/trios/L2T2A2.jpg","39","restless",0.5,0.5,0.4,0.427268684888172,"false"
"image-keyboard-response",537,400888,"0.0-3.175-1.175","vxusfx6v6b01xjd",939,"166.csv","","null","resources/maskTrios/BBA2.jpg","null","",NA,NA,NA,NA,""
"image-keyboard-response",538,402090,"0.0-3.175-2.175","vxusfx6v6b01xjd",939,"166.csv","","null","resources/images/fishbone.png","null","",NA,NA,NA,NA,""
"image-keyboard-response",539,402415,"0.0-3.176-0.176","vxusfx6v6b01xjd",939,"166.csv","","323","resources/trios/L2T2A2.jpg","39","restless",0.5,0.5,0.4,0.868425427353473,"false"
"image-keyboard-response",540,402816,"0.0-3.176-1.176","vxusfx6v6b01xjd",939,"166.csv","","null","resources/maskTrios/BBA2.jpg","null","",NA,NA,NA,NA,""
"image-keyboard-response",541,404018,"0.0-3.176-2.176","vxusfx6v6b01xjd",939,"166.csv","","null","resources/images/fishbone.png","null","",NA,NA,NA,NA,""
"image-keyboard-response",542,404078,"0.0-3.177-0.177","vxusfx6v6b01xjd",939,"166.csv","","55","resources/trios/L2T2A2.jpg","39","restless",0.5,0.5,0.5,0.942741416311595,"false"
"image-keyboard-response",543,404481,"0.0-3.177-1.177","vxusfx6v6b01xjd",939,"166.csv","","null","resources/maskTrios/BBA2.jpg","null","",NA,NA,NA,NA,""
"image-keyboard-response",544,405683,"0.0-3.177-2.177","vxusfx6v6b01xjd",939,"166.csv","","null","resources/images/fishbone.png","null","",NA,NA,NA,NA,""
"image-keyboard-response",545,405737,"0.0-3.178-0.178","vxusfx6v6b01xjd",939,"166.csv","","51.99999999994179","resources/trios/L1T4A2.jpg","39","restless",0.5,0.5,0.5,0.297649983880053,"true"
"image-keyboard-response",546,406140,"0.0-3.178-1.178","vxusfx6v6b01xjd",939,"166.csv","","null","resources/maskTrios/BBA2.jpg","null","",NA,NA,NA,NA,""
"image-keyboard-response",547,407342,"0.0-3.178-2.178","vxusfx6v6b01xjd",939,"166.csv","","null","resources/images/coin2.png","null","",NA,NA,NA,NA,""
"image-keyboard-response",548,407350,"0.0-3.179-0.179","vxusfx6v6b01xjd",939,"166.csv","","6","resources/trios/L1T4A2.jpg","39","restless",0.5,0.5,0.5,0.318401065598232,"true"
"image-keyboard-response",549,407752,"0.0-3.179-1.179","vxusfx6v6b01xjd",939,"166.csv","","null","resources/maskTrios/BBA2.jpg","null","",NA,NA,NA,NA,""
"image-keyboard-response",550,408955,"0.0-3.179-2.179","vxusfx6v6b01xjd",939,"166.csv","","null","resources/images/coin2.png","null","",NA,NA,NA,NA,""
"image-keyboard-response",551,409109,"0.0-3.180-0.180","vxusfx6v6b01xjd",939,"166.csv","","153","resources/trios/L1T4A3.jpg","39","restless",0.5,0.5,0.5,0.811697989556436,"false"
"image-keyboard-response",552,409511,"0.0-3.180-1.180","vxusfx6v6b01xjd",939,"166.csv","","null","resources/maskTrios/BBA3.jpg","null","",NA,NA,NA,NA,""
"image-keyboard-response",553,410714,"0.0-3.180-2.180","vxusfx6v6b01xjd",939,"166.csv","","null","resources/images/fishbone.png","null","",NA,NA,NA,NA,""
"image-keyboard-response",554,410891,"0.0-3.181-0.181","vxusfx6v6b01xjd",939,"166.csv","","176","resources/trios/L1T4A3.jpg","39","restless",0.5,0.5,0.6,0.73337677454444,"false"
"image-keyboard-response",555,411293,"0.0-3.181-1.181","vxusfx6v6b01xjd",939,"166.csv","","null","resources/maskTrios/BBA3.jpg","null","",NA,NA,NA,NA,""
"image-keyboard-response",556,412494,"0.0-3.181-2.181","vxusfx6v6b01xjd",939,"166.csv","","null","resources/images/fishbone.png","null","",NA,NA,NA,NA,""
"image-keyboard-response",557,412600,"0.0-3.182-0.182","vxusfx6v6b01xjd",939,"166.csv","","104","resources/trios/L2T4A3.jpg","39","restless",0.5,0.5,0.6,0.790601157566294,"false"
"image-keyboard-response",558,413002,"0.0-3.182-1.182","vxusfx6v6b01xjd",939,"166.csv","","null","resources/maskTrios/BBA3.jpg","null","",NA,NA,NA,NA,""
"image-keyboard-response",559,414204,"0.0-3.182-2.182","vxusfx6v6b01xjd",939,"166.csv","","null","resources/images/fishbone.png","null","",NA,NA,NA,NA,""
"image-keyboard-response",560,414390,"0.0-3.183-0.183","vxusfx6v6b01xjd",939,"166.csv","","180","resources/trios/L2T4A2.jpg","39","restless",0.5,0.5,0.6,0.0235199409123912,"true"
"image-keyboard-response",561,414793,"0.0-3.183-1.183","vxusfx6v6b01xjd",939,"166.csv","","null","resources/maskTrios/BBA2.jpg","null","",NA,NA,NA,NA,""
"image-keyboard-response",562,415995,"0.0-3.183-2.183","vxusfx6v6b01xjd",939,"166.csv","","null","resources/images/coin2.png","null","",NA,NA,NA,NA,""
"image-keyboard-response",563,416123,"0.0-3.184-0.184","vxusfx6v6b01xjd",939,"166.csv","","126","resources/trios/L1T4A2.jpg","39","restless",0.5,0.5,0.6,0.937143068329931,"false"
"image-keyboard-response",564,416526,"0.0-3.184-1.184","vxusfx6v6b01xjd",939,"166.csv","","null","resources/maskTrios/BBA2.jpg","null","",NA,NA,NA,NA,""
"image-keyboard-response",565,417728,"0.0-3.184-2.184","vxusfx6v6b01xjd",939,"166.csv","","null","resources/images/fishbone.png","null","",NA,NA,NA,NA,""
"image-keyboard-response",566,418286,"0.0-3.185-0.185","vxusfx6v6b01xjd",939,"166.csv","","556.0000000000582","resources/trios/L2T4A2.jpg","39","restless",0.5,0.5,0.6,0.279846258227517,"true"
"image-keyboard-response",567,418689,"0.0-3.185-1.185","vxusfx6v6b01xjd",939,"166.csv","","null","resources/maskTrios/BBA2.jpg","null","",NA,NA,NA,NA,""
"image-keyboard-response",568,419892,"0.0-3.185-2.185","vxusfx6v6b01xjd",939,"166.csv","","null","resources/images/coin2.png","null","",NA,NA,NA,NA,""
"image-keyboard-response",569,419943,"0.0-3.186-0.186","vxusfx6v6b01xjd",939,"166.csv","","50","resources/trios/L1T4A3.jpg","39","restless",0.5,0.5,0.6,0.19150813850805,"true"
"image-keyboard-response",570,420346,"0.0-3.186-1.186","vxusfx6v6b01xjd",939,"166.csv","","null","resources/maskTrios/BBA3.jpg","null","",NA,NA,NA,NA,""
"image-keyboard-response",571,421548,"0.0-3.186-2.186","vxusfx6v6b01xjd",939,"166.csv","","null","resources/images/coin2.png","null","",NA,NA,NA,NA,""
"image-keyboard-response",572,421795,"0.0-3.187-0.187","vxusfx6v6b01xjd",939,"166.csv","","246","resources/trios/L2T4A2.jpg","39","restless",0.5,0.5,0.6,0.297826793767542,"true"
"image-keyboard-response",573,422198,"0.0-3.187-1.187","vxusfx6v6b01xjd",939,"166.csv","","null","resources/maskTrios/BBA2.jpg","null","",NA,NA,NA,NA,""
"image-keyboard-response",574,423400,"0.0-3.187-2.187","vxusfx6v6b01xjd",939,"166.csv","","null","resources/images/coin2.png","null","",NA,NA,NA,NA,""
"image-keyboard-response",575,423958,"0.0-3.188-0.188","vxusfx6v6b01xjd",939,"166.csv","","555","resources/trios/L1T4A2.jpg","39","restless",0.5,0.5,0.6,0.0480763488850716,"true"
"image-keyboard-response",576,424361,"0.0-3.188-1.188","vxusfx6v6b01xjd",939,"166.csv","","null","resources/maskTrios/BBA2.jpg","null","",NA,NA,NA,NA,""
"image-keyboard-response",577,425564,"0.0-3.188-2.188","vxusfx6v6b01xjd",939,"166.csv","","null","resources/images/coin2.png","null","",NA,NA,NA,NA,""
"image-keyboard-response",578,426870,"0.0-3.189-0.189","vxusfx6v6b01xjd",939,"166.csv","","1303.9999999999418","resources/trios/L1T4A2.jpg","39","restless",0.5,0.5,0.6,0.146959270847656,"true"
"image-keyboard-response",579,427272,"0.0-3.189-1.189","vxusfx6v6b01xjd",939,"166.csv","","null","resources/maskTrios/BBA2.jpg","null","",NA,NA,NA,NA,""
"image-keyboard-response",580,428474,"0.0-3.189-2.189","vxusfx6v6b01xjd",939,"166.csv","","null","resources/images/coin2.png","null","",NA,NA,NA,NA,""
"image-keyboard-response",581,428793,"0.0-3.190-0.190","vxusfx6v6b01xjd",939,"166.csv","","316.9999999999418","resources/trios/L1T2A2.jpg","39","restless",0.5,0.5,0.6,0.855286617011955,"false"
"image-keyboard-response",582,429195,"0.0-3.190-1.190","vxusfx6v6b01xjd",939,"166.csv","","null","resources/maskTrios/BBA2.jpg","null","",NA,NA,NA,NA,""
"image-keyboard-response",583,430396,"0.0-3.190-2.190","vxusfx6v6b01xjd",939,"166.csv","","null","resources/images/fishbone.png","null","",NA,NA,NA,NA,""
"image-keyboard-response",584,430724,"0.0-3.191-0.191","vxusfx6v6b01xjd",939,"166.csv","","323","resources/trios/L2T4A3.jpg","39","restless",0.5,0.5,0.6,0.248536356261938,"true"
"image-keyboard-response",585,431126,"0.0-3.191-1.191","vxusfx6v6b01xjd",939,"166.csv","","null","resources/maskTrios/BBA3.jpg","null","",NA,NA,NA,NA,""
"image-keyboard-response",586,432329,"0.0-3.191-2.191","vxusfx6v6b01xjd",939,"166.csv","","null","resources/images/coin2.png","null","",NA,NA,NA,NA,""
"image-keyboard-response",587,432601,"0.0-3.192-0.192","vxusfx6v6b01xjd",939,"166.csv","","270","resources/trios/L2T2A2.jpg","39","restless",0.5,0.5,0.6,0.609670945501023,"false"
"image-keyboard-response",588,433004,"0.0-3.192-1.192","vxusfx6v6b01xjd",939,"166.csv","","null","resources/maskTrios/BBA2.jpg","null","",NA,NA,NA,NA,""
"image-keyboard-response",589,434206,"0.0-3.192-2.192","vxusfx6v6b01xjd",939,"166.csv","","null","resources/images/fishbone.png","null","",NA,NA,NA,NA,""
"image-keyboard-response",590,434489,"0.0-3.193-0.193","vxusfx6v6b01xjd",939,"166.csv","","281.0000000000582","resources/trios/L1T4A2.jpg","39","restless",0.6,0.5,0.6,0.138847692266227,"true"
"image-keyboard-response",591,434892,"0.0-3.193-1.193","vxusfx6v6b01xjd",939,"166.csv","","null","resources/maskTrios/BBA2.jpg","null","",NA,NA,NA,NA,""
"image-keyboard-response",592,436094,"0.0-3.193-2.193","vxusfx6v6b01xjd",939,"166.csv","","null","resources/images/coin2.png","null","",NA,NA,NA,NA,""
"image-keyboard-response",593,436503,"0.0-3.194-0.194","vxusfx6v6b01xjd",939,"166.csv","","405.9999999999418","resources/trios/L2T4A3.jpg","39","restless",0.6,0.5,0.6,0.564469372136474,"true"
"image-keyboard-response",594,436906,"0.0-3.194-1.194","vxusfx6v6b01xjd",939,"166.csv","","null","resources/maskTrios/BBA3.jpg","null","",NA,NA,NA,NA,""
"image-keyboard-response",595,438108,"0.0-3.194-2.194","vxusfx6v6b01xjd",939,"166.csv","","null","resources/images/coin2.png","null","",NA,NA,NA,NA,""
"image-keyboard-response",596,438493,"0.0-3.195-0.195","vxusfx6v6b01xjd",939,"166.csv","","383","resources/trios/L2T2A3.jpg","39","restless",0.6,0.5,0.6,0.966674365402301,"false"
"image-keyboard-response",597,438896,"0.0-3.195-1.195","vxusfx6v6b01xjd",939,"166.csv","","null","resources/maskTrios/BBA3.jpg","null","",NA,NA,NA,NA,""
"image-keyboard-response",598,440100,"0.0-3.195-2.195","vxusfx6v6b01xjd",939,"166.csv","","null","resources/images/fishbone.png","null","",NA,NA,NA,NA,""
"image-keyboard-response",599,440586,"0.0-3.196-0.196","vxusfx6v6b01xjd",939,"166.csv","","483.9999999999418","resources/trios/L1T2A2.jpg","39","restless",0.6,0.5,0.6,0.227936966770092,"true"
"image-keyboard-response",600,440988,"0.0-3.196-1.196","vxusfx6v6b01xjd",939,"166.csv","","null","resources/maskTrios/BBA2.jpg","null","",NA,NA,NA,NA,""
"image-keyboard-response",601,442191,"0.0-3.196-2.196","vxusfx6v6b01xjd",939,"166.csv","","null","resources/images/coin2.png","null","",NA,NA,NA,NA,""
"image-keyboard-response",602,442572,"0.0-3.197-0.197","vxusfx6v6b01xjd",939,"166.csv","","380","resources/trios/L2T4A2.jpg","39","restless",0.6,0.5,0.6,0.621191169824913,"false"
"image-keyboard-response",603,442975,"0.0-3.197-1.197","vxusfx6v6b01xjd",939,"166.csv","","null","resources/maskTrios/BBA2.jpg","null","",NA,NA,NA,NA,""
"image-keyboard-response",604,444177,"0.0-3.197-2.197","vxusfx6v6b01xjd",939,"166.csv","","null","resources/images/fishbone.png","null","",NA,NA,NA,NA,""
"image-keyboard-response",605,444511,"0.0-3.198-0.198","vxusfx6v6b01xjd",939,"166.csv","","332","resources/trios/L1T2A2.jpg","39","restless",0.6,0.5,0.6,0.982650124628473,"false"
"image-keyboard-response",606,444914,"0.0-3.198-1.198","vxusfx6v6b01xjd",939,"166.csv","","null","resources/maskTrios/BBA2.jpg","null","",NA,NA,NA,NA,""
"image-keyboard-response",607,446116,"0.0-3.198-2.198","vxusfx6v6b01xjd",939,"166.csv","","null","resources/images/fishbone.png","null","",NA,NA,NA,NA,""
"image-keyboard-response",608,446674,"0.0-3.199-0.199","vxusfx6v6b01xjd",939,"166.csv","","556.0000000000582","resources/trios/L2T2A2.jpg","39","restless",0.6,0.5,0.6,0.439438628541805,"true"
"image-keyboard-response",609,447086,"0.0-3.199-1.199","vxusfx6v6b01xjd",939,"166.csv","","null","resources/maskTrios/BBA2.jpg","null","",NA,NA,NA,NA,""
"image-keyboard-response",610,448289,"0.0-3.199-2.199","vxusfx6v6b01xjd",939,"166.csv","","null","resources/images/coin2.png","null","",NA,NA,NA,NA,""
"image-keyboard-response",611,448929,"0.0-3.200-0.200","vxusfx6v6b01xjd",939,"166.csv","","638","resources/trios/L1T2A2.jpg","39","restless",0.6,0.5,0.6,0.868252088463107,"false"
"image-keyboard-response",612,449331,"0.0-3.200-1.200","vxusfx6v6b01xjd",939,"166.csv","","null","resources/maskTrios/BBA2.jpg","null","",NA,NA,NA,NA,""
"image-keyboard-response",613,450534,"0.0-3.200-2.200","vxusfx6v6b01xjd",939,"166.csv","","null","resources/images/fishbone.png","null","",NA,NA,NA,NA,""
"image-keyboard-response",614,450925,"0.0-3.201-0.201","vxusfx6v6b01xjd",939,"166.csv","","390","resources/trios/L1T4A3.jpg","39","restless",0.6,0.5,0.6,0.583813537242431,"true"
"image-keyboard-response",615,451327,"0.0-3.201-1.201","vxusfx6v6b01xjd",939,"166.csv","","null","resources/maskTrios/BBA3.jpg","null","",NA,NA,NA,NA,""
"image-keyboard-response",616,452530,"0.0-3.201-2.201","vxusfx6v6b01xjd",939,"166.csv","","null","resources/images/coin2.png","null","",NA,NA,NA,NA,""
"image-keyboard-response",617,453739,"0.0-3.202-0.202","vxusfx6v6b01xjd",939,"166.csv","","1207","resources/trios/L2T4A2.jpg","39","restless",0.6,0.5,0.6,0.918532384297656,"false"
