"trial_type","trial_index","time_elapsed","internal_node_id","subject","participantCode","walkNumber","success","rt","stimulus","key_press","test_part","leftProb","midProb","rightProb","generatedNum","correct"
"pavlovia",0,1069,"0.0-0.0","5j336ma2s8tzl6m",60,"192.csv","","","","","",NA,NA,NA,NA,""
"fullscreen",1,5342,"0.0-1.0","5j336ma2s8tzl6m",60,"192.csv","true","","","","",NA,NA,NA,NA,""
"html-keyboard-response",2,50567,"0.0-2.0-0.0","5j336ma2s8tzl6m",60,"192.csv","","45222.39999961853","<p><font size='6'>Arrrgh!</p></font><p>Can you be the best pirate? Try to find lots of gold! But beware, some islands have more gold than others, and over time, the island with the most gold may change. Can YOU figure it out? </p><font size='6'>GOOD LUCK, CAPTAIN!!!</font><p>Press any key to begin</p>","32","",NA,NA,NA,NA,""
"image-keyboard-response",3,53577,"0.0-2.0-1.0","5j336ma2s8tzl6m",60,"192.csv","","null","resources/image_sets/111.png","null","",NA,NA,NA,NA,""
"image-keyboard-response",4,58997,"0.0-2.0-2.0","5j336ma2s8tzl6m",60,"192.csv","","5418.400000572205","resources/image_sets/left_highlight.png","37","",NA,NA,NA,NA,""
"image-keyboard-response",5,62153,"0.0-2.0-3.0","5j336ma2s8tzl6m",60,"192.csv","","3155","resources/image_sets/mid_highlight.png","38","",NA,NA,NA,NA,""
"image-keyboard-response",6,63440,"0.0-2.0-4.0","5j336ma2s8tzl6m",60,"192.csv","","1286","resources/image_sets/right_highlight.png","39","",NA,NA,NA,NA,""
"image-keyboard-response",7,66262,"0.0-2.0-5.0","5j336ma2s8tzl6m",60,"192.csv","","2820.8999996185303","resources/image_sets/111.png","13","",NA,NA,NA,NA,""
"image-keyboard-response",8,75049,"0.0-2.0-6.0","5j336ma2s8tzl6m",60,"192.csv","","8785.699999809265","resources/images/coin2.png","13","",NA,NA,NA,NA,""
"image-keyboard-response",9,90562,"0.0-2.0-7.0","5j336ma2s8tzl6m",60,"192.csv","","15512.39999961853","resources/images/fishbone.png","13","",NA,NA,NA,NA,""
"html-keyboard-response",10,105883,"0.0-2.0-8.0","5j336ma2s8tzl6m",60,"192.csv","","15319.60000038147","<p>Your first journey will be a long one, but you will get a well deserved break at the end</p><p>After the break you will have four more journeys, but each will be much shorter than the first, and you will have breaks in between each</p><p>Press Enter to begin</p>","13","",NA,NA,NA,NA,""
"image-keyboard-response",11,116073,"0.0-3.0-0.0","5j336ma2s8tzl6m",60,"192.csv","","10188.5","resources/trios/L1T1A3.jpg","37","restless",0.9,0.7,0.3,0.0148245895578394,"true"
"image-keyboard-response",12,116490,"0.0-3.0-1.0","5j336ma2s8tzl6m",60,"192.csv","","null","resources/maskTrios/L1BB.jpg","null","",NA,NA,NA,NA,""
"image-keyboard-response",13,117703,"0.0-3.0-2.0","5j336ma2s8tzl6m",60,"192.csv","","null","resources/images/coin2.png","null","",NA,NA,NA,NA,""
"image-keyboard-response",14,121411,"0.0-3.1-0.1","5j336ma2s8tzl6m",60,"192.csv","","3717.7999992370605","resources/trios/L4T4A3.jpg","38","restless",0.8,0.7,0.3,0.981244853973812,"false"
"image-keyboard-response",15,121831,"0.0-3.1-1.1","5j336ma2s8tzl6m",60,"192.csv","","null","resources/maskTrios/BT4B.jpg","null","",NA,NA,NA,NA,""
"image-keyboard-response",16,123041,"0.0-3.1-2.1","5j336ma2s8tzl6m",60,"192.csv","","null","resources/images/fishbone.png","null","",NA,NA,NA,NA,""
"image-keyboard-response",17,125849,"0.0-3.2-0.2","5j336ma2s8tzl6m",60,"192.csv","","2806.6000003814697","resources/trios/L4T1A3.jpg","37","restless",0.8,0.7,0.3,0.518691617752872,"true"
"image-keyboard-response",18,126254,"0.0-3.2-1.2","5j336ma2s8tzl6m",60,"192.csv","","null","resources/maskTrios/L4BB.jpg","null","",NA,NA,NA,NA,""
"image-keyboard-response",19,127466,"0.0-3.2-2.2","5j336ma2s8tzl6m",60,"192.csv","","null","resources/images/coin2.png","null","",NA,NA,NA,NA,""
"image-keyboard-response",20,128906,"0.0-3.3-0.3","5j336ma2s8tzl6m",60,"192.csv","","1437.7000007629395","resources/trios/L1T4A3.jpg","37","restless",0.8,0.7,0.3,0.783927595689216,"true"
"image-keyboard-response",21,129320,"0.0-3.3-1.3","5j336ma2s8tzl6m",60,"192.csv","","null","resources/maskTrios/L1BB.jpg","null","",NA,NA,NA,NA,""
"image-keyboard-response",22,130531,"0.0-3.3-2.3","5j336ma2s8tzl6m",60,"192.csv","","null","resources/images/coin2.png","null","",NA,NA,NA,NA,""
"image-keyboard-response",23,132450,"0.0-3.4-0.4","5j336ma2s8tzl6m",60,"192.csv","","1918.1000003814697","resources/trios/L1T4A3.jpg","37","restless",0.8,0.7,0.2,0.310639929348153,"true"
"image-keyboard-response",24,132868,"0.0-3.4-1.4","5j336ma2s8tzl6m",60,"192.csv","","null","resources/maskTrios/L1BB.jpg","null","",NA,NA,NA,NA,""
"image-keyboard-response",25,134082,"0.0-3.4-2.4","5j336ma2s8tzl6m",60,"192.csv","","null","resources/images/coin2.png","null","",NA,NA,NA,NA,""
"image-keyboard-response",26,136118,"0.0-3.5-0.5","5j336ma2s8tzl6m",60,"192.csv","","2034.5","resources/trios/L4T1A3.jpg","37","restless",0.8,0.7,0.2,0.28647194634666,"true"
"image-keyboard-response",27,136533,"0.0-3.5-1.5","5j336ma2s8tzl6m",60,"192.csv","","null","resources/maskTrios/L4BB.jpg","null","",NA,NA,NA,NA,""
"image-keyboard-response",28,137743,"0.0-3.5-2.5","5j336ma2s8tzl6m",60,"192.csv","","null","resources/images/coin2.png","null","",NA,NA,NA,NA,""
"image-keyboard-response",29,138673,"0.0-3.6-0.6","5j336ma2s8tzl6m",60,"192.csv","","928","resources/trios/L1T1A3.jpg","37","restless",0.8,0.7,0.2,0.758280255166133,"true"
"image-keyboard-response",30,139091,"0.0-3.6-1.6","5j336ma2s8tzl6m",60,"192.csv","","null","resources/maskTrios/L1BB.jpg","null","",NA,NA,NA,NA,""
"image-keyboard-response",31,140302,"0.0-3.6-2.6","5j336ma2s8tzl6m",60,"192.csv","","null","resources/images/coin2.png","null","",NA,NA,NA,NA,""
"image-keyboard-response",32,141333,"0.0-3.7-0.7","5j336ma2s8tzl6m",60,"192.csv","","1029.5","resources/trios/L4T1A2.jpg","37","restless",0.8,0.7,0.2,0.353720599808517,"true"
"image-keyboard-response",33,141750,"0.0-3.7-1.7","5j336ma2s8tzl6m",60,"192.csv","","null","resources/maskTrios/L4BB.jpg","null","",NA,NA,NA,NA,""
"image-keyboard-response",34,142962,"0.0-3.7-2.7","5j336ma2s8tzl6m",60,"192.csv","","null","resources/images/coin2.png","null","",NA,NA,NA,NA,""
"image-keyboard-response",35,143752,"0.0-3.8-0.8","5j336ma2s8tzl6m",60,"192.csv","","789.5","resources/trios/L1T4A3.jpg","37","restless",0.8,0.7,0.2,0.434669158686056,"true"
"image-keyboard-response",36,144159,"0.0-3.8-1.8","5j336ma2s8tzl6m",60,"192.csv","","null","resources/maskTrios/L1BB.jpg","null","",NA,NA,NA,NA,""
"image-keyboard-response",37,145371,"0.0-3.8-2.8","5j336ma2s8tzl6m",60,"192.csv","","null","resources/images/coin2.png","null","",NA,NA,NA,NA,""
"image-keyboard-response",38,146245,"0.0-3.9-0.9","5j336ma2s8tzl6m",60,"192.csv","","871.6000003814697","resources/trios/L4T4A2.jpg","37","restless",0.8,0.6,0.2,0.895219354148986,"false"
"image-keyboard-response",39,146657,"0.0-3.9-1.9","5j336ma2s8tzl6m",60,"192.csv","","null","resources/maskTrios/L4BB.jpg","null","",NA,NA,NA,NA,""
"image-keyboard-response",40,147873,"0.0-3.9-2.9","5j336ma2s8tzl6m",60,"192.csv","","null","resources/images/fishbone.png","null","",NA,NA,NA,NA,""
"image-keyboard-response",41,149688,"0.0-3.10-0.10","5j336ma2s8tzl6m",60,"192.csv","","1814","resources/trios/L1T1A2.jpg","37","restless",0.8,0.6,0.2,0.0807250142561704,"true"
"image-keyboard-response",42,150096,"0.0-3.10-1.10","5j336ma2s8tzl6m",60,"192.csv","","null","resources/maskTrios/L1BB.jpg","null","",NA,NA,NA,NA,""
"image-keyboard-response",43,151310,"0.0-3.10-2.10","5j336ma2s8tzl6m",60,"192.csv","","null","resources/images/coin2.png","null","",NA,NA,NA,NA,""
"image-keyboard-response",44,152523,"0.0-3.11-0.11","5j336ma2s8tzl6m",60,"192.csv","","1211.6999998092651","resources/trios/L1T4A2.jpg","37","restless",0.8,0.6,0.2,0.761823054966594,"true"
"image-keyboard-response",45,152947,"0.0-3.11-1.11","5j336ma2s8tzl6m",60,"192.csv","","null","resources/maskTrios/L1BB.jpg","null","",NA,NA,NA,NA,""
"image-keyboard-response",46,154164,"0.0-3.11-2.11","5j336ma2s8tzl6m",60,"192.csv","","null","resources/images/coin2.png","null","",NA,NA,NA,NA,""
"image-keyboard-response",47,155246,"0.0-3.12-0.12","5j336ma2s8tzl6m",60,"192.csv","","1079.6999998092651","resources/trios/L1T4A2.jpg","37","restless",0.7,0.6,0.2,0.590294296174912,"true"
"image-keyboard-response",48,155661,"0.0-3.12-1.12","5j336ma2s8tzl6m",60,"192.csv","","null","resources/maskTrios/L1BB.jpg","null","",NA,NA,NA,NA,""
"image-keyboard-response",49,156871,"0.0-3.12-2.12","5j336ma2s8tzl6m",60,"192.csv","","null","resources/images/coin2.png","null","",NA,NA,NA,NA,""
"image-keyboard-response",50,157906,"0.0-3.13-0.13","5j336ma2s8tzl6m",60,"192.csv","","1032.5999994277954","resources/trios/L1T4A2.jpg","37","restless",0.6,0.6,0.2,0.432446933739572,"true"
"image-keyboard-response",51,158314,"0.0-3.13-1.13","5j336ma2s8tzl6m",60,"192.csv","","null","resources/maskTrios/L1BB.jpg","null","",NA,NA,NA,NA,""
"image-keyboard-response",52,159531,"0.0-3.13-2.13","5j336ma2s8tzl6m",60,"192.csv","","null","resources/images/coin2.png","null","",NA,NA,NA,NA,""
"image-keyboard-response",53,160960,"0.0-3.14-0.14","5j336ma2s8tzl6m",60,"192.csv","","1426.8999996185303","resources/trios/L4T4A3.jpg","38","restless",0.6,0.6,0.2,0.372247544179955,"true"
"image-keyboard-response",54,161377,"0.0-3.14-1.14","5j336ma2s8tzl6m",60,"192.csv","","null","resources/maskTrios/BT4B.jpg","null","",NA,NA,NA,NA,""
"image-keyboard-response",55,162582,"0.0-3.14-2.14","5j336ma2s8tzl6m",60,"192.csv","","null","resources/images/coin2.png","null","",NA,NA,NA,NA,""
"image-keyboard-response",56,165160,"0.0-3.15-0.15","5j336ma2s8tzl6m",60,"192.csv","","2576.7999992370605","resources/trios/L4T1A3.jpg","39","restless",0.6,0.5,0.2,0.352063396464448,"false"
"image-keyboard-response",57,165577,"0.0-3.15-1.15","5j336ma2s8tzl6m",60,"192.csv","","null","resources/maskTrios/BBA3.jpg","null","",NA,NA,NA,NA,""
"image-keyboard-response",58,166790,"0.0-3.15-2.15","5j336ma2s8tzl6m",60,"192.csv","","null","resources/images/fishbone.png","null","",NA,NA,NA,NA,""
"image-keyboard-response",59,168682,"0.0-3.16-0.16","5j336ma2s8tzl6m",60,"192.csv","","1889.6999998092651","resources/trios/L1T1A2.jpg","37","restless",0.7,0.5,0.2,0.26820701223126,"true"
"image-keyboard-response",60,169092,"0.0-3.16-1.16","5j336ma2s8tzl6m",60,"192.csv","","null","resources/maskTrios/L1BB.jpg","null","",NA,NA,NA,NA,""
"image-keyboard-response",61,170306,"0.0-3.16-2.16","5j336ma2s8tzl6m",60,"192.csv","","null","resources/images/coin2.png","null","",NA,NA,NA,NA,""
"image-keyboard-response",62,171720,"0.0-3.17-0.17","5j336ma2s8tzl6m",60,"192.csv","","1412.3999996185303","resources/trios/L1T4A2.jpg","37","restless",0.7,0.5,0.2,0.140765708216934,"true"
"image-keyboard-response",63,172141,"0.0-3.17-1.17","5j336ma2s8tzl6m",60,"192.csv","","null","resources/maskTrios/L1BB.jpg","null","",NA,NA,NA,NA,""
"image-keyboard-response",64,173352,"0.0-3.17-2.17","5j336ma2s8tzl6m",60,"192.csv","","null","resources/images/coin2.png","null","",NA,NA,NA,NA,""
"image-keyboard-response",65,175014,"0.0-3.18-0.18","5j336ma2s8tzl6m",60,"192.csv","","1659.8999996185303","resources/trios/L1T1A3.jpg","37","restless",0.7,0.5,0.2,0.860151484675437,"false"
"image-keyboard-response",66,175424,"0.0-3.18-1.18","5j336ma2s8tzl6m",60,"192.csv","","null","resources/maskTrios/L1BB.jpg","null","",NA,NA,NA,NA,""
"image-keyboard-response",67,176644,"0.0-3.18-2.18","5j336ma2s8tzl6m",60,"192.csv","","null","resources/images/fishbone.png","null","",NA,NA,NA,NA,""
"image-keyboard-response",68,178445,"0.0-3.19-0.19","5j336ma2s8tzl6m",60,"192.csv","","1799.9000005722046","resources/trios/L4T1A3.jpg","38","restless",0.7,0.5,0.2,0.0975356127074833,"true"
"image-keyboard-response",69,178856,"0.0-3.19-1.19","5j336ma2s8tzl6m",60,"192.csv","","null","resources/maskTrios/BT1B.jpg","null","",NA,NA,NA,NA,""
"image-keyboard-response",70,180068,"0.0-3.19-2.19","5j336ma2s8tzl6m",60,"192.csv","","null","resources/images/coin2.png","null","",NA,NA,NA,NA,""
"image-keyboard-response",71,181274,"0.0-3.20-0.20","5j336ma2s8tzl6m",60,"192.csv","","1204","resources/trios/L1T1A2.jpg","37","restless",0.7,0.5,0.2,0.587308449818225,"true"
"image-keyboard-response",72,181696,"0.0-3.20-1.20","5j336ma2s8tzl6m",60,"192.csv","","null","resources/maskTrios/L1BB.jpg","null","",NA,NA,NA,NA,""
"image-keyboard-response",73,182916,"0.0-3.20-2.20","5j336ma2s8tzl6m",60,"192.csv","","null","resources/images/coin2.png","null","",NA,NA,NA,NA,""
"image-keyboard-response",74,184152,"0.0-3.21-0.21","5j336ma2s8tzl6m",60,"192.csv","","1234.5","resources/trios/L1T1A3.jpg","37","restless",0.7,0.5,0.2,0.790198331660556,"false"
"image-keyboard-response",75,184570,"0.0-3.21-1.21","5j336ma2s8tzl6m",60,"192.csv","","null","resources/maskTrios/L1BB.jpg","null","",NA,NA,NA,NA,""
"image-keyboard-response",76,185792,"0.0-3.21-2.21","5j336ma2s8tzl6m",60,"192.csv","","null","resources/images/fishbone.png","null","",NA,NA,NA,NA,""
"image-keyboard-response",77,187693,"0.0-3.22-0.22","5j336ma2s8tzl6m",60,"192.csv","","1899.5","resources/trios/L1T4A3.jpg","38","restless",0.7,0.5,0.2,0.958180209842437,"false"
"image-keyboard-response",78,188103,"0.0-3.22-1.22","5j336ma2s8tzl6m",60,"192.csv","","null","resources/maskTrios/BT4B.jpg","null","",NA,NA,NA,NA,""
"image-keyboard-response",79,189310,"0.0-3.22-2.22","5j336ma2s8tzl6m",60,"192.csv","","null","resources/images/fishbone.png","null","",NA,NA,NA,NA,""
"image-keyboard-response",80,189640,"0.0-3.23-0.23","5j336ma2s8tzl6m",60,"192.csv","","328.1000003814697","resources/trios/L4T4A3.jpg","39","restless",0.7,0.5,0.2,0.0409223369858558,"true"
"image-keyboard-response",81,190058,"0.0-3.23-1.23","5j336ma2s8tzl6m",60,"192.csv","","null","resources/maskTrios/BBA3.jpg","null","",NA,NA,NA,NA,""
"image-keyboard-response",82,191279,"0.0-3.23-2.23","5j336ma2s8tzl6m",60,"192.csv","","null","resources/images/coin2.png","null","",NA,NA,NA,NA,""
"image-keyboard-response",83,192657,"0.0-3.24-0.24","5j336ma2s8tzl6m",60,"192.csv","","1376","resources/trios/L4T4A3.jpg","38","restless",0.7,0.5,0.2,0.105766124415178,"true"
"image-keyboard-response",84,193066,"0.0-3.24-1.24","5j336ma2s8tzl6m",60,"192.csv","","null","resources/maskTrios/BT4B.jpg","null","",NA,NA,NA,NA,""
"image-keyboard-response",85,194278,"0.0-3.24-2.24","5j336ma2s8tzl6m",60,"192.csv","","null","resources/images/coin2.png","null","",NA,NA,NA,NA,""
"image-keyboard-response",86,195540,"0.0-3.25-0.25","5j336ma2s8tzl6m",60,"192.csv","","1259.8000001907349","resources/trios/L1T1A2.jpg","37","restless",0.6,0.5,0.2,0.400742898990053,"true"
"image-keyboard-response",87,195957,"0.0-3.25-1.25","5j336ma2s8tzl6m",60,"192.csv","","null","resources/maskTrios/L1BB.jpg","null","",NA,NA,NA,NA,""
"image-keyboard-response",88,197170,"0.0-3.25-2.25","5j336ma2s8tzl6m",60,"192.csv","","null","resources/images/coin2.png","null","",NA,NA,NA,NA,""
"image-keyboard-response",89,199082,"0.0-3.26-0.26","5j336ma2s8tzl6m",60,"192.csv","","1910.3000001907349","resources/trios/L4T4A2.jpg","38","restless",0.7,0.5,0.2,0.374705255725041,"true"
"image-keyboard-response",90,199492,"0.0-3.26-1.26","5j336ma2s8tzl6m",60,"192.csv","","null","resources/maskTrios/BT4B.jpg","null","",NA,NA,NA,NA,""
"image-keyboard-response",91,200705,"0.0-3.26-2.26","5j336ma2s8tzl6m",60,"192.csv","","null","resources/images/coin2.png","null","",NA,NA,NA,NA,""
"image-keyboard-response",92,202391,"0.0-3.27-0.27","5j336ma2s8tzl6m",60,"192.csv","","1684.1000003814697","resources/trios/L1T4A3.jpg","39","restless",0.7,0.5,0.2,0.779353094166487,"false"
"image-keyboard-response",93,202811,"0.0-3.27-1.27","5j336ma2s8tzl6m",60,"192.csv","","null","resources/maskTrios/BBA3.jpg","null","",NA,NA,NA,NA,""
"image-keyboard-response",94,204026,"0.0-3.27-2.27","5j336ma2s8tzl6m",60,"192.csv","","null","resources/images/fishbone.png","null","",NA,NA,NA,NA,""
"image-keyboard-response",95,204653,"0.0-3.28-0.28","5j336ma2s8tzl6m",60,"192.csv","","625.7999992370605","resources/trios/L1T1A3.jpg","37","restless",0.7,0.5,0.2,0.0416752774277143,"true"
"image-keyboard-response",96,205062,"0.0-3.28-1.28","5j336ma2s8tzl6m",60,"192.csv","","null","resources/maskTrios/L1BB.jpg","null","",NA,NA,NA,NA,""
"image-keyboard-response",97,206276,"0.0-3.28-2.28","5j336ma2s8tzl6m",60,"192.csv","","null","resources/images/coin2.png","null","",NA,NA,NA,NA,""
"image-keyboard-response",98,209542,"0.0-3.29-0.29","5j336ma2s8tzl6m",60,"192.csv","","3264.699999809265","resources/trios/L1T4A2.jpg","37","restless",0.7,0.5,0.2,0.591185172303285,"true"
"image-keyboard-response",99,209946,"0.0-3.29-1.29","5j336ma2s8tzl6m",60,"192.csv","","null","resources/maskTrios/L1BB.jpg","null","",NA,NA,NA,NA,""
"image-keyboard-response",100,211167,"0.0-3.29-2.29","5j336ma2s8tzl6m",60,"192.csv","","null","resources/images/coin2.png","null","",NA,NA,NA,NA,""
"image-keyboard-response",101,213905,"0.0-3.30-0.30","5j336ma2s8tzl6m",60,"192.csv","","2735.9000005722046","resources/trios/L4T4A2.jpg","39","restless",0.6,0.5,0.2,0.561945758336566,"false"
"image-keyboard-response",102,214327,"0.0-3.30-1.30","5j336ma2s8tzl6m",60,"192.csv","","null","resources/maskTrios/BBA2.jpg","null","",NA,NA,NA,NA,""
"image-keyboard-response",103,215533,"0.0-3.30-2.30","5j336ma2s8tzl6m",60,"192.csv","","null","resources/images/fishbone.png","null","",NA,NA,NA,NA,""
"image-keyboard-response",104,217307,"0.0-3.31-0.31","5j336ma2s8tzl6m",60,"192.csv","","1772.5999994277954","resources/trios/L4T1A2.jpg","38","restless",0.5,0.5,0.3,0.456334356171364,"true"
"image-keyboard-response",105,217719,"0.0-3.31-1.31","5j336ma2s8tzl6m",60,"192.csv","","null","resources/maskTrios/BT1B.jpg","null","",NA,NA,NA,NA,""
"image-keyboard-response",106,218930,"0.0-3.31-2.31","5j336ma2s8tzl6m",60,"192.csv","","null","resources/images/coin2.png","null","",NA,NA,NA,NA,""
"image-keyboard-response",107,221481,"0.0-3.32-0.32","5j336ma2s8tzl6m",60,"192.csv","","2549.300000190735","resources/trios/L1T1A2.jpg","37","restless",0.5,0.4,0.3,0.549470734126636,"false"
"image-keyboard-response",108,221899,"0.0-3.32-1.32","5j336ma2s8tzl6m",60,"192.csv","","null","resources/maskTrios/L1BB.jpg","null","",NA,NA,NA,NA,""
"image-keyboard-response",109,223111,"0.0-3.32-2.32","5j336ma2s8tzl6m",60,"192.csv","","null","resources/images/fishbone.png","null","",NA,NA,NA,NA,""
"image-keyboard-response",110,223468,"0.0-3.33-0.33","5j336ma2s8tzl6m",60,"192.csv","","354.6000003814697","resources/trios/L1T4A2.jpg","38","restless",0.5,0.4,0.3,0.818062117783715,"false"
"image-keyboard-response",111,223881,"0.0-3.33-1.33","5j336ma2s8tzl6m",60,"192.csv","","null","resources/maskTrios/BT4B.jpg","null","",NA,NA,NA,NA,""
"image-keyboard-response",112,225098,"0.0-3.33-2.33","5j336ma2s8tzl6m",60,"192.csv","","null","resources/images/fishbone.png","null","",NA,NA,NA,NA,""
"image-keyboard-response",113,226490,"0.0-3.34-0.34","5j336ma2s8tzl6m",60,"192.csv","","1390.3999996185303","resources/trios/L1T1A2.jpg","37","restless",0.4,0.4,0.3,0.3253493223207,"true"
"image-keyboard-response",114,226906,"0.0-3.34-1.34","5j336ma2s8tzl6m",60,"192.csv","","null","resources/maskTrios/L1BB.jpg","null","",NA,NA,NA,NA,""
"image-keyboard-response",115,228116,"0.0-3.34-2.34","5j336ma2s8tzl6m",60,"192.csv","","null","resources/images/coin2.png","null","",NA,NA,NA,NA,""
"image-keyboard-response",116,233548,"0.0-3.35-0.35","5j336ma2s8tzl6m",60,"192.csv","","5430","resources/trios/L1T1A2.jpg","37","restless",0.4,0.4,0.3,0.0138107750635332,"true"
"image-keyboard-response",117,233957,"0.0-3.35-1.35","5j336ma2s8tzl6m",60,"192.csv","","null","resources/maskTrios/L1BB.jpg","null","",NA,NA,NA,NA,""
"image-keyboard-response",118,235163,"0.0-3.35-2.35","5j336ma2s8tzl6m",60,"192.csv","","null","resources/images/coin2.png","null","",NA,NA,NA,NA,""
"image-keyboard-response",119,242310,"0.0-3.36-0.36","5j336ma2s8tzl6m",60,"192.csv","","7145.800000190735","resources/trios/L1T1A2.jpg","38","restless",0.4,0.4,0.3,0.0522143199865122,"true"
"image-keyboard-response",120,242719,"0.0-3.36-1.36","5j336ma2s8tzl6m",60,"192.csv","","null","resources/maskTrios/BT1B.jpg","null","",NA,NA,NA,NA,""
"image-keyboard-response",121,243934,"0.0-3.36-2.36","5j336ma2s8tzl6m",60,"192.csv","","null","resources/images/coin2.png","null","",NA,NA,NA,NA,""
"image-keyboard-response",122,245801,"0.0-3.37-0.37","5j336ma2s8tzl6m",60,"192.csv","","1865.8000001907349","resources/trios/L4T4A2.jpg","39","restless",0.4,0.4,0.2,0.716960921644152,"false"
"image-keyboard-response",123,246210,"0.0-3.37-1.37","5j336ma2s8tzl6m",60,"192.csv","","null","resources/maskTrios/BBA2.jpg","null","",NA,NA,NA,NA,""
"image-keyboard-response",124,247430,"0.0-3.37-2.37","5j336ma2s8tzl6m",60,"192.csv","","null","resources/images/fishbone.png","null","",NA,NA,NA,NA,""
"image-keyboard-response",125,249508,"0.0-3.38-0.38","5j336ma2s8tzl6m",60,"192.csv","","2076.199999809265","resources/trios/L1T1A2.jpg","38","restless",0.4,0.4,0.2,0.777736674203597,"false"
"image-keyboard-response",126,249923,"0.0-3.38-1.38","5j336ma2s8tzl6m",60,"192.csv","","null","resources/maskTrios/BT1B.jpg","null","",NA,NA,NA,NA,""
"image-keyboard-response",127,251138,"0.0-3.38-2.38","5j336ma2s8tzl6m",60,"192.csv","","null","resources/images/fishbone.png","null","",NA,NA,NA,NA,""
"image-keyboard-response",128,252199,"0.0-3.39-0.39","5j336ma2s8tzl6m",60,"192.csv","","1059.4000005722046","resources/trios/L1T1A3.jpg","37","restless",0.4,0.4,0.2,0.189707718827683,"true"
"image-keyboard-response",129,252616,"0.0-3.39-1.39","5j336ma2s8tzl6m",60,"192.csv","","null","resources/maskTrios/L1BB.jpg","null","",NA,NA,NA,NA,""
"image-keyboard-response",130,253837,"0.0-3.39-2.39","5j336ma2s8tzl6m",60,"192.csv","","null","resources/images/coin2.png","null","",NA,NA,NA,NA,""
"image-keyboard-response",131,259448,"0.0-3.40-0.40","5j336ma2s8tzl6m",60,"192.csv","","5608.799999237061","resources/trios/L1T1A3.jpg","39","restless",0.4,0.4,0.2,0.83798869869482,"false"
"image-keyboard-response",132,259860,"0.0-3.40-1.40","5j336ma2s8tzl6m",60,"192.csv","","null","resources/maskTrios/BBA3.jpg","null","",NA,NA,NA,NA,""
"image-keyboard-response",133,261069,"0.0-3.40-2.40","5j336ma2s8tzl6m",60,"192.csv","","null","resources/images/fishbone.png","null","",NA,NA,NA,NA,""
"image-keyboard-response",134,262186,"0.0-3.41-0.41","5j336ma2s8tzl6m",60,"192.csv","","1115.3000001907349","resources/trios/L1T1A3.jpg","37","restless",0.4,0.4,0.2,0.363614653719412,"true"
"image-keyboard-response",135,262595,"0.0-3.41-1.41","5j336ma2s8tzl6m",60,"192.csv","","null","resources/maskTrios/L1BB.jpg","null","",NA,NA,NA,NA,""
"image-keyboard-response",136,263815,"0.0-3.41-2.41","5j336ma2s8tzl6m",60,"192.csv","","null","resources/images/coin2.png","null","",NA,NA,NA,NA,""
"image-keyboard-response",137,265209,"0.0-3.42-0.42","5j336ma2s8tzl6m",60,"192.csv","","1392.5","resources/trios/L1T1A2.jpg","37","restless",0.4,0.4,0.2,0.605861977361123,"false"
"image-keyboard-response",138,265626,"0.0-3.42-1.42","5j336ma2s8tzl6m",60,"192.csv","","null","resources/maskTrios/L1BB.jpg","null","",NA,NA,NA,NA,""
"image-keyboard-response",139,266839,"0.0-3.42-2.42","5j336ma2s8tzl6m",60,"192.csv","","null","resources/images/fishbone.png","null","",NA,NA,NA,NA,""
"image-keyboard-response",140,268524,"0.0-3.43-0.43","5j336ma2s8tzl6m",60,"192.csv","","1682.6000003814697","resources/trios/L4T4A2.jpg","38","restless",0.4,0.4,0.2,0.763060317083409,"false"
"image-keyboard-response",141,268935,"0.0-3.43-1.43","5j336ma2s8tzl6m",60,"192.csv","","null","resources/maskTrios/BT4B.jpg","null","",NA,NA,NA,NA,""
"image-keyboard-response",142,270147,"0.0-3.43-2.43","5j336ma2s8tzl6m",60,"192.csv","","null","resources/images/fishbone.png","null","",NA,NA,NA,NA,""
"image-keyboard-response",143,271159,"0.0-3.44-0.44","5j336ma2s8tzl6m",60,"192.csv","","1010.3000001907349","resources/trios/L4T4A3.jpg","39","restless",0.4,0.4,0.1,0.794880578757207,"false"
"image-keyboard-response",144,271569,"0.0-3.44-1.44","5j336ma2s8tzl6m",60,"192.csv","","null","resources/maskTrios/BBA3.jpg","null","",NA,NA,NA,NA,""
"image-keyboard-response",145,272780,"0.0-3.44-2.44","5j336ma2s8tzl6m",60,"192.csv","","null","resources/images/fishbone.png","null","",NA,NA,NA,NA,""
"image-keyboard-response",146,273359,"0.0-3.45-0.45","5j336ma2s8tzl6m",60,"192.csv","","577.3000001907349","resources/trios/L4T4A3.jpg","37","restless",0.4,0.4,0.2,0.274021041941572,"true"
"image-keyboard-response",147,273769,"0.0-3.45-1.45","5j336ma2s8tzl6m",60,"192.csv","","null","resources/maskTrios/L4BB.jpg","null","",NA,NA,NA,NA,""
"image-keyboard-response",148,274988,"0.0-3.45-2.45","5j336ma2s8tzl6m",60,"192.csv","","null","resources/images/coin2.png","null","",NA,NA,NA,NA,""
"image-keyboard-response",149,276657,"0.0-3.46-0.46","5j336ma2s8tzl6m",60,"192.csv","","1667.8999996185303","resources/trios/L4T4A3.jpg","37","restless",0.4,0.4,0.2,0.546424900773832,"false"
"image-keyboard-response",150,277066,"0.0-3.46-1.46","5j336ma2s8tzl6m",60,"192.csv","","null","resources/maskTrios/L4BB.jpg","null","",NA,NA,NA,NA,""
"image-keyboard-response",151,278276,"0.0-3.46-2.46","5j336ma2s8tzl6m",60,"192.csv","","null","resources/images/fishbone.png","null","",NA,NA,NA,NA,""
"image-keyboard-response",152,279405,"0.0-3.47-0.47","5j336ma2s8tzl6m",60,"192.csv","","1127.1000003814697","resources/trios/L4T1A2.jpg","38","restless",0.3,0.4,0.2,0.886363216021745,"false"
"image-keyboard-response",153,279818,"0.0-3.47-1.47","5j336ma2s8tzl6m",60,"192.csv","","null","resources/maskTrios/BT1B.jpg","null","",NA,NA,NA,NA,""
"image-keyboard-response",154,281032,"0.0-3.47-2.47","5j336ma2s8tzl6m",60,"192.csv","","null","resources/images/fishbone.png","null","",NA,NA,NA,NA,""
"image-keyboard-response",155,281616,"0.0-3.48-0.48","5j336ma2s8tzl6m",60,"192.csv","","582","resources/trios/L1T4A2.jpg","39","restless",0.3,0.5,0.2,0.280962887700086,"false"
"image-keyboard-response",156,282030,"0.0-3.48-1.48","5j336ma2s8tzl6m",60,"192.csv","","null","resources/maskTrios/BBA2.jpg","null","",NA,NA,NA,NA,""
"image-keyboard-response",157,283244,"0.0-3.48-2.48","5j336ma2s8tzl6m",60,"192.csv","","null","resources/images/fishbone.png","null","",NA,NA,NA,NA,""
"image-keyboard-response",158,284548,"0.0-3.49-0.49","5j336ma2s8tzl6m",60,"192.csv","","1302.7999992370605","resources/trios/L4T4A3.jpg","39","restless",0.2,0.5,0.2,0.719875987907745,"false"
"image-keyboard-response",159,284963,"0.0-3.49-1.49","5j336ma2s8tzl6m",60,"192.csv","","null","resources/maskTrios/BBA3.jpg","null","",NA,NA,NA,NA,""
"image-keyboard-response",160,286176,"0.0-3.49-2.49","5j336ma2s8tzl6m",60,"192.csv","","null","resources/images/fishbone.png","null","",NA,NA,NA,NA,""
"image-keyboard-response",161,287031,"0.0-3.50-0.50","5j336ma2s8tzl6m",60,"192.csv","","853.3999996185303","resources/trios/L4T4A2.jpg","37","restless",0.2,0.5,0.2,0.466563041679875,"false"
"image-keyboard-response",162,287451,"0.0-3.50-1.50","5j336ma2s8tzl6m",60,"192.csv","","null","resources/maskTrios/L4BB.jpg","null","",NA,NA,NA,NA,""
"image-keyboard-response",163,288664,"0.0-3.50-2.50","5j336ma2s8tzl6m",60,"192.csv","","null","resources/images/fishbone.png","null","",NA,NA,NA,NA,""
"image-keyboard-response",164,289866,"0.0-3.51-0.51","5j336ma2s8tzl6m",60,"192.csv","","1201","resources/trios/L1T4A3.jpg","38","restless",0.2,0.5,0.2,0.346169728813048,"true"
"image-keyboard-response",165,290279,"0.0-3.51-1.51","5j336ma2s8tzl6m",60,"192.csv","","null","resources/maskTrios/BT4B.jpg","null","",NA,NA,NA,NA,""
"image-keyboard-response",166,291493,"0.0-3.51-2.51","5j336ma2s8tzl6m",60,"192.csv","","null","resources/images/coin2.png","null","",NA,NA,NA,NA,""
"image-keyboard-response",167,293134,"0.0-3.52-0.52","5j336ma2s8tzl6m",60,"192.csv","","1639.7000007629395","resources/trios/L1T4A3.jpg","37","restless",0.2,0.5,0.2,0.698649247819289,"false"
"image-keyboard-response",168,293550,"0.0-3.52-1.52","5j336ma2s8tzl6m",60,"192.csv","","null","resources/maskTrios/L1BB.jpg","null","",NA,NA,NA,NA,""
"image-keyboard-response",169,294756,"0.0-3.52-2.52","5j336ma2s8tzl6m",60,"192.csv","","null","resources/images/fishbone.png","null","",NA,NA,NA,NA,""
"image-keyboard-response",170,296515,"0.0-3.53-0.53","5j336ma2s8tzl6m",60,"192.csv","","1757.5","resources/trios/L4T1A3.jpg","38","restless",0.2,0.5,0.2,0.043950963724094,"true"
"image-keyboard-response",171,296932,"0.0-3.53-1.53","5j336ma2s8tzl6m",60,"192.csv","","null","resources/maskTrios/BT1B.jpg","null","",NA,NA,NA,NA,""
"image-keyboard-response",172,298148,"0.0-3.53-2.53","5j336ma2s8tzl6m",60,"192.csv","","null","resources/images/coin2.png","null","",NA,NA,NA,NA,""
"image-keyboard-response",173,302449,"0.0-3.54-0.54","5j336ma2s8tzl6m",60,"192.csv","","4309.10000038147","resources/trios/L1T4A2.jpg","37","restless",0.2,0.5,0.2,0.670386027649016,"false"
"image-keyboard-response",174,302865,"0.0-3.54-1.54","5j336ma2s8tzl6m",60,"192.csv","","null","resources/maskTrios/L1BB.jpg","null","",NA,NA,NA,NA,""
"image-keyboard-response",175,304082,"0.0-3.54-2.54","5j336ma2s8tzl6m",60,"192.csv","","null","resources/images/fishbone.png","null","",NA,NA,NA,NA,""
"image-keyboard-response",176,308098,"0.0-3.55-0.55","5j336ma2s8tzl6m",60,"192.csv","","4014.8999996185303","resources/trios/L1T1A2.jpg","38","restless",0.2,0.5,0.2,0.566398173904221,"false"
"image-keyboard-response",177,308512,"0.0-3.55-1.55","5j336ma2s8tzl6m",60,"192.csv","","null","resources/maskTrios/BT1B.jpg","null","",NA,NA,NA,NA,""
"image-keyboard-response",178,309725,"0.0-3.55-2.55","5j336ma2s8tzl6m",60,"192.csv","","null","resources/images/fishbone.png","null","",NA,NA,NA,NA,""
"image-keyboard-response",179,311861,"0.0-3.56-0.56","5j336ma2s8tzl6m",60,"192.csv","","2134.8999996185303","resources/trios/L1T1A2.jpg","37","restless",0.2,0.5,0.2,0.52684955984787,"false"
"image-keyboard-response",180,312278,"0.0-3.56-1.56","5j336ma2s8tzl6m",60,"192.csv","","null","resources/maskTrios/L1BB.jpg","null","",NA,NA,NA,NA,""
"image-keyboard-response",181,313497,"0.0-3.56-2.56","5j336ma2s8tzl6m",60,"192.csv","","null","resources/images/fishbone.png","null","",NA,NA,NA,NA,""
"image-keyboard-response",182,314122,"0.0-3.57-0.57","5j336ma2s8tzl6m",60,"192.csv","","623.4000005722046","resources/trios/L1T4A2.jpg","38","restless",0.2,0.5,0.2,0.713476791884531,"false"
"image-keyboard-response",183,314531,"0.0-3.57-1.57","5j336ma2s8tzl6m",60,"192.csv","","null","resources/maskTrios/BT4B.jpg","null","",NA,NA,NA,NA,""
"image-keyboard-response",184,315745,"0.0-3.57-2.57","5j336ma2s8tzl6m",60,"192.csv","","null","resources/images/fishbone.png","null","",NA,NA,NA,NA,""
"image-keyboard-response",185,317628,"0.0-3.58-0.58","5j336ma2s8tzl6m",60,"192.csv","","1880.5","resources/trios/L4T1A2.jpg","38","restless",0.2,0.5,0.2,0.0326662371400588,"true"
"image-keyboard-response",186,318032,"0.0-3.58-1.58","5j336ma2s8tzl6m",60,"192.csv","","null","resources/maskTrios/BT1B.jpg","null","",NA,NA,NA,NA,""
"image-keyboard-response",187,319243,"0.0-3.58-2.58","5j336ma2s8tzl6m",60,"192.csv","","null","resources/images/coin2.png","null","",NA,NA,NA,NA,""
"image-keyboard-response",188,320967,"0.0-3.59-0.59","5j336ma2s8tzl6m",60,"192.csv","","1722.5","resources/trios/L4T1A2.jpg","39","restless",0.2,0.5,0.2,0.378547378267467,"false"
"image-keyboard-response",189,321376,"0.0-3.59-1.59","5j336ma2s8tzl6m",60,"192.csv","","null","resources/maskTrios/BBA2.jpg","null","",NA,NA,NA,NA,""
"image-keyboard-response",190,322587,"0.0-3.59-2.59","5j336ma2s8tzl6m",60,"192.csv","","null","resources/images/fishbone.png","null","",NA,NA,NA,NA,""
"image-keyboard-response",191,323806,"0.0-3.60-0.60","5j336ma2s8tzl6m",60,"192.csv","","1217.1000003814697","resources/trios/L4T4A2.jpg","38","restless",0.2,0.5,0.2,0.728690793392981,"false"
"image-keyboard-response",192,324221,"0.0-3.60-1.60","5j336ma2s8tzl6m",60,"192.csv","","null","resources/maskTrios/BT4B.jpg","null","",NA,NA,NA,NA,""
"image-keyboard-response",193,325434,"0.0-3.60-2.60","5j336ma2s8tzl6m",60,"192.csv","","null","resources/images/fishbone.png","null","",NA,NA,NA,NA,""
"image-keyboard-response",194,325969,"0.0-3.61-0.61","5j336ma2s8tzl6m",60,"192.csv","","533.7999992370605","resources/trios/L4T1A2.jpg","37","restless",0.2,0.5,0.2,0.96405728933801,"false"
"image-keyboard-response",195,326378,"0.0-3.61-1.61","5j336ma2s8tzl6m",60,"192.csv","","null","resources/maskTrios/L4BB.jpg","null","",NA,NA,NA,NA,""
"image-keyboard-response",196,327585,"0.0-3.61-2.61","5j336ma2s8tzl6m",60,"192.csv","","null","resources/images/fishbone.png","null","",NA,NA,NA,NA,""
"image-keyboard-response",197,329131,"0.0-3.62-0.62","5j336ma2s8tzl6m",60,"192.csv","","1544","resources/trios/L4T1A2.jpg","38","restless",0.2,0.5,0.2,0.498956973096127,"true"
"image-keyboard-response",198,329540,"0.0-3.62-1.62","5j336ma2s8tzl6m",60,"192.csv","","null","resources/maskTrios/BT1B.jpg","null","",NA,NA,NA,NA,""
"image-keyboard-response",199,330758,"0.0-3.62-2.62","5j336ma2s8tzl6m",60,"192.csv","","null","resources/images/coin2.png","null","",NA,NA,NA,NA,""
"image-keyboard-response",200,333980,"0.0-3.63-0.63","5j336ma2s8tzl6m",60,"192.csv","","3221.199999809265","resources/trios/L4T4A3.jpg","38","restless",0.2,0.5,0.2,0.0726410047830841,"true"
"image-keyboard-response",201,334389,"0.0-3.63-1.63","5j336ma2s8tzl6m",60,"192.csv","","null","resources/maskTrios/BT4B.jpg","null","",NA,NA,NA,NA,""
"image-keyboard-response",202,335603,"0.0-3.63-2.63","5j336ma2s8tzl6m",60,"192.csv","","null","resources/images/coin2.png","null","",NA,NA,NA,NA,""
"image-keyboard-response",203,337086,"0.0-3.64-0.64","5j336ma2s8tzl6m",60,"192.csv","","1480.7999992370605","resources/trios/L4T1A2.jpg","37","restless",0.2,0.5,0.2,0.34440286589419,"false"
"image-keyboard-response",204,337502,"0.0-3.64-1.64","5j336ma2s8tzl6m",60,"192.csv","","null","resources/maskTrios/L4BB.jpg","null","",NA,NA,NA,NA,""
"image-keyboard-response",205,338713,"0.0-3.64-2.64","5j336ma2s8tzl6m",60,"192.csv","","null","resources/images/fishbone.png","null","",NA,NA,NA,NA,""
"image-keyboard-response",206,339860,"0.0-3.65-0.65","5j336ma2s8tzl6m",60,"192.csv","","1145.2999992370605","resources/trios/L1T1A3.jpg","37","restless",0.2,0.5,0.2,0.0619848992608192,"true"
"image-keyboard-response",207,340268,"0.0-3.65-1.65","5j336ma2s8tzl6m",60,"192.csv","","null","resources/maskTrios/L1BB.jpg","null","",NA,NA,NA,NA,""
"image-keyboard-response",208,341474,"0.0-3.65-2.65","5j336ma2s8tzl6m",60,"192.csv","","null","resources/images/coin2.png","null","",NA,NA,NA,NA,""
"image-keyboard-response",209,342482,"0.0-3.66-0.66","5j336ma2s8tzl6m",60,"192.csv","","1006.2000007629395","resources/trios/L4T4A2.jpg","38","restless",0.2,0.5,0.2,0.109705536156133,"true"
"image-keyboard-response",210,342901,"0.0-3.66-1.66","5j336ma2s8tzl6m",60,"192.csv","","null","resources/maskTrios/BT4B.jpg","null","",NA,NA,NA,NA,""
"image-keyboard-response",211,344117,"0.0-3.66-2.66","5j336ma2s8tzl6m",60,"192.csv","","null","resources/images/coin2.png","null","",NA,NA,NA,NA,""
"image-keyboard-response",212,346941,"0.0-3.67-0.67","5j336ma2s8tzl6m",60,"192.csv","","2822.199999809265","resources/trios/L4T1A2.jpg","38","restless",0.2,0.5,0.2,0.605369268977322,"false"
"image-keyboard-response",213,347366,"0.0-3.67-1.67","5j336ma2s8tzl6m",60,"192.csv","","null","resources/maskTrios/BT1B.jpg","null","",NA,NA,NA,NA,""
"image-keyboard-response",214,348587,"0.0-3.67-2.67","5j336ma2s8tzl6m",60,"192.csv","","null","resources/images/fishbone.png","null","",NA,NA,NA,NA,""
"image-keyboard-response",215,351541,"0.0-3.68-0.68","5j336ma2s8tzl6m",60,"192.csv","","2951.300000190735","resources/trios/L4T1A2.jpg","39","restless",0.3,0.5,0.2,0.483131053839947,"false"
"image-keyboard-response",216,351965,"0.0-3.68-1.68","5j336ma2s8tzl6m",60,"192.csv","","null","resources/maskTrios/BBA2.jpg","null","",NA,NA,NA,NA,""
"image-keyboard-response",217,353188,"0.0-3.68-2.68","5j336ma2s8tzl6m",60,"192.csv","","null","resources/images/fishbone.png","null","",NA,NA,NA,NA,""
"image-keyboard-response",218,353800,"0.0-3.69-0.69","5j336ma2s8tzl6m",60,"192.csv","","610","resources/trios/L4T1A3.jpg","37","restless",0.3,0.5,0.2,0.349607464357089,"false"
"image-keyboard-response",219,354216,"0.0-3.69-1.69","5j336ma2s8tzl6m",60,"192.csv","","null","resources/maskTrios/L4BB.jpg","null","",NA,NA,NA,NA,""
"image-keyboard-response",220,355426,"0.0-3.69-2.69","5j336ma2s8tzl6m",60,"192.csv","","null","resources/images/fishbone.png","null","",NA,NA,NA,NA,""
"image-keyboard-response",221,356692,"0.0-3.70-0.70","5j336ma2s8tzl6m",60,"192.csv","","1264.5","resources/trios/L1T1A3.jpg","37","restless",0.3,0.5,0.2,0.0957517640119192,"true"
"image-keyboard-response",222,357110,"0.0-3.70-1.70","5j336ma2s8tzl6m",60,"192.csv","","null","resources/maskTrios/L1BB.jpg","null","",NA,NA,NA,NA,""
"image-keyboard-response",223,358325,"0.0-3.70-2.70","5j336ma2s8tzl6m",60,"192.csv","","null","resources/images/coin2.png","null","",NA,NA,NA,NA,""
"image-keyboard-response",224,359657,"0.0-3.71-0.71","5j336ma2s8tzl6m",60,"192.csv","","1330","resources/trios/L1T1A3.jpg","38","restless",0.4,0.5,0.2,0.614667040093691,"false"
"image-keyboard-response",225,360067,"0.0-3.71-1.71","5j336ma2s8tzl6m",60,"192.csv","","null","resources/maskTrios/BT1B.jpg","null","",NA,NA,NA,NA,""
"image-keyboard-response",226,361283,"0.0-3.71-2.71","5j336ma2s8tzl6m",60,"192.csv","","null","resources/images/fishbone.png","null","",NA,NA,NA,NA,""
"image-keyboard-response",227,363216,"0.0-3.72-0.72","5j336ma2s8tzl6m",60,"192.csv","","1933.3999996185303","resources/trios/L4T1A3.jpg","38","restless",0.4,0.5,0.2,0.777245587450956,"false"
"image-keyboard-response",228,363622,"0.0-3.72-1.72","5j336ma2s8tzl6m",60,"192.csv","","null","resources/maskTrios/BT1B.jpg","null","",NA,NA,NA,NA,""
"image-keyboard-response",229,364830,"0.0-3.72-2.72","5j336ma2s8tzl6m",60,"192.csv","","null","resources/images/fishbone.png","null","",NA,NA,NA,NA,""
"image-keyboard-response",230,365549,"0.0-3.73-0.73","5j336ma2s8tzl6m",60,"192.csv","","716.8000001907349","resources/trios/L4T1A2.jpg","37","restless",0.4,0.5,0.2,0.0537435029486955,"true"
"image-keyboard-response",231,365962,"0.0-3.73-1.73","5j336ma2s8tzl6m",60,"192.csv","","null","resources/maskTrios/L4BB.jpg","null","",NA,NA,NA,NA,""
"image-keyboard-response",232,367180,"0.0-3.73-2.73","5j336ma2s8tzl6m",60,"192.csv","","null","resources/images/coin2.png","null","",NA,NA,NA,NA,""
"image-keyboard-response",233,368771,"0.0-3.74-0.74","5j336ma2s8tzl6m",60,"192.csv","","1589.2000007629395","resources/trios/L4T4A3.jpg","38","restless",0.4,0.5,0.1,0.805625716503552,"false"
"image-keyboard-response",234,369188,"0.0-3.74-1.74","5j336ma2s8tzl6m",60,"192.csv","","null","resources/maskTrios/BT4B.jpg","null","",NA,NA,NA,NA,""
"image-keyboard-response",235,370400,"0.0-3.74-2.74","5j336ma2s8tzl6m",60,"192.csv","","null","resources/images/fishbone.png","null","",NA,NA,NA,NA,""
"image-keyboard-response",236,371950,"0.0-3.75-0.75","5j336ma2s8tzl6m",60,"192.csv","","1548.5999994277954","resources/trios/L4T1A3.jpg","37","restless",0.4,0.5,0.1,0.043507231312147,"true"
"image-keyboard-response",237,372366,"0.0-3.75-1.75","5j336ma2s8tzl6m",60,"192.csv","","null","resources/maskTrios/L4BB.jpg","null","",NA,NA,NA,NA,""
"image-keyboard-response",238,373591,"0.0-3.75-2.75","5j336ma2s8tzl6m",60,"192.csv","","null","resources/images/coin2.png","null","",NA,NA,NA,NA,""
"image-keyboard-response",239,375302,"0.0-3.76-0.76","5j336ma2s8tzl6m",60,"192.csv","","1709.6999998092651","resources/trios/L1T4A3.jpg","37","restless",0.3,0.5,0.1,0.332934301592317,"false"
"image-keyboard-response",240,375710,"0.0-3.76-1.76","5j336ma2s8tzl6m",60,"192.csv","","null","resources/maskTrios/L1BB.jpg","null","",NA,NA,NA,NA,""
"image-keyboard-response",241,376917,"0.0-3.76-2.76","5j336ma2s8tzl6m",60,"192.csv","","null","resources/images/fishbone.png","null","",NA,NA,NA,NA,""
"image-keyboard-response",242,377812,"0.0-3.77-0.77","5j336ma2s8tzl6m",60,"192.csv","","893.6999998092651","resources/trios/L1T4A3.jpg","38","restless",0.3,0.5,0.1,0.22884528650919,"true"
"image-keyboard-response",243,378236,"0.0-3.77-1.77","5j336ma2s8tzl6m",60,"192.csv","","null","resources/maskTrios/BT4B.jpg","null","",NA,NA,NA,NA,""
"image-keyboard-response",244,379455,"0.0-3.77-2.77","5j336ma2s8tzl6m",60,"192.csv","","null","resources/images/coin2.png","null","",NA,NA,NA,NA,""
"image-keyboard-response",245,383511,"0.0-3.78-0.78","5j336ma2s8tzl6m",60,"192.csv","","4054","resources/trios/L1T1A3.jpg","37","restless",0.3,0.5,0.1,0.535711165699137,"false"
"image-keyboard-response",246,383925,"0.0-3.78-1.78","5j336ma2s8tzl6m",60,"192.csv","","null","resources/maskTrios/L1BB.jpg","null","",NA,NA,NA,NA,""
"image-keyboard-response",247,385144,"0.0-3.78-2.78","5j336ma2s8tzl6m",60,"192.csv","","null","resources/images/fishbone.png","null","",NA,NA,NA,NA,""
"image-keyboard-response",248,385889,"0.0-3.79-0.79","5j336ma2s8tzl6m",60,"192.csv","","743.1000003814697","resources/trios/L1T4A3.jpg","38","restless",0.3,0.5,0.1,0.563819774180053,"false"
"image-keyboard-response",249,386306,"0.0-3.79-1.79","5j336ma2s8tzl6m",60,"192.csv","","null","resources/maskTrios/BT4B.jpg","null","",NA,NA,NA,NA,""
"image-keyboard-response",250,387520,"0.0-3.79-2.79","5j336ma2s8tzl6m",60,"192.csv","","null","resources/images/fishbone.png","null","",NA,NA,NA,NA,""
"image-keyboard-response",251,388234,"0.0-3.80-0.80","5j336ma2s8tzl6m",60,"192.csv","","712.5","resources/trios/L4T4A3.jpg","38","restless",0.3,0.5,0.1,0.645750127894344,"false"
"image-keyboard-response",252,388644,"0.0-3.80-1.80","5j336ma2s8tzl6m",60,"192.csv","","null","resources/maskTrios/BT4B.jpg","null","",NA,NA,NA,NA,""
"image-keyboard-response",253,389863,"0.0-3.80-2.80","5j336ma2s8tzl6m",60,"192.csv","","null","resources/images/fishbone.png","null","",NA,NA,NA,NA,""
"image-keyboard-response",254,391424,"0.0-3.81-0.81","5j336ma2s8tzl6m",60,"192.csv","","1558.8999996185303","resources/trios/L1T4A2.jpg","39","restless",0.3,0.5,0.1,0.0201544272220782,"true"
"image-keyboard-response",255,391835,"0.0-3.81-1.81","5j336ma2s8tzl6m",60,"192.csv","","null","resources/maskTrios/BBA2.jpg","null","",NA,NA,NA,NA,""
"image-keyboard-response",256,393052,"0.0-3.81-2.81","5j336ma2s8tzl6m",60,"192.csv","","null","resources/images/coin2.png","null","",NA,NA,NA,NA,""
"image-keyboard-response",257,396362,"0.0-3.82-0.82","5j336ma2s8tzl6m",60,"192.csv","","3308.699999809265","resources/trios/L4T1A3.jpg","39","restless",0.3,0.5,0.1,0.551418936271194,"false"
"image-keyboard-response",258,396777,"0.0-3.82-1.82","5j336ma2s8tzl6m",60,"192.csv","","null","resources/maskTrios/BBA3.jpg","null","",NA,NA,NA,NA,""
"image-keyboard-response",259,397992,"0.0-3.82-2.82","5j336ma2s8tzl6m",60,"192.csv","","null","resources/images/fishbone.png","null","",NA,NA,NA,NA,""
"image-keyboard-response",260,399727,"0.0-3.83-0.83","5j336ma2s8tzl6m",60,"192.csv","","1733.6000003814697","resources/trios/L4T4A3.jpg","37","restless",0.3,0.5,0.2,0.709014848213647,"false"
"image-keyboard-response",261,400143,"0.0-3.83-1.83","5j336ma2s8tzl6m",60,"192.csv","","null","resources/maskTrios/L4BB.jpg","null","",NA,NA,NA,NA,""
"image-keyboard-response",262,401349,"0.0-3.83-2.83","5j336ma2s8tzl6m",60,"192.csv","","null","resources/images/fishbone.png","null","",NA,NA,NA,NA,""
"image-keyboard-response",263,402853,"0.0-3.84-0.84","5j336ma2s8tzl6m",60,"192.csv","","1502.3999996185303","resources/trios/L1T1A3.jpg","39","restless",0.2,0.6,0.2,0.548585066755603,"false"
"image-keyboard-response",264,403275,"0.0-3.84-1.84","5j336ma2s8tzl6m",60,"192.csv","","null","resources/maskTrios/BBA3.jpg","null","",NA,NA,NA,NA,""
"image-keyboard-response",265,404490,"0.0-3.84-2.84","5j336ma2s8tzl6m",60,"192.csv","","null","resources/images/fishbone.png","null","",NA,NA,NA,NA,""
"image-keyboard-response",266,405481,"0.0-3.85-0.85","5j336ma2s8tzl6m",60,"192.csv","","989.3999996185303","resources/trios/L4T4A2.jpg","37","restless",0.2,0.6,0.2,0.386813795120333,"false"
"image-keyboard-response",267,405894,"0.0-3.85-1.85","5j336ma2s8tzl6m",60,"192.csv","","null","resources/maskTrios/L4BB.jpg","null","",NA,NA,NA,NA,""
"image-keyboard-response",268,407104,"0.0-3.85-2.85","5j336ma2s8tzl6m",60,"192.csv","","null","resources/images/fishbone.png","null","",NA,NA,NA,NA,""
"image-keyboard-response",269,407540,"0.0-3.86-0.86","5j336ma2s8tzl6m",60,"192.csv","","433.80000019073486","resources/trios/L4T1A3.jpg","38","restless",0.2,0.6,0.2,0.445409158915486,"true"
"image-keyboard-response",270,407964,"0.0-3.86-1.86","5j336ma2s8tzl6m",60,"192.csv","","null","resources/maskTrios/BT1B.jpg","null","",NA,NA,NA,NA,""
"image-keyboard-response",271,409186,"0.0-3.86-2.86","5j336ma2s8tzl6m",60,"192.csv","","null","resources/images/coin2.png","null","",NA,NA,NA,NA,""
"image-keyboard-response",272,411878,"0.0-3.87-0.87","5j336ma2s8tzl6m",60,"192.csv","","2690.9000005722046","resources/trios/L1T1A2.jpg","38","restless",0.2,0.6,0.3,0.115746983138622,"true"
"image-keyboard-response",273,412295,"0.0-3.87-1.87","5j336ma2s8tzl6m",60,"192.csv","","null","resources/maskTrios/BT1B.jpg","null","",NA,NA,NA,NA,""
"image-keyboard-response",274,413510,"0.0-3.87-2.87","5j336ma2s8tzl6m",60,"192.csv","","null","resources/images/coin2.png","null","",NA,NA,NA,NA,""
"image-keyboard-response",275,415090,"0.0-3.88-0.88","5j336ma2s8tzl6m",60,"192.csv","","1577.6999998092651","resources/trios/L1T4A2.jpg","39","restless",0.2,0.6,0.3,0.61892362298341,"false"
"image-keyboard-response",276,415506,"0.0-3.88-1.88","5j336ma2s8tzl6m",60,"192.csv","","null","resources/maskTrios/BBA2.jpg","null","",NA,NA,NA,NA,""
"image-keyboard-response",277,416711,"0.0-3.88-2.88","5j336ma2s8tzl6m",60,"192.csv","","null","resources/images/fishbone.png","null","",NA,NA,NA,NA,""
"image-keyboard-response",278,418079,"0.0-3.89-0.89","5j336ma2s8tzl6m",60,"192.csv","","1366.6999998092651","resources/trios/L4T1A3.jpg","37","restless",0.2,0.6,0.3,0.219604657018235,"false"
"image-keyboard-response",279,418497,"0.0-3.89-1.89","5j336ma2s8tzl6m",60,"192.csv","","null","resources/maskTrios/L4BB.jpg","null","",NA,NA,NA,NA,""
"image-keyboard-response",280,419716,"0.0-3.89-2.89","5j336ma2s8tzl6m",60,"192.csv","","null","resources/images/fishbone.png","null","",NA,NA,NA,NA,""
"image-keyboard-response",281,421273,"0.0-3.90-0.90","5j336ma2s8tzl6m",60,"192.csv","","1555.3000001907349","resources/trios/L4T4A2.jpg","37","restless",0.3,0.6,0.3,0.9036794194707,"false"
"image-keyboard-response",282,421691,"0.0-3.90-1.90","5j336ma2s8tzl6m",60,"192.csv","","null","resources/maskTrios/L4BB.jpg","null","",NA,NA,NA,NA,""
"image-keyboard-response",283,422904,"0.0-3.90-2.90","5j336ma2s8tzl6m",60,"192.csv","","null","resources/images/fishbone.png","null","",NA,NA,NA,NA,""
"image-keyboard-response",284,423742,"0.0-3.91-0.91","5j336ma2s8tzl6m",60,"192.csv","","824.1999998092651","resources/trios/L4T1A3.jpg","38","restless",0.4,0.6,0.3,0.377800502718145,"true"
"image-keyboard-response",285,424160,"0.0-3.91-1.91","5j336ma2s8tzl6m",60,"192.csv","","null","resources/maskTrios/BT1B.jpg","null","",NA,NA,NA,NA,""
"image-keyboard-response",286,425369,"0.0-3.91-2.91","5j336ma2s8tzl6m",60,"192.csv","","null","resources/images/coin2.png","null","",NA,NA,NA,NA,""
"image-keyboard-response",287,428830,"0.0-3.92-0.92","5j336ma2s8tzl6m",60,"192.csv","","3458.9000005722046","resources/trios/L1T4A2.jpg","38","restless",0.4,0.6,0.3,0.812881887139146,"false"
"image-keyboard-response",288,429245,"0.0-3.92-1.92","5j336ma2s8tzl6m",60,"192.csv","","null","resources/maskTrios/BT4B.jpg","null","",NA,NA,NA,NA,""
"image-keyboard-response",289,430458,"0.0-3.92-2.92","5j336ma2s8tzl6m",60,"192.csv","","null","resources/images/fishbone.png","null","",NA,NA,NA,NA,""
"image-keyboard-response",290,431683,"0.0-3.93-0.93","5j336ma2s8tzl6m",60,"192.csv","","1223.2999992370605","resources/trios/L1T1A3.jpg","38","restless",0.4,0.6,0.3,0.383158907732371,"true"
"image-keyboard-response",291,432094,"0.0-3.93-1.93","5j336ma2s8tzl6m",60,"192.csv","","null","resources/maskTrios/BT1B.jpg","null","",NA,NA,NA,NA,""
"image-keyboard-response",292,433305,"0.0-3.93-2.93","5j336ma2s8tzl6m",60,"192.csv","","null","resources/images/coin2.png","null","",NA,NA,NA,NA,""
"image-keyboard-response",293,434628,"0.0-3.94-0.94","5j336ma2s8tzl6m",60,"192.csv","","1321.2999992370605","resources/trios/L4T4A2.jpg","38","restless",0.4,0.6,0.3,0.884509226405268,"false"
"image-keyboard-response",294,435045,"0.0-3.94-1.94","5j336ma2s8tzl6m",60,"192.csv","","null","resources/maskTrios/BT4B.jpg","null","",NA,NA,NA,NA,""
"image-keyboard-response",295,436254,"0.0-3.94-2.94","5j336ma2s8tzl6m",60,"192.csv","","null","resources/images/fishbone.png","null","",NA,NA,NA,NA,""
"image-keyboard-response",296,436961,"0.0-3.95-0.95","5j336ma2s8tzl6m",60,"192.csv","","706.6999998092651","resources/trios/L1T1A2.jpg","37","restless",0.4,0.5,0.3,0.718199158401928,"false"
"image-keyboard-response",297,437375,"0.0-3.95-1.95","5j336ma2s8tzl6m",60,"192.csv","","null","resources/maskTrios/L1BB.jpg","null","",NA,NA,NA,NA,""
"image-keyboard-response",298,438589,"0.0-3.95-2.95","5j336ma2s8tzl6m",60,"192.csv","","null","resources/images/fishbone.png","null","",NA,NA,NA,NA,""
"image-keyboard-response",299,439205,"0.0-3.96-0.96","5j336ma2s8tzl6m",60,"192.csv","","613.9000005722046","resources/trios/L4T4A3.jpg","39","restless",0.4,0.5,0.3,0.644147109215299,"false"
"image-keyboard-response",300,439613,"0.0-3.96-1.96","5j336ma2s8tzl6m",60,"192.csv","","null","resources/maskTrios/BBA3.jpg","null","",NA,NA,NA,NA,""
"image-keyboard-response",301,440828,"0.0-3.96-2.96","5j336ma2s8tzl6m",60,"192.csv","","null","resources/images/fishbone.png","null","",NA,NA,NA,NA,""
"image-keyboard-response",302,441239,"0.0-3.97-0.97","5j336ma2s8tzl6m",60,"192.csv","","408.9000005722046","resources/trios/L4T1A3.jpg","38","restless",0.4,0.5,0.3,0.964142510091576,"false"
"image-keyboard-response",303,441658,"0.0-3.97-1.97","5j336ma2s8tzl6m",60,"192.csv","","null","resources/maskTrios/BT1B.jpg","null","",NA,NA,NA,NA,""
"image-keyboard-response",304,442868,"0.0-3.97-2.97","5j336ma2s8tzl6m",60,"192.csv","","null","resources/images/fishbone.png","null","",NA,NA,NA,NA,""
"image-keyboard-response",305,443151,"0.0-3.98-0.98","5j336ma2s8tzl6m",60,"192.csv","","281.5","resources/trios/L4T1A3.jpg","39","restless",0.4,0.5,0.3,0.943145847408599,"false"
"image-keyboard-response",306,443561,"0.0-3.98-1.98","5j336ma2s8tzl6m",60,"192.csv","","null","resources/maskTrios/BBA3.jpg","null","",NA,NA,NA,NA,""
"image-keyboard-response",307,444776,"0.0-3.98-2.98","5j336ma2s8tzl6m",60,"192.csv","","null","resources/images/fishbone.png","null","",NA,NA,NA,NA,""
"image-keyboard-response",308,445349,"0.0-3.99-0.99","5j336ma2s8tzl6m",60,"192.csv","","571.1000003814697","resources/trios/L1T1A3.jpg","38","restless",0.4,0.5,0.3,0.430211633899274,"true"
"image-keyboard-response",309,445768,"0.0-3.99-1.99","5j336ma2s8tzl6m",60,"192.csv","","null","resources/maskTrios/BT1B.jpg","null","",NA,NA,NA,NA,""
"image-keyboard-response",310,446984,"0.0-3.99-2.99","5j336ma2s8tzl6m",60,"192.csv","","null","resources/images/coin2.png","null","",NA,NA,NA,NA,""
"image-keyboard-response",311,448022,"0.0-3.100-0.100","5j336ma2s8tzl6m",60,"192.csv","","1037.0999994277954","resources/trios/L4T1A3.jpg","38","restless",0.4,0.5,0.3,0.543148785687167,"false"
"image-keyboard-response",312,448440,"0.0-3.100-1.100","5j336ma2s8tzl6m",60,"192.csv","","null","resources/maskTrios/BT1B.jpg","null","",NA,NA,NA,NA,""
"image-keyboard-response",313,449654,"0.0-3.100-2.100","5j336ma2s8tzl6m",60,"192.csv","","null","resources/images/fishbone.png","null","",NA,NA,NA,NA,""
"image-keyboard-response",314,450471,"0.0-3.101-0.101","5j336ma2s8tzl6m",60,"192.csv","","816.3999996185303","resources/trios/L1T1A2.jpg","38","restless",0.4,0.5,0.3,0.682729763695634,"false"
"image-keyboard-response",315,450879,"0.0-3.101-1.101","5j336ma2s8tzl6m",60,"192.csv","","null","resources/maskTrios/BT1B.jpg","null","",NA,NA,NA,NA,""
"image-keyboard-response",316,452087,"0.0-3.101-2.101","5j336ma2s8tzl6m",60,"192.csv","","null","resources/images/fishbone.png","null","",NA,NA,NA,NA,""
"image-keyboard-response",317,453376,"0.0-3.102-0.102","5j336ma2s8tzl6m",60,"192.csv","","1288.2000007629395","resources/trios/L1T1A2.jpg","37","restless",0.4,0.5,0.3,0.265009233024941,"true"
"image-keyboard-response",318,453788,"0.0-3.102-1.102","5j336ma2s8tzl6m",60,"192.csv","","null","resources/maskTrios/L1BB.jpg","null","",NA,NA,NA,NA,""
"image-keyboard-response",319,455002,"0.0-3.102-2.102","5j336ma2s8tzl6m",60,"192.csv","","null","resources/images/coin2.png","null","",NA,NA,NA,NA,""
"image-keyboard-response",320,457792,"0.0-3.103-0.103","5j336ma2s8tzl6m",60,"192.csv","","2788.5999994277954","resources/trios/L1T1A3.jpg","37","restless",0.4,0.5,0.3,0.484113750985918,"false"
"image-keyboard-response",321,458206,"0.0-3.103-1.103","5j336ma2s8tzl6m",60,"192.csv","","null","resources/maskTrios/L1BB.jpg","null","",NA,NA,NA,NA,""
"image-keyboard-response",322,459424,"0.0-3.103-2.103","5j336ma2s8tzl6m",60,"192.csv","","null","resources/images/fishbone.png","null","",NA,NA,NA,NA,""
"image-keyboard-response",323,462162,"0.0-3.104-0.104","5j336ma2s8tzl6m",60,"192.csv","","2736.5","resources/trios/L1T1A2.jpg","38","restless",0.4,0.5,0.3,0.155536790509778,"true"
"image-keyboard-response",324,462570,"0.0-3.104-1.104","5j336ma2s8tzl6m",60,"192.csv","","null","resources/maskTrios/BT1B.jpg","null","",NA,NA,NA,NA,""
"image-keyboard-response",325,463791,"0.0-3.104-2.104","5j336ma2s8tzl6m",60,"192.csv","","null","resources/images/coin2.png","null","",NA,NA,NA,NA,""
"image-keyboard-response",326,483731,"0.0-3.105-0.105","5j336ma2s8tzl6m",60,"192.csv","","19937.79999923706","resources/trios/L1T4A3.jpg","39","restless",0.4,0.5,0.3,0.988780354945959,"false"
"image-keyboard-response",327,484140,"0.0-3.105-1.105","5j336ma2s8tzl6m",60,"192.csv","","null","resources/maskTrios/BBA3.jpg","null","",NA,NA,NA,NA,""
"image-keyboard-response",328,485348,"0.0-3.105-2.105","5j336ma2s8tzl6m",60,"192.csv","","null","resources/images/fishbone.png","null","",NA,NA,NA,NA,""
"image-keyboard-response",329,486937,"0.0-3.106-0.106","5j336ma2s8tzl6m",60,"192.csv","","1587.3999996185303","resources/trios/L1T4A3.jpg","37","restless",0.4,0.6,0.4,0.135503753024254,"true"
"image-keyboard-response",330,487347,"0.0-3.106-1.106","5j336ma2s8tzl6m",60,"192.csv","","null","resources/maskTrios/L1BB.jpg","null","",NA,NA,NA,NA,""
"image-keyboard-response",331,488568,"0.0-3.106-2.106","5j336ma2s8tzl6m",60,"192.csv","","null","resources/images/coin2.png","null","",NA,NA,NA,NA,""
"image-keyboard-response",332,491439,"0.0-3.107-0.107","5j336ma2s8tzl6m",60,"192.csv","","2869.5999994277954","resources/trios/L4T4A2.jpg","38","restless",0.4,0.6,0.4,0.73494257179254,"false"
"image-keyboard-response",333,491847,"0.0-3.107-1.107","5j336ma2s8tzl6m",60,"192.csv","","null","resources/maskTrios/BT4B.jpg","null","",NA,NA,NA,NA,""
"image-keyboard-response",334,493059,"0.0-3.107-2.107","5j336ma2s8tzl6m",60,"192.csv","","null","resources/images/fishbone.png","null","",NA,NA,NA,NA,""
"image-keyboard-response",335,493838,"0.0-3.108-0.108","5j336ma2s8tzl6m",60,"192.csv","","778.3000001907349","resources/trios/L4T1A2.jpg","37","restless",0.4,0.6,0.4,0.973296610720883,"false"
"image-keyboard-response",336,494245,"0.0-3.108-1.108","5j336ma2s8tzl6m",60,"192.csv","","null","resources/maskTrios/L4BB.jpg","null","",NA,NA,NA,NA,""
"image-keyboard-response",337,495460,"0.0-3.108-2.108","5j336ma2s8tzl6m",60,"192.csv","","null","resources/images/fishbone.png","null","",NA,NA,NA,NA,""
"image-keyboard-response",338,495889,"0.0-3.109-0.109","5j336ma2s8tzl6m",60,"192.csv","","427.80000019073486","resources/trios/L1T1A3.jpg","37","restless",0.4,0.6,0.4,0.740173703644657,"false"
"image-keyboard-response",339,496298,"0.0-3.109-1.109","5j336ma2s8tzl6m",60,"192.csv","","null","resources/maskTrios/L1BB.jpg","null","",NA,NA,NA,NA,""
"image-keyboard-response",340,497511,"0.0-3.109-2.109","5j336ma2s8tzl6m",60,"192.csv","","null","resources/images/fishbone.png","null","",NA,NA,NA,NA,""
"image-keyboard-response",341,498099,"0.0-3.110-0.110","5j336ma2s8tzl6m",60,"192.csv","","586.8999996185303","resources/trios/L1T1A3.jpg","39","restless",0.4,0.6,0.4,0.0283003988231969,"true"
"image-keyboard-response",342,498511,"0.0-3.110-1.110","5j336ma2s8tzl6m",60,"192.csv","","null","resources/maskTrios/BBA3.jpg","null","",NA,NA,NA,NA,""
"image-keyboard-response",343,499729,"0.0-3.110-2.110","5j336ma2s8tzl6m",60,"192.csv","","null","resources/images/coin2.png","null","",NA,NA,NA,NA,""
"image-keyboard-response",344,500870,"0.0-3.111-0.111","5j336ma2s8tzl6m",60,"192.csv","","1139","resources/trios/L1T4A3.jpg","38","restless",0.4,0.6,0.4,0.779372305062049,"false"
"image-keyboard-response",345,501278,"0.0-3.111-1.111","5j336ma2s8tzl6m",60,"192.csv","","null","resources/maskTrios/BT4B.jpg","null","",NA,NA,NA,NA,""
"image-keyboard-response",346,502494,"0.0-3.111-2.111","5j336ma2s8tzl6m",60,"192.csv","","null","resources/images/fishbone.png","null","",NA,NA,NA,NA,""
"image-keyboard-response",347,503062,"0.0-3.112-0.112","5j336ma2s8tzl6m",60,"192.csv","","566.7999992370605","resources/trios/L4T1A3.jpg","37","restless",0.4,0.6,0.4,0.855428313358061,"false"
"image-keyboard-response",348,503473,"0.0-3.112-1.112","5j336ma2s8tzl6m",60,"192.csv","","null","resources/maskTrios/L4BB.jpg","null","",NA,NA,NA,NA,""
"image-keyboard-response",349,504685,"0.0-3.112-2.112","5j336ma2s8tzl6m",60,"192.csv","","null","resources/images/fishbone.png","null","",NA,NA,NA,NA,""
"image-keyboard-response",350,505016,"0.0-3.113-0.113","5j336ma2s8tzl6m",60,"192.csv","","328.8999996185303","resources/trios/L4T1A3.jpg","37","restless",0.4,0.6,0.4,0.341768662522,"true"
"image-keyboard-response",351,505440,"0.0-3.113-1.113","5j336ma2s8tzl6m",60,"192.csv","","null","resources/maskTrios/L4BB.jpg","null","",NA,NA,NA,NA,""
"image-keyboard-response",352,506660,"0.0-3.113-2.113","5j336ma2s8tzl6m",60,"192.csv","","null","resources/images/coin2.png","null","",NA,NA,NA,NA,""
"image-keyboard-response",353,507046,"0.0-3.114-0.114","5j336ma2s8tzl6m",60,"192.csv","","385.30000019073486","resources/trios/L4T1A2.jpg","38","restless",0.4,0.6,0.4,0.18179721882468,"true"
"image-keyboard-response",354,507457,"0.0-3.114-1.114","5j336ma2s8tzl6m",60,"192.csv","","null","resources/maskTrios/BT1B.jpg","null","",NA,NA,NA,NA,""
"image-keyboard-response",355,508672,"0.0-3.114-2.114","5j336ma2s8tzl6m",60,"192.csv","","null","resources/images/coin2.png","null","",NA,NA,NA,NA,""
"image-keyboard-response",356,509005,"0.0-3.115-0.115","5j336ma2s8tzl6m",60,"192.csv","","331","resources/trios/L1T4A3.jpg","37","restless",0.3,0.6,0.4,0.0991150355681147,"true"
"image-keyboard-response",357,509422,"0.0-3.115-1.115","5j336ma2s8tzl6m",60,"192.csv","","null","resources/maskTrios/L1BB.jpg","null","",NA,NA,NA,NA,""
"image-keyboard-response",358,510631,"0.0-3.115-2.115","5j336ma2s8tzl6m",60,"192.csv","","null","resources/images/coin2.png","null","",NA,NA,NA,NA,""
"image-keyboard-response",359,510929,"0.0-3.116-0.116","5j336ma2s8tzl6m",60,"192.csv","","296.30000019073486","resources/trios/L4T1A2.jpg","38","restless",0.4,0.6,0.4,0.942905152829911,"false"
"image-keyboard-response",360,511351,"0.0-3.116-1.116","5j336ma2s8tzl6m",60,"192.csv","","null","resources/maskTrios/BT1B.jpg","null","",NA,NA,NA,NA,""
"image-keyboard-response",361,512566,"0.0-3.116-2.116","5j336ma2s8tzl6m",60,"192.csv","","null","resources/images/fishbone.png","null","",NA,NA,NA,NA,""
"image-keyboard-response",362,512900,"0.0-3.117-0.117","5j336ma2s8tzl6m",60,"192.csv","","332","resources/trios/L4T4A2.jpg","37","restless",0.4,0.6,0.4,0.905799703607495,"false"
"image-keyboard-response",363,513316,"0.0-3.117-1.117","5j336ma2s8tzl6m",60,"192.csv","","null","resources/maskTrios/L4BB.jpg","null","",NA,NA,NA,NA,""
"image-keyboard-response",364,514532,"0.0-3.117-2.117","5j336ma2s8tzl6m",60,"192.csv","","null","resources/images/fishbone.png","null","",NA,NA,NA,NA,""
"image-keyboard-response",365,514798,"0.0-3.118-0.118","5j336ma2s8tzl6m",60,"192.csv","","263.80000019073486","resources/trios/L4T4A3.jpg","39","restless",0.4,0.6,0.4,0.258250378921399,"true"
"image-keyboard-response",366,515208,"0.0-3.118-1.118","5j336ma2s8tzl6m",60,"192.csv","","null","resources/maskTrios/BBA3.jpg","null","",NA,NA,NA,NA,""
"image-keyboard-response",367,516431,"0.0-3.118-2.118","5j336ma2s8tzl6m",60,"192.csv","","null","resources/images/coin2.png","null","",NA,NA,NA,NA,""
"image-keyboard-response",368,516851,"0.0-3.119-0.119","5j336ma2s8tzl6m",60,"192.csv","","419.19999980926514","resources/trios/L4T4A3.jpg","38","restless",0.4,0.7,0.4,0.760509736851814,"false"
"image-keyboard-response",369,517265,"0.0-3.119-1.119","5j336ma2s8tzl6m",60,"192.csv","","null","resources/maskTrios/BT4B.jpg","null","",NA,NA,NA,NA,""
"image-keyboard-response",370,518482,"0.0-3.119-2.119","5j336ma2s8tzl6m",60,"192.csv","","null","resources/images/fishbone.png","null","",NA,NA,NA,NA,""
"image-keyboard-response",371,518961,"0.0-3.120-0.120","5j336ma2s8tzl6m",60,"192.csv","","478.30000019073486","resources/trios/L4T1A3.jpg","38","restless",0.4,0.8,0.4,0.762908429944517,"true"
"image-keyboard-response",372,519370,"0.0-3.120-1.120","5j336ma2s8tzl6m",60,"192.csv","","null","resources/maskTrios/BT1B.jpg","null","",NA,NA,NA,NA,""
"image-keyboard-response",373,520584,"0.0-3.120-2.120","5j336ma2s8tzl6m",60,"192.csv","","null","resources/images/coin2.png","null","",NA,NA,NA,NA,""
"image-keyboard-response",374,520900,"0.0-3.121-0.121","5j336ma2s8tzl6m",60,"192.csv","","315","resources/trios/L1T4A3.jpg","37","restless",0.4,0.8,0.4,0.0157905537782599,"true"
"image-keyboard-response",375,521317,"0.0-3.121-1.121","5j336ma2s8tzl6m",60,"192.csv","","null","resources/maskTrios/L1BB.jpg","null","",NA,NA,NA,NA,""
"image-keyboard-response",376,522530,"0.0-3.121-2.121","5j336ma2s8tzl6m",60,"192.csv","","null","resources/images/coin2.png","null","",NA,NA,NA,NA,""
"image-keyboard-response",377,522815,"0.0-3.122-0.122","5j336ma2s8tzl6m",60,"192.csv","","283.4000005722046","resources/trios/L1T1A2.jpg","38","restless",0.4,0.8,0.4,0.339228540358789,"true"
"image-keyboard-response",378,523230,"0.0-3.122-1.122","5j336ma2s8tzl6m",60,"192.csv","","null","resources/maskTrios/BT1B.jpg","null","",NA,NA,NA,NA,""
"image-keyboard-response",379,524448,"0.0-3.122-2.122","5j336ma2s8tzl6m",60,"192.csv","","null","resources/images/coin2.png","null","",NA,NA,NA,NA,""
"image-keyboard-response",380,524746,"0.0-3.123-0.123","5j336ma2s8tzl6m",60,"192.csv","","296.3999996185303","resources/trios/L1T4A3.jpg","37","restless",0.4,0.8,0.4,0.235354951952669,"true"
"image-keyboard-response",381,525163,"0.0-3.123-1.123","5j336ma2s8tzl6m",60,"192.csv","","null","resources/maskTrios/L1BB.jpg","null","",NA,NA,NA,NA,""
"image-keyboard-response",382,526371,"0.0-3.123-2.123","5j336ma2s8tzl6m",60,"192.csv","","null","resources/images/coin2.png","null","",NA,NA,NA,NA,""
"image-keyboard-response",383,526647,"0.0-3.124-0.124","5j336ma2s8tzl6m",60,"192.csv","","275","resources/trios/L4T1A3.jpg","38","restless",0.4,0.8,0.5,0.69973520096267,"true"
"image-keyboard-response",384,527062,"0.0-3.124-1.124","5j336ma2s8tzl6m",60,"192.csv","","null","resources/maskTrios/BT1B.jpg","null","",NA,NA,NA,NA,""
"image-keyboard-response",385,528277,"0.0-3.124-2.124","5j336ma2s8tzl6m",60,"192.csv","","null","resources/images/coin2.png","null","",NA,NA,NA,NA,""
"image-keyboard-response",386,528531,"0.0-3.125-0.125","5j336ma2s8tzl6m",60,"192.csv","","252.69999980926514","resources/trios/L1T1A3.jpg","39","restless",0.4,0.8,0.5,0.144247505821463,"true"
"image-keyboard-response",387,528949,"0.0-3.125-1.125","5j336ma2s8tzl6m",60,"192.csv","","null","resources/maskTrios/BBA3.jpg","null","",NA,NA,NA,NA,""
"image-keyboard-response",388,530161,"0.0-3.125-2.125","5j336ma2s8tzl6m",60,"192.csv","","null","resources/images/coin2.png","null","",NA,NA,NA,NA,""
"image-keyboard-response",389,530552,"0.0-3.126-0.126","5j336ma2s8tzl6m",60,"192.csv","","390","resources/trios/L4T4A2.jpg","37","restless",0.4,0.7,0.5,0.508042583451734,"false"
"image-keyboard-response",390,530970,"0.0-3.126-1.126","5j336ma2s8tzl6m",60,"192.csv","","null","resources/maskTrios/L4BB.jpg","null","",NA,NA,NA,NA,""
"image-keyboard-response",391,532192,"0.0-3.126-2.126","5j336ma2s8tzl6m",60,"192.csv","","null","resources/images/fishbone.png","null","",NA,NA,NA,NA,""
"image-keyboard-response",392,532663,"0.0-3.127-0.127","5j336ma2s8tzl6m",60,"192.csv","","469.1000003814697","resources/trios/L1T1A2.jpg","37","restless",0.5,0.7,0.5,0.883661508571987,"false"
"image-keyboard-response",393,533081,"0.0-3.127-1.127","5j336ma2s8tzl6m",60,"192.csv","","null","resources/maskTrios/L1BB.jpg","null","",NA,NA,NA,NA,""
"image-keyboard-response",394,534291,"0.0-3.127-2.127","5j336ma2s8tzl6m",60,"192.csv","","null","resources/images/fishbone.png","null","",NA,NA,NA,NA,""
"image-keyboard-response",395,534858,"0.0-3.128-0.128","5j336ma2s8tzl6m",60,"192.csv","","564.6999998092651","resources/trios/L4T1A3.jpg","38","restless",0.5,0.6,0.5,0.578661043774228,"true"
"image-keyboard-response",396,535267,"0.0-3.128-1.128","5j336ma2s8tzl6m",60,"192.csv","","null","resources/maskTrios/BT1B.jpg","null","",NA,NA,NA,NA,""
"image-keyboard-response",397,536480,"0.0-3.128-2.128","5j336ma2s8tzl6m",60,"192.csv","","null","resources/images/coin2.png","null","",NA,NA,NA,NA,""
"image-keyboard-response",398,536794,"0.0-3.129-0.129","5j336ma2s8tzl6m",60,"192.csv","","311.6000003814697","resources/trios/L1T1A3.jpg","37","restless",0.5,0.6,0.5,0.276752663085562,"true"
"image-keyboard-response",399,537210,"0.0-3.129-1.129","5j336ma2s8tzl6m",60,"192.csv","","null","resources/maskTrios/L1BB.jpg","null","",NA,NA,NA,NA,""
"image-keyboard-response",400,538418,"0.0-3.129-2.129","5j336ma2s8tzl6m",60,"192.csv","","null","resources/images/coin2.png","null","",NA,NA,NA,NA,""
"image-keyboard-response",401,538676,"0.0-3.130-0.130","5j336ma2s8tzl6m",60,"192.csv","","256.3999996185303","resources/trios/L1T4A2.jpg","38","restless",0.5,0.6,0.4,0.119069627715217,"true"
"image-keyboard-response",402,539093,"0.0-3.130-1.130","5j336ma2s8tzl6m",60,"192.csv","","null","resources/maskTrios/BT4B.jpg","null","",NA,NA,NA,NA,""
"image-keyboard-response",403,540305,"0.0-3.130-2.130","5j336ma2s8tzl6m",60,"192.csv","","null","resources/images/coin2.png","null","",NA,NA,NA,NA,""
"image-keyboard-response",404,540620,"0.0-3.131-0.131","5j336ma2s8tzl6m",60,"192.csv","","313","resources/trios/L1T4A2.jpg","37","restless",0.5,0.6,0.4,0.486420070181292,"true"
"image-keyboard-response",405,541039,"0.0-3.131-1.131","5j336ma2s8tzl6m",60,"192.csv","","null","resources/maskTrios/L1BB.jpg","null","",NA,NA,NA,NA,""
"image-keyboard-response",406,542243,"0.0-3.131-2.131","5j336ma2s8tzl6m",60,"192.csv","","null","resources/images/coin2.png","null","",NA,NA,NA,NA,""
"image-keyboard-response",407,542694,"0.0-3.132-0.132","5j336ma2s8tzl6m",60,"192.csv","","448.3999996185303","resources/trios/L1T4A3.jpg","39","restless",0.5,0.6,0.4,0.671838264021143,"false"
"image-keyboard-response",408,543111,"0.0-3.132-1.132","5j336ma2s8tzl6m",60,"192.csv","","null","resources/maskTrios/BBA3.jpg","null","",NA,NA,NA,NA,""
"image-keyboard-response",409,544332,"0.0-3.132-2.132","5j336ma2s8tzl6m",60,"192.csv","","null","resources/images/fishbone.png","null","",NA,NA,NA,NA,""
"image-keyboard-response",410,544682,"0.0-3.133-0.133","5j336ma2s8tzl6m",60,"192.csv","","348.19999980926514","resources/trios/L4T1A3.jpg","38","restless",0.5,0.6,0.5,0.212359709607705,"true"
"image-keyboard-response",411,545090,"0.0-3.133-1.133","5j336ma2s8tzl6m",60,"192.csv","","null","resources/maskTrios/BT1B.jpg","null","",NA,NA,NA,NA,""
"image-keyboard-response",412,546304,"0.0-3.133-2.133","5j336ma2s8tzl6m",60,"192.csv","","null","resources/images/coin2.png","null","",NA,NA,NA,NA,""
"image-keyboard-response",413,546546,"0.0-3.134-0.134","5j336ma2s8tzl6m",60,"192.csv","","240.20000076293945","resources/trios/L4T1A2.jpg","37","restless",0.5,0.6,0.5,0.4735914093606,"true"
"image-keyboard-response",414,546964,"0.0-3.134-1.134","5j336ma2s8tzl6m",60,"192.csv","","null","resources/maskTrios/L4BB.jpg","null","",NA,NA,NA,NA,""
"image-keyboard-response",415,548171,"0.0-3.134-2.134","5j336ma2s8tzl6m",60,"192.csv","","null","resources/images/coin2.png","null","",NA,NA,NA,NA,""
"image-keyboard-response",416,548404,"0.0-3.135-0.135","5j336ma2s8tzl6m",60,"192.csv","","230.5","resources/trios/L4T4A3.jpg","38","restless",0.5,0.6,0.5,0.265291296647512,"true"
"image-keyboard-response",417,548812,"0.0-3.135-1.135","5j336ma2s8tzl6m",60,"192.csv","","null","resources/maskTrios/BT4B.jpg","null","",NA,NA,NA,NA,""
"image-keyboard-response",418,550026,"0.0-3.135-2.135","5j336ma2s8tzl6m",60,"192.csv","","null","resources/images/coin2.png","null","",NA,NA,NA,NA,""
"image-keyboard-response",419,550271,"0.0-3.136-0.136","5j336ma2s8tzl6m",60,"192.csv","","244","resources/trios/L1T4A3.jpg","37","restless",0.5,0.6,0.5,0.929053747702858,"false"
"image-keyboard-response",420,550673,"0.0-3.136-1.136","5j336ma2s8tzl6m",60,"192.csv","","null","resources/maskTrios/L1BB.jpg","null","",NA,NA,NA,NA,""
"image-keyboard-response",421,551884,"0.0-3.136-2.136","5j336ma2s8tzl6m",60,"192.csv","","null","resources/images/fishbone.png","null","",NA,NA,NA,NA,""
"image-keyboard-response",422,552143,"0.0-3.137-0.137","5j336ma2s8tzl6m",60,"192.csv","","257.4000005722046","resources/trios/L1T1A2.jpg","39","restless",0.5,0.6,0.5,0.687887446152054,"false"
"image-keyboard-response",423,552557,"0.0-3.137-1.137","5j336ma2s8tzl6m",60,"192.csv","","null","resources/maskTrios/BBA2.jpg","null","",NA,NA,NA,NA,""
"image-keyboard-response",424,553764,"0.0-3.137-2.137","5j336ma2s8tzl6m",60,"192.csv","","null","resources/images/fishbone.png","null","",NA,NA,NA,NA,""
"image-keyboard-response",425,554020,"0.0-3.138-0.138","5j336ma2s8tzl6m",60,"192.csv","","255","resources/trios/L1T1A3.jpg","38","restless",0.5,0.6,0.5,0.216065510124363,"true"
"image-keyboard-response",426,554436,"0.0-3.138-1.138","5j336ma2s8tzl6m",60,"192.csv","","null","resources/maskTrios/BT1B.jpg","null","",NA,NA,NA,NA,""
"image-keyboard-response",427,555651,"0.0-3.138-2.138","5j336ma2s8tzl6m",60,"192.csv","","null","resources/images/coin2.png","null","",NA,NA,NA,NA,""
"image-keyboard-response",428,555921,"0.0-3.139-0.139","5j336ma2s8tzl6m",60,"192.csv","","267.69999980926514","resources/trios/L1T1A2.jpg","37","restless",0.5,0.6,0.5,0.584345194223447,"false"
"image-keyboard-response",429,556337,"0.0-3.139-1.139","5j336ma2s8tzl6m",60,"192.csv","","null","resources/maskTrios/L1BB.jpg","null","",NA,NA,NA,NA,""
"image-keyboard-response",430,557549,"0.0-3.139-2.139","5j336ma2s8tzl6m",60,"192.csv","","null","resources/images/fishbone.png","null","",NA,NA,NA,NA,""
"image-keyboard-response",431,557799,"0.0-3.140-0.140","5j336ma2s8tzl6m",60,"192.csv","","248.30000019073486","resources/trios/L4T4A3.jpg","38","restless",0.5,0.6,0.6,0.167484897730218,"true"
"image-keyboard-response",432,558210,"0.0-3.140-1.140","5j336ma2s8tzl6m",60,"192.csv","","null","resources/maskTrios/BT4B.jpg","null","",NA,NA,NA,NA,""
"image-keyboard-response",433,559428,"0.0-3.140-2.140","5j336ma2s8tzl6m",60,"192.csv","","null","resources/images/coin2.png","null","",NA,NA,NA,NA,""
"image-keyboard-response",434,559680,"0.0-3.141-0.141","5j336ma2s8tzl6m",60,"192.csv","","250.5","resources/trios/L4T1A3.jpg","39","restless",0.5,0.5,0.7,0.548789190755775,"true"
"image-keyboard-response",435,560104,"0.0-3.141-1.141","5j336ma2s8tzl6m",60,"192.csv","","null","resources/maskTrios/BBA3.jpg","null","",NA,NA,NA,NA,""
"image-keyboard-response",436,561317,"0.0-3.141-2.141","5j336ma2s8tzl6m",60,"192.csv","","null","resources/images/coin2.png","null","",NA,NA,NA,NA,""
"image-keyboard-response",437,561680,"0.0-3.142-0.142","5j336ma2s8tzl6m",60,"192.csv","","361.69999980926514","resources/trios/L4T4A3.jpg","38","restless",0.5,0.5,0.7,0.857213832374203,"false"
"image-keyboard-response",438,562104,"0.0-3.142-1.142","5j336ma2s8tzl6m",60,"192.csv","","null","resources/maskTrios/BT4B.jpg","null","",NA,NA,NA,NA,""
"image-keyboard-response",439,563328,"0.0-3.142-2.142","5j336ma2s8tzl6m",60,"192.csv","","null","resources/images/fishbone.png","null","",NA,NA,NA,NA,""
"image-keyboard-response",440,563595,"0.0-3.143-0.143","5j336ma2s8tzl6m",60,"192.csv","","265.3999996185303","resources/trios/L4T1A2.jpg","37","restless",0.5,0.5,0.8,0.700869983660374,"false"
"image-keyboard-response",441,564005,"0.0-3.143-1.143","5j336ma2s8tzl6m",60,"192.csv","","null","resources/maskTrios/L4BB.jpg","null","",NA,NA,NA,NA,""
"image-keyboard-response",442,565219,"0.0-3.143-2.143","5j336ma2s8tzl6m",60,"192.csv","","null","resources/images/fishbone.png","null","",NA,NA,NA,NA,""
"image-keyboard-response",443,565671,"0.0-3.144-0.144","5j336ma2s8tzl6m",60,"192.csv","","450.5999994277954","resources/trios/L1T1A2.jpg","39","restless",0.4,0.5,0.8,0.107089622117154,"true"
"image-keyboard-response",444,566089,"0.0-3.144-1.144","5j336ma2s8tzl6m",60,"192.csv","","null","resources/maskTrios/BBA2.jpg","null","",NA,NA,NA,NA,""
"image-keyboard-response",445,567308,"0.0-3.144-2.144","5j336ma2s8tzl6m",60,"192.csv","","null","resources/images/coin2.png","null","",NA,NA,NA,NA,""
"image-keyboard-response",446,567577,"0.0-3.145-0.145","5j336ma2s8tzl6m",60,"192.csv","","267.8999996185303","resources/trios/L4T4A2.jpg","38","restless",0.4,0.4,0.8,0.835112977769709,"false"
"image-keyboard-response",447,567986,"0.0-3.145-1.145","5j336ma2s8tzl6m",60,"192.csv","","null","resources/maskTrios/BT4B.jpg","null","",NA,NA,NA,NA,""
"image-keyboard-response",448,569195,"0.0-3.145-2.145","5j336ma2s8tzl6m",60,"192.csv","","null","resources/images/fishbone.png","null","",NA,NA,NA,NA,""
"image-keyboard-response",449,569849,"0.0-3.146-0.146","5j336ma2s8tzl6m",60,"192.csv","","652.8000001907349","resources/trios/L1T4A3.jpg","39","restless",0.4,0.3,0.7,0.548369203641274,"true"
"image-keyboard-response",450,570264,"0.0-3.146-1.146","5j336ma2s8tzl6m",60,"192.csv","","null","resources/maskTrios/BBA3.jpg","null","",NA,NA,NA,NA,""
"image-keyboard-response",451,571485,"0.0-3.146-2.146","5j336ma2s8tzl6m",60,"192.csv","","null","resources/images/coin2.png","null","",NA,NA,NA,NA,""
"image-keyboard-response",452,571790,"0.0-3.147-0.147","5j336ma2s8tzl6m",60,"192.csv","","303.0999994277954","resources/trios/L1T4A2.jpg","39","restless",0.4,0.3,0.7,0.766938261144648,"false"
"image-keyboard-response",453,572200,"0.0-3.147-1.147","5j336ma2s8tzl6m",60,"192.csv","","null","resources/maskTrios/BBA2.jpg","null","",NA,NA,NA,NA,""
"image-keyboard-response",454,573417,"0.0-3.147-2.147","5j336ma2s8tzl6m",60,"192.csv","","null","resources/images/fishbone.png","null","",NA,NA,NA,NA,""
"image-keyboard-response",455,573822,"0.0-3.148-0.148","5j336ma2s8tzl6m",60,"192.csv","","403.9000005722046","resources/trios/L1T1A2.jpg","38","restless",0.4,0.3,0.7,0.417105634858826,"false"
"image-keyboard-response",456,574232,"0.0-3.148-1.148","5j336ma2s8tzl6m",60,"192.csv","","null","resources/maskTrios/BT1B.jpg","null","",NA,NA,NA,NA,""
"image-keyboard-response",457,575453,"0.0-3.148-2.148","5j336ma2s8tzl6m",60,"192.csv","","null","resources/images/fishbone.png","null","",NA,NA,NA,NA,""
"image-keyboard-response",458,575690,"0.0-3.149-0.149","5j336ma2s8tzl6m",60,"192.csv","","235.80000019073486","resources/trios/L4T1A3.jpg","37","restless",0.3,0.3,0.7,0.159324956235214,"true"
"image-keyboard-response",459,576098,"0.0-3.149-1.149","5j336ma2s8tzl6m",60,"192.csv","","null","resources/maskTrios/L4BB.jpg","null","",NA,NA,NA,NA,""
"image-keyboard-response",460,577309,"0.0-3.149-2.149","5j336ma2s8tzl6m",60,"192.csv","","null","resources/images/coin2.png","null","",NA,NA,NA,NA,""
"image-keyboard-response",461,577608,"0.0-3.150-0.150","5j336ma2s8tzl6m",60,"192.csv","","298","resources/trios/L1T1A3.jpg","39","restless",0.3,0.3,0.7,0.628445603164235,"true"
"image-keyboard-response",462,578017,"0.0-3.150-1.150","5j336ma2s8tzl6m",60,"192.csv","","null","resources/maskTrios/BBA3.jpg","null","",NA,NA,NA,NA,""
"image-keyboard-response",463,579239,"0.0-3.150-2.150","5j336ma2s8tzl6m",60,"192.csv","","null","resources/images/coin2.png","null","",NA,NA,NA,NA,""
"image-keyboard-response",464,579513,"0.0-3.151-0.151","5j336ma2s8tzl6m",60,"192.csv","","272","resources/trios/L4T1A3.jpg","37","restless",0.3,0.3,0.7,0.310320516962889,"false"
"image-keyboard-response",465,579926,"0.0-3.151-1.151","5j336ma2s8tzl6m",60,"192.csv","","null","resources/maskTrios/L4BB.jpg","null","",NA,NA,NA,NA,""
"image-keyboard-response",466,581136,"0.0-3.151-2.151","5j336ma2s8tzl6m",60,"192.csv","","null","resources/images/fishbone.png","null","",NA,NA,NA,NA,""
"image-keyboard-response",467,581410,"0.0-3.152-0.152","5j336ma2s8tzl6m",60,"192.csv","","271.80000019073486","resources/trios/L4T1A3.jpg","38","restless",0.3,0.3,0.7,0.872956081419863,"false"
"image-keyboard-response",468,581818,"0.0-3.152-1.152","5j336ma2s8tzl6m",60,"192.csv","","null","resources/maskTrios/BT1B.jpg","null","",NA,NA,NA,NA,""
"image-keyboard-response",469,583039,"0.0-3.152-2.152","5j336ma2s8tzl6m",60,"192.csv","","null","resources/images/fishbone.png","null","",NA,NA,NA,NA,""
"image-keyboard-response",470,583291,"0.0-3.153-0.153","5j336ma2s8tzl6m",60,"192.csv","","249.5","resources/trios/L1T4A3.jpg","39","restless",0.3,0.3,0.7,0.897592444308034,"false"
"image-keyboard-response",471,583701,"0.0-3.153-1.153","5j336ma2s8tzl6m",60,"192.csv","","null","resources/maskTrios/BBA3.jpg","null","",NA,NA,NA,NA,""
"image-keyboard-response",472,584907,"0.0-3.153-2.153","5j336ma2s8tzl6m",60,"192.csv","","null","resources/images/fishbone.png","null","",NA,NA,NA,NA,""
"image-keyboard-response",473,585063,"0.0-3.154-0.154","5j336ma2s8tzl6m",60,"192.csv","","153.80000019073486","resources/trios/L1T1A3.jpg","37","restless",0.4,0.3,0.7,0.249198377254727,"true"
"image-keyboard-response",474,585484,"0.0-3.154-1.154","5j336ma2s8tzl6m",60,"192.csv","","null","resources/maskTrios/L1BB.jpg","null","",NA,NA,NA,NA,""
"image-keyboard-response",475,586698,"0.0-3.154-2.154","5j336ma2s8tzl6m",60,"192.csv","","null","resources/images/coin2.png","null","",NA,NA,NA,NA,""
"image-keyboard-response",476,586954,"0.0-3.155-0.155","5j336ma2s8tzl6m",60,"192.csv","","254.10000038146973","resources/trios/L4T1A2.jpg","38","restless",0.4,0.2,0.7,0.725072555180175,"false"
"image-keyboard-response",477,587364,"0.0-3.155-1.155","5j336ma2s8tzl6m",60,"192.csv","","null","resources/maskTrios/BT1B.jpg","null","",NA,NA,NA,NA,""
"image-keyboard-response",478,588571,"0.0-3.155-2.155","5j336ma2s8tzl6m",60,"192.csv","","null","resources/images/fishbone.png","null","",NA,NA,NA,NA,""
"image-keyboard-response",479,588795,"0.0-3.156-0.156","5j336ma2s8tzl6m",60,"192.csv","","222.39999961853027","resources/trios/L1T1A2.jpg","37","restless",0.4,0.2,0.6,0.90685191065295,"false"
"image-keyboard-response",480,589199,"0.0-3.156-1.156","5j336ma2s8tzl6m",60,"192.csv","","null","resources/maskTrios/L1BB.jpg","null","",NA,NA,NA,NA,""
"image-keyboard-response",481,590422,"0.0-3.156-2.156","5j336ma2s8tzl6m",60,"192.csv","","null","resources/images/fishbone.png","null","",NA,NA,NA,NA,""
"image-keyboard-response",482,590624,"0.0-3.157-0.157","5j336ma2s8tzl6m",60,"192.csv","","200","resources/trios/L1T4A2.jpg","39","restless",0.4,0.2,0.6,0.916725307158524,"false"
"image-keyboard-response",483,591042,"0.0-3.157-1.157","5j336ma2s8tzl6m",60,"192.csv","","null","resources/maskTrios/BBA2.jpg","null","",NA,NA,NA,NA,""
"image-keyboard-response",484,592258,"0.0-3.157-2.157","5j336ma2s8tzl6m",60,"192.csv","","null","resources/images/fishbone.png","null","",NA,NA,NA,NA,""
"image-keyboard-response",485,592517,"0.0-3.158-0.158","5j336ma2s8tzl6m",60,"192.csv","","257.19999980926514","resources/trios/L1T4A3.jpg","39","restless",0.4,0.1,0.6,0.607122232946887,"false"
"image-keyboard-response",486,592926,"0.0-3.158-1.158","5j336ma2s8tzl6m",60,"192.csv","","null","resources/maskTrios/BBA3.jpg","null","",NA,NA,NA,NA,""
"image-keyboard-response",487,594136,"0.0-3.158-2.158","5j336ma2s8tzl6m",60,"192.csv","","null","resources/images/fishbone.png","null","",NA,NA,NA,NA,""
"image-keyboard-response",488,594404,"0.0-3.159-0.159","5j336ma2s8tzl6m",60,"192.csv","","267.5","resources/trios/L1T1A2.jpg","38","restless",0.4,0.1,0.6,0.374894826754717,"false"
"image-keyboard-response",489,594814,"0.0-3.159-1.159","5j336ma2s8tzl6m",60,"192.csv","","null","resources/maskTrios/BT1B.jpg","null","",NA,NA,NA,NA,""
"image-keyboard-response",490,596027,"0.0-3.159-2.159","5j336ma2s8tzl6m",60,"192.csv","","null","resources/images/fishbone.png","null","",NA,NA,NA,NA,""
"image-keyboard-response",491,596264,"0.0-3.160-0.160","5j336ma2s8tzl6m",60,"192.csv","","234.5999994277954","resources/trios/L1T1A3.jpg","37","restless",0.4,0.1,0.6,0.271690291929547,"true"
"image-keyboard-response",492,596678,"0.0-3.160-1.160","5j336ma2s8tzl6m",60,"192.csv","","null","resources/maskTrios/L1BB.jpg","null","",NA,NA,NA,NA,""
"image-keyboard-response",493,597894,"0.0-3.160-2.160","5j336ma2s8tzl6m",60,"192.csv","","null","resources/images/coin2.png","null","",NA,NA,NA,NA,""
"image-keyboard-response",494,598249,"0.0-3.161-0.161","5j336ma2s8tzl6m",60,"192.csv","","352.70000076293945","resources/trios/L1T4A3.jpg","38","restless",0.4,0.1,0.6,0.427459030191689,"false"
"image-keyboard-response",495,598659,"0.0-3.161-1.161","5j336ma2s8tzl6m",60,"192.csv","","null","resources/maskTrios/BT4B.jpg","null","",NA,NA,NA,NA,""
"image-keyboard-response",496,599874,"0.0-3.161-2.161","5j336ma2s8tzl6m",60,"192.csv","","null","resources/images/fishbone.png","null","",NA,NA,NA,NA,""
"image-keyboard-response",497,600160,"0.0-3.162-0.162","5j336ma2s8tzl6m",60,"192.csv","","284.19999980926514","resources/trios/L4T4A3.jpg","37","restless",0.4,0.2,0.7,0.138651826694845,"true"
"image-keyboard-response",498,600581,"0.0-3.162-1.162","5j336ma2s8tzl6m",60,"192.csv","","null","resources/maskTrios/L4BB.jpg","null","",NA,NA,NA,NA,""
"image-keyboard-response",499,601800,"0.0-3.162-2.162","5j336ma2s8tzl6m",60,"192.csv","","null","resources/images/coin2.png","null","",NA,NA,NA,NA,""
"image-keyboard-response",500,602074,"0.0-3.163-0.163","5j336ma2s8tzl6m",60,"192.csv","","272.69999980926514","resources/trios/L1T4A3.jpg","37","restless",0.4,0.2,0.7,0.774027461047963,"false"
"image-keyboard-response",501,602496,"0.0-3.163-1.163","5j336ma2s8tzl6m",60,"192.csv","","null","resources/maskTrios/L1BB.jpg","null","",NA,NA,NA,NA,""
"image-keyboard-response",502,603718,"0.0-3.163-2.163","5j336ma2s8tzl6m",60,"192.csv","","null","resources/images/fishbone.png","null","",NA,NA,NA,NA,""
"image-keyboard-response",503,603928,"0.0-3.164-0.164","5j336ma2s8tzl6m",60,"192.csv","","208.60000038146973","resources/trios/L4T4A3.jpg","39","restless",0.4,0.2,0.7,0.392727629451672,"true"
"image-keyboard-response",504,604352,"0.0-3.164-1.164","5j336ma2s8tzl6m",60,"192.csv","","null","resources/maskTrios/BBA3.jpg","null","",NA,NA,NA,NA,""
"image-keyboard-response",505,605572,"0.0-3.164-2.164","5j336ma2s8tzl6m",60,"192.csv","","null","resources/images/coin2.png","null","",NA,NA,NA,NA,""
"image-keyboard-response",506,605895,"0.0-3.165-0.165","5j336ma2s8tzl6m",60,"192.csv","","320.69999980926514","resources/trios/L1T1A3.jpg","37","restless",0.4,0.2,0.7,0.425050410882694,"false"
"image-keyboard-response",507,606311,"0.0-3.165-1.165","5j336ma2s8tzl6m",60,"192.csv","","null","resources/maskTrios/L1BB.jpg","null","",NA,NA,NA,NA,""
"image-keyboard-response",508,607533,"0.0-3.165-2.165","5j336ma2s8tzl6m",60,"192.csv","","null","resources/images/fishbone.png","null","",NA,NA,NA,NA,""
"image-keyboard-response",509,607806,"0.0-3.166-0.166","5j336ma2s8tzl6m",60,"192.csv","","271","resources/trios/L4T4A2.jpg","38","restless",0.4,0.2,0.6,0.0240583175343607,"true"
"image-keyboard-response",510,608211,"0.0-3.166-1.166","5j336ma2s8tzl6m",60,"192.csv","","null","resources/maskTrios/BT4B.jpg","null","",NA,NA,NA,NA,""
"image-keyboard-response",511,609432,"0.0-3.166-2.166","5j336ma2s8tzl6m",60,"192.csv","","null","resources/images/coin2.png","null","",NA,NA,NA,NA,""
"image-keyboard-response",512,609694,"0.0-3.167-0.167","5j336ma2s8tzl6m",60,"192.csv","","260.3999996185303","resources/trios/L1T1A3.jpg","37","restless",0.4,0.2,0.6,0.821077767401362,"false"
"image-keyboard-response",513,610103,"0.0-3.167-1.167","5j336ma2s8tzl6m",60,"192.csv","","null","resources/maskTrios/L1BB.jpg","null","",NA,NA,NA,NA,""
"image-keyboard-response",514,611327,"0.0-3.167-2.167","5j336ma2s8tzl6m",60,"192.csv","","null","resources/images/fishbone.png","null","",NA,NA,NA,NA,""
"image-keyboard-response",515,611775,"0.0-3.168-0.168","5j336ma2s8tzl6m",60,"192.csv","","446.69999980926514","resources/trios/L1T4A2.jpg","38","restless",0.4,0.2,0.6,0.54536251871351,"false"
"image-keyboard-response",516,612200,"0.0-3.168-1.168","5j336ma2s8tzl6m",60,"192.csv","","null","resources/maskTrios/BT4B.jpg","null","",NA,NA,NA,NA,""
"image-keyboard-response",517,613421,"0.0-3.168-2.168","5j336ma2s8tzl6m",60,"192.csv","","null","resources/images/fishbone.png","null","",NA,NA,NA,NA,""
"image-keyboard-response",518,613710,"0.0-3.169-0.169","5j336ma2s8tzl6m",60,"192.csv","","287.79999923706055","resources/trios/L1T4A2.jpg","39","restless",0.4,0.2,0.6,0.146156859542037,"true"
"image-keyboard-response",519,614125,"0.0-3.169-1.169","5j336ma2s8tzl6m",60,"192.csv","","null","resources/maskTrios/BBA2.jpg","null","",NA,NA,NA,NA,""
"image-keyboard-response",520,615330,"0.0-3.169-2.169","5j336ma2s8tzl6m",60,"192.csv","","null","resources/images/coin2.png","null","",NA,NA,NA,NA,""
"image-keyboard-response",521,615595,"0.0-3.170-0.170","5j336ma2s8tzl6m",60,"192.csv","","263.19999980926514","resources/trios/L4T1A3.jpg","37","restless",0.4,0.2,0.6,0.195268850229259,"true"
"image-keyboard-response",522,616003,"0.0-3.170-1.170","5j336ma2s8tzl6m",60,"192.csv","","null","resources/maskTrios/L4BB.jpg","null","",NA,NA,NA,NA,""
"image-keyboard-response",523,617217,"0.0-3.170-2.170","5j336ma2s8tzl6m",60,"192.csv","","null","resources/images/coin2.png","null","",NA,NA,NA,NA,""
"image-keyboard-response",524,617501,"0.0-3.171-0.171","5j336ma2s8tzl6m",60,"192.csv","","282.4000005722046","resources/trios/L4T1A2.jpg","39","restless",0.5,0.2,0.6,0.20742153120406,"true"
"image-keyboard-response",525,617917,"0.0-3.171-1.171","5j336ma2s8tzl6m",60,"192.csv","","null","resources/maskTrios/BBA2.jpg","null","",NA,NA,NA,NA,""
"image-keyboard-response",526,619130,"0.0-3.171-2.171","5j336ma2s8tzl6m",60,"192.csv","","null","resources/images/coin2.png","null","",NA,NA,NA,NA,""
"image-keyboard-response",527,619403,"0.0-3.172-0.172","5j336ma2s8tzl6m",60,"192.csv","","270.8999996185303","resources/trios/L1T1A3.jpg","37","restless",0.5,0.3,0.6,0.879611443650892,"false"
"image-keyboard-response",528,619821,"0.0-3.172-1.172","5j336ma2s8tzl6m",60,"192.csv","","null","resources/maskTrios/L1BB.jpg","null","",NA,NA,NA,NA,""
"image-keyboard-response",529,621040,"0.0-3.172-2.172","5j336ma2s8tzl6m",60,"192.csv","","null","resources/images/fishbone.png","null","",NA,NA,NA,NA,""
"image-keyboard-response",530,621290,"0.0-3.173-0.173","5j336ma2s8tzl6m",60,"192.csv","","248.89999961853027","resources/trios/L4T4A3.jpg","38","restless",0.5,0.3,0.6,0.0591750631866168,"true"
"image-keyboard-response",531,621700,"0.0-3.173-1.173","5j336ma2s8tzl6m",60,"192.csv","","null","resources/maskTrios/BT4B.jpg","null","",NA,NA,NA,NA,""
"image-keyboard-response",532,622908,"0.0-3.173-2.173","5j336ma2s8tzl6m",60,"192.csv","","null","resources/images/coin2.png","null","",NA,NA,NA,NA,""
"image-keyboard-response",533,623189,"0.0-3.174-0.174","5j336ma2s8tzl6m",60,"192.csv","","279.5","resources/trios/L1T4A2.jpg","39","restless",0.5,0.4,0.6,0.978818638900647,"false"
"image-keyboard-response",534,623594,"0.0-3.174-1.174","5j336ma2s8tzl6m",60,"192.csv","","null","resources/maskTrios/BBA2.jpg","null","",NA,NA,NA,NA,""
"image-keyboard-response",535,624812,"0.0-3.174-2.174","5j336ma2s8tzl6m",60,"192.csv","","null","resources/images/fishbone.png","null","",NA,NA,NA,NA,""
"image-keyboard-response",536,625013,"0.0-3.175-0.175","5j336ma2s8tzl6m",60,"192.csv","","199.5","resources/trios/L1T4A3.jpg","38","restless",0.5,0.4,0.6,0.209789136375069,"true"
"image-keyboard-response",537,625430,"0.0-3.175-1.175","5j336ma2s8tzl6m",60,"192.csv","","null","resources/maskTrios/BT4B.jpg","null","",NA,NA,NA,NA,""
"image-keyboard-response",538,626642,"0.0-3.175-2.175","5j336ma2s8tzl6m",60,"192.csv","","null","resources/images/coin2.png","null","",NA,NA,NA,NA,""
"image-keyboard-response",539,627079,"0.0-3.176-0.176","5j336ma2s8tzl6m",60,"192.csv","","436","resources/trios/L1T1A3.jpg","37","restless",0.6,0.4,0.6,0.765668471589388,"false"
"image-keyboard-response",540,627496,"0.0-3.176-1.176","5j336ma2s8tzl6m",60,"192.csv","","null","resources/maskTrios/L1BB.jpg","null","",NA,NA,NA,NA,""
"image-keyboard-response",541,628710,"0.0-3.176-2.176","5j336ma2s8tzl6m",60,"192.csv","","null","resources/images/fishbone.png","null","",NA,NA,NA,NA,""
"image-keyboard-response",542,628929,"0.0-3.177-0.177","5j336ma2s8tzl6m",60,"192.csv","","217.10000038146973","resources/trios/L4T4A2.jpg","38","restless",0.6,0.4,0.6,0.397387518563156,"true"
"image-keyboard-response",543,629347,"0.0-3.177-1.177","5j336ma2s8tzl6m",60,"192.csv","","null","resources/maskTrios/BT4B.jpg","null","",NA,NA,NA,NA,""
"image-keyboard-response",544,630560,"0.0-3.177-2.177","5j336ma2s8tzl6m",60,"192.csv","","null","resources/images/coin2.png","null","",NA,NA,NA,NA,""
"image-keyboard-response",545,630665,"0.0-3.178-0.178","5j336ma2s8tzl6m",60,"192.csv","","104","resources/trios/L1T4A3.jpg","38","restless",0.6,0.4,0.6,0.394612672164722,"true"
"image-keyboard-response",546,631077,"0.0-3.178-1.178","5j336ma2s8tzl6m",60,"192.csv","","null","resources/maskTrios/BT4B.jpg","null","",NA,NA,NA,NA,""
"image-keyboard-response",547,632296,"0.0-3.178-2.178","5j336ma2s8tzl6m",60,"192.csv","","null","resources/images/coin2.png","null","",NA,NA,NA,NA,""
"image-keyboard-response",548,632524,"0.0-3.179-0.179","5j336ma2s8tzl6m",60,"192.csv","","226","resources/trios/L1T4A2.jpg","38","restless",0.6,0.4,0.6,0.746490594125169,"false"
"image-keyboard-response",549,632933,"0.0-3.179-1.179","5j336ma2s8tzl6m",60,"192.csv","","null","resources/maskTrios/BT4B.jpg","null","",NA,NA,NA,NA,""
"image-keyboard-response",550,634150,"0.0-3.179-2.179","5j336ma2s8tzl6m",60,"192.csv","","null","resources/images/fishbone.png","null","",NA,NA,NA,NA,""
"image-keyboard-response",551,634474,"0.0-3.180-0.180","5j336ma2s8tzl6m",60,"192.csv","","322.0999994277954","resources/trios/L4T1A3.jpg","39","restless",0.6,0.4,0.6,0.378372836130665,"true"
"image-keyboard-response",552,634883,"0.0-3.180-1.180","5j336ma2s8tzl6m",60,"192.csv","","null","resources/maskTrios/BBA3.jpg","null","",NA,NA,NA,NA,""
"image-keyboard-response",553,636097,"0.0-3.180-2.180","5j336ma2s8tzl6m",60,"192.csv","","null","resources/images/coin2.png","null","",NA,NA,NA,NA,""
"image-keyboard-response",554,636377,"0.0-3.181-0.181","5j336ma2s8tzl6m",60,"192.csv","","277.80000019073486","resources/trios/L4T1A2.jpg","37","restless",0.6,0.4,0.6,0.622540599319829,"false"
"image-keyboard-response",555,636787,"0.0-3.181-1.181","5j336ma2s8tzl6m",60,"192.csv","","null","resources/maskTrios/L4BB.jpg","null","",NA,NA,NA,NA,""
"image-keyboard-response",556,637994,"0.0-3.181-2.181","5j336ma2s8tzl6m",60,"192.csv","","null","resources/images/fishbone.png","null","",NA,NA,NA,NA,""
"image-keyboard-response",557,638087,"0.0-3.182-0.182","5j336ma2s8tzl6m",60,"192.csv","","90.89999961853027","resources/trios/L1T1A3.jpg","38","restless",0.6,0.4,0.6,0.381023489828203,"true"
"image-keyboard-response",558,638494,"0.0-3.182-1.182","5j336ma2s8tzl6m",60,"192.csv","","null","resources/maskTrios/BT1B.jpg","null","",NA,NA,NA,NA,""
"image-keyboard-response",559,639709,"0.0-3.182-2.182","5j336ma2s8tzl6m",60,"192.csv","","null","resources/images/coin2.png","null","",NA,NA,NA,NA,""
"image-keyboard-response",560,639956,"0.0-3.183-0.183","5j336ma2s8tzl6m",60,"192.csv","","245.9000005722046","resources/trios/L1T4A2.jpg","39","restless",0.6,0.4,0.6,0.424599077296298,"true"
"image-keyboard-response",561,640364,"0.0-3.183-1.183","5j336ma2s8tzl6m",60,"192.csv","","null","resources/maskTrios/BBA2.jpg","null","",NA,NA,NA,NA,""
"image-keyboard-response",562,641571,"0.0-3.183-2.183","5j336ma2s8tzl6m",60,"192.csv","","null","resources/images/coin2.png","null","",NA,NA,NA,NA,""
"image-keyboard-response",563,641811,"0.0-3.184-0.184","5j336ma2s8tzl6m",60,"192.csv","","238.30000019073486","resources/trios/L4T1A2.jpg","38","restless",0.7,0.4,0.6,0.18857749009638,"true"
"image-keyboard-response",564,642226,"0.0-3.184-1.184","5j336ma2s8tzl6m",60,"192.csv","","null","resources/maskTrios/BT1B.jpg","null","",NA,NA,NA,NA,""
"image-keyboard-response",565,643445,"0.0-3.184-2.184","5j336ma2s8tzl6m",60,"192.csv","","null","resources/images/coin2.png","null","",NA,NA,NA,NA,""
"image-keyboard-response",566,643734,"0.0-3.185-0.185","5j336ma2s8tzl6m",60,"192.csv","","287.19999980926514","resources/trios/L4T1A3.jpg","39","restless",0.7,0.4,0.6,0.924437169116637,"false"
"image-keyboard-response",567,644143,"0.0-3.185-1.185","5j336ma2s8tzl6m",60,"192.csv","","null","resources/maskTrios/BBA3.jpg","null","",NA,NA,NA,NA,""
"image-keyboard-response",568,645354,"0.0-3.185-2.185","5j336ma2s8tzl6m",60,"192.csv","","null","resources/images/fishbone.png","null","",NA,NA,NA,NA,""
"image-keyboard-response",569,645633,"0.0-3.186-0.186","5j336ma2s8tzl6m",60,"192.csv","","278","resources/trios/L4T4A2.jpg","38","restless",0.7,0.4,0.6,0.141670275658781,"true"
"image-keyboard-response",570,646048,"0.0-3.186-1.186","5j336ma2s8tzl6m",60,"192.csv","","null","resources/maskTrios/BT4B.jpg","null","",NA,NA,NA,NA,""
"image-keyboard-response",571,647257,"0.0-3.186-2.186","5j336ma2s8tzl6m",60,"192.csv","","null","resources/images/coin2.png","null","",NA,NA,NA,NA,""
"image-keyboard-response",572,647639,"0.0-3.187-0.187","5j336ma2s8tzl6m",60,"192.csv","","380","resources/trios/L1T1A2.jpg","37","restless",0.7,0.4,0.6,0.240888168713798,"true"
"image-keyboard-response",573,648054,"0.0-3.187-1.187","5j336ma2s8tzl6m",60,"192.csv","","null","resources/maskTrios/L1BB.jpg","null","",NA,NA,NA,NA,""
"image-keyboard-response",574,649264,"0.0-3.187-2.187","5j336ma2s8tzl6m",60,"192.csv","","null","resources/images/coin2.png","null","",NA,NA,NA,NA,""
"image-keyboard-response",575,649520,"0.0-3.188-0.188","5j336ma2s8tzl6m",60,"192.csv","","254.4000005722046","resources/trios/L4T1A2.jpg","38","restless",0.7,0.4,0.7,0.443436590829705,"false"
"image-keyboard-response",576,649936,"0.0-3.188-1.188","5j336ma2s8tzl6m",60,"192.csv","","null","resources/maskTrios/BT1B.jpg","null","",NA,NA,NA,NA,""
"image-keyboard-response",577,651157,"0.0-3.188-2.188","5j336ma2s8tzl6m",60,"192.csv","","null","resources/images/fishbone.png","null","",NA,NA,NA,NA,""
"image-keyboard-response",578,651661,"0.0-3.189-0.189","5j336ma2s8tzl6m",60,"192.csv","","501.80000019073486","resources/trios/L4T4A2.jpg","37","restless",0.7,0.4,0.7,0.900191444940989,"false"
"image-keyboard-response",579,652073,"0.0-3.189-1.189","5j336ma2s8tzl6m",60,"192.csv","","null","resources/maskTrios/L4BB.jpg","null","",NA,NA,NA,NA,""
"image-keyboard-response",580,653289,"0.0-3.189-2.189","5j336ma2s8tzl6m",60,"192.csv","","null","resources/images/fishbone.png","null","",NA,NA,NA,NA,""
"image-keyboard-response",581,653596,"0.0-3.190-0.190","5j336ma2s8tzl6m",60,"192.csv","","305.6000003814697","resources/trios/L4T1A3.jpg","38","restless",0.7,0.4,0.7,0.293971238131826,"true"
"image-keyboard-response",582,654006,"0.0-3.190-1.190","5j336ma2s8tzl6m",60,"192.csv","","null","resources/maskTrios/BT1B.jpg","null","",NA,NA,NA,NA,""
"image-keyboard-response",583,655222,"0.0-3.190-2.190","5j336ma2s8tzl6m",60,"192.csv","","null","resources/images/coin2.png","null","",NA,NA,NA,NA,""
"image-keyboard-response",584,656572,"0.0-3.191-0.191","5j336ma2s8tzl6m",60,"192.csv","","1348.1000003814697","resources/trios/L4T4A3.jpg","39","restless",0.7,0.4,0.7,0.904325870109916,"false"
"image-keyboard-response",585,656981,"0.0-3.191-1.191","5j336ma2s8tzl6m",60,"192.csv","","null","resources/maskTrios/BBA3.jpg","null","",NA,NA,NA,NA,""
"image-keyboard-response",586,658187,"0.0-3.191-2.191","5j336ma2s8tzl6m",60,"192.csv","","null","resources/images/fishbone.png","null","",NA,NA,NA,NA,""
"image-keyboard-response",587,658482,"0.0-3.192-0.192","5j336ma2s8tzl6m",60,"192.csv","","292.80000019073486","resources/trios/L4T1A3.jpg","38","restless",0.6,0.4,0.6,0.892271377585323,"false"
"image-keyboard-response",588,658902,"0.0-3.192-1.192","5j336ma2s8tzl6m",60,"192.csv","","null","resources/maskTrios/BT1B.jpg","null","",NA,NA,NA,NA,""
"image-keyboard-response",589,660114,"0.0-3.192-2.192","5j336ma2s8tzl6m",60,"192.csv","","null","resources/images/fishbone.png","null","",NA,NA,NA,NA,""
"image-keyboard-response",590,660299,"0.0-3.193-0.193","5j336ma2s8tzl6m",60,"192.csv","","183.69999980926514","resources/trios/L4T1A2.jpg","37","restless",0.6,0.4,0.6,0.730857094391946,"false"
"image-keyboard-response",591,660717,"0.0-3.193-1.193","5j336ma2s8tzl6m",60,"192.csv","","null","resources/maskTrios/L4BB.jpg","null","",NA,NA,NA,NA,""
"image-keyboard-response",592,661931,"0.0-3.193-2.193","5j336ma2s8tzl6m",60,"192.csv","","null","resources/images/fishbone.png","null","",NA,NA,NA,NA,""
"image-keyboard-response",593,662120,"0.0-3.194-0.194","5j336ma2s8tzl6m",60,"192.csv","","187.29999923706055","resources/trios/L4T1A3.jpg","38","restless",0.6,0.5,0.6,0.873647776599752,"false"
"image-keyboard-response",594,662540,"0.0-3.194-1.194","5j336ma2s8tzl6m",60,"192.csv","","null","resources/maskTrios/BT1B.jpg","null","",NA,NA,NA,NA,""
"image-keyboard-response",595,663756,"0.0-3.194-2.194","5j336ma2s8tzl6m",60,"192.csv","","null","resources/images/fishbone.png","null","",NA,NA,NA,NA,""
"image-keyboard-response",596,663969,"0.0-3.195-0.195","5j336ma2s8tzl6m",60,"192.csv","","212","resources/trios/L4T1A2.jpg","38","restless",0.6,0.5,0.6,0.79525481830046,"false"
"image-keyboard-response",597,664386,"0.0-3.195-1.195","5j336ma2s8tzl6m",60,"192.csv","","null","resources/maskTrios/BT1B.jpg","null","",NA,NA,NA,NA,""
"image-keyboard-response",598,665604,"0.0-3.195-2.195","5j336ma2s8tzl6m",60,"192.csv","","null","resources/images/fishbone.png","null","",NA,NA,NA,NA,""
"image-keyboard-response",599,665845,"0.0-3.196-0.196","5j336ma2s8tzl6m",60,"192.csv","","239.69999980926514","resources/trios/L4T1A3.jpg","38","restless",0.6,0.5,0.6,0.639119465160312,"false"
"image-keyboard-response",600,666252,"0.0-3.196-1.196","5j336ma2s8tzl6m",60,"192.csv","","null","resources/maskTrios/BT1B.jpg","null","",NA,NA,NA,NA,""
"image-keyboard-response",601,667465,"0.0-3.196-2.196","5j336ma2s8tzl6m",60,"192.csv","","null","resources/images/fishbone.png","null","",NA,NA,NA,NA,""
"image-keyboard-response",602,667731,"0.0-3.197-0.197","5j336ma2s8tzl6m",60,"192.csv","","264.19999980926514","resources/trios/L4T4A2.jpg","39","restless",0.6,0.5,0.6,0.00366890684975529,"true"
"image-keyboard-response",603,668149,"0.0-3.197-1.197","5j336ma2s8tzl6m",60,"192.csv","","null","resources/maskTrios/BBA2.jpg","null","",NA,NA,NA,NA,""
"image-keyboard-response",604,669354,"0.0-3.197-2.197","5j336ma2s8tzl6m",60,"192.csv","","null","resources/images/coin2.png","null","",NA,NA,NA,NA,""
"image-keyboard-response",605,669635,"0.0-3.198-0.198","5j336ma2s8tzl6m",60,"192.csv","","279.29999923706055","resources/trios/L1T4A3.jpg","37","restless",0.6,0.5,0.6,0.381362848117827,"true"
"image-keyboard-response",606,670052,"0.0-3.198-1.198","5j336ma2s8tzl6m",60,"192.csv","","null","resources/maskTrios/L1BB.jpg","null","",NA,NA,NA,NA,""
"image-keyboard-response",607,671262,"0.0-3.198-2.198","5j336ma2s8tzl6m",60,"192.csv","","null","resources/images/coin2.png","null","",NA,NA,NA,NA,""
"image-keyboard-response",608,671546,"0.0-3.199-0.199","5j336ma2s8tzl6m",60,"192.csv","","282","resources/trios/L1T1A2.jpg","39","restless",0.5,0.5,0.6,0.0538568634472434,"true"
"image-keyboard-response",609,671956,"0.0-3.199-1.199","5j336ma2s8tzl6m",60,"192.csv","","null","resources/maskTrios/BBA2.jpg","null","",NA,NA,NA,NA,""
