"trial_type","trial_index","time_elapsed","internal_node_id","subject","participantCode","walkNumber","success","rt","stimulus","key_press","test_part","leftProb","midProb","rightProb","generatedNum","correct"
"pavlovia",0,1032,"0.0-0.0","67rvv46w9pvhn48",454,"160.csv","","","","","",NA,NA,NA,NA,""
"fullscreen",1,4000,"0.0-1.0","67rvv46w9pvhn48",454,"160.csv","true","","","","",NA,NA,NA,NA,""
"html-keyboard-response",2,16823,"0.0-2.0-0.0","67rvv46w9pvhn48",454,"160.csv","","12821.800000190735","<p><font size='6'>Arrrgh!</p></font><p>Can you be the best pirate? Try to find lots of gold! But beware, some islands have more gold than others, and over time, the island with the most gold may change. Can YOU figure it out? </p><font size='6'>GOOD LUCK, CAPTAIN!!!</font><p>Press any key to begin</p>","32","",NA,NA,NA,NA,""
"image-keyboard-response",3,19830,"0.0-2.0-1.0","67rvv46w9pvhn48",454,"160.csv","","null","resources/image_sets/111.png","null","",NA,NA,NA,NA,""
"image-keyboard-response",4,23667,"0.0-2.0-2.0","67rvv46w9pvhn48",454,"160.csv","","3835.199999809265","resources/image_sets/left_highlight.png","37","",NA,NA,NA,NA,""
"image-keyboard-response",5,25086,"0.0-2.0-3.0","67rvv46w9pvhn48",454,"160.csv","","1416.5999999046326","resources/image_sets/mid_highlight.png","38","",NA,NA,NA,NA,""
"image-keyboard-response",6,26282,"0.0-2.0-4.0","67rvv46w9pvhn48",454,"160.csv","","1195","resources/image_sets/right_highlight.png","39","",NA,NA,NA,NA,""
"image-keyboard-response",7,28517,"0.0-2.0-5.0","67rvv46w9pvhn48",454,"160.csv","","2233.5","resources/image_sets/111.png","13","",NA,NA,NA,NA,""
"image-keyboard-response",8,30809,"0.0-2.0-6.0","67rvv46w9pvhn48",454,"160.csv","","2291.5","resources/images/coin2.png","13","",NA,NA,NA,NA,""
"image-keyboard-response",9,32406,"0.0-2.0-7.0","67rvv46w9pvhn48",454,"160.csv","","1595.5999999046326","resources/images/fishbone.png","13","",NA,NA,NA,NA,""
"html-keyboard-response",10,36931,"0.0-2.0-8.0","67rvv46w9pvhn48",454,"160.csv","","4524.200000047684","<p>Your first journey will be a long one, but you will get a well deserved break at the end</p><p>After the break you will have four more journeys, but each will be much shorter than the first, and you will have breaks in between each</p><p>Press Enter to begin</p>","13","",NA,NA,NA,NA,""
"image-keyboard-response",11,38216,"0.0-3.0-0.0","67rvv46w9pvhn48",454,"160.csv","","1283.5999999046326","resources/trios/L1T1A3.jpg","37","restless",0.9,0.7,0.3,0.675572171810791,"true"
"image-keyboard-response",12,38620,"0.0-3.0-1.0","67rvv46w9pvhn48",454,"160.csv","","null","resources/maskTrios/L1BB.jpg","null","",NA,NA,NA,NA,""
"image-keyboard-response",13,39830,"0.0-3.0-2.0","67rvv46w9pvhn48",454,"160.csv","","null","resources/images/coin2.png","null","",NA,NA,NA,NA,""
"image-keyboard-response",14,41067,"0.0-3.1-0.1","67rvv46w9pvhn48",454,"160.csv","","1234.4000000953674","resources/trios/L2T2A3.jpg","38","restless",0.8,0.7,0.3,0.450791868160063,"true"
"image-keyboard-response",15,41480,"0.0-3.1-1.1","67rvv46w9pvhn48",454,"160.csv","","null","resources/maskTrios/BT2B.jpg","null","",NA,NA,NA,NA,""
"image-keyboard-response",16,42684,"0.0-3.1-2.1","67rvv46w9pvhn48",454,"160.csv","","null","resources/images/coin2.png","null","",NA,NA,NA,NA,""
"image-keyboard-response",17,44185,"0.0-3.2-0.2","67rvv46w9pvhn48",454,"160.csv","","1498.5","resources/trios/L1T2A2.jpg","38","restless",0.8,0.7,0.3,0.273172146812235,"true"
"image-keyboard-response",18,44599,"0.0-3.2-1.2","67rvv46w9pvhn48",454,"160.csv","","null","resources/maskTrios/BT2B.jpg","null","",NA,NA,NA,NA,""
"image-keyboard-response",19,45806,"0.0-3.2-2.2","67rvv46w9pvhn48",454,"160.csv","","null","resources/images/coin2.png","null","",NA,NA,NA,NA,""
"image-keyboard-response",20,46650,"0.0-3.3-0.3","67rvv46w9pvhn48",454,"160.csv","","842.4000000953674","resources/trios/L2T2A2.jpg","39","restless",0.7,0.7,0.2,0.578784875601581,"false"
"image-keyboard-response",21,47060,"0.0-3.3-1.3","67rvv46w9pvhn48",454,"160.csv","","null","resources/maskTrios/BBA2.jpg","null","",NA,NA,NA,NA,""
"image-keyboard-response",22,48272,"0.0-3.3-2.3","67rvv46w9pvhn48",454,"160.csv","","null","resources/images/fishbone.png","null","",NA,NA,NA,NA,""
"image-keyboard-response",23,48727,"0.0-3.4-0.4","67rvv46w9pvhn48",454,"160.csv","","453.10000014305115","resources/trios/L2T2A3.jpg","37","restless",0.7,0.7,0.1,0.000476362188291057,"true"
"image-keyboard-response",24,49134,"0.0-3.4-1.4","67rvv46w9pvhn48",454,"160.csv","","null","resources/maskTrios/L2BB.jpg","null","",NA,NA,NA,NA,""
"image-keyboard-response",25,50340,"0.0-3.4-2.4","67rvv46w9pvhn48",454,"160.csv","","null","resources/images/coin2.png","null","",NA,NA,NA,NA,""
"image-keyboard-response",26,50907,"0.0-3.5-0.5","67rvv46w9pvhn48",454,"160.csv","","564.5","resources/trios/L2T1A2.jpg","38","restless",0.7,0.8,0.1,0.476164050009576,"true"
"image-keyboard-response",27,51320,"0.0-3.5-1.5","67rvv46w9pvhn48",454,"160.csv","","null","resources/maskTrios/BT1B.jpg","null","",NA,NA,NA,NA,""
"image-keyboard-response",28,52527,"0.0-3.5-2.5","67rvv46w9pvhn48",454,"160.csv","","null","resources/images/coin2.png","null","",NA,NA,NA,NA,""
"image-keyboard-response",29,53088,"0.0-3.6-0.6","67rvv46w9pvhn48",454,"160.csv","","559.3999998569489","resources/trios/L2T1A3.jpg","37","restless",0.7,0.8,0.1,0.946457659508195,"false"
"image-keyboard-response",30,53496,"0.0-3.6-1.6","67rvv46w9pvhn48",454,"160.csv","","null","resources/maskTrios/L2BB.jpg","null","",NA,NA,NA,NA,""
"image-keyboard-response",31,54699,"0.0-3.6-2.6","67rvv46w9pvhn48",454,"160.csv","","null","resources/images/fishbone.png","null","",NA,NA,NA,NA,""
"image-keyboard-response",32,56576,"0.0-3.7-0.7","67rvv46w9pvhn48",454,"160.csv","","1875.2000000476837","resources/trios/L1T2A3.jpg","38","restless",0.7,0.8,0.1,0.221280074680395,"true"
"image-keyboard-response",33,56980,"0.0-3.7-1.7","67rvv46w9pvhn48",454,"160.csv","","null","resources/maskTrios/BT2B.jpg","null","",NA,NA,NA,NA,""
"image-keyboard-response",34,58188,"0.0-3.7-2.7","67rvv46w9pvhn48",454,"160.csv","","null","resources/images/coin2.png","null","",NA,NA,NA,NA,""
"image-keyboard-response",35,58934,"0.0-3.8-0.8","67rvv46w9pvhn48",454,"160.csv","","744.0999999046326","resources/trios/L2T1A3.jpg","39","restless",0.7,0.7,0.1,0.954085832039452,"false"
"image-keyboard-response",36,59341,"0.0-3.8-1.8","67rvv46w9pvhn48",454,"160.csv","","null","resources/maskTrios/BBA3.jpg","null","",NA,NA,NA,NA,""
"image-keyboard-response",37,60549,"0.0-3.8-2.8","67rvv46w9pvhn48",454,"160.csv","","null","resources/images/fishbone.png","null","",NA,NA,NA,NA,""
"image-keyboard-response",38,61630,"0.0-3.9-0.9","67rvv46w9pvhn48",454,"160.csv","","1079.2999999523163","resources/trios/L2T1A2.jpg","38","restless",0.7,0.7,0.1,0.128828188510052,"true"
"image-keyboard-response",39,62035,"0.0-3.9-1.9","67rvv46w9pvhn48",454,"160.csv","","null","resources/maskTrios/BT1B.jpg","null","",NA,NA,NA,NA,""
"image-keyboard-response",40,63247,"0.0-3.9-2.9","67rvv46w9pvhn48",454,"160.csv","","null","resources/images/coin2.png","null","",NA,NA,NA,NA,""
"image-keyboard-response",41,63952,"0.0-3.10-0.10","67rvv46w9pvhn48",454,"160.csv","","702.8999998569489","resources/trios/L2T2A3.jpg","37","restless",0.7,0.7,0.1,0.106694548021057,"true"
"image-keyboard-response",42,64359,"0.0-3.10-1.10","67rvv46w9pvhn48",454,"160.csv","","null","resources/maskTrios/L2BB.jpg","null","",NA,NA,NA,NA,""
"image-keyboard-response",43,65563,"0.0-3.10-2.10","67rvv46w9pvhn48",454,"160.csv","","null","resources/images/coin2.png","null","",NA,NA,NA,NA,""
"image-keyboard-response",44,66051,"0.0-3.11-0.11","67rvv46w9pvhn48",454,"160.csv","","485.59999990463257","resources/trios/L1T1A2.jpg","38","restless",0.7,0.7,0.2,0.0920786234085718,"true"
"image-keyboard-response",45,66463,"0.0-3.11-1.11","67rvv46w9pvhn48",454,"160.csv","","null","resources/maskTrios/BT1B.jpg","null","",NA,NA,NA,NA,""
"image-keyboard-response",46,67671,"0.0-3.11-2.11","67rvv46w9pvhn48",454,"160.csv","","null","resources/images/coin2.png","null","",NA,NA,NA,NA,""
"image-keyboard-response",47,68280,"0.0-3.12-0.12","67rvv46w9pvhn48",454,"160.csv","","606.7000000476837","resources/trios/L2T2A3.jpg","37","restless",0.7,0.7,0.2,0.681473276647873,"true"
"image-keyboard-response",48,68684,"0.0-3.12-1.12","67rvv46w9pvhn48",454,"160.csv","","null","resources/maskTrios/L2BB.jpg","null","",NA,NA,NA,NA,""
"image-keyboard-response",49,69895,"0.0-3.12-2.12","67rvv46w9pvhn48",454,"160.csv","","null","resources/images/coin2.png","null","",NA,NA,NA,NA,""
"image-keyboard-response",50,70325,"0.0-3.13-0.13","67rvv46w9pvhn48",454,"160.csv","","428.39999985694885","resources/trios/L2T2A3.jpg","39","restless",0.7,0.7,0.2,0.790418858930143,"false"
"image-keyboard-response",51,70735,"0.0-3.13-1.13","67rvv46w9pvhn48",454,"160.csv","","null","resources/maskTrios/BBA3.jpg","null","",NA,NA,NA,NA,""
"image-keyboard-response",52,71943,"0.0-3.13-2.13","67rvv46w9pvhn48",454,"160.csv","","null","resources/images/fishbone.png","null","",NA,NA,NA,NA,""
"image-keyboard-response",53,72533,"0.0-3.14-0.14","67rvv46w9pvhn48",454,"160.csv","","587.4000000953674","resources/trios/L2T1A3.jpg","38","restless",0.7,0.8,0.2,0.217478767480708,"true"
"image-keyboard-response",54,72943,"0.0-3.14-1.14","67rvv46w9pvhn48",454,"160.csv","","null","resources/maskTrios/BT1B.jpg","null","",NA,NA,NA,NA,""
"image-keyboard-response",55,74148,"0.0-3.14-2.14","67rvv46w9pvhn48",454,"160.csv","","null","resources/images/coin2.png","null","",NA,NA,NA,NA,""
"image-keyboard-response",56,74635,"0.0-3.15-0.15","67rvv46w9pvhn48",454,"160.csv","","484.89999985694885","resources/trios/L2T1A3.jpg","38","restless",0.7,0.8,0.2,0.510866701132591,"true"
"image-keyboard-response",57,75042,"0.0-3.15-1.15","67rvv46w9pvhn48",454,"160.csv","","null","resources/maskTrios/BT1B.jpg","null","",NA,NA,NA,NA,""
"image-keyboard-response",58,76250,"0.0-3.15-2.15","67rvv46w9pvhn48",454,"160.csv","","null","resources/images/coin2.png","null","",NA,NA,NA,NA,""
"image-keyboard-response",59,76774,"0.0-3.16-0.16","67rvv46w9pvhn48",454,"160.csv","","522.5","resources/trios/L1T1A2.jpg","39","restless",0.7,0.8,0.3,0.327966415600723,"false"
"image-keyboard-response",60,77182,"0.0-3.16-1.16","67rvv46w9pvhn48",454,"160.csv","","null","resources/maskTrios/BBA2.jpg","null","",NA,NA,NA,NA,""
"image-keyboard-response",61,78387,"0.0-3.16-2.16","67rvv46w9pvhn48",454,"160.csv","","null","resources/images/fishbone.png","null","",NA,NA,NA,NA,""
"image-keyboard-response",62,78783,"0.0-3.17-0.17","67rvv46w9pvhn48",454,"160.csv","","393.2000000476837","resources/trios/L1T2A3.jpg","37","restless",0.7,0.8,0.3,0.0273074345397806,"true"
"image-keyboard-response",63,79187,"0.0-3.17-1.17","67rvv46w9pvhn48",454,"160.csv","","null","resources/maskTrios/L1BB.jpg","null","",NA,NA,NA,NA,""
"image-keyboard-response",64,80399,"0.0-3.17-2.17","67rvv46w9pvhn48",454,"160.csv","","null","resources/images/coin2.png","null","",NA,NA,NA,NA,""
"image-keyboard-response",65,80744,"0.0-3.18-0.18","67rvv46w9pvhn48",454,"160.csv","","343.2000000476837","resources/trios/L2T1A3.jpg","38","restless",0.7,0.8,0.3,0.178450220376412,"true"
"image-keyboard-response",66,81147,"0.0-3.18-1.18","67rvv46w9pvhn48",454,"160.csv","","null","resources/maskTrios/BT1B.jpg","null","",NA,NA,NA,NA,""
"image-keyboard-response",67,82354,"0.0-3.18-2.18","67rvv46w9pvhn48",454,"160.csv","","null","resources/images/coin2.png","null","",NA,NA,NA,NA,""
"image-keyboard-response",68,82700,"0.0-3.19-0.19","67rvv46w9pvhn48",454,"160.csv","","344.90000009536743","resources/trios/L2T1A2.jpg","38","restless",0.7,0.8,0.3,0.420904003445608,"true"
"image-keyboard-response",69,83109,"0.0-3.19-1.19","67rvv46w9pvhn48",454,"160.csv","","null","resources/maskTrios/BT1B.jpg","null","",NA,NA,NA,NA,""
"image-keyboard-response",70,84315,"0.0-3.19-2.19","67rvv46w9pvhn48",454,"160.csv","","null","resources/images/coin2.png","null","",NA,NA,NA,NA,""
"image-keyboard-response",71,84609,"0.0-3.20-0.20","67rvv46w9pvhn48",454,"160.csv","","292.09999990463257","resources/trios/L2T2A3.jpg","37","restless",0.7,0.8,0.3,0.0273886650113193,"true"
"image-keyboard-response",72,85018,"0.0-3.20-1.20","67rvv46w9pvhn48",454,"160.csv","","null","resources/maskTrios/L2BB.jpg","null","",NA,NA,NA,NA,""
"image-keyboard-response",73,86227,"0.0-3.20-2.20","67rvv46w9pvhn48",454,"160.csv","","null","resources/images/coin2.png","null","",NA,NA,NA,NA,""
"image-keyboard-response",74,86577,"0.0-3.21-0.21","67rvv46w9pvhn48",454,"160.csv","","347.2000000476837","resources/trios/L2T2A2.jpg","38","restless",0.7,0.9,0.3,0.719043864675421,"true"
"image-keyboard-response",75,86991,"0.0-3.21-1.21","67rvv46w9pvhn48",454,"160.csv","","null","resources/maskTrios/BT2B.jpg","null","",NA,NA,NA,NA,""
"image-keyboard-response",76,88198,"0.0-3.21-2.21","67rvv46w9pvhn48",454,"160.csv","","null","resources/images/coin2.png","null","",NA,NA,NA,NA,""
"image-keyboard-response",77,88507,"0.0-3.22-0.22","67rvv46w9pvhn48",454,"160.csv","","306.89999985694885","resources/trios/L1T2A2.jpg","37","restless",0.7,0.9,0.3,0.107594441472566,"true"
"image-keyboard-response",78,88919,"0.0-3.22-1.22","67rvv46w9pvhn48",454,"160.csv","","null","resources/maskTrios/L1BB.jpg","null","",NA,NA,NA,NA,""
"image-keyboard-response",79,90122,"0.0-3.22-2.22","67rvv46w9pvhn48",454,"160.csv","","null","resources/images/coin2.png","null","",NA,NA,NA,NA,""
"image-keyboard-response",80,90498,"0.0-3.23-0.23","67rvv46w9pvhn48",454,"160.csv","","373.7999999523163","resources/trios/L2T1A2.jpg","37","restless",0.6,0.9,0.3,0.899152051297806,"false"
"image-keyboard-response",81,90907,"0.0-3.23-1.23","67rvv46w9pvhn48",454,"160.csv","","null","resources/maskTrios/L2BB.jpg","null","",NA,NA,NA,NA,""
"image-keyboard-response",82,92119,"0.0-3.23-2.23","67rvv46w9pvhn48",454,"160.csv","","null","resources/images/fishbone.png","null","",NA,NA,NA,NA,""
"image-keyboard-response",83,92538,"0.0-3.24-0.24","67rvv46w9pvhn48",454,"160.csv","","416.90000009536743","resources/trios/L2T2A3.jpg","38","restless",0.6,0.9,0.3,0.741426450246389,"true"
"image-keyboard-response",84,92948,"0.0-3.24-1.24","67rvv46w9pvhn48",454,"160.csv","","null","resources/maskTrios/BT2B.jpg","null","",NA,NA,NA,NA,""
"image-keyboard-response",85,94155,"0.0-3.24-2.24","67rvv46w9pvhn48",454,"160.csv","","null","resources/images/coin2.png","null","",NA,NA,NA,NA,""
"image-keyboard-response",86,94624,"0.0-3.25-0.25","67rvv46w9pvhn48",454,"160.csv","","467.40000009536743","resources/trios/L1T2A3.jpg","38","restless",0.6,0.8,0.3,0.830631304726164,"false"
"image-keyboard-response",87,95030,"0.0-3.25-1.25","67rvv46w9pvhn48",454,"160.csv","","null","resources/maskTrios/BT2B.jpg","null","",NA,NA,NA,NA,""
"image-keyboard-response",88,96234,"0.0-3.25-2.25","67rvv46w9pvhn48",454,"160.csv","","null","resources/images/fishbone.png","null","",NA,NA,NA,NA,""
"image-keyboard-response",89,96582,"0.0-3.26-0.26","67rvv46w9pvhn48",454,"160.csv","","346.2999999523163","resources/trios/L2T2A3.jpg","39","restless",0.6,0.8,0.3,0.884674160671188,"false"
"image-keyboard-response",90,96987,"0.0-3.26-1.26","67rvv46w9pvhn48",454,"160.csv","","null","resources/maskTrios/BBA3.jpg","null","",NA,NA,NA,NA,""
"image-keyboard-response",91,98198,"0.0-3.26-2.26","67rvv46w9pvhn48",454,"160.csv","","null","resources/images/fishbone.png","null","",NA,NA,NA,NA,""
"image-keyboard-response",92,98591,"0.0-3.27-0.27","67rvv46w9pvhn48",454,"160.csv","","390.7000000476837","resources/trios/L2T1A3.jpg","37","restless",0.6,0.8,0.3,0.186072710364447,"true"
"image-keyboard-response",93,98998,"0.0-3.27-1.27","67rvv46w9pvhn48",454,"160.csv","","null","resources/maskTrios/L2BB.jpg","null","",NA,NA,NA,NA,""
"image-keyboard-response",94,100206,"0.0-3.27-2.27","67rvv46w9pvhn48",454,"160.csv","","null","resources/images/coin2.png","null","",NA,NA,NA,NA,""
"image-keyboard-response",95,100459,"0.0-3.28-0.28","67rvv46w9pvhn48",454,"160.csv","","250.70000004768372","resources/trios/L1T2A2.jpg","37","restless",0.7,0.8,0.3,0.0548126765805808,"true"
"image-keyboard-response",96,100870,"0.0-3.28-1.28","67rvv46w9pvhn48",454,"160.csv","","null","resources/maskTrios/L1BB.jpg","null","",NA,NA,NA,NA,""
"image-keyboard-response",97,102074,"0.0-3.28-2.28","67rvv46w9pvhn48",454,"160.csv","","null","resources/images/coin2.png","null","",NA,NA,NA,NA,""
"image-keyboard-response",98,102423,"0.0-3.29-0.29","67rvv46w9pvhn48",454,"160.csv","","346.40000009536743","resources/trios/L2T1A3.jpg","37","restless",0.7,0.7,0.3,0.458469589860113,"true"
"image-keyboard-response",99,102830,"0.0-3.29-1.29","67rvv46w9pvhn48",454,"160.csv","","null","resources/maskTrios/L2BB.jpg","null","",NA,NA,NA,NA,""
"image-keyboard-response",100,104034,"0.0-3.29-2.29","67rvv46w9pvhn48",454,"160.csv","","null","resources/images/coin2.png","null","",NA,NA,NA,NA,""
"image-keyboard-response",101,104373,"0.0-3.30-0.30","67rvv46w9pvhn48",454,"160.csv","","337.09999990463257","resources/trios/L2T1A3.jpg","37","restless",0.7,0.7,0.3,0.319115634305486,"true"
"image-keyboard-response",102,104782,"0.0-3.30-1.30","67rvv46w9pvhn48",454,"160.csv","","null","resources/maskTrios/L2BB.jpg","null","",NA,NA,NA,NA,""
"image-keyboard-response",103,105990,"0.0-3.30-2.30","67rvv46w9pvhn48",454,"160.csv","","null","resources/images/coin2.png","null","",NA,NA,NA,NA,""
"image-keyboard-response",104,106287,"0.0-3.31-0.31","67rvv46w9pvhn48",454,"160.csv","","295.7999999523163","resources/trios/L1T1A3.jpg","37","restless",0.7,0.7,0.3,0.265580088303248,"true"
"image-keyboard-response",105,106694,"0.0-3.31-1.31","67rvv46w9pvhn48",454,"160.csv","","null","resources/maskTrios/L1BB.jpg","null","",NA,NA,NA,NA,""
"image-keyboard-response",106,107898,"0.0-3.31-2.31","67rvv46w9pvhn48",454,"160.csv","","null","resources/images/coin2.png","null","",NA,NA,NA,NA,""
"image-keyboard-response",107,107945,"0.0-3.32-0.32","67rvv46w9pvhn48",454,"160.csv","","45.89999985694885","resources/trios/L2T2A3.jpg","37","restless",0.7,0.7,0.4,0.789024354428612,"false"
"image-keyboard-response",108,108355,"0.0-3.32-1.32","67rvv46w9pvhn48",454,"160.csv","","null","resources/maskTrios/L2BB.jpg","null","",NA,NA,NA,NA,""
"image-keyboard-response",109,109566,"0.0-3.32-2.32","67rvv46w9pvhn48",454,"160.csv","","null","resources/images/fishbone.png","null","",NA,NA,NA,NA,""
"image-keyboard-response",110,109975,"0.0-3.33-0.33","67rvv46w9pvhn48",454,"160.csv","","406.90000009536743","resources/trios/L2T2A2.jpg","38","restless",0.7,0.6,0.4,0.938298291572933,"false"
"image-keyboard-response",111,110378,"0.0-3.33-1.33","67rvv46w9pvhn48",454,"160.csv","","null","resources/maskTrios/BT2B.jpg","null","",NA,NA,NA,NA,""
"image-keyboard-response",112,111587,"0.0-3.33-2.33","67rvv46w9pvhn48",454,"160.csv","","null","resources/images/fishbone.png","null","",NA,NA,NA,NA,""
"image-keyboard-response",113,112012,"0.0-3.34-0.34","67rvv46w9pvhn48",454,"160.csv","","422.7000000476837","resources/trios/L2T1A2.jpg","37","restless",0.7,0.6,0.4,0.0576287621676883,"true"
"image-keyboard-response",114,112418,"0.0-3.34-1.34","67rvv46w9pvhn48",454,"160.csv","","null","resources/maskTrios/L2BB.jpg","null","",NA,NA,NA,NA,""
"image-keyboard-response",115,113626,"0.0-3.34-2.34","67rvv46w9pvhn48",454,"160.csv","","null","resources/images/coin2.png","null","",NA,NA,NA,NA,""
"image-keyboard-response",116,113920,"0.0-3.35-0.35","67rvv46w9pvhn48",454,"160.csv","","291.39999985694885","resources/trios/L1T2A2.jpg","37","restless",0.7,0.6,0.5,0.472896732641059,"true"
"image-keyboard-response",117,114330,"0.0-3.35-1.35","67rvv46w9pvhn48",454,"160.csv","","null","resources/maskTrios/L1BB.jpg","null","",NA,NA,NA,NA,""
"image-keyboard-response",118,115540,"0.0-3.35-2.35","67rvv46w9pvhn48",454,"160.csv","","null","resources/images/coin2.png","null","",NA,NA,NA,NA,""
"image-keyboard-response",119,115624,"0.0-3.36-0.36","67rvv46w9pvhn48",454,"160.csv","","81.79999995231628","resources/trios/L1T1A2.jpg","37","restless",0.7,0.6,0.5,0.00629831090407085,"true"
"image-keyboard-response",120,116038,"0.0-3.36-1.36","67rvv46w9pvhn48",454,"160.csv","","null","resources/maskTrios/L1BB.jpg","null","",NA,NA,NA,NA,""
"image-keyboard-response",121,117242,"0.0-3.36-2.36","67rvv46w9pvhn48",454,"160.csv","","null","resources/images/coin2.png","null","",NA,NA,NA,NA,""
"image-keyboard-response",122,117673,"0.0-3.37-0.37","67rvv46w9pvhn48",454,"160.csv","","430","resources/trios/L2T1A2.jpg","37","restless",0.7,0.6,0.5,0.00956749303673088,"true"
"image-keyboard-response",123,118086,"0.0-3.37-1.37","67rvv46w9pvhn48",454,"160.csv","","null","resources/maskTrios/L2BB.jpg","null","",NA,NA,NA,NA,""
"image-keyboard-response",124,119290,"0.0-3.37-2.37","67rvv46w9pvhn48",454,"160.csv","","null","resources/images/coin2.png","null","",NA,NA,NA,NA,""
"image-keyboard-response",125,119723,"0.0-3.38-0.38","67rvv46w9pvhn48",454,"160.csv","","430.89999985694885","resources/trios/L1T2A2.jpg","37","restless",0.7,0.6,0.6,0.819576012747785,"false"
"image-keyboard-response",126,120132,"0.0-3.38-1.38","67rvv46w9pvhn48",454,"160.csv","","null","resources/maskTrios/L1BB.jpg","null","",NA,NA,NA,NA,""
"image-keyboard-response",127,121342,"0.0-3.38-2.38","67rvv46w9pvhn48",454,"160.csv","","null","resources/images/fishbone.png","null","",NA,NA,NA,NA,""
"image-keyboard-response",128,121747,"0.0-3.39-0.39","67rvv46w9pvhn48",454,"160.csv","","404","resources/trios/L1T2A3.jpg","39","restless",0.7,0.5,0.5,0.295537779284919,"true"
"image-keyboard-response",129,122154,"0.0-3.39-1.39","67rvv46w9pvhn48",454,"160.csv","","null","resources/maskTrios/BBA3.jpg","null","",NA,NA,NA,NA,""
"image-keyboard-response",130,123366,"0.0-3.39-2.39","67rvv46w9pvhn48",454,"160.csv","","null","resources/images/coin2.png","null","",NA,NA,NA,NA,""
"image-keyboard-response",131,123819,"0.0-3.40-0.40","67rvv46w9pvhn48",454,"160.csv","","451.2999999523163","resources/trios/L1T2A3.jpg","39","restless",0.7,0.6,0.5,0.842111528777279,"false"
"image-keyboard-response",132,124230,"0.0-3.40-1.40","67rvv46w9pvhn48",454,"160.csv","","null","resources/maskTrios/BBA3.jpg","null","",NA,NA,NA,NA,""
"image-keyboard-response",133,125433,"0.0-3.40-2.40","67rvv46w9pvhn48",454,"160.csv","","null","resources/images/fishbone.png","null","",NA,NA,NA,NA,""
"image-keyboard-response",134,125802,"0.0-3.41-0.41","67rvv46w9pvhn48",454,"160.csv","","366.5","resources/trios/L2T1A3.jpg","38","restless",0.7,0.6,0.5,0.698932255464241,"false"
"image-keyboard-response",135,126214,"0.0-3.41-1.41","67rvv46w9pvhn48",454,"160.csv","","null","resources/maskTrios/BT1B.jpg","null","",NA,NA,NA,NA,""
"image-keyboard-response",136,127422,"0.0-3.41-2.41","67rvv46w9pvhn48",454,"160.csv","","null","resources/images/fishbone.png","null","",NA,NA,NA,NA,""
"image-keyboard-response",137,127793,"0.0-3.42-0.42","67rvv46w9pvhn48",454,"160.csv","","369.2999999523163","resources/trios/L2T1A3.jpg","39","restless",0.7,0.6,0.5,0.362773555461239,"true"
"image-keyboard-response",138,128205,"0.0-3.42-1.42","67rvv46w9pvhn48",454,"160.csv","","null","resources/maskTrios/BBA3.jpg","null","",NA,NA,NA,NA,""
"image-keyboard-response",139,129410,"0.0-3.42-2.42","67rvv46w9pvhn48",454,"160.csv","","null","resources/images/coin2.png","null","",NA,NA,NA,NA,""
"image-keyboard-response",140,129824,"0.0-3.43-0.43","67rvv46w9pvhn48",454,"160.csv","","412.7999999523163","resources/trios/L2T1A3.jpg","37","restless",0.7,0.5,0.5,0.536694896298817,"true"
"image-keyboard-response",141,130234,"0.0-3.43-1.43","67rvv46w9pvhn48",454,"160.csv","","null","resources/maskTrios/L2BB.jpg","null","",NA,NA,NA,NA,""
"image-keyboard-response",142,131445,"0.0-3.43-2.43","67rvv46w9pvhn48",454,"160.csv","","null","resources/images/coin2.png","null","",NA,NA,NA,NA,""
"image-keyboard-response",143,131828,"0.0-3.44-0.44","67rvv46w9pvhn48",454,"160.csv","","381","resources/trios/L1T2A2.jpg","37","restless",0.7,0.5,0.5,0.824695758264683,"false"
"image-keyboard-response",144,132238,"0.0-3.44-1.44","67rvv46w9pvhn48",454,"160.csv","","null","resources/maskTrios/L1BB.jpg","null","",NA,NA,NA,NA,""
"image-keyboard-response",145,133446,"0.0-3.44-2.44","67rvv46w9pvhn48",454,"160.csv","","null","resources/images/fishbone.png","null","",NA,NA,NA,NA,""
"image-keyboard-response",146,133656,"0.0-3.45-0.45","67rvv46w9pvhn48",454,"160.csv","","209","resources/trios/L1T2A3.jpg","38","restless",0.7,0.5,0.5,0.211607925686663,"true"
"image-keyboard-response",147,134069,"0.0-3.45-1.45","67rvv46w9pvhn48",454,"160.csv","","null","resources/maskTrios/BT2B.jpg","null","",NA,NA,NA,NA,""
"image-keyboard-response",148,135274,"0.0-3.45-2.45","67rvv46w9pvhn48",454,"160.csv","","null","resources/images/coin2.png","null","",NA,NA,NA,NA,""
"image-keyboard-response",149,135696,"0.0-3.46-0.46","67rvv46w9pvhn48",454,"160.csv","","420.59999990463257","resources/trios/L1T2A2.jpg","38","restless",0.7,0.5,0.5,0.366676133986427,"true"
"image-keyboard-response",150,136109,"0.0-3.46-1.46","67rvv46w9pvhn48",454,"160.csv","","null","resources/maskTrios/BT2B.jpg","null","",NA,NA,NA,NA,""
"image-keyboard-response",151,137314,"0.0-3.46-2.46","67rvv46w9pvhn48",454,"160.csv","","null","resources/images/coin2.png","null","",NA,NA,NA,NA,""
"image-keyboard-response",152,137638,"0.0-3.47-0.47","67rvv46w9pvhn48",454,"160.csv","","321.89999985694885","resources/trios/L2T2A3.jpg","38","restless",0.7,0.4,0.5,0.537002367048475,"false"
"image-keyboard-response",153,138042,"0.0-3.47-1.47","67rvv46w9pvhn48",454,"160.csv","","null","resources/maskTrios/BT2B.jpg","null","",NA,NA,NA,NA,""
"image-keyboard-response",154,139249,"0.0-3.47-2.47","67rvv46w9pvhn48",454,"160.csv","","null","resources/images/fishbone.png","null","",NA,NA,NA,NA,""
"image-keyboard-response",155,139457,"0.0-3.48-0.48","67rvv46w9pvhn48",454,"160.csv","","206.10000014305115","resources/trios/L1T1A3.jpg","39","restless",0.7,0.4,0.5,0.908385062859739,"false"
"image-keyboard-response",156,139867,"0.0-3.48-1.48","67rvv46w9pvhn48",454,"160.csv","","null","resources/maskTrios/BBA3.jpg","null","",NA,NA,NA,NA,""
"image-keyboard-response",157,141073,"0.0-3.48-2.48","67rvv46w9pvhn48",454,"160.csv","","null","resources/images/fishbone.png","null","",NA,NA,NA,NA,""
"image-keyboard-response",158,141398,"0.0-3.49-0.49","67rvv46w9pvhn48",454,"160.csv","","322.5","resources/trios/L1T1A3.jpg","39","restless",0.7,0.4,0.5,0.557020799304422,"false"
"image-keyboard-response",159,141803,"0.0-3.49-1.49","67rvv46w9pvhn48",454,"160.csv","","null","resources/maskTrios/BBA3.jpg","null","",NA,NA,NA,NA,""
"image-keyboard-response",160,143008,"0.0-3.49-2.49","67rvv46w9pvhn48",454,"160.csv","","null","resources/images/fishbone.png","null","",NA,NA,NA,NA,""
"image-keyboard-response",161,143478,"0.0-3.50-0.50","67rvv46w9pvhn48",454,"160.csv","","467.80000019073486","resources/trios/L2T2A2.jpg","39","restless",0.7,0.4,0.5,0.561912616633194,"false"
"image-keyboard-response",162,143881,"0.0-3.50-1.50","67rvv46w9pvhn48",454,"160.csv","","null","resources/maskTrios/BBA2.jpg","null","",NA,NA,NA,NA,""
"image-keyboard-response",163,145090,"0.0-3.50-2.50","67rvv46w9pvhn48",454,"160.csv","","null","resources/images/fishbone.png","null","",NA,NA,NA,NA,""
"image-keyboard-response",164,145212,"0.0-3.51-0.51","67rvv46w9pvhn48",454,"160.csv","","119.89999985694885","resources/trios/L1T1A2.jpg","39","restless",0.7,0.4,0.5,0.282001344015085,"true"
"image-keyboard-response",165,145620,"0.0-3.51-1.51","67rvv46w9pvhn48",454,"160.csv","","null","resources/maskTrios/BBA2.jpg","null","",NA,NA,NA,NA,""
"image-keyboard-response",166,146829,"0.0-3.51-2.51","67rvv46w9pvhn48",454,"160.csv","","null","resources/images/coin2.png","null","",NA,NA,NA,NA,""
"image-keyboard-response",167,147310,"0.0-3.52-0.52","67rvv46w9pvhn48",454,"160.csv","","478.5","resources/trios/L2T2A2.jpg","37","restless",0.7,0.4,0.5,0.0981376911976002,"true"
"image-keyboard-response",168,147713,"0.0-3.52-1.52","67rvv46w9pvhn48",454,"160.csv","","null","resources/maskTrios/L2BB.jpg","null","",NA,NA,NA,NA,""
"image-keyboard-response",169,148925,"0.0-3.52-2.52","67rvv46w9pvhn48",454,"160.csv","","null","resources/images/coin2.png","null","",NA,NA,NA,NA,""
"image-keyboard-response",170,149421,"0.0-3.53-0.53","67rvv46w9pvhn48",454,"160.csv","","494","resources/trios/L2T2A2.jpg","38","restless",0.7,0.4,0.5,0.0974366269806914,"true"
"image-keyboard-response",171,149829,"0.0-3.53-1.53","67rvv46w9pvhn48",454,"160.csv","","null","resources/maskTrios/BT2B.jpg","null","",NA,NA,NA,NA,""
"image-keyboard-response",172,151037,"0.0-3.53-2.53","67rvv46w9pvhn48",454,"160.csv","","null","resources/images/coin2.png","null","",NA,NA,NA,NA,""
"image-keyboard-response",173,151043,"0.0-3.54-0.54","67rvv46w9pvhn48",454,"160.csv","","3.5","resources/trios/L1T1A2.jpg","37","restless",0.7,0.4,0.5,0.20190778623897,"true"
"image-keyboard-response",174,151450,"0.0-3.54-1.54","67rvv46w9pvhn48",454,"160.csv","","null","resources/maskTrios/L1BB.jpg","null","",NA,NA,NA,NA,""
"image-keyboard-response",175,152661,"0.0-3.54-2.54","67rvv46w9pvhn48",454,"160.csv","","null","resources/images/coin2.png","null","",NA,NA,NA,NA,""
"image-keyboard-response",176,152942,"0.0-3.55-0.55","67rvv46w9pvhn48",454,"160.csv","","278.7999999523163","resources/trios/L1T2A3.jpg","38","restless",0.7,0.4,0.5,0.00577165256148016,"true"
"image-keyboard-response",177,153346,"0.0-3.55-1.55","67rvv46w9pvhn48",454,"160.csv","","null","resources/maskTrios/BT2B.jpg","null","",NA,NA,NA,NA,""
"image-keyboard-response",178,154555,"0.0-3.55-2.55","67rvv46w9pvhn48",454,"160.csv","","null","resources/images/coin2.png","null","",NA,NA,NA,NA,""
"image-keyboard-response",179,154944,"0.0-3.56-0.56","67rvv46w9pvhn48",454,"160.csv","","387.09999990463257","resources/trios/L1T1A2.jpg","38","restless",0.7,0.4,0.5,0.523619290805045,"false"
"image-keyboard-response",180,155357,"0.0-3.56-1.56","67rvv46w9pvhn48",454,"160.csv","","null","resources/maskTrios/BT1B.jpg","null","",NA,NA,NA,NA,""
"image-keyboard-response",181,156561,"0.0-3.56-2.56","67rvv46w9pvhn48",454,"160.csv","","null","resources/images/fishbone.png","null","",NA,NA,NA,NA,""
"image-keyboard-response",182,156905,"0.0-3.57-0.57","67rvv46w9pvhn48",454,"160.csv","","342.2000000476837","resources/trios/L2T2A2.jpg","37","restless",0.6,0.4,0.5,0.0328084505358284,"true"
"image-keyboard-response",183,157317,"0.0-3.57-1.57","67rvv46w9pvhn48",454,"160.csv","","null","resources/maskTrios/L2BB.jpg","null","",NA,NA,NA,NA,""
"image-keyboard-response",184,158525,"0.0-3.57-2.57","67rvv46w9pvhn48",454,"160.csv","","null","resources/images/coin2.png","null","",NA,NA,NA,NA,""
"image-keyboard-response",185,158951,"0.0-3.58-0.58","67rvv46w9pvhn48",454,"160.csv","","423.40000009536743","resources/trios/L2T1A2.jpg","39","restless",0.6,0.4,0.5,0.469139888295519,"true"
"image-keyboard-response",186,159365,"0.0-3.58-1.58","67rvv46w9pvhn48",454,"160.csv","","null","resources/maskTrios/BBA2.jpg","null","",NA,NA,NA,NA,""
"image-keyboard-response",187,160573,"0.0-3.58-2.58","67rvv46w9pvhn48",454,"160.csv","","null","resources/images/coin2.png","null","",NA,NA,NA,NA,""
"image-keyboard-response",188,160883,"0.0-3.59-0.59","67rvv46w9pvhn48",454,"160.csv","","307.89999985694885","resources/trios/L1T2A2.jpg","38","restless",0.6,0.4,0.5,0.636135206474237,"false"
"image-keyboard-response",189,161293,"0.0-3.59-1.59","67rvv46w9pvhn48",454,"160.csv","","null","resources/maskTrios/BT2B.jpg","null","",NA,NA,NA,NA,""
"image-keyboard-response",190,162496,"0.0-3.59-2.59","67rvv46w9pvhn48",454,"160.csv","","null","resources/images/fishbone.png","null","",NA,NA,NA,NA,""
"image-keyboard-response",191,162548,"0.0-3.60-0.60","67rvv46w9pvhn48",454,"160.csv","","49.30000019073486","resources/trios/L2T1A3.jpg","39","restless",0.6,0.4,0.5,0.508159987261451,"false"
"image-keyboard-response",192,162954,"0.0-3.60-1.60","67rvv46w9pvhn48",454,"160.csv","","null","resources/maskTrios/BBA3.jpg","null","",NA,NA,NA,NA,""
"image-keyboard-response",193,164165,"0.0-3.60-2.60","67rvv46w9pvhn48",454,"160.csv","","null","resources/images/fishbone.png","null","",NA,NA,NA,NA,""
"image-keyboard-response",194,164206,"0.0-3.61-0.61","67rvv46w9pvhn48",454,"160.csv","","39.200000047683716","resources/trios/L1T2A3.jpg","39","restless",0.6,0.4,0.5,0.154670326969503,"true"
"image-keyboard-response",195,164609,"0.0-3.61-1.61","67rvv46w9pvhn48",454,"160.csv","","null","resources/maskTrios/BBA3.jpg","null","",NA,NA,NA,NA,""
"image-keyboard-response",196,165817,"0.0-3.61-2.61","67rvv46w9pvhn48",454,"160.csv","","null","resources/images/coin2.png","null","",NA,NA,NA,NA,""
"image-keyboard-response",197,166292,"0.0-3.62-0.62","67rvv46w9pvhn48",454,"160.csv","","473","resources/trios/L1T2A3.jpg","38","restless",0.6,0.4,0.5,0.754156466769462,"false"
"image-keyboard-response",198,166696,"0.0-3.62-1.62","67rvv46w9pvhn48",454,"160.csv","","null","resources/maskTrios/BT2B.jpg","null","",NA,NA,NA,NA,""
"image-keyboard-response",199,167909,"0.0-3.62-2.62","67rvv46w9pvhn48",454,"160.csv","","null","resources/images/fishbone.png","null","",NA,NA,NA,NA,""
"image-keyboard-response",200,168277,"0.0-3.63-0.63","67rvv46w9pvhn48",454,"160.csv","","366.40000009536743","resources/trios/L2T1A3.jpg","37","restless",0.6,0.4,0.5,0.075816874741726,"true"
"image-keyboard-response",201,168682,"0.0-3.63-1.63","67rvv46w9pvhn48",454,"160.csv","","null","resources/maskTrios/L2BB.jpg","null","",NA,NA,NA,NA,""
"image-keyboard-response",202,169887,"0.0-3.63-2.63","67rvv46w9pvhn48",454,"160.csv","","null","resources/images/coin2.png","null","",NA,NA,NA,NA,""
"image-keyboard-response",203,170594,"0.0-3.64-0.64","67rvv46w9pvhn48",454,"160.csv","","705.7000000476837","resources/trios/L2T2A2.jpg","37","restless",0.6,0.4,0.6,0.436985945278958,"true"
"image-keyboard-response",204,171001,"0.0-3.64-1.64","67rvv46w9pvhn48",454,"160.csv","","null","resources/maskTrios/L2BB.jpg","null","",NA,NA,NA,NA,""
"image-keyboard-response",205,172213,"0.0-3.64-2.64","67rvv46w9pvhn48",454,"160.csv","","null","resources/images/coin2.png","null","",NA,NA,NA,NA,""
"image-keyboard-response",206,172450,"0.0-3.65-0.65","67rvv46w9pvhn48",454,"160.csv","","235","resources/trios/L2T1A2.jpg","38","restless",0.6,0.4,0.6,0.0995245595031253,"true"
"image-keyboard-response",207,172861,"0.0-3.65-1.65","67rvv46w9pvhn48",454,"160.csv","","null","resources/maskTrios/BT1B.jpg","null","",NA,NA,NA,NA,""
"image-keyboard-response",208,174065,"0.0-3.65-2.65","67rvv46w9pvhn48",454,"160.csv","","null","resources/images/coin2.png","null","",NA,NA,NA,NA,""
"image-keyboard-response",209,174365,"0.0-3.66-0.66","67rvv46w9pvhn48",454,"160.csv","","298.40000009536743","resources/trios/L1T2A2.jpg","38","restless",0.6,0.4,0.6,0.442557848059548,"false"
"image-keyboard-response",210,174769,"0.0-3.66-1.66","67rvv46w9pvhn48",454,"160.csv","","null","resources/maskTrios/BT2B.jpg","null","",NA,NA,NA,NA,""
"image-keyboard-response",211,175981,"0.0-3.66-2.66","67rvv46w9pvhn48",454,"160.csv","","null","resources/images/fishbone.png","null","",NA,NA,NA,NA,""
"image-keyboard-response",212,176034,"0.0-3.67-0.67","67rvv46w9pvhn48",454,"160.csv","","51.5","resources/trios/L1T2A3.jpg","37","restless",0.7,0.4,0.6,0.573434231222989,"true"
"image-keyboard-response",213,176445,"0.0-3.67-1.67","67rvv46w9pvhn48",454,"160.csv","","null","resources/maskTrios/L1BB.jpg","null","",NA,NA,NA,NA,""
"image-keyboard-response",214,177649,"0.0-3.67-2.67","67rvv46w9pvhn48",454,"160.csv","","null","resources/images/coin2.png","null","",NA,NA,NA,NA,""
"image-keyboard-response",215,177931,"0.0-3.68-0.68","67rvv46w9pvhn48",454,"160.csv","","280.2999999523163","resources/trios/L1T1A2.jpg","37","restless",0.7,0.4,0.6,0.51486854819347,"true"
"image-keyboard-response",216,178337,"0.0-3.68-1.68","67rvv46w9pvhn48",454,"160.csv","","null","resources/maskTrios/L1BB.jpg","null","",NA,NA,NA,NA,""
"image-keyboard-response",217,179546,"0.0-3.68-2.68","67rvv46w9pvhn48",454,"160.csv","","null","resources/images/coin2.png","null","",NA,NA,NA,NA,""
"image-keyboard-response",218,179550,"0.0-3.69-0.69","67rvv46w9pvhn48",454,"160.csv","","1.8999998569488525","resources/trios/L2T2A3.jpg","39","restless",0.7,0.4,0.6,0.705484233984742,"false"
"image-keyboard-response",219,179953,"0.0-3.69-1.69","67rvv46w9pvhn48",454,"160.csv","","null","resources/maskTrios/BBA3.jpg","null","",NA,NA,NA,NA,""
"image-keyboard-response",220,181165,"0.0-3.69-2.69","67rvv46w9pvhn48",454,"160.csv","","null","resources/images/fishbone.png","null","",NA,NA,NA,NA,""
"image-keyboard-response",221,181683,"0.0-3.70-0.70","67rvv46w9pvhn48",454,"160.csv","","516.0999999046326","resources/trios/L1T1A3.jpg","37","restless",0.6,0.4,0.6,0.414329837545595,"true"
"image-keyboard-response",222,182093,"0.0-3.70-1.70","67rvv46w9pvhn48",454,"160.csv","","null","resources/maskTrios/L1BB.jpg","null","",NA,NA,NA,NA,""
"image-keyboard-response",223,183297,"0.0-3.70-2.70","67rvv46w9pvhn48",454,"160.csv","","null","resources/images/coin2.png","null","",NA,NA,NA,NA,""
"image-keyboard-response",224,183379,"0.0-3.71-0.71","67rvv46w9pvhn48",454,"160.csv","","81","resources/trios/L2T2A3.jpg","38","restless",0.5,0.4,0.6,0.44913537449827,"false"
"image-keyboard-response",225,183784,"0.0-3.71-1.71","67rvv46w9pvhn48",454,"160.csv","","null","resources/maskTrios/BT2B.jpg","null","",NA,NA,NA,NA,""
"image-keyboard-response",226,184996,"0.0-3.71-2.71","67rvv46w9pvhn48",454,"160.csv","","null","resources/images/fishbone.png","null","",NA,NA,NA,NA,""
"image-keyboard-response",227,185294,"0.0-3.72-0.72","67rvv46w9pvhn48",454,"160.csv","","295.7000000476837","resources/trios/L2T2A2.jpg","37","restless",0.5,0.4,0.6,0.144489989197855,"true"
"image-keyboard-response",228,185696,"0.0-3.72-1.72","67rvv46w9pvhn48",454,"160.csv","","null","resources/maskTrios/L2BB.jpg","null","",NA,NA,NA,NA,""
"image-keyboard-response",229,186909,"0.0-3.72-2.72","67rvv46w9pvhn48",454,"160.csv","","null","resources/images/coin2.png","null","",NA,NA,NA,NA,""
"image-keyboard-response",230,187164,"0.0-3.73-0.73","67rvv46w9pvhn48",454,"160.csv","","253.40000009536743","resources/trios/L2T1A2.jpg","39","restless",0.5,0.4,0.6,0.605753215728988,"false"
"image-keyboard-response",231,187570,"0.0-3.73-1.73","67rvv46w9pvhn48",454,"160.csv","","null","resources/maskTrios/BBA2.jpg","null","",NA,NA,NA,NA,""
"image-keyboard-response",232,188780,"0.0-3.73-2.73","67rvv46w9pvhn48",454,"160.csv","","null","resources/images/fishbone.png","null","",NA,NA,NA,NA,""
"image-keyboard-response",233,189003,"0.0-3.74-0.74","67rvv46w9pvhn48",454,"160.csv","","221","resources/trios/L1T2A3.jpg","37","restless",0.5,0.5,0.6,0.99524276158081,"false"
"image-keyboard-response",234,189412,"0.0-3.74-1.74","67rvv46w9pvhn48",454,"160.csv","","null","resources/maskTrios/L1BB.jpg","null","",NA,NA,NA,NA,""
"image-keyboard-response",235,190620,"0.0-3.74-2.74","67rvv46w9pvhn48",454,"160.csv","","null","resources/images/fishbone.png","null","",NA,NA,NA,NA,""
"image-keyboard-response",236,190947,"0.0-3.75-0.75","67rvv46w9pvhn48",454,"160.csv","","324.7000000476837","resources/trios/L1T2A3.jpg","38","restless",0.4,0.5,0.6,0.591287784007761,"false"
"image-keyboard-response",237,191354,"0.0-3.75-1.75","67rvv46w9pvhn48",454,"160.csv","","null","resources/maskTrios/BT2B.jpg","null","",NA,NA,NA,NA,""
"image-keyboard-response",238,192563,"0.0-3.75-2.75","67rvv46w9pvhn48",454,"160.csv","","null","resources/images/fishbone.png","null","",NA,NA,NA,NA,""
"image-keyboard-response",239,192876,"0.0-3.76-0.76","67rvv46w9pvhn48",454,"160.csv","","310.09999990463257","resources/trios/L2T2A2.jpg","38","restless",0.4,0.5,0.6,0.686025690899546,"false"
"image-keyboard-response",240,193280,"0.0-3.76-1.76","67rvv46w9pvhn48",454,"160.csv","","null","resources/maskTrios/BT2B.jpg","null","",NA,NA,NA,NA,""
"image-keyboard-response",241,194488,"0.0-3.76-2.76","67rvv46w9pvhn48",454,"160.csv","","null","resources/images/fishbone.png","null","",NA,NA,NA,NA,""
"image-keyboard-response",242,194791,"0.0-3.77-0.77","67rvv46w9pvhn48",454,"160.csv","","301","resources/trios/L1T1A3.jpg","38","restless",0.4,0.5,0.6,0.489942853610255,"true"
"image-keyboard-response",243,195204,"0.0-3.77-1.77","67rvv46w9pvhn48",454,"160.csv","","null","resources/maskTrios/BT1B.jpg","null","",NA,NA,NA,NA,""
"image-keyboard-response",244,196412,"0.0-3.77-2.77","67rvv46w9pvhn48",454,"160.csv","","null","resources/images/coin2.png","null","",NA,NA,NA,NA,""
"image-keyboard-response",245,196635,"0.0-3.78-0.78","67rvv46w9pvhn48",454,"160.csv","","220.39999985694885","resources/trios/L1T1A3.jpg","39","restless",0.4,0.5,0.6,0.327562380507182,"true"
"image-keyboard-response",246,197044,"0.0-3.78-1.78","67rvv46w9pvhn48",454,"160.csv","","null","resources/maskTrios/BBA3.jpg","null","",NA,NA,NA,NA,""
"image-keyboard-response",247,198248,"0.0-3.78-2.78","67rvv46w9pvhn48",454,"160.csv","","null","resources/images/coin2.png","null","",NA,NA,NA,NA,""
"image-keyboard-response",248,198252,"0.0-3.79-0.79","67rvv46w9pvhn48",454,"160.csv","","1.8000001907348633","resources/trios/L1T2A3.jpg","37","restless",0.4,0.5,0.6,0.209560331962876,"true"
"image-keyboard-response",249,198660,"0.0-3.79-1.79","67rvv46w9pvhn48",454,"160.csv","","null","resources/maskTrios/L1BB.jpg","null","",NA,NA,NA,NA,""
"image-keyboard-response",250,199868,"0.0-3.79-2.79","67rvv46w9pvhn48",454,"160.csv","","null","resources/images/coin2.png","null","",NA,NA,NA,NA,""
"image-keyboard-response",251,200660,"0.0-3.80-0.80","67rvv46w9pvhn48",454,"160.csv","","790.8999998569489","resources/trios/L1T2A2.jpg","38","restless",0.4,0.5,0.6,0.881959068212747,"false"
"image-keyboard-response",252,201068,"0.0-3.80-1.80","67rvv46w9pvhn48",454,"160.csv","","null","resources/maskTrios/BT2B.jpg","null","",NA,NA,NA,NA,""
"image-keyboard-response",253,202274,"0.0-3.80-2.80","67rvv46w9pvhn48",454,"160.csv","","null","resources/images/fishbone.png","null","",NA,NA,NA,NA,""
"image-keyboard-response",254,202324,"0.0-3.81-0.81","67rvv46w9pvhn48",454,"160.csv","","47.69999980926514","resources/trios/L2T2A3.jpg","37","restless",0.4,0.5,0.6,0.969905566173622,"false"
"image-keyboard-response",255,202727,"0.0-3.81-1.81","67rvv46w9pvhn48",454,"160.csv","","null","resources/maskTrios/L2BB.jpg","null","",NA,NA,NA,NA,""
"image-keyboard-response",256,203939,"0.0-3.81-2.81","67rvv46w9pvhn48",454,"160.csv","","null","resources/images/fishbone.png","null","",NA,NA,NA,NA,""
"image-keyboard-response",257,203964,"0.0-3.82-0.82","67rvv46w9pvhn48",454,"160.csv","","23.299999952316284","resources/trios/L2T2A2.jpg","39","restless",0.4,0.5,0.6,0.353978882241643,"true"
"image-keyboard-response",258,204372,"0.0-3.82-1.82","67rvv46w9pvhn48",454,"160.csv","","null","resources/maskTrios/BBA2.jpg","null","",NA,NA,NA,NA,""
"image-keyboard-response",259,205578,"0.0-3.82-2.82","67rvv46w9pvhn48",454,"160.csv","","null","resources/images/coin2.png","null","",NA,NA,NA,NA,""
"image-keyboard-response",260,205975,"0.0-3.83-0.83","67rvv46w9pvhn48",454,"160.csv","","395","resources/trios/L1T1A3.jpg","39","restless",0.4,0.5,0.6,0.355744156609972,"true"
"image-keyboard-response",261,206388,"0.0-3.83-1.83","67rvv46w9pvhn48",454,"160.csv","","null","resources/maskTrios/BBA3.jpg","null","",NA,NA,NA,NA,""
"image-keyboard-response",262,207595,"0.0-3.83-2.83","67rvv46w9pvhn48",454,"160.csv","","null","resources/images/coin2.png","null","",NA,NA,NA,NA,""
"image-keyboard-response",263,207964,"0.0-3.84-0.84","67rvv46w9pvhn48",454,"160.csv","","367.5","resources/trios/L1T2A2.jpg","39","restless",0.4,0.5,0.6,0.696328990173143,"false"
"image-keyboard-response",264,208367,"0.0-3.84-1.84","67rvv46w9pvhn48",454,"160.csv","","null","resources/maskTrios/BBA2.jpg","null","",NA,NA,NA,NA,""
"image-keyboard-response",265,209575,"0.0-3.84-2.84","67rvv46w9pvhn48",454,"160.csv","","null","resources/images/fishbone.png","null","",NA,NA,NA,NA,""
"image-keyboard-response",266,210071,"0.0-3.85-0.85","67rvv46w9pvhn48",454,"160.csv","","493.7999999523163","resources/trios/L1T2A2.jpg","38","restless",0.4,0.4,0.7,0.890853575758037,"false"
"image-keyboard-response",267,210479,"0.0-3.85-1.85","67rvv46w9pvhn48",454,"160.csv","","null","resources/maskTrios/BT2B.jpg","null","",NA,NA,NA,NA,""
"image-keyboard-response",268,211692,"0.0-3.85-2.85","67rvv46w9pvhn48",454,"160.csv","","null","resources/images/fishbone.png","null","",NA,NA,NA,NA,""
"image-keyboard-response",269,212219,"0.0-3.86-0.86","67rvv46w9pvhn48",454,"160.csv","","525.3000001907349","resources/trios/L1T1A2.jpg","37","restless",0.4,0.4,0.7,0.672869112806635,"false"
"image-keyboard-response",270,212628,"0.0-3.86-1.86","67rvv46w9pvhn48",454,"160.csv","","null","resources/maskTrios/L1BB.jpg","null","",NA,NA,NA,NA,""
"image-keyboard-response",271,213834,"0.0-3.86-2.86","67rvv46w9pvhn48",454,"160.csv","","null","resources/images/fishbone.png","null","",NA,NA,NA,NA,""
"image-keyboard-response",272,214450,"0.0-3.87-0.87","67rvv46w9pvhn48",454,"160.csv","","613.8999998569489","resources/trios/L2T1A3.jpg","39","restless",0.4,0.4,0.7,0.362618824509713,"true"
"image-keyboard-response",273,214859,"0.0-3.87-1.87","67rvv46w9pvhn48",454,"160.csv","","null","resources/maskTrios/BBA3.jpg","null","",NA,NA,NA,NA,""
"image-keyboard-response",274,216063,"0.0-3.87-2.87","67rvv46w9pvhn48",454,"160.csv","","null","resources/images/coin2.png","null","",NA,NA,NA,NA,""
"image-keyboard-response",275,216761,"0.0-3.88-0.88","67rvv46w9pvhn48",454,"160.csv","","695.7000000476837","resources/trios/L2T1A3.jpg","38","restless",0.4,0.4,0.7,0.312025172232262,"true"
"image-keyboard-response",276,217168,"0.0-3.88-1.88","67rvv46w9pvhn48",454,"160.csv","","null","resources/maskTrios/BT1B.jpg","null","",NA,NA,NA,NA,""
"image-keyboard-response",277,218377,"0.0-3.88-2.88","67rvv46w9pvhn48",454,"160.csv","","null","resources/images/coin2.png","null","",NA,NA,NA,NA,""
"image-keyboard-response",278,218832,"0.0-3.89-0.89","67rvv46w9pvhn48",454,"160.csv","","453.10000014305115","resources/trios/L2T1A3.jpg","38","restless",0.4,0.3,0.6,0.139192307418906,"true"
"image-keyboard-response",279,219242,"0.0-3.89-1.89","67rvv46w9pvhn48",454,"160.csv","","null","resources/maskTrios/BT1B.jpg","null","",NA,NA,NA,NA,""
"image-keyboard-response",280,220450,"0.0-3.89-2.89","67rvv46w9pvhn48",454,"160.csv","","null","resources/images/coin2.png","null","",NA,NA,NA,NA,""
"image-keyboard-response",281,220508,"0.0-3.90-0.90","67rvv46w9pvhn48",454,"160.csv","","56.60000014305115","resources/trios/L2T2A3.jpg","38","restless",0.4,0.3,0.6,0.633730425279384,"false"
"image-keyboard-response",282,220915,"0.0-3.90-1.90","67rvv46w9pvhn48",454,"160.csv","","null","resources/maskTrios/BT2B.jpg","null","",NA,NA,NA,NA,""
"image-keyboard-response",283,222120,"0.0-3.90-2.90","67rvv46w9pvhn48",454,"160.csv","","null","resources/images/fishbone.png","null","",NA,NA,NA,NA,""
"image-keyboard-response",284,222342,"0.0-3.91-0.91","67rvv46w9pvhn48",454,"160.csv","","219.5","resources/trios/L2T1A3.jpg","39","restless",0.5,0.3,0.6,0.842120256034313,"false"
"image-keyboard-response",285,222751,"0.0-3.91-1.91","67rvv46w9pvhn48",454,"160.csv","","null","resources/maskTrios/BBA3.jpg","null","",NA,NA,NA,NA,""
"image-keyboard-response",286,223963,"0.0-3.91-2.91","67rvv46w9pvhn48",454,"160.csv","","null","resources/images/fishbone.png","null","",NA,NA,NA,NA,""
"image-keyboard-response",287,224244,"0.0-3.92-0.92","67rvv46w9pvhn48",454,"160.csv","","278.2999999523163","resources/trios/L1T1A3.jpg","37","restless",0.5,0.3,0.6,0.157076324855831,"true"
"image-keyboard-response",288,224647,"0.0-3.92-1.92","67rvv46w9pvhn48",454,"160.csv","","null","resources/maskTrios/L1BB.jpg","null","",NA,NA,NA,NA,""
"image-keyboard-response",289,225855,"0.0-3.92-2.92","67rvv46w9pvhn48",454,"160.csv","","null","resources/images/coin2.png","null","",NA,NA,NA,NA,""
"image-keyboard-response",290,226643,"0.0-3.93-0.93","67rvv46w9pvhn48",454,"160.csv","","785.7000000476837","resources/trios/L1T1A2.jpg","38","restless",0.5,0.3,0.6,0.112542909736352,"true"
"image-keyboard-response",291,227047,"0.0-3.93-1.93","67rvv46w9pvhn48",454,"160.csv","","null","resources/maskTrios/BT1B.jpg","null","",NA,NA,NA,NA,""
"image-keyboard-response",292,228259,"0.0-3.93-2.93","67rvv46w9pvhn48",454,"160.csv","","null","resources/images/coin2.png","null","",NA,NA,NA,NA,""
"image-keyboard-response",293,228710,"0.0-3.94-0.94","67rvv46w9pvhn48",454,"160.csv","","448.39999985694885","resources/trios/L2T1A3.jpg","38","restless",0.5,0.3,0.6,0.468774284344105,"false"
"image-keyboard-response",294,229123,"0.0-3.94-1.94","67rvv46w9pvhn48",454,"160.csv","","null","resources/maskTrios/BT1B.jpg","null","",NA,NA,NA,NA,""
"image-keyboard-response",295,230331,"0.0-3.94-2.94","67rvv46w9pvhn48",454,"160.csv","","null","resources/images/fishbone.png","null","",NA,NA,NA,NA,""
"image-keyboard-response",296,230827,"0.0-3.95-0.95","67rvv46w9pvhn48",454,"160.csv","","493.90000009536743","resources/trios/L2T1A2.jpg","39","restless",0.5,0.4,0.6,0.142121877245111,"true"
"image-keyboard-response",297,231231,"0.0-3.95-1.95","67rvv46w9pvhn48",454,"160.csv","","null","resources/maskTrios/BBA2.jpg","null","",NA,NA,NA,NA,""
"image-keyboard-response",298,232443,"0.0-3.95-2.95","67rvv46w9pvhn48",454,"160.csv","","null","resources/images/coin2.png","null","",NA,NA,NA,NA,""
"image-keyboard-response",299,232910,"0.0-3.96-0.96","67rvv46w9pvhn48",454,"160.csv","","464.80000019073486","resources/trios/L1T2A3.jpg","39","restless",0.5,0.4,0.6,0.611066183217457,"false"
"image-keyboard-response",300,233323,"0.0-3.96-1.96","67rvv46w9pvhn48",454,"160.csv","","null","resources/maskTrios/BBA3.jpg","null","",NA,NA,NA,NA,""
"image-keyboard-response",301,234531,"0.0-3.96-2.96","67rvv46w9pvhn48",454,"160.csv","","null","resources/images/fishbone.png","null","",NA,NA,NA,NA,""
"image-keyboard-response",302,235264,"0.0-3.97-0.97","67rvv46w9pvhn48",454,"160.csv","","730.7000000476837","resources/trios/L1T1A2.jpg","37","restless",0.4,0.4,0.6,0.25979216838698,"true"
"image-keyboard-response",303,235675,"0.0-3.97-1.97","67rvv46w9pvhn48",454,"160.csv","","null","resources/maskTrios/L1BB.jpg","null","",NA,NA,NA,NA,""
"image-keyboard-response",304,236880,"0.0-3.97-2.97","67rvv46w9pvhn48",454,"160.csv","","null","resources/images/coin2.png","null","",NA,NA,NA,NA,""
"image-keyboard-response",305,237045,"0.0-3.98-0.98","67rvv46w9pvhn48",454,"160.csv","","163.09999990463257","resources/trios/L2T1A2.jpg","38","restless",0.4,0.4,0.6,0.317322243272968,"true"
"image-keyboard-response",306,237455,"0.0-3.98-1.98","67rvv46w9pvhn48",454,"160.csv","","null","resources/maskTrios/BT1B.jpg","null","",NA,NA,NA,NA,""
"image-keyboard-response",307,238663,"0.0-3.98-2.98","67rvv46w9pvhn48",454,"160.csv","","null","resources/images/coin2.png","null","",NA,NA,NA,NA,""
"image-keyboard-response",308,239265,"0.0-3.99-0.99","67rvv46w9pvhn48",454,"160.csv","","599.1000001430511","resources/trios/L1T1A3.jpg","37","restless",0.4,0.4,0.6,0.123696693698437,"true"
"image-keyboard-response",309,239671,"0.0-3.99-1.99","67rvv46w9pvhn48",454,"160.csv","","null","resources/maskTrios/L1BB.jpg","null","",NA,NA,NA,NA,""
"image-keyboard-response",310,240882,"0.0-3.99-2.99","67rvv46w9pvhn48",454,"160.csv","","null","resources/images/coin2.png","null","",NA,NA,NA,NA,""
"image-keyboard-response",311,241519,"0.0-3.100-0.100","67rvv46w9pvhn48",454,"160.csv","","635.5999999046326","resources/trios/L1T1A3.jpg","39","restless",0.4,0.3,0.6,0.186153458361665,"true"
"image-keyboard-response",312,241931,"0.0-3.100-1.100","67rvv46w9pvhn48",454,"160.csv","","null","resources/maskTrios/BBA3.jpg","null","",NA,NA,NA,NA,""
"image-keyboard-response",313,243138,"0.0-3.100-2.100","67rvv46w9pvhn48",454,"160.csv","","null","resources/images/coin2.png","null","",NA,NA,NA,NA,""
"image-keyboard-response",314,243574,"0.0-3.101-0.101","67rvv46w9pvhn48",454,"160.csv","","434.30000019073486","resources/trios/L2T1A3.jpg","38","restless",0.4,0.3,0.6,0.673113028907794,"false"
"image-keyboard-response",315,243987,"0.0-3.101-1.101","67rvv46w9pvhn48",454,"160.csv","","null","resources/maskTrios/BT1B.jpg","null","",NA,NA,NA,NA,""
"image-keyboard-response",316,245195,"0.0-3.101-2.101","67rvv46w9pvhn48",454,"160.csv","","null","resources/images/fishbone.png","null","",NA,NA,NA,NA,""
"image-keyboard-response",317,245410,"0.0-3.102-0.102","67rvv46w9pvhn48",454,"160.csv","","214","resources/trios/L2T2A2.jpg","37","restless",0.4,0.3,0.6,0.920059666804178,"false"
"image-keyboard-response",318,245818,"0.0-3.102-1.102","67rvv46w9pvhn48",454,"160.csv","","null","resources/maskTrios/L2BB.jpg","null","",NA,NA,NA,NA,""
"image-keyboard-response",319,247027,"0.0-3.102-2.102","67rvv46w9pvhn48",454,"160.csv","","null","resources/images/fishbone.png","null","",NA,NA,NA,NA,""
"image-keyboard-response",320,247395,"0.0-3.103-0.103","67rvv46w9pvhn48",454,"160.csv","","365.19999980926514","resources/trios/L1T1A3.jpg","37","restless",0.4,0.3,0.6,0.483907796750812,"false"
"image-keyboard-response",321,247802,"0.0-3.103-1.103","67rvv46w9pvhn48",454,"160.csv","","null","resources/maskTrios/L1BB.jpg","null","",NA,NA,NA,NA,""
"image-keyboard-response",322,249011,"0.0-3.103-2.103","67rvv46w9pvhn48",454,"160.csv","","null","resources/images/fishbone.png","null","",NA,NA,NA,NA,""
"image-keyboard-response",323,249389,"0.0-3.104-0.104","67rvv46w9pvhn48",454,"160.csv","","376.10000014305115","resources/trios/L1T2A2.jpg","39","restless",0.3,0.3,0.6,0.700021623577023,"false"
"image-keyboard-response",324,249799,"0.0-3.104-1.104","67rvv46w9pvhn48",454,"160.csv","","null","resources/maskTrios/BBA2.jpg","null","",NA,NA,NA,NA,""
"image-keyboard-response",325,251007,"0.0-3.104-2.104","67rvv46w9pvhn48",454,"160.csv","","null","resources/images/fishbone.png","null","",NA,NA,NA,NA,""
"image-keyboard-response",326,251236,"0.0-3.105-0.105","67rvv46w9pvhn48",454,"160.csv","","227.59999990463257","resources/trios/L2T1A3.jpg","38","restless",0.3,0.3,0.6,0.7614625326875,"false"
"image-keyboard-response",327,251651,"0.0-3.105-1.105","67rvv46w9pvhn48",454,"160.csv","","null","resources/maskTrios/BT1B.jpg","null","",NA,NA,NA,NA,""
"image-keyboard-response",328,252857,"0.0-3.105-2.105","67rvv46w9pvhn48",454,"160.csv","","null","resources/images/fishbone.png","null","",NA,NA,NA,NA,""
"image-keyboard-response",329,253155,"0.0-3.106-0.106","67rvv46w9pvhn48",454,"160.csv","","296.19999980926514","resources/trios/L1T1A2.jpg","37","restless",0.3,0.3,0.6,0.814341474378448,"false"
"image-keyboard-response",330,253558,"0.0-3.106-1.106","67rvv46w9pvhn48",454,"160.csv","","null","resources/maskTrios/L1BB.jpg","null","",NA,NA,NA,NA,""
"image-keyboard-response",331,254771,"0.0-3.106-2.106","67rvv46w9pvhn48",454,"160.csv","","null","resources/images/fishbone.png","null","",NA,NA,NA,NA,""
"image-keyboard-response",332,255031,"0.0-3.107-0.107","67rvv46w9pvhn48",454,"160.csv","","258","resources/trios/L2T1A3.jpg","38","restless",0.3,0.3,0.6,0.129395387616222,"true"
"image-keyboard-response",333,255439,"0.0-3.107-1.107","67rvv46w9pvhn48",454,"160.csv","","null","resources/maskTrios/BT1B.jpg","null","",NA,NA,NA,NA,""
"image-keyboard-response",334,256646,"0.0-3.107-2.107","67rvv46w9pvhn48",454,"160.csv","","null","resources/images/coin2.png","null","",NA,NA,NA,NA,""
"image-keyboard-response",335,256969,"0.0-3.108-0.108","67rvv46w9pvhn48",454,"160.csv","","320.7999999523163","resources/trios/L1T2A3.jpg","38","restless",0.3,0.3,0.6,0.116482518411352,"true"
"image-keyboard-response",336,257379,"0.0-3.108-1.108","67rvv46w9pvhn48",454,"160.csv","","null","resources/maskTrios/BT2B.jpg","null","",NA,NA,NA,NA,""
"image-keyboard-response",337,258584,"0.0-3.108-2.108","67rvv46w9pvhn48",454,"160.csv","","null","resources/images/coin2.png","null","",NA,NA,NA,NA,""
"image-keyboard-response",338,258880,"0.0-3.109-0.109","67rvv46w9pvhn48",454,"160.csv","","294.2000000476837","resources/trios/L2T2A2.jpg","38","restless",0.3,0.3,0.6,0.588326363613752,"false"
"image-keyboard-response",339,259291,"0.0-3.109-1.109","67rvv46w9pvhn48",454,"160.csv","","null","resources/maskTrios/BT2B.jpg","null","",NA,NA,NA,NA,""
"image-keyboard-response",340,260494,"0.0-3.109-2.109","67rvv46w9pvhn48",454,"160.csv","","null","resources/images/fishbone.png","null","",NA,NA,NA,NA,""
"image-keyboard-response",341,260848,"0.0-3.110-0.110","67rvv46w9pvhn48",454,"160.csv","","351.5","resources/trios/L2T1A2.jpg","37","restless",0.3,0.3,0.6,0.939855172145061,"false"
"image-keyboard-response",342,261259,"0.0-3.110-1.110","67rvv46w9pvhn48",454,"160.csv","","null","resources/maskTrios/L2BB.jpg","null","",NA,NA,NA,NA,""
"image-keyboard-response",343,262463,"0.0-3.110-2.110","67rvv46w9pvhn48",454,"160.csv","","null","resources/images/fishbone.png","null","",NA,NA,NA,NA,""
"image-keyboard-response",344,262703,"0.0-3.111-0.111","67rvv46w9pvhn48",454,"160.csv","","237.60000014305115","resources/trios/L1T2A3.jpg","39","restless",0.3,0.3,0.5,0.955527792190531,"false"
"image-keyboard-response",345,263115,"0.0-3.111-1.111","67rvv46w9pvhn48",454,"160.csv","","null","resources/maskTrios/BBA3.jpg","null","",NA,NA,NA,NA,""
"image-keyboard-response",346,264318,"0.0-3.111-2.111","67rvv46w9pvhn48",454,"160.csv","","null","resources/images/fishbone.png","null","",NA,NA,NA,NA,""
"image-keyboard-response",347,264670,"0.0-3.112-0.112","67rvv46w9pvhn48",454,"160.csv","","350.09999990463257","resources/trios/L2T2A2.jpg","39","restless",0.3,0.3,0.5,0.656312583694087,"false"
"image-keyboard-response",348,265080,"0.0-3.112-1.112","67rvv46w9pvhn48",454,"160.csv","","null","resources/maskTrios/BBA2.jpg","null","",NA,NA,NA,NA,""
"image-keyboard-response",349,266286,"0.0-3.112-2.112","67rvv46w9pvhn48",454,"160.csv","","null","resources/images/fishbone.png","null","",NA,NA,NA,NA,""
"image-keyboard-response",350,266555,"0.0-3.113-0.113","67rvv46w9pvhn48",454,"160.csv","","266.7000000476837","resources/trios/L1T2A3.jpg","38","restless",0.3,0.3,0.5,0.253179543131083,"true"
"image-keyboard-response",351,266963,"0.0-3.113-1.113","67rvv46w9pvhn48",454,"160.csv","","null","resources/maskTrios/BT2B.jpg","null","",NA,NA,NA,NA,""
"image-keyboard-response",352,268171,"0.0-3.113-2.113","67rvv46w9pvhn48",454,"160.csv","","null","resources/images/coin2.png","null","",NA,NA,NA,NA,""
"image-keyboard-response",353,268875,"0.0-3.114-0.114","67rvv46w9pvhn48",454,"160.csv","","702.1000001430511","resources/trios/L2T2A2.jpg","38","restless",0.3,0.3,0.5,0.168260199044249,"true"
"image-keyboard-response",354,269280,"0.0-3.114-1.114","67rvv46w9pvhn48",454,"160.csv","","null","resources/maskTrios/BT2B.jpg","null","",NA,NA,NA,NA,""
"image-keyboard-response",355,270487,"0.0-3.114-2.114","67rvv46w9pvhn48",454,"160.csv","","null","resources/images/coin2.png","null","",NA,NA,NA,NA,""
"image-keyboard-response",356,270918,"0.0-3.115-0.115","67rvv46w9pvhn48",454,"160.csv","","429.7000000476837","resources/trios/L1T1A3.jpg","38","restless",0.3,0.3,0.5,0.127340719093007,"true"
"image-keyboard-response",357,271331,"0.0-3.115-1.115","67rvv46w9pvhn48",454,"160.csv","","null","resources/maskTrios/BT1B.jpg","null","",NA,NA,NA,NA,""
"image-keyboard-response",358,272536,"0.0-3.115-2.115","67rvv46w9pvhn48",454,"160.csv","","null","resources/images/coin2.png","null","",NA,NA,NA,NA,""
"image-keyboard-response",359,272629,"0.0-3.116-0.116","67rvv46w9pvhn48",454,"160.csv","","90.10000014305115","resources/trios/L2T2A3.jpg","38","restless",0.3,0.3,0.5,0.0970177876318334,"true"
"image-keyboard-response",360,273038,"0.0-3.116-1.116","67rvv46w9pvhn48",454,"160.csv","","null","resources/maskTrios/BT2B.jpg","null","",NA,NA,NA,NA,""
"image-keyboard-response",361,274250,"0.0-3.116-2.116","67rvv46w9pvhn48",454,"160.csv","","null","resources/images/coin2.png","null","",NA,NA,NA,NA,""
"image-keyboard-response",362,274448,"0.0-3.117-0.117","67rvv46w9pvhn48",454,"160.csv","","195.20000004768372","resources/trios/L2T2A3.jpg","38","restless",0.3,0.3,0.5,0.661603823935182,"false"
"image-keyboard-response",363,274858,"0.0-3.117-1.117","67rvv46w9pvhn48",454,"160.csv","","null","resources/maskTrios/BT2B.jpg","null","",NA,NA,NA,NA,""
"image-keyboard-response",364,276066,"0.0-3.117-2.117","67rvv46w9pvhn48",454,"160.csv","","null","resources/images/fishbone.png","null","",NA,NA,NA,NA,""
"image-keyboard-response",365,276680,"0.0-3.118-0.118","67rvv46w9pvhn48",454,"160.csv","","611.7999999523163","resources/trios/L2T2A3.jpg","37","restless",0.3,0.3,0.5,0.22449064807441,"true"
"image-keyboard-response",366,277087,"0.0-3.118-1.118","67rvv46w9pvhn48",454,"160.csv","","null","resources/maskTrios/L2BB.jpg","null","",NA,NA,NA,NA,""
"image-keyboard-response",367,278294,"0.0-3.118-2.118","67rvv46w9pvhn48",454,"160.csv","","null","resources/images/coin2.png","null","",NA,NA,NA,NA,""
"image-keyboard-response",368,278617,"0.0-3.119-0.119","67rvv46w9pvhn48",454,"160.csv","","320.7999999523163","resources/trios/L1T1A3.jpg","37","restless",0.3,0.3,0.5,0.370047352080676,"false"
"image-keyboard-response",369,279022,"0.0-3.119-1.119","67rvv46w9pvhn48",454,"160.csv","","null","resources/maskTrios/L1BB.jpg","null","",NA,NA,NA,NA,""
"image-keyboard-response",370,280233,"0.0-3.119-2.119","67rvv46w9pvhn48",454,"160.csv","","null","resources/images/fishbone.png","null","",NA,NA,NA,NA,""
"image-keyboard-response",371,280860,"0.0-3.120-0.120","67rvv46w9pvhn48",454,"160.csv","","625","resources/trios/L2T2A2.jpg","39","restless",0.3,0.2,0.5,0.924924743456787,"false"
"image-keyboard-response",372,281274,"0.0-3.120-1.120","67rvv46w9pvhn48",454,"160.csv","","null","resources/maskTrios/BBA2.jpg","null","",NA,NA,NA,NA,""
"image-keyboard-response",373,282482,"0.0-3.120-2.120","67rvv46w9pvhn48",454,"160.csv","","null","resources/images/fishbone.png","null","",NA,NA,NA,NA,""
"image-keyboard-response",374,282577,"0.0-3.121-0.121","67rvv46w9pvhn48",454,"160.csv","","93.29999995231628","resources/trios/L1T1A2.jpg","38","restless",0.3,0.2,0.5,0.777187740625491,"false"
"image-keyboard-response",375,282986,"0.0-3.121-1.121","67rvv46w9pvhn48",454,"160.csv","","null","resources/maskTrios/BT1B.jpg","null","",NA,NA,NA,NA,""
"image-keyboard-response",376,284193,"0.0-3.121-2.121","67rvv46w9pvhn48",454,"160.csv","","null","resources/images/fishbone.png","null","",NA,NA,NA,NA,""
"image-keyboard-response",377,284848,"0.0-3.122-0.122","67rvv46w9pvhn48",454,"160.csv","","653.4000000953674","resources/trios/L2T2A2.jpg","37","restless",0.2,0.3,0.5,0.467996724685759,"false"
"image-keyboard-response",378,285256,"0.0-3.122-1.122","67rvv46w9pvhn48",454,"160.csv","","null","resources/maskTrios/L2BB.jpg","null","",NA,NA,NA,NA,""
"image-keyboard-response",379,286466,"0.0-3.122-2.122","67rvv46w9pvhn48",454,"160.csv","","null","resources/images/fishbone.png","null","",NA,NA,NA,NA,""
"image-keyboard-response",380,286629,"0.0-3.123-0.123","67rvv46w9pvhn48",454,"160.csv","","161","resources/trios/L1T1A2.jpg","39","restless",0.3,0.3,0.5,0.974455112635356,"false"
"image-keyboard-response",381,287037,"0.0-3.123-1.123","67rvv46w9pvhn48",454,"160.csv","","null","resources/maskTrios/BBA2.jpg","null","",NA,NA,NA,NA,""
"image-keyboard-response",382,288247,"0.0-3.123-2.123","67rvv46w9pvhn48",454,"160.csv","","null","resources/images/fishbone.png","null","",NA,NA,NA,NA,""
"image-keyboard-response",383,288508,"0.0-3.124-0.124","67rvv46w9pvhn48",454,"160.csv","","259.69999980926514","resources/trios/L2T2A2.jpg","39","restless",0.3,0.3,0.5,0.559591158777792,"false"
"image-keyboard-response",384,288922,"0.0-3.124-1.124","67rvv46w9pvhn48",454,"160.csv","","null","resources/maskTrios/BBA2.jpg","null","",NA,NA,NA,NA,""
"image-keyboard-response",385,290130,"0.0-3.124-2.124","67rvv46w9pvhn48",454,"160.csv","","null","resources/images/fishbone.png","null","",NA,NA,NA,NA,""
"image-keyboard-response",386,290488,"0.0-3.125-0.125","67rvv46w9pvhn48",454,"160.csv","","355.89999985694885","resources/trios/L2T1A2.jpg","38","restless",0.3,0.4,0.5,0.728859047236826,"false"
"image-keyboard-response",387,290893,"0.0-3.125-1.125","67rvv46w9pvhn48",454,"160.csv","","null","resources/maskTrios/BT1B.jpg","null","",NA,NA,NA,NA,""
"image-keyboard-response",388,292103,"0.0-3.125-2.125","67rvv46w9pvhn48",454,"160.csv","","null","resources/images/fishbone.png","null","",NA,NA,NA,NA,""
"image-keyboard-response",389,292461,"0.0-3.126-0.126","67rvv46w9pvhn48",454,"160.csv","","355.90000009536743","resources/trios/L1T1A3.jpg","37","restless",0.3,0.5,0.5,0.118977296709026,"true"
"image-keyboard-response",390,292874,"0.0-3.126-1.126","67rvv46w9pvhn48",454,"160.csv","","null","resources/maskTrios/L1BB.jpg","null","",NA,NA,NA,NA,""
"image-keyboard-response",391,294081,"0.0-3.126-2.126","67rvv46w9pvhn48",454,"160.csv","","null","resources/images/coin2.png","null","",NA,NA,NA,NA,""
"image-keyboard-response",392,294102,"0.0-3.127-0.127","67rvv46w9pvhn48",454,"160.csv","","19.200000047683716","resources/trios/L1T2A3.jpg","37","restless",0.3,0.5,0.6,0.0241787448362187,"true"
"image-keyboard-response",393,294514,"0.0-3.127-1.127","67rvv46w9pvhn48",454,"160.csv","","null","resources/maskTrios/L1BB.jpg","null","",NA,NA,NA,NA,""
"image-keyboard-response",394,295718,"0.0-3.127-2.127","67rvv46w9pvhn48",454,"160.csv","","null","resources/images/coin2.png","null","",NA,NA,NA,NA,""
"image-keyboard-response",395,295942,"0.0-3.128-0.128","67rvv46w9pvhn48",454,"160.csv","","222.39999985694885","resources/trios/L2T1A3.jpg","38","restless",0.3,0.5,0.6,0.900167363003154,"false"
"image-keyboard-response",396,296350,"0.0-3.128-1.128","67rvv46w9pvhn48",454,"160.csv","","null","resources/maskTrios/BT1B.jpg","null","",NA,NA,NA,NA,""
"image-keyboard-response",397,297559,"0.0-3.128-2.128","67rvv46w9pvhn48",454,"160.csv","","null","resources/images/fishbone.png","null","",NA,NA,NA,NA,""
"image-keyboard-response",398,297730,"0.0-3.129-0.129","67rvv46w9pvhn48",454,"160.csv","","168.60000014305115","resources/trios/L1T1A3.jpg","37","restless",0.3,0.5,0.6,0.111879546921823,"true"
"image-keyboard-response",399,298137,"0.0-3.129-1.129","67rvv46w9pvhn48",454,"160.csv","","null","resources/maskTrios/L1BB.jpg","null","",NA,NA,NA,NA,""
"image-keyboard-response",400,299343,"0.0-3.129-2.129","67rvv46w9pvhn48",454,"160.csv","","null","resources/images/coin2.png","null","",NA,NA,NA,NA,""
"image-keyboard-response",401,299460,"0.0-3.130-0.130","67rvv46w9pvhn48",454,"160.csv","","114.69999980926514","resources/trios/L2T1A3.jpg","37","restless",0.3,0.5,0.6,0.531103177498634,"false"
"image-keyboard-response",402,299870,"0.0-3.130-1.130","67rvv46w9pvhn48",454,"160.csv","","null","resources/maskTrios/L2BB.jpg","null","",NA,NA,NA,NA,""
"image-keyboard-response",403,301082,"0.0-3.130-2.130","67rvv46w9pvhn48",454,"160.csv","","null","resources/images/fishbone.png","null","",NA,NA,NA,NA,""
"image-keyboard-response",404,301253,"0.0-3.131-0.131","67rvv46w9pvhn48",454,"160.csv","","168.79999995231628","resources/trios/L2T2A3.jpg","39","restless",0.3,0.5,0.6,0.0501226259750829,"true"
"image-keyboard-response",405,301666,"0.0-3.131-1.131","67rvv46w9pvhn48",454,"160.csv","","null","resources/maskTrios/BBA3.jpg","null","",NA,NA,NA,NA,""
"image-keyboard-response",406,302874,"0.0-3.131-2.131","67rvv46w9pvhn48",454,"160.csv","","null","resources/images/coin2.png","null","",NA,NA,NA,NA,""
"image-keyboard-response",407,303184,"0.0-3.132-0.132","67rvv46w9pvhn48",454,"160.csv","","307.39999985694885","resources/trios/L1T1A2.jpg","38","restless",0.3,0.5,0.6,0.472640755693168,"true"
"image-keyboard-response",408,303592,"0.0-3.132-1.132","67rvv46w9pvhn48",454,"160.csv","","null","resources/maskTrios/BT1B.jpg","null","",NA,NA,NA,NA,""
"image-keyboard-response",409,304797,"0.0-3.132-2.132","67rvv46w9pvhn48",454,"160.csv","","null","resources/images/coin2.png","null","",NA,NA,NA,NA,""
"image-keyboard-response",410,305118,"0.0-3.133-0.133","67rvv46w9pvhn48",454,"160.csv","","318.7000000476837","resources/trios/L2T1A3.jpg","39","restless",0.3,0.5,0.6,0.156527224712542,"true"
"image-keyboard-response",411,305530,"0.0-3.133-1.133","67rvv46w9pvhn48",454,"160.csv","","null","resources/maskTrios/BBA3.jpg","null","",NA,NA,NA,NA,""
"image-keyboard-response",412,306738,"0.0-3.133-2.133","67rvv46w9pvhn48",454,"160.csv","","null","resources/images/coin2.png","null","",NA,NA,NA,NA,""
"image-keyboard-response",413,307222,"0.0-3.134-0.134","67rvv46w9pvhn48",454,"160.csv","","481.7999999523163","resources/trios/L1T1A3.jpg","37","restless",0.3,0.5,0.6,0.791010096910699,"false"
"image-keyboard-response",414,307634,"0.0-3.134-1.134","67rvv46w9pvhn48",454,"160.csv","","null","resources/maskTrios/L1BB.jpg","null","",NA,NA,NA,NA,""
"image-keyboard-response",415,308842,"0.0-3.134-2.134","67rvv46w9pvhn48",454,"160.csv","","null","resources/images/fishbone.png","null","",NA,NA,NA,NA,""
"image-keyboard-response",416,309053,"0.0-3.135-0.135","67rvv46w9pvhn48",454,"160.csv","","208.69999980926514","resources/trios/L2T1A2.jpg","38","restless",0.3,0.5,0.7,0.433573047650394,"true"
"image-keyboard-response",417,309465,"0.0-3.135-1.135","67rvv46w9pvhn48",454,"160.csv","","null","resources/maskTrios/BT1B.jpg","null","",NA,NA,NA,NA,""
"image-keyboard-response",418,310670,"0.0-3.135-2.135","67rvv46w9pvhn48",454,"160.csv","","null","resources/images/coin2.png","null","",NA,NA,NA,NA,""
"image-keyboard-response",419,310739,"0.0-3.136-0.136","67rvv46w9pvhn48",454,"160.csv","","66","resources/trios/L1T2A2.jpg","39","restless",0.3,0.5,0.7,0.206915426099686,"true"
"image-keyboard-response",420,311154,"0.0-3.136-1.136","67rvv46w9pvhn48",454,"160.csv","","null","resources/maskTrios/BBA2.jpg","null","",NA,NA,NA,NA,""
"image-keyboard-response",421,312357,"0.0-3.136-2.136","67rvv46w9pvhn48",454,"160.csv","","null","resources/images/coin2.png","null","",NA,NA,NA,NA,""
"image-keyboard-response",422,312507,"0.0-3.137-0.137","67rvv46w9pvhn48",454,"160.csv","","148","resources/trios/L1T2A3.jpg","38","restless",0.3,0.5,0.7,0.378671213704093,"true"
"image-keyboard-response",423,312921,"0.0-3.137-1.137","67rvv46w9pvhn48",454,"160.csv","","null","resources/maskTrios/BT2B.jpg","null","",NA,NA,NA,NA,""
"image-keyboard-response",424,314125,"0.0-3.137-2.137","67rvv46w9pvhn48",454,"160.csv","","null","resources/images/coin2.png","null","",NA,NA,NA,NA,""
"image-keyboard-response",425,314506,"0.0-3.138-0.138","67rvv46w9pvhn48",454,"160.csv","","378.90000009536743","resources/trios/L2T2A3.jpg","39","restless",0.3,0.5,0.7,0.726798808545941,"false"
"image-keyboard-response",426,314912,"0.0-3.138-1.138","67rvv46w9pvhn48",454,"160.csv","","null","resources/maskTrios/BBA3.jpg","null","",NA,NA,NA,NA,""
"image-keyboard-response",427,316121,"0.0-3.138-2.138","67rvv46w9pvhn48",454,"160.csv","","null","resources/images/fishbone.png","null","",NA,NA,NA,NA,""
"image-keyboard-response",428,316264,"0.0-3.139-0.139","67rvv46w9pvhn48",454,"160.csv","","140.5","resources/trios/L1T2A3.jpg","37","restless",0.3,0.5,0.7,0.388848992407367,"false"
"image-keyboard-response",429,316673,"0.0-3.139-1.139","67rvv46w9pvhn48",454,"160.csv","","null","resources/maskTrios/L1BB.jpg","null","",NA,NA,NA,NA,""
"image-keyboard-response",430,317877,"0.0-3.139-2.139","67rvv46w9pvhn48",454,"160.csv","","null","resources/images/fishbone.png","null","",NA,NA,NA,NA,""
"image-keyboard-response",431,317940,"0.0-3.140-0.140","67rvv46w9pvhn48",454,"160.csv","","60.700000047683716","resources/trios/L1T2A2.jpg","38","restless",0.3,0.5,0.8,0.145145594555374,"true"
"image-keyboard-response",432,318353,"0.0-3.140-1.140","67rvv46w9pvhn48",454,"160.csv","","null","resources/maskTrios/BT2B.jpg","null","",NA,NA,NA,NA,""
"image-keyboard-response",433,319560,"0.0-3.140-2.140","67rvv46w9pvhn48",454,"160.csv","","null","resources/images/coin2.png","null","",NA,NA,NA,NA,""
"image-keyboard-response",434,319741,"0.0-3.141-0.141","67rvv46w9pvhn48",454,"160.csv","","178.89999985694885","resources/trios/L2T1A2.jpg","39","restless",0.3,0.5,0.8,0.153988232197165,"true"
"image-keyboard-response",435,320149,"0.0-3.141-1.141","67rvv46w9pvhn48",454,"160.csv","","null","resources/maskTrios/BBA2.jpg","null","",NA,NA,NA,NA,""
"image-keyboard-response",436,321357,"0.0-3.141-2.141","67rvv46w9pvhn48",454,"160.csv","","null","resources/images/coin2.png","null","",NA,NA,NA,NA,""
"image-keyboard-response",437,321496,"0.0-3.142-0.142","67rvv46w9pvhn48",454,"160.csv","","137.09999990463257","resources/trios/L2T2A3.jpg","38","restless",0.3,0.5,0.8,0.773367573842848,"false"
"image-keyboard-response",438,321905,"0.0-3.142-1.142","67rvv46w9pvhn48",454,"160.csv","","null","resources/maskTrios/BT2B.jpg","null","",NA,NA,NA,NA,""
"image-keyboard-response",439,323113,"0.0-3.142-2.142","67rvv46w9pvhn48",454,"160.csv","","null","resources/images/fishbone.png","null","",NA,NA,NA,NA,""
"image-keyboard-response",440,323656,"0.0-3.143-0.143","67rvv46w9pvhn48",454,"160.csv","","541.3000001907349","resources/trios/L1T1A3.jpg","37","restless",0.3,0.5,0.8,0.0491531542735117,"true"
"image-keyboard-response",441,324060,"0.0-3.143-1.143","67rvv46w9pvhn48",454,"160.csv","","null","resources/maskTrios/L1BB.jpg","null","",NA,NA,NA,NA,""
"image-keyboard-response",442,325270,"0.0-3.143-2.143","67rvv46w9pvhn48",454,"160.csv","","null","resources/images/coin2.png","null","",NA,NA,NA,NA,""
"image-keyboard-response",443,325695,"0.0-3.144-0.144","67rvv46w9pvhn48",454,"160.csv","","423.40000009536743","resources/trios/L2T1A3.jpg","39","restless",0.3,0.5,0.8,0.833945873910419,"false"
"image-keyboard-response",444,326101,"0.0-3.144-1.144","67rvv46w9pvhn48",454,"160.csv","","null","resources/maskTrios/BBA3.jpg","null","",NA,NA,NA,NA,""
"image-keyboard-response",445,327313,"0.0-3.144-2.144","67rvv46w9pvhn48",454,"160.csv","","null","resources/images/fishbone.png","null","",NA,NA,NA,NA,""
"image-keyboard-response",446,327620,"0.0-3.145-0.145","67rvv46w9pvhn48",454,"160.csv","","305.2999999523163","resources/trios/L1T1A2.jpg","38","restless",0.3,0.5,0.8,0.952856932671404,"false"
"image-keyboard-response",447,328025,"0.0-3.145-1.145","67rvv46w9pvhn48",454,"160.csv","","null","resources/maskTrios/BT1B.jpg","null","",NA,NA,NA,NA,""
"image-keyboard-response",448,329230,"0.0-3.145-2.145","67rvv46w9pvhn48",454,"160.csv","","null","resources/images/fishbone.png","null","",NA,NA,NA,NA,""
"image-keyboard-response",449,329602,"0.0-3.146-0.146","67rvv46w9pvhn48",454,"160.csv","","370.19999980926514","resources/trios/L1T1A2.jpg","38","restless",0.3,0.5,0.8,0.355598784985115,"true"
"image-keyboard-response",450,330012,"0.0-3.146-1.146","67rvv46w9pvhn48",454,"160.csv","","null","resources/maskTrios/BT1B.jpg","null","",NA,NA,NA,NA,""
"image-keyboard-response",451,331224,"0.0-3.146-2.146","67rvv46w9pvhn48",454,"160.csv","","null","resources/images/coin2.png","null","",NA,NA,NA,NA,""
"image-keyboard-response",452,331486,"0.0-3.147-0.147","67rvv46w9pvhn48",454,"160.csv","","259.7999999523163","resources/trios/L2T1A3.jpg","38","restless",0.3,0.5,0.8,0.478729952431511,"true"
"image-keyboard-response",453,331897,"0.0-3.147-1.147","67rvv46w9pvhn48",454,"160.csv","","null","resources/maskTrios/BT1B.jpg","null","",NA,NA,NA,NA,""
"image-keyboard-response",454,333100,"0.0-3.147-2.147","67rvv46w9pvhn48",454,"160.csv","","null","resources/images/coin2.png","null","",NA,NA,NA,NA,""
"image-keyboard-response",455,333416,"0.0-3.148-0.148","67rvv46w9pvhn48",454,"160.csv","","313.90000009536743","resources/trios/L2T2A2.jpg","37","restless",0.3,0.5,0.7,0.339904438588347,"false"
"image-keyboard-response",456,333825,"0.0-3.148-1.148","67rvv46w9pvhn48",454,"160.csv","","null","resources/maskTrios/L2BB.jpg","null","",NA,NA,NA,NA,""
"image-keyboard-response",457,335033,"0.0-3.148-2.148","67rvv46w9pvhn48",454,"160.csv","","null","resources/images/fishbone.png","null","",NA,NA,NA,NA,""
"image-keyboard-response",458,335204,"0.0-3.149-0.149","67rvv46w9pvhn48",454,"160.csv","","169.60000014305115","resources/trios/L1T1A2.jpg","39","restless",0.3,0.5,0.7,0.698953453373852,"true"
"image-keyboard-response",459,335613,"0.0-3.149-1.149","67rvv46w9pvhn48",454,"160.csv","","null","resources/maskTrios/BBA2.jpg","null","",NA,NA,NA,NA,""
"image-keyboard-response",460,336825,"0.0-3.149-2.149","67rvv46w9pvhn48",454,"160.csv","","null","resources/images/coin2.png","null","",NA,NA,NA,NA,""
"image-keyboard-response",461,336892,"0.0-3.150-0.150","67rvv46w9pvhn48",454,"160.csv","","64.79999995231628","resources/trios/L2T2A2.jpg","38","restless",0.3,0.5,0.6,0.402239138393827,"true"
"image-keyboard-response",462,337303,"0.0-3.150-1.150","67rvv46w9pvhn48",454,"160.csv","","null","resources/maskTrios/BT2B.jpg","null","",NA,NA,NA,NA,""
"image-keyboard-response",463,338513,"0.0-3.150-2.150","67rvv46w9pvhn48",454,"160.csv","","null","resources/images/coin2.png","null","",NA,NA,NA,NA,""
"image-keyboard-response",464,339250,"0.0-3.151-0.151","67rvv46w9pvhn48",454,"160.csv","","734.9000000953674","resources/trios/L1T2A2.jpg","38","restless",0.3,0.5,0.6,0.963717061798084,"false"
"image-keyboard-response",465,339653,"0.0-3.151-1.151","67rvv46w9pvhn48",454,"160.csv","","null","resources/maskTrios/BT2B.jpg","null","",NA,NA,NA,NA,""
"image-keyboard-response",466,340865,"0.0-3.151-2.151","67rvv46w9pvhn48",454,"160.csv","","null","resources/images/fishbone.png","null","",NA,NA,NA,NA,""
"image-keyboard-response",467,340880,"0.0-3.152-0.152","67rvv46w9pvhn48",454,"160.csv","","13.700000047683716","resources/trios/L2T1A3.jpg","37","restless",0.3,0.5,0.6,0.947269178527649,"false"
"image-keyboard-response",468,341289,"0.0-3.152-1.152","67rvv46w9pvhn48",454,"160.csv","","null","resources/maskTrios/L2BB.jpg","null","",NA,NA,NA,NA,""
"image-keyboard-response",469,342492,"0.0-3.152-2.152","67rvv46w9pvhn48",454,"160.csv","","null","resources/images/fishbone.png","null","",NA,NA,NA,NA,""
"image-keyboard-response",470,342582,"0.0-3.153-0.153","67rvv46w9pvhn48",454,"160.csv","","87.90000009536743","resources/trios/L2T1A3.jpg","37","restless",0.3,0.5,0.6,0.853178975654638,"false"
"image-keyboard-response",471,342992,"0.0-3.153-1.153","67rvv46w9pvhn48",454,"160.csv","","null","resources/maskTrios/L2BB.jpg","null","",NA,NA,NA,NA,""
"image-keyboard-response",472,344200,"0.0-3.153-2.153","67rvv46w9pvhn48",454,"160.csv","","null","resources/images/fishbone.png","null","",NA,NA,NA,NA,""
"image-keyboard-response",473,344369,"0.0-3.154-0.154","67rvv46w9pvhn48",454,"160.csv","","166.5","resources/trios/L1T1A3.jpg","39","restless",0.3,0.5,0.6,0.472106565144818,"true"
"image-keyboard-response",474,344776,"0.0-3.154-1.154","67rvv46w9pvhn48",454,"160.csv","","null","resources/maskTrios/BBA3.jpg","null","",NA,NA,NA,NA,""
"image-keyboard-response",475,345985,"0.0-3.154-2.154","67rvv46w9pvhn48",454,"160.csv","","null","resources/images/coin2.png","null","",NA,NA,NA,NA,""
"image-keyboard-response",476,346053,"0.0-3.155-0.155","67rvv46w9pvhn48",454,"160.csv","","66.30000019073486","resources/trios/L1T1A2.jpg","39","restless",0.3,0.5,0.6,0.328332346948549,"true"
"image-keyboard-response",477,346460,"0.0-3.155-1.155","67rvv46w9pvhn48",454,"160.csv","","null","resources/maskTrios/BBA2.jpg","null","",NA,NA,NA,NA,""
"image-keyboard-response",478,347672,"0.0-3.155-2.155","67rvv46w9pvhn48",454,"160.csv","","null","resources/images/coin2.png","null","",NA,NA,NA,NA,""
"image-keyboard-response",479,347870,"0.0-3.156-0.156","67rvv46w9pvhn48",454,"160.csv","","195.30000019073486","resources/trios/L2T2A2.jpg","39","restless",0.3,0.5,0.7,0.0393696886520027,"true"
"image-keyboard-response",480,348280,"0.0-3.156-1.156","67rvv46w9pvhn48",454,"160.csv","","null","resources/maskTrios/BBA2.jpg","null","",NA,NA,NA,NA,""
"image-keyboard-response",481,349487,"0.0-3.156-2.156","67rvv46w9pvhn48",454,"160.csv","","null","resources/images/coin2.png","null","",NA,NA,NA,NA,""
"image-keyboard-response",482,349754,"0.0-3.157-0.157","67rvv46w9pvhn48",454,"160.csv","","264.39999985694885","resources/trios/L1T1A3.jpg","39","restless",0.3,0.5,0.7,0.213229826414314,"true"
"image-keyboard-response",483,350168,"0.0-3.157-1.157","67rvv46w9pvhn48",454,"160.csv","","null","resources/maskTrios/BBA3.jpg","null","",NA,NA,NA,NA,""
"image-keyboard-response",484,351373,"0.0-3.157-2.157","67rvv46w9pvhn48",454,"160.csv","","null","resources/images/coin2.png","null","",NA,NA,NA,NA,""
"image-keyboard-response",485,351535,"0.0-3.158-0.158","67rvv46w9pvhn48",454,"160.csv","","159.10000014305115","resources/trios/L2T2A3.jpg","39","restless",0.4,0.4,0.8,0.907803571935081,"false"
"image-keyboard-response",486,351942,"0.0-3.158-1.158","67rvv46w9pvhn48",454,"160.csv","","null","resources/maskTrios/BBA3.jpg","null","",NA,NA,NA,NA,""
"image-keyboard-response",487,353152,"0.0-3.158-2.158","67rvv46w9pvhn48",454,"160.csv","","null","resources/images/fishbone.png","null","",NA,NA,NA,NA,""
"image-keyboard-response",488,353247,"0.0-3.159-0.159","67rvv46w9pvhn48",454,"160.csv","","92.20000004768372","resources/trios/L1T1A2.jpg","38","restless",0.4,0.4,0.8,0.229127126505178,"true"
"image-keyboard-response",489,353652,"0.0-3.159-1.159","67rvv46w9pvhn48",454,"160.csv","","null","resources/maskTrios/BT1B.jpg","null","",NA,NA,NA,NA,""
"image-keyboard-response",490,354862,"0.0-3.159-2.159","67rvv46w9pvhn48",454,"160.csv","","null","resources/images/coin2.png","null","",NA,NA,NA,NA,""
"image-keyboard-response",491,355060,"0.0-3.160-0.160","67rvv46w9pvhn48",454,"160.csv","","196","resources/trios/L2T2A2.jpg","38","restless",0.4,0.4,0.7,0.977805063727046,"false"
"image-keyboard-response",492,355468,"0.0-3.160-1.160","67rvv46w9pvhn48",454,"160.csv","","null","resources/maskTrios/BT2B.jpg","null","",NA,NA,NA,NA,""
"image-keyboard-response",493,356678,"0.0-3.160-2.160","67rvv46w9pvhn48",454,"160.csv","","null","resources/images/fishbone.png","null","",NA,NA,NA,NA,""
"image-keyboard-response",494,356923,"0.0-3.161-0.161","67rvv46w9pvhn48",454,"160.csv","","242.20000004768372","resources/trios/L2T2A3.jpg","37","restless",0.4,0.4,0.7,0.680917237216062,"false"
"image-keyboard-response",495,357336,"0.0-3.161-1.161","67rvv46w9pvhn48",454,"160.csv","","null","resources/maskTrios/L2BB.jpg","null","",NA,NA,NA,NA,""
"image-keyboard-response",496,358541,"0.0-3.161-2.161","67rvv46w9pvhn48",454,"160.csv","","null","resources/images/fishbone.png","null","",NA,NA,NA,NA,""
"image-keyboard-response",497,358806,"0.0-3.162-0.162","67rvv46w9pvhn48",454,"160.csv","","262.90000009536743","resources/trios/L1T2A3.jpg","39","restless",0.4,0.4,0.7,0.524634148268645,"true"
"image-keyboard-response",498,359213,"0.0-3.162-1.162","67rvv46w9pvhn48",454,"160.csv","","null","resources/maskTrios/BBA3.jpg","null","",NA,NA,NA,NA,""
"image-keyboard-response",499,360424,"0.0-3.162-2.162","67rvv46w9pvhn48",454,"160.csv","","null","resources/images/coin2.png","null","",NA,NA,NA,NA,""
"image-keyboard-response",500,360802,"0.0-3.163-0.163","67rvv46w9pvhn48",454,"160.csv","","376.7000000476837","resources/trios/L2T1A2.jpg","39","restless",0.4,0.4,0.7,0.0854595265519531,"true"
"image-keyboard-response",501,361213,"0.0-3.163-1.163","67rvv46w9pvhn48",454,"160.csv","","null","resources/maskTrios/BBA2.jpg","null","",NA,NA,NA,NA,""
"image-keyboard-response",502,362416,"0.0-3.163-2.163","67rvv46w9pvhn48",454,"160.csv","","null","resources/images/coin2.png","null","",NA,NA,NA,NA,""
"image-keyboard-response",503,363069,"0.0-3.164-0.164","67rvv46w9pvhn48",454,"160.csv","","651.5999999046326","resources/trios/L1T1A3.jpg","39","restless",0.4,0.4,0.7,0.647640465210138,"true"
"image-keyboard-response",504,363480,"0.0-3.164-1.164","67rvv46w9pvhn48",454,"160.csv","","null","resources/maskTrios/BBA3.jpg","null","",NA,NA,NA,NA,""
"image-keyboard-response",505,364684,"0.0-3.164-2.164","67rvv46w9pvhn48",454,"160.csv","","null","resources/images/coin2.png","null","",NA,NA,NA,NA,""
"image-keyboard-response",506,365171,"0.0-3.165-0.165","67rvv46w9pvhn48",454,"160.csv","","485","resources/trios/L1T2A3.jpg","38","restless",0.3,0.4,0.7,0.955299779205445,"false"
"image-keyboard-response",507,365580,"0.0-3.165-1.165","67rvv46w9pvhn48",454,"160.csv","","null","resources/maskTrios/BT2B.jpg","null","",NA,NA,NA,NA,""
"image-keyboard-response",508,366791,"0.0-3.165-2.165","67rvv46w9pvhn48",454,"160.csv","","null","resources/images/fishbone.png","null","",NA,NA,NA,NA,""
"image-keyboard-response",509,366871,"0.0-3.166-0.166","67rvv46w9pvhn48",454,"160.csv","","77.90000009536743","resources/trios/L1T1A3.jpg","39","restless",0.2,0.4,0.7,0.95277695205953,"false"
"image-keyboard-response",510,367276,"0.0-3.166-1.166","67rvv46w9pvhn48",454,"160.csv","","null","resources/maskTrios/BBA3.jpg","null","",NA,NA,NA,NA,""
"image-keyboard-response",511,368486,"0.0-3.166-2.166","67rvv46w9pvhn48",454,"160.csv","","null","resources/images/fishbone.png","null","",NA,NA,NA,NA,""
"image-keyboard-response",512,368911,"0.0-3.167-0.167","67rvv46w9pvhn48",454,"160.csv","","422.80000019073486","resources/trios/L1T1A3.jpg","37","restless",0.2,0.3,0.7,0.482490987679952,"false"
"image-keyboard-response",513,369316,"0.0-3.167-1.167","67rvv46w9pvhn48",454,"160.csv","","null","resources/maskTrios/L1BB.jpg","null","",NA,NA,NA,NA,""
"image-keyboard-response",514,370528,"0.0-3.167-2.167","67rvv46w9pvhn48",454,"160.csv","","null","resources/images/fishbone.png","null","",NA,NA,NA,NA,""
"image-keyboard-response",515,370769,"0.0-3.168-0.168","67rvv46w9pvhn48",454,"160.csv","","239.20000004768372","resources/trios/L2T1A3.jpg","38","restless",0.2,0.3,0.7,0.00841137407341863,"true"
"image-keyboard-response",516,371180,"0.0-3.168-1.168","67rvv46w9pvhn48",454,"160.csv","","null","resources/maskTrios/BT1B.jpg","null","",NA,NA,NA,NA,""
"image-keyboard-response",517,372391,"0.0-3.168-2.168","67rvv46w9pvhn48",454,"160.csv","","null","resources/images/coin2.png","null","",NA,NA,NA,NA,""
"image-keyboard-response",518,372726,"0.0-3.169-0.169","67rvv46w9pvhn48",454,"160.csv","","333.90000009536743","resources/trios/L1T2A3.jpg","38","restless",0.2,0.3,0.7,0.498501589922083,"false"
"image-keyboard-response",519,373136,"0.0-3.169-1.169","67rvv46w9pvhn48",454,"160.csv","","null","resources/maskTrios/BT2B.jpg","null","",NA,NA,NA,NA,""
"image-keyboard-response",520,374341,"0.0-3.169-2.169","67rvv46w9pvhn48",454,"160.csv","","null","resources/images/fishbone.png","null","",NA,NA,NA,NA,""
"image-keyboard-response",521,374753,"0.0-3.170-0.170","67rvv46w9pvhn48",454,"160.csv","","410.2000000476837","resources/trios/L2T1A3.jpg","39","restless",0.2,0.3,0.7,0.613532321189132,"true"
"image-keyboard-response",522,375168,"0.0-3.170-1.170","67rvv46w9pvhn48",454,"160.csv","","null","resources/maskTrios/BBA3.jpg","null","",NA,NA,NA,NA,""
"image-keyboard-response",523,376376,"0.0-3.170-2.170","67rvv46w9pvhn48",454,"160.csv","","null","resources/images/coin2.png","null","",NA,NA,NA,NA,""
"image-keyboard-response",524,376537,"0.0-3.171-0.171","67rvv46w9pvhn48",454,"160.csv","","159.20000004768372","resources/trios/L1T2A3.jpg","39","restless",0.2,0.2,0.7,0.37875317838636,"true"
"image-keyboard-response",525,376952,"0.0-3.171-1.171","67rvv46w9pvhn48",454,"160.csv","","null","resources/maskTrios/BBA3.jpg","null","",NA,NA,NA,NA,""
"image-keyboard-response",526,378156,"0.0-3.171-2.171","67rvv46w9pvhn48",454,"160.csv","","null","resources/images/coin2.png","null","",NA,NA,NA,NA,""
"image-keyboard-response",527,378580,"0.0-3.172-0.172","67rvv46w9pvhn48",454,"160.csv","","421","resources/trios/L2T2A3.jpg","37","restless",0.2,0.1,0.7,0.890357740376173,"false"
"image-keyboard-response",528,378991,"0.0-3.172-1.172","67rvv46w9pvhn48",454,"160.csv","","null","resources/maskTrios/L2BB.jpg","null","",NA,NA,NA,NA,""
"image-keyboard-response",529,380197,"0.0-3.172-2.172","67rvv46w9pvhn48",454,"160.csv","","null","resources/images/fishbone.png","null","",NA,NA,NA,NA,""
"image-keyboard-response",530,380617,"0.0-3.173-0.173","67rvv46w9pvhn48",454,"160.csv","","418.5","resources/trios/L1T1A2.jpg","38","restless",0.3,0.1,0.7,0.812626879434997,"false"
"image-keyboard-response",531,381032,"0.0-3.173-1.173","67rvv46w9pvhn48",454,"160.csv","","null","resources/maskTrios/BT1B.jpg","null","",NA,NA,NA,NA,""
"image-keyboard-response",532,382237,"0.0-3.173-2.173","67rvv46w9pvhn48",454,"160.csv","","null","resources/images/fishbone.png","null","",NA,NA,NA,NA,""
"image-keyboard-response",533,382549,"0.0-3.174-0.174","67rvv46w9pvhn48",454,"160.csv","","309.69999980926514","resources/trios/L1T2A3.jpg","37","restless",0.3,0.1,0.7,0.577778016677483,"false"
"image-keyboard-response",534,382957,"0.0-3.174-1.174","67rvv46w9pvhn48",454,"160.csv","","null","resources/maskTrios/L1BB.jpg","null","",NA,NA,NA,NA,""
"image-keyboard-response",535,384168,"0.0-3.174-2.174","67rvv46w9pvhn48",454,"160.csv","","null","resources/images/fishbone.png","null","",NA,NA,NA,NA,""
"image-keyboard-response",536,384256,"0.0-3.175-0.175","67rvv46w9pvhn48",454,"160.csv","","86.09999990463257","resources/trios/L2T1A3.jpg","39","restless",0.3,0.1,0.7,0.525029875083427,"true"
"image-keyboard-response",537,384664,"0.0-3.175-1.175","67rvv46w9pvhn48",454,"160.csv","","null","resources/maskTrios/BBA3.jpg","null","",NA,NA,NA,NA,""
"image-keyboard-response",538,385871,"0.0-3.175-2.175","67rvv46w9pvhn48",454,"160.csv","","null","resources/images/coin2.png","null","",NA,NA,NA,NA,""
"image-keyboard-response",539,386218,"0.0-3.176-0.176","67rvv46w9pvhn48",454,"160.csv","","344.7999999523163","resources/trios/L2T1A2.jpg","39","restless",0.3,0.1,0.7,0.71146522018662,"false"
"image-keyboard-response",540,386632,"0.0-3.176-1.176","67rvv46w9pvhn48",454,"160.csv","","null","resources/maskTrios/BBA2.jpg","null","",NA,NA,NA,NA,""
"image-keyboard-response",541,387840,"0.0-3.176-2.176","67rvv46w9pvhn48",454,"160.csv","","null","resources/images/fishbone.png","null","",NA,NA,NA,NA,""
"image-keyboard-response",542,387888,"0.0-3.177-0.177","67rvv46w9pvhn48",454,"160.csv","","46","resources/trios/L1T1A3.jpg","38","restless",0.3,0.1,0.7,0.242260439570211,"false"
"image-keyboard-response",543,388291,"0.0-3.177-1.177","67rvv46w9pvhn48",454,"160.csv","","null","resources/maskTrios/BT1B.jpg","null","",NA,NA,NA,NA,""
"image-keyboard-response",544,389503,"0.0-3.177-2.177","67rvv46w9pvhn48",454,"160.csv","","null","resources/images/fishbone.png","null","",NA,NA,NA,NA,""
"image-keyboard-response",545,389558,"0.0-3.178-0.178","67rvv46w9pvhn48",454,"160.csv","","52.700000047683716","resources/trios/L2T1A2.jpg","37","restless",0.3,0.1,0.7,0.864122512832872,"false"
"image-keyboard-response",546,389965,"0.0-3.178-1.178","67rvv46w9pvhn48",454,"160.csv","","null","resources/maskTrios/L2BB.jpg","null","",NA,NA,NA,NA,""
"image-keyboard-response",547,391172,"0.0-3.178-2.178","67rvv46w9pvhn48",454,"160.csv","","null","resources/images/fishbone.png","null","",NA,NA,NA,NA,""
"image-keyboard-response",548,391623,"0.0-3.179-0.179","67rvv46w9pvhn48",454,"160.csv","","449.2999999523163","resources/trios/L2T1A2.jpg","39","restless",0.3,0.1,0.7,0.679763148011075,"true"
"image-keyboard-response",549,392031,"0.0-3.179-1.179","67rvv46w9pvhn48",454,"160.csv","","null","resources/maskTrios/BBA2.jpg","null","",NA,NA,NA,NA,""
"image-keyboard-response",550,393239,"0.0-3.179-2.179","67rvv46w9pvhn48",454,"160.csv","","null","resources/images/coin2.png","null","",NA,NA,NA,NA,""
"image-keyboard-response",551,393326,"0.0-3.180-0.180","67rvv46w9pvhn48",454,"160.csv","","85.29999995231628","resources/trios/L2T2A2.jpg","39","restless",0.3,0.1,0.6,0.41160743197065,"true"
"image-keyboard-response",552,393735,"0.0-3.180-1.180","67rvv46w9pvhn48",454,"160.csv","","null","resources/maskTrios/BBA2.jpg","null","",NA,NA,NA,NA,""
"image-keyboard-response",553,394941,"0.0-3.180-2.180","67rvv46w9pvhn48",454,"160.csv","","null","resources/images/coin2.png","null","",NA,NA,NA,NA,""
"image-keyboard-response",554,395292,"0.0-3.181-0.181","67rvv46w9pvhn48",454,"160.csv","","349","resources/trios/L2T1A3.jpg","39","restless",0.3,0.1,0.6,0.176673596158026,"true"
"image-keyboard-response",555,395703,"0.0-3.181-1.181","67rvv46w9pvhn48",454,"160.csv","","null","resources/maskTrios/BBA3.jpg","null","",NA,NA,NA,NA,""
"image-keyboard-response",556,396907,"0.0-3.181-2.181","67rvv46w9pvhn48",454,"160.csv","","null","resources/images/coin2.png","null","",NA,NA,NA,NA,""
"image-keyboard-response",557,396981,"0.0-3.182-0.182","67rvv46w9pvhn48",454,"160.csv","","72.40000009536743","resources/trios/L1T1A2.jpg","39","restless",0.3,0.1,0.6,0.216523227867319,"true"
"image-keyboard-response",558,397391,"0.0-3.182-1.182","67rvv46w9pvhn48",454,"160.csv","","null","resources/maskTrios/BBA2.jpg","null","",NA,NA,NA,NA,""
"image-keyboard-response",559,398597,"0.0-3.182-2.182","67rvv46w9pvhn48",454,"160.csv","","null","resources/images/coin2.png","null","",NA,NA,NA,NA,""
"image-keyboard-response",560,398980,"0.0-3.183-0.183","67rvv46w9pvhn48",454,"160.csv","","381.2000000476837","resources/trios/L2T1A3.jpg","39","restless",0.3,0.1,0.6,0.996547948804023,"false"
"image-keyboard-response",561,399391,"0.0-3.183-1.183","67rvv46w9pvhn48",454,"160.csv","","null","resources/maskTrios/BBA3.jpg","null","",NA,NA,NA,NA,""
"image-keyboard-response",562,400597,"0.0-3.183-2.183","67rvv46w9pvhn48",454,"160.csv","","null","resources/images/fishbone.png","null","",NA,NA,NA,NA,""
"image-keyboard-response",563,400953,"0.0-3.184-0.184","67rvv46w9pvhn48",454,"160.csv","","354.19999980926514","resources/trios/L1T1A2.jpg","39","restless",0.3,0.1,0.6,0.467432252226428,"true"
"image-keyboard-response",564,401363,"0.0-3.184-1.184","67rvv46w9pvhn48",454,"160.csv","","null","resources/maskTrios/BBA2.jpg","null","",NA,NA,NA,NA,""
"image-keyboard-response",565,402573,"0.0-3.184-2.184","67rvv46w9pvhn48",454,"160.csv","","null","resources/images/coin2.png","null","",NA,NA,NA,NA,""
"image-keyboard-response",566,402941,"0.0-3.185-0.185","67rvv46w9pvhn48",454,"160.csv","","366.09999990463257","resources/trios/L2T1A3.jpg","39","restless",0.3,0.1,0.6,0.423000665259181,"true"
"image-keyboard-response",567,403347,"0.0-3.185-1.185","67rvv46w9pvhn48",454,"160.csv","","null","resources/maskTrios/BBA3.jpg","null","",NA,NA,NA,NA,""
"image-keyboard-response",568,404559,"0.0-3.185-2.185","67rvv46w9pvhn48",454,"160.csv","","null","resources/images/coin2.png","null","",NA,NA,NA,NA,""
"image-keyboard-response",569,404936,"0.0-3.186-0.186","67rvv46w9pvhn48",454,"160.csv","","374.90000009536743","resources/trios/L1T1A3.jpg","39","restless",0.3,0.1,0.6,0.849418514490113,"false"
"image-keyboard-response",570,405347,"0.0-3.186-1.186","67rvv46w9pvhn48",454,"160.csv","","null","resources/maskTrios/BBA3.jpg","null","",NA,NA,NA,NA,""
"image-keyboard-response",571,406555,"0.0-3.186-2.186","67rvv46w9pvhn48",454,"160.csv","","null","resources/images/fishbone.png","null","",NA,NA,NA,NA,""
"image-keyboard-response",572,406811,"0.0-3.187-0.187","67rvv46w9pvhn48",454,"160.csv","","254.29999995231628","resources/trios/L2T1A2.jpg","37","restless",0.3,0.1,0.6,0.974493357644429,"false"
"image-keyboard-response",573,407219,"0.0-3.187-1.187","67rvv46w9pvhn48",454,"160.csv","","null","resources/maskTrios/L2BB.jpg","null","",NA,NA,NA,NA,""
"image-keyboard-response",574,408427,"0.0-3.187-2.187","67rvv46w9pvhn48",454,"160.csv","","null","resources/images/fishbone.png","null","",NA,NA,NA,NA,""
"image-keyboard-response",575,408989,"0.0-3.188-0.188","67rvv46w9pvhn48",454,"160.csv","","560.1000001430511","resources/trios/L1T2A2.jpg","38","restless",0.4,0.2,0.6,0.532338185256346,"false"
"image-keyboard-response",576,409398,"0.0-3.188-1.188","67rvv46w9pvhn48",454,"160.csv","","null","resources/maskTrios/BT2B.jpg","null","",NA,NA,NA,NA,""
"image-keyboard-response",577,410607,"0.0-3.188-2.188","67rvv46w9pvhn48",454,"160.csv","","null","resources/images/fishbone.png","null","",NA,NA,NA,NA,""
"image-keyboard-response",578,411025,"0.0-3.189-0.189","67rvv46w9pvhn48",454,"160.csv","","415.5","resources/trios/L2T2A3.jpg","39","restless",0.4,0.2,0.5,0.273858347349873,"true"
"image-keyboard-response",579,411439,"0.0-3.189-1.189","67rvv46w9pvhn48",454,"160.csv","","null","resources/maskTrios/BBA3.jpg","null","",NA,NA,NA,NA,""
"image-keyboard-response",580,412647,"0.0-3.189-2.189","67rvv46w9pvhn48",454,"160.csv","","null","resources/images/coin2.png","null","",NA,NA,NA,NA,""
"image-keyboard-response",581,413006,"0.0-3.190-0.190","67rvv46w9pvhn48",454,"160.csv","","356.90000009536743","resources/trios/L1T2A3.jpg","39","restless",0.4,0.2,0.5,0.165915539464401,"true"
"image-keyboard-response",582,413415,"0.0-3.190-1.190","67rvv46w9pvhn48",454,"160.csv","","null","resources/maskTrios/BBA3.jpg","null","",NA,NA,NA,NA,""
"image-keyboard-response",583,414618,"0.0-3.190-2.190","67rvv46w9pvhn48",454,"160.csv","","null","resources/images/coin2.png","null","",NA,NA,NA,NA,""
"image-keyboard-response",584,414923,"0.0-3.191-0.191","67rvv46w9pvhn48",454,"160.csv","","302.10000014305115","resources/trios/L1T2A3.jpg","39","restless",0.4,0.2,0.5,0.202048670279955,"true"
"image-keyboard-response",585,415335,"0.0-3.191-1.191","67rvv46w9pvhn48",454,"160.csv","","null","resources/maskTrios/BBA3.jpg","null","",NA,NA,NA,NA,""
"image-keyboard-response",586,416540,"0.0-3.191-2.191","67rvv46w9pvhn48",454,"160.csv","","null","resources/images/coin2.png","null","",NA,NA,NA,NA,""
"image-keyboard-response",587,416628,"0.0-3.192-0.192","67rvv46w9pvhn48",454,"160.csv","","85.29999995231628","resources/trios/L2T1A3.jpg","39","restless",0.4,0.2,0.5,0.584298299862522,"false"
"image-keyboard-response",588,417039,"0.0-3.192-1.192","67rvv46w9pvhn48",454,"160.csv","","null","resources/maskTrios/BBA3.jpg","null","",NA,NA,NA,NA,""
"image-keyboard-response",589,418244,"0.0-3.192-2.192","67rvv46w9pvhn48",454,"160.csv","","null","resources/images/fishbone.png","null","",NA,NA,NA,NA,""
"image-keyboard-response",590,418905,"0.0-3.193-0.193","67rvv46w9pvhn48",454,"160.csv","","659.1000001430511","resources/trios/L2T2A2.jpg","37","restless",0.4,0.2,0.5,0.699538062796677,"false"
"image-keyboard-response",591,419315,"0.0-3.193-1.193","67rvv46w9pvhn48",454,"160.csv","","null","resources/maskTrios/L2BB.jpg","null","",NA,NA,NA,NA,""
"image-keyboard-response",592,420527,"0.0-3.193-2.193","67rvv46w9pvhn48",454,"160.csv","","null","resources/images/fishbone.png","null","",NA,NA,NA,NA,""
"image-keyboard-response",593,420857,"0.0-3.194-0.194","67rvv46w9pvhn48",454,"160.csv","","328.60000014305115","resources/trios/L1T2A2.jpg","38","restless",0.4,0.2,0.5,0.384859441114412,"false"
"image-keyboard-response",594,421271,"0.0-3.194-1.194","67rvv46w9pvhn48",454,"160.csv","","null","resources/maskTrios/BT2B.jpg","null","",NA,NA,NA,NA,""
"image-keyboard-response",595,422477,"0.0-3.194-2.194","67rvv46w9pvhn48",454,"160.csv","","null","resources/images/fishbone.png","null","",NA,NA,NA,NA,""
"image-keyboard-response",596,422650,"0.0-3.195-0.195","67rvv46w9pvhn48",454,"160.csv","","170.79999995231628","resources/trios/L2T2A2.jpg","39","restless",0.4,0.2,0.5,0.267665219299257,"true"
"image-keyboard-response",597,423061,"0.0-3.195-1.195","67rvv46w9pvhn48",454,"160.csv","","null","resources/maskTrios/BBA2.jpg","null","",NA,NA,NA,NA,""
"image-keyboard-response",598,424266,"0.0-3.195-2.195","67rvv46w9pvhn48",454,"160.csv","","null","resources/images/coin2.png","null","",NA,NA,NA,NA,""
"image-keyboard-response",599,424507,"0.0-3.196-0.196","67rvv46w9pvhn48",454,"160.csv","","238.79999995231628","resources/trios/L1T1A2.jpg","39","restless",0.4,0.2,0.5,0.667395424295381,"false"
"image-keyboard-response",600,424919,"0.0-3.196-1.196","67rvv46w9pvhn48",454,"160.csv","","null","resources/maskTrios/BBA2.jpg","null","",NA,NA,NA,NA,""
"image-keyboard-response",601,426127,"0.0-3.196-2.196","67rvv46w9pvhn48",454,"160.csv","","null","resources/images/fishbone.png","null","",NA,NA,NA,NA,""
"image-keyboard-response",602,426498,"0.0-3.197-0.197","67rvv46w9pvhn48",454,"160.csv","","369.09999990463257","resources/trios/L2T2A2.jpg","39","restless",0.4,0.2,0.5,0.302749189686498,"true"
"image-keyboard-response",603,426911,"0.0-3.197-1.197","67rvv46w9pvhn48",454,"160.csv","","null","resources/maskTrios/BBA2.jpg","null","",NA,NA,NA,NA,""
"image-keyboard-response",604,428116,"0.0-3.197-2.197","67rvv46w9pvhn48",454,"160.csv","","null","resources/images/coin2.png","null","",NA,NA,NA,NA,""
"image-keyboard-response",605,428419,"0.0-3.198-0.198","67rvv46w9pvhn48",454,"160.csv","","300.90000009536743","resources/trios/L2T2A3.jpg","39","restless",0.4,0.2,0.5,0.70803671047907,"false"
"image-keyboard-response",606,428830,"0.0-3.198-1.198","67rvv46w9pvhn48",454,"160.csv","","null","resources/maskTrios/BBA3.jpg","null","",NA,NA,NA,NA,""
