"trial_type","trial_index","time_elapsed","internal_node_id","subject","participantCode","walkNumber","success","rt","stimulus","key_press","test_part","leftProb","midProb","rightProb","generatedNum","correct"
"pavlovia",0,1273,"0.0-0.0","n8e357c7v1x4gpt",630,"49.csv","","","","","",NA,NA,NA,NA,""
"fullscreen",1,15780,"0.0-1.0","n8e357c7v1x4gpt",630,"49.csv","true","","","","",NA,NA,NA,NA,""
"html-keyboard-response",2,21802,"0.0-2.0-0.0","n8e357c7v1x4gpt",630,"49.csv","","6019.9000000059605","<p><font size='6'>Arrrgh!</p></font><p>Can you be the best pirate? Try to find lots of gold! But beware, some islands have more gold than others, and over time, the island with the most gold may change. Can YOU figure it out? </p><font size='6'>GOOD LUCK, CAPTAIN!!!</font><p>Press any key to begin</p>","74","",NA,NA,NA,NA,""
"image-keyboard-response",3,24808,"0.0-2.0-1.0","n8e357c7v1x4gpt",630,"49.csv","","null","resources/image_sets/111.png","null","",NA,NA,NA,NA,""
"image-keyboard-response",4,28797,"0.0-2.0-2.0","n8e357c7v1x4gpt",630,"49.csv","","3988.4000000059605","resources/image_sets/left_highlight.png","37","",NA,NA,NA,NA,""
"image-keyboard-response",5,30783,"0.0-2.0-3.0","n8e357c7v1x4gpt",630,"49.csv","","1984.2999999821186","resources/image_sets/mid_highlight.png","38","",NA,NA,NA,NA,""
"image-keyboard-response",6,31509,"0.0-2.0-4.0","n8e357c7v1x4gpt",630,"49.csv","","724.6000000238419","resources/image_sets/right_highlight.png","39","",NA,NA,NA,NA,""
"image-keyboard-response",7,36990,"0.0-2.0-5.0","n8e357c7v1x4gpt",630,"49.csv","","5480.5","resources/image_sets/111.png","13","",NA,NA,NA,NA,""
"image-keyboard-response",8,40033,"0.0-2.0-6.0","n8e357c7v1x4gpt",630,"49.csv","","3042.100000023842","resources/images/coin2.png","13","",NA,NA,NA,NA,""
"image-keyboard-response",9,42342,"0.0-2.0-7.0","n8e357c7v1x4gpt",630,"49.csv","","2308.5999999940395","resources/images/fishbone.png","13","",NA,NA,NA,NA,""
"html-keyboard-response",10,48390,"0.0-2.0-8.0","n8e357c7v1x4gpt",630,"49.csv","","6047.0999999940395","<p>Your first journey will be a long one, but you will get a well deserved break at the end</p><p>After the break you will have four more journeys, but each will be much shorter than the first, and you will have breaks in between each</p><p>Press Enter to begin</p>","13","",NA,NA,NA,NA,""
"image-keyboard-response",11,50384,"0.0-3.0-0.0","n8e357c7v1x4gpt",630,"49.csv","","1993.0999999940395","resources/trios/L2T1A3.jpg","37","restless",0.3,0.9,0.7,0.57471351499861,"false"
"image-keyboard-response",12,50791,"0.0-3.0-1.0","n8e357c7v1x4gpt",630,"49.csv","","null","resources/maskTrios/L2BB.jpg","null","",NA,NA,NA,NA,""
"image-keyboard-response",13,51997,"0.0-3.0-2.0","n8e357c7v1x4gpt",630,"49.csv","","null","resources/images/fishbone.png","null","",NA,NA,NA,NA,""
"image-keyboard-response",14,54394,"0.0-3.1-0.1","n8e357c7v1x4gpt",630,"49.csv","","2395.9000000059605","resources/trios/L2T1A3.jpg","38","restless",0.3,0.9,0.8,0.659405937364963,"true"
"image-keyboard-response",15,54795,"0.0-3.1-1.1","n8e357c7v1x4gpt",630,"49.csv","","null","resources/maskTrios/BT1B.jpg","null","",NA,NA,NA,NA,""
"image-keyboard-response",16,56000,"0.0-3.1-2.1","n8e357c7v1x4gpt",630,"49.csv","","null","resources/images/coin2.png","null","",NA,NA,NA,NA,""
"image-keyboard-response",17,59166,"0.0-3.2-0.2","n8e357c7v1x4gpt",630,"49.csv","","3164.0999999940395","resources/trios/L2T1A2.jpg","38","restless",0.3,0.9,0.8,0.517206997056001,"true"
"image-keyboard-response",18,59571,"0.0-3.2-1.2","n8e357c7v1x4gpt",630,"49.csv","","null","resources/maskTrios/BT1B.jpg","null","",NA,NA,NA,NA,""
"image-keyboard-response",19,60778,"0.0-3.2-2.2","n8e357c7v1x4gpt",630,"49.csv","","null","resources/images/coin2.png","null","",NA,NA,NA,NA,""
"image-keyboard-response",20,64824,"0.0-3.3-0.3","n8e357c7v1x4gpt",630,"49.csv","","4044.9000000059605","resources/trios/L2T4A3.jpg","37","restless",0.3,0.9,0.8,0.610342810361169,"false"
"image-keyboard-response",21,65231,"0.0-3.3-1.3","n8e357c7v1x4gpt",630,"49.csv","","null","resources/maskTrios/L2BB.jpg","null","",NA,NA,NA,NA,""
"image-keyboard-response",22,66436,"0.0-3.3-2.3","n8e357c7v1x4gpt",630,"49.csv","","null","resources/images/fishbone.png","null","",NA,NA,NA,NA,""
"image-keyboard-response",23,67360,"0.0-3.4-0.4","n8e357c7v1x4gpt",630,"49.csv","","922.9000000059605","resources/trios/L2T1A2.jpg","38","restless",0.3,0.8,0.8,0.7620105337832,"true"
"image-keyboard-response",24,67767,"0.0-3.4-1.4","n8e357c7v1x4gpt",630,"49.csv","","null","resources/maskTrios/BT1B.jpg","null","",NA,NA,NA,NA,""
"image-keyboard-response",25,68968,"0.0-3.4-2.4","n8e357c7v1x4gpt",630,"49.csv","","null","resources/images/coin2.png","null","",NA,NA,NA,NA,""
"image-keyboard-response",26,69676,"0.0-3.5-0.5","n8e357c7v1x4gpt",630,"49.csv","","707.1000000238419","resources/trios/L1T1A3.jpg","38","restless",0.3,0.8,0.8,0.597849973885121,"true"
"image-keyboard-response",27,70080,"0.0-3.5-1.5","n8e357c7v1x4gpt",630,"49.csv","","null","resources/maskTrios/BT1B.jpg","null","",NA,NA,NA,NA,""
"image-keyboard-response",28,71285,"0.0-3.5-2.5","n8e357c7v1x4gpt",630,"49.csv","","null","resources/images/coin2.png","null","",NA,NA,NA,NA,""
"image-keyboard-response",29,74434,"0.0-3.6-0.6","n8e357c7v1x4gpt",630,"49.csv","","3148.2999999821186","resources/trios/L2T4A3.jpg","38","restless",0.3,0.8,0.9,0.958593129882431,"false"
"image-keyboard-response",30,74840,"0.0-3.6-1.6","n8e357c7v1x4gpt",630,"49.csv","","null","resources/maskTrios/BT4B.jpg","null","",NA,NA,NA,NA,""
"image-keyboard-response",31,76047,"0.0-3.6-2.6","n8e357c7v1x4gpt",630,"49.csv","","null","resources/images/fishbone.png","null","",NA,NA,NA,NA,""
"image-keyboard-response",32,77563,"0.0-3.7-0.7","n8e357c7v1x4gpt",630,"49.csv","","1515.5999999940395","resources/trios/L2T4A3.jpg","39","restless",0.3,0.8,0.9,0.326850907131577,"true"
"image-keyboard-response",33,77967,"0.0-3.7-1.7","n8e357c7v1x4gpt",630,"49.csv","","null","resources/maskTrios/BBA3.jpg","null","",NA,NA,NA,NA,""
"image-keyboard-response",34,79173,"0.0-3.7-2.7","n8e357c7v1x4gpt",630,"49.csv","","null","resources/images/coin2.png","null","",NA,NA,NA,NA,""
"image-keyboard-response",35,80321,"0.0-3.8-0.8","n8e357c7v1x4gpt",630,"49.csv","","1146.5999999940395","resources/trios/L2T1A2.jpg","38","restless",0.3,0.8,0.8,0.174613069614727,"true"
"image-keyboard-response",36,80724,"0.0-3.8-1.8","n8e357c7v1x4gpt",630,"49.csv","","null","resources/maskTrios/BT1B.jpg","null","",NA,NA,NA,NA,""
"image-keyboard-response",37,81931,"0.0-3.8-2.8","n8e357c7v1x4gpt",630,"49.csv","","null","resources/images/coin2.png","null","",NA,NA,NA,NA,""
"image-keyboard-response",38,82887,"0.0-3.9-0.9","n8e357c7v1x4gpt",630,"49.csv","","955.0999999940395","resources/trios/L1T4A2.jpg","39","restless",0.2,0.8,0.8,0.710365619011014,"true"
"image-keyboard-response",39,83293,"0.0-3.9-1.9","n8e357c7v1x4gpt",630,"49.csv","","null","resources/maskTrios/BBA2.jpg","null","",NA,NA,NA,NA,""
"image-keyboard-response",40,84500,"0.0-3.9-2.9","n8e357c7v1x4gpt",630,"49.csv","","null","resources/images/coin2.png","null","",NA,NA,NA,NA,""
"image-keyboard-response",41,85206,"0.0-3.10-0.10","n8e357c7v1x4gpt",630,"49.csv","","705","resources/trios/L1T1A3.jpg","38","restless",0.2,0.8,0.8,0.67748515144999,"true"
"image-keyboard-response",42,85607,"0.0-3.10-1.10","n8e357c7v1x4gpt",630,"49.csv","","null","resources/maskTrios/BT1B.jpg","null","",NA,NA,NA,NA,""
"image-keyboard-response",43,86814,"0.0-3.10-2.10","n8e357c7v1x4gpt",630,"49.csv","","null","resources/images/coin2.png","null","",NA,NA,NA,NA,""
"image-keyboard-response",44,87483,"0.0-3.11-0.11","n8e357c7v1x4gpt",630,"49.csv","","667.5","resources/trios/L2T4A2.jpg","39","restless",0.2,0.8,0.9,0.682616678197925,"true"
"image-keyboard-response",45,87888,"0.0-3.11-1.11","n8e357c7v1x4gpt",630,"49.csv","","null","resources/maskTrios/BBA2.jpg","null","",NA,NA,NA,NA,""
"image-keyboard-response",46,89090,"0.0-3.11-2.11","n8e357c7v1x4gpt",630,"49.csv","","null","resources/images/coin2.png","null","",NA,NA,NA,NA,""
"image-keyboard-response",47,89910,"0.0-3.12-0.12","n8e357c7v1x4gpt",630,"49.csv","","819.2999999821186","resources/trios/L2T1A2.jpg","38","restless",0.2,0.8,0.9,0.962655505912211,"false"
"image-keyboard-response",48,90317,"0.0-3.12-1.12","n8e357c7v1x4gpt",630,"49.csv","","null","resources/maskTrios/BT1B.jpg","null","",NA,NA,NA,NA,""
"image-keyboard-response",49,91523,"0.0-3.12-2.12","n8e357c7v1x4gpt",630,"49.csv","","null","resources/images/fishbone.png","null","",NA,NA,NA,NA,""
"image-keyboard-response",50,93986,"0.0-3.13-0.13","n8e357c7v1x4gpt",630,"49.csv","","2461.7999999821186","resources/trios/L1T4A2.jpg","39","restless",0.2,0.8,0.9,0.397762494397105,"true"
"image-keyboard-response",51,94390,"0.0-3.13-1.13","n8e357c7v1x4gpt",630,"49.csv","","null","resources/maskTrios/BBA2.jpg","null","",NA,NA,NA,NA,""
"image-keyboard-response",52,95597,"0.0-3.13-2.13","n8e357c7v1x4gpt",630,"49.csv","","null","resources/images/coin2.png","null","",NA,NA,NA,NA,""
"image-keyboard-response",53,96612,"0.0-3.14-0.14","n8e357c7v1x4gpt",630,"49.csv","","1013.3000000119209","resources/trios/L2T4A3.jpg","39","restless",0.2,0.8,0.8,0.379078100108571,"true"
"image-keyboard-response",54,97017,"0.0-3.14-1.14","n8e357c7v1x4gpt",630,"49.csv","","null","resources/maskTrios/BBA3.jpg","null","",NA,NA,NA,NA,""
"image-keyboard-response",55,98223,"0.0-3.14-2.14","n8e357c7v1x4gpt",630,"49.csv","","null","resources/images/coin2.png","null","",NA,NA,NA,NA,""
"image-keyboard-response",56,99369,"0.0-3.15-0.15","n8e357c7v1x4gpt",630,"49.csv","","1144.5999999940395","resources/trios/L2T1A3.jpg","38","restless",0.2,0.7,0.8,0.422130686430605,"true"
"image-keyboard-response",57,99773,"0.0-3.15-1.15","n8e357c7v1x4gpt",630,"49.csv","","null","resources/maskTrios/BT1B.jpg","null","",NA,NA,NA,NA,""
"image-keyboard-response",58,100980,"0.0-3.15-2.15","n8e357c7v1x4gpt",630,"49.csv","","null","resources/images/coin2.png","null","",NA,NA,NA,NA,""
"image-keyboard-response",59,103254,"0.0-3.16-0.16","n8e357c7v1x4gpt",630,"49.csv","","2272.5","resources/trios/L1T1A3.jpg","38","restless",0.1,0.7,0.8,0.898016556535199,"false"
"image-keyboard-response",60,103661,"0.0-3.16-1.16","n8e357c7v1x4gpt",630,"49.csv","","null","resources/maskTrios/BT1B.jpg","null","",NA,NA,NA,NA,""
"image-keyboard-response",61,104866,"0.0-3.16-2.16","n8e357c7v1x4gpt",630,"49.csv","","null","resources/images/fishbone.png","null","",NA,NA,NA,NA,""
"image-keyboard-response",62,106588,"0.0-3.17-0.17","n8e357c7v1x4gpt",630,"49.csv","","1721","resources/trios/L1T1A2.jpg","39","restless",0.1,0.7,0.8,0.274862387778506,"true"
"image-keyboard-response",63,106995,"0.0-3.17-1.17","n8e357c7v1x4gpt",630,"49.csv","","null","resources/maskTrios/BBA2.jpg","null","",NA,NA,NA,NA,""
"image-keyboard-response",64,108202,"0.0-3.17-2.17","n8e357c7v1x4gpt",630,"49.csv","","null","resources/images/coin2.png","null","",NA,NA,NA,NA,""
"image-keyboard-response",65,109788,"0.0-3.18-0.18","n8e357c7v1x4gpt",630,"49.csv","","1584.5","resources/trios/L1T4A2.jpg","39","restless",0.1,0.7,0.8,0.545867905790326,"true"
"image-keyboard-response",66,110194,"0.0-3.18-1.18","n8e357c7v1x4gpt",630,"49.csv","","null","resources/maskTrios/BBA2.jpg","null","",NA,NA,NA,NA,""
"image-keyboard-response",67,111400,"0.0-3.18-2.18","n8e357c7v1x4gpt",630,"49.csv","","null","resources/images/coin2.png","null","",NA,NA,NA,NA,""
"image-keyboard-response",68,113004,"0.0-3.19-0.19","n8e357c7v1x4gpt",630,"49.csv","","1602.4000000059605","resources/trios/L1T1A2.jpg","39","restless",0.1,0.7,0.8,0.288210824754993,"true"
"image-keyboard-response",69,113410,"0.0-3.19-1.19","n8e357c7v1x4gpt",630,"49.csv","","null","resources/maskTrios/BBA2.jpg","null","",NA,NA,NA,NA,""
"image-keyboard-response",70,114617,"0.0-3.19-2.19","n8e357c7v1x4gpt",630,"49.csv","","null","resources/images/coin2.png","null","",NA,NA,NA,NA,""
"image-keyboard-response",71,115579,"0.0-3.20-0.20","n8e357c7v1x4gpt",630,"49.csv","","960.3999999761581","resources/trios/L2T1A3.jpg","39","restless",0.1,0.7,0.8,0.499641671588906,"true"
"image-keyboard-response",72,115983,"0.0-3.20-1.20","n8e357c7v1x4gpt",630,"49.csv","","null","resources/maskTrios/BBA3.jpg","null","",NA,NA,NA,NA,""
"image-keyboard-response",73,117190,"0.0-3.20-2.20","n8e357c7v1x4gpt",630,"49.csv","","null","resources/images/coin2.png","null","",NA,NA,NA,NA,""
"image-keyboard-response",74,117771,"0.0-3.21-0.21","n8e357c7v1x4gpt",630,"49.csv","","580.3000000119209","resources/trios/L1T1A2.jpg","39","restless",0.1,0.7,0.8,0.13955035363865,"true"
"image-keyboard-response",75,118178,"0.0-3.21-1.21","n8e357c7v1x4gpt",630,"49.csv","","null","resources/maskTrios/BBA2.jpg","null","",NA,NA,NA,NA,""
"image-keyboard-response",76,119382,"0.0-3.21-2.21","n8e357c7v1x4gpt",630,"49.csv","","null","resources/images/coin2.png","null","",NA,NA,NA,NA,""
"image-keyboard-response",77,119970,"0.0-3.22-0.22","n8e357c7v1x4gpt",630,"49.csv","","586.9000000059605","resources/trios/L2T4A2.jpg","39","restless",0.1,0.6,0.8,0.797286433971414,"true"
"image-keyboard-response",78,120377,"0.0-3.22-1.22","n8e357c7v1x4gpt",630,"49.csv","","null","resources/maskTrios/BBA2.jpg","null","",NA,NA,NA,NA,""
"image-keyboard-response",79,121584,"0.0-3.22-2.22","n8e357c7v1x4gpt",630,"49.csv","","null","resources/images/coin2.png","null","",NA,NA,NA,NA,""
"image-keyboard-response",80,122279,"0.0-3.23-0.23","n8e357c7v1x4gpt",630,"49.csv","","693.8000000119209","resources/trios/L1T1A3.jpg","39","restless",0.1,0.6,0.8,0.518580683337408,"true"
"image-keyboard-response",81,122681,"0.0-3.23-1.23","n8e357c7v1x4gpt",630,"49.csv","","null","resources/maskTrios/BBA3.jpg","null","",NA,NA,NA,NA,""
"image-keyboard-response",82,123882,"0.0-3.23-2.23","n8e357c7v1x4gpt",630,"49.csv","","null","resources/images/coin2.png","null","",NA,NA,NA,NA,""
"image-keyboard-response",83,124544,"0.0-3.24-0.24","n8e357c7v1x4gpt",630,"49.csv","","659.9000000059605","resources/trios/L2T1A2.jpg","39","restless",0.1,0.6,0.7,0.0609294687568078,"true"
"image-keyboard-response",84,124945,"0.0-3.24-1.24","n8e357c7v1x4gpt",630,"49.csv","","null","resources/maskTrios/BBA2.jpg","null","",NA,NA,NA,NA,""
"image-keyboard-response",85,126149,"0.0-3.24-2.24","n8e357c7v1x4gpt",630,"49.csv","","null","resources/images/coin2.png","null","",NA,NA,NA,NA,""
"image-keyboard-response",86,126958,"0.0-3.25-0.25","n8e357c7v1x4gpt",630,"49.csv","","808.3000000119209","resources/trios/L2T1A3.jpg","39","restless",0.1,0.6,0.7,0.192016115735879,"true"
"image-keyboard-response",87,127365,"0.0-3.25-1.25","n8e357c7v1x4gpt",630,"49.csv","","null","resources/maskTrios/BBA3.jpg","null","",NA,NA,NA,NA,""
"image-keyboard-response",88,128566,"0.0-3.25-2.25","n8e357c7v1x4gpt",630,"49.csv","","null","resources/images/coin2.png","null","",NA,NA,NA,NA,""
"image-keyboard-response",89,129202,"0.0-3.26-0.26","n8e357c7v1x4gpt",630,"49.csv","","634.1000000238419","resources/trios/L2T4A3.jpg","39","restless",0.1,0.6,0.7,0.0139374395668763,"true"
"image-keyboard-response",90,129604,"0.0-3.26-1.26","n8e357c7v1x4gpt",630,"49.csv","","null","resources/maskTrios/BBA3.jpg","null","",NA,NA,NA,NA,""
"image-keyboard-response",91,130810,"0.0-3.26-2.26","n8e357c7v1x4gpt",630,"49.csv","","null","resources/images/coin2.png","null","",NA,NA,NA,NA,""
"image-keyboard-response",92,131414,"0.0-3.27-0.27","n8e357c7v1x4gpt",630,"49.csv","","602.9000000059605","resources/trios/L2T1A3.jpg","39","restless",0.1,0.6,0.7,0.54039780502274,"true"
"image-keyboard-response",93,131820,"0.0-3.27-1.27","n8e357c7v1x4gpt",630,"49.csv","","null","resources/maskTrios/BBA3.jpg","null","",NA,NA,NA,NA,""
"image-keyboard-response",94,133027,"0.0-3.27-2.27","n8e357c7v1x4gpt",630,"49.csv","","null","resources/images/coin2.png","null","",NA,NA,NA,NA,""
"image-keyboard-response",95,133694,"0.0-3.28-0.28","n8e357c7v1x4gpt",630,"49.csv","","666.4000000059605","resources/trios/L1T4A2.jpg","39","restless",0.1,0.6,0.7,0.057506527527164,"true"
"image-keyboard-response",96,134096,"0.0-3.28-1.28","n8e357c7v1x4gpt",630,"49.csv","","null","resources/maskTrios/BBA2.jpg","null","",NA,NA,NA,NA,""
"image-keyboard-response",97,135300,"0.0-3.28-2.28","n8e357c7v1x4gpt",630,"49.csv","","null","resources/images/coin2.png","null","",NA,NA,NA,NA,""
"image-keyboard-response",98,135791,"0.0-3.29-0.29","n8e357c7v1x4gpt",630,"49.csv","","489.80000001192093","resources/trios/L2T4A2.jpg","39","restless",0.1,0.6,0.7,0.175431788372758,"true"
"image-keyboard-response",99,136197,"0.0-3.29-1.29","n8e357c7v1x4gpt",630,"49.csv","","null","resources/maskTrios/BBA2.jpg","null","",NA,NA,NA,NA,""
"image-keyboard-response",100,137399,"0.0-3.29-2.29","n8e357c7v1x4gpt",630,"49.csv","","null","resources/images/coin2.png","null","",NA,NA,NA,NA,""
"image-keyboard-response",101,137807,"0.0-3.30-0.30","n8e357c7v1x4gpt",630,"49.csv","","406.80000001192093","resources/trios/L2T1A2.jpg","39","restless",0.1,0.6,0.7,0.896235253364926,"false"
"image-keyboard-response",102,138214,"0.0-3.30-1.30","n8e357c7v1x4gpt",630,"49.csv","","null","resources/maskTrios/BBA2.jpg","null","",NA,NA,NA,NA,""
"image-keyboard-response",103,139416,"0.0-3.30-2.30","n8e357c7v1x4gpt",630,"49.csv","","null","resources/images/fishbone.png","null","",NA,NA,NA,NA,""
"image-keyboard-response",104,140702,"0.0-3.31-0.31","n8e357c7v1x4gpt",630,"49.csv","","1284.5","resources/trios/L1T1A3.jpg","39","restless",0.1,0.6,0.7,0.106184569529926,"true"
"image-keyboard-response",105,141108,"0.0-3.31-1.31","n8e357c7v1x4gpt",630,"49.csv","","null","resources/maskTrios/BBA3.jpg","null","",NA,NA,NA,NA,""
"image-keyboard-response",106,142315,"0.0-3.31-2.31","n8e357c7v1x4gpt",630,"49.csv","","null","resources/images/coin2.png","null","",NA,NA,NA,NA,""
"image-keyboard-response",107,143657,"0.0-3.32-0.32","n8e357c7v1x4gpt",630,"49.csv","","1340.4000000059605","resources/trios/L1T4A3.jpg","38","restless",0.1,0.6,0.7,0.825646620379912,"false"
"image-keyboard-response",108,144063,"0.0-3.32-1.32","n8e357c7v1x4gpt",630,"49.csv","","null","resources/maskTrios/BT4B.jpg","null","",NA,NA,NA,NA,""
"image-keyboard-response",109,145266,"0.0-3.32-2.32","n8e357c7v1x4gpt",630,"49.csv","","null","resources/images/fishbone.png","null","",NA,NA,NA,NA,""
"image-keyboard-response",110,145702,"0.0-3.33-0.33","n8e357c7v1x4gpt",630,"49.csv","","434.59999999403954","resources/trios/L1T4A2.jpg","39","restless",0.1,0.6,0.7,0.158483128746157,"true"
"image-keyboard-response",111,146108,"0.0-3.33-1.33","n8e357c7v1x4gpt",630,"49.csv","","null","resources/maskTrios/BBA2.jpg","null","",NA,NA,NA,NA,""
"image-keyboard-response",112,147309,"0.0-3.33-2.33","n8e357c7v1x4gpt",630,"49.csv","","null","resources/images/coin2.png","null","",NA,NA,NA,NA,""
"image-keyboard-response",113,149279,"0.0-3.34-0.34","n8e357c7v1x4gpt",630,"49.csv","","1969.0999999940395","resources/trios/L2T1A3.jpg","38","restless",0.1,0.6,0.7,0.981062900326547,"false"
"image-keyboard-response",114,149682,"0.0-3.34-1.34","n8e357c7v1x4gpt",630,"49.csv","","null","resources/maskTrios/BT1B.jpg","null","",NA,NA,NA,NA,""
"image-keyboard-response",115,150889,"0.0-3.34-2.34","n8e357c7v1x4gpt",630,"49.csv","","null","resources/images/fishbone.png","null","",NA,NA,NA,NA,""
"image-keyboard-response",116,151447,"0.0-3.35-0.35","n8e357c7v1x4gpt",630,"49.csv","","557.5","resources/trios/L1T4A2.jpg","39","restless",0.1,0.6,0.7,0.675532873874578,"true"
"image-keyboard-response",117,151848,"0.0-3.35-1.35","n8e357c7v1x4gpt",630,"49.csv","","null","resources/maskTrios/BBA2.jpg","null","",NA,NA,NA,NA,""
"image-keyboard-response",118,153055,"0.0-3.35-2.35","n8e357c7v1x4gpt",630,"49.csv","","null","resources/images/coin2.png","null","",NA,NA,NA,NA,""
"image-keyboard-response",119,153828,"0.0-3.36-0.36","n8e357c7v1x4gpt",630,"49.csv","","771.2000000178814","resources/trios/L2T4A3.jpg","39","restless",0.1,0.6,0.7,0.918068743578015,"false"
"image-keyboard-response",120,154233,"0.0-3.36-1.36","n8e357c7v1x4gpt",630,"49.csv","","null","resources/maskTrios/BBA3.jpg","null","",NA,NA,NA,NA,""
"image-keyboard-response",121,155439,"0.0-3.36-2.36","n8e357c7v1x4gpt",630,"49.csv","","null","resources/images/fishbone.png","null","",NA,NA,NA,NA,""
"image-keyboard-response",122,156339,"0.0-3.37-0.37","n8e357c7v1x4gpt",630,"49.csv","","898.0999999940395","resources/trios/L1T4A2.jpg","39","restless",0.2,0.5,0.7,0.428726761572991,"true"
"image-keyboard-response",123,156745,"0.0-3.37-1.37","n8e357c7v1x4gpt",630,"49.csv","","null","resources/maskTrios/BBA2.jpg","null","",NA,NA,NA,NA,""
"image-keyboard-response",124,157949,"0.0-3.37-2.37","n8e357c7v1x4gpt",630,"49.csv","","null","resources/images/coin2.png","null","",NA,NA,NA,NA,""
"image-keyboard-response",125,159980,"0.0-3.38-0.38","n8e357c7v1x4gpt",630,"49.csv","","2029.4000000059605","resources/trios/L2T4A3.jpg","37","restless",0.2,0.5,0.7,0.508477618318724,"false"
"image-keyboard-response",126,160381,"0.0-3.38-1.38","n8e357c7v1x4gpt",630,"49.csv","","null","resources/maskTrios/L2BB.jpg","null","",NA,NA,NA,NA,""
"image-keyboard-response",127,161587,"0.0-3.38-2.38","n8e357c7v1x4gpt",630,"49.csv","","null","resources/images/fishbone.png","null","",NA,NA,NA,NA,""
"image-keyboard-response",128,162684,"0.0-3.39-0.39","n8e357c7v1x4gpt",630,"49.csv","","1094.2000000178814","resources/trios/L2T4A3.jpg","39","restless",0.2,0.5,0.7,0.340410033436661,"true"
"image-keyboard-response",129,163091,"0.0-3.39-1.39","n8e357c7v1x4gpt",630,"49.csv","","null","resources/maskTrios/BBA3.jpg","null","",NA,NA,NA,NA,""
"image-keyboard-response",130,164297,"0.0-3.39-2.39","n8e357c7v1x4gpt",630,"49.csv","","null","resources/images/coin2.png","null","",NA,NA,NA,NA,""
"image-keyboard-response",131,164803,"0.0-3.40-0.40","n8e357c7v1x4gpt",630,"49.csv","","504.80000001192093","resources/trios/L2T1A2.jpg","39","restless",0.2,0.5,0.7,0.456125244096033,"true"
"image-keyboard-response",132,165206,"0.0-3.40-1.40","n8e357c7v1x4gpt",630,"49.csv","","null","resources/maskTrios/BBA2.jpg","null","",NA,NA,NA,NA,""
"image-keyboard-response",133,166413,"0.0-3.40-2.40","n8e357c7v1x4gpt",630,"49.csv","","null","resources/images/coin2.png","null","",NA,NA,NA,NA,""
"image-keyboard-response",134,166986,"0.0-3.41-0.41","n8e357c7v1x4gpt",630,"49.csv","","572.2999999821186","resources/trios/L1T4A3.jpg","39","restless",0.2,0.5,0.7,0.773304662345407,"false"
"image-keyboard-response",135,167392,"0.0-3.41-1.41","n8e357c7v1x4gpt",630,"49.csv","","null","resources/maskTrios/BBA3.jpg","null","",NA,NA,NA,NA,""
"image-keyboard-response",136,168598,"0.0-3.41-2.41","n8e357c7v1x4gpt",630,"49.csv","","null","resources/images/fishbone.png","null","",NA,NA,NA,NA,""
"image-keyboard-response",137,171161,"0.0-3.42-0.42","n8e357c7v1x4gpt",630,"49.csv","","2561.899999976158","resources/trios/L1T1A3.jpg","39","restless",0.2,0.5,0.7,0.956600355417937,"false"
"image-keyboard-response",138,171566,"0.0-3.42-1.42","n8e357c7v1x4gpt",630,"49.csv","","null","resources/maskTrios/BBA3.jpg","null","",NA,NA,NA,NA,""
"image-keyboard-response",139,172768,"0.0-3.42-2.42","n8e357c7v1x4gpt",630,"49.csv","","null","resources/images/fishbone.png","null","",NA,NA,NA,NA,""
"image-keyboard-response",140,173136,"0.0-3.43-0.43","n8e357c7v1x4gpt",630,"49.csv","","366.90000000596046","resources/trios/L2T4A2.jpg","39","restless",0.2,0.5,0.8,0.284785756046642,"true"
"image-keyboard-response",141,173543,"0.0-3.43-1.43","n8e357c7v1x4gpt",630,"49.csv","","null","resources/maskTrios/BBA2.jpg","null","",NA,NA,NA,NA,""
"image-keyboard-response",142,174748,"0.0-3.43-2.43","n8e357c7v1x4gpt",630,"49.csv","","null","resources/images/coin2.png","null","",NA,NA,NA,NA,""
"image-keyboard-response",143,175941,"0.0-3.44-0.44","n8e357c7v1x4gpt",630,"49.csv","","1191.300000011921","resources/trios/L1T4A2.jpg","39","restless",0.2,0.5,0.9,0.812658511838294,"true"
"image-keyboard-response",144,176348,"0.0-3.44-1.44","n8e357c7v1x4gpt",630,"49.csv","","null","resources/maskTrios/BBA2.jpg","null","",NA,NA,NA,NA,""
"image-keyboard-response",145,177555,"0.0-3.44-2.44","n8e357c7v1x4gpt",630,"49.csv","","null","resources/images/coin2.png","null","",NA,NA,NA,NA,""
"image-keyboard-response",146,178200,"0.0-3.45-0.45","n8e357c7v1x4gpt",630,"49.csv","","644.5","resources/trios/L2T4A2.jpg","39","restless",0.2,0.5,0.9,0.0240009399448058,"true"
"image-keyboard-response",147,178605,"0.0-3.45-1.45","n8e357c7v1x4gpt",630,"49.csv","","null","resources/maskTrios/BBA2.jpg","null","",NA,NA,NA,NA,""
"image-keyboard-response",148,179812,"0.0-3.45-2.45","n8e357c7v1x4gpt",630,"49.csv","","null","resources/images/coin2.png","null","",NA,NA,NA,NA,""
"image-keyboard-response",149,180936,"0.0-3.46-0.46","n8e357c7v1x4gpt",630,"49.csv","","1123","resources/trios/L1T1A2.jpg","38","restless",0.2,0.4,0.9,0.224061284552187,"true"
"image-keyboard-response",150,181341,"0.0-3.46-1.46","n8e357c7v1x4gpt",630,"49.csv","","null","resources/maskTrios/BT1B.jpg","null","",NA,NA,NA,NA,""
"image-keyboard-response",151,182548,"0.0-3.46-2.46","n8e357c7v1x4gpt",630,"49.csv","","null","resources/images/coin2.png","null","",NA,NA,NA,NA,""
"image-keyboard-response",152,183235,"0.0-3.47-0.47","n8e357c7v1x4gpt",630,"49.csv","","686","resources/trios/L2T4A3.jpg","39","restless",0.2,0.4,0.9,0.303267469328856,"true"
"image-keyboard-response",153,183639,"0.0-3.47-1.47","n8e357c7v1x4gpt",630,"49.csv","","null","resources/maskTrios/BBA3.jpg","null","",NA,NA,NA,NA,""
"image-keyboard-response",154,184846,"0.0-3.47-2.47","n8e357c7v1x4gpt",630,"49.csv","","null","resources/images/coin2.png","null","",NA,NA,NA,NA,""
"image-keyboard-response",155,185612,"0.0-3.48-0.48","n8e357c7v1x4gpt",630,"49.csv","","764.6999999880791","resources/trios/L1T4A2.jpg","39","restless",0.2,0.4,0.9,0.533465980576642,"true"
"image-keyboard-response",156,186014,"0.0-3.48-1.48","n8e357c7v1x4gpt",630,"49.csv","","null","resources/maskTrios/BBA2.jpg","null","",NA,NA,NA,NA,""
"image-keyboard-response",157,187216,"0.0-3.48-2.48","n8e357c7v1x4gpt",630,"49.csv","","null","resources/images/coin2.png","null","",NA,NA,NA,NA,""
"image-keyboard-response",158,187730,"0.0-3.49-0.49","n8e357c7v1x4gpt",630,"49.csv","","512.3000000119209","resources/trios/L2T4A2.jpg","39","restless",0.2,0.4,0.9,0.190698269835563,"true"
"image-keyboard-response",159,188131,"0.0-3.49-1.49","n8e357c7v1x4gpt",630,"49.csv","","null","resources/maskTrios/BBA2.jpg","null","",NA,NA,NA,NA,""
"image-keyboard-response",160,189337,"0.0-3.49-2.49","n8e357c7v1x4gpt",630,"49.csv","","null","resources/images/coin2.png","null","",NA,NA,NA,NA,""
"image-keyboard-response",161,189963,"0.0-3.50-0.50","n8e357c7v1x4gpt",630,"49.csv","","624.9000000059605","resources/trios/L2T4A3.jpg","39","restless",0.2,0.4,0.9,0.146511141412218,"true"
"image-keyboard-response",162,190365,"0.0-3.50-1.50","n8e357c7v1x4gpt",630,"49.csv","","null","resources/maskTrios/BBA3.jpg","null","",NA,NA,NA,NA,""
"image-keyboard-response",163,191572,"0.0-3.50-2.50","n8e357c7v1x4gpt",630,"49.csv","","null","resources/images/coin2.png","null","",NA,NA,NA,NA,""
"image-keyboard-response",164,192436,"0.0-3.51-0.51","n8e357c7v1x4gpt",630,"49.csv","","862.8000000119209","resources/trios/L1T1A2.jpg","38","restless",0.2,0.4,0.8,0.953450043580213,"false"
"image-keyboard-response",165,192839,"0.0-3.51-1.51","n8e357c7v1x4gpt",630,"49.csv","","null","resources/maskTrios/BT1B.jpg","null","",NA,NA,NA,NA,""
"image-keyboard-response",166,194046,"0.0-3.51-2.51","n8e357c7v1x4gpt",630,"49.csv","","null","resources/images/fishbone.png","null","",NA,NA,NA,NA,""
"image-keyboard-response",167,194370,"0.0-3.52-0.52","n8e357c7v1x4gpt",630,"49.csv","","323.19999998807907","resources/trios/L1T4A2.jpg","39","restless",0.3,0.4,0.8,0.565258921601544,"true"
"image-keyboard-response",168,194776,"0.0-3.52-1.52","n8e357c7v1x4gpt",630,"49.csv","","null","resources/maskTrios/BBA2.jpg","null","",NA,NA,NA,NA,""
"image-keyboard-response",169,195982,"0.0-3.52-2.52","n8e357c7v1x4gpt",630,"49.csv","","null","resources/images/coin2.png","null","",NA,NA,NA,NA,""
"image-keyboard-response",170,196539,"0.0-3.53-0.53","n8e357c7v1x4gpt",630,"49.csv","","555.8999999761581","resources/trios/L2T4A3.jpg","39","restless",0.3,0.4,0.8,0.754194826807581,"true"
"image-keyboard-response",171,196945,"0.0-3.53-1.53","n8e357c7v1x4gpt",630,"49.csv","","null","resources/maskTrios/BBA3.jpg","null","",NA,NA,NA,NA,""
"image-keyboard-response",172,198147,"0.0-3.53-2.53","n8e357c7v1x4gpt",630,"49.csv","","null","resources/images/coin2.png","null","",NA,NA,NA,NA,""
"image-keyboard-response",173,198661,"0.0-3.54-0.54","n8e357c7v1x4gpt",630,"49.csv","","513.9000000059605","resources/trios/L2T4A3.jpg","39","restless",0.3,0.3,0.8,0.280421507518561,"true"
"image-keyboard-response",174,199065,"0.0-3.54-1.54","n8e357c7v1x4gpt",630,"49.csv","","null","resources/maskTrios/BBA3.jpg","null","",NA,NA,NA,NA,""
"image-keyboard-response",175,200271,"0.0-3.54-2.54","n8e357c7v1x4gpt",630,"49.csv","","null","resources/images/coin2.png","null","",NA,NA,NA,NA,""
"image-keyboard-response",176,200760,"0.0-3.55-0.55","n8e357c7v1x4gpt",630,"49.csv","","488.2999999821186","resources/trios/L1T1A2.jpg","39","restless",0.3,0.3,0.7,0.850974670527227,"false"
"image-keyboard-response",177,201165,"0.0-3.55-1.55","n8e357c7v1x4gpt",630,"49.csv","","null","resources/maskTrios/BBA2.jpg","null","",NA,NA,NA,NA,""
"image-keyboard-response",178,202371,"0.0-3.55-2.55","n8e357c7v1x4gpt",630,"49.csv","","null","resources/images/fishbone.png","null","",NA,NA,NA,NA,""
"image-keyboard-response",179,202821,"0.0-3.56-0.56","n8e357c7v1x4gpt",630,"49.csv","","448.69999998807907","resources/trios/L1T4A3.jpg","39","restless",0.3,0.3,0.7,0.156455272656265,"true"
"image-keyboard-response",180,203227,"0.0-3.56-1.56","n8e357c7v1x4gpt",630,"49.csv","","null","resources/maskTrios/BBA3.jpg","null","",NA,NA,NA,NA,""
"image-keyboard-response",181,204431,"0.0-3.56-2.56","n8e357c7v1x4gpt",630,"49.csv","","null","resources/images/coin2.png","null","",NA,NA,NA,NA,""
"image-keyboard-response",182,205023,"0.0-3.57-0.57","n8e357c7v1x4gpt",630,"49.csv","","590.3000000119209","resources/trios/L1T4A3.jpg","39","restless",0.3,0.3,0.7,0.210715416756959,"true"
"image-keyboard-response",183,205429,"0.0-3.57-1.57","n8e357c7v1x4gpt",630,"49.csv","","null","resources/maskTrios/BBA3.jpg","null","",NA,NA,NA,NA,""
"image-keyboard-response",184,206631,"0.0-3.57-2.57","n8e357c7v1x4gpt",630,"49.csv","","null","resources/images/coin2.png","null","",NA,NA,NA,NA,""
"image-keyboard-response",185,207292,"0.0-3.58-0.58","n8e357c7v1x4gpt",630,"49.csv","","659.5","resources/trios/L1T4A2.jpg","39","restless",0.3,0.3,0.7,0.161257168532192,"true"
"image-keyboard-response",186,207698,"0.0-3.58-1.58","n8e357c7v1x4gpt",630,"49.csv","","null","resources/maskTrios/BBA2.jpg","null","",NA,NA,NA,NA,""
"image-keyboard-response",187,208905,"0.0-3.58-2.58","n8e357c7v1x4gpt",630,"49.csv","","null","resources/images/coin2.png","null","",NA,NA,NA,NA,""
"image-keyboard-response",188,209444,"0.0-3.59-0.59","n8e357c7v1x4gpt",630,"49.csv","","537.6999999880791","resources/trios/L2T4A2.jpg","39","restless",0.3,0.3,0.7,0.375230070676638,"true"
"image-keyboard-response",189,209848,"0.0-3.59-1.59","n8e357c7v1x4gpt",630,"49.csv","","null","resources/maskTrios/BBA2.jpg","null","",NA,NA,NA,NA,""
"image-keyboard-response",190,211054,"0.0-3.59-2.59","n8e357c7v1x4gpt",630,"49.csv","","null","resources/images/coin2.png","null","",NA,NA,NA,NA,""
"image-keyboard-response",191,211574,"0.0-3.60-0.60","n8e357c7v1x4gpt",630,"49.csv","","518.5999999940395","resources/trios/L2T4A3.jpg","39","restless",0.3,0.3,0.6,0.451414058094283,"true"
"image-keyboard-response",192,211981,"0.0-3.60-1.60","n8e357c7v1x4gpt",630,"49.csv","","null","resources/maskTrios/BBA3.jpg","null","",NA,NA,NA,NA,""
"image-keyboard-response",193,213188,"0.0-3.60-2.60","n8e357c7v1x4gpt",630,"49.csv","","null","resources/images/coin2.png","null","",NA,NA,NA,NA,""
"image-keyboard-response",194,214102,"0.0-3.61-0.61","n8e357c7v1x4gpt",630,"49.csv","","913.4000000059605","resources/trios/L1T1A3.jpg","39","restless",0.3,0.3,0.6,0.716509283695955,"false"
"image-keyboard-response",195,214509,"0.0-3.61-1.61","n8e357c7v1x4gpt",630,"49.csv","","null","resources/maskTrios/BBA3.jpg","null","",NA,NA,NA,NA,""
"image-keyboard-response",196,215714,"0.0-3.61-2.61","n8e357c7v1x4gpt",630,"49.csv","","null","resources/images/fishbone.png","null","",NA,NA,NA,NA,""
"image-keyboard-response",197,216193,"0.0-3.62-0.62","n8e357c7v1x4gpt",630,"49.csv","","478","resources/trios/L1T4A2.jpg","39","restless",0.4,0.3,0.6,0.905688813662191,"false"
"image-keyboard-response",198,216599,"0.0-3.62-1.62","n8e357c7v1x4gpt",630,"49.csv","","null","resources/maskTrios/BBA2.jpg","null","",NA,NA,NA,NA,""
"image-keyboard-response",199,217806,"0.0-3.62-2.62","n8e357c7v1x4gpt",630,"49.csv","","null","resources/images/fishbone.png","null","",NA,NA,NA,NA,""
"image-keyboard-response",200,218339,"0.0-3.63-0.63","n8e357c7v1x4gpt",630,"49.csv","","531.5999999940395","resources/trios/L2T4A3.jpg","39","restless",0.4,0.3,0.6,0.237047709559907,"true"
"image-keyboard-response",201,218745,"0.0-3.63-1.63","n8e357c7v1x4gpt",630,"49.csv","","null","resources/maskTrios/BBA3.jpg","null","",NA,NA,NA,NA,""
"image-keyboard-response",202,219952,"0.0-3.63-2.63","n8e357c7v1x4gpt",630,"49.csv","","null","resources/images/coin2.png","null","",NA,NA,NA,NA,""
"image-keyboard-response",203,220937,"0.0-3.64-0.64","n8e357c7v1x4gpt",630,"49.csv","","983.6999999880791","resources/trios/L2T1A3.jpg","38","restless",0.4,0.3,0.6,0.368051014138225,"false"
"image-keyboard-response",204,221344,"0.0-3.64-1.64","n8e357c7v1x4gpt",630,"49.csv","","null","resources/maskTrios/BT1B.jpg","null","",NA,NA,NA,NA,""
"image-keyboard-response",205,222547,"0.0-3.64-2.64","n8e357c7v1x4gpt",630,"49.csv","","null","resources/images/fishbone.png","null","",NA,NA,NA,NA,""
"image-keyboard-response",206,223537,"0.0-3.65-0.65","n8e357c7v1x4gpt",630,"49.csv","","988.1000000238419","resources/trios/L1T4A3.jpg","39","restless",0.4,0.3,0.6,0.0641044730810523,"true"
"image-keyboard-response",207,223943,"0.0-3.65-1.65","n8e357c7v1x4gpt",630,"49.csv","","null","resources/maskTrios/BBA3.jpg","null","",NA,NA,NA,NA,""
"image-keyboard-response",208,225146,"0.0-3.65-2.65","n8e357c7v1x4gpt",630,"49.csv","","null","resources/images/coin2.png","null","",NA,NA,NA,NA,""
"image-keyboard-response",209,225611,"0.0-3.66-0.66","n8e357c7v1x4gpt",630,"49.csv","","463.5","resources/trios/L2T1A3.jpg","39","restless",0.5,0.3,0.6,0.559705886241283,"true"
"image-keyboard-response",210,226014,"0.0-3.66-1.66","n8e357c7v1x4gpt",630,"49.csv","","null","resources/maskTrios/BBA3.jpg","null","",NA,NA,NA,NA,""
"image-keyboard-response",211,227220,"0.0-3.66-2.66","n8e357c7v1x4gpt",630,"49.csv","","null","resources/images/coin2.png","null","",NA,NA,NA,NA,""
"image-keyboard-response",212,228092,"0.0-3.67-0.67","n8e357c7v1x4gpt",630,"49.csv","","870.2999999821186","resources/trios/L2T4A3.jpg","39","restless",0.4,0.3,0.6,0.762516831457904,"false"
"image-keyboard-response",213,228497,"0.0-3.67-1.67","n8e357c7v1x4gpt",630,"49.csv","","null","resources/maskTrios/BBA3.jpg","null","",NA,NA,NA,NA,""
"image-keyboard-response",214,229699,"0.0-3.67-2.67","n8e357c7v1x4gpt",630,"49.csv","","null","resources/images/fishbone.png","null","",NA,NA,NA,NA,""
"image-keyboard-response",215,230435,"0.0-3.68-0.68","n8e357c7v1x4gpt",630,"49.csv","","735.5","resources/trios/L1T4A3.jpg","39","restless",0.4,0.3,0.6,0.722976968256873,"false"
"image-keyboard-response",216,230842,"0.0-3.68-1.68","n8e357c7v1x4gpt",630,"49.csv","","null","resources/maskTrios/BBA3.jpg","null","",NA,NA,NA,NA,""
"image-keyboard-response",217,232047,"0.0-3.68-2.68","n8e357c7v1x4gpt",630,"49.csv","","null","resources/images/fishbone.png","null","",NA,NA,NA,NA,""
"image-keyboard-response",218,233287,"0.0-3.69-0.69","n8e357c7v1x4gpt",630,"49.csv","","1238.199999988079","resources/trios/L2T4A3.jpg","39","restless",0.4,0.3,0.6,0.654763411873833,"false"
"image-keyboard-response",219,233693,"0.0-3.69-1.69","n8e357c7v1x4gpt",630,"49.csv","","null","resources/maskTrios/BBA3.jpg","null","",NA,NA,NA,NA,""
"image-keyboard-response",220,234896,"0.0-3.69-2.69","n8e357c7v1x4gpt",630,"49.csv","","null","resources/images/fishbone.png","null","",NA,NA,NA,NA,""
"image-keyboard-response",221,235284,"0.0-3.70-0.70","n8e357c7v1x4gpt",630,"49.csv","","386.69999998807907","resources/trios/L2T1A2.jpg","39","restless",0.4,0.3,0.6,0.380870251892766,"true"
"image-keyboard-response",222,235690,"0.0-3.70-1.70","n8e357c7v1x4gpt",630,"49.csv","","null","resources/maskTrios/BBA2.jpg","null","",NA,NA,NA,NA,""
"image-keyboard-response",223,236893,"0.0-3.70-2.70","n8e357c7v1x4gpt",630,"49.csv","","null","resources/images/coin2.png","null","",NA,NA,NA,NA,""
"image-keyboard-response",224,238284,"0.0-3.71-0.71","n8e357c7v1x4gpt",630,"49.csv","","1390.0999999940395","resources/trios/L2T1A3.jpg","39","restless",0.4,0.2,0.6,0.0340420895709646,"true"
"image-keyboard-response",225,238690,"0.0-3.71-1.71","n8e357c7v1x4gpt",630,"49.csv","","null","resources/maskTrios/BBA3.jpg","null","",NA,NA,NA,NA,""
"image-keyboard-response",226,239897,"0.0-3.71-2.71","n8e357c7v1x4gpt",630,"49.csv","","null","resources/images/coin2.png","null","",NA,NA,NA,NA,""
"image-keyboard-response",227,240511,"0.0-3.72-0.72","n8e357c7v1x4gpt",630,"49.csv","","612.6000000238419","resources/trios/L2T4A3.jpg","39","restless",0.4,0.2,0.6,0.126525121601264,"true"
"image-keyboard-response",228,240917,"0.0-3.72-1.72","n8e357c7v1x4gpt",630,"49.csv","","null","resources/maskTrios/BBA3.jpg","null","",NA,NA,NA,NA,""
"image-keyboard-response",229,242124,"0.0-3.72-2.72","n8e357c7v1x4gpt",630,"49.csv","","null","resources/images/coin2.png","null","",NA,NA,NA,NA,""
"image-keyboard-response",230,243008,"0.0-3.73-0.73","n8e357c7v1x4gpt",630,"49.csv","","883","resources/trios/L2T1A3.jpg","39","restless",0.4,0.2,0.6,0.538263844348958,"true"
"image-keyboard-response",231,243412,"0.0-3.73-1.73","n8e357c7v1x4gpt",630,"49.csv","","null","resources/maskTrios/BBA3.jpg","null","",NA,NA,NA,NA,""
"image-keyboard-response",232,244619,"0.0-3.73-2.73","n8e357c7v1x4gpt",630,"49.csv","","null","resources/images/coin2.png","null","",NA,NA,NA,NA,""
"image-keyboard-response",233,245640,"0.0-3.74-0.74","n8e357c7v1x4gpt",630,"49.csv","","1019.2999999821186","resources/trios/L1T1A3.jpg","37","restless",0.4,0.2,0.6,0.178251377488969,"true"
"image-keyboard-response",234,246047,"0.0-3.74-1.74","n8e357c7v1x4gpt",630,"49.csv","","null","resources/maskTrios/L1BB.jpg","null","",NA,NA,NA,NA,""
"image-keyboard-response",235,247253,"0.0-3.74-2.74","n8e357c7v1x4gpt",630,"49.csv","","null","resources/images/coin2.png","null","",NA,NA,NA,NA,""
"image-keyboard-response",236,248024,"0.0-3.75-0.75","n8e357c7v1x4gpt",630,"49.csv","","769.1000000238419","resources/trios/L2T4A3.jpg","39","restless",0.4,0.2,0.6,0.798840222554525,"false"
"image-keyboard-response",237,248427,"0.0-3.75-1.75","n8e357c7v1x4gpt",630,"49.csv","","null","resources/maskTrios/BBA3.jpg","null","",NA,NA,NA,NA,""
"image-keyboard-response",238,249632,"0.0-3.75-2.75","n8e357c7v1x4gpt",630,"49.csv","","null","resources/images/fishbone.png","null","",NA,NA,NA,NA,""
"image-keyboard-response",239,250797,"0.0-3.76-0.76","n8e357c7v1x4gpt",630,"49.csv","","1164","resources/trios/L2T4A2.jpg","39","restless",0.4,0.2,0.6,0.465101248217608,"true"
"image-keyboard-response",240,251204,"0.0-3.76-1.76","n8e357c7v1x4gpt",630,"49.csv","","null","resources/maskTrios/BBA2.jpg","null","",NA,NA,NA,NA,""
"image-keyboard-response",241,252410,"0.0-3.76-2.76","n8e357c7v1x4gpt",630,"49.csv","","null","resources/images/coin2.png","null","",NA,NA,NA,NA,""
"image-keyboard-response",242,253037,"0.0-3.77-0.77","n8e357c7v1x4gpt",630,"49.csv","","625.9000000059605","resources/trios/L1T4A3.jpg","37","restless",0.4,0.2,0.6,0.00258999750115763,"true"
"image-keyboard-response",243,253440,"0.0-3.77-1.77","n8e357c7v1x4gpt",630,"49.csv","","null","resources/maskTrios/L1BB.jpg","null","",NA,NA,NA,NA,""
"image-keyboard-response",244,254645,"0.0-3.77-2.77","n8e357c7v1x4gpt",630,"49.csv","","null","resources/images/coin2.png","null","",NA,NA,NA,NA,""
"image-keyboard-response",245,255957,"0.0-3.78-0.78","n8e357c7v1x4gpt",630,"49.csv","","1310.5999999940395","resources/trios/L1T1A2.jpg","37","restless",0.4,0.2,0.6,0.955404117180664,"false"
"image-keyboard-response",246,256363,"0.0-3.78-1.78","n8e357c7v1x4gpt",630,"49.csv","","null","resources/maskTrios/L1BB.jpg","null","",NA,NA,NA,NA,""
"image-keyboard-response",247,257569,"0.0-3.78-2.78","n8e357c7v1x4gpt",630,"49.csv","","null","resources/images/fishbone.png","null","",NA,NA,NA,NA,""
"image-keyboard-response",248,258194,"0.0-3.79-0.79","n8e357c7v1x4gpt",630,"49.csv","","623","resources/trios/L2T1A3.jpg","39","restless",0.4,0.2,0.6,0.231222038786538,"true"
"image-keyboard-response",249,258596,"0.0-3.79-1.79","n8e357c7v1x4gpt",630,"49.csv","","null","resources/maskTrios/BBA3.jpg","null","",NA,NA,NA,NA,""
"image-keyboard-response",250,259803,"0.0-3.79-2.79","n8e357c7v1x4gpt",630,"49.csv","","null","resources/images/coin2.png","null","",NA,NA,NA,NA,""
"image-keyboard-response",251,261244,"0.0-3.80-0.80","n8e357c7v1x4gpt",630,"49.csv","","1440.7000000178814","resources/trios/L1T4A2.jpg","39","restless",0.4,0.2,0.5,0.3182285276623,"true"
"image-keyboard-response",252,261646,"0.0-3.80-1.80","n8e357c7v1x4gpt",630,"49.csv","","null","resources/maskTrios/BBA2.jpg","null","",NA,NA,NA,NA,""
"image-keyboard-response",253,262853,"0.0-3.80-2.80","n8e357c7v1x4gpt",630,"49.csv","","null","resources/images/coin2.png","null","",NA,NA,NA,NA,""
"image-keyboard-response",254,263632,"0.0-3.81-0.81","n8e357c7v1x4gpt",630,"49.csv","","778.5","resources/trios/L1T4A3.jpg","39","restless",0.4,0.2,0.4,0.99106880284782,"false"
"image-keyboard-response",255,264038,"0.0-3.81-1.81","n8e357c7v1x4gpt",630,"49.csv","","null","resources/maskTrios/BBA3.jpg","null","",NA,NA,NA,NA,""
"image-keyboard-response",256,265244,"0.0-3.81-2.81","n8e357c7v1x4gpt",630,"49.csv","","null","resources/images/fishbone.png","null","",NA,NA,NA,NA,""
"image-keyboard-response",257,266330,"0.0-3.82-0.82","n8e357c7v1x4gpt",630,"49.csv","","1084.0999999940395","resources/trios/L2T4A2.jpg","39","restless",0.4,0.2,0.4,0.974844768901292,"false"
"image-keyboard-response",258,266736,"0.0-3.82-1.82","n8e357c7v1x4gpt",630,"49.csv","","null","resources/maskTrios/BBA2.jpg","null","",NA,NA,NA,NA,""
"image-keyboard-response",259,267940,"0.0-3.82-2.82","n8e357c7v1x4gpt",630,"49.csv","","null","resources/images/fishbone.png","null","",NA,NA,NA,NA,""
"image-keyboard-response",260,270227,"0.0-3.83-0.83","n8e357c7v1x4gpt",630,"49.csv","","2286.699999988079","resources/trios/L2T1A3.jpg","39","restless",0.4,0.3,0.4,0.667191211701099,"false"
"image-keyboard-response",261,270632,"0.0-3.83-1.83","n8e357c7v1x4gpt",630,"49.csv","","null","resources/maskTrios/BBA3.jpg","null","",NA,NA,NA,NA,""
"image-keyboard-response",262,271836,"0.0-3.83-2.83","n8e357c7v1x4gpt",630,"49.csv","","null","resources/images/fishbone.png","null","",NA,NA,NA,NA,""
"image-keyboard-response",263,274333,"0.0-3.84-0.84","n8e357c7v1x4gpt",630,"49.csv","","2495.5999999940395","resources/trios/L1T1A3.jpg","39","restless",0.4,0.3,0.4,0.672863856070339,"false"
"image-keyboard-response",264,274736,"0.0-3.84-1.84","n8e357c7v1x4gpt",630,"49.csv","","null","resources/maskTrios/BBA3.jpg","null","",NA,NA,NA,NA,""
"image-keyboard-response",265,275943,"0.0-3.84-2.84","n8e357c7v1x4gpt",630,"49.csv","","null","resources/images/fishbone.png","null","",NA,NA,NA,NA,""
"image-keyboard-response",266,276509,"0.0-3.85-0.85","n8e357c7v1x4gpt",630,"49.csv","","565.3000000119209","resources/trios/L1T1A2.jpg","38","restless",0.4,0.4,0.5,0.99205699305711,"false"
"image-keyboard-response",267,276913,"0.0-3.85-1.85","n8e357c7v1x4gpt",630,"49.csv","","null","resources/maskTrios/BT1B.jpg","null","",NA,NA,NA,NA,""
"image-keyboard-response",268,278120,"0.0-3.85-2.85","n8e357c7v1x4gpt",630,"49.csv","","null","resources/images/fishbone.png","null","",NA,NA,NA,NA,""
"image-keyboard-response",269,278532,"0.0-3.86-0.86","n8e357c7v1x4gpt",630,"49.csv","","409.7999999821186","resources/trios/L1T1A3.jpg","37","restless",0.4,0.5,0.5,0.905357391110869,"false"
"image-keyboard-response",270,278938,"0.0-3.86-1.86","n8e357c7v1x4gpt",630,"49.csv","","null","resources/maskTrios/L1BB.jpg","null","",NA,NA,NA,NA,""
"image-keyboard-response",271,280141,"0.0-3.86-2.86","n8e357c7v1x4gpt",630,"49.csv","","null","resources/images/fishbone.png","null","",NA,NA,NA,NA,""
"image-keyboard-response",272,280547,"0.0-3.87-0.87","n8e357c7v1x4gpt",630,"49.csv","","404.19999998807907","resources/trios/L2T4A2.jpg","39","restless",0.4,0.5,0.5,0.611893988713596,"false"
"image-keyboard-response",273,280954,"0.0-3.87-1.87","n8e357c7v1x4gpt",630,"49.csv","","null","resources/maskTrios/BBA2.jpg","null","",NA,NA,NA,NA,""
"image-keyboard-response",274,282160,"0.0-3.87-2.87","n8e357c7v1x4gpt",630,"49.csv","","null","resources/images/fishbone.png","null","",NA,NA,NA,NA,""
"image-keyboard-response",275,282434,"0.0-3.88-0.88","n8e357c7v1x4gpt",630,"49.csv","","272.40000000596046","resources/trios/L1T4A2.jpg","38","restless",0.5,0.5,0.5,0.95843498267338,"false"
"image-keyboard-response",276,282841,"0.0-3.88-1.88","n8e357c7v1x4gpt",630,"49.csv","","null","resources/maskTrios/BT4B.jpg","null","",NA,NA,NA,NA,""
"image-keyboard-response",277,284046,"0.0-3.88-2.88","n8e357c7v1x4gpt",630,"49.csv","","null","resources/images/fishbone.png","null","",NA,NA,NA,NA,""
"image-keyboard-response",278,284290,"0.0-3.89-0.89","n8e357c7v1x4gpt",630,"49.csv","","242.80000001192093","resources/trios/L2T4A2.jpg","39","restless",0.5,0.6,0.5,0.23215119852708,"true"
"image-keyboard-response",279,284696,"0.0-3.89-1.89","n8e357c7v1x4gpt",630,"49.csv","","null","resources/maskTrios/BBA2.jpg","null","",NA,NA,NA,NA,""
"image-keyboard-response",280,285903,"0.0-3.89-2.89","n8e357c7v1x4gpt",630,"49.csv","","null","resources/images/coin2.png","null","",NA,NA,NA,NA,""
"image-keyboard-response",281,286373,"0.0-3.90-0.90","n8e357c7v1x4gpt",630,"49.csv","","468.90000000596046","resources/trios/L2T4A3.jpg","39","restless",0.5,0.6,0.5,0.618648076629978,"false"
"image-keyboard-response",282,286779,"0.0-3.90-1.90","n8e357c7v1x4gpt",630,"49.csv","","null","resources/maskTrios/BBA3.jpg","null","",NA,NA,NA,NA,""
"image-keyboard-response",283,287982,"0.0-3.90-2.90","n8e357c7v1x4gpt",630,"49.csv","","null","resources/images/fishbone.png","null","",NA,NA,NA,NA,""
"image-keyboard-response",284,288498,"0.0-3.91-0.91","n8e357c7v1x4gpt",630,"49.csv","","515.2000000178814","resources/trios/L1T4A2.jpg","39","restless",0.5,0.6,0.5,0.317775952986964,"true"
"image-keyboard-response",285,288905,"0.0-3.91-1.91","n8e357c7v1x4gpt",630,"49.csv","","null","resources/maskTrios/BBA2.jpg","null","",NA,NA,NA,NA,""
"image-keyboard-response",286,290106,"0.0-3.91-2.91","n8e357c7v1x4gpt",630,"49.csv","","null","resources/images/coin2.png","null","",NA,NA,NA,NA,""
"image-keyboard-response",287,292402,"0.0-3.92-0.92","n8e357c7v1x4gpt",630,"49.csv","","2294.0999999940395","resources/trios/L1T1A3.jpg","38","restless",0.5,0.6,0.5,0.492895887476316,"true"
"image-keyboard-response",288,292808,"0.0-3.92-1.92","n8e357c7v1x4gpt",630,"49.csv","","null","resources/maskTrios/BT1B.jpg","null","",NA,NA,NA,NA,""
"image-keyboard-response",289,294013,"0.0-3.92-2.92","n8e357c7v1x4gpt",630,"49.csv","","null","resources/images/coin2.png","null","",NA,NA,NA,NA,""
"image-keyboard-response",290,295562,"0.0-3.93-0.93","n8e357c7v1x4gpt",630,"49.csv","","1547.7999999821186","resources/trios/L2T1A3.jpg","38","restless",0.5,0.6,0.5,0.426285836022865,"true"
"image-keyboard-response",291,295968,"0.0-3.93-1.93","n8e357c7v1x4gpt",630,"49.csv","","null","resources/maskTrios/BT1B.jpg","null","",NA,NA,NA,NA,""
"image-keyboard-response",292,297175,"0.0-3.93-2.93","n8e357c7v1x4gpt",630,"49.csv","","null","resources/images/coin2.png","null","",NA,NA,NA,NA,""
"image-keyboard-response",293,300203,"0.0-3.94-0.94","n8e357c7v1x4gpt",630,"49.csv","","3027.4000000059605","resources/trios/L1T1A3.jpg","39","restless",0.5,0.6,0.6,0.836851107460021,"false"
"image-keyboard-response",294,300610,"0.0-3.94-1.94","n8e357c7v1x4gpt",630,"49.csv","","null","resources/maskTrios/BBA3.jpg","null","",NA,NA,NA,NA,""
"image-keyboard-response",295,301813,"0.0-3.94-2.94","n8e357c7v1x4gpt",630,"49.csv","","null","resources/images/fishbone.png","null","",NA,NA,NA,NA,""
"image-keyboard-response",296,302390,"0.0-3.95-0.95","n8e357c7v1x4gpt",630,"49.csv","","576.4000000059605","resources/trios/L2T4A3.jpg","39","restless",0.5,0.6,0.6,0.480155965887351,"true"
"image-keyboard-response",297,302796,"0.0-3.95-1.95","n8e357c7v1x4gpt",630,"49.csv","","null","resources/maskTrios/BBA3.jpg","null","",NA,NA,NA,NA,""
"image-keyboard-response",298,303997,"0.0-3.95-2.95","n8e357c7v1x4gpt",630,"49.csv","","null","resources/images/coin2.png","null","",NA,NA,NA,NA,""
"image-keyboard-response",299,304894,"0.0-3.96-0.96","n8e357c7v1x4gpt",630,"49.csv","","895.9000000059605","resources/trios/L2T1A3.jpg","39","restless",0.5,0.6,0.6,0.272235034501703,"true"
"image-keyboard-response",300,305298,"0.0-3.96-1.96","n8e357c7v1x4gpt",630,"49.csv","","null","resources/maskTrios/BBA3.jpg","null","",NA,NA,NA,NA,""
"image-keyboard-response",301,306500,"0.0-3.96-2.96","n8e357c7v1x4gpt",630,"49.csv","","null","resources/images/coin2.png","null","",NA,NA,NA,NA,""
"image-keyboard-response",302,307858,"0.0-3.97-0.97","n8e357c7v1x4gpt",630,"49.csv","","1357.5999999940395","resources/trios/L1T4A2.jpg","39","restless",0.5,0.6,0.6,0.768229092899196,"false"
"image-keyboard-response",303,308262,"0.0-3.97-1.97","n8e357c7v1x4gpt",630,"49.csv","","null","resources/maskTrios/BBA2.jpg","null","",NA,NA,NA,NA,""
"image-keyboard-response",304,309464,"0.0-3.97-2.97","n8e357c7v1x4gpt",630,"49.csv","","null","resources/images/fishbone.png","null","",NA,NA,NA,NA,""
"image-keyboard-response",305,309874,"0.0-3.98-0.98","n8e357c7v1x4gpt",630,"49.csv","","409.5","resources/trios/L1T1A2.jpg","39","restless",0.6,0.6,0.6,0.871788665679455,"false"
"image-keyboard-response",306,310279,"0.0-3.98-1.98","n8e357c7v1x4gpt",630,"49.csv","","null","resources/maskTrios/BBA2.jpg","null","",NA,NA,NA,NA,""
"image-keyboard-response",307,311485,"0.0-3.98-2.98","n8e357c7v1x4gpt",630,"49.csv","","null","resources/images/fishbone.png","null","",NA,NA,NA,NA,""
"image-keyboard-response",308,311866,"0.0-3.99-0.99","n8e357c7v1x4gpt",630,"49.csv","","379.40000000596046","resources/trios/L2T4A3.jpg","38","restless",0.7,0.6,0.6,0.211662818350915,"true"
"image-keyboard-response",309,312273,"0.0-3.99-1.99","n8e357c7v1x4gpt",630,"49.csv","","null","resources/maskTrios/BT4B.jpg","null","",NA,NA,NA,NA,""
"image-keyboard-response",310,313479,"0.0-3.99-2.99","n8e357c7v1x4gpt",630,"49.csv","","null","resources/images/coin2.png","null","",NA,NA,NA,NA,""
"image-keyboard-response",311,313821,"0.0-3.100-0.100","n8e357c7v1x4gpt",630,"49.csv","","341","resources/trios/L1T4A2.jpg","39","restless",0.7,0.6,0.6,0.322771350398658,"true"
"image-keyboard-response",312,314228,"0.0-3.100-1.100","n8e357c7v1x4gpt",630,"49.csv","","null","resources/maskTrios/BBA2.jpg","null","",NA,NA,NA,NA,""
"image-keyboard-response",313,315435,"0.0-3.100-2.100","n8e357c7v1x4gpt",630,"49.csv","","null","resources/images/coin2.png","null","",NA,NA,NA,NA,""
"image-keyboard-response",314,316285,"0.0-3.101-0.101","n8e357c7v1x4gpt",630,"49.csv","","848.9000000059605","resources/trios/L2T4A3.jpg","39","restless",0.7,0.6,0.6,0.17027091513253,"true"
"image-keyboard-response",315,316691,"0.0-3.101-1.101","n8e357c7v1x4gpt",630,"49.csv","","null","resources/maskTrios/BBA3.jpg","null","",NA,NA,NA,NA,""
"image-keyboard-response",316,317896,"0.0-3.101-2.101","n8e357c7v1x4gpt",630,"49.csv","","null","resources/images/coin2.png","null","",NA,NA,NA,NA,""
"image-keyboard-response",317,318542,"0.0-3.102-0.102","n8e357c7v1x4gpt",630,"49.csv","","644.7999999821186","resources/trios/L2T1A3.jpg","39","restless",0.7,0.7,0.6,0.0746639933323154,"true"
"image-keyboard-response",318,318945,"0.0-3.102-1.102","n8e357c7v1x4gpt",630,"49.csv","","null","resources/maskTrios/BBA3.jpg","null","",NA,NA,NA,NA,""
"image-keyboard-response",319,320152,"0.0-3.102-2.102","n8e357c7v1x4gpt",630,"49.csv","","null","resources/images/coin2.png","null","",NA,NA,NA,NA,""
"image-keyboard-response",320,320625,"0.0-3.103-0.103","n8e357c7v1x4gpt",630,"49.csv","","471.59999999403954","resources/trios/L1T4A3.jpg","39","restless",0.7,0.7,0.6,0.0746212042853367,"true"
"image-keyboard-response",321,321029,"0.0-3.103-1.103","n8e357c7v1x4gpt",630,"49.csv","","null","resources/maskTrios/BBA3.jpg","null","",NA,NA,NA,NA,""
"image-keyboard-response",322,322236,"0.0-3.103-2.103","n8e357c7v1x4gpt",630,"49.csv","","null","resources/images/coin2.png","null","",NA,NA,NA,NA,""
"image-keyboard-response",323,322632,"0.0-3.104-0.104","n8e357c7v1x4gpt",630,"49.csv","","395.5","resources/trios/L1T4A3.jpg","39","restless",0.7,0.7,0.6,0.172305122641766,"true"
"image-keyboard-response",324,323039,"0.0-3.104-1.104","n8e357c7v1x4gpt",630,"49.csv","","null","resources/maskTrios/BBA3.jpg","null","",NA,NA,NA,NA,""
"image-keyboard-response",325,324240,"0.0-3.104-2.104","n8e357c7v1x4gpt",630,"49.csv","","null","resources/images/coin2.png","null","",NA,NA,NA,NA,""
"image-keyboard-response",326,324778,"0.0-3.105-0.105","n8e357c7v1x4gpt",630,"49.csv","","537.3999999761581","resources/trios/L1T1A3.jpg","39","restless",0.7,0.7,0.6,0.930695119765687,"false"
"image-keyboard-response",327,325183,"0.0-3.105-1.105","n8e357c7v1x4gpt",630,"49.csv","","null","resources/maskTrios/BBA3.jpg","null","",NA,NA,NA,NA,""
"image-keyboard-response",328,326390,"0.0-3.105-2.105","n8e357c7v1x4gpt",630,"49.csv","","null","resources/images/fishbone.png","null","",NA,NA,NA,NA,""
"image-keyboard-response",329,326947,"0.0-3.106-0.106","n8e357c7v1x4gpt",630,"49.csv","","555.8000000119209","resources/trios/L1T1A2.jpg","39","restless",0.7,0.7,0.6,0.583633437506519,"true"
"image-keyboard-response",330,327354,"0.0-3.106-1.106","n8e357c7v1x4gpt",630,"49.csv","","null","resources/maskTrios/BBA2.jpg","null","",NA,NA,NA,NA,""
"image-keyboard-response",331,328560,"0.0-3.106-2.106","n8e357c7v1x4gpt",630,"49.csv","","null","resources/images/coin2.png","null","",NA,NA,NA,NA,""
"image-keyboard-response",332,329183,"0.0-3.107-0.107","n8e357c7v1x4gpt",630,"49.csv","","621.5999999940395","resources/trios/L1T1A3.jpg","39","restless",0.7,0.7,0.6,0.794738898631012,"false"
"image-keyboard-response",333,329589,"0.0-3.107-1.107","n8e357c7v1x4gpt",630,"49.csv","","null","resources/maskTrios/BBA3.jpg","null","",NA,NA,NA,NA,""
"image-keyboard-response",334,330793,"0.0-3.107-2.107","n8e357c7v1x4gpt",630,"49.csv","","null","resources/images/fishbone.png","null","",NA,NA,NA,NA,""
"image-keyboard-response",335,331168,"0.0-3.108-0.108","n8e357c7v1x4gpt",630,"49.csv","","373.90000000596046","resources/trios/L2T1A3.jpg","39","restless",0.7,0.7,0.6,0.490063487664129,"true"
"image-keyboard-response",336,331572,"0.0-3.108-1.108","n8e357c7v1x4gpt",630,"49.csv","","null","resources/maskTrios/BBA3.jpg","null","",NA,NA,NA,NA,""
"image-keyboard-response",337,332775,"0.0-3.108-2.108","n8e357c7v1x4gpt",630,"49.csv","","null","resources/images/coin2.png","null","",NA,NA,NA,NA,""
"image-keyboard-response",338,333121,"0.0-3.109-0.109","n8e357c7v1x4gpt",630,"49.csv","","344.2999999821186","resources/trios/L2T1A2.jpg","39","restless",0.8,0.6,0.6,0.817167086531401,"false"
"image-keyboard-response",339,333525,"0.0-3.109-1.109","n8e357c7v1x4gpt",630,"49.csv","","null","resources/maskTrios/BBA2.jpg","null","",NA,NA,NA,NA,""
"image-keyboard-response",340,334729,"0.0-3.109-2.109","n8e357c7v1x4gpt",630,"49.csv","","null","resources/images/fishbone.png","null","",NA,NA,NA,NA,""
"image-keyboard-response",341,335355,"0.0-3.110-0.110","n8e357c7v1x4gpt",630,"49.csv","","624.2999999821186","resources/trios/L1T4A3.jpg","39","restless",0.8,0.6,0.6,0.419997184721548,"true"
"image-keyboard-response",342,335761,"0.0-3.110-1.110","n8e357c7v1x4gpt",630,"49.csv","","null","resources/maskTrios/BBA3.jpg","null","",NA,NA,NA,NA,""
"image-keyboard-response",343,336964,"0.0-3.110-2.110","n8e357c7v1x4gpt",630,"49.csv","","null","resources/images/coin2.png","null","",NA,NA,NA,NA,""
"image-keyboard-response",344,337676,"0.0-3.111-0.111","n8e357c7v1x4gpt",630,"49.csv","","710.2000000178814","resources/trios/L2T1A2.jpg","39","restless",0.8,0.6,0.6,0.00237591046814201,"true"
"image-keyboard-response",345,338082,"0.0-3.111-1.111","n8e357c7v1x4gpt",630,"49.csv","","null","resources/maskTrios/BBA2.jpg","null","",NA,NA,NA,NA,""
"image-keyboard-response",346,339284,"0.0-3.111-2.111","n8e357c7v1x4gpt",630,"49.csv","","null","resources/images/coin2.png","null","",NA,NA,NA,NA,""
"image-keyboard-response",347,339343,"0.0-3.112-0.112","n8e357c7v1x4gpt",630,"49.csv","","57.79999998211861","resources/trios/L1T1A3.jpg","39","restless",0.8,0.6,0.6,0.391753460227128,"true"
"image-keyboard-response",348,339746,"0.0-3.112-1.112","n8e357c7v1x4gpt",630,"49.csv","","null","resources/maskTrios/BBA3.jpg","null","",NA,NA,NA,NA,""
"image-keyboard-response",349,340952,"0.0-3.112-2.112","n8e357c7v1x4gpt",630,"49.csv","","null","resources/images/coin2.png","null","",NA,NA,NA,NA,""
"image-keyboard-response",350,341299,"0.0-3.113-0.113","n8e357c7v1x4gpt",630,"49.csv","","346.19999998807907","resources/trios/L2T1A2.jpg","39","restless",0.8,0.7,0.6,0.418577190242459,"true"
"image-keyboard-response",351,341706,"0.0-3.113-1.113","n8e357c7v1x4gpt",630,"49.csv","","null","resources/maskTrios/BBA2.jpg","null","",NA,NA,NA,NA,""
"image-keyboard-response",352,342911,"0.0-3.113-2.113","n8e357c7v1x4gpt",630,"49.csv","","null","resources/images/coin2.png","null","",NA,NA,NA,NA,""
"image-keyboard-response",353,343263,"0.0-3.114-0.114","n8e357c7v1x4gpt",630,"49.csv","","350.39999997615814","resources/trios/L1T1A3.jpg","39","restless",0.8,0.6,0.5,0.027193211443951,"true"
"image-keyboard-response",354,343666,"0.0-3.114-1.114","n8e357c7v1x4gpt",630,"49.csv","","null","resources/maskTrios/BBA3.jpg","null","",NA,NA,NA,NA,""
"image-keyboard-response",355,344869,"0.0-3.114-2.114","n8e357c7v1x4gpt",630,"49.csv","","null","resources/images/coin2.png","null","",NA,NA,NA,NA,""
"image-keyboard-response",356,345291,"0.0-3.115-0.115","n8e357c7v1x4gpt",630,"49.csv","","421.5","resources/trios/L2T4A2.jpg","39","restless",0.7,0.6,0.5,0.234230110923149,"true"
"image-keyboard-response",357,345694,"0.0-3.115-1.115","n8e357c7v1x4gpt",630,"49.csv","","null","resources/maskTrios/BBA2.jpg","null","",NA,NA,NA,NA,""
"image-keyboard-response",358,346901,"0.0-3.115-2.115","n8e357c7v1x4gpt",630,"49.csv","","null","resources/images/coin2.png","null","",NA,NA,NA,NA,""
"image-keyboard-response",359,348652,"0.0-3.116-0.116","n8e357c7v1x4gpt",630,"49.csv","","1749.9000000059605","resources/trios/L1T1A3.jpg","38","restless",0.7,0.6,0.5,0.50588987487234,"true"
"image-keyboard-response",360,349056,"0.0-3.116-1.116","n8e357c7v1x4gpt",630,"49.csv","","null","resources/maskTrios/BT1B.jpg","null","",NA,NA,NA,NA,""
"image-keyboard-response",361,350262,"0.0-3.116-2.116","n8e357c7v1x4gpt",630,"49.csv","","null","resources/images/coin2.png","null","",NA,NA,NA,NA,""
"image-keyboard-response",362,351700,"0.0-3.117-0.117","n8e357c7v1x4gpt",630,"49.csv","","1436.8999999761581","resources/trios/L2T4A2.jpg","39","restless",0.7,0.6,0.5,0.186019428808126,"true"
"image-keyboard-response",363,352106,"0.0-3.117-1.117","n8e357c7v1x4gpt",630,"49.csv","","null","resources/maskTrios/BBA2.jpg","null","",NA,NA,NA,NA,""
"image-keyboard-response",364,353311,"0.0-3.117-2.117","n8e357c7v1x4gpt",630,"49.csv","","null","resources/images/coin2.png","null","",NA,NA,NA,NA,""
"image-keyboard-response",365,354307,"0.0-3.118-0.118","n8e357c7v1x4gpt",630,"49.csv","","995.2999999821186","resources/trios/L2T1A2.jpg","39","restless",0.7,0.6,0.4,0.784317147361015,"false"
"image-keyboard-response",366,354709,"0.0-3.118-1.118","n8e357c7v1x4gpt",630,"49.csv","","null","resources/maskTrios/BBA2.jpg","null","",NA,NA,NA,NA,""
"image-keyboard-response",367,355910,"0.0-3.118-2.118","n8e357c7v1x4gpt",630,"49.csv","","null","resources/images/fishbone.png","null","",NA,NA,NA,NA,""
"image-keyboard-response",368,357403,"0.0-3.119-0.119","n8e357c7v1x4gpt",630,"49.csv","","1492","resources/trios/L1T1A2.jpg","38","restless",0.7,0.6,0.4,0.361994257933602,"true"
"image-keyboard-response",369,357809,"0.0-3.119-1.119","n8e357c7v1x4gpt",630,"49.csv","","null","resources/maskTrios/BT1B.jpg","null","",NA,NA,NA,NA,""
"image-keyboard-response",370,359015,"0.0-3.119-2.119","n8e357c7v1x4gpt",630,"49.csv","","null","resources/images/coin2.png","null","",NA,NA,NA,NA,""
"image-keyboard-response",371,359941,"0.0-3.120-0.120","n8e357c7v1x4gpt",630,"49.csv","","924.8999999761581","resources/trios/L1T1A3.jpg","38","restless",0.7,0.5,0.3,0.063585642890168,"true"
"image-keyboard-response",372,360344,"0.0-3.120-1.120","n8e357c7v1x4gpt",630,"49.csv","","null","resources/maskTrios/BT1B.jpg","null","",NA,NA,NA,NA,""
"image-keyboard-response",373,361548,"0.0-3.120-2.120","n8e357c7v1x4gpt",630,"49.csv","","null","resources/images/coin2.png","null","",NA,NA,NA,NA,""
"image-keyboard-response",374,362779,"0.0-3.121-0.121","n8e357c7v1x4gpt",630,"49.csv","","1229.5","resources/trios/L2T4A3.jpg","39","restless",0.7,0.5,0.3,0.348274202161772,"false"
"image-keyboard-response",375,363185,"0.0-3.121-1.121","n8e357c7v1x4gpt",630,"49.csv","","null","resources/maskTrios/BBA3.jpg","null","",NA,NA,NA,NA,""
"image-keyboard-response",376,364390,"0.0-3.121-2.121","n8e357c7v1x4gpt",630,"49.csv","","null","resources/images/fishbone.png","null","",NA,NA,NA,NA,""
"image-keyboard-response",377,365504,"0.0-3.122-0.122","n8e357c7v1x4gpt",630,"49.csv","","1113","resources/trios/L2T4A2.jpg","38","restless",0.7,0.5,0.3,0.44781416884626,"true"
"image-keyboard-response",378,365906,"0.0-3.122-1.122","n8e357c7v1x4gpt",630,"49.csv","","null","resources/maskTrios/BT4B.jpg","null","",NA,NA,NA,NA,""
"image-keyboard-response",379,367111,"0.0-3.122-2.122","n8e357c7v1x4gpt",630,"49.csv","","null","resources/images/coin2.png","null","",NA,NA,NA,NA,""
"image-keyboard-response",380,368134,"0.0-3.123-0.123","n8e357c7v1x4gpt",630,"49.csv","","1020.4000000059605","resources/trios/L1T1A3.jpg","38","restless",0.7,0.5,0.3,0.825765479079691,"false"
"image-keyboard-response",381,368540,"0.0-3.123-1.123","n8e357c7v1x4gpt",630,"49.csv","","null","resources/maskTrios/BT1B.jpg","null","",NA,NA,NA,NA,""
"image-keyboard-response",382,369746,"0.0-3.123-2.123","n8e357c7v1x4gpt",630,"49.csv","","null","resources/images/fishbone.png","null","",NA,NA,NA,NA,""
"image-keyboard-response",383,370449,"0.0-3.124-0.124","n8e357c7v1x4gpt",630,"49.csv","","701","resources/trios/L2T4A3.jpg","39","restless",0.7,0.5,0.3,0.404916781697862,"false"
"image-keyboard-response",384,370855,"0.0-3.124-1.124","n8e357c7v1x4gpt",630,"49.csv","","null","resources/maskTrios/BBA3.jpg","null","",NA,NA,NA,NA,""
"image-keyboard-response",385,372061,"0.0-3.124-2.124","n8e357c7v1x4gpt",630,"49.csv","","null","resources/images/fishbone.png","null","",NA,NA,NA,NA,""
"image-keyboard-response",386,372355,"0.0-3.125-0.125","n8e357c7v1x4gpt",630,"49.csv","","293.09999999403954","resources/trios/L2T1A2.jpg","38","restless",0.6,0.4,0.3,0.225961048730165,"true"
"image-keyboard-response",387,372761,"0.0-3.125-1.125","n8e357c7v1x4gpt",630,"49.csv","","null","resources/maskTrios/BT1B.jpg","null","",NA,NA,NA,NA,""
"image-keyboard-response",388,373963,"0.0-3.125-2.125","n8e357c7v1x4gpt",630,"49.csv","","null","resources/images/coin2.png","null","",NA,NA,NA,NA,""
"image-keyboard-response",389,374551,"0.0-3.126-0.126","n8e357c7v1x4gpt",630,"49.csv","","586.9000000059605","resources/trios/L1T1A2.jpg","38","restless",0.6,0.4,0.3,0.911583143815323,"false"
"image-keyboard-response",390,374955,"0.0-3.126-1.126","n8e357c7v1x4gpt",630,"49.csv","","null","resources/maskTrios/BT1B.jpg","null","",NA,NA,NA,NA,""
"image-keyboard-response",391,376162,"0.0-3.126-2.126","n8e357c7v1x4gpt",630,"49.csv","","null","resources/images/fishbone.png","null","",NA,NA,NA,NA,""
"image-keyboard-response",392,376478,"0.0-3.127-0.127","n8e357c7v1x4gpt",630,"49.csv","","315.2999999821186","resources/trios/L2T1A2.jpg","39","restless",0.6,0.5,0.3,0.283998524884576,"true"
"image-keyboard-response",393,376885,"0.0-3.127-1.127","n8e357c7v1x4gpt",630,"49.csv","","null","resources/maskTrios/BBA2.jpg","null","",NA,NA,NA,NA,""
"image-keyboard-response",394,378092,"0.0-3.127-2.127","n8e357c7v1x4gpt",630,"49.csv","","null","resources/images/coin2.png","null","",NA,NA,NA,NA,""
"image-keyboard-response",395,378697,"0.0-3.128-0.128","n8e357c7v1x4gpt",630,"49.csv","","603.1999999880791","resources/trios/L1T4A3.jpg","39","restless",0.6,0.5,0.3,0.235939196166056,"true"
"image-keyboard-response",396,379098,"0.0-3.128-1.128","n8e357c7v1x4gpt",630,"49.csv","","null","resources/maskTrios/BBA3.jpg","null","",NA,NA,NA,NA,""
"image-keyboard-response",397,380305,"0.0-3.128-2.128","n8e357c7v1x4gpt",630,"49.csv","","null","resources/images/coin2.png","null","",NA,NA,NA,NA,""
"image-keyboard-response",398,380709,"0.0-3.129-0.129","n8e357c7v1x4gpt",630,"49.csv","","403.19999998807907","resources/trios/L1T1A2.jpg","39","restless",0.6,0.5,0.3,0.350381378547545,"false"
"image-keyboard-response",399,381116,"0.0-3.129-1.129","n8e357c7v1x4gpt",630,"49.csv","","null","resources/maskTrios/BBA2.jpg","null","",NA,NA,NA,NA,""
"image-keyboard-response",400,382318,"0.0-3.129-2.129","n8e357c7v1x4gpt",630,"49.csv","","null","resources/images/fishbone.png","null","",NA,NA,NA,NA,""
"image-keyboard-response",401,382801,"0.0-3.130-0.130","n8e357c7v1x4gpt",630,"49.csv","","481","resources/trios/L1T4A3.jpg","38","restless",0.6,0.5,0.3,0.0466005046988567,"true"
"image-keyboard-response",402,383207,"0.0-3.130-1.130","n8e357c7v1x4gpt",630,"49.csv","","null","resources/maskTrios/BT4B.jpg","null","",NA,NA,NA,NA,""
"image-keyboard-response",403,384413,"0.0-3.130-2.130","n8e357c7v1x4gpt",630,"49.csv","","null","resources/images/coin2.png","null","",NA,NA,NA,NA,""
"image-keyboard-response",404,387581,"0.0-3.131-0.131","n8e357c7v1x4gpt",630,"49.csv","","3166.199999988079","resources/trios/L1T1A2.jpg","38","restless",0.7,0.5,0.2,0.241533913643286,"true"
"image-keyboard-response",405,387988,"0.0-3.131-1.131","n8e357c7v1x4gpt",630,"49.csv","","null","resources/maskTrios/BT1B.jpg","null","",NA,NA,NA,NA,""
"image-keyboard-response",406,389194,"0.0-3.131-2.131","n8e357c7v1x4gpt",630,"49.csv","","null","resources/images/coin2.png","null","",NA,NA,NA,NA,""
"image-keyboard-response",407,389853,"0.0-3.132-0.132","n8e357c7v1x4gpt",630,"49.csv","","657.5","resources/trios/L1T1A2.jpg","38","restless",0.7,0.5,0.2,0.355309368561455,"true"
"image-keyboard-response",408,390256,"0.0-3.132-1.132","n8e357c7v1x4gpt",630,"49.csv","","null","resources/maskTrios/BT1B.jpg","null","",NA,NA,NA,NA,""
"image-keyboard-response",409,391461,"0.0-3.132-2.132","n8e357c7v1x4gpt",630,"49.csv","","null","resources/images/coin2.png","null","",NA,NA,NA,NA,""
"image-keyboard-response",410,392151,"0.0-3.133-0.133","n8e357c7v1x4gpt",630,"49.csv","","688.6999999880791","resources/trios/L1T1A2.jpg","38","restless",0.8,0.5,0.2,0.261379408617968,"true"
"image-keyboard-response",411,392555,"0.0-3.133-1.133","n8e357c7v1x4gpt",630,"49.csv","","null","resources/maskTrios/BT1B.jpg","null","",NA,NA,NA,NA,""
"image-keyboard-response",412,393757,"0.0-3.133-2.133","n8e357c7v1x4gpt",630,"49.csv","","null","resources/images/coin2.png","null","",NA,NA,NA,NA,""
"image-keyboard-response",413,394490,"0.0-3.134-0.134","n8e357c7v1x4gpt",630,"49.csv","","731.9000000059605","resources/trios/L2T1A3.jpg","38","restless",0.8,0.5,0.2,0.832707926630595,"false"
"image-keyboard-response",414,394895,"0.0-3.134-1.134","n8e357c7v1x4gpt",630,"49.csv","","null","resources/maskTrios/BT1B.jpg","null","",NA,NA,NA,NA,""
"image-keyboard-response",415,396102,"0.0-3.134-2.134","n8e357c7v1x4gpt",630,"49.csv","","null","resources/images/fishbone.png","null","",NA,NA,NA,NA,""
"image-keyboard-response",416,396576,"0.0-3.135-0.135","n8e357c7v1x4gpt",630,"49.csv","","473.59999999403954","resources/trios/L2T1A2.jpg","39","restless",0.8,0.5,0.2,0.784993287353549,"false"
"image-keyboard-response",417,396983,"0.0-3.135-1.135","n8e357c7v1x4gpt",630,"49.csv","","null","resources/maskTrios/BBA2.jpg","null","",NA,NA,NA,NA,""
"image-keyboard-response",418,398189,"0.0-3.135-2.135","n8e357c7v1x4gpt",630,"49.csv","","null","resources/images/fishbone.png","null","",NA,NA,NA,NA,""
"image-keyboard-response",419,398673,"0.0-3.136-0.136","n8e357c7v1x4gpt",630,"49.csv","","482.2999999821186","resources/trios/L2T4A2.jpg","38","restless",0.8,0.5,0.2,0.111226848400442,"true"
"image-keyboard-response",420,399076,"0.0-3.136-1.136","n8e357c7v1x4gpt",630,"49.csv","","null","resources/maskTrios/BT4B.jpg","null","",NA,NA,NA,NA,""
"image-keyboard-response",421,400282,"0.0-3.136-2.136","n8e357c7v1x4gpt",630,"49.csv","","null","resources/images/coin2.png","null","",NA,NA,NA,NA,""
"image-keyboard-response",422,400881,"0.0-3.137-0.137","n8e357c7v1x4gpt",630,"49.csv","","597.5999999940395","resources/trios/L1T4A2.jpg","38","restless",0.9,0.5,0.2,0.82001316417973,"false"
"image-keyboard-response",423,401285,"0.0-3.137-1.137","n8e357c7v1x4gpt",630,"49.csv","","null","resources/maskTrios/BT4B.jpg","null","",NA,NA,NA,NA,""
"image-keyboard-response",424,402487,"0.0-3.137-2.137","n8e357c7v1x4gpt",630,"49.csv","","null","resources/images/fishbone.png","null","",NA,NA,NA,NA,""
"image-keyboard-response",425,403534,"0.0-3.138-0.138","n8e357c7v1x4gpt",630,"49.csv","","1045.6000000238419","resources/trios/L1T1A2.jpg","39","restless",0.9,0.5,0.2,0.296752682930985,"false"
"image-keyboard-response",426,403939,"0.0-3.138-1.138","n8e357c7v1x4gpt",630,"49.csv","","null","resources/maskTrios/BBA2.jpg","null","",NA,NA,NA,NA,""
"image-keyboard-response",427,405144,"0.0-3.138-2.138","n8e357c7v1x4gpt",630,"49.csv","","null","resources/images/fishbone.png","null","",NA,NA,NA,NA,""
"image-keyboard-response",428,405498,"0.0-3.139-0.139","n8e357c7v1x4gpt",630,"49.csv","","353.2000000178814","resources/trios/L2T4A3.jpg","39","restless",0.8,0.5,0.2,0.51004770883161,"false"
"image-keyboard-response",429,405903,"0.0-3.139-1.139","n8e357c7v1x4gpt",630,"49.csv","","null","resources/maskTrios/BBA3.jpg","null","",NA,NA,NA,NA,""
"image-keyboard-response",430,407110,"0.0-3.139-2.139","n8e357c7v1x4gpt",630,"49.csv","","null","resources/images/fishbone.png","null","",NA,NA,NA,NA,""
"image-keyboard-response",431,407703,"0.0-3.140-0.140","n8e357c7v1x4gpt",630,"49.csv","","592.4000000059605","resources/trios/L1T4A2.jpg","39","restless",0.8,0.5,0.2,0.902486357016974,"false"
"image-keyboard-response",432,408110,"0.0-3.140-1.140","n8e357c7v1x4gpt",630,"49.csv","","null","resources/maskTrios/BBA2.jpg","null","",NA,NA,NA,NA,""
"image-keyboard-response",433,409312,"0.0-3.140-2.140","n8e357c7v1x4gpt",630,"49.csv","","null","resources/images/fishbone.png","null","",NA,NA,NA,NA,""
"image-keyboard-response",434,409762,"0.0-3.141-0.141","n8e357c7v1x4gpt",630,"49.csv","","449","resources/trios/L1T4A3.jpg","39","restless",0.8,0.5,0.3,0.00938319105015717,"true"
"image-keyboard-response",435,410165,"0.0-3.141-1.141","n8e357c7v1x4gpt",630,"49.csv","","null","resources/maskTrios/BBA3.jpg","null","",NA,NA,NA,NA,""
"image-keyboard-response",436,411371,"0.0-3.141-2.141","n8e357c7v1x4gpt",630,"49.csv","","null","resources/images/coin2.png","null","",NA,NA,NA,NA,""
"image-keyboard-response",437,412114,"0.0-3.142-0.142","n8e357c7v1x4gpt",630,"49.csv","","741.7999999821186","resources/trios/L1T4A3.jpg","39","restless",0.8,0.5,0.3,0.217156914418148,"true"
"image-keyboard-response",438,412521,"0.0-3.142-1.142","n8e357c7v1x4gpt",630,"49.csv","","null","resources/maskTrios/BBA3.jpg","null","",NA,NA,NA,NA,""
"image-keyboard-response",439,413726,"0.0-3.142-2.142","n8e357c7v1x4gpt",630,"49.csv","","null","resources/images/coin2.png","null","",NA,NA,NA,NA,""
"image-keyboard-response",440,414889,"0.0-3.143-0.143","n8e357c7v1x4gpt",630,"49.csv","","1161.2000000178814","resources/trios/L2T4A3.jpg","39","restless",0.8,0.5,0.3,0.348601457511568,"false"
"image-keyboard-response",441,415292,"0.0-3.143-1.143","n8e357c7v1x4gpt",630,"49.csv","","null","resources/maskTrios/BBA3.jpg","null","",NA,NA,NA,NA,""
"image-keyboard-response",442,416499,"0.0-3.143-2.143","n8e357c7v1x4gpt",630,"49.csv","","null","resources/images/fishbone.png","null","",NA,NA,NA,NA,""
"image-keyboard-response",443,417927,"0.0-3.144-0.144","n8e357c7v1x4gpt",630,"49.csv","","1427.0999999940395","resources/trios/L1T4A3.jpg","37","restless",0.8,0.5,0.3,0.210142546336181,"true"
"image-keyboard-response",444,418333,"0.0-3.144-1.144","n8e357c7v1x4gpt",630,"49.csv","","null","resources/maskTrios/L1BB.jpg","null","",NA,NA,NA,NA,""
"image-keyboard-response",445,419540,"0.0-3.144-2.144","n8e357c7v1x4gpt",630,"49.csv","","null","resources/images/coin2.png","null","",NA,NA,NA,NA,""
"image-keyboard-response",446,421343,"0.0-3.145-0.145","n8e357c7v1x4gpt",630,"49.csv","","1802.2999999821186","resources/trios/L1T1A3.jpg","38","restless",0.9,0.5,0.3,0.0285746363801369,"true"
"image-keyboard-response",447,421750,"0.0-3.145-1.145","n8e357c7v1x4gpt",630,"49.csv","","null","resources/maskTrios/BT1B.jpg","null","",NA,NA,NA,NA,""
"image-keyboard-response",448,422954,"0.0-3.145-2.145","n8e357c7v1x4gpt",630,"49.csv","","null","resources/images/coin2.png","null","",NA,NA,NA,NA,""
"image-keyboard-response",449,423870,"0.0-3.146-0.146","n8e357c7v1x4gpt",630,"49.csv","","914.8000000119209","resources/trios/L1T4A2.jpg","39","restless",0.9,0.4,0.3,0.344856916799274,"false"
"image-keyboard-response",450,424276,"0.0-3.146-1.146","n8e357c7v1x4gpt",630,"49.csv","","null","resources/maskTrios/BBA2.jpg","null","",NA,NA,NA,NA,""
"image-keyboard-response",451,425478,"0.0-3.146-2.146","n8e357c7v1x4gpt",630,"49.csv","","null","resources/images/fishbone.png","null","",NA,NA,NA,NA,""
"image-keyboard-response",452,426792,"0.0-3.147-0.147","n8e357c7v1x4gpt",630,"49.csv","","1313","resources/trios/L2T4A3.jpg","37","restless",0.9,0.3,0.3,0.865049126213614,"true"
"image-keyboard-response",453,427193,"0.0-3.147-1.147","n8e357c7v1x4gpt",630,"49.csv","","null","resources/maskTrios/L2BB.jpg","null","",NA,NA,NA,NA,""
"image-keyboard-response",454,428400,"0.0-3.147-2.147","n8e357c7v1x4gpt",630,"49.csv","","null","resources/images/coin2.png","null","",NA,NA,NA,NA,""
"image-keyboard-response",455,428838,"0.0-3.148-0.148","n8e357c7v1x4gpt",630,"49.csv","","436.5","resources/trios/L2T4A3.jpg","38","restless",0.9,0.3,0.3,0.460557598214681,"false"
"image-keyboard-response",456,429243,"0.0-3.148-1.148","n8e357c7v1x4gpt",630,"49.csv","","null","resources/maskTrios/BT4B.jpg","null","",NA,NA,NA,NA,""
"image-keyboard-response",457,430450,"0.0-3.148-2.148","n8e357c7v1x4gpt",630,"49.csv","","null","resources/images/fishbone.png","null","",NA,NA,NA,NA,""
"image-keyboard-response",458,431329,"0.0-3.149-0.149","n8e357c7v1x4gpt",630,"49.csv","","877.2999999821186","resources/trios/L2T1A3.jpg","39","restless",0.9,0.3,0.3,0.400626881870467,"false"
"image-keyboard-response",459,431732,"0.0-3.149-1.149","n8e357c7v1x4gpt",630,"49.csv","","null","resources/maskTrios/BBA3.jpg","null","",NA,NA,NA,NA,""
"image-keyboard-response",460,432936,"0.0-3.149-2.149","n8e357c7v1x4gpt",630,"49.csv","","null","resources/images/fishbone.png","null","",NA,NA,NA,NA,""
"image-keyboard-response",461,433027,"0.0-3.150-0.150","n8e357c7v1x4gpt",630,"49.csv","","90.5","resources/trios/L2T1A3.jpg","37","restless",0.9,0.3,0.3,0.0214701575361624,"true"
"image-keyboard-response",462,433431,"0.0-3.150-1.150","n8e357c7v1x4gpt",630,"49.csv","","null","resources/maskTrios/L2BB.jpg","null","",NA,NA,NA,NA,""
"image-keyboard-response",463,434637,"0.0-3.150-2.150","n8e357c7v1x4gpt",630,"49.csv","","null","resources/images/coin2.png","null","",NA,NA,NA,NA,""
"image-keyboard-response",464,435033,"0.0-3.151-0.151","n8e357c7v1x4gpt",630,"49.csv","","394.80000001192093","resources/trios/L2T1A2.jpg","37","restless",0.9,0.3,0.3,0.941841486015324,"false"
"image-keyboard-response",465,435440,"0.0-3.151-1.151","n8e357c7v1x4gpt",630,"49.csv","","null","resources/maskTrios/L2BB.jpg","null","",NA,NA,NA,NA,""
"image-keyboard-response",466,436647,"0.0-3.151-2.151","n8e357c7v1x4gpt",630,"49.csv","","null","resources/images/fishbone.png","null","",NA,NA,NA,NA,""
"image-keyboard-response",467,437541,"0.0-3.152-0.152","n8e357c7v1x4gpt",630,"49.csv","","893.4000000059605","resources/trios/L2T1A3.jpg","39","restless",0.9,0.3,0.3,0.0490189953283173,"true"
"image-keyboard-response",468,437948,"0.0-3.152-1.152","n8e357c7v1x4gpt",630,"49.csv","","null","resources/maskTrios/BBA3.jpg","null","",NA,NA,NA,NA,""
"image-keyboard-response",469,439155,"0.0-3.152-2.152","n8e357c7v1x4gpt",630,"49.csv","","null","resources/images/coin2.png","null","",NA,NA,NA,NA,""
"image-keyboard-response",470,439925,"0.0-3.153-0.153","n8e357c7v1x4gpt",630,"49.csv","","768.7999999821186","resources/trios/L1T4A2.jpg","39","restless",0.9,0.3,0.3,0.138158444332434,"true"
"image-keyboard-response",471,440331,"0.0-3.153-1.153","n8e357c7v1x4gpt",630,"49.csv","","null","resources/maskTrios/BBA2.jpg","null","",NA,NA,NA,NA,""
"image-keyboard-response",472,441538,"0.0-3.153-2.153","n8e357c7v1x4gpt",630,"49.csv","","null","resources/images/coin2.png","null","",NA,NA,NA,NA,""
"image-keyboard-response",473,442600,"0.0-3.154-0.154","n8e357c7v1x4gpt",630,"49.csv","","1060.7999999821186","resources/trios/L2T1A3.jpg","39","restless",0.8,0.3,0.3,0.452881168667598,"false"
"image-keyboard-response",474,443002,"0.0-3.154-1.154","n8e357c7v1x4gpt",630,"49.csv","","null","resources/maskTrios/BBA3.jpg","null","",NA,NA,NA,NA,""
"image-keyboard-response",475,444207,"0.0-3.154-2.154","n8e357c7v1x4gpt",630,"49.csv","","null","resources/images/fishbone.png","null","",NA,NA,NA,NA,""
"image-keyboard-response",476,445741,"0.0-3.155-0.155","n8e357c7v1x4gpt",630,"49.csv","","1532.699999988079","resources/trios/L2T4A3.jpg","37","restless",0.8,0.3,0.3,0.828197022161149,"false"
"image-keyboard-response",477,446148,"0.0-3.155-1.155","n8e357c7v1x4gpt",630,"49.csv","","null","resources/maskTrios/L2BB.jpg","null","",NA,NA,NA,NA,""
"image-keyboard-response",478,447355,"0.0-3.155-2.155","n8e357c7v1x4gpt",630,"49.csv","","null","resources/images/fishbone.png","null","",NA,NA,NA,NA,""
"image-keyboard-response",479,448039,"0.0-3.156-0.156","n8e357c7v1x4gpt",630,"49.csv","","683.1999999880791","resources/trios/L1T4A3.jpg","39","restless",0.7,0.3,0.3,0.59176830593978,"false"
"image-keyboard-response",480,448441,"0.0-3.156-1.156","n8e357c7v1x4gpt",630,"49.csv","","null","resources/maskTrios/BBA3.jpg","null","",NA,NA,NA,NA,""
"image-keyboard-response",481,449643,"0.0-3.156-2.156","n8e357c7v1x4gpt",630,"49.csv","","null","resources/images/fishbone.png","null","",NA,NA,NA,NA,""
"image-keyboard-response",482,450053,"0.0-3.157-0.157","n8e357c7v1x4gpt",630,"49.csv","","409.09999999403954","resources/trios/L2T4A3.jpg","38","restless",0.7,0.3,0.3,0.348228493964617,"false"
"image-keyboard-response",483,450459,"0.0-3.157-1.157","n8e357c7v1x4gpt",630,"49.csv","","null","resources/maskTrios/BT4B.jpg","null","",NA,NA,NA,NA,""
"image-keyboard-response",484,451662,"0.0-3.157-2.157","n8e357c7v1x4gpt",630,"49.csv","","null","resources/images/fishbone.png","null","",NA,NA,NA,NA,""
"image-keyboard-response",485,452064,"0.0-3.158-0.158","n8e357c7v1x4gpt",630,"49.csv","","400.5","resources/trios/L1T1A3.jpg","39","restless",0.7,0.3,0.3,0.404305389161554,"false"
"image-keyboard-response",486,452470,"0.0-3.158-1.158","n8e357c7v1x4gpt",630,"49.csv","","null","resources/maskTrios/BBA3.jpg","null","",NA,NA,NA,NA,""
"image-keyboard-response",487,453674,"0.0-3.158-2.158","n8e357c7v1x4gpt",630,"49.csv","","null","resources/images/fishbone.png","null","",NA,NA,NA,NA,""
"image-keyboard-response",488,454226,"0.0-3.159-0.159","n8e357c7v1x4gpt",630,"49.csv","","549.8999999761581","resources/trios/L1T1A2.jpg","37","restless",0.7,0.3,0.3,0.486650400403237,"true"
"image-keyboard-response",489,454632,"0.0-3.159-1.159","n8e357c7v1x4gpt",630,"49.csv","","null","resources/maskTrios/L1BB.jpg","null","",NA,NA,NA,NA,""
"image-keyboard-response",490,455839,"0.0-3.159-2.159","n8e357c7v1x4gpt",630,"49.csv","","null","resources/images/coin2.png","null","",NA,NA,NA,NA,""
"image-keyboard-response",491,457898,"0.0-3.160-0.160","n8e357c7v1x4gpt",630,"49.csv","","2057.9000000059605","resources/trios/L1T1A3.jpg","38","restless",0.7,0.3,0.3,0.000476375840779752,"true"
"image-keyboard-response",492,458300,"0.0-3.160-1.160","n8e357c7v1x4gpt",630,"49.csv","","null","resources/maskTrios/BT1B.jpg","null","",NA,NA,NA,NA,""
"image-keyboard-response",493,459501,"0.0-3.160-2.160","n8e357c7v1x4gpt",630,"49.csv","","null","resources/images/coin2.png","null","",NA,NA,NA,NA,""
"image-keyboard-response",494,461349,"0.0-3.161-0.161","n8e357c7v1x4gpt",630,"49.csv","","1846.3999999761581","resources/trios/L2T1A3.jpg","38","restless",0.7,0.3,0.4,0.355435192923191,"false"
"image-keyboard-response",495,461755,"0.0-3.161-1.161","n8e357c7v1x4gpt",630,"49.csv","","null","resources/maskTrios/BT1B.jpg","null","",NA,NA,NA,NA,""
"image-keyboard-response",496,462959,"0.0-3.161-2.161","n8e357c7v1x4gpt",630,"49.csv","","null","resources/images/fishbone.png","null","",NA,NA,NA,NA,""
"image-keyboard-response",497,464044,"0.0-3.162-0.162","n8e357c7v1x4gpt",630,"49.csv","","1083.800000011921","resources/trios/L1T4A2.jpg","39","restless",0.7,0.3,0.4,0.0888424480579171,"true"
"image-keyboard-response",498,464451,"0.0-3.162-1.162","n8e357c7v1x4gpt",630,"49.csv","","null","resources/maskTrios/BBA2.jpg","null","",NA,NA,NA,NA,""
"image-keyboard-response",499,465657,"0.0-3.162-2.162","n8e357c7v1x4gpt",630,"49.csv","","null","resources/images/coin2.png","null","",NA,NA,NA,NA,""
"image-keyboard-response",500,467732,"0.0-3.163-0.163","n8e357c7v1x4gpt",630,"49.csv","","2073.5","resources/trios/L1T1A3.jpg","38","restless",0.7,0.3,0.4,0.788443041822093,"false"
"image-keyboard-response",501,468139,"0.0-3.163-1.163","n8e357c7v1x4gpt",630,"49.csv","","null","resources/maskTrios/BT1B.jpg","null","",NA,NA,NA,NA,""
"image-keyboard-response",502,469342,"0.0-3.163-2.163","n8e357c7v1x4gpt",630,"49.csv","","null","resources/images/fishbone.png","null","",NA,NA,NA,NA,""
"image-keyboard-response",503,469730,"0.0-3.164-0.164","n8e357c7v1x4gpt",630,"49.csv","","387.09999999403954","resources/trios/L2T4A3.jpg","39","restless",0.7,0.4,0.4,0.314190043093568,"true"
"image-keyboard-response",504,470137,"0.0-3.164-1.164","n8e357c7v1x4gpt",630,"49.csv","","null","resources/maskTrios/BBA3.jpg","null","",NA,NA,NA,NA,""
"image-keyboard-response",505,471342,"0.0-3.164-2.164","n8e357c7v1x4gpt",630,"49.csv","","null","resources/images/coin2.png","null","",NA,NA,NA,NA,""
"image-keyboard-response",506,471830,"0.0-3.165-0.165","n8e357c7v1x4gpt",630,"49.csv","","486.69999998807907","resources/trios/L2T1A2.jpg","39","restless",0.6,0.4,0.4,0.159203956265481,"true"
"image-keyboard-response",507,472237,"0.0-3.165-1.165","n8e357c7v1x4gpt",630,"49.csv","","null","resources/maskTrios/BBA2.jpg","null","",NA,NA,NA,NA,""
"image-keyboard-response",508,473441,"0.0-3.165-2.165","n8e357c7v1x4gpt",630,"49.csv","","null","resources/images/coin2.png","null","",NA,NA,NA,NA,""
"image-keyboard-response",509,474675,"0.0-3.166-0.166","n8e357c7v1x4gpt",630,"49.csv","","1232.6000000238419","resources/trios/L1T1A3.jpg","39","restless",0.7,0.4,0.4,0.962215965829373,"false"
"image-keyboard-response",510,475079,"0.0-3.166-1.166","n8e357c7v1x4gpt",630,"49.csv","","null","resources/maskTrios/BBA3.jpg","null","",NA,NA,NA,NA,""
"image-keyboard-response",511,476282,"0.0-3.166-2.166","n8e357c7v1x4gpt",630,"49.csv","","null","resources/images/fishbone.png","null","",NA,NA,NA,NA,""
"image-keyboard-response",512,476672,"0.0-3.167-0.167","n8e357c7v1x4gpt",630,"49.csv","","389.30000001192093","resources/trios/L1T1A3.jpg","39","restless",0.7,0.4,0.4,0.226869883491178,"true"
"image-keyboard-response",513,477074,"0.0-3.167-1.167","n8e357c7v1x4gpt",630,"49.csv","","null","resources/maskTrios/BBA3.jpg","null","",NA,NA,NA,NA,""
"image-keyboard-response",514,478281,"0.0-3.167-2.167","n8e357c7v1x4gpt",630,"49.csv","","null","resources/images/coin2.png","null","",NA,NA,NA,NA,""
"image-keyboard-response",515,480864,"0.0-3.168-0.168","n8e357c7v1x4gpt",630,"49.csv","","2581.5999999940395","resources/trios/L2T1A2.jpg","38","restless",0.7,0.4,0.4,0.501911080090963,"false"
"image-keyboard-response",516,481265,"0.0-3.168-1.168","n8e357c7v1x4gpt",630,"49.csv","","null","resources/maskTrios/BT1B.jpg","null","",NA,NA,NA,NA,""
"image-keyboard-response",517,482472,"0.0-3.168-2.168","n8e357c7v1x4gpt",630,"49.csv","","null","resources/images/fishbone.png","null","",NA,NA,NA,NA,""
"image-keyboard-response",518,483143,"0.0-3.169-0.169","n8e357c7v1x4gpt",630,"49.csv","","669.6999999880791","resources/trios/L1T1A3.jpg","37","restless",0.7,0.4,0.4,0.405479870758145,"true"
"image-keyboard-response",519,483549,"0.0-3.169-1.169","n8e357c7v1x4gpt",630,"49.csv","","null","resources/maskTrios/L1BB.jpg","null","",NA,NA,NA,NA,""
"image-keyboard-response",520,484756,"0.0-3.169-2.169","n8e357c7v1x4gpt",630,"49.csv","","null","resources/images/coin2.png","null","",NA,NA,NA,NA,""
"image-keyboard-response",521,486235,"0.0-3.170-0.170","n8e357c7v1x4gpt",630,"49.csv","","1477.5","resources/trios/L2T4A2.jpg","39","restless",0.7,0.5,0.4,0.861217152518295,"false"
"image-keyboard-response",522,486642,"0.0-3.170-1.170","n8e357c7v1x4gpt",630,"49.csv","","null","resources/maskTrios/BBA2.jpg","null","",NA,NA,NA,NA,""
"image-keyboard-response",523,487848,"0.0-3.170-2.170","n8e357c7v1x4gpt",630,"49.csv","","null","resources/images/fishbone.png","null","",NA,NA,NA,NA,""
"image-keyboard-response",524,488633,"0.0-3.171-0.171","n8e357c7v1x4gpt",630,"49.csv","","783.0999999940395","resources/trios/L2T1A3.jpg","38","restless",0.7,0.5,0.4,0.132163434914164,"true"
"image-keyboard-response",525,489034,"0.0-3.171-1.171","n8e357c7v1x4gpt",630,"49.csv","","null","resources/maskTrios/BT1B.jpg","null","",NA,NA,NA,NA,""
"image-keyboard-response",526,490241,"0.0-3.171-2.171","n8e357c7v1x4gpt",630,"49.csv","","null","resources/images/coin2.png","null","",NA,NA,NA,NA,""
"image-keyboard-response",527,491294,"0.0-3.172-0.172","n8e357c7v1x4gpt",630,"49.csv","","1051.5999999940395","resources/trios/L1T1A3.jpg","39","restless",0.7,0.5,0.3,0.347904816445278,"false"
"image-keyboard-response",528,491700,"0.0-3.172-1.172","n8e357c7v1x4gpt",630,"49.csv","","null","resources/maskTrios/BBA3.jpg","null","",NA,NA,NA,NA,""
"image-keyboard-response",529,492907,"0.0-3.172-2.172","n8e357c7v1x4gpt",630,"49.csv","","null","resources/images/fishbone.png","null","",NA,NA,NA,NA,""
"image-keyboard-response",530,493481,"0.0-3.173-0.173","n8e357c7v1x4gpt",630,"49.csv","","573.3000000119209","resources/trios/L1T4A2.jpg","37","restless",0.7,0.5,0.3,0.586241000622917,"true"
"image-keyboard-response",531,493888,"0.0-3.173-1.173","n8e357c7v1x4gpt",630,"49.csv","","null","resources/maskTrios/L1BB.jpg","null","",NA,NA,NA,NA,""
"image-keyboard-response",532,495093,"0.0-3.173-2.173","n8e357c7v1x4gpt",630,"49.csv","","null","resources/images/coin2.png","null","",NA,NA,NA,NA,""
"image-keyboard-response",533,496807,"0.0-3.174-0.174","n8e357c7v1x4gpt",630,"49.csv","","1713.6000000238419","resources/trios/L1T1A3.jpg","38","restless",0.7,0.5,0.3,0.410701244229094,"true"
"image-keyboard-response",534,497212,"0.0-3.174-1.174","n8e357c7v1x4gpt",630,"49.csv","","null","resources/maskTrios/BT1B.jpg","null","",NA,NA,NA,NA,""
"image-keyboard-response",535,498418,"0.0-3.174-2.174","n8e357c7v1x4gpt",630,"49.csv","","null","resources/images/coin2.png","null","",NA,NA,NA,NA,""
"image-keyboard-response",536,500488,"0.0-3.175-0.175","n8e357c7v1x4gpt",630,"49.csv","","2068.5999999940395","resources/trios/L2T1A2.jpg","39","restless",0.7,0.5,0.3,0.86615291489639,"false"
"image-keyboard-response",537,500891,"0.0-3.175-1.175","n8e357c7v1x4gpt",630,"49.csv","","null","resources/maskTrios/BBA2.jpg","null","",NA,NA,NA,NA,""
"image-keyboard-response",538,502098,"0.0-3.175-2.175","n8e357c7v1x4gpt",630,"49.csv","","null","resources/images/fishbone.png","null","",NA,NA,NA,NA,""
"image-keyboard-response",539,503037,"0.0-3.176-0.176","n8e357c7v1x4gpt",630,"49.csv","","938","resources/trios/L1T1A2.jpg","38","restless",0.7,0.5,0.3,0.0606081166164429,"true"
"image-keyboard-response",540,503441,"0.0-3.176-1.176","n8e357c7v1x4gpt",630,"49.csv","","null","resources/maskTrios/BT1B.jpg","null","",NA,NA,NA,NA,""
"image-keyboard-response",541,504647,"0.0-3.176-2.176","n8e357c7v1x4gpt",630,"49.csv","","null","resources/images/coin2.png","null","",NA,NA,NA,NA,""
"image-keyboard-response",542,507129,"0.0-3.177-0.177","n8e357c7v1x4gpt",630,"49.csv","","2480.699999988079","resources/trios/L2T4A3.jpg","39","restless",0.7,0.5,0.3,0.236306277752266,"true"
"image-keyboard-response",543,507531,"0.0-3.177-1.177","n8e357c7v1x4gpt",630,"49.csv","","null","resources/maskTrios/BBA3.jpg","null","",NA,NA,NA,NA,""
"image-keyboard-response",544,508738,"0.0-3.177-2.177","n8e357c7v1x4gpt",630,"49.csv","","null","resources/images/coin2.png","null","",NA,NA,NA,NA,""
"image-keyboard-response",545,510136,"0.0-3.178-0.178","n8e357c7v1x4gpt",630,"49.csv","","1397","resources/trios/L2T1A2.jpg","38","restless",0.7,0.6,0.3,0.673434781504977,"false"
"image-keyboard-response",546,510540,"0.0-3.178-1.178","n8e357c7v1x4gpt",630,"49.csv","","null","resources/maskTrios/BT1B.jpg","null","",NA,NA,NA,NA,""
"image-keyboard-response",547,511747,"0.0-3.178-2.178","n8e357c7v1x4gpt",630,"49.csv","","null","resources/images/fishbone.png","null","",NA,NA,NA,NA,""
"image-keyboard-response",548,513718,"0.0-3.179-0.179","n8e357c7v1x4gpt",630,"49.csv","","1970.300000011921","resources/trios/L2T4A3.jpg","39","restless",0.7,0.6,0.3,0.085502765044305,"true"
"image-keyboard-response",549,514124,"0.0-3.179-1.179","n8e357c7v1x4gpt",630,"49.csv","","null","resources/maskTrios/BBA3.jpg","null","",NA,NA,NA,NA,""
"image-keyboard-response",550,515331,"0.0-3.179-2.179","n8e357c7v1x4gpt",630,"49.csv","","null","resources/images/coin2.png","null","",NA,NA,NA,NA,""
"image-keyboard-response",551,517293,"0.0-3.180-0.180","n8e357c7v1x4gpt",630,"49.csv","","1960.9000000059605","resources/trios/L1T1A2.jpg","38","restless",0.7,0.6,0.2,0.636701664162707,"false"
"image-keyboard-response",552,517700,"0.0-3.180-1.180","n8e357c7v1x4gpt",630,"49.csv","","null","resources/maskTrios/BT1B.jpg","null","",NA,NA,NA,NA,""
"image-keyboard-response",553,518907,"0.0-3.180-2.180","n8e357c7v1x4gpt",630,"49.csv","","null","resources/images/fishbone.png","null","",NA,NA,NA,NA,""
"image-keyboard-response",554,519648,"0.0-3.181-0.181","n8e357c7v1x4gpt",630,"49.csv","","740.5","resources/trios/L2T4A2.jpg","39","restless",0.7,0.6,0.2,0.159761445015085,"true"
"image-keyboard-response",555,520055,"0.0-3.181-1.181","n8e357c7v1x4gpt",630,"49.csv","","null","resources/maskTrios/BBA2.jpg","null","",NA,NA,NA,NA,""
"image-keyboard-response",556,521257,"0.0-3.181-2.181","n8e357c7v1x4gpt",630,"49.csv","","null","resources/images/coin2.png","null","",NA,NA,NA,NA,""
"image-keyboard-response",557,522217,"0.0-3.182-0.182","n8e357c7v1x4gpt",630,"49.csv","","959.0999999940395","resources/trios/L1T4A2.jpg","39","restless",0.7,0.6,0.2,0.776349996113646,"false"
"image-keyboard-response",558,522624,"0.0-3.182-1.182","n8e357c7v1x4gpt",630,"49.csv","","null","resources/maskTrios/BBA2.jpg","null","",NA,NA,NA,NA,""
"image-keyboard-response",559,523830,"0.0-3.182-2.182","n8e357c7v1x4gpt",630,"49.csv","","null","resources/images/fishbone.png","null","",NA,NA,NA,NA,""
"image-keyboard-response",560,524180,"0.0-3.183-0.183","n8e357c7v1x4gpt",630,"49.csv","","348.40000000596046","resources/trios/L2T1A2.jpg","38","restless",0.7,0.5,0.2,0.577258791679347,"false"
"image-keyboard-response",561,524586,"0.0-3.183-1.183","n8e357c7v1x4gpt",630,"49.csv","","null","resources/maskTrios/BT1B.jpg","null","",NA,NA,NA,NA,""
"image-keyboard-response",562,525790,"0.0-3.183-2.183","n8e357c7v1x4gpt",630,"49.csv","","null","resources/images/fishbone.png","null","",NA,NA,NA,NA,""
"image-keyboard-response",563,526451,"0.0-3.184-0.184","n8e357c7v1x4gpt",630,"49.csv","","660","resources/trios/L2T4A2.jpg","37","restless",0.7,0.5,0.2,0.311897204637408,"true"
"image-keyboard-response",564,526858,"0.0-3.184-1.184","n8e357c7v1x4gpt",630,"49.csv","","null","resources/maskTrios/L2BB.jpg","null","",NA,NA,NA,NA,""
"image-keyboard-response",565,528064,"0.0-3.184-2.184","n8e357c7v1x4gpt",630,"49.csv","","null","resources/images/coin2.png","null","",NA,NA,NA,NA,""
"image-keyboard-response",566,528504,"0.0-3.185-0.185","n8e357c7v1x4gpt",630,"49.csv","","438.7999999821186","resources/trios/L2T1A3.jpg","39","restless",0.7,0.5,0.2,0.511641632236551,"false"
"image-keyboard-response",567,528906,"0.0-3.185-1.185","n8e357c7v1x4gpt",630,"49.csv","","null","resources/maskTrios/BBA3.jpg","null","",NA,NA,NA,NA,""
"image-keyboard-response",568,530109,"0.0-3.185-2.185","n8e357c7v1x4gpt",630,"49.csv","","null","resources/images/fishbone.png","null","",NA,NA,NA,NA,""
"image-keyboard-response",569,531559,"0.0-3.186-0.186","n8e357c7v1x4gpt",630,"49.csv","","1449.5","resources/trios/L2T1A3.jpg","38","restless",0.7,0.5,0.2,0.258799445693447,"true"
"image-keyboard-response",570,531966,"0.0-3.186-1.186","n8e357c7v1x4gpt",630,"49.csv","","null","resources/maskTrios/BT1B.jpg","null","",NA,NA,NA,NA,""
"image-keyboard-response",571,533173,"0.0-3.186-2.186","n8e357c7v1x4gpt",630,"49.csv","","null","resources/images/coin2.png","null","",NA,NA,NA,NA,""
"image-keyboard-response",572,534086,"0.0-3.187-0.187","n8e357c7v1x4gpt",630,"49.csv","","911.5","resources/trios/L2T4A2.jpg","39","restless",0.7,0.5,0.2,0.445462296590482,"false"
"image-keyboard-response",573,534490,"0.0-3.187-1.187","n8e357c7v1x4gpt",630,"49.csv","","null","resources/maskTrios/BBA2.jpg","null","",NA,NA,NA,NA,""
"image-keyboard-response",574,535693,"0.0-3.187-2.187","n8e357c7v1x4gpt",630,"49.csv","","null","resources/images/fishbone.png","null","",NA,NA,NA,NA,""
"image-keyboard-response",575,537157,"0.0-3.188-0.188","n8e357c7v1x4gpt",630,"49.csv","","1463.4000000059605","resources/trios/L1T1A3.jpg","38","restless",0.6,0.5,0.2,0.113770748071348,"true"
"image-keyboard-response",576,537564,"0.0-3.188-1.188","n8e357c7v1x4gpt",630,"49.csv","","null","resources/maskTrios/BT1B.jpg","null","",NA,NA,NA,NA,""
"image-keyboard-response",577,538770,"0.0-3.188-2.188","n8e357c7v1x4gpt",630,"49.csv","","null","resources/images/coin2.png","null","",NA,NA,NA,NA,""
"image-keyboard-response",578,541458,"0.0-3.189-0.189","n8e357c7v1x4gpt",630,"49.csv","","2686.7000000178814","resources/trios/L1T1A2.jpg","39","restless",0.6,0.5,0.2,0.272345685545998,"false"
"image-keyboard-response",579,541860,"0.0-3.189-1.189","n8e357c7v1x4gpt",630,"49.csv","","null","resources/maskTrios/BBA2.jpg","null","",NA,NA,NA,NA,""
"image-keyboard-response",580,543066,"0.0-3.189-2.189","n8e357c7v1x4gpt",630,"49.csv","","null","resources/images/fishbone.png","null","",NA,NA,NA,NA,""
"image-keyboard-response",581,543395,"0.0-3.190-0.190","n8e357c7v1x4gpt",630,"49.csv","","326.7999999821186","resources/trios/L2T4A3.jpg","38","restless",0.6,0.5,0.2,0.25177997697389,"true"
"image-keyboard-response",582,543796,"0.0-3.190-1.190","n8e357c7v1x4gpt",630,"49.csv","","null","resources/maskTrios/BT4B.jpg","null","",NA,NA,NA,NA,""
"image-keyboard-response",583,545003,"0.0-3.190-2.190","n8e357c7v1x4gpt",630,"49.csv","","null","resources/images/coin2.png","null","",NA,NA,NA,NA,""
"image-keyboard-response",584,545374,"0.0-3.191-0.191","n8e357c7v1x4gpt",630,"49.csv","","369.90000000596046","resources/trios/L2T4A2.jpg","38","restless",0.6,0.5,0.2,0.772216705626345,"false"
"image-keyboard-response",585,545778,"0.0-3.191-1.191","n8e357c7v1x4gpt",630,"49.csv","","null","resources/maskTrios/BT4B.jpg","null","",NA,NA,NA,NA,""
"image-keyboard-response",586,546984,"0.0-3.191-2.191","n8e357c7v1x4gpt",630,"49.csv","","null","resources/images/fishbone.png","null","",NA,NA,NA,NA,""
"image-keyboard-response",587,547530,"0.0-3.192-0.192","n8e357c7v1x4gpt",630,"49.csv","","545","resources/trios/L2T4A3.jpg","39","restless",0.6,0.5,0.1,0.66329133403258,"false"
"image-keyboard-response",588,547932,"0.0-3.192-1.192","n8e357c7v1x4gpt",630,"49.csv","","null","resources/maskTrios/BBA3.jpg","null","",NA,NA,NA,NA,""
"image-keyboard-response",589,549135,"0.0-3.192-2.192","n8e357c7v1x4gpt",630,"49.csv","","null","resources/images/fishbone.png","null","",NA,NA,NA,NA,""
"image-keyboard-response",590,549539,"0.0-3.193-0.193","n8e357c7v1x4gpt",630,"49.csv","","402.90000000596046","resources/trios/L1T1A3.jpg","37","restless",0.6,0.5,0.1,0.986189137671676,"false"
"image-keyboard-response",591,549945,"0.0-3.193-1.193","n8e357c7v1x4gpt",630,"49.csv","","null","resources/maskTrios/L1BB.jpg","null","",NA,NA,NA,NA,""
"image-keyboard-response",592,551151,"0.0-3.193-2.193","n8e357c7v1x4gpt",630,"49.csv","","null","resources/images/fishbone.png","null","",NA,NA,NA,NA,""
"image-keyboard-response",593,551514,"0.0-3.194-0.194","n8e357c7v1x4gpt",630,"49.csv","","361","resources/trios/L2T4A3.jpg","38","restless",0.7,0.5,0.1,0.0956415500232939,"true"
"image-keyboard-response",594,551920,"0.0-3.194-1.194","n8e357c7v1x4gpt",630,"49.csv","","null","resources/maskTrios/BT4B.jpg","null","",NA,NA,NA,NA,""
"image-keyboard-response",595,553123,"0.0-3.194-2.194","n8e357c7v1x4gpt",630,"49.csv","","null","resources/images/coin2.png","null","",NA,NA,NA,NA,""
"image-keyboard-response",596,553469,"0.0-3.195-0.195","n8e357c7v1x4gpt",630,"49.csv","","344.2999999821186","resources/trios/L2T1A2.jpg","39","restless",0.7,0.5,0.2,0.970265164814093,"false"
"image-keyboard-response",597,553873,"0.0-3.195-1.195","n8e357c7v1x4gpt",630,"49.csv","","null","resources/maskTrios/BBA2.jpg","null","",NA,NA,NA,NA,""
"image-keyboard-response",598,555080,"0.0-3.195-2.195","n8e357c7v1x4gpt",630,"49.csv","","null","resources/images/fishbone.png","null","",NA,NA,NA,NA,""
"image-keyboard-response",599,555368,"0.0-3.196-0.196","n8e357c7v1x4gpt",630,"49.csv","","287.40000000596046","resources/trios/L1T1A2.jpg","39","restless",0.7,0.5,0.2,0.854376836784597,"false"
"image-keyboard-response",600,555769,"0.0-3.196-1.196","n8e357c7v1x4gpt",630,"49.csv","","null","resources/maskTrios/BBA2.jpg","null","",NA,NA,NA,NA,""
"image-keyboard-response",601,556973,"0.0-3.196-2.196","n8e357c7v1x4gpt",630,"49.csv","","null","resources/images/fishbone.png","null","",NA,NA,NA,NA,""
"image-keyboard-response",602,557287,"0.0-3.197-0.197","n8e357c7v1x4gpt",630,"49.csv","","312.59999999403954","resources/trios/L2T1A3.jpg","39","restless",0.7,0.5,0.2,0.284593856577772,"false"
"image-keyboard-response",603,557690,"0.0-3.197-1.197","n8e357c7v1x4gpt",630,"49.csv","","null","resources/maskTrios/BBA3.jpg","null","",NA,NA,NA,NA,""
"image-keyboard-response",604,558897,"0.0-3.197-2.197","n8e357c7v1x4gpt",630,"49.csv","","null","resources/images/fishbone.png","null","",NA,NA,NA,NA,""
"image-keyboard-response",605,559231,"0.0-3.198-0.198","n8e357c7v1x4gpt",630,"49.csv","","332.90000000596046","resources/trios/L1T4A2.jpg","39","restless",0.7,0.5,0.2,0.154472034748714,"true"
"image-keyboard-response",606,559633,"0.0-3.198-1.198","n8e357c7v1x4gpt",630,"49.csv","","null","resources/maskTrios/BBA2.jpg","null","",NA,NA,NA,NA,""
"image-keyboard-response",607,560839,"0.0-3.198-2.198","n8e357c7v1x4gpt",630,"49.csv","","null","resources/images/coin2.png","null","",NA,NA,NA,NA,""
"image-keyboard-response",608,560957,"0.0-3.199-0.199","n8e357c7v1x4gpt",630,"49.csv","","116.19999998807907","resources/trios/L2T1A3.jpg","38","restless",0.7,0.5,0.2,0.502700373625229,"false"
"image-keyboard-response",609,561358,"0.0-3.199-1.199","n8e357c7v1x4gpt",630,"49.csv","","null","resources/maskTrios/BT1B.jpg","null","",NA,NA,NA,NA,""
"image-keyboard-response",610,562563,"0.0-3.199-2.199","n8e357c7v1x4gpt",630,"49.csv","","null","resources/images/fishbone.png","null","",NA,NA,NA,NA,""
