"trial_type","trial_index","time_elapsed","internal_node_id","subject","participantCode","walkNumber","success","rt","stimulus","key_press","test_part","leftProb","midProb","rightProb","generatedNum","correct"
"pavlovia",0,1093,"0.0-0.0","x5f0ly05r58apgy",626,"76.csv","","","","","",NA,NA,NA,NA,""
"fullscreen",1,4229,"0.0-1.0","x5f0ly05r58apgy",626,"76.csv","true","","","","",NA,NA,NA,NA,""
"html-keyboard-response",2,9443,"0.0-2.0-0.0","x5f0ly05r58apgy",626,"76.csv","","5211.599999964237","<p><font size='6'>Arrrgh!</p></font><p>Can you be the best pirate? Try to find lots of gold! But beware, some islands have more gold than others, and over time, the island with the most gold may change. Can YOU figure it out? </p><font size='6'>GOOD LUCK, CAPTAIN!!!</font><p>Press any key to begin</p>","78","",NA,NA,NA,NA,""
"image-keyboard-response",3,12452,"0.0-2.0-1.0","x5f0ly05r58apgy",626,"76.csv","","null","resources/image_sets/111.png","null","",NA,NA,NA,NA,""
"image-keyboard-response",4,15663,"0.0-2.0-2.0","x5f0ly05r58apgy",626,"76.csv","","3208.800000011921","resources/image_sets/left_highlight.png","37","",NA,NA,NA,NA,""
"image-keyboard-response",5,17180,"0.0-2.0-3.0","x5f0ly05r58apgy",626,"76.csv","","1514.800000011921","resources/image_sets/mid_highlight.png","38","",NA,NA,NA,NA,""
"image-keyboard-response",6,17886,"0.0-2.0-4.0","x5f0ly05r58apgy",626,"76.csv","","704.0999999642372","resources/image_sets/right_highlight.png","39","",NA,NA,NA,NA,""
"image-keyboard-response",7,19383,"0.0-2.0-5.0","x5f0ly05r58apgy",626,"76.csv","","1495","resources/image_sets/111.png","13","",NA,NA,NA,NA,""
"image-keyboard-response",8,22355,"0.0-2.0-6.0","x5f0ly05r58apgy",626,"76.csv","","2970.600000023842","resources/images/coin2.png","13","",NA,NA,NA,NA,""
"image-keyboard-response",9,25455,"0.0-2.0-7.0","x5f0ly05r58apgy",626,"76.csv","","3099.300000011921","resources/images/fishbone.png","13","",NA,NA,NA,NA,""
"html-keyboard-response",10,30311,"0.0-2.0-8.0","x5f0ly05r58apgy",626,"76.csv","","4854.400000035763","<p>Your first journey will be a long one, but you will get a well deserved break at the end</p><p>After the break you will have four more journeys, but each will be much shorter than the first, and you will have breaks in between each</p><p>Press Enter to begin</p>","13","",NA,NA,NA,NA,""
"image-keyboard-response",11,32698,"0.0-3.0-0.0","x5f0ly05r58apgy",626,"76.csv","","2383.599999964237","resources/trios/L4T4A3.jpg","37","restless",0.7,0.9,0.3,0.25527563319006,"true"
"image-keyboard-response",12,33105,"0.0-3.0-1.0","x5f0ly05r58apgy",626,"76.csv","","null","resources/maskTrios/L4BB.jpg","null","",NA,NA,NA,NA,""
"image-keyboard-response",13,34317,"0.0-3.0-2.0","x5f0ly05r58apgy",626,"76.csv","","null","resources/images/coin2.png","null","",NA,NA,NA,NA,""
"image-keyboard-response",14,37737,"0.0-3.1-0.1","x5f0ly05r58apgy",626,"76.csv","","3417.600000023842","resources/trios/L2T1A1.jpg","38","restless",0.7,0.9,0.3,0.301471103196464,"true"
"image-keyboard-response",15,38145,"0.0-3.1-1.1","x5f0ly05r58apgy",626,"76.csv","","null","resources/maskTrios/BT1B.jpg","null","",NA,NA,NA,NA,""
"image-keyboard-response",16,39355,"0.0-3.1-2.1","x5f0ly05r58apgy",626,"76.csv","","null","resources/images/coin2.png","null","",NA,NA,NA,NA,""
"image-keyboard-response",17,39983,"0.0-3.2-0.2","x5f0ly05r58apgy",626,"76.csv","","627.1999999880791","resources/trios/L4T4A1.jpg","37","restless",0.7,0.9,0.3,0.199729840874499,"true"
"image-keyboard-response",18,40393,"0.0-3.2-1.2","x5f0ly05r58apgy",626,"76.csv","","null","resources/maskTrios/L4BB.jpg","null","",NA,NA,NA,NA,""
"image-keyboard-response",19,41605,"0.0-3.2-2.2","x5f0ly05r58apgy",626,"76.csv","","null","resources/images/coin2.png","null","",NA,NA,NA,NA,""
"image-keyboard-response",20,43903,"0.0-3.3-0.3","x5f0ly05r58apgy",626,"76.csv","","2296.300000011921","resources/trios/L4T4A1.jpg","38","restless",0.7,0.9,0.3,0.360003513516626,"true"
"image-keyboard-response",21,44313,"0.0-3.3-1.3","x5f0ly05r58apgy",626,"76.csv","","null","resources/maskTrios/BT4B.jpg","null","",NA,NA,NA,NA,""
"image-keyboard-response",22,45522,"0.0-3.3-2.3","x5f0ly05r58apgy",626,"76.csv","","null","resources/images/coin2.png","null","",NA,NA,NA,NA,""
"image-keyboard-response",23,47054,"0.0-3.4-0.4","x5f0ly05r58apgy",626,"76.csv","","1530.300000011921","resources/trios/L2T1A3.jpg","37","restless",0.7,0.9,0.3,0.907957491587824,"false"
"image-keyboard-response",24,47464,"0.0-3.4-1.4","x5f0ly05r58apgy",626,"76.csv","","null","resources/maskTrios/L2BB.jpg","null","",NA,NA,NA,NA,""
"image-keyboard-response",25,48677,"0.0-3.4-2.4","x5f0ly05r58apgy",626,"76.csv","","null","resources/images/fishbone.png","null","",NA,NA,NA,NA,""
"image-keyboard-response",26,49001,"0.0-3.5-0.5","x5f0ly05r58apgy",626,"76.csv","","321.80000001192093","resources/trios/L4T4A1.jpg","38","restless",0.7,0.8,0.3,0.0396709146893681,"true"
"image-keyboard-response",27,49412,"0.0-3.5-1.5","x5f0ly05r58apgy",626,"76.csv","","null","resources/maskTrios/BT4B.jpg","null","",NA,NA,NA,NA,""
"image-keyboard-response",28,50617,"0.0-3.5-2.5","x5f0ly05r58apgy",626,"76.csv","","null","resources/images/coin2.png","null","",NA,NA,NA,NA,""
"image-keyboard-response",29,52190,"0.0-3.6-0.6","x5f0ly05r58apgy",626,"76.csv","","1570.9000000357628","resources/trios/L4T1A3.jpg","37","restless",0.7,0.8,0.3,0.40460409462972,"true"
"image-keyboard-response",30,52601,"0.0-3.6-1.6","x5f0ly05r58apgy",626,"76.csv","","null","resources/maskTrios/L4BB.jpg","null","",NA,NA,NA,NA,""
"image-keyboard-response",31,53811,"0.0-3.6-2.6","x5f0ly05r58apgy",626,"76.csv","","null","resources/images/coin2.png","null","",NA,NA,NA,NA,""
"image-keyboard-response",32,54451,"0.0-3.7-0.7","x5f0ly05r58apgy",626,"76.csv","","637.7999999523163","resources/trios/L4T4A1.jpg","38","restless",0.7,0.8,0.3,0.108688390311297,"true"
"image-keyboard-response",33,54857,"0.0-3.7-1.7","x5f0ly05r58apgy",626,"76.csv","","null","resources/maskTrios/BT4B.jpg","null","",NA,NA,NA,NA,""
"image-keyboard-response",34,56066,"0.0-3.7-2.7","x5f0ly05r58apgy",626,"76.csv","","null","resources/images/coin2.png","null","",NA,NA,NA,NA,""
"image-keyboard-response",35,56756,"0.0-3.8-0.8","x5f0ly05r58apgy",626,"76.csv","","687","resources/trios/L4T1A1.jpg","38","restless",0.7,0.7,0.3,0.502192845801004,"true"
"image-keyboard-response",36,57160,"0.0-3.8-1.8","x5f0ly05r58apgy",626,"76.csv","","null","resources/maskTrios/BT1B.jpg","null","",NA,NA,NA,NA,""
"image-keyboard-response",37,58368,"0.0-3.8-2.8","x5f0ly05r58apgy",626,"76.csv","","null","resources/images/coin2.png","null","",NA,NA,NA,NA,""
"image-keyboard-response",38,59192,"0.0-3.9-0.9","x5f0ly05r58apgy",626,"76.csv","","822.5","resources/trios/L2T1A3.jpg","37","restless",0.7,0.7,0.3,0.406692525615239,"true"
"image-keyboard-response",39,59602,"0.0-3.9-1.9","x5f0ly05r58apgy",626,"76.csv","","null","resources/maskTrios/L2BB.jpg","null","",NA,NA,NA,NA,""
"image-keyboard-response",40,60813,"0.0-3.9-2.9","x5f0ly05r58apgy",626,"76.csv","","null","resources/images/coin2.png","null","",NA,NA,NA,NA,""
"image-keyboard-response",41,61418,"0.0-3.10-0.10","x5f0ly05r58apgy",626,"76.csv","","603.6999999880791","resources/trios/L4T4A1.jpg","38","restless",0.7,0.7,0.3,0.922271806437249,"false"
"image-keyboard-response",42,61828,"0.0-3.10-1.10","x5f0ly05r58apgy",626,"76.csv","","null","resources/maskTrios/BT4B.jpg","null","",NA,NA,NA,NA,""
"image-keyboard-response",43,63035,"0.0-3.10-2.10","x5f0ly05r58apgy",626,"76.csv","","null","resources/images/fishbone.png","null","",NA,NA,NA,NA,""
"image-keyboard-response",44,63540,"0.0-3.11-0.11","x5f0ly05r58apgy",626,"76.csv","","504.80000001192093","resources/trios/L2T4A3.jpg","37","restless",0.7,0.6,0.3,0.350588701540521,"true"
"image-keyboard-response",45,63949,"0.0-3.11-1.11","x5f0ly05r58apgy",626,"76.csv","","null","resources/maskTrios/L2BB.jpg","null","",NA,NA,NA,NA,""
"image-keyboard-response",46,65155,"0.0-3.11-2.11","x5f0ly05r58apgy",626,"76.csv","","null","resources/images/coin2.png","null","",NA,NA,NA,NA,""
"image-keyboard-response",47,65657,"0.0-3.12-0.12","x5f0ly05r58apgy",626,"76.csv","","500.19999998807907","resources/trios/L4T4A1.jpg","38","restless",0.7,0.6,0.3,0.406302104808636,"true"
"image-keyboard-response",48,66069,"0.0-3.12-1.12","x5f0ly05r58apgy",626,"76.csv","","null","resources/maskTrios/BT4B.jpg","null","",NA,NA,NA,NA,""
"image-keyboard-response",49,67272,"0.0-3.12-2.12","x5f0ly05r58apgy",626,"76.csv","","null","resources/images/coin2.png","null","",NA,NA,NA,NA,""
"image-keyboard-response",50,68078,"0.0-3.13-0.13","x5f0ly05r58apgy",626,"76.csv","","804.8000000119209","resources/trios/L2T4A3.jpg","37","restless",0.8,0.7,0.3,0.66073826490201,"true"
"image-keyboard-response",51,68488,"0.0-3.13-1.13","x5f0ly05r58apgy",626,"76.csv","","null","resources/maskTrios/L2BB.jpg","null","",NA,NA,NA,NA,""
"image-keyboard-response",52,69698,"0.0-3.13-2.13","x5f0ly05r58apgy",626,"76.csv","","null","resources/images/coin2.png","null","",NA,NA,NA,NA,""
"image-keyboard-response",53,70181,"0.0-3.14-0.14","x5f0ly05r58apgy",626,"76.csv","","481.30000001192093","resources/trios/L2T1A1.jpg","38","restless",0.8,0.7,0.3,0.740451685068428,"false"
"image-keyboard-response",54,70585,"0.0-3.14-1.14","x5f0ly05r58apgy",626,"76.csv","","null","resources/maskTrios/BT1B.jpg","null","",NA,NA,NA,NA,""
"image-keyboard-response",55,71796,"0.0-3.14-2.14","x5f0ly05r58apgy",626,"76.csv","","null","resources/images/fishbone.png","null","",NA,NA,NA,NA,""
"image-keyboard-response",56,72204,"0.0-3.15-0.15","x5f0ly05r58apgy",626,"76.csv","","406.19999998807907","resources/trios/L4T4A3.jpg","38","restless",0.8,0.7,0.3,0.00514932795454315,"true"
"image-keyboard-response",57,72609,"0.0-3.15-1.15","x5f0ly05r58apgy",626,"76.csv","","null","resources/maskTrios/BT4B.jpg","null","",NA,NA,NA,NA,""
"image-keyboard-response",58,73817,"0.0-3.15-2.15","x5f0ly05r58apgy",626,"76.csv","","null","resources/images/coin2.png","null","",NA,NA,NA,NA,""
"image-keyboard-response",59,74481,"0.0-3.16-0.16","x5f0ly05r58apgy",626,"76.csv","","661.8999999761581","resources/trios/L4T1A3.jpg","37","restless",0.8,0.7,0.3,0.888552872109006,"false"
"image-keyboard-response",60,74893,"0.0-3.16-1.16","x5f0ly05r58apgy",626,"76.csv","","null","resources/maskTrios/L4BB.jpg","null","",NA,NA,NA,NA,""
"image-keyboard-response",61,76096,"0.0-3.16-2.16","x5f0ly05r58apgy",626,"76.csv","","null","resources/images/fishbone.png","null","",NA,NA,NA,NA,""
"image-keyboard-response",62,76528,"0.0-3.17-0.17","x5f0ly05r58apgy",626,"76.csv","","429.30000001192093","resources/trios/L4T1A3.jpg","38","restless",0.8,0.7,0.3,0.46614776070105,"true"
"image-keyboard-response",63,76938,"0.0-3.17-1.17","x5f0ly05r58apgy",626,"76.csv","","null","resources/maskTrios/BT1B.jpg","null","",NA,NA,NA,NA,""
"image-keyboard-response",64,78148,"0.0-3.17-2.17","x5f0ly05r58apgy",626,"76.csv","","null","resources/images/coin2.png","null","",NA,NA,NA,NA,""
"image-keyboard-response",65,78580,"0.0-3.18-0.18","x5f0ly05r58apgy",626,"76.csv","","430","resources/trios/L4T1A1.jpg","38","restless",0.8,0.7,0.2,0.891769879713123,"false"
"image-keyboard-response",66,78987,"0.0-3.18-1.18","x5f0ly05r58apgy",626,"76.csv","","null","resources/maskTrios/BT1B.jpg","null","",NA,NA,NA,NA,""
"image-keyboard-response",67,80192,"0.0-3.18-2.18","x5f0ly05r58apgy",626,"76.csv","","null","resources/images/fishbone.png","null","",NA,NA,NA,NA,""
"image-keyboard-response",68,80547,"0.0-3.19-0.19","x5f0ly05r58apgy",626,"76.csv","","353","resources/trios/L4T1A3.jpg","37","restless",0.8,0.7,0.2,0.397746189840662,"true"
"image-keyboard-response",69,80955,"0.0-3.19-1.19","x5f0ly05r58apgy",626,"76.csv","","null","resources/maskTrios/L4BB.jpg","null","",NA,NA,NA,NA,""
"image-keyboard-response",70,82164,"0.0-3.19-2.19","x5f0ly05r58apgy",626,"76.csv","","null","resources/images/coin2.png","null","",NA,NA,NA,NA,""
"image-keyboard-response",71,82423,"0.0-3.20-0.20","x5f0ly05r58apgy",626,"76.csv","","256.69999998807907","resources/trios/L2T1A1.jpg","38","restless",0.7,0.7,0.2,0.663554081886664,"true"
"image-keyboard-response",72,82835,"0.0-3.20-1.20","x5f0ly05r58apgy",626,"76.csv","","null","resources/maskTrios/BT1B.jpg","null","",NA,NA,NA,NA,""
"image-keyboard-response",73,84041,"0.0-3.20-2.20","x5f0ly05r58apgy",626,"76.csv","","null","resources/images/coin2.png","null","",NA,NA,NA,NA,""
"image-keyboard-response",74,84377,"0.0-3.21-0.21","x5f0ly05r58apgy",626,"76.csv","","329.0999999642372","resources/trios/L2T4A3.jpg","37","restless",0.7,0.7,0.3,0.874299039173285,"false"
"image-keyboard-response",75,84786,"0.0-3.21-1.21","x5f0ly05r58apgy",626,"76.csv","","null","resources/maskTrios/L2BB.jpg","null","",NA,NA,NA,NA,""
"image-keyboard-response",76,85992,"0.0-3.21-2.21","x5f0ly05r58apgy",626,"76.csv","","null","resources/images/fishbone.png","null","",NA,NA,NA,NA,""
"image-keyboard-response",77,86284,"0.0-3.22-0.22","x5f0ly05r58apgy",626,"76.csv","","290.10000002384186","resources/trios/L2T4A3.jpg","37","restless",0.7,0.7,0.3,0.28116250648585,"true"
"image-keyboard-response",78,86692,"0.0-3.22-1.22","x5f0ly05r58apgy",626,"76.csv","","null","resources/maskTrios/L2BB.jpg","null","",NA,NA,NA,NA,""
"image-keyboard-response",79,87901,"0.0-3.22-2.22","x5f0ly05r58apgy",626,"76.csv","","null","resources/images/coin2.png","null","",NA,NA,NA,NA,""
"image-keyboard-response",80,88192,"0.0-3.23-0.23","x5f0ly05r58apgy",626,"76.csv","","289.5","resources/trios/L4T4A1.jpg","38","restless",0.7,0.6,0.3,0.454296957438858,"true"
"image-keyboard-response",81,88604,"0.0-3.23-1.23","x5f0ly05r58apgy",626,"76.csv","","null","resources/maskTrios/BT4B.jpg","null","",NA,NA,NA,NA,""
"image-keyboard-response",82,89808,"0.0-3.23-2.23","x5f0ly05r58apgy",626,"76.csv","","null","resources/images/coin2.png","null","",NA,NA,NA,NA,""
"image-keyboard-response",83,90145,"0.0-3.24-0.24","x5f0ly05r58apgy",626,"76.csv","","334.80000001192093","resources/trios/L4T1A1.jpg","37","restless",0.7,0.6,0.3,0.463388375659707,"true"
"image-keyboard-response",84,90553,"0.0-3.24-1.24","x5f0ly05r58apgy",626,"76.csv","","null","resources/maskTrios/L4BB.jpg","null","",NA,NA,NA,NA,""
"image-keyboard-response",85,91762,"0.0-3.24-2.24","x5f0ly05r58apgy",626,"76.csv","","null","resources/images/coin2.png","null","",NA,NA,NA,NA,""
"image-keyboard-response",86,91878,"0.0-3.25-0.25","x5f0ly05r58apgy",626,"76.csv","","115","resources/trios/L4T4A1.jpg","38","restless",0.7,0.6,0.3,0.485404873069449,"true"
"image-keyboard-response",87,92284,"0.0-3.25-1.25","x5f0ly05r58apgy",626,"76.csv","","null","resources/maskTrios/BT4B.jpg","null","",NA,NA,NA,NA,""
"image-keyboard-response",88,93492,"0.0-3.25-2.25","x5f0ly05r58apgy",626,"76.csv","","null","resources/images/coin2.png","null","",NA,NA,NA,NA,""
"image-keyboard-response",89,93750,"0.0-3.26-0.26","x5f0ly05r58apgy",626,"76.csv","","256.0999999642372","resources/trios/L4T1A1.jpg","37","restless",0.7,0.6,0.3,0.698525388140953,"true"
"image-keyboard-response",90,94164,"0.0-3.26-1.26","x5f0ly05r58apgy",626,"76.csv","","null","resources/maskTrios/L4BB.jpg","null","",NA,NA,NA,NA,""
"image-keyboard-response",91,95368,"0.0-3.26-2.26","x5f0ly05r58apgy",626,"76.csv","","null","resources/images/coin2.png","null","",NA,NA,NA,NA,""
"image-keyboard-response",92,95622,"0.0-3.27-0.27","x5f0ly05r58apgy",626,"76.csv","","251.89999997615814","resources/trios/L4T1A1.jpg","38","restless",0.7,0.6,0.3,0.307813348013836,"true"
"image-keyboard-response",93,96035,"0.0-3.27-1.27","x5f0ly05r58apgy",626,"76.csv","","null","resources/maskTrios/BT1B.jpg","null","",NA,NA,NA,NA,""
"image-keyboard-response",94,97245,"0.0-3.27-2.27","x5f0ly05r58apgy",626,"76.csv","","null","resources/images/coin2.png","null","",NA,NA,NA,NA,""
"image-keyboard-response",95,97541,"0.0-3.28-0.28","x5f0ly05r58apgy",626,"76.csv","","294.10000002384186","resources/trios/L2T4A1.jpg","37","restless",0.7,0.5,0.3,0.317689501325541,"true"
"image-keyboard-response",96,97948,"0.0-3.28-1.28","x5f0ly05r58apgy",626,"76.csv","","null","resources/maskTrios/L2BB.jpg","null","",NA,NA,NA,NA,""
"image-keyboard-response",97,99155,"0.0-3.28-2.28","x5f0ly05r58apgy",626,"76.csv","","null","resources/images/coin2.png","null","",NA,NA,NA,NA,""
"image-keyboard-response",98,99332,"0.0-3.29-0.29","x5f0ly05r58apgy",626,"76.csv","","175.5999999642372","resources/trios/L2T1A3.jpg","38","restless",0.7,0.5,0.3,0.772961775986803,"false"
"image-keyboard-response",99,99740,"0.0-3.29-1.29","x5f0ly05r58apgy",626,"76.csv","","null","resources/maskTrios/BT1B.jpg","null","",NA,NA,NA,NA,""
"image-keyboard-response",100,100944,"0.0-3.29-2.29","x5f0ly05r58apgy",626,"76.csv","","null","resources/images/fishbone.png","null","",NA,NA,NA,NA,""
"image-keyboard-response",101,101211,"0.0-3.30-0.30","x5f0ly05r58apgy",626,"76.csv","","264.4000000357628","resources/trios/L2T4A1.jpg","38","restless",0.7,0.5,0.3,0.891400047570103,"false"
"image-keyboard-response",102,101618,"0.0-3.30-1.30","x5f0ly05r58apgy",626,"76.csv","","null","resources/maskTrios/BT4B.jpg","null","",NA,NA,NA,NA,""
"image-keyboard-response",103,102824,"0.0-3.30-2.30","x5f0ly05r58apgy",626,"76.csv","","null","resources/images/fishbone.png","null","",NA,NA,NA,NA,""
"image-keyboard-response",104,103064,"0.0-3.31-0.31","x5f0ly05r58apgy",626,"76.csv","","236.9000000357628","resources/trios/L2T1A1.jpg","38","restless",0.7,0.5,0.3,0.212625769209072,"true"
"image-keyboard-response",105,103476,"0.0-3.31-1.31","x5f0ly05r58apgy",626,"76.csv","","null","resources/maskTrios/BT1B.jpg","null","",NA,NA,NA,NA,""
"image-keyboard-response",106,104682,"0.0-3.31-2.31","x5f0ly05r58apgy",626,"76.csv","","null","resources/images/coin2.png","null","",NA,NA,NA,NA,""
"image-keyboard-response",107,104946,"0.0-3.32-0.32","x5f0ly05r58apgy",626,"76.csv","","263","resources/trios/L4T1A3.jpg","37","restless",0.7,0.5,0.3,0.7908333100722,"false"
"image-keyboard-response",108,105355,"0.0-3.32-1.32","x5f0ly05r58apgy",626,"76.csv","","null","resources/maskTrios/L4BB.jpg","null","",NA,NA,NA,NA,""
"image-keyboard-response",109,106561,"0.0-3.32-2.32","x5f0ly05r58apgy",626,"76.csv","","null","resources/images/fishbone.png","null","",NA,NA,NA,NA,""
"image-keyboard-response",110,106749,"0.0-3.33-0.33","x5f0ly05r58apgy",626,"76.csv","","187.80000001192093","resources/trios/L4T4A3.jpg","38","restless",0.7,0.5,0.3,0.0372175957769798,"true"
"image-keyboard-response",111,107155,"0.0-3.33-1.33","x5f0ly05r58apgy",626,"76.csv","","null","resources/maskTrios/BT4B.jpg","null","",NA,NA,NA,NA,""
"image-keyboard-response",112,108360,"0.0-3.33-2.33","x5f0ly05r58apgy",626,"76.csv","","null","resources/images/coin2.png","null","",NA,NA,NA,NA,""
"image-keyboard-response",113,108611,"0.0-3.34-0.34","x5f0ly05r58apgy",626,"76.csv","","248.39999997615814","resources/trios/L2T1A1.jpg","37","restless",0.7,0.5,0.3,0.574763234851042,"true"
"image-keyboard-response",114,109017,"0.0-3.34-1.34","x5f0ly05r58apgy",626,"76.csv","","null","resources/maskTrios/L2BB.jpg","null","",NA,NA,NA,NA,""
"image-keyboard-response",115,110225,"0.0-3.34-2.34","x5f0ly05r58apgy",626,"76.csv","","null","resources/images/coin2.png","null","",NA,NA,NA,NA,""
"image-keyboard-response",116,110393,"0.0-3.35-0.35","x5f0ly05r58apgy",626,"76.csv","","166.39999997615814","resources/trios/L4T4A3.jpg","38","restless",0.8,0.5,0.3,0.771453895351689,"false"
"image-keyboard-response",117,110804,"0.0-3.35-1.35","x5f0ly05r58apgy",626,"76.csv","","null","resources/maskTrios/BT4B.jpg","null","",NA,NA,NA,NA,""
"image-keyboard-response",118,112008,"0.0-3.35-2.35","x5f0ly05r58apgy",626,"76.csv","","null","resources/images/fishbone.png","null","",NA,NA,NA,NA,""
"image-keyboard-response",119,112874,"0.0-3.36-0.36","x5f0ly05r58apgy",626,"76.csv","","864.7999999523163","resources/trios/L4T4A3.jpg","38","restless",0.8,0.5,0.3,0.078716374332201,"true"
"image-keyboard-response",120,113282,"0.0-3.36-1.36","x5f0ly05r58apgy",626,"76.csv","","null","resources/maskTrios/BT4B.jpg","null","",NA,NA,NA,NA,""
"image-keyboard-response",121,114492,"0.0-3.36-2.36","x5f0ly05r58apgy",626,"76.csv","","null","resources/images/coin2.png","null","",NA,NA,NA,NA,""
"image-keyboard-response",122,114785,"0.0-3.37-0.37","x5f0ly05r58apgy",626,"76.csv","","290.5","resources/trios/L2T4A1.jpg","37","restless",0.8,0.5,0.3,0.778818533062249,"true"
"image-keyboard-response",123,115195,"0.0-3.37-1.37","x5f0ly05r58apgy",626,"76.csv","","null","resources/maskTrios/L2BB.jpg","null","",NA,NA,NA,NA,""
"image-keyboard-response",124,116400,"0.0-3.37-2.37","x5f0ly05r58apgy",626,"76.csv","","null","resources/images/coin2.png","null","",NA,NA,NA,NA,""
"image-keyboard-response",125,116638,"0.0-3.38-0.38","x5f0ly05r58apgy",626,"76.csv","","237.79999995231628","resources/trios/L4T4A3.jpg","38","restless",0.7,0.5,0.3,0.89194240080903,"false"
"image-keyboard-response",126,117051,"0.0-3.38-1.38","x5f0ly05r58apgy",626,"76.csv","","null","resources/maskTrios/BT4B.jpg","null","",NA,NA,NA,NA,""
"image-keyboard-response",127,118257,"0.0-3.38-2.38","x5f0ly05r58apgy",626,"76.csv","","null","resources/images/fishbone.png","null","",NA,NA,NA,NA,""
"image-keyboard-response",128,118583,"0.0-3.39-0.39","x5f0ly05r58apgy",626,"76.csv","","324.69999998807907","resources/trios/L4T1A1.jpg","38","restless",0.7,0.4,0.3,0.082409091140627,"true"
"image-keyboard-response",129,118994,"0.0-3.39-1.39","x5f0ly05r58apgy",626,"76.csv","","null","resources/maskTrios/BT1B.jpg","null","",NA,NA,NA,NA,""
"image-keyboard-response",130,120200,"0.0-3.39-2.39","x5f0ly05r58apgy",626,"76.csv","","null","resources/images/coin2.png","null","",NA,NA,NA,NA,""
"image-keyboard-response",131,120519,"0.0-3.40-0.40","x5f0ly05r58apgy",626,"76.csv","","316.7999999523163","resources/trios/L2T1A3.jpg","37","restless",0.7,0.4,0.3,0.423811634179559,"true"
"image-keyboard-response",132,120928,"0.0-3.40-1.40","x5f0ly05r58apgy",626,"76.csv","","null","resources/maskTrios/L2BB.jpg","null","",NA,NA,NA,NA,""
"image-keyboard-response",133,122139,"0.0-3.40-2.40","x5f0ly05r58apgy",626,"76.csv","","null","resources/images/coin2.png","null","",NA,NA,NA,NA,""
"image-keyboard-response",134,122439,"0.0-3.41-0.41","x5f0ly05r58apgy",626,"76.csv","","297.7000000476837","resources/trios/L4T1A1.jpg","38","restless",0.7,0.4,0.4,0.178641692751465,"true"
"image-keyboard-response",135,122851,"0.0-3.41-1.41","x5f0ly05r58apgy",626,"76.csv","","null","resources/maskTrios/BT1B.jpg","null","",NA,NA,NA,NA,""
"image-keyboard-response",136,124057,"0.0-3.41-2.41","x5f0ly05r58apgy",626,"76.csv","","null","resources/images/coin2.png","null","",NA,NA,NA,NA,""
"image-keyboard-response",137,124346,"0.0-3.42-0.42","x5f0ly05r58apgy",626,"76.csv","","287.5","resources/trios/L4T1A3.jpg","37","restless",0.7,0.4,0.4,0.822510210298397,"false"
"image-keyboard-response",138,124756,"0.0-3.42-1.42","x5f0ly05r58apgy",626,"76.csv","","null","resources/maskTrios/L4BB.jpg","null","",NA,NA,NA,NA,""
"image-keyboard-response",139,125964,"0.0-3.42-2.42","x5f0ly05r58apgy",626,"76.csv","","null","resources/images/fishbone.png","null","",NA,NA,NA,NA,""
"image-keyboard-response",140,126222,"0.0-3.43-0.43","x5f0ly05r58apgy",626,"76.csv","","255.69999998807907","resources/trios/L2T1A3.jpg","37","restless",0.7,0.4,0.4,0.51522964699562,"true"
"image-keyboard-response",141,126633,"0.0-3.43-1.43","x5f0ly05r58apgy",626,"76.csv","","null","resources/maskTrios/L2BB.jpg","null","",NA,NA,NA,NA,""
"image-keyboard-response",142,127844,"0.0-3.43-2.43","x5f0ly05r58apgy",626,"76.csv","","null","resources/images/coin2.png","null","",NA,NA,NA,NA,""
"image-keyboard-response",143,128097,"0.0-3.44-0.44","x5f0ly05r58apgy",626,"76.csv","","250.29999995231628","resources/trios/L4T1A3.jpg","38","restless",0.7,0.4,0.4,0.620623861959256,"false"
"image-keyboard-response",144,128507,"0.0-3.44-1.44","x5f0ly05r58apgy",626,"76.csv","","null","resources/maskTrios/BT1B.jpg","null","",NA,NA,NA,NA,""
"image-keyboard-response",145,129716,"0.0-3.44-2.44","x5f0ly05r58apgy",626,"76.csv","","null","resources/images/fishbone.png","null","",NA,NA,NA,NA,""
"image-keyboard-response",146,129930,"0.0-3.45-0.45","x5f0ly05r58apgy",626,"76.csv","","212.89999997615814","resources/trios/L2T4A3.jpg","38","restless",0.7,0.4,0.4,0.715783438908983,"false"
"image-keyboard-response",147,130337,"0.0-3.45-1.45","x5f0ly05r58apgy",626,"76.csv","","null","resources/maskTrios/BT4B.jpg","null","",NA,NA,NA,NA,""
"image-keyboard-response",148,131546,"0.0-3.45-2.45","x5f0ly05r58apgy",626,"76.csv","","null","resources/images/fishbone.png","null","",NA,NA,NA,NA,""
"image-keyboard-response",149,131841,"0.0-3.46-0.46","x5f0ly05r58apgy",626,"76.csv","","292.80000001192093","resources/trios/L2T4A3.jpg","38","restless",0.7,0.4,0.4,0.788147438728383,"false"
"image-keyboard-response",150,132248,"0.0-3.46-1.46","x5f0ly05r58apgy",626,"76.csv","","null","resources/maskTrios/BT4B.jpg","null","",NA,NA,NA,NA,""
"image-keyboard-response",151,133460,"0.0-3.46-2.46","x5f0ly05r58apgy",626,"76.csv","","null","resources/images/fishbone.png","null","",NA,NA,NA,NA,""
"image-keyboard-response",152,133735,"0.0-3.47-0.47","x5f0ly05r58apgy",626,"76.csv","","272.19999998807907","resources/trios/L4T1A3.jpg","38","restless",0.7,0.4,0.4,0.694785732435369,"false"
"image-keyboard-response",153,134148,"0.0-3.47-1.47","x5f0ly05r58apgy",626,"76.csv","","null","resources/maskTrios/BT1B.jpg","null","",NA,NA,NA,NA,""
"image-keyboard-response",154,135355,"0.0-3.47-2.47","x5f0ly05r58apgy",626,"76.csv","","null","resources/images/fishbone.png","null","",NA,NA,NA,NA,""
"image-keyboard-response",155,135667,"0.0-3.48-0.48","x5f0ly05r58apgy",626,"76.csv","","310.30000001192093","resources/trios/L4T1A1.jpg","38","restless",0.7,0.4,0.4,0.881228592730618,"false"
"image-keyboard-response",156,136076,"0.0-3.48-1.48","x5f0ly05r58apgy",626,"76.csv","","null","resources/maskTrios/BT1B.jpg","null","",NA,NA,NA,NA,""
"image-keyboard-response",157,137284,"0.0-3.48-2.48","x5f0ly05r58apgy",626,"76.csv","","null","resources/images/fishbone.png","null","",NA,NA,NA,NA,""
"image-keyboard-response",158,137412,"0.0-3.49-0.49","x5f0ly05r58apgy",626,"76.csv","","125.89999997615814","resources/trios/L4T1A1.jpg","38","restless",0.7,0.5,0.4,0.415990934935383,"true"
"image-keyboard-response",159,137815,"0.0-3.49-1.49","x5f0ly05r58apgy",626,"76.csv","","null","resources/maskTrios/BT1B.jpg","null","",NA,NA,NA,NA,""
"image-keyboard-response",160,139026,"0.0-3.49-2.49","x5f0ly05r58apgy",626,"76.csv","","null","resources/images/coin2.png","null","",NA,NA,NA,NA,""
"image-keyboard-response",161,139248,"0.0-3.50-0.50","x5f0ly05r58apgy",626,"76.csv","","219.69999998807907","resources/trios/L4T1A1.jpg","37","restless",0.7,0.4,0.4,0.989750973919188,"false"
"image-keyboard-response",162,139660,"0.0-3.50-1.50","x5f0ly05r58apgy",626,"76.csv","","null","resources/maskTrios/L4BB.jpg","null","",NA,NA,NA,NA,""
"image-keyboard-response",163,140868,"0.0-3.50-2.50","x5f0ly05r58apgy",626,"76.csv","","null","resources/images/fishbone.png","null","",NA,NA,NA,NA,""
"image-keyboard-response",164,141145,"0.0-3.51-0.51","x5f0ly05r58apgy",626,"76.csv","","275.5999999642372","resources/trios/L4T1A3.jpg","38","restless",0.7,0.4,0.4,0.496615857866554,"false"
"image-keyboard-response",165,141555,"0.0-3.51-1.51","x5f0ly05r58apgy",626,"76.csv","","null","resources/maskTrios/BT1B.jpg","null","",NA,NA,NA,NA,""
"image-keyboard-response",166,142760,"0.0-3.51-2.51","x5f0ly05r58apgy",626,"76.csv","","null","resources/images/fishbone.png","null","",NA,NA,NA,NA,""
"image-keyboard-response",167,142978,"0.0-3.52-0.52","x5f0ly05r58apgy",626,"76.csv","","216.19999998807907","resources/trios/L2T1A3.jpg","37","restless",0.7,0.4,0.4,0.573137484340113,"true"
"image-keyboard-response",168,143386,"0.0-3.52-1.52","x5f0ly05r58apgy",626,"76.csv","","null","resources/maskTrios/L2BB.jpg","null","",NA,NA,NA,NA,""
"image-keyboard-response",169,144592,"0.0-3.52-2.52","x5f0ly05r58apgy",626,"76.csv","","null","resources/images/coin2.png","null","",NA,NA,NA,NA,""
"image-keyboard-response",170,144765,"0.0-3.53-0.53","x5f0ly05r58apgy",626,"76.csv","","171.4000000357628","resources/trios/L2T1A3.jpg","38","restless",0.7,0.4,0.4,0.979360657034394,"false"
"image-keyboard-response",171,145175,"0.0-3.53-1.53","x5f0ly05r58apgy",626,"76.csv","","null","resources/maskTrios/BT1B.jpg","null","",NA,NA,NA,NA,""
"image-keyboard-response",172,146385,"0.0-3.53-2.53","x5f0ly05r58apgy",626,"76.csv","","null","resources/images/fishbone.png","null","",NA,NA,NA,NA,""
"image-keyboard-response",173,146892,"0.0-3.54-0.54","x5f0ly05r58apgy",626,"76.csv","","505.0999999642372","resources/trios/L2T1A3.jpg","38","restless",0.7,0.4,0.4,0.246554741324422,"true"
"image-keyboard-response",174,147300,"0.0-3.54-1.54","x5f0ly05r58apgy",626,"76.csv","","null","resources/maskTrios/BT1B.jpg","null","",NA,NA,NA,NA,""
"image-keyboard-response",175,148507,"0.0-3.54-2.54","x5f0ly05r58apgy",626,"76.csv","","null","resources/images/coin2.png","null","",NA,NA,NA,NA,""
"image-keyboard-response",176,148741,"0.0-3.55-0.55","x5f0ly05r58apgy",626,"76.csv","","232.19999998807907","resources/trios/L4T4A1.jpg","37","restless",0.7,0.4,0.4,0.466382916187127,"true"
"image-keyboard-response",177,149155,"0.0-3.55-1.55","x5f0ly05r58apgy",626,"76.csv","","null","resources/maskTrios/L4BB.jpg","null","",NA,NA,NA,NA,""
"image-keyboard-response",178,150360,"0.0-3.55-2.55","x5f0ly05r58apgy",626,"76.csv","","null","resources/images/coin2.png","null","",NA,NA,NA,NA,""
"image-keyboard-response",179,150739,"0.0-3.56-0.56","x5f0ly05r58apgy",626,"76.csv","","377.19999998807907","resources/trios/L2T4A1.jpg","38","restless",0.7,0.4,0.4,0.130476823155592,"true"
"image-keyboard-response",180,151148,"0.0-3.56-1.56","x5f0ly05r58apgy",626,"76.csv","","null","resources/maskTrios/BT4B.jpg","null","",NA,NA,NA,NA,""
"image-keyboard-response",181,152354,"0.0-3.56-2.56","x5f0ly05r58apgy",626,"76.csv","","null","resources/images/coin2.png","null","",NA,NA,NA,NA,""
"image-keyboard-response",182,152701,"0.0-3.57-0.57","x5f0ly05r58apgy",626,"76.csv","","345.89999997615814","resources/trios/L2T4A3.jpg","37","restless",0.7,0.4,0.4,0.123228872052725,"true"
"image-keyboard-response",183,153116,"0.0-3.57-1.57","x5f0ly05r58apgy",626,"76.csv","","null","resources/maskTrios/L2BB.jpg","null","",NA,NA,NA,NA,""
"image-keyboard-response",184,154324,"0.0-3.57-2.57","x5f0ly05r58apgy",626,"76.csv","","null","resources/images/coin2.png","null","",NA,NA,NA,NA,""
"image-keyboard-response",185,154366,"0.0-3.58-0.58","x5f0ly05r58apgy",626,"76.csv","","39.40000003576279","resources/trios/L4T4A1.jpg","38","restless",0.7,0.4,0.4,0.713201828395613,"false"
"image-keyboard-response",186,154780,"0.0-3.58-1.58","x5f0ly05r58apgy",626,"76.csv","","null","resources/maskTrios/BT4B.jpg","null","",NA,NA,NA,NA,""
"image-keyboard-response",187,155984,"0.0-3.58-2.58","x5f0ly05r58apgy",626,"76.csv","","null","resources/images/fishbone.png","null","",NA,NA,NA,NA,""
"image-keyboard-response",188,156355,"0.0-3.59-0.59","x5f0ly05r58apgy",626,"76.csv","","368.69999998807907","resources/trios/L4T4A1.jpg","37","restless",0.6,0.4,0.4,0.308375808292513,"true"
"image-keyboard-response",189,156764,"0.0-3.59-1.59","x5f0ly05r58apgy",626,"76.csv","","null","resources/maskTrios/L4BB.jpg","null","",NA,NA,NA,NA,""
"image-keyboard-response",190,157972,"0.0-3.59-2.59","x5f0ly05r58apgy",626,"76.csv","","null","resources/images/coin2.png","null","",NA,NA,NA,NA,""
"image-keyboard-response",191,158263,"0.0-3.60-0.60","x5f0ly05r58apgy",626,"76.csv","","290","resources/trios/L2T1A3.jpg","38","restless",0.6,0.4,0.4,0.299085235817584,"true"
"image-keyboard-response",192,158676,"0.0-3.60-1.60","x5f0ly05r58apgy",626,"76.csv","","null","resources/maskTrios/BT1B.jpg","null","",NA,NA,NA,NA,""
"image-keyboard-response",193,159884,"0.0-3.60-2.60","x5f0ly05r58apgy",626,"76.csv","","null","resources/images/coin2.png","null","",NA,NA,NA,NA,""
"image-keyboard-response",194,159925,"0.0-3.61-0.61","x5f0ly05r58apgy",626,"76.csv","","39.19999998807907","resources/trios/L4T4A3.jpg","37","restless",0.6,0.4,0.4,0.926035135917095,"false"
"image-keyboard-response",195,160330,"0.0-3.61-1.61","x5f0ly05r58apgy",626,"76.csv","","null","resources/maskTrios/L4BB.jpg","null","",NA,NA,NA,NA,""
"image-keyboard-response",196,161539,"0.0-3.61-2.61","x5f0ly05r58apgy",626,"76.csv","","null","resources/images/fishbone.png","null","",NA,NA,NA,NA,""
"image-keyboard-response",197,161746,"0.0-3.62-0.62","x5f0ly05r58apgy",626,"76.csv","","205.30000001192093","resources/trios/L4T4A1.jpg","38","restless",0.6,0.4,0.3,0.869075781678012,"false"
"image-keyboard-response",198,162154,"0.0-3.62-1.62","x5f0ly05r58apgy",626,"76.csv","","null","resources/maskTrios/BT4B.jpg","null","",NA,NA,NA,NA,""
"image-keyboard-response",199,163363,"0.0-3.62-2.62","x5f0ly05r58apgy",626,"76.csv","","null","resources/images/fishbone.png","null","",NA,NA,NA,NA,""
"image-keyboard-response",200,163803,"0.0-3.63-0.63","x5f0ly05r58apgy",626,"76.csv","","438.0999999642372","resources/trios/L4T4A1.jpg","37","restless",0.5,0.4,0.3,0.957915548292981,"false"
"image-keyboard-response",201,164208,"0.0-3.63-1.63","x5f0ly05r58apgy",626,"76.csv","","null","resources/maskTrios/L4BB.jpg","null","",NA,NA,NA,NA,""
"image-keyboard-response",202,165416,"0.0-3.63-2.63","x5f0ly05r58apgy",626,"76.csv","","null","resources/images/fishbone.png","null","",NA,NA,NA,NA,""
"image-keyboard-response",203,165885,"0.0-3.64-0.64","x5f0ly05r58apgy",626,"76.csv","","467.10000002384186","resources/trios/L4T1A1.jpg","37","restless",0.5,0.4,0.3,0.575574050929628,"false"
"image-keyboard-response",204,166292,"0.0-3.64-1.64","x5f0ly05r58apgy",626,"76.csv","","null","resources/maskTrios/L4BB.jpg","null","",NA,NA,NA,NA,""
"image-keyboard-response",205,167496,"0.0-3.64-2.64","x5f0ly05r58apgy",626,"76.csv","","null","resources/images/fishbone.png","null","",NA,NA,NA,NA,""
"image-keyboard-response",206,168020,"0.0-3.65-0.65","x5f0ly05r58apgy",626,"76.csv","","522.6999999880791","resources/trios/L2T1A1.jpg","38","restless",0.6,0.4,0.3,0.604170315067553,"false"
"image-keyboard-response",207,168428,"0.0-3.65-1.65","x5f0ly05r58apgy",626,"76.csv","","null","resources/maskTrios/BT1B.jpg","null","",NA,NA,NA,NA,""
"image-keyboard-response",208,169633,"0.0-3.65-2.65","x5f0ly05r58apgy",626,"76.csv","","null","resources/images/fishbone.png","null","",NA,NA,NA,NA,""
"image-keyboard-response",209,169660,"0.0-3.66-0.66","x5f0ly05r58apgy",626,"76.csv","","25.200000047683716","resources/trios/L2T4A3.jpg","38","restless",0.6,0.4,0.3,0.643896784265668,"false"
"image-keyboard-response",210,170064,"0.0-3.66-1.66","x5f0ly05r58apgy",626,"76.csv","","null","resources/maskTrios/BT4B.jpg","null","",NA,NA,NA,NA,""
"image-keyboard-response",211,171272,"0.0-3.66-2.66","x5f0ly05r58apgy",626,"76.csv","","null","resources/images/fishbone.png","null","",NA,NA,NA,NA,""
"image-keyboard-response",212,171663,"0.0-3.67-0.67","x5f0ly05r58apgy",626,"76.csv","","389.5","resources/trios/L2T4A1.jpg","38","restless",0.6,0.4,0.3,0.859483101089959,"false"
"image-keyboard-response",213,172074,"0.0-3.67-1.67","x5f0ly05r58apgy",626,"76.csv","","null","resources/maskTrios/BT4B.jpg","null","",NA,NA,NA,NA,""
"image-keyboard-response",214,173284,"0.0-3.67-2.67","x5f0ly05r58apgy",626,"76.csv","","null","resources/images/fishbone.png","null","",NA,NA,NA,NA,""
"image-keyboard-response",215,173715,"0.0-3.68-0.68","x5f0ly05r58apgy",626,"76.csv","","428.60000002384186","resources/trios/L2T1A1.jpg","37","restless",0.6,0.4,0.3,0.0963647594923602,"true"
"image-keyboard-response",216,174124,"0.0-3.68-1.68","x5f0ly05r58apgy",626,"76.csv","","null","resources/maskTrios/L2BB.jpg","null","",NA,NA,NA,NA,""
"image-keyboard-response",217,175332,"0.0-3.68-2.68","x5f0ly05r58apgy",626,"76.csv","","null","resources/images/coin2.png","null","",NA,NA,NA,NA,""
"image-keyboard-response",218,175700,"0.0-3.69-0.69","x5f0ly05r58apgy",626,"76.csv","","366","resources/trios/L2T4A3.jpg","38","restless",0.6,0.4,0.3,0.0438655042559095,"true"
"image-keyboard-response",219,176108,"0.0-3.69-1.69","x5f0ly05r58apgy",626,"76.csv","","null","resources/maskTrios/BT4B.jpg","null","",NA,NA,NA,NA,""
"image-keyboard-response",220,177316,"0.0-3.69-2.69","x5f0ly05r58apgy",626,"76.csv","","null","resources/images/coin2.png","null","",NA,NA,NA,NA,""
"image-keyboard-response",221,177679,"0.0-3.70-0.70","x5f0ly05r58apgy",626,"76.csv","","360.69999998807907","resources/trios/L4T1A3.jpg","37","restless",0.5,0.4,0.3,0.562784171042617,"false"
"image-keyboard-response",222,178084,"0.0-3.70-1.70","x5f0ly05r58apgy",626,"76.csv","","null","resources/maskTrios/L4BB.jpg","null","",NA,NA,NA,NA,""
"image-keyboard-response",223,179291,"0.0-3.70-2.70","x5f0ly05r58apgy",626,"76.csv","","null","resources/images/fishbone.png","null","",NA,NA,NA,NA,""
"image-keyboard-response",224,179703,"0.0-3.71-0.71","x5f0ly05r58apgy",626,"76.csv","","409.5","resources/trios/L4T4A3.jpg","37","restless",0.5,0.4,0.3,0.503819348096524,"false"
"image-keyboard-response",225,180116,"0.0-3.71-1.71","x5f0ly05r58apgy",626,"76.csv","","null","resources/maskTrios/L4BB.jpg","null","",NA,NA,NA,NA,""
"image-keyboard-response",226,181320,"0.0-3.71-2.71","x5f0ly05r58apgy",626,"76.csv","","null","resources/images/fishbone.png","null","",NA,NA,NA,NA,""
"image-keyboard-response",227,181721,"0.0-3.72-0.72","x5f0ly05r58apgy",626,"76.csv","","398.39999997615814","resources/trios/L4T4A3.jpg","37","restless",0.5,0.4,0.3,0.77680627301803,"false"
"image-keyboard-response",228,182128,"0.0-3.72-1.72","x5f0ly05r58apgy",626,"76.csv","","null","resources/maskTrios/L4BB.jpg","null","",NA,NA,NA,NA,""
"image-keyboard-response",229,183333,"0.0-3.72-2.72","x5f0ly05r58apgy",626,"76.csv","","null","resources/images/fishbone.png","null","",NA,NA,NA,NA,""
"image-keyboard-response",230,183705,"0.0-3.73-0.73","x5f0ly05r58apgy",626,"76.csv","","368.5","resources/trios/L2T1A1.jpg","38","restless",0.5,0.4,0.3,0.242247467883216,"true"
"image-keyboard-response",231,184115,"0.0-3.73-1.73","x5f0ly05r58apgy",626,"76.csv","","null","resources/maskTrios/BT1B.jpg","null","",NA,NA,NA,NA,""
"image-keyboard-response",232,185324,"0.0-3.73-2.73","x5f0ly05r58apgy",626,"76.csv","","null","resources/images/coin2.png","null","",NA,NA,NA,NA,""
"image-keyboard-response",233,185731,"0.0-3.74-0.74","x5f0ly05r58apgy",626,"76.csv","","404.60000002384186","resources/trios/L4T1A1.jpg","38","restless",0.5,0.4,0.4,0.429296748727422,"false"
"image-keyboard-response",234,186139,"0.0-3.74-1.74","x5f0ly05r58apgy",626,"76.csv","","null","resources/maskTrios/BT1B.jpg","null","",NA,NA,NA,NA,""
"image-keyboard-response",235,187344,"0.0-3.74-2.74","x5f0ly05r58apgy",626,"76.csv","","null","resources/images/fishbone.png","null","",NA,NA,NA,NA,""
"image-keyboard-response",236,187774,"0.0-3.75-0.75","x5f0ly05r58apgy",626,"76.csv","","428.4000000357628","resources/trios/L4T4A3.jpg","38","restless",0.5,0.4,0.4,0.426059135004978,"false"
"image-keyboard-response",237,188184,"0.0-3.75-1.75","x5f0ly05r58apgy",626,"76.csv","","null","resources/maskTrios/BT4B.jpg","null","",NA,NA,NA,NA,""
"image-keyboard-response",238,189395,"0.0-3.75-2.75","x5f0ly05r58apgy",626,"76.csv","","null","resources/images/fishbone.png","null","",NA,NA,NA,NA,""
"image-keyboard-response",239,189744,"0.0-3.76-0.76","x5f0ly05r58apgy",626,"76.csv","","347.80000001192093","resources/trios/L2T4A1.jpg","38","restless",0.5,0.4,0.4,0.692346860459516,"false"
"image-keyboard-response",240,190154,"0.0-3.76-1.76","x5f0ly05r58apgy",626,"76.csv","","null","resources/maskTrios/BT4B.jpg","null","",NA,NA,NA,NA,""
"image-keyboard-response",241,191364,"0.0-3.76-2.76","x5f0ly05r58apgy",626,"76.csv","","null","resources/images/fishbone.png","null","",NA,NA,NA,NA,""
"image-keyboard-response",242,191782,"0.0-3.77-0.77","x5f0ly05r58apgy",626,"76.csv","","416.39999997615814","resources/trios/L4T1A1.jpg","37","restless",0.5,0.4,0.4,0.796736372198596,"false"
"image-keyboard-response",243,192195,"0.0-3.77-1.77","x5f0ly05r58apgy",626,"76.csv","","null","resources/maskTrios/L4BB.jpg","null","",NA,NA,NA,NA,""
"image-keyboard-response",244,193400,"0.0-3.77-2.77","x5f0ly05r58apgy",626,"76.csv","","null","resources/images/fishbone.png","null","",NA,NA,NA,NA,""
"image-keyboard-response",245,193823,"0.0-3.78-0.78","x5f0ly05r58apgy",626,"76.csv","","420.7999999523163","resources/trios/L4T4A1.jpg","38","restless",0.5,0.4,0.4,0.940676939130591,"false"
"image-keyboard-response",246,194235,"0.0-3.78-1.78","x5f0ly05r58apgy",626,"76.csv","","null","resources/maskTrios/BT4B.jpg","null","",NA,NA,NA,NA,""
"image-keyboard-response",247,195440,"0.0-3.78-2.78","x5f0ly05r58apgy",626,"76.csv","","null","resources/images/fishbone.png","null","",NA,NA,NA,NA,""
"image-keyboard-response",248,195802,"0.0-3.79-0.79","x5f0ly05r58apgy",626,"76.csv","","359.69999998807907","resources/trios/L2T1A3.jpg","38","restless",0.6,0.4,0.5,0.892516473528129,"false"
"image-keyboard-response",249,196209,"0.0-3.79-1.79","x5f0ly05r58apgy",626,"76.csv","","null","resources/maskTrios/BT1B.jpg","null","",NA,NA,NA,NA,""
"image-keyboard-response",250,197416,"0.0-3.79-2.79","x5f0ly05r58apgy",626,"76.csv","","null","resources/images/fishbone.png","null","",NA,NA,NA,NA,""
"image-keyboard-response",251,197630,"0.0-3.80-0.80","x5f0ly05r58apgy",626,"76.csv","","212.29999995231628","resources/trios/L4T1A3.jpg","38","restless",0.6,0.4,0.5,0.958678276196732,"false"
"image-keyboard-response",252,198040,"0.0-3.80-1.80","x5f0ly05r58apgy",626,"76.csv","","null","resources/maskTrios/BT1B.jpg","null","",NA,NA,NA,NA,""
"image-keyboard-response",253,199243,"0.0-3.80-2.80","x5f0ly05r58apgy",626,"76.csv","","null","resources/images/fishbone.png","null","",NA,NA,NA,NA,""
"image-keyboard-response",254,200322,"0.0-3.81-0.81","x5f0ly05r58apgy",626,"76.csv","","1077.699999988079","resources/trios/L2T1A1.jpg","38","restless",0.6,0.4,0.5,0.0197124568239373,"true"
"image-keyboard-response",255,200728,"0.0-3.81-1.81","x5f0ly05r58apgy",626,"76.csv","","null","resources/maskTrios/BT1B.jpg","null","",NA,NA,NA,NA,""
"image-keyboard-response",256,201938,"0.0-3.81-2.81","x5f0ly05r58apgy",626,"76.csv","","null","resources/images/coin2.png","null","",NA,NA,NA,NA,""
"image-keyboard-response",257,202103,"0.0-3.82-0.82","x5f0ly05r58apgy",626,"76.csv","","164","resources/trios/L4T1A3.jpg","38","restless",0.7,0.4,0.5,0.791616978218053,"false"
"image-keyboard-response",258,202512,"0.0-3.82-1.82","x5f0ly05r58apgy",626,"76.csv","","null","resources/maskTrios/BT1B.jpg","null","",NA,NA,NA,NA,""
"image-keyboard-response",259,203722,"0.0-3.82-2.82","x5f0ly05r58apgy",626,"76.csv","","null","resources/images/fishbone.png","null","",NA,NA,NA,NA,""
"image-keyboard-response",260,203773,"0.0-3.83-0.83","x5f0ly05r58apgy",626,"76.csv","","49","resources/trios/L4T4A1.jpg","38","restless",0.7,0.4,0.5,0.304187862713273,"true"
"image-keyboard-response",261,204185,"0.0-3.83-1.83","x5f0ly05r58apgy",626,"76.csv","","null","resources/maskTrios/BT4B.jpg","null","",NA,NA,NA,NA,""
"image-keyboard-response",262,205392,"0.0-3.83-2.83","x5f0ly05r58apgy",626,"76.csv","","null","resources/images/coin2.png","null","",NA,NA,NA,NA,""
"image-keyboard-response",263,205612,"0.0-3.84-0.84","x5f0ly05r58apgy",626,"76.csv","","217.19999998807907","resources/trios/L4T1A1.jpg","37","restless",0.7,0.4,0.5,0.299067619249015,"true"
"image-keyboard-response",264,206017,"0.0-3.84-1.84","x5f0ly05r58apgy",626,"76.csv","","null","resources/maskTrios/L4BB.jpg","null","",NA,NA,NA,NA,""
"image-keyboard-response",265,207227,"0.0-3.84-2.84","x5f0ly05r58apgy",626,"76.csv","","null","resources/images/coin2.png","null","",NA,NA,NA,NA,""
"image-keyboard-response",266,207680,"0.0-3.85-0.85","x5f0ly05r58apgy",626,"76.csv","","451.10000002384186","resources/trios/L2T1A1.jpg","37","restless",0.7,0.4,0.5,0.24992436851045,"true"
"image-keyboard-response",267,208091,"0.0-3.85-1.85","x5f0ly05r58apgy",626,"76.csv","","null","resources/maskTrios/L2BB.jpg","null","",NA,NA,NA,NA,""
"image-keyboard-response",268,209295,"0.0-3.85-2.85","x5f0ly05r58apgy",626,"76.csv","","null","resources/images/coin2.png","null","",NA,NA,NA,NA,""
"image-keyboard-response",269,209689,"0.0-3.86-0.86","x5f0ly05r58apgy",626,"76.csv","","391.60000002384186","resources/trios/L4T1A3.jpg","38","restless",0.7,0.4,0.5,0.0262278852760769,"true"
"image-keyboard-response",270,210096,"0.0-3.86-1.86","x5f0ly05r58apgy",626,"76.csv","","null","resources/maskTrios/BT1B.jpg","null","",NA,NA,NA,NA,""
"image-keyboard-response",271,211304,"0.0-3.86-2.86","x5f0ly05r58apgy",626,"76.csv","","null","resources/images/coin2.png","null","",NA,NA,NA,NA,""
"image-keyboard-response",272,211678,"0.0-3.87-0.87","x5f0ly05r58apgy",626,"76.csv","","371.39999997615814","resources/trios/L4T1A1.jpg","37","restless",0.7,0.4,0.5,0.57164262259326,"true"
"image-keyboard-response",273,212090,"0.0-3.87-1.87","x5f0ly05r58apgy",626,"76.csv","","null","resources/maskTrios/L4BB.jpg","null","",NA,NA,NA,NA,""
"image-keyboard-response",274,213296,"0.0-3.87-2.87","x5f0ly05r58apgy",626,"76.csv","","null","resources/images/coin2.png","null","",NA,NA,NA,NA,""
"image-keyboard-response",275,213430,"0.0-3.88-0.88","x5f0ly05r58apgy",626,"76.csv","","131.79999995231628","resources/trios/L4T1A3.jpg","38","restless",0.7,0.4,0.5,0.18535637738272,"true"
"image-keyboard-response",276,213844,"0.0-3.88-1.88","x5f0ly05r58apgy",626,"76.csv","","null","resources/maskTrios/BT1B.jpg","null","",NA,NA,NA,NA,""
"image-keyboard-response",277,215050,"0.0-3.88-2.88","x5f0ly05r58apgy",626,"76.csv","","null","resources/images/coin2.png","null","",NA,NA,NA,NA,""
"image-keyboard-response",278,215364,"0.0-3.89-0.89","x5f0ly05r58apgy",626,"76.csv","","311.80000001192093","resources/trios/L4T1A1.jpg","37","restless",0.7,0.4,0.5,0.911451659680705,"false"
"image-keyboard-response",279,215772,"0.0-3.89-1.89","x5f0ly05r58apgy",626,"76.csv","","null","resources/maskTrios/L4BB.jpg","null","",NA,NA,NA,NA,""
"image-keyboard-response",280,216979,"0.0-3.89-2.89","x5f0ly05r58apgy",626,"76.csv","","null","resources/images/fishbone.png","null","",NA,NA,NA,NA,""
"image-keyboard-response",281,216986,"0.0-3.90-0.90","x5f0ly05r58apgy",626,"76.csv","","5.5","resources/trios/L2T4A1.jpg","37","restless",0.7,0.4,0.5,0.126473117976017,"true"
"image-keyboard-response",282,217396,"0.0-3.90-1.90","x5f0ly05r58apgy",626,"76.csv","","null","resources/maskTrios/L2BB.jpg","null","",NA,NA,NA,NA,""
"image-keyboard-response",283,218600,"0.0-3.90-2.90","x5f0ly05r58apgy",626,"76.csv","","null","resources/images/coin2.png","null","",NA,NA,NA,NA,""
"image-keyboard-response",284,218795,"0.0-3.91-0.91","x5f0ly05r58apgy",626,"76.csv","","192.19999998807907","resources/trios/L4T1A1.jpg","37","restless",0.7,0.4,0.5,0.540627819804449,"true"
"image-keyboard-response",285,219202,"0.0-3.91-1.91","x5f0ly05r58apgy",626,"76.csv","","null","resources/maskTrios/L4BB.jpg","null","",NA,NA,NA,NA,""
"image-keyboard-response",286,220409,"0.0-3.91-2.91","x5f0ly05r58apgy",626,"76.csv","","null","resources/images/coin2.png","null","",NA,NA,NA,NA,""
"image-keyboard-response",287,220663,"0.0-3.92-0.92","x5f0ly05r58apgy",626,"76.csv","","252.5999999642372","resources/trios/L2T1A3.jpg","38","restless",0.7,0.4,0.5,0.872900672614684,"false"
"image-keyboard-response",288,221076,"0.0-3.92-1.92","x5f0ly05r58apgy",626,"76.csv","","null","resources/maskTrios/BT1B.jpg","null","",NA,NA,NA,NA,""
"image-keyboard-response",289,222280,"0.0-3.92-2.92","x5f0ly05r58apgy",626,"76.csv","","null","resources/images/fishbone.png","null","",NA,NA,NA,NA,""
"image-keyboard-response",290,222639,"0.0-3.93-0.93","x5f0ly05r58apgy",626,"76.csv","","357.0999999642372","resources/trios/L2T4A1.jpg","38","restless",0.7,0.4,0.5,0.0372865761337953,"true"
"image-keyboard-response",291,223050,"0.0-3.93-1.93","x5f0ly05r58apgy",626,"76.csv","","null","resources/maskTrios/BT4B.jpg","null","",NA,NA,NA,NA,""
"image-keyboard-response",292,224257,"0.0-3.93-2.93","x5f0ly05r58apgy",626,"76.csv","","null","resources/images/coin2.png","null","",NA,NA,NA,NA,""
"image-keyboard-response",293,224609,"0.0-3.94-0.94","x5f0ly05r58apgy",626,"76.csv","","349.89999997615814","resources/trios/L4T1A3.jpg","38","restless",0.7,0.5,0.5,0.52361081144197,"false"
"image-keyboard-response",294,225017,"0.0-3.94-1.94","x5f0ly05r58apgy",626,"76.csv","","null","resources/maskTrios/BT1B.jpg","null","",NA,NA,NA,NA,""
"image-keyboard-response",295,226224,"0.0-3.94-2.94","x5f0ly05r58apgy",626,"76.csv","","null","resources/images/fishbone.png","null","",NA,NA,NA,NA,""
"image-keyboard-response",296,226525,"0.0-3.95-0.95","x5f0ly05r58apgy",626,"76.csv","","299.19999998807907","resources/trios/L4T1A1.jpg","38","restless",0.7,0.5,0.5,0.34318347479483,"true"
"image-keyboard-response",297,226932,"0.0-3.95-1.95","x5f0ly05r58apgy",626,"76.csv","","null","resources/maskTrios/BT1B.jpg","null","",NA,NA,NA,NA,""
"image-keyboard-response",298,228138,"0.0-3.95-2.95","x5f0ly05r58apgy",626,"76.csv","","null","resources/images/coin2.png","null","",NA,NA,NA,NA,""
"image-keyboard-response",299,228480,"0.0-3.96-0.96","x5f0ly05r58apgy",626,"76.csv","","340","resources/trios/L2T4A1.jpg","38","restless",0.7,0.5,0.5,0.804044027871569,"false"
"image-keyboard-response",300,228892,"0.0-3.96-1.96","x5f0ly05r58apgy",626,"76.csv","","null","resources/maskTrios/BT4B.jpg","null","",NA,NA,NA,NA,""
"image-keyboard-response",301,230098,"0.0-3.96-2.96","x5f0ly05r58apgy",626,"76.csv","","null","resources/images/fishbone.png","null","",NA,NA,NA,NA,""
"image-keyboard-response",302,230338,"0.0-3.97-0.97","x5f0ly05r58apgy",626,"76.csv","","237.30000001192093","resources/trios/L2T1A3.jpg","38","restless",0.7,0.5,0.5,0.897692552986193,"false"
"image-keyboard-response",303,230748,"0.0-3.97-1.97","x5f0ly05r58apgy",626,"76.csv","","null","resources/maskTrios/BT1B.jpg","null","",NA,NA,NA,NA,""
"image-keyboard-response",304,231954,"0.0-3.97-2.97","x5f0ly05r58apgy",626,"76.csv","","null","resources/images/fishbone.png","null","",NA,NA,NA,NA,""
"image-keyboard-response",305,234335,"0.0-3.98-0.98","x5f0ly05r58apgy",626,"76.csv","","2378.699999988079","resources/trios/L4T4A1.jpg","38","restless",0.7,0.5,0.5,0.761138811206662,"false"
"image-keyboard-response",306,234745,"0.0-3.98-1.98","x5f0ly05r58apgy",626,"76.csv","","null","resources/maskTrios/BT4B.jpg","null","",NA,NA,NA,NA,""
"image-keyboard-response",307,235954,"0.0-3.98-2.98","x5f0ly05r58apgy",626,"76.csv","","null","resources/images/fishbone.png","null","",NA,NA,NA,NA,""
"image-keyboard-response",308,236266,"0.0-3.99-0.99","x5f0ly05r58apgy",626,"76.csv","","309.19999998807907","resources/trios/L2T4A3.jpg","38","restless",0.7,0.5,0.5,0.962438897225754,"false"
"image-keyboard-response",309,236675,"0.0-3.99-1.99","x5f0ly05r58apgy",626,"76.csv","","null","resources/maskTrios/BT4B.jpg","null","",NA,NA,NA,NA,""
"image-keyboard-response",310,237881,"0.0-3.99-2.99","x5f0ly05r58apgy",626,"76.csv","","null","resources/images/fishbone.png","null","",NA,NA,NA,NA,""
"image-keyboard-response",311,239272,"0.0-3.100-0.100","x5f0ly05r58apgy",626,"76.csv","","1389","resources/trios/L2T4A1.jpg","38","restless",0.7,0.5,0.5,0.459087269698331,"true"
"image-keyboard-response",312,239684,"0.0-3.100-1.100","x5f0ly05r58apgy",626,"76.csv","","null","resources/maskTrios/BT4B.jpg","null","",NA,NA,NA,NA,""
"image-keyboard-response",313,240890,"0.0-3.100-2.100","x5f0ly05r58apgy",626,"76.csv","","null","resources/images/coin2.png","null","",NA,NA,NA,NA,""
"image-keyboard-response",314,241650,"0.0-3.101-0.101","x5f0ly05r58apgy",626,"76.csv","","759.6999999880791","resources/trios/L2T1A1.jpg","38","restless",0.7,0.5,0.5,0.0838293565031414,"true"
"image-keyboard-response",315,242057,"0.0-3.101-1.101","x5f0ly05r58apgy",626,"76.csv","","null","resources/maskTrios/BT1B.jpg","null","",NA,NA,NA,NA,""
"image-keyboard-response",316,243264,"0.0-3.101-2.101","x5f0ly05r58apgy",626,"76.csv","","null","resources/images/coin2.png","null","",NA,NA,NA,NA,""
"image-keyboard-response",317,245453,"0.0-3.102-0.102","x5f0ly05r58apgy",626,"76.csv","","2188.5","resources/trios/L2T4A1.jpg","37","restless",0.7,0.5,0.5,0.116683919606846,"true"
"image-keyboard-response",318,245868,"0.0-3.102-1.102","x5f0ly05r58apgy",626,"76.csv","","null","resources/maskTrios/L2BB.jpg","null","",NA,NA,NA,NA,""
"image-keyboard-response",319,247071,"0.0-3.102-2.102","x5f0ly05r58apgy",626,"76.csv","","null","resources/images/coin2.png","null","",NA,NA,NA,NA,""
"image-keyboard-response",320,247076,"0.0-3.103-0.103","x5f0ly05r58apgy",626,"76.csv","","3.800000011920929","resources/trios/L2T1A1.jpg","38","restless",0.6,0.5,0.4,0.813897038634504,"false"
"image-keyboard-response",321,247478,"0.0-3.103-1.103","x5f0ly05r58apgy",626,"76.csv","","null","resources/maskTrios/BT1B.jpg","null","",NA,NA,NA,NA,""
"image-keyboard-response",322,248692,"0.0-3.103-2.103","x5f0ly05r58apgy",626,"76.csv","","null","resources/images/fishbone.png","null","",NA,NA,NA,NA,""
"image-keyboard-response",323,249389,"0.0-3.104-0.104","x5f0ly05r58apgy",626,"76.csv","","693.5","resources/trios/L4T1A3.jpg","37","restless",0.6,0.5,0.4,0.0141215940877859,"true"
"image-keyboard-response",324,249801,"0.0-3.104-1.104","x5f0ly05r58apgy",626,"76.csv","","null","resources/maskTrios/L4BB.jpg","null","",NA,NA,NA,NA,""
"image-keyboard-response",325,251010,"0.0-3.104-2.104","x5f0ly05r58apgy",626,"76.csv","","null","resources/images/coin2.png","null","",NA,NA,NA,NA,""
"image-keyboard-response",326,251165,"0.0-3.105-0.105","x5f0ly05r58apgy",626,"76.csv","","152.30000001192093","resources/trios/L4T1A1.jpg","37","restless",0.6,0.5,0.4,0.117081806586853,"true"
"image-keyboard-response",327,251579,"0.0-3.105-1.105","x5f0ly05r58apgy",626,"76.csv","","null","resources/maskTrios/L4BB.jpg","null","",NA,NA,NA,NA,""
"image-keyboard-response",328,252788,"0.0-3.105-2.105","x5f0ly05r58apgy",626,"76.csv","","null","resources/images/coin2.png","null","",NA,NA,NA,NA,""
"image-keyboard-response",329,252851,"0.0-3.106-0.106","x5f0ly05r58apgy",626,"76.csv","","62.30000001192093","resources/trios/L2T1A3.jpg","37","restless",0.5,0.5,0.4,0.963719874539928,"false"
"image-keyboard-response",330,253257,"0.0-3.106-1.106","x5f0ly05r58apgy",626,"76.csv","","null","resources/maskTrios/L2BB.jpg","null","",NA,NA,NA,NA,""
"image-keyboard-response",331,254466,"0.0-3.106-2.106","x5f0ly05r58apgy",626,"76.csv","","null","resources/images/fishbone.png","null","",NA,NA,NA,NA,""
"image-keyboard-response",332,256106,"0.0-3.107-0.107","x5f0ly05r58apgy",626,"76.csv","","1638","resources/trios/L4T4A1.jpg","38","restless",0.5,0.5,0.4,0.615217602190455,"false"
"image-keyboard-response",333,256512,"0.0-3.107-1.107","x5f0ly05r58apgy",626,"76.csv","","null","resources/maskTrios/BT4B.jpg","null","",NA,NA,NA,NA,""
"image-keyboard-response",334,257719,"0.0-3.107-2.107","x5f0ly05r58apgy",626,"76.csv","","null","resources/images/fishbone.png","null","",NA,NA,NA,NA,""
"image-keyboard-response",335,258271,"0.0-3.108-0.108","x5f0ly05r58apgy",626,"76.csv","","550.1999999880791","resources/trios/L4T1A3.jpg","37","restless",0.5,0.5,0.4,0.376060932079646,"true"
"image-keyboard-response",336,258684,"0.0-3.108-1.108","x5f0ly05r58apgy",626,"76.csv","","null","resources/maskTrios/L4BB.jpg","null","",NA,NA,NA,NA,""
"image-keyboard-response",337,259889,"0.0-3.108-2.108","x5f0ly05r58apgy",626,"76.csv","","null","resources/images/coin2.png","null","",NA,NA,NA,NA,""
"image-keyboard-response",338,260239,"0.0-3.109-0.109","x5f0ly05r58apgy",626,"76.csv","","347.69999998807907","resources/trios/L2T1A1.jpg","38","restless",0.5,0.5,0.4,0.196952898184681,"true"
"image-keyboard-response",339,260650,"0.0-3.109-1.109","x5f0ly05r58apgy",626,"76.csv","","null","resources/maskTrios/BT1B.jpg","null","",NA,NA,NA,NA,""
"image-keyboard-response",340,261860,"0.0-3.109-2.109","x5f0ly05r58apgy",626,"76.csv","","null","resources/images/coin2.png","null","",NA,NA,NA,NA,""
"image-keyboard-response",341,262283,"0.0-3.110-0.110","x5f0ly05r58apgy",626,"76.csv","","420.5999999642372","resources/trios/L4T1A3.jpg","37","restless",0.5,0.4,0.4,0.580206985866003,"false"
"image-keyboard-response",342,262689,"0.0-3.110-1.110","x5f0ly05r58apgy",626,"76.csv","","null","resources/maskTrios/L4BB.jpg","null","",NA,NA,NA,NA,""
"image-keyboard-response",343,263895,"0.0-3.110-2.110","x5f0ly05r58apgy",626,"76.csv","","null","resources/images/fishbone.png","null","",NA,NA,NA,NA,""
"image-keyboard-response",344,264019,"0.0-3.111-0.111","x5f0ly05r58apgy",626,"76.csv","","121.70000004768372","resources/trios/L4T4A1.jpg","37","restless",0.5,0.4,0.4,0.497603395514045,"true"
"image-keyboard-response",345,264428,"0.0-3.111-1.111","x5f0ly05r58apgy",626,"76.csv","","null","resources/maskTrios/L4BB.jpg","null","",NA,NA,NA,NA,""
"image-keyboard-response",346,265632,"0.0-3.111-2.111","x5f0ly05r58apgy",626,"76.csv","","null","resources/images/coin2.png","null","",NA,NA,NA,NA,""
"image-keyboard-response",347,265731,"0.0-3.112-0.112","x5f0ly05r58apgy",626,"76.csv","","98.30000001192093","resources/trios/L4T1A3.jpg","38","restless",0.5,0.4,0.4,0.322820597054079,"true"
"image-keyboard-response",348,266136,"0.0-3.112-1.112","x5f0ly05r58apgy",626,"76.csv","","null","resources/maskTrios/BT1B.jpg","null","",NA,NA,NA,NA,""
"image-keyboard-response",349,267344,"0.0-3.112-2.112","x5f0ly05r58apgy",626,"76.csv","","null","resources/images/coin2.png","null","",NA,NA,NA,NA,""
"image-keyboard-response",350,267358,"0.0-3.113-0.113","x5f0ly05r58apgy",626,"76.csv","","12.399999976158142","resources/trios/L4T4A1.jpg","38","restless",0.5,0.4,0.4,0.156850262274607,"true"
"image-keyboard-response",351,267772,"0.0-3.113-1.113","x5f0ly05r58apgy",626,"76.csv","","null","resources/maskTrios/BT4B.jpg","null","",NA,NA,NA,NA,""
"image-keyboard-response",352,268977,"0.0-3.113-2.113","x5f0ly05r58apgy",626,"76.csv","","null","resources/images/coin2.png","null","",NA,NA,NA,NA,""
"image-keyboard-response",353,269284,"0.0-3.114-0.114","x5f0ly05r58apgy",626,"76.csv","","306.5","resources/trios/L2T1A1.jpg","37","restless",0.5,0.5,0.4,0.391806440086039,"true"
"image-keyboard-response",354,269690,"0.0-3.114-1.114","x5f0ly05r58apgy",626,"76.csv","","null","resources/maskTrios/L2BB.jpg","null","",NA,NA,NA,NA,""
"image-keyboard-response",355,270900,"0.0-3.114-2.114","x5f0ly05r58apgy",626,"76.csv","","null","resources/images/coin2.png","null","",NA,NA,NA,NA,""
"image-keyboard-response",356,271437,"0.0-3.115-0.115","x5f0ly05r58apgy",626,"76.csv","","534.6000000238419","resources/trios/L2T4A3.jpg","37","restless",0.5,0.5,0.3,0.93976020961421,"false"
"image-keyboard-response",357,271848,"0.0-3.115-1.115","x5f0ly05r58apgy",626,"76.csv","","null","resources/maskTrios/L2BB.jpg","null","",NA,NA,NA,NA,""
"image-keyboard-response",358,273057,"0.0-3.115-2.115","x5f0ly05r58apgy",626,"76.csv","","null","resources/images/fishbone.png","null","",NA,NA,NA,NA,""
"image-keyboard-response",359,273239,"0.0-3.116-0.116","x5f0ly05r58apgy",626,"76.csv","","181.19999998807907","resources/trios/L2T1A1.jpg","37","restless",0.5,0.5,0.4,0.479253252750452,"true"
"image-keyboard-response",360,273648,"0.0-3.116-1.116","x5f0ly05r58apgy",626,"76.csv","","null","resources/maskTrios/L2BB.jpg","null","",NA,NA,NA,NA,""
"image-keyboard-response",361,274857,"0.0-3.116-2.116","x5f0ly05r58apgy",626,"76.csv","","null","resources/images/coin2.png","null","",NA,NA,NA,NA,""
"image-keyboard-response",362,278892,"0.0-3.117-0.117","x5f0ly05r58apgy",626,"76.csv","","4032.199999988079","resources/trios/L4T1A1.jpg","37","restless",0.5,0.5,0.4,0.122931369128634,"true"
"image-keyboard-response",363,279297,"0.0-3.117-1.117","x5f0ly05r58apgy",626,"76.csv","","null","resources/maskTrios/L4BB.jpg","null","",NA,NA,NA,NA,""
"image-keyboard-response",364,280507,"0.0-3.117-2.117","x5f0ly05r58apgy",626,"76.csv","","null","resources/images/coin2.png","null","",NA,NA,NA,NA,""
"image-keyboard-response",365,280513,"0.0-3.118-0.118","x5f0ly05r58apgy",626,"76.csv","","3.900000035762787","resources/trios/L4T4A1.jpg","38","restless",0.5,0.5,0.4,0.0392183282830596,"true"
"image-keyboard-response",366,280919,"0.0-3.118-1.118","x5f0ly05r58apgy",626,"76.csv","","null","resources/maskTrios/BT4B.jpg","null","",NA,NA,NA,NA,""
"image-keyboard-response",367,282132,"0.0-3.118-2.118","x5f0ly05r58apgy",626,"76.csv","","null","resources/images/coin2.png","null","",NA,NA,NA,NA,""
"image-keyboard-response",368,282562,"0.0-3.119-0.119","x5f0ly05r58apgy",626,"76.csv","","428.5","resources/trios/L4T4A1.jpg","38","restless",0.5,0.5,0.4,0.00279023170250525,"true"
"image-keyboard-response",369,282971,"0.0-3.119-1.119","x5f0ly05r58apgy",626,"76.csv","","null","resources/maskTrios/BT4B.jpg","null","",NA,NA,NA,NA,""
"image-keyboard-response",370,284180,"0.0-3.119-2.119","x5f0ly05r58apgy",626,"76.csv","","null","resources/images/coin2.png","null","",NA,NA,NA,NA,""
"image-keyboard-response",371,284185,"0.0-3.120-0.120","x5f0ly05r58apgy",626,"76.csv","","3.400000035762787","resources/trios/L4T1A3.jpg","38","restless",0.5,0.5,0.5,0.307818651757596,"true"
"image-keyboard-response",372,284594,"0.0-3.120-1.120","x5f0ly05r58apgy",626,"76.csv","","null","resources/maskTrios/BT1B.jpg","null","",NA,NA,NA,NA,""
"image-keyboard-response",373,285804,"0.0-3.120-2.120","x5f0ly05r58apgy",626,"76.csv","","null","resources/images/coin2.png","null","",NA,NA,NA,NA,""
"image-keyboard-response",374,288425,"0.0-3.121-0.121","x5f0ly05r58apgy",626,"76.csv","","2618.900000035763","resources/trios/L4T4A3.jpg","38","restless",0.5,0.5,0.5,0.868140411056489,"false"
"image-keyboard-response",375,288833,"0.0-3.121-1.121","x5f0ly05r58apgy",626,"76.csv","","null","resources/maskTrios/BT4B.jpg","null","",NA,NA,NA,NA,""
"image-keyboard-response",376,290043,"0.0-3.121-2.121","x5f0ly05r58apgy",626,"76.csv","","null","resources/images/fishbone.png","null","",NA,NA,NA,NA,""
"image-keyboard-response",377,290379,"0.0-3.122-0.122","x5f0ly05r58apgy",626,"76.csv","","333.60000002384186","resources/trios/L4T4A1.jpg","37","restless",0.5,0.5,0.5,0.720951708169879,"false"
"image-keyboard-response",378,290784,"0.0-3.122-1.122","x5f0ly05r58apgy",626,"76.csv","","null","resources/maskTrios/L4BB.jpg","null","",NA,NA,NA,NA,""
"image-keyboard-response",379,291995,"0.0-3.122-2.122","x5f0ly05r58apgy",626,"76.csv","","null","resources/images/fishbone.png","null","",NA,NA,NA,NA,""
"image-keyboard-response",380,296020,"0.0-3.123-0.123","x5f0ly05r58apgy",626,"76.csv","","4022","resources/trios/L4T1A3.jpg","38","restless",0.5,0.5,0.5,0.521123224993099,"false"
"image-keyboard-response",381,296425,"0.0-3.123-1.123","x5f0ly05r58apgy",626,"76.csv","","null","resources/maskTrios/BT1B.jpg","null","",NA,NA,NA,NA,""
"image-keyboard-response",382,297632,"0.0-3.123-2.123","x5f0ly05r58apgy",626,"76.csv","","null","resources/images/fishbone.png","null","",NA,NA,NA,NA,""
"image-keyboard-response",383,297700,"0.0-3.124-0.124","x5f0ly05r58apgy",626,"76.csv","","66.09999996423721","resources/trios/L2T1A3.jpg","38","restless",0.5,0.5,0.5,0.432745359007291,"true"
"image-keyboard-response",384,298104,"0.0-3.124-1.124","x5f0ly05r58apgy",626,"76.csv","","null","resources/maskTrios/BT1B.jpg","null","",NA,NA,NA,NA,""
"image-keyboard-response",385,299311,"0.0-3.124-2.124","x5f0ly05r58apgy",626,"76.csv","","null","resources/images/coin2.png","null","",NA,NA,NA,NA,""
"image-keyboard-response",386,299677,"0.0-3.125-0.125","x5f0ly05r58apgy",626,"76.csv","","364.5","resources/trios/L2T4A3.jpg","37","restless",0.5,0.5,0.5,0.602758812709234,"false"
"image-keyboard-response",387,300091,"0.0-3.125-1.125","x5f0ly05r58apgy",626,"76.csv","","null","resources/maskTrios/L2BB.jpg","null","",NA,NA,NA,NA,""
"image-keyboard-response",388,301296,"0.0-3.125-2.125","x5f0ly05r58apgy",626,"76.csv","","null","resources/images/fishbone.png","null","",NA,NA,NA,NA,""
"image-keyboard-response",389,301395,"0.0-3.126-0.126","x5f0ly05r58apgy",626,"76.csv","","96.90000003576279","resources/trios/L2T4A1.jpg","37","restless",0.5,0.5,0.5,0.275649117856848,"true"
"image-keyboard-response",390,301804,"0.0-3.126-1.126","x5f0ly05r58apgy",626,"76.csv","","null","resources/maskTrios/L2BB.jpg","null","",NA,NA,NA,NA,""
"image-keyboard-response",391,303009,"0.0-3.126-2.126","x5f0ly05r58apgy",626,"76.csv","","null","resources/images/coin2.png","null","",NA,NA,NA,NA,""
"image-keyboard-response",392,303013,"0.0-3.127-0.127","x5f0ly05r58apgy",626,"76.csv","","1.800000011920929","resources/trios/L4T1A3.jpg","38","restless",0.5,0.5,0.5,0.483240060909132,"true"
"image-keyboard-response",393,303415,"0.0-3.127-1.127","x5f0ly05r58apgy",626,"76.csv","","null","resources/maskTrios/BT1B.jpg","null","",NA,NA,NA,NA,""
"image-keyboard-response",394,304627,"0.0-3.127-2.127","x5f0ly05r58apgy",626,"76.csv","","null","resources/images/coin2.png","null","",NA,NA,NA,NA,""
"image-keyboard-response",395,305049,"0.0-3.128-0.128","x5f0ly05r58apgy",626,"76.csv","","419.69999998807907","resources/trios/L2T1A3.jpg","37","restless",0.5,0.5,0.5,0.843452505386434,"false"
"image-keyboard-response",396,305460,"0.0-3.128-1.128","x5f0ly05r58apgy",626,"76.csv","","null","resources/maskTrios/L2BB.jpg","null","",NA,NA,NA,NA,""
"image-keyboard-response",397,306663,"0.0-3.128-2.128","x5f0ly05r58apgy",626,"76.csv","","null","resources/images/fishbone.png","null","",NA,NA,NA,NA,""
"image-keyboard-response",398,307394,"0.0-3.129-0.129","x5f0ly05r58apgy",626,"76.csv","","729.1999999880791","resources/trios/L4T1A3.jpg","37","restless",0.5,0.5,0.6,0.0378399528139288,"true"
"image-keyboard-response",399,307803,"0.0-3.129-1.129","x5f0ly05r58apgy",626,"76.csv","","null","resources/maskTrios/L4BB.jpg","null","",NA,NA,NA,NA,""
"image-keyboard-response",400,309012,"0.0-3.129-2.129","x5f0ly05r58apgy",626,"76.csv","","null","resources/images/coin2.png","null","",NA,NA,NA,NA,""
"image-keyboard-response",401,309466,"0.0-3.130-0.130","x5f0ly05r58apgy",626,"76.csv","","452.30000001192093","resources/trios/L2T1A1.jpg","38","restless",0.5,0.5,0.6,0.395583456456478,"true"
"image-keyboard-response",402,309872,"0.0-3.130-1.130","x5f0ly05r58apgy",626,"76.csv","","null","resources/maskTrios/BT1B.jpg","null","",NA,NA,NA,NA,""
"image-keyboard-response",403,311079,"0.0-3.130-2.130","x5f0ly05r58apgy",626,"76.csv","","null","resources/images/coin2.png","null","",NA,NA,NA,NA,""
"image-keyboard-response",404,311206,"0.0-3.131-0.131","x5f0ly05r58apgy",626,"76.csv","","126.30000001192093","resources/trios/L4T1A1.jpg","37","restless",0.5,0.5,0.6,0.527645767132044,"false"
"image-keyboard-response",405,311617,"0.0-3.131-1.131","x5f0ly05r58apgy",626,"76.csv","","null","resources/maskTrios/L4BB.jpg","null","",NA,NA,NA,NA,""
"image-keyboard-response",406,312823,"0.0-3.131-2.131","x5f0ly05r58apgy",626,"76.csv","","null","resources/images/fishbone.png","null","",NA,NA,NA,NA,""
"image-keyboard-response",407,313204,"0.0-3.132-0.132","x5f0ly05r58apgy",626,"76.csv","","377.9000000357628","resources/trios/L2T1A3.jpg","37","restless",0.5,0.5,0.6,0.770050825264415,"false"
"image-keyboard-response",408,313611,"0.0-3.132-1.132","x5f0ly05r58apgy",626,"76.csv","","null","resources/maskTrios/L2BB.jpg","null","",NA,NA,NA,NA,""
"image-keyboard-response",409,314815,"0.0-3.132-2.132","x5f0ly05r58apgy",626,"76.csv","","null","resources/images/fishbone.png","null","",NA,NA,NA,NA,""
"image-keyboard-response",410,314898,"0.0-3.133-0.133","x5f0ly05r58apgy",626,"76.csv","","80.89999997615814","resources/trios/L4T4A1.jpg","38","restless",0.5,0.5,0.7,0.973493342183382,"false"
"image-keyboard-response",411,315307,"0.0-3.133-1.133","x5f0ly05r58apgy",626,"76.csv","","null","resources/maskTrios/BT4B.jpg","null","",NA,NA,NA,NA,""
"image-keyboard-response",412,316516,"0.0-3.133-2.133","x5f0ly05r58apgy",626,"76.csv","","null","resources/images/fishbone.png","null","",NA,NA,NA,NA,""
"image-keyboard-response",413,316619,"0.0-3.134-0.134","x5f0ly05r58apgy",626,"76.csv","","101.5","resources/trios/L2T4A3.jpg","38","restless",0.5,0.5,0.7,0.550501576620816,"false"
"image-keyboard-response",414,317027,"0.0-3.134-1.134","x5f0ly05r58apgy",626,"76.csv","","null","resources/maskTrios/BT4B.jpg","null","",NA,NA,NA,NA,""
"image-keyboard-response",415,318234,"0.0-3.134-2.134","x5f0ly05r58apgy",626,"76.csv","","null","resources/images/fishbone.png","null","",NA,NA,NA,NA,""
"image-keyboard-response",416,318786,"0.0-3.135-0.135","x5f0ly05r58apgy",626,"76.csv","","550.3999999761581","resources/trios/L4T4A3.jpg","37","restless",0.5,0.5,0.7,0.690344240577572,"false"
"image-keyboard-response",417,319196,"0.0-3.135-1.135","x5f0ly05r58apgy",626,"76.csv","","null","resources/maskTrios/L4BB.jpg","null","",NA,NA,NA,NA,""
"image-keyboard-response",418,320402,"0.0-3.135-2.135","x5f0ly05r58apgy",626,"76.csv","","null","resources/images/fishbone.png","null","",NA,NA,NA,NA,""
"image-keyboard-response",419,320441,"0.0-3.136-0.136","x5f0ly05r58apgy",626,"76.csv","","37.30000001192093","resources/trios/L2T1A3.jpg","37","restless",0.4,0.5,0.7,0.8455739911785,"false"
"image-keyboard-response",420,320847,"0.0-3.136-1.136","x5f0ly05r58apgy",626,"76.csv","","null","resources/maskTrios/L2BB.jpg","null","",NA,NA,NA,NA,""
"image-keyboard-response",421,322057,"0.0-3.136-2.136","x5f0ly05r58apgy",626,"76.csv","","null","resources/images/fishbone.png","null","",NA,NA,NA,NA,""
"image-keyboard-response",422,322159,"0.0-3.137-0.137","x5f0ly05r58apgy",626,"76.csv","","99.19999998807907","resources/trios/L4T4A1.jpg","37","restless",0.4,0.5,0.7,0.815325885809364,"false"
"image-keyboard-response",423,322567,"0.0-3.137-1.137","x5f0ly05r58apgy",626,"76.csv","","null","resources/maskTrios/L4BB.jpg","null","",NA,NA,NA,NA,""
"image-keyboard-response",424,323779,"0.0-3.137-2.137","x5f0ly05r58apgy",626,"76.csv","","null","resources/images/fishbone.png","null","",NA,NA,NA,NA,""
"image-keyboard-response",425,323896,"0.0-3.138-0.138","x5f0ly05r58apgy",626,"76.csv","","115.40000003576279","resources/trios/L4T1A1.jpg","37","restless",0.4,0.5,0.7,0.393654080204092,"true"
"image-keyboard-response",426,324303,"0.0-3.138-1.138","x5f0ly05r58apgy",626,"76.csv","","null","resources/maskTrios/L4BB.jpg","null","",NA,NA,NA,NA,""
"image-keyboard-response",427,325511,"0.0-3.138-2.138","x5f0ly05r58apgy",626,"76.csv","","null","resources/images/coin2.png","null","",NA,NA,NA,NA,""
"image-keyboard-response",428,325547,"0.0-3.139-0.139","x5f0ly05r58apgy",626,"76.csv","","33.59999996423721","resources/trios/L4T1A1.jpg","37","restless",0.4,0.5,0.8,0.854668719539876,"false"
"image-keyboard-response",429,325954,"0.0-3.139-1.139","x5f0ly05r58apgy",626,"76.csv","","null","resources/maskTrios/L4BB.jpg","null","",NA,NA,NA,NA,""
"image-keyboard-response",430,327160,"0.0-3.139-2.139","x5f0ly05r58apgy",626,"76.csv","","null","resources/images/fishbone.png","null","",NA,NA,NA,NA,""
"image-keyboard-response",431,327502,"0.0-3.140-0.140","x5f0ly05r58apgy",626,"76.csv","","341.30000001192093","resources/trios/L4T1A3.jpg","38","restless",0.4,0.4,0.7,0.503013497341074,"false"
"image-keyboard-response",432,327911,"0.0-3.140-1.140","x5f0ly05r58apgy",626,"76.csv","","null","resources/maskTrios/BT1B.jpg","null","",NA,NA,NA,NA,""
"image-keyboard-response",433,329122,"0.0-3.140-2.140","x5f0ly05r58apgy",626,"76.csv","","null","resources/images/fishbone.png","null","",NA,NA,NA,NA,""
"image-keyboard-response",434,329162,"0.0-3.141-0.141","x5f0ly05r58apgy",626,"76.csv","","38","resources/trios/L4T4A1.jpg","37","restless",0.4,0.4,0.7,0.139477196282769,"true"
"image-keyboard-response",435,329567,"0.0-3.141-1.141","x5f0ly05r58apgy",626,"76.csv","","null","resources/maskTrios/L4BB.jpg","null","",NA,NA,NA,NA,""
"image-keyboard-response",436,330778,"0.0-3.141-2.141","x5f0ly05r58apgy",626,"76.csv","","null","resources/images/coin2.png","null","",NA,NA,NA,NA,""
"image-keyboard-response",437,331226,"0.0-3.142-0.142","x5f0ly05r58apgy",626,"76.csv","","446","resources/trios/L2T4A1.jpg","37","restless",0.4,0.4,0.7,0.69690611521236,"false"
"image-keyboard-response",438,331631,"0.0-3.142-1.142","x5f0ly05r58apgy",626,"76.csv","","null","resources/maskTrios/L2BB.jpg","null","",NA,NA,NA,NA,""
"image-keyboard-response",439,332843,"0.0-3.142-2.142","x5f0ly05r58apgy",626,"76.csv","","null","resources/images/fishbone.png","null","",NA,NA,NA,NA,""
"image-keyboard-response",440,333344,"0.0-3.143-0.143","x5f0ly05r58apgy",626,"76.csv","","498.80000001192093","resources/trios/L4T1A3.jpg","38","restless",0.4,0.3,0.7,0.58879226154971,"false"
"image-keyboard-response",441,333754,"0.0-3.143-1.143","x5f0ly05r58apgy",626,"76.csv","","null","resources/maskTrios/BT1B.jpg","null","",NA,NA,NA,NA,""
"image-keyboard-response",442,334963,"0.0-3.143-2.143","x5f0ly05r58apgy",626,"76.csv","","null","resources/images/fishbone.png","null","",NA,NA,NA,NA,""
"image-keyboard-response",443,335008,"0.0-3.144-0.144","x5f0ly05r58apgy",626,"76.csv","","43.89999997615814","resources/trios/L2T4A3.jpg","37","restless",0.4,0.3,0.7,0.0980821910282854,"true"
"image-keyboard-response",444,335411,"0.0-3.144-1.144","x5f0ly05r58apgy",626,"76.csv","","null","resources/maskTrios/L2BB.jpg","null","",NA,NA,NA,NA,""
"image-keyboard-response",445,336616,"0.0-3.144-2.144","x5f0ly05r58apgy",626,"76.csv","","null","resources/images/coin2.png","null","",NA,NA,NA,NA,""
"image-keyboard-response",446,336786,"0.0-3.145-0.145","x5f0ly05r58apgy",626,"76.csv","","167.60000002384186","resources/trios/L4T4A3.jpg","37","restless",0.4,0.3,0.7,0.208807126615235,"true"
"image-keyboard-response",447,337191,"0.0-3.145-1.145","x5f0ly05r58apgy",626,"76.csv","","null","resources/maskTrios/L4BB.jpg","null","",NA,NA,NA,NA,""
"image-keyboard-response",448,338400,"0.0-3.145-2.145","x5f0ly05r58apgy",626,"76.csv","","null","resources/images/coin2.png","null","",NA,NA,NA,NA,""
"image-keyboard-response",449,338450,"0.0-3.146-0.146","x5f0ly05r58apgy",626,"76.csv","","48.39999997615814","resources/trios/L4T4A3.jpg","37","restless",0.4,0.3,0.7,0.792989366790759,"false"
"image-keyboard-response",450,338856,"0.0-3.146-1.146","x5f0ly05r58apgy",626,"76.csv","","null","resources/maskTrios/L4BB.jpg","null","",NA,NA,NA,NA,""
"image-keyboard-response",451,340065,"0.0-3.146-2.146","x5f0ly05r58apgy",626,"76.csv","","null","resources/images/fishbone.png","null","",NA,NA,NA,NA,""
"image-keyboard-response",452,340354,"0.0-3.147-0.147","x5f0ly05r58apgy",626,"76.csv","","286.89999997615814","resources/trios/L4T1A1.jpg","38","restless",0.4,0.2,0.6,0.141519260597496,"true"
"image-keyboard-response",453,340762,"0.0-3.147-1.147","x5f0ly05r58apgy",626,"76.csv","","null","resources/maskTrios/BT1B.jpg","null","",NA,NA,NA,NA,""
"image-keyboard-response",454,341968,"0.0-3.147-2.147","x5f0ly05r58apgy",626,"76.csv","","null","resources/images/coin2.png","null","",NA,NA,NA,NA,""
"image-keyboard-response",455,342308,"0.0-3.148-0.148","x5f0ly05r58apgy",626,"76.csv","","337.4000000357628","resources/trios/L2T4A1.jpg","37","restless",0.4,0.2,0.6,0.777164754144582,"false"
"image-keyboard-response",456,342712,"0.0-3.148-1.148","x5f0ly05r58apgy",626,"76.csv","","null","resources/maskTrios/L2BB.jpg","null","",NA,NA,NA,NA,""
"image-keyboard-response",457,343921,"0.0-3.148-2.148","x5f0ly05r58apgy",626,"76.csv","","null","resources/images/fishbone.png","null","",NA,NA,NA,NA,""
"image-keyboard-response",458,344397,"0.0-3.149-0.149","x5f0ly05r58apgy",626,"76.csv","","474","resources/trios/L2T4A1.jpg","38","restless",0.4,0.2,0.6,0.70269295598717,"false"
"image-keyboard-response",459,344806,"0.0-3.149-1.149","x5f0ly05r58apgy",626,"76.csv","","null","resources/maskTrios/BT4B.jpg","null","",NA,NA,NA,NA,""
"image-keyboard-response",460,346015,"0.0-3.149-2.149","x5f0ly05r58apgy",626,"76.csv","","null","resources/images/fishbone.png","null","",NA,NA,NA,NA,""
"image-keyboard-response",461,346704,"0.0-3.150-0.150","x5f0ly05r58apgy",626,"76.csv","","686.5","resources/trios/L4T1A3.jpg","37","restless",0.4,0.1,0.6,0.527171311127259,"false"
"image-keyboard-response",462,347108,"0.0-3.150-1.150","x5f0ly05r58apgy",626,"76.csv","","null","resources/maskTrios/L4BB.jpg","null","",NA,NA,NA,NA,""
"image-keyboard-response",463,348316,"0.0-3.150-2.150","x5f0ly05r58apgy",626,"76.csv","","null","resources/images/fishbone.png","null","",NA,NA,NA,NA,""
"image-keyboard-response",464,348506,"0.0-3.151-0.151","x5f0ly05r58apgy",626,"76.csv","","187.60000002384186","resources/trios/L4T4A3.jpg","38","restless",0.4,0.1,0.6,0.50719094345518,"false"
"image-keyboard-response",465,348916,"0.0-3.151-1.151","x5f0ly05r58apgy",626,"76.csv","","null","resources/maskTrios/BT4B.jpg","null","",NA,NA,NA,NA,""
"image-keyboard-response",466,350125,"0.0-3.151-2.151","x5f0ly05r58apgy",626,"76.csv","","null","resources/images/fishbone.png","null","",NA,NA,NA,NA,""
"image-keyboard-response",467,350641,"0.0-3.152-0.152","x5f0ly05r58apgy",626,"76.csv","","514.3000000119209","resources/trios/L2T4A1.jpg","37","restless",0.4,0.1,0.6,0.343149356473124,"true"
"image-keyboard-response",468,351050,"0.0-3.152-1.152","x5f0ly05r58apgy",626,"76.csv","","null","resources/maskTrios/L2BB.jpg","null","",NA,NA,NA,NA,""
"image-keyboard-response",469,352258,"0.0-3.152-2.152","x5f0ly05r58apgy",626,"76.csv","","null","resources/images/coin2.png","null","",NA,NA,NA,NA,""
"image-keyboard-response",470,352291,"0.0-3.153-0.153","x5f0ly05r58apgy",626,"76.csv","","31","resources/trios/L4T1A1.jpg","38","restless",0.4,0.1,0.7,0.774855965044055,"false"
"image-keyboard-response",471,352698,"0.0-3.153-1.153","x5f0ly05r58apgy",626,"76.csv","","null","resources/maskTrios/BT1B.jpg","null","",NA,NA,NA,NA,""
"image-keyboard-response",472,353904,"0.0-3.153-2.153","x5f0ly05r58apgy",626,"76.csv","","null","resources/images/fishbone.png","null","",NA,NA,NA,NA,""
"image-keyboard-response",473,354186,"0.0-3.154-0.154","x5f0ly05r58apgy",626,"76.csv","","279.89999997615814","resources/trios/L4T4A1.jpg","37","restless",0.4,0.1,0.7,0.220194321176574,"true"
"image-keyboard-response",474,354592,"0.0-3.154-1.154","x5f0ly05r58apgy",626,"76.csv","","null","resources/maskTrios/L4BB.jpg","null","",NA,NA,NA,NA,""
"image-keyboard-response",475,355803,"0.0-3.154-2.154","x5f0ly05r58apgy",626,"76.csv","","null","resources/images/coin2.png","null","",NA,NA,NA,NA,""
"image-keyboard-response",476,355922,"0.0-3.155-0.155","x5f0ly05r58apgy",626,"76.csv","","116.60000002384186","resources/trios/L2T1A3.jpg","37","restless",0.4,0.1,0.7,0.393380475072331,"true"
"image-keyboard-response",477,356333,"0.0-3.155-1.155","x5f0ly05r58apgy",626,"76.csv","","null","resources/maskTrios/L2BB.jpg","null","",NA,NA,NA,NA,""
"image-keyboard-response",478,357541,"0.0-3.155-2.155","x5f0ly05r58apgy",626,"76.csv","","null","resources/images/coin2.png","null","",NA,NA,NA,NA,""
"image-keyboard-response",479,357979,"0.0-3.156-0.156","x5f0ly05r58apgy",626,"76.csv","","436.69999998807907","resources/trios/L2T1A1.jpg","38","restless",0.4,0.2,0.7,0.877702877386208,"false"
"image-keyboard-response",480,358386,"0.0-3.156-1.156","x5f0ly05r58apgy",626,"76.csv","","null","resources/maskTrios/BT1B.jpg","null","",NA,NA,NA,NA,""
"image-keyboard-response",481,359590,"0.0-3.156-2.156","x5f0ly05r58apgy",626,"76.csv","","null","resources/images/fishbone.png","null","",NA,NA,NA,NA,""
"image-keyboard-response",482,359609,"0.0-3.157-0.157","x5f0ly05r58apgy",626,"76.csv","","18.5","resources/trios/L4T4A1.jpg","37","restless",0.5,0.3,0.7,0.368109297246426,"true"
"image-keyboard-response",483,360020,"0.0-3.157-1.157","x5f0ly05r58apgy",626,"76.csv","","null","resources/maskTrios/L4BB.jpg","null","",NA,NA,NA,NA,""
"image-keyboard-response",484,361229,"0.0-3.157-2.157","x5f0ly05r58apgy",626,"76.csv","","null","resources/images/coin2.png","null","",NA,NA,NA,NA,""
"image-keyboard-response",485,361389,"0.0-3.158-0.158","x5f0ly05r58apgy",626,"76.csv","","158.39999997615814","resources/trios/L4T1A3.jpg","37","restless",0.5,0.3,0.7,0.81149493152663,"false"
"image-keyboard-response",486,361794,"0.0-3.158-1.158","x5f0ly05r58apgy",626,"76.csv","","null","resources/maskTrios/L4BB.jpg","null","",NA,NA,NA,NA,""
"image-keyboard-response",487,363005,"0.0-3.158-2.158","x5f0ly05r58apgy",626,"76.csv","","null","resources/images/fishbone.png","null","",NA,NA,NA,NA,""
"image-keyboard-response",488,363443,"0.0-3.159-0.159","x5f0ly05r58apgy",626,"76.csv","","436.39999997615814","resources/trios/L4T4A3.jpg","37","restless",0.5,0.3,0.7,0.192327604731707,"true"
"image-keyboard-response",489,363851,"0.0-3.159-1.159","x5f0ly05r58apgy",626,"76.csv","","null","resources/maskTrios/L4BB.jpg","null","",NA,NA,NA,NA,""
"image-keyboard-response",490,365060,"0.0-3.159-2.159","x5f0ly05r58apgy",626,"76.csv","","null","resources/images/coin2.png","null","",NA,NA,NA,NA,""
"image-keyboard-response",491,365297,"0.0-3.160-0.160","x5f0ly05r58apgy",626,"76.csv","","235.10000002384186","resources/trios/L4T1A1.jpg","38","restless",0.5,0.3,0.6,0.9879201212344,"false"
"image-keyboard-response",492,365709,"0.0-3.160-1.160","x5f0ly05r58apgy",626,"76.csv","","null","resources/maskTrios/BT1B.jpg","null","",NA,NA,NA,NA,""
"image-keyboard-response",493,366916,"0.0-3.160-2.160","x5f0ly05r58apgy",626,"76.csv","","null","resources/images/fishbone.png","null","",NA,NA,NA,NA,""
"image-keyboard-response",494,367010,"0.0-3.161-0.161","x5f0ly05r58apgy",626,"76.csv","","92.59999996423721","resources/trios/L4T4A1.jpg","38","restless",0.5,0.4,0.6,0.220306869328371,"true"
"image-keyboard-response",495,367424,"0.0-3.161-1.161","x5f0ly05r58apgy",626,"76.csv","","null","resources/maskTrios/BT4B.jpg","null","",NA,NA,NA,NA,""
"image-keyboard-response",496,368629,"0.0-3.161-2.161","x5f0ly05r58apgy",626,"76.csv","","null","resources/images/coin2.png","null","",NA,NA,NA,NA,""
"image-keyboard-response",497,368742,"0.0-3.162-0.162","x5f0ly05r58apgy",626,"76.csv","","111.39999997615814","resources/trios/L4T4A3.jpg","37","restless",0.5,0.4,0.6,0.169718392942035,"true"
"image-keyboard-response",498,369149,"0.0-3.162-1.162","x5f0ly05r58apgy",626,"76.csv","","null","resources/maskTrios/L4BB.jpg","null","",NA,NA,NA,NA,""
"image-keyboard-response",499,370357,"0.0-3.162-2.162","x5f0ly05r58apgy",626,"76.csv","","null","resources/images/coin2.png","null","",NA,NA,NA,NA,""
"image-keyboard-response",500,370753,"0.0-3.163-0.163","x5f0ly05r58apgy",626,"76.csv","","394.60000002384186","resources/trios/L2T4A1.jpg","38","restless",0.6,0.4,0.6,0.849247375240599,"false"
"image-keyboard-response",501,371156,"0.0-3.163-1.163","x5f0ly05r58apgy",626,"76.csv","","null","resources/maskTrios/BT4B.jpg","null","",NA,NA,NA,NA,""
"image-keyboard-response",502,372367,"0.0-3.163-2.163","x5f0ly05r58apgy",626,"76.csv","","null","resources/images/fishbone.png","null","",NA,NA,NA,NA,""
"image-keyboard-response",503,372590,"0.0-3.164-0.164","x5f0ly05r58apgy",626,"76.csv","","221.0999999642372","resources/trios/L2T4A3.jpg","38","restless",0.6,0.4,0.6,0.435799145756899,"false"
"image-keyboard-response",504,373001,"0.0-3.164-1.164","x5f0ly05r58apgy",626,"76.csv","","null","resources/maskTrios/BT4B.jpg","null","",NA,NA,NA,NA,""
"image-keyboard-response",505,374207,"0.0-3.164-2.164","x5f0ly05r58apgy",626,"76.csv","","null","resources/images/fishbone.png","null","",NA,NA,NA,NA,""
"image-keyboard-response",506,374576,"0.0-3.165-0.165","x5f0ly05r58apgy",626,"76.csv","","366.80000001192093","resources/trios/L2T1A3.jpg","37","restless",0.6,0.3,0.6,0.620311755413572,"false"
"image-keyboard-response",507,374984,"0.0-3.165-1.165","x5f0ly05r58apgy",626,"76.csv","","null","resources/maskTrios/L2BB.jpg","null","",NA,NA,NA,NA,""
"image-keyboard-response",508,376189,"0.0-3.165-2.165","x5f0ly05r58apgy",626,"76.csv","","null","resources/images/fishbone.png","null","",NA,NA,NA,NA,""
"image-keyboard-response",509,376601,"0.0-3.166-0.166","x5f0ly05r58apgy",626,"76.csv","","410.30000001192093","resources/trios/L2T1A1.jpg","37","restless",0.6,0.3,0.6,0.316033618939382,"true"
"image-keyboard-response",510,377008,"0.0-3.166-1.166","x5f0ly05r58apgy",626,"76.csv","","null","resources/maskTrios/L2BB.jpg","null","",NA,NA,NA,NA,""
"image-keyboard-response",511,378216,"0.0-3.166-2.166","x5f0ly05r58apgy",626,"76.csv","","null","resources/images/coin2.png","null","",NA,NA,NA,NA,""
"image-keyboard-response",512,378634,"0.0-3.167-0.167","x5f0ly05r58apgy",626,"76.csv","","415.89999997615814","resources/trios/L4T4A3.jpg","38","restless",0.7,0.3,0.6,0.624606233837522,"false"
"image-keyboard-response",513,379042,"0.0-3.167-1.167","x5f0ly05r58apgy",626,"76.csv","","null","resources/maskTrios/BT4B.jpg","null","",NA,NA,NA,NA,""
"image-keyboard-response",514,380246,"0.0-3.167-2.167","x5f0ly05r58apgy",626,"76.csv","","null","resources/images/fishbone.png","null","",NA,NA,NA,NA,""
"image-keyboard-response",515,380730,"0.0-3.168-0.168","x5f0ly05r58apgy",626,"76.csv","","482","resources/trios/L2T4A1.jpg","37","restless",0.7,0.3,0.6,0.552470770067844,"true"
"image-keyboard-response",516,381138,"0.0-3.168-1.168","x5f0ly05r58apgy",626,"76.csv","","null","resources/maskTrios/L2BB.jpg","null","",NA,NA,NA,NA,""
"image-keyboard-response",517,382345,"0.0-3.168-2.168","x5f0ly05r58apgy",626,"76.csv","","null","resources/images/coin2.png","null","",NA,NA,NA,NA,""
"image-keyboard-response",518,382789,"0.0-3.169-0.169","x5f0ly05r58apgy",626,"76.csv","","441","resources/trios/L4T1A3.jpg","38","restless",0.7,0.4,0.6,0.0825686192558899,"true"
"image-keyboard-response",519,383202,"0.0-3.169-1.169","x5f0ly05r58apgy",626,"76.csv","","null","resources/maskTrios/BT1B.jpg","null","",NA,NA,NA,NA,""
"image-keyboard-response",520,384408,"0.0-3.169-2.169","x5f0ly05r58apgy",626,"76.csv","","null","resources/images/coin2.png","null","",NA,NA,NA,NA,""
"image-keyboard-response",521,384485,"0.0-3.170-0.170","x5f0ly05r58apgy",626,"76.csv","","75.80000001192093","resources/trios/L4T4A1.jpg","37","restless",0.7,0.4,0.6,0.747499893939835,"false"
"image-keyboard-response",522,384897,"0.0-3.170-1.170","x5f0ly05r58apgy",626,"76.csv","","null","resources/maskTrios/L4BB.jpg","null","",NA,NA,NA,NA,""
"image-keyboard-response",523,386102,"0.0-3.170-2.170","x5f0ly05r58apgy",626,"76.csv","","null","resources/images/fishbone.png","null","",NA,NA,NA,NA,""
"image-keyboard-response",524,386370,"0.0-3.171-0.171","x5f0ly05r58apgy",626,"76.csv","","267.19999998807907","resources/trios/L2T1A3.jpg","38","restless",0.7,0.4,0.6,0.154979627754946,"true"
"image-keyboard-response",525,386777,"0.0-3.171-1.171","x5f0ly05r58apgy",626,"76.csv","","null","resources/maskTrios/BT1B.jpg","null","",NA,NA,NA,NA,""
"image-keyboard-response",526,387983,"0.0-3.171-2.171","x5f0ly05r58apgy",626,"76.csv","","null","resources/images/coin2.png","null","",NA,NA,NA,NA,""
"image-keyboard-response",527,388280,"0.0-3.172-0.172","x5f0ly05r58apgy",626,"76.csv","","295.19999998807907","resources/trios/L2T1A3.jpg","38","restless",0.7,0.4,0.6,0.529534748956628,"false"
"image-keyboard-response",528,388687,"0.0-3.172-1.172","x5f0ly05r58apgy",626,"76.csv","","null","resources/maskTrios/BT1B.jpg","null","",NA,NA,NA,NA,""
"image-keyboard-response",529,389898,"0.0-3.172-2.172","x5f0ly05r58apgy",626,"76.csv","","null","resources/images/fishbone.png","null","",NA,NA,NA,NA,""
"image-keyboard-response",530,389983,"0.0-3.173-0.173","x5f0ly05r58apgy",626,"76.csv","","80.5","resources/trios/L4T1A3.jpg","37","restless",0.7,0.4,0.6,0.0889912600555076,"true"
"image-keyboard-response",531,390394,"0.0-3.173-1.173","x5f0ly05r58apgy",626,"76.csv","","null","resources/maskTrios/L4BB.jpg","null","",NA,NA,NA,NA,""
"image-keyboard-response",532,391598,"0.0-3.173-2.173","x5f0ly05r58apgy",626,"76.csv","","null","resources/images/coin2.png","null","",NA,NA,NA,NA,""
"image-keyboard-response",533,391667,"0.0-3.174-0.174","x5f0ly05r58apgy",626,"76.csv","","67.10000002384186","resources/trios/L2T4A1.jpg","38","restless",0.7,0.4,0.6,0.704641471037122,"false"
"image-keyboard-response",534,392071,"0.0-3.174-1.174","x5f0ly05r58apgy",626,"76.csv","","null","resources/maskTrios/BT4B.jpg","null","",NA,NA,NA,NA,""
"image-keyboard-response",535,393278,"0.0-3.174-2.174","x5f0ly05r58apgy",626,"76.csv","","null","resources/images/fishbone.png","null","",NA,NA,NA,NA,""
"image-keyboard-response",536,393738,"0.0-3.175-0.175","x5f0ly05r58apgy",626,"76.csv","","457","resources/trios/L2T1A1.jpg","38","restless",0.6,0.3,0.6,0.807865918523244,"false"
"image-keyboard-response",537,394146,"0.0-3.175-1.175","x5f0ly05r58apgy",626,"76.csv","","null","resources/maskTrios/BT1B.jpg","null","",NA,NA,NA,NA,""
"image-keyboard-response",538,395350,"0.0-3.175-2.175","x5f0ly05r58apgy",626,"76.csv","","null","resources/images/fishbone.png","null","",NA,NA,NA,NA,""
"image-keyboard-response",539,395549,"0.0-3.176-0.176","x5f0ly05r58apgy",626,"76.csv","","196.69999998807907","resources/trios/L4T1A3.jpg","38","restless",0.6,0.3,0.6,0.951080371560155,"false"
"image-keyboard-response",540,395962,"0.0-3.176-1.176","x5f0ly05r58apgy",626,"76.csv","","null","resources/maskTrios/BT1B.jpg","null","",NA,NA,NA,NA,""
"image-keyboard-response",541,397169,"0.0-3.176-2.176","x5f0ly05r58apgy",626,"76.csv","","null","resources/images/fishbone.png","null","",NA,NA,NA,NA,""
"image-keyboard-response",542,397526,"0.0-3.177-0.177","x5f0ly05r58apgy",626,"76.csv","","355.5","resources/trios/L4T4A3.jpg","38","restless",0.6,0.3,0.6,0.274235328345542,"true"
"image-keyboard-response",543,397935,"0.0-3.177-1.177","x5f0ly05r58apgy",626,"76.csv","","null","resources/maskTrios/BT4B.jpg","null","",NA,NA,NA,NA,""
"image-keyboard-response",544,399146,"0.0-3.177-2.177","x5f0ly05r58apgy",626,"76.csv","","null","resources/images/coin2.png","null","",NA,NA,NA,NA,""
"image-keyboard-response",545,399448,"0.0-3.178-0.178","x5f0ly05r58apgy",626,"76.csv","","300.60000002384186","resources/trios/L2T4A1.jpg","38","restless",0.6,0.3,0.6,0.974837912455657,"false"
"image-keyboard-response",546,399858,"0.0-3.178-1.178","x5f0ly05r58apgy",626,"76.csv","","null","resources/maskTrios/BT4B.jpg","null","",NA,NA,NA,NA,""
"image-keyboard-response",547,401066,"0.0-3.178-2.178","x5f0ly05r58apgy",626,"76.csv","","null","resources/images/fishbone.png","null","",NA,NA,NA,NA,""
"image-keyboard-response",548,401137,"0.0-3.179-0.179","x5f0ly05r58apgy",626,"76.csv","","69.5","resources/trios/L4T4A3.jpg","37","restless",0.6,0.3,0.6,0.14020177758798,"true"
"image-keyboard-response",549,401542,"0.0-3.179-1.179","x5f0ly05r58apgy",626,"76.csv","","null","resources/maskTrios/L4BB.jpg","null","",NA,NA,NA,NA,""
"image-keyboard-response",550,402755,"0.0-3.179-2.179","x5f0ly05r58apgy",626,"76.csv","","null","resources/images/coin2.png","null","",NA,NA,NA,NA,""
"image-keyboard-response",551,402825,"0.0-3.180-0.180","x5f0ly05r58apgy",626,"76.csv","","68","resources/trios/L2T4A1.jpg","39","restless",0.6,0.3,0.6,0.215389567054793,"true"
"image-keyboard-response",552,403230,"0.0-3.180-1.180","x5f0ly05r58apgy",626,"76.csv","","null","resources/maskTrios/BBA1.jpg","null","",NA,NA,NA,NA,""
"image-keyboard-response",553,404434,"0.0-3.180-2.180","x5f0ly05r58apgy",626,"76.csv","","null","resources/images/coin2.png","null","",NA,NA,NA,NA,""
"image-keyboard-response",554,404596,"0.0-3.181-0.181","x5f0ly05r58apgy",626,"76.csv","","160.39999997615814","resources/trios/L2T4A1.jpg","37","restless",0.6,0.3,0.6,0.60389781695725,"false"
"image-keyboard-response",555,405010,"0.0-3.181-1.181","x5f0ly05r58apgy",626,"76.csv","","null","resources/maskTrios/L2BB.jpg","null","",NA,NA,NA,NA,""
"image-keyboard-response",556,406215,"0.0-3.181-2.181","x5f0ly05r58apgy",626,"76.csv","","null","resources/images/fishbone.png","null","",NA,NA,NA,NA,""
"image-keyboard-response",557,406297,"0.0-3.182-0.182","x5f0ly05r58apgy",626,"76.csv","","80.20000004768372","resources/trios/L2T1A3.jpg","39","restless",0.6,0.3,0.6,0.391297599670649,"true"
"image-keyboard-response",558,406705,"0.0-3.182-1.182","x5f0ly05r58apgy",626,"76.csv","","null","resources/maskTrios/BBA3.jpg","null","",NA,NA,NA,NA,""
"image-keyboard-response",559,407910,"0.0-3.182-2.182","x5f0ly05r58apgy",626,"76.csv","","null","resources/images/coin2.png","null","",NA,NA,NA,NA,""
"image-keyboard-response",560,408008,"0.0-3.183-0.183","x5f0ly05r58apgy",626,"76.csv","","96.89999997615814","resources/trios/L4T4A1.jpg","39","restless",0.6,0.3,0.6,0.250626457003083,"true"
"image-keyboard-response",561,408417,"0.0-3.183-1.183","x5f0ly05r58apgy",626,"76.csv","","null","resources/maskTrios/BBA1.jpg","null","",NA,NA,NA,NA,""
"image-keyboard-response",562,409625,"0.0-3.183-2.183","x5f0ly05r58apgy",626,"76.csv","","null","resources/images/coin2.png","null","",NA,NA,NA,NA,""
"image-keyboard-response",563,409865,"0.0-3.184-0.184","x5f0ly05r58apgy",626,"76.csv","","237.9000000357628","resources/trios/L2T4A3.jpg","39","restless",0.6,0.4,0.7,0.0174625819375704,"true"
"image-keyboard-response",564,410273,"0.0-3.184-1.184","x5f0ly05r58apgy",626,"76.csv","","null","resources/maskTrios/BBA3.jpg","null","",NA,NA,NA,NA,""
"image-keyboard-response",565,411481,"0.0-3.184-2.184","x5f0ly05r58apgy",626,"76.csv","","null","resources/images/coin2.png","null","",NA,NA,NA,NA,""
"image-keyboard-response",566,411583,"0.0-3.185-0.185","x5f0ly05r58apgy",626,"76.csv","","99.89999997615814","resources/trios/L4T4A3.jpg","37","restless",0.6,0.4,0.7,0.611724079235041,"false"
"image-keyboard-response",567,411995,"0.0-3.185-1.185","x5f0ly05r58apgy",626,"76.csv","","null","resources/maskTrios/L4BB.jpg","null","",NA,NA,NA,NA,""
"image-keyboard-response",568,413200,"0.0-3.185-2.185","x5f0ly05r58apgy",626,"76.csv","","null","resources/images/fishbone.png","null","",NA,NA,NA,NA,""
"image-keyboard-response",569,413315,"0.0-3.186-0.186","x5f0ly05r58apgy",626,"76.csv","","112.70000004768372","resources/trios/L4T1A3.jpg","37","restless",0.6,0.4,0.7,0.709083126300796,"false"
"image-keyboard-response",570,413718,"0.0-3.186-1.186","x5f0ly05r58apgy",626,"76.csv","","null","resources/maskTrios/L4BB.jpg","null","",NA,NA,NA,NA,""
"image-keyboard-response",571,414931,"0.0-3.186-2.186","x5f0ly05r58apgy",626,"76.csv","","null","resources/images/fishbone.png","null","",NA,NA,NA,NA,""
"image-keyboard-response",572,422246,"0.0-3.187-0.187","x5f0ly05r58apgy",626,"76.csv","","7312.899999976158","resources/trios/L2T1A3.jpg","37","restless",0.6,0.4,0.7,0.315229075324885,"true"
"image-keyboard-response",573,422658,"0.0-3.187-1.187","x5f0ly05r58apgy",626,"76.csv","","null","resources/maskTrios/L2BB.jpg","null","",NA,NA,NA,NA,""
"image-keyboard-response",574,423863,"0.0-3.187-2.187","x5f0ly05r58apgy",626,"76.csv","","null","resources/images/coin2.png","null","",NA,NA,NA,NA,""
"image-keyboard-response",575,424101,"0.0-3.188-0.188","x5f0ly05r58apgy",626,"76.csv","","237.20000004768372","resources/trios/L4T4A3.jpg","38","restless",0.6,0.4,0.7,0.373778110371437,"true"
"image-keyboard-response",576,424515,"0.0-3.188-1.188","x5f0ly05r58apgy",626,"76.csv","","null","resources/maskTrios/BT4B.jpg","null","",NA,NA,NA,NA,""
"image-keyboard-response",577,425719,"0.0-3.188-2.188","x5f0ly05r58apgy",626,"76.csv","","null","resources/images/coin2.png","null","",NA,NA,NA,NA,""
"image-keyboard-response",578,429806,"0.0-3.189-0.189","x5f0ly05r58apgy",626,"76.csv","","4084.300000011921","resources/trios/L2T1A1.jpg","37","restless",0.6,0.4,0.7,0.125547477114405,"true"
"image-keyboard-response",579,430215,"0.0-3.189-1.189","x5f0ly05r58apgy",626,"76.csv","","null","resources/maskTrios/L2BB.jpg","null","",NA,NA,NA,NA,""
"image-keyboard-response",580,431423,"0.0-3.189-2.189","x5f0ly05r58apgy",626,"76.csv","","null","resources/images/coin2.png","null","",NA,NA,NA,NA,""
"image-keyboard-response",581,431530,"0.0-3.190-0.190","x5f0ly05r58apgy",626,"76.csv","","104.80000001192093","resources/trios/L4T1A1.jpg","39","restless",0.6,0.4,0.7,0.50937495800409,"true"
"image-keyboard-response",582,431935,"0.0-3.190-1.190","x5f0ly05r58apgy",626,"76.csv","","null","resources/maskTrios/BBA1.jpg","null","",NA,NA,NA,NA,""
"image-keyboard-response",583,433146,"0.0-3.190-2.190","x5f0ly05r58apgy",626,"76.csv","","null","resources/images/coin2.png","null","",NA,NA,NA,NA,""
"image-keyboard-response",584,440268,"0.0-3.191-0.191","x5f0ly05r58apgy",626,"76.csv","","7120.199999988079","resources/trios/L2T4A1.jpg","37","restless",0.6,0.4,0.7,0.970163326549662,"false"
"image-keyboard-response",585,440671,"0.0-3.191-1.191","x5f0ly05r58apgy",626,"76.csv","","null","resources/maskTrios/L2BB.jpg","null","",NA,NA,NA,NA,""
"image-keyboard-response",586,441880,"0.0-3.191-2.191","x5f0ly05r58apgy",626,"76.csv","","null","resources/images/fishbone.png","null","",NA,NA,NA,NA,""
"image-keyboard-response",587,441965,"0.0-3.192-0.192","x5f0ly05r58apgy",626,"76.csv","","84","resources/trios/L2T4A3.jpg","38","restless",0.6,0.4,0.7,0.246541059579571,"true"
"image-keyboard-response",588,442379,"0.0-3.192-1.192","x5f0ly05r58apgy",626,"76.csv","","null","resources/maskTrios/BT4B.jpg","null","",NA,NA,NA,NA,""
"image-keyboard-response",589,443582,"0.0-3.192-2.192","x5f0ly05r58apgy",626,"76.csv","","null","resources/images/coin2.png","null","",NA,NA,NA,NA,""
"image-keyboard-response",590,444566,"0.0-3.193-0.193","x5f0ly05r58apgy",626,"76.csv","","981.8000000119209","resources/trios/L4T4A3.jpg","38","restless",0.6,0.4,0.7,0.665493072820241,"false"
"image-keyboard-response",591,444974,"0.0-3.193-1.193","x5f0ly05r58apgy",626,"76.csv","","null","resources/maskTrios/BT4B.jpg","null","",NA,NA,NA,NA,""
"image-keyboard-response",592,446186,"0.0-3.193-2.193","x5f0ly05r58apgy",626,"76.csv","","null","resources/images/fishbone.png","null","",NA,NA,NA,NA,""
"image-keyboard-response",593,446193,"0.0-3.194-0.194","x5f0ly05r58apgy",626,"76.csv","","5.5","resources/trios/L2T4A3.jpg","39","restless",0.6,0.4,0.7,0.0422431466697557,"true"
"image-keyboard-response",594,446601,"0.0-3.194-1.194","x5f0ly05r58apgy",626,"76.csv","","null","resources/maskTrios/BBA3.jpg","null","",NA,NA,NA,NA,""
"image-keyboard-response",595,447811,"0.0-3.194-2.194","x5f0ly05r58apgy",626,"76.csv","","null","resources/images/coin2.png","null","",NA,NA,NA,NA,""
"image-keyboard-response",596,447816,"0.0-3.195-0.195","x5f0ly05r58apgy",626,"76.csv","","2.600000023841858","resources/trios/L2T1A3.jpg","38","restless",0.6,0.5,0.7,0.125922200401931,"true"
"image-keyboard-response",597,448224,"0.0-3.195-1.195","x5f0ly05r58apgy",626,"76.csv","","null","resources/maskTrios/BT1B.jpg","null","",NA,NA,NA,NA,""
"image-keyboard-response",598,449433,"0.0-3.195-2.195","x5f0ly05r58apgy",626,"76.csv","","null","resources/images/coin2.png","null","",NA,NA,NA,NA,""
"image-keyboard-response",599,449609,"0.0-3.196-0.196","x5f0ly05r58apgy",626,"76.csv","","174.80000001192093","resources/trios/L2T1A1.jpg","39","restless",0.6,0.5,0.7,0.433450188272673,"true"
"image-keyboard-response",600,450016,"0.0-3.196-1.196","x5f0ly05r58apgy",626,"76.csv","","null","resources/maskTrios/BBA1.jpg","null","",NA,NA,NA,NA,""
"image-keyboard-response",601,451227,"0.0-3.196-2.196","x5f0ly05r58apgy",626,"76.csv","","null","resources/images/coin2.png","null","",NA,NA,NA,NA,""
"image-keyboard-response",602,453374,"0.0-3.197-0.197","x5f0ly05r58apgy",626,"76.csv","","2144.599999964237","resources/trios/L2T4A3.jpg","39","restless",0.6,0.6,0.7,0.220425106394751,"true"
"image-keyboard-response",603,453787,"0.0-3.197-1.197","x5f0ly05r58apgy",626,"76.csv","","null","resources/maskTrios/BBA3.jpg","null","",NA,NA,NA,NA,""
"image-keyboard-response",604,454994,"0.0-3.197-2.197","x5f0ly05r58apgy",626,"76.csv","","null","resources/images/coin2.png","null","",NA,NA,NA,NA,""
"image-keyboard-response",605,455069,"0.0-3.198-0.198","x5f0ly05r58apgy",626,"76.csv","","73.59999996423721","resources/trios/L4T4A3.jpg","38","restless",0.6,0.6,0.7,0.149990561829914,"true"
"image-keyboard-response",606,455482,"0.0-3.198-1.198","x5f0ly05r58apgy",626,"76.csv","","null","resources/maskTrios/BT4B.jpg","null","",NA,NA,NA,NA,""
"image-keyboard-response",607,456687,"0.0-3.198-2.198","x5f0ly05r58apgy",626,"76.csv","","null","resources/images/coin2.png","null","",NA,NA,NA,NA,""
"image-keyboard-response",608,456789,"0.0-3.199-0.199","x5f0ly05r58apgy",626,"76.csv","","99.60000002384186","resources/trios/L2T1A3.jpg","37","restless",0.6,0.6,0.7,0.596538840742309,"true"
"image-keyboard-response",609,457203,"0.0-3.199-1.199","x5f0ly05r58apgy",626,"76.csv","","null","resources/maskTrios/L2BB.jpg","null","",NA,NA,NA,NA,""
"image-keyboard-response",610,458407,"0.0-3.199-2.199","x5f0ly05r58apgy",626,"76.csv","","null","resources/images/coin2.png","null","",NA,NA,NA,NA,""
