"trial_type","trial_index","time_elapsed","internal_node_id","subject","participantCode","walkNumber","success","rt","stimulus","key_press","test_part","leftProb","midProb","rightProb","generatedNum","correct"
"pavlovia",0,728,"0.0-0.0","5lzzr9z4ga1mtde",366,"105.csv","","","","","",NA,NA,NA,NA,""
"fullscreen",1,2173,"0.0-1.0","5lzzr9z4ga1mtde",366,"105.csv","true","","","","",NA,NA,NA,NA,""
"html-keyboard-response",2,2608,"0.0-2.0-0.0","5lzzr9z4ga1mtde",366,"105.csv","","434.39999997615814","<p><font size='6'>Arrrgh!</p></font><p>Can you be the best pirate? Try to find lots of gold! But beware, some islands have more gold than others, and over time, the island with the most gold may change. Can YOU figure it out? </p><font size='6'>GOOD LUCK, CAPTAIN!!!</font><p>Press any key to begin</p>","13","",NA,NA,NA,NA,""
"image-keyboard-response",3,5613,"0.0-2.0-1.0","5lzzr9z4ga1mtde",366,"105.csv","","null","resources/image_sets/111.png","null","",NA,NA,NA,NA,""
"image-keyboard-response",4,6048,"0.0-2.0-2.0","5lzzr9z4ga1mtde",366,"105.csv","","433.5","resources/image_sets/left_highlight.png","37","",NA,NA,NA,NA,""
"image-keyboard-response",5,6103,"0.0-2.0-3.0","5lzzr9z4ga1mtde",366,"105.csv","","53.90000009536743","resources/image_sets/mid_highlight.png","38","",NA,NA,NA,NA,""
"image-keyboard-response",6,6227,"0.0-2.0-4.0","5lzzr9z4ga1mtde",366,"105.csv","","123.60000002384186","resources/image_sets/right_highlight.png","39","",NA,NA,NA,NA,""
"image-keyboard-response",7,6600,"0.0-2.0-5.0","5lzzr9z4ga1mtde",366,"105.csv","","371.10000002384186","resources/image_sets/111.png","13","",NA,NA,NA,NA,""
"image-keyboard-response",8,6733,"0.0-2.0-6.0","5lzzr9z4ga1mtde",366,"105.csv","","131.39999997615814","resources/images/coin2.png","13","",NA,NA,NA,NA,""
"image-keyboard-response",9,6873,"0.0-2.0-7.0","5lzzr9z4ga1mtde",366,"105.csv","","139.29999995231628","resources/images/fishbone.png","13","",NA,NA,NA,NA,""
"html-keyboard-response",10,7635,"0.0-2.0-8.0","5lzzr9z4ga1mtde",366,"105.csv","","761.3999999761581","<p>Your first journey will be a long one, but you will get a well deserved break at the end</p><p>After the break you will have four more journeys, but each will be much shorter than the first, and you will have breaks in between each</p><p>Press Enter to begin</p>","13","",NA,NA,NA,NA,""
"image-keyboard-response",11,8078,"0.0-3.0-0.0","5lzzr9z4ga1mtde",366,"105.csv","","441.2999999523163","resources/trios/L2T4A1.jpg","37","restless",0.3,0.9,0.7,0.274372248661413,"true"
"image-keyboard-response",12,8484,"0.0-3.0-1.0","5lzzr9z4ga1mtde",366,"105.csv","","null","resources/maskTrios/L2BB.jpg","null","",NA,NA,NA,NA,""
"image-keyboard-response",13,9686,"0.0-3.0-2.0","5lzzr9z4ga1mtde",366,"105.csv","","null","resources/images/coin2.png","null","",NA,NA,NA,NA,""
"image-keyboard-response",14,9840,"0.0-3.1-0.1","5lzzr9z4ga1mtde",366,"105.csv","","152","resources/trios/L4T4A1.jpg","37","restless",0.3,0.9,0.7,0.221805572526318,"true"
"image-keyboard-response",15,10243,"0.0-3.1-1.1","5lzzr9z4ga1mtde",366,"105.csv","","null","resources/maskTrios/L4BB.jpg","null","",NA,NA,NA,NA,""
"image-keyboard-response",16,11444,"0.0-3.1-2.1","5lzzr9z4ga1mtde",366,"105.csv","","null","resources/images/coin2.png","null","",NA,NA,NA,NA,""
"image-keyboard-response",17,11630,"0.0-3.2-0.2","5lzzr9z4ga1mtde",366,"105.csv","","184.5","resources/trios/L4T2A1.jpg","37","restless",0.3,0.9,0.7,0.918398137105486,"false"
"image-keyboard-response",18,12033,"0.0-3.2-1.2","5lzzr9z4ga1mtde",366,"105.csv","","null","resources/maskTrios/L4BB.jpg","null","",NA,NA,NA,NA,""
"image-keyboard-response",19,13234,"0.0-3.2-2.2","5lzzr9z4ga1mtde",366,"105.csv","","null","resources/images/fishbone.png","null","",NA,NA,NA,NA,""
"image-keyboard-response",20,13324,"0.0-3.3-0.3","5lzzr9z4ga1mtde",366,"105.csv","","89.5","resources/trios/L4T2A3.jpg","37","restless",0.3,0.9,0.7,0.118958830322994,"true"
"image-keyboard-response",21,13729,"0.0-3.3-1.3","5lzzr9z4ga1mtde",366,"105.csv","","null","resources/maskTrios/L4BB.jpg","null","",NA,NA,NA,NA,""
"image-keyboard-response",22,14930,"0.0-3.3-2.3","5lzzr9z4ga1mtde",366,"105.csv","","null","resources/images/coin2.png","null","",NA,NA,NA,NA,""
"image-keyboard-response",23,14969,"0.0-3.4-0.4","5lzzr9z4ga1mtde",366,"105.csv","","37.200000047683716","resources/trios/L2T2A1.jpg","37","restless",0.3,0.9,0.7,0.0651368786022699,"true"
"image-keyboard-response",24,15370,"0.0-3.4-1.4","5lzzr9z4ga1mtde",366,"105.csv","","null","resources/maskTrios/L2BB.jpg","null","",NA,NA,NA,NA,""
"image-keyboard-response",25,16574,"0.0-3.4-2.4","5lzzr9z4ga1mtde",366,"105.csv","","null","resources/images/coin2.png","null","",NA,NA,NA,NA,""
"image-keyboard-response",26,17306,"0.0-3.5-0.5","5lzzr9z4ga1mtde",366,"105.csv","","731.3999999761581","resources/trios/L4T2A3.jpg","37","restless",0.3,0.9,0.7,0.523740716703844,"false"
"image-keyboard-response",27,17709,"0.0-3.5-1.5","5lzzr9z4ga1mtde",366,"105.csv","","null","resources/maskTrios/L4BB.jpg","null","",NA,NA,NA,NA,""
"image-keyboard-response",28,18913,"0.0-3.5-2.5","5lzzr9z4ga1mtde",366,"105.csv","","null","resources/images/fishbone.png","null","",NA,NA,NA,NA,""
"image-keyboard-response",29,19067,"0.0-3.6-0.6","5lzzr9z4ga1mtde",366,"105.csv","","152.29999995231628","resources/trios/L4T2A3.jpg","37","restless",0.3,0.9,0.7,0.536177639029237,"false"
"image-keyboard-response",30,19470,"0.0-3.6-1.6","5lzzr9z4ga1mtde",366,"105.csv","","null","resources/maskTrios/L4BB.jpg","null","",NA,NA,NA,NA,""
"image-keyboard-response",31,20673,"0.0-3.6-2.6","5lzzr9z4ga1mtde",366,"105.csv","","null","resources/images/fishbone.png","null","",NA,NA,NA,NA,""
"image-keyboard-response",32,38280,"0.0-3.7-0.7","5lzzr9z4ga1mtde",366,"105.csv","","17616.700000047684","resources/trios/L4T2A3.jpg","37","restless",0.3,0.9,0.7,0.12301595331645,"true"
"image-keyboard-response",33,38686,"0.0-3.7-1.7","5lzzr9z4ga1mtde",366,"105.csv","","null","resources/maskTrios/L4BB.jpg","null","",NA,NA,NA,NA,""
"image-keyboard-response",34,39892,"0.0-3.7-2.7","5lzzr9z4ga1mtde",366,"105.csv","","null","resources/images/coin2.png","null","",NA,NA,NA,NA,""
"image-keyboard-response",35,39940,"0.0-3.8-0.8","5lzzr9z4ga1mtde",366,"105.csv","","47.09999990463257","resources/trios/L4T4A3.jpg","38","restless",0.3,0.9,0.7,0.921184030159465,"false"
"image-keyboard-response",36,40344,"0.0-3.8-1.8","5lzzr9z4ga1mtde",366,"105.csv","","null","resources/maskTrios/BT4B.jpg","null","",NA,NA,NA,NA,""
"image-keyboard-response",37,41545,"0.0-3.8-2.8","5lzzr9z4ga1mtde",366,"105.csv","","null","resources/images/fishbone.png","null","",NA,NA,NA,NA,""
"image-keyboard-response",38,41570,"0.0-3.9-0.9","5lzzr9z4ga1mtde",366,"105.csv","","23.799999952316284","resources/trios/L2T2A3.jpg","37","restless",0.3,0.8,0.7,0.789105737102006,"false"
"image-keyboard-response",39,41976,"0.0-3.9-1.9","5lzzr9z4ga1mtde",366,"105.csv","","null","resources/maskTrios/L2BB.jpg","null","",NA,NA,NA,NA,""
"image-keyboard-response",40,43181,"0.0-3.9-2.9","5lzzr9z4ga1mtde",366,"105.csv","","null","resources/images/fishbone.png","null","",NA,NA,NA,NA,""
"image-keyboard-response",41,43543,"0.0-3.10-0.10","5lzzr9z4ga1mtde",366,"105.csv","","361.7000000476837","resources/trios/L2T2A3.jpg","37","restless",0.3,0.8,0.7,0.747520205030944,"false"
"image-keyboard-response",42,43948,"0.0-3.10-1.10","5lzzr9z4ga1mtde",366,"105.csv","","null","resources/maskTrios/L2BB.jpg","null","",NA,NA,NA,NA,""
"image-keyboard-response",43,45154,"0.0-3.10-2.10","5lzzr9z4ga1mtde",366,"105.csv","","null","resources/images/fishbone.png","null","",NA,NA,NA,NA,""
"image-keyboard-response",44,45540,"0.0-3.11-0.11","5lzzr9z4ga1mtde",366,"105.csv","","385.2000000476837","resources/trios/L4T2A3.jpg","37","restless",0.3,0.8,0.7,0.0978955821416796,"true"
"image-keyboard-response",45,45946,"0.0-3.11-1.11","5lzzr9z4ga1mtde",366,"105.csv","","null","resources/maskTrios/L4BB.jpg","null","",NA,NA,NA,NA,""
"image-keyboard-response",46,47151,"0.0-3.11-2.11","5lzzr9z4ga1mtde",366,"105.csv","","null","resources/images/coin2.png","null","",NA,NA,NA,NA,""
"image-keyboard-response",47,47275,"0.0-3.12-0.12","5lzzr9z4ga1mtde",366,"105.csv","","123.39999997615814","resources/trios/L2T4A3.jpg","37","restless",0.3,0.7,0.7,0.378311362684949,"false"
"image-keyboard-response",48,47681,"0.0-3.12-1.12","5lzzr9z4ga1mtde",366,"105.csv","","null","resources/maskTrios/L2BB.jpg","null","",NA,NA,NA,NA,""
"image-keyboard-response",49,48884,"0.0-3.12-2.12","5lzzr9z4ga1mtde",366,"105.csv","","null","resources/images/fishbone.png","null","",NA,NA,NA,NA,""
"image-keyboard-response",50,49130,"0.0-3.13-0.13","5lzzr9z4ga1mtde",366,"105.csv","","245.09999990463257","resources/trios/L2T4A1.jpg","37","restless",0.3,0.7,0.7,0.00342029881434303,"true"
"image-keyboard-response",51,49537,"0.0-3.13-1.13","5lzzr9z4ga1mtde",366,"105.csv","","null","resources/maskTrios/L2BB.jpg","null","",NA,NA,NA,NA,""
"image-keyboard-response",52,50742,"0.0-3.13-2.13","5lzzr9z4ga1mtde",366,"105.csv","","null","resources/images/coin2.png","null","",NA,NA,NA,NA,""
"image-keyboard-response",53,50817,"0.0-3.14-0.14","5lzzr9z4ga1mtde",366,"105.csv","","73.5","resources/trios/L2T4A1.jpg","37","restless",0.3,0.7,0.7,0.49844987474876,"false"
"image-keyboard-response",54,51222,"0.0-3.14-1.14","5lzzr9z4ga1mtde",366,"105.csv","","null","resources/maskTrios/L2BB.jpg","null","",NA,NA,NA,NA,""
"image-keyboard-response",55,52427,"0.0-3.14-2.14","5lzzr9z4ga1mtde",366,"105.csv","","null","resources/images/fishbone.png","null","",NA,NA,NA,NA,""
"image-keyboard-response",56,52600,"0.0-3.15-0.15","5lzzr9z4ga1mtde",366,"105.csv","","172.10000002384186","resources/trios/L4T4A3.jpg","37","restless",0.3,0.7,0.7,0.558005182683176,"false"
"image-keyboard-response",57,53005,"0.0-3.15-1.15","5lzzr9z4ga1mtde",366,"105.csv","","null","resources/maskTrios/L4BB.jpg","null","",NA,NA,NA,NA,""
"image-keyboard-response",58,54208,"0.0-3.15-2.15","5lzzr9z4ga1mtde",366,"105.csv","","null","resources/images/fishbone.png","null","",NA,NA,NA,NA,""
"image-keyboard-response",59,54409,"0.0-3.16-0.16","5lzzr9z4ga1mtde",366,"105.csv","","200","resources/trios/L2T4A1.jpg","37","restless",0.3,0.7,0.7,0.578466406196688,"false"
"image-keyboard-response",60,54813,"0.0-3.16-1.16","5lzzr9z4ga1mtde",366,"105.csv","","null","resources/maskTrios/L2BB.jpg","null","",NA,NA,NA,NA,""
"image-keyboard-response",61,56017,"0.0-3.16-2.16","5lzzr9z4ga1mtde",366,"105.csv","","null","resources/images/fishbone.png","null","",NA,NA,NA,NA,""
"image-keyboard-response",62,56156,"0.0-3.17-0.17","5lzzr9z4ga1mtde",366,"105.csv","","138.09999990463257","resources/trios/L2T4A3.jpg","39","restless",0.3,0.7,0.7,0.778185321251217,"false"
"image-keyboard-response",63,56560,"0.0-3.17-1.17","5lzzr9z4ga1mtde",366,"105.csv","","null","resources/maskTrios/BBA3.jpg","null","",NA,NA,NA,NA,""
"image-keyboard-response",64,57765,"0.0-3.17-2.17","5lzzr9z4ga1mtde",366,"105.csv","","null","resources/images/fishbone.png","null","",NA,NA,NA,NA,""
"image-keyboard-response",65,57802,"0.0-3.18-0.18","5lzzr9z4ga1mtde",366,"105.csv","","36.299999952316284","resources/trios/L2T2A1.jpg","39","restless",0.3,0.7,0.7,0.197594206808998,"true"
"image-keyboard-response",66,58208,"0.0-3.18-1.18","5lzzr9z4ga1mtde",366,"105.csv","","null","resources/maskTrios/BBA1.jpg","null","",NA,NA,NA,NA,""
"image-keyboard-response",67,59410,"0.0-3.18-2.18","5lzzr9z4ga1mtde",366,"105.csv","","null","resources/images/coin2.png","null","",NA,NA,NA,NA,""
"image-keyboard-response",68,59624,"0.0-3.19-0.19","5lzzr9z4ga1mtde",366,"105.csv","","212.60000002384186","resources/trios/L4T2A3.jpg","39","restless",0.3,0.8,0.6,0.177882561647531,"true"
"image-keyboard-response",69,60031,"0.0-3.19-1.19","5lzzr9z4ga1mtde",366,"105.csv","","null","resources/maskTrios/BBA3.jpg","null","",NA,NA,NA,NA,""
"image-keyboard-response",70,61237,"0.0-3.19-2.19","5lzzr9z4ga1mtde",366,"105.csv","","null","resources/images/coin2.png","null","",NA,NA,NA,NA,""
"image-keyboard-response",71,61384,"0.0-3.20-0.20","5lzzr9z4ga1mtde",366,"105.csv","","145.89999997615814","resources/trios/L4T2A1.jpg","39","restless",0.3,0.8,0.6,0.498564231658354,"true"
"image-keyboard-response",72,61787,"0.0-3.20-1.20","5lzzr9z4ga1mtde",366,"105.csv","","null","resources/maskTrios/BBA1.jpg","null","",NA,NA,NA,NA,""
"image-keyboard-response",73,62992,"0.0-3.20-2.20","5lzzr9z4ga1mtde",366,"105.csv","","null","resources/images/coin2.png","null","",NA,NA,NA,NA,""
"image-keyboard-response",74,63199,"0.0-3.21-0.21","5lzzr9z4ga1mtde",366,"105.csv","","206.10000002384186","resources/trios/L4T2A1.jpg","39","restless",0.3,0.7,0.6,0.0465880990888374,"true"
"image-keyboard-response",75,63604,"0.0-3.21-1.21","5lzzr9z4ga1mtde",366,"105.csv","","null","resources/maskTrios/BBA1.jpg","null","",NA,NA,NA,NA,""
"image-keyboard-response",76,64806,"0.0-3.21-2.21","5lzzr9z4ga1mtde",366,"105.csv","","null","resources/images/coin2.png","null","",NA,NA,NA,NA,""
"image-keyboard-response",77,65032,"0.0-3.22-0.22","5lzzr9z4ga1mtde",366,"105.csv","","225.10000002384186","resources/trios/L4T4A3.jpg","39","restless",0.3,0.7,0.6,0.0351453196840141,"true"
"image-keyboard-response",78,65434,"0.0-3.22-1.22","5lzzr9z4ga1mtde",366,"105.csv","","null","resources/maskTrios/BBA3.jpg","null","",NA,NA,NA,NA,""
"image-keyboard-response",79,66640,"0.0-3.22-2.22","5lzzr9z4ga1mtde",366,"105.csv","","null","resources/images/coin2.png","null","",NA,NA,NA,NA,""
"image-keyboard-response",80,66673,"0.0-3.23-0.23","5lzzr9z4ga1mtde",366,"105.csv","","31.5","resources/trios/L4T4A1.jpg","39","restless",0.3,0.6,0.7,0.61695610895653,"true"
"image-keyboard-response",81,67077,"0.0-3.23-1.23","5lzzr9z4ga1mtde",366,"105.csv","","null","resources/maskTrios/BBA1.jpg","null","",NA,NA,NA,NA,""
"image-keyboard-response",82,68282,"0.0-3.23-2.23","5lzzr9z4ga1mtde",366,"105.csv","","null","resources/images/coin2.png","null","",NA,NA,NA,NA,""
"image-keyboard-response",83,69017,"0.0-3.24-0.24","5lzzr9z4ga1mtde",366,"105.csv","","733.6000000238419","resources/trios/L2T2A1.jpg","39","restless",0.3,0.6,0.8,0.61556609751482,"true"
"image-keyboard-response",84,69423,"0.0-3.24-1.24","5lzzr9z4ga1mtde",366,"105.csv","","null","resources/maskTrios/BBA1.jpg","null","",NA,NA,NA,NA,""
"image-keyboard-response",85,70626,"0.0-3.24-2.24","5lzzr9z4ga1mtde",366,"105.csv","","null","resources/images/coin2.png","null","",NA,NA,NA,NA,""
"image-keyboard-response",86,70847,"0.0-3.25-0.25","5lzzr9z4ga1mtde",366,"105.csv","","220.10000002384186","resources/trios/L2T2A1.jpg","39","restless",0.3,0.6,0.8,0.117501761425478,"true"
"image-keyboard-response",87,71252,"0.0-3.25-1.25","5lzzr9z4ga1mtde",366,"105.csv","","null","resources/maskTrios/BBA1.jpg","null","",NA,NA,NA,NA,""
"image-keyboard-response",88,72456,"0.0-3.25-2.25","5lzzr9z4ga1mtde",366,"105.csv","","null","resources/images/coin2.png","null","",NA,NA,NA,NA,""
"image-keyboard-response",89,72662,"0.0-3.26-0.26","5lzzr9z4ga1mtde",366,"105.csv","","204.89999997615814","resources/trios/L4T2A3.jpg","39","restless",0.3,0.6,0.8,0.471525361254115,"true"
"image-keyboard-response",90,73068,"0.0-3.26-1.26","5lzzr9z4ga1mtde",366,"105.csv","","null","resources/maskTrios/BBA3.jpg","null","",NA,NA,NA,NA,""
"image-keyboard-response",91,74272,"0.0-3.26-2.26","5lzzr9z4ga1mtde",366,"105.csv","","null","resources/images/coin2.png","null","",NA,NA,NA,NA,""
"image-keyboard-response",92,74397,"0.0-3.27-0.27","5lzzr9z4ga1mtde",366,"105.csv","","123.29999995231628","resources/trios/L4T4A1.jpg","39","restless",0.2,0.6,0.8,0.30482879432096,"true"
"image-keyboard-response",93,74800,"0.0-3.27-1.27","5lzzr9z4ga1mtde",366,"105.csv","","null","resources/maskTrios/BBA1.jpg","null","",NA,NA,NA,NA,""
"image-keyboard-response",94,76004,"0.0-3.27-2.27","5lzzr9z4ga1mtde",366,"105.csv","","null","resources/images/coin2.png","null","",NA,NA,NA,NA,""
"image-keyboard-response",95,76036,"0.0-3.28-0.28","5lzzr9z4ga1mtde",366,"105.csv","","30.5","resources/trios/L4T4A1.jpg","39","restless",0.2,0.6,0.8,0.143811359909205,"true"
"image-keyboard-response",96,76441,"0.0-3.28-1.28","5lzzr9z4ga1mtde",366,"105.csv","","null","resources/maskTrios/BBA1.jpg","null","",NA,NA,NA,NA,""
"image-keyboard-response",97,77647,"0.0-3.28-2.28","5lzzr9z4ga1mtde",366,"105.csv","","null","resources/images/coin2.png","null","",NA,NA,NA,NA,""
"image-keyboard-response",98,77655,"0.0-3.29-0.29","5lzzr9z4ga1mtde",366,"105.csv","","7.299999952316284","resources/trios/L4T4A3.jpg","39","restless",0.2,0.6,0.8,0.536735885768306,"true"
"image-keyboard-response",99,78058,"0.0-3.29-1.29","5lzzr9z4ga1mtde",366,"105.csv","","null","resources/maskTrios/BBA3.jpg","null","",NA,NA,NA,NA,""
"image-keyboard-response",100,79262,"0.0-3.29-2.29","5lzzr9z4ga1mtde",366,"105.csv","","null","resources/images/coin2.png","null","",NA,NA,NA,NA,""
"image-keyboard-response",101,79333,"0.0-3.30-0.30","5lzzr9z4ga1mtde",366,"105.csv","","69.60000002384186","resources/trios/L4T2A1.jpg","39","restless",0.2,0.6,0.8,0.76668804106256,"true"
"image-keyboard-response",102,79737,"0.0-3.30-1.30","5lzzr9z4ga1mtde",366,"105.csv","","null","resources/maskTrios/BBA1.jpg","null","",NA,NA,NA,NA,""
"image-keyboard-response",103,80942,"0.0-3.30-2.30","5lzzr9z4ga1mtde",366,"105.csv","","null","resources/images/coin2.png","null","",NA,NA,NA,NA,""
"image-keyboard-response",104,80982,"0.0-3.31-0.31","5lzzr9z4ga1mtde",366,"105.csv","","38.199999928474426","resources/trios/L4T2A1.jpg","39","restless",0.2,0.6,0.8,0.377834145290694,"true"
"image-keyboard-response",105,81388,"0.0-3.31-1.31","5lzzr9z4ga1mtde",366,"105.csv","","null","resources/maskTrios/BBA1.jpg","null","",NA,NA,NA,NA,""
"image-keyboard-response",106,82589,"0.0-3.31-2.31","5lzzr9z4ga1mtde",366,"105.csv","","null","resources/images/coin2.png","null","",NA,NA,NA,NA,""
"image-keyboard-response",107,82598,"0.0-3.32-0.32","5lzzr9z4ga1mtde",366,"105.csv","","8","resources/trios/L4T4A3.jpg","39","restless",0.2,0.6,0.8,0.165030605384495,"true"
"image-keyboard-response",108,83001,"0.0-3.32-1.32","5lzzr9z4ga1mtde",366,"105.csv","","null","resources/maskTrios/BBA3.jpg","null","",NA,NA,NA,NA,""
"image-keyboard-response",109,84203,"0.0-3.32-2.32","5lzzr9z4ga1mtde",366,"105.csv","","null","resources/images/coin2.png","null","",NA,NA,NA,NA,""
"image-keyboard-response",110,84353,"0.0-3.33-0.33","5lzzr9z4ga1mtde",366,"105.csv","","148.39999997615814","resources/trios/L2T4A1.jpg","39","restless",0.2,0.6,0.8,0.0707366194860364,"true"
"image-keyboard-response",111,84759,"0.0-3.33-1.33","5lzzr9z4ga1mtde",366,"105.csv","","null","resources/maskTrios/BBA1.jpg","null","",NA,NA,NA,NA,""
"image-keyboard-response",112,85965,"0.0-3.33-2.33","5lzzr9z4ga1mtde",366,"105.csv","","null","resources/images/coin2.png","null","",NA,NA,NA,NA,""
"image-keyboard-response",113,86511,"0.0-3.34-0.34","5lzzr9z4ga1mtde",366,"105.csv","","544.8000000715256","resources/trios/L4T2A1.jpg","39","restless",0.2,0.6,0.8,0.0389689480587647,"true"
"image-keyboard-response",114,86915,"0.0-3.34-1.34","5lzzr9z4ga1mtde",366,"105.csv","","null","resources/maskTrios/BBA1.jpg","null","",NA,NA,NA,NA,""
"image-keyboard-response",115,88117,"0.0-3.34-2.34","5lzzr9z4ga1mtde",366,"105.csv","","null","resources/images/coin2.png","null","",NA,NA,NA,NA,""
"image-keyboard-response",116,88263,"0.0-3.35-0.35","5lzzr9z4ga1mtde",366,"105.csv","","144","resources/trios/L2T2A1.jpg","39","restless",0.3,0.6,0.8,0.0466954274990921,"true"
"image-keyboard-response",117,88667,"0.0-3.35-1.35","5lzzr9z4ga1mtde",366,"105.csv","","null","resources/maskTrios/BBA1.jpg","null","",NA,NA,NA,NA,""
"image-keyboard-response",118,89873,"0.0-3.35-2.35","5lzzr9z4ga1mtde",366,"105.csv","","null","resources/images/coin2.png","null","",NA,NA,NA,NA,""
"image-keyboard-response",119,89937,"0.0-3.36-0.36","5lzzr9z4ga1mtde",366,"105.csv","","63.39999997615814","resources/trios/L4T4A3.jpg","39","restless",0.3,0.6,0.8,0.0877814645044508,"true"
"image-keyboard-response",120,90343,"0.0-3.36-1.36","5lzzr9z4ga1mtde",366,"105.csv","","null","resources/maskTrios/BBA3.jpg","null","",NA,NA,NA,NA,""
"image-keyboard-response",121,91546,"0.0-3.36-2.36","5lzzr9z4ga1mtde",366,"105.csv","","null","resources/images/coin2.png","null","",NA,NA,NA,NA,""
"image-keyboard-response",122,91691,"0.0-3.37-0.37","5lzzr9z4ga1mtde",366,"105.csv","","143.20000004768372","resources/trios/L2T2A1.jpg","39","restless",0.3,0.6,0.8,0.148960781827262,"true"
"image-keyboard-response",123,92097,"0.0-3.37-1.37","5lzzr9z4ga1mtde",366,"105.csv","","null","resources/maskTrios/BBA1.jpg","null","",NA,NA,NA,NA,""
"image-keyboard-response",124,93301,"0.0-3.37-2.37","5lzzr9z4ga1mtde",366,"105.csv","","null","resources/images/coin2.png","null","",NA,NA,NA,NA,""
"image-keyboard-response",125,93324,"0.0-3.38-0.38","5lzzr9z4ga1mtde",366,"105.csv","","21.700000047683716","resources/trios/L4T2A1.jpg","39","restless",0.3,0.6,0.8,0.582208227396334,"true"
"image-keyboard-response",126,93727,"0.0-3.38-1.38","5lzzr9z4ga1mtde",366,"105.csv","","null","resources/maskTrios/BBA1.jpg","null","",NA,NA,NA,NA,""
"image-keyboard-response",127,94932,"0.0-3.38-2.38","5lzzr9z4ga1mtde",366,"105.csv","","null","resources/images/coin2.png","null","",NA,NA,NA,NA,""
"image-keyboard-response",128,94987,"0.0-3.39-0.39","5lzzr9z4ga1mtde",366,"105.csv","","53.200000047683716","resources/trios/L2T4A1.jpg","39","restless",0.3,0.6,0.8,0.294542333432603,"true"
"image-keyboard-response",129,95391,"0.0-3.39-1.39","5lzzr9z4ga1mtde",366,"105.csv","","null","resources/maskTrios/BBA1.jpg","null","",NA,NA,NA,NA,""
"image-keyboard-response",130,96597,"0.0-3.39-2.39","5lzzr9z4ga1mtde",366,"105.csv","","null","resources/images/coin2.png","null","",NA,NA,NA,NA,""
"image-keyboard-response",131,96674,"0.0-3.40-0.40","5lzzr9z4ga1mtde",366,"105.csv","","74.70000004768372","resources/trios/L2T2A1.jpg","39","restless",0.3,0.6,0.8,0.820161002923168,"false"
"image-keyboard-response",132,97079,"0.0-3.40-1.40","5lzzr9z4ga1mtde",366,"105.csv","","null","resources/maskTrios/BBA1.jpg","null","",NA,NA,NA,NA,""
"image-keyboard-response",133,98283,"0.0-3.40-2.40","5lzzr9z4ga1mtde",366,"105.csv","","null","resources/images/fishbone.png","null","",NA,NA,NA,NA,""
"image-keyboard-response",134,98420,"0.0-3.41-0.41","5lzzr9z4ga1mtde",366,"105.csv","","136.5","resources/trios/L2T4A1.jpg","39","restless",0.3,0.6,0.8,0.656423043306216,"true"
"image-keyboard-response",135,98825,"0.0-3.41-1.41","5lzzr9z4ga1mtde",366,"105.csv","","null","resources/maskTrios/BBA1.jpg","null","",NA,NA,NA,NA,""
"image-keyboard-response",136,100030,"0.0-3.41-2.41","5lzzr9z4ga1mtde",366,"105.csv","","null","resources/images/coin2.png","null","",NA,NA,NA,NA,""
"image-keyboard-response",137,100153,"0.0-3.42-0.42","5lzzr9z4ga1mtde",366,"105.csv","","121.79999995231628","resources/trios/L4T2A1.jpg","39","restless",0.4,0.6,0.8,0.496468059582613,"true"
"image-keyboard-response",138,100555,"0.0-3.42-1.42","5lzzr9z4ga1mtde",366,"105.csv","","null","resources/maskTrios/BBA1.jpg","null","",NA,NA,NA,NA,""
"image-keyboard-response",139,101758,"0.0-3.42-2.42","5lzzr9z4ga1mtde",366,"105.csv","","null","resources/images/coin2.png","null","",NA,NA,NA,NA,""
"image-keyboard-response",140,101936,"0.0-3.43-0.43","5lzzr9z4ga1mtde",366,"105.csv","","176.90000009536743","resources/trios/L2T4A3.jpg","39","restless",0.4,0.6,0.8,0.557530784786565,"true"
"image-keyboard-response",141,102339,"0.0-3.43-1.43","5lzzr9z4ga1mtde",366,"105.csv","","null","resources/maskTrios/BBA3.jpg","null","",NA,NA,NA,NA,""
"image-keyboard-response",142,103545,"0.0-3.43-2.43","5lzzr9z4ga1mtde",366,"105.csv","","null","resources/images/coin2.png","null","",NA,NA,NA,NA,""
"image-keyboard-response",143,103609,"0.0-3.44-0.44","5lzzr9z4ga1mtde",366,"105.csv","","62.89999997615814","resources/trios/L4T4A1.jpg","39","restless",0.5,0.6,0.8,0.605328250138305,"true"
"image-keyboard-response",144,104015,"0.0-3.44-1.44","5lzzr9z4ga1mtde",366,"105.csv","","null","resources/maskTrios/BBA1.jpg","null","",NA,NA,NA,NA,""
"image-keyboard-response",145,105219,"0.0-3.44-2.44","5lzzr9z4ga1mtde",366,"105.csv","","null","resources/images/coin2.png","null","",NA,NA,NA,NA,""
"image-keyboard-response",146,105302,"0.0-3.45-0.45","5lzzr9z4ga1mtde",366,"105.csv","","82.19999992847443","resources/trios/L4T2A3.jpg","39","restless",0.5,0.6,0.8,0.131245698831184,"true"
"image-keyboard-response",147,105708,"0.0-3.45-1.45","5lzzr9z4ga1mtde",366,"105.csv","","null","resources/maskTrios/BBA3.jpg","null","",NA,NA,NA,NA,""
"image-keyboard-response",148,106915,"0.0-3.45-2.45","5lzzr9z4ga1mtde",366,"105.csv","","null","resources/images/coin2.png","null","",NA,NA,NA,NA,""
"image-keyboard-response",149,107878,"0.0-3.46-0.46","5lzzr9z4ga1mtde",366,"105.csv","","961.9000000953674","resources/trios/L4T4A3.jpg","39","restless",0.5,0.6,0.8,0.554537652989598,"true"
"image-keyboard-response",150,108283,"0.0-3.46-1.46","5lzzr9z4ga1mtde",366,"105.csv","","null","resources/maskTrios/BBA3.jpg","null","",NA,NA,NA,NA,""
"image-keyboard-response",151,109490,"0.0-3.46-2.46","5lzzr9z4ga1mtde",366,"105.csv","","null","resources/images/coin2.png","null","",NA,NA,NA,NA,""
"image-keyboard-response",152,109497,"0.0-3.47-0.47","5lzzr9z4ga1mtde",366,"105.csv","","5.299999952316284","resources/trios/L2T2A3.jpg","39","restless",0.6,0.6,0.8,0.494471716616162,"true"
"image-keyboard-response",153,109902,"0.0-3.47-1.47","5lzzr9z4ga1mtde",366,"105.csv","","null","resources/maskTrios/BBA3.jpg","null","",NA,NA,NA,NA,""
"image-keyboard-response",154,111107,"0.0-3.47-2.47","5lzzr9z4ga1mtde",366,"105.csv","","null","resources/images/coin2.png","null","",NA,NA,NA,NA,""
"image-keyboard-response",155,111341,"0.0-3.48-0.48","5lzzr9z4ga1mtde",366,"105.csv","","233.80000007152557","resources/trios/L4T2A1.jpg","39","restless",0.6,0.6,0.8,0.808033420970349,"false"
"image-keyboard-response",156,111747,"0.0-3.48-1.48","5lzzr9z4ga1mtde",366,"105.csv","","null","resources/maskTrios/BBA1.jpg","null","",NA,NA,NA,NA,""
"image-keyboard-response",157,112952,"0.0-3.48-2.48","5lzzr9z4ga1mtde",366,"105.csv","","null","resources/images/fishbone.png","null","",NA,NA,NA,NA,""
"image-keyboard-response",158,113010,"0.0-3.49-0.49","5lzzr9z4ga1mtde",366,"105.csv","","56.10000002384186","resources/trios/L4T2A3.jpg","39","restless",0.6,0.6,0.8,0.83156217372267,"false"
"image-keyboard-response",159,113416,"0.0-3.49-1.49","5lzzr9z4ga1mtde",366,"105.csv","","null","resources/maskTrios/BBA3.jpg","null","",NA,NA,NA,NA,""
"image-keyboard-response",160,114622,"0.0-3.49-2.49","5lzzr9z4ga1mtde",366,"105.csv","","null","resources/images/fishbone.png","null","",NA,NA,NA,NA,""
"image-keyboard-response",161,114748,"0.0-3.50-0.50","5lzzr9z4ga1mtde",366,"105.csv","","124.59999990463257","resources/trios/L4T2A3.jpg","39","restless",0.6,0.6,0.9,0.416609485618901,"true"
"image-keyboard-response",162,115153,"0.0-3.50-1.50","5lzzr9z4ga1mtde",366,"105.csv","","null","resources/maskTrios/BBA3.jpg","null","",NA,NA,NA,NA,""
"image-keyboard-response",163,116358,"0.0-3.50-2.50","5lzzr9z4ga1mtde",366,"105.csv","","null","resources/images/coin2.png","null","",NA,NA,NA,NA,""
"image-keyboard-response",164,116491,"0.0-3.51-0.51","5lzzr9z4ga1mtde",366,"105.csv","","132.70000004768372","resources/trios/L2T4A3.jpg","39","restless",0.6,0.6,0.9,0.744910963185385,"true"
"image-keyboard-response",165,116898,"0.0-3.51-1.51","5lzzr9z4ga1mtde",366,"105.csv","","null","resources/maskTrios/BBA3.jpg","null","",NA,NA,NA,NA,""
"image-keyboard-response",166,118100,"0.0-3.51-2.51","5lzzr9z4ga1mtde",366,"105.csv","","null","resources/images/coin2.png","null","",NA,NA,NA,NA,""
"image-keyboard-response",167,118221,"0.0-3.52-0.52","5lzzr9z4ga1mtde",366,"105.csv","","119","resources/trios/L2T2A3.jpg","39","restless",0.6,0.7,0.9,0.792132598830918,"true"
"image-keyboard-response",168,118623,"0.0-3.52-1.52","5lzzr9z4ga1mtde",366,"105.csv","","null","resources/maskTrios/BBA3.jpg","null","",NA,NA,NA,NA,""
"image-keyboard-response",169,119827,"0.0-3.52-2.52","5lzzr9z4ga1mtde",366,"105.csv","","null","resources/images/coin2.png","null","",NA,NA,NA,NA,""
"image-keyboard-response",170,119876,"0.0-3.53-0.53","5lzzr9z4ga1mtde",366,"105.csv","","48.200000047683716","resources/trios/L2T2A3.jpg","37","restless",0.6,0.7,0.9,0.431551829167783,"true"
"image-keyboard-response",171,120283,"0.0-3.53-1.53","5lzzr9z4ga1mtde",366,"105.csv","","null","resources/maskTrios/L2BB.jpg","null","",NA,NA,NA,NA,""
"image-keyboard-response",172,121488,"0.0-3.53-2.53","5lzzr9z4ga1mtde",366,"105.csv","","null","resources/images/coin2.png","null","",NA,NA,NA,NA,""
"image-keyboard-response",173,121490,"0.0-3.54-0.54","5lzzr9z4ga1mtde",366,"105.csv","","0.7999999523162842","resources/trios/L2T2A3.jpg","37","restless",0.6,0.7,0.8,0.752911831124084,"false"
"image-keyboard-response",174,121895,"0.0-3.54-1.54","5lzzr9z4ga1mtde",366,"105.csv","","null","resources/maskTrios/L2BB.jpg","null","",NA,NA,NA,NA,""
"image-keyboard-response",175,123097,"0.0-3.54-2.54","5lzzr9z4ga1mtde",366,"105.csv","","null","resources/images/fishbone.png","null","",NA,NA,NA,NA,""
"image-keyboard-response",176,123161,"0.0-3.55-0.55","5lzzr9z4ga1mtde",366,"105.csv","","62.60000002384186","resources/trios/L2T2A3.jpg","37","restless",0.6,0.6,0.8,0.836803033151958,"false"
"image-keyboard-response",177,123565,"0.0-3.55-1.55","5lzzr9z4ga1mtde",366,"105.csv","","null","resources/maskTrios/L2BB.jpg","null","",NA,NA,NA,NA,""
"image-keyboard-response",178,124767,"0.0-3.55-2.55","5lzzr9z4ga1mtde",366,"105.csv","","null","resources/images/fishbone.png","null","",NA,NA,NA,NA,""
"image-keyboard-response",179,124810,"0.0-3.56-0.56","5lzzr9z4ga1mtde",366,"105.csv","","41.10000002384186","resources/trios/L2T2A3.jpg","37","restless",0.6,0.6,0.8,0.170508919233302,"true"
"image-keyboard-response",180,125216,"0.0-3.56-1.56","5lzzr9z4ga1mtde",366,"105.csv","","null","resources/maskTrios/L2BB.jpg","null","",NA,NA,NA,NA,""
"image-keyboard-response",181,126421,"0.0-3.56-2.56","5lzzr9z4ga1mtde",366,"105.csv","","null","resources/images/coin2.png","null","",NA,NA,NA,NA,""
"image-keyboard-response",182,126517,"0.0-3.57-0.57","5lzzr9z4ga1mtde",366,"105.csv","","94.80000007152557","resources/trios/L2T2A1.jpg","37","restless",0.7,0.7,0.8,0.841231383263107,"false"
"image-keyboard-response",183,126920,"0.0-3.57-1.57","5lzzr9z4ga1mtde",366,"105.csv","","null","resources/maskTrios/L2BB.jpg","null","",NA,NA,NA,NA,""
"image-keyboard-response",184,128124,"0.0-3.57-2.57","5lzzr9z4ga1mtde",366,"105.csv","","null","resources/images/fishbone.png","null","",NA,NA,NA,NA,""
"image-keyboard-response",185,128294,"0.0-3.58-0.58","5lzzr9z4ga1mtde",366,"105.csv","","168.70000004768372","resources/trios/L2T2A1.jpg","39","restless",0.7,0.7,0.9,0.974453394108013,"false"
"image-keyboard-response",186,128698,"0.0-3.58-1.58","5lzzr9z4ga1mtde",366,"105.csv","","null","resources/maskTrios/BBA1.jpg","null","",NA,NA,NA,NA,""
"image-keyboard-response",187,129903,"0.0-3.58-2.58","5lzzr9z4ga1mtde",366,"105.csv","","null","resources/images/fishbone.png","null","",NA,NA,NA,NA,""
"image-keyboard-response",188,130009,"0.0-3.59-0.59","5lzzr9z4ga1mtde",366,"105.csv","","105","resources/trios/L2T4A3.jpg","39","restless",0.7,0.7,0.8,0.887154549425377,"false"
"image-keyboard-response",189,130414,"0.0-3.59-1.59","5lzzr9z4ga1mtde",366,"105.csv","","null","resources/maskTrios/BBA3.jpg","null","",NA,NA,NA,NA,""
"image-keyboard-response",190,131619,"0.0-3.59-2.59","5lzzr9z4ga1mtde",366,"105.csv","","null","resources/images/fishbone.png","null","",NA,NA,NA,NA,""
"image-keyboard-response",191,131680,"0.0-3.60-0.60","5lzzr9z4ga1mtde",366,"105.csv","","59.10000002384186","resources/trios/L2T4A1.jpg","37","restless",0.7,0.7,0.8,0.338214555336608,"true"
"image-keyboard-response",192,132083,"0.0-3.60-1.60","5lzzr9z4ga1mtde",366,"105.csv","","null","resources/maskTrios/L2BB.jpg","null","",NA,NA,NA,NA,""
"image-keyboard-response",193,133285,"0.0-3.60-2.60","5lzzr9z4ga1mtde",366,"105.csv","","null","resources/images/coin2.png","null","",NA,NA,NA,NA,""
"image-keyboard-response",194,133364,"0.0-3.61-0.61","5lzzr9z4ga1mtde",366,"105.csv","","77.29999995231628","resources/trios/L2T2A1.jpg","37","restless",0.7,0.7,0.8,0.227809162776196,"true"
"image-keyboard-response",195,133768,"0.0-3.61-1.61","5lzzr9z4ga1mtde",366,"105.csv","","null","resources/maskTrios/L2BB.jpg","null","",NA,NA,NA,NA,""
"image-keyboard-response",196,134971,"0.0-3.61-2.61","5lzzr9z4ga1mtde",366,"105.csv","","null","resources/images/coin2.png","null","",NA,NA,NA,NA,""
"image-keyboard-response",197,135149,"0.0-3.62-0.62","5lzzr9z4ga1mtde",366,"105.csv","","176.89999997615814","resources/trios/L4T2A1.jpg","37","restless",0.7,0.7,0.8,0.801838615170459,"false"
"image-keyboard-response",198,135554,"0.0-3.62-1.62","5lzzr9z4ga1mtde",366,"105.csv","","null","resources/maskTrios/L4BB.jpg","null","",NA,NA,NA,NA,""
"image-keyboard-response",199,136756,"0.0-3.62-2.62","5lzzr9z4ga1mtde",366,"105.csv","","null","resources/images/fishbone.png","null","",NA,NA,NA,NA,""
"image-keyboard-response",200,137696,"0.0-3.63-0.63","5lzzr9z4ga1mtde",366,"105.csv","","938.8000000715256","resources/trios/L4T2A3.jpg","37","restless",0.7,0.7,0.8,0.000959367061820648,"true"
"image-keyboard-response",201,138100,"0.0-3.63-1.63","5lzzr9z4ga1mtde",366,"105.csv","","null","resources/maskTrios/L4BB.jpg","null","",NA,NA,NA,NA,""
"image-keyboard-response",202,139305,"0.0-3.63-2.63","5lzzr9z4ga1mtde",366,"105.csv","","null","resources/images/coin2.png","null","",NA,NA,NA,NA,""
"image-keyboard-response",203,139481,"0.0-3.64-0.64","5lzzr9z4ga1mtde",366,"105.csv","","174.79999995231628","resources/trios/L2T4A3.jpg","37","restless",0.7,0.7,0.8,0.434828368242861,"true"
"image-keyboard-response",204,139886,"0.0-3.64-1.64","5lzzr9z4ga1mtde",366,"105.csv","","null","resources/maskTrios/L2BB.jpg","null","",NA,NA,NA,NA,""
"image-keyboard-response",205,141091,"0.0-3.64-2.64","5lzzr9z4ga1mtde",366,"105.csv","","null","resources/images/coin2.png","null","",NA,NA,NA,NA,""
"image-keyboard-response",206,141124,"0.0-3.65-0.65","5lzzr9z4ga1mtde",366,"105.csv","","32.299999952316284","resources/trios/L4T4A3.jpg","37","restless",0.7,0.7,0.8,0.747068828071393,"false"
"image-keyboard-response",207,141528,"0.0-3.65-1.65","5lzzr9z4ga1mtde",366,"105.csv","","null","resources/maskTrios/L4BB.jpg","null","",NA,NA,NA,NA,""
"image-keyboard-response",208,142734,"0.0-3.65-2.65","5lzzr9z4ga1mtde",366,"105.csv","","null","resources/images/fishbone.png","null","",NA,NA,NA,NA,""
"image-keyboard-response",209,142795,"0.0-3.66-0.66","5lzzr9z4ga1mtde",366,"105.csv","","60","resources/trios/L4T2A1.jpg","38","restless",0.7,0.7,0.8,0.396380303617845,"true"
"image-keyboard-response",210,143200,"0.0-3.66-1.66","5lzzr9z4ga1mtde",366,"105.csv","","null","resources/maskTrios/BT2B.jpg","null","",NA,NA,NA,NA,""
"image-keyboard-response",211,144403,"0.0-3.66-2.66","5lzzr9z4ga1mtde",366,"105.csv","","null","resources/images/coin2.png","null","",NA,NA,NA,NA,""
"image-keyboard-response",212,144671,"0.0-3.67-0.67","5lzzr9z4ga1mtde",366,"105.csv","","266.60000002384186","resources/trios/L2T4A1.jpg","38","restless",0.7,0.7,0.8,0.835319672870127,"false"
"image-keyboard-response",213,145076,"0.0-3.67-1.67","5lzzr9z4ga1mtde",366,"105.csv","","null","resources/maskTrios/BT4B.jpg","null","",NA,NA,NA,NA,""
"image-keyboard-response",214,146279,"0.0-3.67-2.67","5lzzr9z4ga1mtde",366,"105.csv","","null","resources/images/fishbone.png","null","",NA,NA,NA,NA,""
"image-keyboard-response",215,146383,"0.0-3.68-0.68","5lzzr9z4ga1mtde",366,"105.csv","","101.70000004768372","resources/trios/L4T2A1.jpg","38","restless",0.6,0.7,0.8,0.0564277043754688,"true"
"image-keyboard-response",216,146787,"0.0-3.68-1.68","5lzzr9z4ga1mtde",366,"105.csv","","null","resources/maskTrios/BT2B.jpg","null","",NA,NA,NA,NA,""
"image-keyboard-response",217,147992,"0.0-3.68-2.68","5lzzr9z4ga1mtde",366,"105.csv","","null","resources/images/coin2.png","null","",NA,NA,NA,NA,""
"image-keyboard-response",218,148630,"0.0-3.69-0.69","5lzzr9z4ga1mtde",366,"105.csv","","637.2000000476837","resources/trios/L4T2A1.jpg","38","restless",0.6,0.7,0.8,0.129391680811197,"true"
"image-keyboard-response",219,149035,"0.0-3.69-1.69","5lzzr9z4ga1mtde",366,"105.csv","","null","resources/maskTrios/BT2B.jpg","null","",NA,NA,NA,NA,""
"image-keyboard-response",220,150238,"0.0-3.69-2.69","5lzzr9z4ga1mtde",366,"105.csv","","null","resources/images/coin2.png","null","",NA,NA,NA,NA,""
"image-keyboard-response",221,150248,"0.0-3.70-0.70","5lzzr9z4ga1mtde",366,"105.csv","","8.700000047683716","resources/trios/L2T2A3.jpg","38","restless",0.6,0.7,0.8,0.679322607198603,"true"
"image-keyboard-response",222,150652,"0.0-3.70-1.70","5lzzr9z4ga1mtde",366,"105.csv","","null","resources/maskTrios/BT2B.jpg","null","",NA,NA,NA,NA,""
"image-keyboard-response",223,151856,"0.0-3.70-2.70","5lzzr9z4ga1mtde",366,"105.csv","","null","resources/images/coin2.png","null","",NA,NA,NA,NA,""
"image-keyboard-response",224,152029,"0.0-3.71-0.71","5lzzr9z4ga1mtde",366,"105.csv","","171.39999997615814","resources/trios/L2T2A3.jpg","38","restless",0.6,0.7,0.8,0.464330717714386,"true"
"image-keyboard-response",225,152435,"0.0-3.71-1.71","5lzzr9z4ga1mtde",366,"105.csv","","null","resources/maskTrios/BT2B.jpg","null","",NA,NA,NA,NA,""
"image-keyboard-response",226,153641,"0.0-3.71-2.71","5lzzr9z4ga1mtde",366,"105.csv","","null","resources/images/coin2.png","null","",NA,NA,NA,NA,""
"image-keyboard-response",227,153779,"0.0-3.72-0.72","5lzzr9z4ga1mtde",366,"105.csv","","136.39999997615814","resources/trios/L4T2A3.jpg","38","restless",0.6,0.7,0.8,0.231521768213226,"true"
"image-keyboard-response",228,154185,"0.0-3.72-1.72","5lzzr9z4ga1mtde",366,"105.csv","","null","resources/maskTrios/BT2B.jpg","null","",NA,NA,NA,NA,""
"image-keyboard-response",229,155388,"0.0-3.72-2.72","5lzzr9z4ga1mtde",366,"105.csv","","null","resources/images/coin2.png","null","",NA,NA,NA,NA,""
"image-keyboard-response",230,155611,"0.0-3.73-0.73","5lzzr9z4ga1mtde",366,"105.csv","","221.89999997615814","resources/trios/L4T2A1.jpg","38","restless",0.6,0.7,0.8,0.634121973503955,"true"
"image-keyboard-response",231,156013,"0.0-3.73-1.73","5lzzr9z4ga1mtde",366,"105.csv","","null","resources/maskTrios/BT2B.jpg","null","",NA,NA,NA,NA,""
"image-keyboard-response",232,157214,"0.0-3.73-2.73","5lzzr9z4ga1mtde",366,"105.csv","","null","resources/images/coin2.png","null","",NA,NA,NA,NA,""
"image-keyboard-response",233,157337,"0.0-3.74-0.74","5lzzr9z4ga1mtde",366,"105.csv","","122.39999997615814","resources/trios/L2T4A3.jpg","38","restless",0.6,0.7,0.8,0.0701987000326618,"true"
"image-keyboard-response",234,157742,"0.0-3.74-1.74","5lzzr9z4ga1mtde",366,"105.csv","","null","resources/maskTrios/BT4B.jpg","null","",NA,NA,NA,NA,""
"image-keyboard-response",235,158949,"0.0-3.74-2.74","5lzzr9z4ga1mtde",366,"105.csv","","null","resources/images/coin2.png","null","",NA,NA,NA,NA,""
"image-keyboard-response",236,158983,"0.0-3.75-0.75","5lzzr9z4ga1mtde",366,"105.csv","","33","resources/trios/L4T2A3.jpg","38","restless",0.6,0.7,0.8,0.344923767105123,"true"
"image-keyboard-response",237,159389,"0.0-3.75-1.75","5lzzr9z4ga1mtde",366,"105.csv","","null","resources/maskTrios/BT2B.jpg","null","",NA,NA,NA,NA,""
"image-keyboard-response",238,160595,"0.0-3.75-2.75","5lzzr9z4ga1mtde",366,"105.csv","","null","resources/images/coin2.png","null","",NA,NA,NA,NA,""
"image-keyboard-response",239,160599,"0.0-3.76-0.76","5lzzr9z4ga1mtde",366,"105.csv","","3.600000023841858","resources/trios/L2T4A1.jpg","38","restless",0.6,0.7,0.8,0.0791387248594502,"true"
"image-keyboard-response",240,161001,"0.0-3.76-1.76","5lzzr9z4ga1mtde",366,"105.csv","","null","resources/maskTrios/BT4B.jpg","null","",NA,NA,NA,NA,""
"image-keyboard-response",241,162207,"0.0-3.76-2.76","5lzzr9z4ga1mtde",366,"105.csv","","null","resources/images/coin2.png","null","",NA,NA,NA,NA,""
"image-keyboard-response",242,162235,"0.0-3.77-0.77","5lzzr9z4ga1mtde",366,"105.csv","","27.100000023841858","resources/trios/L2T4A1.jpg","38","restless",0.6,0.7,0.8,0.840666793869759,"false"
"image-keyboard-response",243,162641,"0.0-3.77-1.77","5lzzr9z4ga1mtde",366,"105.csv","","null","resources/maskTrios/BT4B.jpg","null","",NA,NA,NA,NA,""
"image-keyboard-response",244,163845,"0.0-3.77-2.77","5lzzr9z4ga1mtde",366,"105.csv","","null","resources/images/fishbone.png","null","",NA,NA,NA,NA,""
"image-keyboard-response",245,164072,"0.0-3.78-0.78","5lzzr9z4ga1mtde",366,"105.csv","","224.70000004768372","resources/trios/L4T2A3.jpg","38","restless",0.6,0.7,0.8,0.72400205200452,"false"
"image-keyboard-response",246,164477,"0.0-3.78-1.78","5lzzr9z4ga1mtde",366,"105.csv","","null","resources/maskTrios/BT2B.jpg","null","",NA,NA,NA,NA,""
"image-keyboard-response",247,165683,"0.0-3.78-2.78","5lzzr9z4ga1mtde",366,"105.csv","","null","resources/images/fishbone.png","null","",NA,NA,NA,NA,""
"image-keyboard-response",248,165864,"0.0-3.79-0.79","5lzzr9z4ga1mtde",366,"105.csv","","179.79999995231628","resources/trios/L2T4A1.jpg","38","restless",0.6,0.7,0.8,0.799455112669831,"false"
"image-keyboard-response",249,166269,"0.0-3.79-1.79","5lzzr9z4ga1mtde",366,"105.csv","","null","resources/maskTrios/BT4B.jpg","null","",NA,NA,NA,NA,""
"image-keyboard-response",250,167475,"0.0-3.79-2.79","5lzzr9z4ga1mtde",366,"105.csv","","null","resources/images/fishbone.png","null","",NA,NA,NA,NA,""
"image-keyboard-response",251,167915,"0.0-3.80-0.80","5lzzr9z4ga1mtde",366,"105.csv","","439.2000000476837","resources/trios/L2T2A3.jpg","37","restless",0.6,0.7,0.8,0.0978528610569638,"true"
"image-keyboard-response",252,168320,"0.0-3.80-1.80","5lzzr9z4ga1mtde",366,"105.csv","","null","resources/maskTrios/L2BB.jpg","null","",NA,NA,NA,NA,""
"image-keyboard-response",253,169523,"0.0-3.80-2.80","5lzzr9z4ga1mtde",366,"105.csv","","null","resources/images/coin2.png","null","",NA,NA,NA,NA,""
"image-keyboard-response",254,169710,"0.0-3.81-0.81","5lzzr9z4ga1mtde",366,"105.csv","","185.5","resources/trios/L4T4A1.jpg","37","restless",0.6,0.6,0.8,0.476674439271645,"true"
"image-keyboard-response",255,170115,"0.0-3.81-1.81","5lzzr9z4ga1mtde",366,"105.csv","","null","resources/maskTrios/L4BB.jpg","null","",NA,NA,NA,NA,""
"image-keyboard-response",256,171320,"0.0-3.81-2.81","5lzzr9z4ga1mtde",366,"105.csv","","null","resources/images/coin2.png","null","",NA,NA,NA,NA,""
"image-keyboard-response",257,171446,"0.0-3.82-0.82","5lzzr9z4ga1mtde",366,"105.csv","","124","resources/trios/L4T2A1.jpg","38","restless",0.6,0.6,0.8,0.773690641250611,"false"
"image-keyboard-response",258,171851,"0.0-3.82-1.82","5lzzr9z4ga1mtde",366,"105.csv","","null","resources/maskTrios/BT2B.jpg","null","",NA,NA,NA,NA,""
"image-keyboard-response",259,173056,"0.0-3.82-2.82","5lzzr9z4ga1mtde",366,"105.csv","","null","resources/images/fishbone.png","null","",NA,NA,NA,NA,""
"image-keyboard-response",260,173186,"0.0-3.83-0.83","5lzzr9z4ga1mtde",366,"105.csv","","130.20000004768372","resources/trios/L4T2A1.jpg","37","restless",0.6,0.6,0.8,0.642561479440253,"false"
"image-keyboard-response",261,173593,"0.0-3.83-1.83","5lzzr9z4ga1mtde",366,"105.csv","","null","resources/maskTrios/L4BB.jpg","null","",NA,NA,NA,NA,""
"image-keyboard-response",262,174796,"0.0-3.83-2.83","5lzzr9z4ga1mtde",366,"105.csv","","null","resources/images/fishbone.png","null","",NA,NA,NA,NA,""
"image-keyboard-response",263,175007,"0.0-3.84-0.84","5lzzr9z4ga1mtde",366,"105.csv","","209.70000004768372","resources/trios/L2T4A1.jpg","37","restless",0.6,0.6,0.8,0.0243800749183376,"true"
"image-keyboard-response",264,175412,"0.0-3.84-1.84","5lzzr9z4ga1mtde",366,"105.csv","","null","resources/maskTrios/L2BB.jpg","null","",NA,NA,NA,NA,""
"image-keyboard-response",265,176614,"0.0-3.84-2.84","5lzzr9z4ga1mtde",366,"105.csv","","null","resources/images/coin2.png","null","",NA,NA,NA,NA,""
"image-keyboard-response",266,176668,"0.0-3.85-0.85","5lzzr9z4ga1mtde",366,"105.csv","","52.89999997615814","resources/trios/L4T2A3.jpg","37","restless",0.6,0.5,0.8,0.142003791881214,"true"
"image-keyboard-response",267,177071,"0.0-3.85-1.85","5lzzr9z4ga1mtde",366,"105.csv","","null","resources/maskTrios/L4BB.jpg","null","",NA,NA,NA,NA,""
"image-keyboard-response",268,178273,"0.0-3.85-2.85","5lzzr9z4ga1mtde",366,"105.csv","","null","resources/images/coin2.png","null","",NA,NA,NA,NA,""
"image-keyboard-response",269,178528,"0.0-3.86-0.86","5lzzr9z4ga1mtde",366,"105.csv","","253.29999995231628","resources/trios/L2T4A1.jpg","37","restless",0.6,0.5,0.9,0.271066255157731,"true"
"image-keyboard-response",270,178933,"0.0-3.86-1.86","5lzzr9z4ga1mtde",366,"105.csv","","null","resources/maskTrios/L2BB.jpg","null","",NA,NA,NA,NA,""
"image-keyboard-response",271,180136,"0.0-3.86-2.86","5lzzr9z4ga1mtde",366,"105.csv","","null","resources/images/coin2.png","null","",NA,NA,NA,NA,""
"image-keyboard-response",272,180350,"0.0-3.87-0.87","5lzzr9z4ga1mtde",366,"105.csv","","211.89999997615814","resources/trios/L4T2A3.jpg","37","restless",0.6,0.5,0.9,0.621469594553079,"false"
"image-keyboard-response",273,180753,"0.0-3.87-1.87","5lzzr9z4ga1mtde",366,"105.csv","","null","resources/maskTrios/L4BB.jpg","null","",NA,NA,NA,NA,""
"image-keyboard-response",274,181956,"0.0-3.87-2.87","5lzzr9z4ga1mtde",366,"105.csv","","null","resources/images/fishbone.png","null","",NA,NA,NA,NA,""
"image-keyboard-response",275,181988,"0.0-3.88-0.88","5lzzr9z4ga1mtde",366,"105.csv","","30.700000047683716","resources/trios/L2T4A3.jpg","37","restless",0.6,0.4,0.9,0.49831583193103,"true"
"image-keyboard-response",276,182392,"0.0-3.88-1.88","5lzzr9z4ga1mtde",366,"105.csv","","null","resources/maskTrios/L2BB.jpg","null","",NA,NA,NA,NA,""
"image-keyboard-response",277,183598,"0.0-3.88-2.88","5lzzr9z4ga1mtde",366,"105.csv","","null","resources/images/coin2.png","null","",NA,NA,NA,NA,""
"image-keyboard-response",278,183621,"0.0-3.89-0.89","5lzzr9z4ga1mtde",366,"105.csv","","22.40000009536743","resources/trios/L2T4A1.jpg","37","restless",0.6,0.4,0.9,0.112476535243742,"true"
"image-keyboard-response",279,184026,"0.0-3.89-1.89","5lzzr9z4ga1mtde",366,"105.csv","","null","resources/maskTrios/L2BB.jpg","null","",NA,NA,NA,NA,""
"image-keyboard-response",280,185229,"0.0-3.89-2.89","5lzzr9z4ga1mtde",366,"105.csv","","null","resources/images/coin2.png","null","",NA,NA,NA,NA,""
"image-keyboard-response",281,185367,"0.0-3.90-0.90","5lzzr9z4ga1mtde",366,"105.csv","","136.09999990463257","resources/trios/L2T2A1.jpg","37","restless",0.6,0.4,0.9,0.259539837157316,"true"
"image-keyboard-response",282,185773,"0.0-3.90-1.90","5lzzr9z4ga1mtde",366,"105.csv","","null","resources/maskTrios/L2BB.jpg","null","",NA,NA,NA,NA,""
"image-keyboard-response",283,186979,"0.0-3.90-2.90","5lzzr9z4ga1mtde",366,"105.csv","","null","resources/images/coin2.png","null","",NA,NA,NA,NA,""
"image-keyboard-response",284,187068,"0.0-3.91-0.91","5lzzr9z4ga1mtde",366,"105.csv","","88.70000004768372","resources/trios/L2T2A1.jpg","37","restless",0.6,0.4,0.9,0.0582585225397858,"true"
"image-keyboard-response",285,187470,"0.0-3.91-1.91","5lzzr9z4ga1mtde",366,"105.csv","","null","resources/maskTrios/L2BB.jpg","null","",NA,NA,NA,NA,""
"image-keyboard-response",286,188672,"0.0-3.91-2.91","5lzzr9z4ga1mtde",366,"105.csv","","null","resources/images/coin2.png","null","",NA,NA,NA,NA,""
"image-keyboard-response",287,188817,"0.0-3.92-0.92","5lzzr9z4ga1mtde",366,"105.csv","","144.80000007152557","resources/trios/L2T2A3.jpg","37","restless",0.6,0.4,0.8,0.232915012280309,"true"
"image-keyboard-response",288,189223,"0.0-3.92-1.92","5lzzr9z4ga1mtde",366,"105.csv","","null","resources/maskTrios/L2BB.jpg","null","",NA,NA,NA,NA,""
"image-keyboard-response",289,190429,"0.0-3.92-2.92","5lzzr9z4ga1mtde",366,"105.csv","","null","resources/images/coin2.png","null","",NA,NA,NA,NA,""
"image-keyboard-response",290,190558,"0.0-3.93-0.93","5lzzr9z4ga1mtde",366,"105.csv","","128.5","resources/trios/L4T4A3.jpg","37","restless",0.6,0.4,0.8,0.586022959544289,"true"
"image-keyboard-response",291,190960,"0.0-3.93-1.93","5lzzr9z4ga1mtde",366,"105.csv","","null","resources/maskTrios/L4BB.jpg","null","",NA,NA,NA,NA,""
"image-keyboard-response",292,192165,"0.0-3.93-2.93","5lzzr9z4ga1mtde",366,"105.csv","","null","resources/images/coin2.png","null","",NA,NA,NA,NA,""
"image-keyboard-response",293,192327,"0.0-3.94-0.94","5lzzr9z4ga1mtde",366,"105.csv","","159.79999995231628","resources/trios/L2T2A1.jpg","37","restless",0.6,0.4,0.8,0.545087307527556,"true"
"image-keyboard-response",294,192733,"0.0-3.94-1.94","5lzzr9z4ga1mtde",366,"105.csv","","null","resources/maskTrios/L2BB.jpg","null","",NA,NA,NA,NA,""
"image-keyboard-response",295,193939,"0.0-3.94-2.94","5lzzr9z4ga1mtde",366,"105.csv","","null","resources/images/coin2.png","null","",NA,NA,NA,NA,""
"image-keyboard-response",296,194049,"0.0-3.95-0.95","5lzzr9z4ga1mtde",366,"105.csv","","108.80000007152557","resources/trios/L2T2A3.jpg","37","restless",0.6,0.4,0.8,0.78887806333472,"false"
"image-keyboard-response",297,194454,"0.0-3.95-1.95","5lzzr9z4ga1mtde",366,"105.csv","","null","resources/maskTrios/L2BB.jpg","null","",NA,NA,NA,NA,""
"image-keyboard-response",298,195659,"0.0-3.95-2.95","5lzzr9z4ga1mtde",366,"105.csv","","null","resources/images/fishbone.png","null","",NA,NA,NA,NA,""
"image-keyboard-response",299,195763,"0.0-3.96-0.96","5lzzr9z4ga1mtde",366,"105.csv","","103.19999992847443","resources/trios/L2T2A3.jpg","37","restless",0.6,0.4,0.8,0.50139628211884,"true"
"image-keyboard-response",300,196169,"0.0-3.96-1.96","5lzzr9z4ga1mtde",366,"105.csv","","null","resources/maskTrios/L2BB.jpg","null","",NA,NA,NA,NA,""
"image-keyboard-response",301,197373,"0.0-3.96-2.96","5lzzr9z4ga1mtde",366,"105.csv","","null","resources/images/coin2.png","null","",NA,NA,NA,NA,""
"image-keyboard-response",302,197550,"0.0-3.97-0.97","5lzzr9z4ga1mtde",366,"105.csv","","176.10000002384186","resources/trios/L4T2A3.jpg","37","restless",0.6,0.4,0.8,0.469864478573157,"true"
"image-keyboard-response",303,197955,"0.0-3.97-1.97","5lzzr9z4ga1mtde",366,"105.csv","","null","resources/maskTrios/L4BB.jpg","null","",NA,NA,NA,NA,""
"image-keyboard-response",304,199160,"0.0-3.97-2.97","5lzzr9z4ga1mtde",366,"105.csv","","null","resources/images/coin2.png","null","",NA,NA,NA,NA,""
"image-keyboard-response",305,199295,"0.0-3.98-0.98","5lzzr9z4ga1mtde",366,"105.csv","","133.89999997615814","resources/trios/L4T4A1.jpg","37","restless",0.6,0.3,0.7,0.201191678777039,"true"
"image-keyboard-response",306,199702,"0.0-3.98-1.98","5lzzr9z4ga1mtde",366,"105.csv","","null","resources/maskTrios/L4BB.jpg","null","",NA,NA,NA,NA,""
"image-keyboard-response",307,200908,"0.0-3.98-2.98","5lzzr9z4ga1mtde",366,"105.csv","","null","resources/images/coin2.png","null","",NA,NA,NA,NA,""
"image-keyboard-response",308,200925,"0.0-3.99-0.99","5lzzr9z4ga1mtde",366,"105.csv","","15.700000047683716","resources/trios/L4T2A3.jpg","37","restless",0.6,0.3,0.7,0.511488285635637,"true"
"image-keyboard-response",309,201331,"0.0-3.99-1.99","5lzzr9z4ga1mtde",366,"105.csv","","null","resources/maskTrios/L4BB.jpg","null","",NA,NA,NA,NA,""
"image-keyboard-response",310,202537,"0.0-3.99-2.99","5lzzr9z4ga1mtde",366,"105.csv","","null","resources/images/coin2.png","null","",NA,NA,NA,NA,""
"image-keyboard-response",311,202601,"0.0-3.100-0.100","5lzzr9z4ga1mtde",366,"105.csv","","63.60000002384186","resources/trios/L4T2A1.jpg","37","restless",0.6,0.3,0.7,0.0371058789301333,"true"
"image-keyboard-response",312,203006,"0.0-3.100-1.100","5lzzr9z4ga1mtde",366,"105.csv","","null","resources/maskTrios/L4BB.jpg","null","",NA,NA,NA,NA,""
"image-keyboard-response",313,204211,"0.0-3.100-2.100","5lzzr9z4ga1mtde",366,"105.csv","","null","resources/images/coin2.png","null","",NA,NA,NA,NA,""
"image-keyboard-response",314,204259,"0.0-3.101-0.101","5lzzr9z4ga1mtde",366,"105.csv","","46.800000071525574","resources/trios/L4T2A1.jpg","37","restless",0.6,0.3,0.6,0.324986038758554,"true"
"image-keyboard-response",315,204660,"0.0-3.101-1.101","5lzzr9z4ga1mtde",366,"105.csv","","null","resources/maskTrios/L4BB.jpg","null","",NA,NA,NA,NA,""
"image-keyboard-response",316,205866,"0.0-3.101-2.101","5lzzr9z4ga1mtde",366,"105.csv","","null","resources/images/coin2.png","null","",NA,NA,NA,NA,""
"image-keyboard-response",317,206171,"0.0-3.102-0.102","5lzzr9z4ga1mtde",366,"105.csv","","303.5","resources/trios/L2T4A3.jpg","37","restless",0.6,0.3,0.6,0.46656178507949,"true"
"image-keyboard-response",318,206574,"0.0-3.102-1.102","5lzzr9z4ga1mtde",366,"105.csv","","null","resources/maskTrios/L2BB.jpg","null","",NA,NA,NA,NA,""
"image-keyboard-response",319,207777,"0.0-3.102-2.102","5lzzr9z4ga1mtde",366,"105.csv","","null","resources/images/coin2.png","null","",NA,NA,NA,NA,""
"image-keyboard-response",320,207832,"0.0-3.103-0.103","5lzzr9z4ga1mtde",366,"105.csv","","54.10000002384186","resources/trios/L4T2A1.jpg","37","restless",0.6,0.3,0.6,0.39715971841605,"true"
"image-keyboard-response",321,208237,"0.0-3.103-1.103","5lzzr9z4ga1mtde",366,"105.csv","","null","resources/maskTrios/L4BB.jpg","null","",NA,NA,NA,NA,""
"image-keyboard-response",322,209443,"0.0-3.103-2.103","5lzzr9z4ga1mtde",366,"105.csv","","null","resources/images/coin2.png","null","",NA,NA,NA,NA,""
"image-keyboard-response",323,209520,"0.0-3.104-0.104","5lzzr9z4ga1mtde",366,"105.csv","","76","resources/trios/L4T4A1.jpg","37","restless",0.6,0.3,0.5,0.469341208759199,"true"
"image-keyboard-response",324,209923,"0.0-3.104-1.104","5lzzr9z4ga1mtde",366,"105.csv","","null","resources/maskTrios/L4BB.jpg","null","",NA,NA,NA,NA,""
"image-keyboard-response",325,211125,"0.0-3.104-2.104","5lzzr9z4ga1mtde",366,"105.csv","","null","resources/images/coin2.png","null","",NA,NA,NA,NA,""
"image-keyboard-response",326,211291,"0.0-3.105-0.105","5lzzr9z4ga1mtde",366,"105.csv","","164.70000004768372","resources/trios/L4T2A3.jpg","37","restless",0.6,0.3,0.4,0.521829241768672,"true"
"image-keyboard-response",327,211694,"0.0-3.105-1.105","5lzzr9z4ga1mtde",366,"105.csv","","null","resources/maskTrios/L4BB.jpg","null","",NA,NA,NA,NA,""
"image-keyboard-response",328,212897,"0.0-3.105-2.105","5lzzr9z4ga1mtde",366,"105.csv","","null","resources/images/coin2.png","null","",NA,NA,NA,NA,""
"image-keyboard-response",329,213060,"0.0-3.106-0.106","5lzzr9z4ga1mtde",366,"105.csv","","161.79999995231628","resources/trios/L2T2A3.jpg","37","restless",0.6,0.3,0.4,0.0613468891069608,"true"
"image-keyboard-response",330,213462,"0.0-3.106-1.106","5lzzr9z4ga1mtde",366,"105.csv","","null","resources/maskTrios/L2BB.jpg","null","",NA,NA,NA,NA,""
"image-keyboard-response",331,214666,"0.0-3.106-2.106","5lzzr9z4ga1mtde",366,"105.csv","","null","resources/images/coin2.png","null","",NA,NA,NA,NA,""
"image-keyboard-response",332,214674,"0.0-3.107-0.107","5lzzr9z4ga1mtde",366,"105.csv","","5.899999976158142","resources/trios/L4T2A3.jpg","37","restless",0.6,0.3,0.4,0.862583011553503,"false"
"image-keyboard-response",333,215077,"0.0-3.107-1.107","5lzzr9z4ga1mtde",366,"105.csv","","null","resources/maskTrios/L4BB.jpg","null","",NA,NA,NA,NA,""
"image-keyboard-response",334,216281,"0.0-3.107-2.107","5lzzr9z4ga1mtde",366,"105.csv","","null","resources/images/fishbone.png","null","",NA,NA,NA,NA,""
"image-keyboard-response",335,216425,"0.0-3.108-0.108","5lzzr9z4ga1mtde",366,"105.csv","","141.89999997615814","resources/trios/L2T2A3.jpg","37","restless",0.6,0.3,0.4,0.669882879268725,"false"
"image-keyboard-response",336,216829,"0.0-3.108-1.108","5lzzr9z4ga1mtde",366,"105.csv","","null","resources/maskTrios/L2BB.jpg","null","",NA,NA,NA,NA,""
"image-keyboard-response",337,218035,"0.0-3.108-2.108","5lzzr9z4ga1mtde",366,"105.csv","","null","resources/images/fishbone.png","null","",NA,NA,NA,NA,""
"image-keyboard-response",338,218109,"0.0-3.109-0.109","5lzzr9z4ga1mtde",366,"105.csv","","72.79999995231628","resources/trios/L4T4A1.jpg","37","restless",0.5,0.3,0.4,0.222495076804203,"true"
"image-keyboard-response",339,218515,"0.0-3.109-1.109","5lzzr9z4ga1mtde",366,"105.csv","","null","resources/maskTrios/L4BB.jpg","null","",NA,NA,NA,NA,""
"image-keyboard-response",340,219722,"0.0-3.109-2.109","5lzzr9z4ga1mtde",366,"105.csv","","null","resources/images/coin2.png","null","",NA,NA,NA,NA,""
"image-keyboard-response",341,219862,"0.0-3.110-0.110","5lzzr9z4ga1mtde",366,"105.csv","","137.80000007152557","resources/trios/L2T2A3.jpg","37","restless",0.5,0.3,0.4,0.813498903947948,"false"
"image-keyboard-response",342,220265,"0.0-3.110-1.110","5lzzr9z4ga1mtde",366,"105.csv","","null","resources/maskTrios/L2BB.jpg","null","",NA,NA,NA,NA,""
"image-keyboard-response",343,221470,"0.0-3.110-2.110","5lzzr9z4ga1mtde",366,"105.csv","","null","resources/images/fishbone.png","null","",NA,NA,NA,NA,""
"image-keyboard-response",344,221818,"0.0-3.111-0.111","5lzzr9z4ga1mtde",366,"105.csv","","347.60000002384186","resources/trios/L4T2A1.jpg","37","restless",0.5,0.3,0.4,0.662847795065565,"false"
"image-keyboard-response",345,222224,"0.0-3.111-1.111","5lzzr9z4ga1mtde",366,"105.csv","","null","resources/maskTrios/L4BB.jpg","null","",NA,NA,NA,NA,""
"image-keyboard-response",346,223427,"0.0-3.111-2.111","5lzzr9z4ga1mtde",366,"105.csv","","null","resources/images/fishbone.png","null","",NA,NA,NA,NA,""
"image-keyboard-response",347,223482,"0.0-3.112-0.112","5lzzr9z4ga1mtde",366,"105.csv","","54.10000002384186","resources/trios/L4T4A1.jpg","37","restless",0.5,0.3,0.4,0.446853597395087,"true"
"image-keyboard-response",348,223888,"0.0-3.112-1.112","5lzzr9z4ga1mtde",366,"105.csv","","null","resources/maskTrios/L4BB.jpg","null","",NA,NA,NA,NA,""
"image-keyboard-response",349,225093,"0.0-3.112-2.112","5lzzr9z4ga1mtde",366,"105.csv","","null","resources/images/coin2.png","null","",NA,NA,NA,NA,""
"image-keyboard-response",350,225279,"0.0-3.113-0.113","5lzzr9z4ga1mtde",366,"105.csv","","184.39999997615814","resources/trios/L2T2A1.jpg","37","restless",0.6,0.3,0.4,0.770795109318031,"false"
"image-keyboard-response",351,225682,"0.0-3.113-1.113","5lzzr9z4ga1mtde",366,"105.csv","","null","resources/maskTrios/L2BB.jpg","null","",NA,NA,NA,NA,""
"image-keyboard-response",352,226888,"0.0-3.113-2.113","5lzzr9z4ga1mtde",366,"105.csv","","null","resources/images/fishbone.png","null","",NA,NA,NA,NA,""
"image-keyboard-response",353,226964,"0.0-3.114-0.114","5lzzr9z4ga1mtde",366,"105.csv","","74.90000009536743","resources/trios/L2T2A3.jpg","37","restless",0.6,0.3,0.4,0.145322258884525,"true"
"image-keyboard-response",354,227366,"0.0-3.114-1.114","5lzzr9z4ga1mtde",366,"105.csv","","null","resources/maskTrios/L2BB.jpg","null","",NA,NA,NA,NA,""
"image-keyboard-response",355,228570,"0.0-3.114-2.114","5lzzr9z4ga1mtde",366,"105.csv","","null","resources/images/coin2.png","null","",NA,NA,NA,NA,""
"image-keyboard-response",356,228610,"0.0-3.115-0.115","5lzzr9z4ga1mtde",366,"105.csv","","37.799999952316284","resources/trios/L2T4A3.jpg","37","restless",0.6,0.3,0.4,0.527487688221704,"true"
"image-keyboard-response",357,229016,"0.0-3.115-1.115","5lzzr9z4ga1mtde",366,"105.csv","","null","resources/maskTrios/L2BB.jpg","null","",NA,NA,NA,NA,""
"image-keyboard-response",358,230218,"0.0-3.115-2.115","5lzzr9z4ga1mtde",366,"105.csv","","null","resources/images/coin2.png","null","",NA,NA,NA,NA,""
"image-keyboard-response",359,230316,"0.0-3.116-0.116","5lzzr9z4ga1mtde",366,"105.csv","","97.39999997615814","resources/trios/L2T2A1.jpg","37","restless",0.6,0.3,0.4,0.794157577081711,"false"
"image-keyboard-response",360,230722,"0.0-3.116-1.116","5lzzr9z4ga1mtde",366,"105.csv","","null","resources/maskTrios/L2BB.jpg","null","",NA,NA,NA,NA,""
"image-keyboard-response",361,231927,"0.0-3.116-2.116","5lzzr9z4ga1mtde",366,"105.csv","","null","resources/images/fishbone.png","null","",NA,NA,NA,NA,""
"image-keyboard-response",362,232032,"0.0-3.117-0.117","5lzzr9z4ga1mtde",366,"105.csv","","103","resources/trios/L4T2A3.jpg","37","restless",0.6,0.3,0.4,0.854259026095237,"false"
"image-keyboard-response",363,232438,"0.0-3.117-1.117","5lzzr9z4ga1mtde",366,"105.csv","","null","resources/maskTrios/L4BB.jpg","null","",NA,NA,NA,NA,""
"image-keyboard-response",364,233641,"0.0-3.117-2.117","5lzzr9z4ga1mtde",366,"105.csv","","null","resources/images/fishbone.png","null","",NA,NA,NA,NA,""
"image-keyboard-response",365,233768,"0.0-3.118-0.118","5lzzr9z4ga1mtde",366,"105.csv","","126.79999995231628","resources/trios/L2T4A1.jpg","38","restless",0.6,0.4,0.4,0.769324655439015,"false"
"image-keyboard-response",366,234173,"0.0-3.118-1.118","5lzzr9z4ga1mtde",366,"105.csv","","null","resources/maskTrios/BT4B.jpg","null","",NA,NA,NA,NA,""
"image-keyboard-response",367,235379,"0.0-3.118-2.118","5lzzr9z4ga1mtde",366,"105.csv","","null","resources/images/fishbone.png","null","",NA,NA,NA,NA,""
"image-keyboard-response",368,235500,"0.0-3.119-0.119","5lzzr9z4ga1mtde",366,"105.csv","","119.59999990463257","resources/trios/L2T4A1.jpg","38","restless",0.6,0.4,0.3,0.510217872805876,"false"
"image-keyboard-response",369,235904,"0.0-3.119-1.119","5lzzr9z4ga1mtde",366,"105.csv","","null","resources/maskTrios/BT4B.jpg","null","",NA,NA,NA,NA,""
"image-keyboard-response",370,237109,"0.0-3.119-2.119","5lzzr9z4ga1mtde",366,"105.csv","","null","resources/images/fishbone.png","null","",NA,NA,NA,NA,""
"image-keyboard-response",371,237201,"0.0-3.120-0.120","5lzzr9z4ga1mtde",366,"105.csv","","89.79999995231628","resources/trios/L2T4A3.jpg","38","restless",0.6,0.4,0.3,0.0976992058914696,"true"
"image-keyboard-response",372,237608,"0.0-3.120-1.120","5lzzr9z4ga1mtde",366,"105.csv","","null","resources/maskTrios/BT4B.jpg","null","",NA,NA,NA,NA,""
"image-keyboard-response",373,238813,"0.0-3.120-2.120","5lzzr9z4ga1mtde",366,"105.csv","","null","resources/images/coin2.png","null","",NA,NA,NA,NA,""
"image-keyboard-response",374,238854,"0.0-3.121-0.121","5lzzr9z4ga1mtde",366,"105.csv","","39.799999952316284","resources/trios/L2T2A3.jpg","38","restless",0.6,0.4,0.3,0.917568847818316,"false"
"image-keyboard-response",375,239259,"0.0-3.121-1.121","5lzzr9z4ga1mtde",366,"105.csv","","null","resources/maskTrios/BT2B.jpg","null","",NA,NA,NA,NA,""
"image-keyboard-response",376,240461,"0.0-3.121-2.121","5lzzr9z4ga1mtde",366,"105.csv","","null","resources/images/fishbone.png","null","",NA,NA,NA,NA,""
"image-keyboard-response",377,240570,"0.0-3.122-0.122","5lzzr9z4ga1mtde",366,"105.csv","","107.80000007152557","resources/trios/L2T4A1.jpg","39","restless",0.6,0.4,0.3,0.871912576103726,"false"
"image-keyboard-response",378,240974,"0.0-3.122-1.122","5lzzr9z4ga1mtde",366,"105.csv","","null","resources/maskTrios/BBA1.jpg","null","",NA,NA,NA,NA,""
"image-keyboard-response",379,242177,"0.0-3.122-2.122","5lzzr9z4ga1mtde",366,"105.csv","","null","resources/images/fishbone.png","null","",NA,NA,NA,NA,""
"image-keyboard-response",380,242337,"0.0-3.123-0.123","5lzzr9z4ga1mtde",366,"105.csv","","158.90000009536743","resources/trios/L4T4A1.jpg","39","restless",0.6,0.4,0.3,0.671375871398399,"false"
"image-keyboard-response",381,242744,"0.0-3.123-1.123","5lzzr9z4ga1mtde",366,"105.csv","","null","resources/maskTrios/BBA1.jpg","null","",NA,NA,NA,NA,""
"image-keyboard-response",382,243949,"0.0-3.123-2.123","5lzzr9z4ga1mtde",366,"105.csv","","null","resources/images/fishbone.png","null","",NA,NA,NA,NA,""
"image-keyboard-response",383,243973,"0.0-3.124-0.124","5lzzr9z4ga1mtde",366,"105.csv","","22.800000071525574","resources/trios/L4T4A1.jpg","38","restless",0.6,0.4,0.3,0.816291455089632,"false"
"image-keyboard-response",384,244376,"0.0-3.124-1.124","5lzzr9z4ga1mtde",366,"105.csv","","null","resources/maskTrios/BT4B.jpg","null","",NA,NA,NA,NA,""
"image-keyboard-response",385,245577,"0.0-3.124-2.124","5lzzr9z4ga1mtde",366,"105.csv","","null","resources/images/fishbone.png","null","",NA,NA,NA,NA,""
"image-keyboard-response",386,245650,"0.0-3.125-0.125","5lzzr9z4ga1mtde",366,"105.csv","","72","resources/trios/L4T4A1.jpg","38","restless",0.6,0.4,0.3,0.903653539959356,"false"
"image-keyboard-response",387,246056,"0.0-3.125-1.125","5lzzr9z4ga1mtde",366,"105.csv","","null","resources/maskTrios/BT4B.jpg","null","",NA,NA,NA,NA,""
"image-keyboard-response",388,247261,"0.0-3.125-2.125","5lzzr9z4ga1mtde",366,"105.csv","","null","resources/images/fishbone.png","null","",NA,NA,NA,NA,""
"image-keyboard-response",389,247466,"0.0-3.126-0.126","5lzzr9z4ga1mtde",366,"105.csv","","204.20000004768372","resources/trios/L4T4A1.jpg","37","restless",0.6,0.4,0.3,0.730319288987254,"false"
"image-keyboard-response",390,247872,"0.0-3.126-1.126","5lzzr9z4ga1mtde",366,"105.csv","","null","resources/maskTrios/L4BB.jpg","null","",NA,NA,NA,NA,""
"image-keyboard-response",391,249078,"0.0-3.126-2.126","5lzzr9z4ga1mtde",366,"105.csv","","null","resources/images/fishbone.png","null","",NA,NA,NA,NA,""
"image-keyboard-response",392,249190,"0.0-3.127-0.127","5lzzr9z4ga1mtde",366,"105.csv","","110.10000002384186","resources/trios/L2T2A3.jpg","39","restless",0.6,0.3,0.3,0.868766893511142,"false"
"image-keyboard-response",393,249595,"0.0-3.127-1.127","5lzzr9z4ga1mtde",366,"105.csv","","null","resources/maskTrios/BBA3.jpg","null","",NA,NA,NA,NA,""
"image-keyboard-response",394,250797,"0.0-3.127-2.127","5lzzr9z4ga1mtde",366,"105.csv","","null","resources/images/fishbone.png","null","",NA,NA,NA,NA,""
"image-keyboard-response",395,250943,"0.0-3.128-0.128","5lzzr9z4ga1mtde",366,"105.csv","","145.39999997615814","resources/trios/L2T2A1.jpg","37","restless",0.6,0.3,0.3,0.206410325896365,"true"
"image-keyboard-response",396,251346,"0.0-3.128-1.128","5lzzr9z4ga1mtde",366,"105.csv","","null","resources/maskTrios/L2BB.jpg","null","",NA,NA,NA,NA,""
"image-keyboard-response",397,252552,"0.0-3.128-2.128","5lzzr9z4ga1mtde",366,"105.csv","","null","resources/images/coin2.png","null","",NA,NA,NA,NA,""
"image-keyboard-response",398,252704,"0.0-3.129-0.129","5lzzr9z4ga1mtde",366,"105.csv","","151.29999995231628","resources/trios/L4T4A3.jpg","37","restless",0.6,0.3,0.4,0.764231648842632,"false"
"image-keyboard-response",399,253106,"0.0-3.129-1.129","5lzzr9z4ga1mtde",366,"105.csv","","null","resources/maskTrios/L4BB.jpg","null","",NA,NA,NA,NA,""
"image-keyboard-response",400,254312,"0.0-3.129-2.129","5lzzr9z4ga1mtde",366,"105.csv","","null","resources/images/fishbone.png","null","",NA,NA,NA,NA,""
"image-keyboard-response",401,254486,"0.0-3.130-0.130","5lzzr9z4ga1mtde",366,"105.csv","","172.39999997615814","resources/trios/L2T4A1.jpg","37","restless",0.6,0.3,0.4,0.233069429819755,"true"
"image-keyboard-response",402,254887,"0.0-3.130-1.130","5lzzr9z4ga1mtde",366,"105.csv","","null","resources/maskTrios/L2BB.jpg","null","",NA,NA,NA,NA,""
"image-keyboard-response",403,256093,"0.0-3.130-2.130","5lzzr9z4ga1mtde",366,"105.csv","","null","resources/images/coin2.png","null","",NA,NA,NA,NA,""
"image-keyboard-response",404,257786,"0.0-3.131-0.131","5lzzr9z4ga1mtde",366,"105.csv","","1690.8999999761581","resources/trios/L2T4A3.jpg","37","restless",0.6,0.3,0.4,0.191042049551793,"true"
"image-keyboard-response",405,258190,"0.0-3.131-1.131","5lzzr9z4ga1mtde",366,"105.csv","","null","resources/maskTrios/L2BB.jpg","null","",NA,NA,NA,NA,""
"image-keyboard-response",406,259394,"0.0-3.131-2.131","5lzzr9z4ga1mtde",366,"105.csv","","null","resources/images/coin2.png","null","",NA,NA,NA,NA,""
"image-keyboard-response",407,259442,"0.0-3.132-0.132","5lzzr9z4ga1mtde",366,"105.csv","","46.89999997615814","resources/trios/L4T4A3.jpg","37","restless",0.6,0.3,0.4,0.922128748413553,"false"
"image-keyboard-response",408,259848,"0.0-3.132-1.132","5lzzr9z4ga1mtde",366,"105.csv","","null","resources/maskTrios/L4BB.jpg","null","",NA,NA,NA,NA,""
"image-keyboard-response",409,261052,"0.0-3.132-2.132","5lzzr9z4ga1mtde",366,"105.csv","","null","resources/images/fishbone.png","null","",NA,NA,NA,NA,""
"image-keyboard-response",410,261130,"0.0-3.133-0.133","5lzzr9z4ga1mtde",366,"105.csv","","76.59999990463257","resources/trios/L2T4A1.jpg","37","restless",0.6,0.3,0.4,0.951168764802558,"false"
"image-keyboard-response",411,261534,"0.0-3.133-1.133","5lzzr9z4ga1mtde",366,"105.csv","","null","resources/maskTrios/L2BB.jpg","null","",NA,NA,NA,NA,""
"image-keyboard-response",412,262738,"0.0-3.133-2.133","5lzzr9z4ga1mtde",366,"105.csv","","null","resources/images/fishbone.png","null","",NA,NA,NA,NA,""
"image-keyboard-response",413,263075,"0.0-3.134-0.134","5lzzr9z4ga1mtde",366,"105.csv","","334.59999990463257","resources/trios/L2T2A1.jpg","37","restless",0.6,0.4,0.4,0.8811952731318,"false"
"image-keyboard-response",414,263480,"0.0-3.134-1.134","5lzzr9z4ga1mtde",366,"105.csv","","null","resources/maskTrios/L2BB.jpg","null","",NA,NA,NA,NA,""
"image-keyboard-response",415,264684,"0.0-3.134-2.134","5lzzr9z4ga1mtde",366,"105.csv","","null","resources/images/fishbone.png","null","",NA,NA,NA,NA,""
"image-keyboard-response",416,265639,"0.0-3.135-0.135","5lzzr9z4ga1mtde",366,"105.csv","","953.6000000238419","resources/trios/L2T2A3.jpg","38","restless",0.6,0.4,0.4,0.114893017191728,"true"
"image-keyboard-response",417,266042,"0.0-3.135-1.135","5lzzr9z4ga1mtde",366,"105.csv","","null","resources/maskTrios/BT2B.jpg","null","",NA,NA,NA,NA,""
"image-keyboard-response",418,267244,"0.0-3.135-2.135","5lzzr9z4ga1mtde",366,"105.csv","","null","resources/images/coin2.png","null","",NA,NA,NA,NA,""
"image-keyboard-response",419,267322,"0.0-3.136-0.136","5lzzr9z4ga1mtde",366,"105.csv","","76.20000004768372","resources/trios/L4T4A1.jpg","38","restless",0.7,0.4,0.4,0.255614778070494,"true"
"image-keyboard-response",420,267725,"0.0-3.136-1.136","5lzzr9z4ga1mtde",366,"105.csv","","null","resources/maskTrios/BT4B.jpg","null","",NA,NA,NA,NA,""
"image-keyboard-response",421,268930,"0.0-3.136-2.136","5lzzr9z4ga1mtde",366,"105.csv","","null","resources/images/coin2.png","null","",NA,NA,NA,NA,""
"image-keyboard-response",422,269084,"0.0-3.137-0.137","5lzzr9z4ga1mtde",366,"105.csv","","152.80000007152557","resources/trios/L4T4A1.jpg","38","restless",0.7,0.4,0.4,0.82765780704052,"false"
"image-keyboard-response",423,269486,"0.0-3.137-1.137","5lzzr9z4ga1mtde",366,"105.csv","","null","resources/maskTrios/BT4B.jpg","null","",NA,NA,NA,NA,""
"image-keyboard-response",424,270690,"0.0-3.137-2.137","5lzzr9z4ga1mtde",366,"105.csv","","null","resources/images/fishbone.png","null","",NA,NA,NA,NA,""
"image-keyboard-response",425,270887,"0.0-3.138-0.138","5lzzr9z4ga1mtde",366,"105.csv","","195.69999992847443","resources/trios/L4T4A3.jpg","38","restless",0.7,0.4,0.4,0.352092594138928,"true"
"image-keyboard-response",426,271293,"0.0-3.138-1.138","5lzzr9z4ga1mtde",366,"105.csv","","null","resources/maskTrios/BT4B.jpg","null","",NA,NA,NA,NA,""
"image-keyboard-response",427,272495,"0.0-3.138-2.138","5lzzr9z4ga1mtde",366,"105.csv","","null","resources/images/coin2.png","null","",NA,NA,NA,NA,""
"image-keyboard-response",428,272568,"0.0-3.139-0.139","5lzzr9z4ga1mtde",366,"105.csv","","72.60000002384186","resources/trios/L4T4A3.jpg","38","restless",0.8,0.3,0.4,0.224238777633501,"true"
"image-keyboard-response",429,272972,"0.0-3.139-1.139","5lzzr9z4ga1mtde",366,"105.csv","","null","resources/maskTrios/BT4B.jpg","null","",NA,NA,NA,NA,""
"image-keyboard-response",430,274178,"0.0-3.139-2.139","5lzzr9z4ga1mtde",366,"105.csv","","null","resources/images/coin2.png","null","",NA,NA,NA,NA,""
"image-keyboard-response",431,274552,"0.0-3.140-0.140","5lzzr9z4ga1mtde",366,"105.csv","","373","resources/trios/L4T2A1.jpg","38","restless",0.8,0.3,0.4,0.016388896946216,"true"
"image-keyboard-response",432,274957,"0.0-3.140-1.140","5lzzr9z4ga1mtde",366,"105.csv","","null","resources/maskTrios/BT2B.jpg","null","",NA,NA,NA,NA,""
"image-keyboard-response",433,276159,"0.0-3.140-2.140","5lzzr9z4ga1mtde",366,"105.csv","","null","resources/images/coin2.png","null","",NA,NA,NA,NA,""
"image-keyboard-response",434,276243,"0.0-3.141-0.141","5lzzr9z4ga1mtde",366,"105.csv","","82.70000004768372","resources/trios/L4T4A3.jpg","38","restless",0.7,0.3,0.4,0.89089341636215,"false"
"image-keyboard-response",435,276647,"0.0-3.141-1.141","5lzzr9z4ga1mtde",366,"105.csv","","null","resources/maskTrios/BT4B.jpg","null","",NA,NA,NA,NA,""
"image-keyboard-response",436,277853,"0.0-3.141-2.141","5lzzr9z4ga1mtde",366,"105.csv","","null","resources/images/fishbone.png","null","",NA,NA,NA,NA,""
"image-keyboard-response",437,277883,"0.0-3.142-0.142","5lzzr9z4ga1mtde",366,"105.csv","","28.90000009536743","resources/trios/L4T2A3.jpg","38","restless",0.7,0.3,0.4,0.544436275016889,"false"
"image-keyboard-response",438,278289,"0.0-3.142-1.142","5lzzr9z4ga1mtde",366,"105.csv","","null","resources/maskTrios/BT2B.jpg","null","",NA,NA,NA,NA,""
"image-keyboard-response",439,279494,"0.0-3.142-2.142","5lzzr9z4ga1mtde",366,"105.csv","","null","resources/images/fishbone.png","null","",NA,NA,NA,NA,""
"image-keyboard-response",440,279662,"0.0-3.143-0.143","5lzzr9z4ga1mtde",366,"105.csv","","166.79999995231628","resources/trios/L4T4A1.jpg","38","restless",0.7,0.3,0.4,0.398746916426549,"false"
"image-keyboard-response",441,280067,"0.0-3.143-1.143","5lzzr9z4ga1mtde",366,"105.csv","","null","resources/maskTrios/BT4B.jpg","null","",NA,NA,NA,NA,""
"image-keyboard-response",442,281273,"0.0-3.143-2.143","5lzzr9z4ga1mtde",366,"105.csv","","null","resources/images/fishbone.png","null","",NA,NA,NA,NA,""
"image-keyboard-response",443,281418,"0.0-3.144-0.144","5lzzr9z4ga1mtde",366,"105.csv","","143.19999992847443","resources/trios/L4T4A1.jpg","38","restless",0.7,0.3,0.4,0.358599225350494,"false"
"image-keyboard-response",444,281821,"0.0-3.144-1.144","5lzzr9z4ga1mtde",366,"105.csv","","null","resources/maskTrios/BT4B.jpg","null","",NA,NA,NA,NA,""
"image-keyboard-response",445,283026,"0.0-3.144-2.144","5lzzr9z4ga1mtde",366,"105.csv","","null","resources/images/fishbone.png","null","",NA,NA,NA,NA,""
"image-keyboard-response",446,283076,"0.0-3.145-0.145","5lzzr9z4ga1mtde",366,"105.csv","","49.700000047683716","resources/trios/L2T2A1.jpg","38","restless",0.7,0.3,0.4,0.0260544866529744,"true"
"image-keyboard-response",447,283481,"0.0-3.145-1.145","5lzzr9z4ga1mtde",366,"105.csv","","null","resources/maskTrios/BT2B.jpg","null","",NA,NA,NA,NA,""
"image-keyboard-response",448,284687,"0.0-3.145-2.145","5lzzr9z4ga1mtde",366,"105.csv","","null","resources/images/coin2.png","null","",NA,NA,NA,NA,""
"image-keyboard-response",449,285021,"0.0-3.146-0.146","5lzzr9z4ga1mtde",366,"105.csv","","333.40000009536743","resources/trios/L4T2A3.jpg","38","restless",0.7,0.2,0.4,0.302158876832486,"false"
"image-keyboard-response",450,285426,"0.0-3.146-1.146","5lzzr9z4ga1mtde",366,"105.csv","","null","resources/maskTrios/BT2B.jpg","null","",NA,NA,NA,NA,""
"image-keyboard-response",451,286631,"0.0-3.146-2.146","5lzzr9z4ga1mtde",366,"105.csv","","null","resources/images/fishbone.png","null","",NA,NA,NA,NA,""
"image-keyboard-response",452,286722,"0.0-3.147-0.147","5lzzr9z4ga1mtde",366,"105.csv","","89.5","resources/trios/L2T2A1.jpg","37","restless",0.7,0.2,0.3,0.119050734934866,"true"
"image-keyboard-response",453,287127,"0.0-3.147-1.147","5lzzr9z4ga1mtde",366,"105.csv","","null","resources/maskTrios/L2BB.jpg","null","",NA,NA,NA,NA,""
"image-keyboard-response",454,288332,"0.0-3.147-2.147","5lzzr9z4ga1mtde",366,"105.csv","","null","resources/images/coin2.png","null","",NA,NA,NA,NA,""
"image-keyboard-response",455,288652,"0.0-3.148-0.148","5lzzr9z4ga1mtde",366,"105.csv","","317.8000000715256","resources/trios/L4T2A1.jpg","37","restless",0.7,0.2,0.3,0.560614316895398,"true"
"image-keyboard-response",456,289056,"0.0-3.148-1.148","5lzzr9z4ga1mtde",366,"105.csv","","null","resources/maskTrios/L4BB.jpg","null","",NA,NA,NA,NA,""
"image-keyboard-response",457,290262,"0.0-3.148-2.148","5lzzr9z4ga1mtde",366,"105.csv","","null","resources/images/coin2.png","null","",NA,NA,NA,NA,""
"image-keyboard-response",458,290427,"0.0-3.149-0.149","5lzzr9z4ga1mtde",366,"105.csv","","164","resources/trios/L4T4A1.jpg","37","restless",0.7,0.2,0.4,0.688284193070037,"true"
"image-keyboard-response",459,290832,"0.0-3.149-1.149","5lzzr9z4ga1mtde",366,"105.csv","","null","resources/maskTrios/L4BB.jpg","null","",NA,NA,NA,NA,""
"image-keyboard-response",460,292033,"0.0-3.149-2.149","5lzzr9z4ga1mtde",366,"105.csv","","null","resources/images/coin2.png","null","",NA,NA,NA,NA,""
"image-keyboard-response",461,292356,"0.0-3.150-0.150","5lzzr9z4ga1mtde",366,"105.csv","","322","resources/trios/L4T4A1.jpg","37","restless",0.7,0.2,0.4,0.455474938675619,"true"
"image-keyboard-response",462,292761,"0.0-3.150-1.150","5lzzr9z4ga1mtde",366,"105.csv","","null","resources/maskTrios/L4BB.jpg","null","",NA,NA,NA,NA,""
"image-keyboard-response",463,293965,"0.0-3.150-2.150","5lzzr9z4ga1mtde",366,"105.csv","","null","resources/images/coin2.png","null","",NA,NA,NA,NA,""
"image-keyboard-response",464,294164,"0.0-3.151-0.151","5lzzr9z4ga1mtde",366,"105.csv","","198.89999997615814","resources/trios/L2T4A1.jpg","37","restless",0.7,0.2,0.5,0.885035807744442,"false"
"image-keyboard-response",465,294568,"0.0-3.151-1.151","5lzzr9z4ga1mtde",366,"105.csv","","null","resources/maskTrios/L2BB.jpg","null","",NA,NA,NA,NA,""
"image-keyboard-response",466,295773,"0.0-3.151-2.151","5lzzr9z4ga1mtde",366,"105.csv","","null","resources/images/fishbone.png","null","",NA,NA,NA,NA,""
"image-keyboard-response",467,295902,"0.0-3.152-0.152","5lzzr9z4ga1mtde",366,"105.csv","","127.80000007152557","resources/trios/L2T4A3.jpg","37","restless",0.7,0.2,0.5,0.861542697726672,"false"
"image-keyboard-response",468,296307,"0.0-3.152-1.152","5lzzr9z4ga1mtde",366,"105.csv","","null","resources/maskTrios/L2BB.jpg","null","",NA,NA,NA,NA,""
"image-keyboard-response",469,297511,"0.0-3.152-2.152","5lzzr9z4ga1mtde",366,"105.csv","","null","resources/images/fishbone.png","null","",NA,NA,NA,NA,""
"image-keyboard-response",470,297619,"0.0-3.153-0.153","5lzzr9z4ga1mtde",366,"105.csv","","106.80000007152557","resources/trios/L2T2A3.jpg","39","restless",0.7,0.2,0.5,0.295781619327459,"true"
"image-keyboard-response",471,298023,"0.0-3.153-1.153","5lzzr9z4ga1mtde",366,"105.csv","","null","resources/maskTrios/BBA3.jpg","null","",NA,NA,NA,NA,""
"image-keyboard-response",472,299229,"0.0-3.153-2.153","5lzzr9z4ga1mtde",366,"105.csv","","null","resources/images/coin2.png","null","",NA,NA,NA,NA,""
"image-keyboard-response",473,299317,"0.0-3.154-0.154","5lzzr9z4ga1mtde",366,"105.csv","","86.40000009536743","resources/trios/L2T2A3.jpg","39","restless",0.7,0.2,0.5,0.0948897429677136,"true"
"image-keyboard-response",474,299722,"0.0-3.154-1.154","5lzzr9z4ga1mtde",366,"105.csv","","null","resources/maskTrios/BBA3.jpg","null","",NA,NA,NA,NA,""
"image-keyboard-response",475,300925,"0.0-3.154-2.154","5lzzr9z4ga1mtde",366,"105.csv","","null","resources/images/coin2.png","null","",NA,NA,NA,NA,""
"image-keyboard-response",476,301148,"0.0-3.155-0.155","5lzzr9z4ga1mtde",366,"105.csv","","221.89999997615814","resources/trios/L4T2A1.jpg","39","restless",0.7,0.2,0.5,0.379975717145735,"true"
"image-keyboard-response",477,301554,"0.0-3.155-1.155","5lzzr9z4ga1mtde",366,"105.csv","","null","resources/maskTrios/BBA1.jpg","null","",NA,NA,NA,NA,""
"image-keyboard-response",478,302761,"0.0-3.155-2.155","5lzzr9z4ga1mtde",366,"105.csv","","null","resources/images/coin2.png","null","",NA,NA,NA,NA,""
"image-keyboard-response",479,302914,"0.0-3.156-0.156","5lzzr9z4ga1mtde",366,"105.csv","","151.70000004768372","resources/trios/L4T2A1.jpg","39","restless",0.7,0.2,0.5,0.0283414561303175,"true"
"image-keyboard-response",480,303320,"0.0-3.156-1.156","5lzzr9z4ga1mtde",366,"105.csv","","null","resources/maskTrios/BBA1.jpg","null","",NA,NA,NA,NA,""
"image-keyboard-response",481,304525,"0.0-3.156-2.156","5lzzr9z4ga1mtde",366,"105.csv","","null","resources/images/coin2.png","null","",NA,NA,NA,NA,""
"image-keyboard-response",482,304912,"0.0-3.157-0.157","5lzzr9z4ga1mtde",366,"105.csv","","386","resources/trios/L4T2A3.jpg","39","restless",0.7,0.2,0.5,0.66579433932673,"false"
"image-keyboard-response",483,305318,"0.0-3.157-1.157","5lzzr9z4ga1mtde",366,"105.csv","","null","resources/maskTrios/BBA3.jpg","null","",NA,NA,NA,NA,""
"image-keyboard-response",484,306522,"0.0-3.157-2.157","5lzzr9z4ga1mtde",366,"105.csv","","null","resources/images/fishbone.png","null","",NA,NA,NA,NA,""
"image-keyboard-response",485,306587,"0.0-3.158-0.158","5lzzr9z4ga1mtde",366,"105.csv","","64.29999995231628","resources/trios/L4T4A1.jpg","39","restless",0.7,0.2,0.5,0.552942549811239,"false"
"image-keyboard-response",486,306992,"0.0-3.158-1.158","5lzzr9z4ga1mtde",366,"105.csv","","null","resources/maskTrios/BBA1.jpg","null","",NA,NA,NA,NA,""
"image-keyboard-response",487,308196,"0.0-3.158-2.158","5lzzr9z4ga1mtde",366,"105.csv","","null","resources/images/fishbone.png","null","",NA,NA,NA,NA,""
"image-keyboard-response",488,308220,"0.0-3.159-0.159","5lzzr9z4ga1mtde",366,"105.csv","","22.700000047683716","resources/trios/L4T2A1.jpg","39","restless",0.7,0.2,0.5,0.765122102229707,"false"
"image-keyboard-response",489,308626,"0.0-3.159-1.159","5lzzr9z4ga1mtde",366,"105.csv","","null","resources/maskTrios/BBA1.jpg","null","",NA,NA,NA,NA,""
"image-keyboard-response",490,309831,"0.0-3.159-2.159","5lzzr9z4ga1mtde",366,"105.csv","","null","resources/images/fishbone.png","null","",NA,NA,NA,NA,""
"image-keyboard-response",491,309938,"0.0-3.160-0.160","5lzzr9z4ga1mtde",366,"105.csv","","105.09999990463257","resources/trios/L2T2A1.jpg","39","restless",0.7,0.2,0.5,0.432610521945007,"true"
"image-keyboard-response",492,310343,"0.0-3.160-1.160","5lzzr9z4ga1mtde",366,"105.csv","","null","resources/maskTrios/BBA1.jpg","null","",NA,NA,NA,NA,""
"image-keyboard-response",493,311549,"0.0-3.160-2.160","5lzzr9z4ga1mtde",366,"105.csv","","null","resources/images/coin2.png","null","",NA,NA,NA,NA,""
"image-keyboard-response",494,311640,"0.0-3.161-0.161","5lzzr9z4ga1mtde",366,"105.csv","","90","resources/trios/L2T2A3.jpg","39","restless",0.7,0.2,0.5,0.79874005159065,"false"
"image-keyboard-response",495,312044,"0.0-3.161-1.161","5lzzr9z4ga1mtde",366,"105.csv","","null","resources/maskTrios/BBA3.jpg","null","",NA,NA,NA,NA,""
"image-keyboard-response",496,313251,"0.0-3.161-2.161","5lzzr9z4ga1mtde",366,"105.csv","","null","resources/images/fishbone.png","null","",NA,NA,NA,NA,""
"image-keyboard-response",497,313333,"0.0-3.162-0.162","5lzzr9z4ga1mtde",366,"105.csv","","80.79999995231628","resources/trios/L2T4A3.jpg","38","restless",0.7,0.2,0.5,0.919504749726501,"false"
"image-keyboard-response",498,313738,"0.0-3.162-1.162","5lzzr9z4ga1mtde",366,"105.csv","","null","resources/maskTrios/BT4B.jpg","null","",NA,NA,NA,NA,""
"image-keyboard-response",499,314939,"0.0-3.162-2.162","5lzzr9z4ga1mtde",366,"105.csv","","null","resources/images/fishbone.png","null","",NA,NA,NA,NA,""
"image-keyboard-response",500,315656,"0.0-3.163-0.163","5lzzr9z4ga1mtde",366,"105.csv","","715.5","resources/trios/L4T2A1.jpg","37","restless",0.7,0.2,0.5,0.546108881190666,"true"
"image-keyboard-response",501,316060,"0.0-3.163-1.163","5lzzr9z4ga1mtde",366,"105.csv","","null","resources/maskTrios/L4BB.jpg","null","",NA,NA,NA,NA,""
"image-keyboard-response",502,317266,"0.0-3.163-2.163","5lzzr9z4ga1mtde",366,"105.csv","","null","resources/images/coin2.png","null","",NA,NA,NA,NA,""
"image-keyboard-response",503,318278,"0.0-3.164-0.164","5lzzr9z4ga1mtde",366,"105.csv","","1010.6000000238419","resources/trios/L2T2A1.jpg","37","restless",0.7,0.2,0.5,0.312310273310637,"true"
"image-keyboard-response",504,318684,"0.0-3.164-1.164","5lzzr9z4ga1mtde",366,"105.csv","","null","resources/maskTrios/L2BB.jpg","null","",NA,NA,NA,NA,""
"image-keyboard-response",505,319889,"0.0-3.164-2.164","5lzzr9z4ga1mtde",366,"105.csv","","null","resources/images/coin2.png","null","",NA,NA,NA,NA,""
"image-keyboard-response",506,319929,"0.0-3.165-0.165","5lzzr9z4ga1mtde",366,"105.csv","","38.89999997615814","resources/trios/L2T4A3.jpg","37","restless",0.7,0.2,0.5,0.882475787101809,"false"
"image-keyboard-response",507,320335,"0.0-3.165-1.165","5lzzr9z4ga1mtde",366,"105.csv","","null","resources/maskTrios/L2BB.jpg","null","",NA,NA,NA,NA,""
"image-keyboard-response",508,321540,"0.0-3.165-2.165","5lzzr9z4ga1mtde",366,"105.csv","","null","resources/images/fishbone.png","null","",NA,NA,NA,NA,""
"image-keyboard-response",509,322091,"0.0-3.166-0.166","5lzzr9z4ga1mtde",366,"105.csv","","549.6000000238419","resources/trios/L4T2A1.jpg","37","restless",0.7,0.3,0.5,0.55097928990153,"true"
"image-keyboard-response",510,322492,"0.0-3.166-1.166","5lzzr9z4ga1mtde",366,"105.csv","","null","resources/maskTrios/L4BB.jpg","null","",NA,NA,NA,NA,""
"image-keyboard-response",511,323698,"0.0-3.166-2.166","5lzzr9z4ga1mtde",366,"105.csv","","null","resources/images/coin2.png","null","",NA,NA,NA,NA,""
"image-keyboard-response",512,323725,"0.0-3.167-0.167","5lzzr9z4ga1mtde",366,"105.csv","","25.200000047683716","resources/trios/L2T4A1.jpg","37","restless",0.7,0.3,0.5,0.6549599014867,"true"
"image-keyboard-response",513,324126,"0.0-3.167-1.167","5lzzr9z4ga1mtde",366,"105.csv","","null","resources/maskTrios/L2BB.jpg","null","",NA,NA,NA,NA,""
"image-keyboard-response",514,325330,"0.0-3.167-2.167","5lzzr9z4ga1mtde",366,"105.csv","","null","resources/images/coin2.png","null","",NA,NA,NA,NA,""
"image-keyboard-response",515,325637,"0.0-3.168-0.168","5lzzr9z4ga1mtde",366,"105.csv","","306.59999990463257","resources/trios/L4T4A3.jpg","37","restless",0.7,0.3,0.5,0.602128910269002,"true"
"image-keyboard-response",516,326042,"0.0-3.168-1.168","5lzzr9z4ga1mtde",366,"105.csv","","null","resources/maskTrios/L4BB.jpg","null","",NA,NA,NA,NA,""
"image-keyboard-response",517,327248,"0.0-3.168-2.168","5lzzr9z4ga1mtde",366,"105.csv","","null","resources/images/coin2.png","null","",NA,NA,NA,NA,""
"image-keyboard-response",518,327272,"0.0-3.169-0.169","5lzzr9z4ga1mtde",366,"105.csv","","21.90000009536743","resources/trios/L2T2A1.jpg","37","restless",0.7,0.3,0.5,0.84308600047673,"false"
"image-keyboard-response",519,327678,"0.0-3.169-1.169","5lzzr9z4ga1mtde",366,"105.csv","","null","resources/maskTrios/L2BB.jpg","null","",NA,NA,NA,NA,""
"image-keyboard-response",520,328884,"0.0-3.169-2.169","5lzzr9z4ga1mtde",366,"105.csv","","null","resources/images/fishbone.png","null","",NA,NA,NA,NA,""
"image-keyboard-response",521,329163,"0.0-3.170-0.170","5lzzr9z4ga1mtde",366,"105.csv","","277.7000000476837","resources/trios/L4T4A3.jpg","37","restless",0.7,0.3,0.5,0.804564991916934,"false"
"image-keyboard-response",522,329570,"0.0-3.170-1.170","5lzzr9z4ga1mtde",366,"105.csv","","null","resources/maskTrios/L4BB.jpg","null","",NA,NA,NA,NA,""
"image-keyboard-response",523,330776,"0.0-3.170-2.170","5lzzr9z4ga1mtde",366,"105.csv","","null","resources/images/fishbone.png","null","",NA,NA,NA,NA,""
"image-keyboard-response",524,332099,"0.0-3.171-0.171","5lzzr9z4ga1mtde",366,"105.csv","","1321.0999999046326","resources/trios/L4T2A1.jpg","37","restless",0.7,0.3,0.5,0.0384234063101347,"true"
"image-keyboard-response",525,332505,"0.0-3.171-1.171","5lzzr9z4ga1mtde",366,"105.csv","","null","resources/maskTrios/L4BB.jpg","null","",NA,NA,NA,NA,""
"image-keyboard-response",526,333710,"0.0-3.171-2.171","5lzzr9z4ga1mtde",366,"105.csv","","null","resources/images/coin2.png","null","",NA,NA,NA,NA,""
"image-keyboard-response",527,334642,"0.0-3.172-0.172","5lzzr9z4ga1mtde",366,"105.csv","","930.0999999046326","resources/trios/L4T4A3.jpg","37","restless",0.7,0.3,0.5,0.586314055719101,"true"
"image-keyboard-response",528,335047,"0.0-3.172-1.172","5lzzr9z4ga1mtde",366,"105.csv","","null","resources/maskTrios/L4BB.jpg","null","",NA,NA,NA,NA,""
"image-keyboard-response",529,336252,"0.0-3.172-2.172","5lzzr9z4ga1mtde",366,"105.csv","","null","resources/images/coin2.png","null","",NA,NA,NA,NA,""
"image-keyboard-response",530,336254,"0.0-3.173-0.173","5lzzr9z4ga1mtde",366,"105.csv","","0.20000004768371582","resources/trios/L2T4A1.jpg","37","restless",0.7,0.3,0.5,0.729412779158642,"false"
"image-keyboard-response",531,336659,"0.0-3.173-1.173","5lzzr9z4ga1mtde",366,"105.csv","","null","resources/maskTrios/L2BB.jpg","null","",NA,NA,NA,NA,""
"image-keyboard-response",532,337863,"0.0-3.173-2.173","5lzzr9z4ga1mtde",366,"105.csv","","null","resources/images/fishbone.png","null","",NA,NA,NA,NA,""
"image-keyboard-response",533,337896,"0.0-3.174-0.174","5lzzr9z4ga1mtde",366,"105.csv","","31.300000071525574","resources/trios/L2T4A3.jpg","37","restless",0.7,0.3,0.5,0.0468051881076514,"true"
"image-keyboard-response",534,338301,"0.0-3.174-1.174","5lzzr9z4ga1mtde",366,"105.csv","","null","resources/maskTrios/L2BB.jpg","null","",NA,NA,NA,NA,""
"image-keyboard-response",535,339507,"0.0-3.174-2.174","5lzzr9z4ga1mtde",366,"105.csv","","null","resources/images/coin2.png","null","",NA,NA,NA,NA,""
"image-keyboard-response",536,339548,"0.0-3.175-0.175","5lzzr9z4ga1mtde",366,"105.csv","","38.799999952316284","resources/trios/L2T4A1.jpg","37","restless",0.7,0.3,0.5,0.132647368846691,"true"
"image-keyboard-response",537,339954,"0.0-3.175-1.175","5lzzr9z4ga1mtde",366,"105.csv","","null","resources/maskTrios/L2BB.jpg","null","",NA,NA,NA,NA,""
"image-keyboard-response",538,341159,"0.0-3.175-2.175","5lzzr9z4ga1mtde",366,"105.csv","","null","resources/images/coin2.png","null","",NA,NA,NA,NA,""
"image-keyboard-response",539,341862,"0.0-3.176-0.176","5lzzr9z4ga1mtde",366,"105.csv","","702","resources/trios/L2T4A3.jpg","37","restless",0.7,0.3,0.5,0.621428059226823,"true"
"image-keyboard-response",540,342268,"0.0-3.176-1.176","5lzzr9z4ga1mtde",366,"105.csv","","null","resources/maskTrios/L2BB.jpg","null","",NA,NA,NA,NA,""
"image-keyboard-response",541,343474,"0.0-3.176-2.176","5lzzr9z4ga1mtde",366,"105.csv","","null","resources/images/coin2.png","null","",NA,NA,NA,NA,""
"image-keyboard-response",542,344008,"0.0-3.177-0.177","5lzzr9z4ga1mtde",366,"105.csv","","533.0999999046326","resources/trios/L2T4A3.jpg","37","restless",0.7,0.4,0.5,0.0351596235086447,"true"
"image-keyboard-response",543,344412,"0.0-3.177-1.177","5lzzr9z4ga1mtde",366,"105.csv","","null","resources/maskTrios/L2BB.jpg","null","",NA,NA,NA,NA,""
"image-keyboard-response",544,345619,"0.0-3.177-2.177","5lzzr9z4ga1mtde",366,"105.csv","","null","resources/images/coin2.png","null","",NA,NA,NA,NA,""
"image-keyboard-response",545,345659,"0.0-3.178-0.178","5lzzr9z4ga1mtde",366,"105.csv","","39","resources/trios/L4T2A3.jpg","37","restless",0.7,0.4,0.5,0.231802481124831,"true"
"image-keyboard-response",546,346063,"0.0-3.178-1.178","5lzzr9z4ga1mtde",366,"105.csv","","null","resources/maskTrios/L4BB.jpg","null","",NA,NA,NA,NA,""
"image-keyboard-response",547,347266,"0.0-3.178-2.178","5lzzr9z4ga1mtde",366,"105.csv","","null","resources/images/coin2.png","null","",NA,NA,NA,NA,""
"image-keyboard-response",548,347643,"0.0-3.179-0.179","5lzzr9z4ga1mtde",366,"105.csv","","375","resources/trios/L2T2A1.jpg","37","restless",0.7,0.5,0.5,0.980637718172361,"false"
"image-keyboard-response",549,348045,"0.0-3.179-1.179","5lzzr9z4ga1mtde",366,"105.csv","","null","resources/maskTrios/L2BB.jpg","null","",NA,NA,NA,NA,""
"image-keyboard-response",550,349249,"0.0-3.179-2.179","5lzzr9z4ga1mtde",366,"105.csv","","null","resources/images/fishbone.png","null","",NA,NA,NA,NA,""
"image-keyboard-response",551,349330,"0.0-3.180-0.180","5lzzr9z4ga1mtde",366,"105.csv","","78.80000007152557","resources/trios/L4T2A1.jpg","37","restless",0.7,0.5,0.5,0.952907199160181,"false"
"image-keyboard-response",552,349734,"0.0-3.180-1.180","5lzzr9z4ga1mtde",366,"105.csv","","null","resources/maskTrios/L4BB.jpg","null","",NA,NA,NA,NA,""
"image-keyboard-response",553,350940,"0.0-3.180-2.180","5lzzr9z4ga1mtde",366,"105.csv","","null","resources/images/fishbone.png","null","",NA,NA,NA,NA,""
"image-keyboard-response",554,351128,"0.0-3.181-0.181","5lzzr9z4ga1mtde",366,"105.csv","","186.10000002384186","resources/trios/L2T4A1.jpg","37","restless",0.7,0.5,0.5,0.210132264663046,"true"
"image-keyboard-response",555,351532,"0.0-3.181-1.181","5lzzr9z4ga1mtde",366,"105.csv","","null","resources/maskTrios/L2BB.jpg","null","",NA,NA,NA,NA,""
"image-keyboard-response",556,352738,"0.0-3.181-2.181","5lzzr9z4ga1mtde",366,"105.csv","","null","resources/images/coin2.png","null","",NA,NA,NA,NA,""
"image-keyboard-response",557,352769,"0.0-3.182-0.182","5lzzr9z4ga1mtde",366,"105.csv","","29.700000047683716","resources/trios/L4T4A3.jpg","37","restless",0.7,0.6,0.5,0.246233142631182,"true"
"image-keyboard-response",558,353175,"0.0-3.182-1.182","5lzzr9z4ga1mtde",366,"105.csv","","null","resources/maskTrios/L4BB.jpg","null","",NA,NA,NA,NA,""
"image-keyboard-response",559,354380,"0.0-3.182-2.182","5lzzr9z4ga1mtde",366,"105.csv","","null","resources/images/coin2.png","null","",NA,NA,NA,NA,""
"image-keyboard-response",560,354432,"0.0-3.183-0.183","5lzzr9z4ga1mtde",366,"105.csv","","50.200000047683716","resources/trios/L2T4A1.jpg","37","restless",0.7,0.6,0.5,0.278985332320392,"true"
"image-keyboard-response",561,354837,"0.0-3.183-1.183","5lzzr9z4ga1mtde",366,"105.csv","","null","resources/maskTrios/L2BB.jpg","null","",NA,NA,NA,NA,""
"image-keyboard-response",562,356040,"0.0-3.183-2.183","5lzzr9z4ga1mtde",366,"105.csv","","null","resources/images/coin2.png","null","",NA,NA,NA,NA,""
"image-keyboard-response",563,356048,"0.0-3.184-0.184","5lzzr9z4ga1mtde",366,"105.csv","","6.100000023841858","resources/trios/L4T4A3.jpg","37","restless",0.7,0.6,0.6,0.213088413399592,"true"
"image-keyboard-response",564,356453,"0.0-3.184-1.184","5lzzr9z4ga1mtde",366,"105.csv","","null","resources/maskTrios/L4BB.jpg","null","",NA,NA,NA,NA,""
"image-keyboard-response",565,357655,"0.0-3.184-2.184","5lzzr9z4ga1mtde",366,"105.csv","","null","resources/images/coin2.png","null","",NA,NA,NA,NA,""
"image-keyboard-response",566,358271,"0.0-3.185-0.185","5lzzr9z4ga1mtde",366,"105.csv","","615.5","resources/trios/L2T4A3.jpg","37","restless",0.7,0.6,0.6,0.746770176035986,"false"
"image-keyboard-response",567,358677,"0.0-3.185-1.185","5lzzr9z4ga1mtde",366,"105.csv","","null","resources/maskTrios/L2BB.jpg","null","",NA,NA,NA,NA,""
"image-keyboard-response",568,359882,"0.0-3.185-2.185","5lzzr9z4ga1mtde",366,"105.csv","","null","resources/images/fishbone.png","null","",NA,NA,NA,NA,""
"image-keyboard-response",569,359932,"0.0-3.186-0.186","5lzzr9z4ga1mtde",366,"105.csv","","48.700000047683716","resources/trios/L2T4A3.jpg","37","restless",0.7,0.6,0.6,0.559500931249529,"true"
"image-keyboard-response",570,360337,"0.0-3.186-1.186","5lzzr9z4ga1mtde",366,"105.csv","","null","resources/maskTrios/L2BB.jpg","null","",NA,NA,NA,NA,""
"image-keyboard-response",571,361544,"0.0-3.186-2.186","5lzzr9z4ga1mtde",366,"105.csv","","null","resources/images/coin2.png","null","",NA,NA,NA,NA,""
"image-keyboard-response",572,361701,"0.0-3.187-0.187","5lzzr9z4ga1mtde",366,"105.csv","","155.60000002384186","resources/trios/L2T2A1.jpg","37","restless",0.7,0.6,0.6,0.127579575614919,"true"
"image-keyboard-response",573,362105,"0.0-3.187-1.187","5lzzr9z4ga1mtde",366,"105.csv","","null","resources/maskTrios/L2BB.jpg","null","",NA,NA,NA,NA,""
"image-keyboard-response",574,363306,"0.0-3.187-2.187","5lzzr9z4ga1mtde",366,"105.csv","","null","resources/images/coin2.png","null","",NA,NA,NA,NA,""
"image-keyboard-response",575,363556,"0.0-3.188-0.188","5lzzr9z4ga1mtde",366,"105.csv","","249.10000002384186","resources/trios/L2T2A1.jpg","37","restless",0.7,0.6,0.6,0.490181675497221,"true"
"image-keyboard-response",576,363959,"0.0-3.188-1.188","5lzzr9z4ga1mtde",366,"105.csv","","null","resources/maskTrios/L2BB.jpg","null","",NA,NA,NA,NA,""
"image-keyboard-response",577,365164,"0.0-3.188-2.188","5lzzr9z4ga1mtde",366,"105.csv","","null","resources/images/coin2.png","null","",NA,NA,NA,NA,""
"image-keyboard-response",578,365191,"0.0-3.189-0.189","5lzzr9z4ga1mtde",366,"105.csv","","24.700000047683716","resources/trios/L4T2A3.jpg","37","restless",0.7,0.6,0.6,0.913062637895447,"false"
"image-keyboard-response",579,365597,"0.0-3.189-1.189","5lzzr9z4ga1mtde",366,"105.csv","","null","resources/maskTrios/L4BB.jpg","null","",NA,NA,NA,NA,""
"image-keyboard-response",580,366799,"0.0-3.189-2.189","5lzzr9z4ga1mtde",366,"105.csv","","null","resources/images/fishbone.png","null","",NA,NA,NA,NA,""
"image-keyboard-response",581,366979,"0.0-3.190-0.190","5lzzr9z4ga1mtde",366,"105.csv","","178.10000002384186","resources/trios/L2T2A1.jpg","37","restless",0.7,0.6,0.6,0.0143809703133655,"true"
"image-keyboard-response",582,367383,"0.0-3.190-1.190","5lzzr9z4ga1mtde",366,"105.csv","","null","resources/maskTrios/L2BB.jpg","null","",NA,NA,NA,NA,""
"image-keyboard-response",583,368588,"0.0-3.190-2.190","5lzzr9z4ga1mtde",366,"105.csv","","null","resources/images/coin2.png","null","",NA,NA,NA,NA,""
"image-keyboard-response",584,368721,"0.0-3.191-0.191","5lzzr9z4ga1mtde",366,"105.csv","","131","resources/trios/L4T2A1.jpg","37","restless",0.7,0.7,0.6,0.76819907748119,"false"
"image-keyboard-response",585,369127,"0.0-3.191-1.191","5lzzr9z4ga1mtde",366,"105.csv","","null","resources/maskTrios/L4BB.jpg","null","",NA,NA,NA,NA,""
"image-keyboard-response",586,370329,"0.0-3.191-2.191","5lzzr9z4ga1mtde",366,"105.csv","","null","resources/images/fishbone.png","null","",NA,NA,NA,NA,""
"image-keyboard-response",587,370525,"0.0-3.192-0.192","5lzzr9z4ga1mtde",366,"105.csv","","194.89999997615814","resources/trios/L4T2A1.jpg","37","restless",0.6,0.7,0.6,0.123859392069704,"true"
"image-keyboard-response",588,370929,"0.0-3.192-1.192","5lzzr9z4ga1mtde",366,"105.csv","","null","resources/maskTrios/L4BB.jpg","null","",NA,NA,NA,NA,""
"image-keyboard-response",589,372135,"0.0-3.192-2.192","5lzzr9z4ga1mtde",366,"105.csv","","null","resources/images/coin2.png","null","",NA,NA,NA,NA,""
"image-keyboard-response",590,373883,"0.0-3.193-0.193","5lzzr9z4ga1mtde",366,"105.csv","","1746.7000000476837","resources/trios/L4T2A3.jpg","37","restless",0.6,0.7,0.6,0.548542088237573,"true"
"image-keyboard-response",591,374290,"0.0-3.193-1.193","5lzzr9z4ga1mtde",366,"105.csv","","null","resources/maskTrios/L4BB.jpg","null","",NA,NA,NA,NA,""
"image-keyboard-response",592,375494,"0.0-3.193-2.193","5lzzr9z4ga1mtde",366,"105.csv","","null","resources/images/coin2.png","null","",NA,NA,NA,NA,""
"image-keyboard-response",593,375556,"0.0-3.194-0.194","5lzzr9z4ga1mtde",366,"105.csv","","60.5","resources/trios/L2T4A1.jpg","37","restless",0.6,0.7,0.6,0.203165097456741,"true"
"image-keyboard-response",594,375960,"0.0-3.194-1.194","5lzzr9z4ga1mtde",366,"105.csv","","null","resources/maskTrios/L2BB.jpg","null","",NA,NA,NA,NA,""
"image-keyboard-response",595,377164,"0.0-3.194-2.194","5lzzr9z4ga1mtde",366,"105.csv","","null","resources/images/coin2.png","null","",NA,NA,NA,NA,""
"image-keyboard-response",596,377817,"0.0-3.195-0.195","5lzzr9z4ga1mtde",366,"105.csv","","651.6000000238419","resources/trios/L2T4A1.jpg","37","restless",0.6,0.7,0.6,0.133726227701457,"true"
"image-keyboard-response",597,378223,"0.0-3.195-1.195","5lzzr9z4ga1mtde",366,"105.csv","","null","resources/maskTrios/L2BB.jpg","null","",NA,NA,NA,NA,""
"image-keyboard-response",598,379427,"0.0-3.195-2.195","5lzzr9z4ga1mtde",366,"105.csv","","null","resources/images/coin2.png","null","",NA,NA,NA,NA,""
"image-keyboard-response",599,379458,"0.0-3.196-0.196","5lzzr9z4ga1mtde",366,"105.csv","","30.300000071525574","resources/trios/L4T4A1.jpg","37","restless",0.6,0.7,0.6,0.154741343618918,"true"
"image-keyboard-response",600,379860,"0.0-3.196-1.196","5lzzr9z4ga1mtde",366,"105.csv","","null","resources/maskTrios/L4BB.jpg","null","",NA,NA,NA,NA,""
"image-keyboard-response",601,381063,"0.0-3.196-2.196","5lzzr9z4ga1mtde",366,"105.csv","","null","resources/images/coin2.png","null","",NA,NA,NA,NA,""
"image-keyboard-response",602,381118,"0.0-3.197-0.197","5lzzr9z4ga1mtde",366,"105.csv","","53.700000047683716","resources/trios/L4T2A1.jpg","37","restless",0.5,0.8,0.6,0.547337476761383,"false"
"image-keyboard-response",603,381521,"0.0-3.197-1.197","5lzzr9z4ga1mtde",366,"105.csv","","null","resources/maskTrios/L4BB.jpg","null","",NA,NA,NA,NA,""
"image-keyboard-response",604,382726,"0.0-3.197-2.197","5lzzr9z4ga1mtde",366,"105.csv","","null","resources/images/fishbone.png","null","",NA,NA,NA,NA,""
"image-keyboard-response",605,382847,"0.0-3.198-0.198","5lzzr9z4ga1mtde",366,"105.csv","","119.69999992847443","resources/trios/L2T2A1.jpg","37","restless",0.4,0.8,0.6,0.171942477512206,"true"
"image-keyboard-response",606,383251,"0.0-3.198-1.198","5lzzr9z4ga1mtde",366,"105.csv","","null","resources/maskTrios/L2BB.jpg","null","",NA,NA,NA,NA,""
