"trial_type","trial_index","time_elapsed","internal_node_id","subject","participantCode","walkNumber","success","rt","stimulus","key_press","test_part","leftProb","midProb","rightProb","generatedNum","correct"
"pavlovia",0,1575,"0.0-0.0","q79w2jphvfdcrv0",956,"22.csv","","","","","",NA,NA,NA,NA,""
"fullscreen",1,469218,"0.0-1.0","q79w2jphvfdcrv0",956,"22.csv","true","","","","",NA,NA,NA,NA,""
"html-keyboard-response",2,491097,"0.0-2.0-0.0","q79w2jphvfdcrv0",956,"22.csv","","21877.600000023842","<p><font size='6'>Arrrgh!</p></font><p>Can you be the best pirate? Try to find lots of gold! But beware, some islands have more gold than others, and over time, the island with the most gold may change. Can YOU figure it out? </p><font size='6'>GOOD LUCK, CAPTAIN!!!</font><p>Press any key to begin</p>","75","",NA,NA,NA,NA,""
"image-keyboard-response",3,494119,"0.0-2.0-1.0","q79w2jphvfdcrv0",956,"22.csv","","null","resources/image_sets/111.png","null","",NA,NA,NA,NA,""
"image-keyboard-response",4,503117,"0.0-2.0-2.0","q79w2jphvfdcrv0",956,"22.csv","","8996.399999976158","resources/image_sets/left_highlight.png","37","",NA,NA,NA,NA,""
"image-keyboard-response",5,505636,"0.0-2.0-3.0","q79w2jphvfdcrv0",956,"22.csv","","2517.1999999284744","resources/image_sets/mid_highlight.png","38","",NA,NA,NA,NA,""
"image-keyboard-response",6,511589,"0.0-2.0-4.0","q79w2jphvfdcrv0",956,"22.csv","","5951.299999952316","resources/image_sets/right_highlight.png","39","",NA,NA,NA,NA,""
"image-keyboard-response",7,514059,"0.0-2.0-5.0","q79w2jphvfdcrv0",956,"22.csv","","2468.2000000476837","resources/image_sets/111.png","13","",NA,NA,NA,NA,""
"image-keyboard-response",8,517334,"0.0-2.0-6.0","q79w2jphvfdcrv0",956,"22.csv","","3273.9000000953674","resources/images/coin2.png","13","",NA,NA,NA,NA,""
"image-keyboard-response",9,521578,"0.0-2.0-7.0","q79w2jphvfdcrv0",956,"22.csv","","4243.100000023842","resources/images/fishbone.png","13","",NA,NA,NA,NA,""
"html-keyboard-response",10,528043,"0.0-2.0-8.0","q79w2jphvfdcrv0",956,"22.csv","","6464.200000047684","<p>Your first journey will be a long one, but you will get a well deserved break at the end</p><p>After the break you will have four more journeys, but each will be much shorter than the first, and you will have breaks in between each</p><p>Press Enter to begin</p>","13","",NA,NA,NA,NA,""
"image-keyboard-response",11,530640,"0.0-3.0-0.0","q79w2jphvfdcrv0",956,"22.csv","","2595.2999999523163","resources/trios/L1T1A1.jpg","39","restless",0.3,0.9,0.7,0.969133806681488,"false"
"image-keyboard-response",12,531063,"0.0-3.0-1.0","q79w2jphvfdcrv0",956,"22.csv","","null","resources/maskTrios/BBA1.jpg","null","",NA,NA,NA,NA,""
"image-keyboard-response",13,532270,"0.0-3.0-2.0","q79w2jphvfdcrv0",956,"22.csv","","null","resources/images/fishbone.png","null","",NA,NA,NA,NA,""
"image-keyboard-response",14,535362,"0.0-3.1-0.1","q79w2jphvfdcrv0",956,"22.csv","","3090.7999999523163","resources/trios/L4T1A2.jpg","39","restless",0.4,0.9,0.7,0.344543504933087,"true"
"image-keyboard-response",15,535778,"0.0-3.1-1.1","q79w2jphvfdcrv0",956,"22.csv","","null","resources/maskTrios/BBA2.jpg","null","",NA,NA,NA,NA,""
"image-keyboard-response",16,536985,"0.0-3.1-2.1","q79w2jphvfdcrv0",956,"22.csv","","null","resources/images/coin2.png","null","",NA,NA,NA,NA,""
"image-keyboard-response",17,537756,"0.0-3.2-0.2","q79w2jphvfdcrv0",956,"22.csv","","769.5","resources/trios/L4T1A1.jpg","39","restless",0.4,0.9,0.7,0.766675040222628,"false"
"image-keyboard-response",18,538168,"0.0-3.2-1.2","q79w2jphvfdcrv0",956,"22.csv","","null","resources/maskTrios/BBA1.jpg","null","",NA,NA,NA,NA,""
"image-keyboard-response",19,539384,"0.0-3.2-2.2","q79w2jphvfdcrv0",956,"22.csv","","null","resources/images/fishbone.png","null","",NA,NA,NA,NA,""
"image-keyboard-response",20,541654,"0.0-3.3-0.3","q79w2jphvfdcrv0",956,"22.csv","","2268.2000000476837","resources/trios/L1T2A1.jpg","39","restless",0.4,0.9,0.7,0.137109256919255,"true"
"image-keyboard-response",21,542072,"0.0-3.3-1.3","q79w2jphvfdcrv0",956,"22.csv","","null","resources/maskTrios/BBA1.jpg","null","",NA,NA,NA,NA,""
"image-keyboard-response",22,543289,"0.0-3.3-2.3","q79w2jphvfdcrv0",956,"22.csv","","null","resources/images/coin2.png","null","",NA,NA,NA,NA,""
"image-keyboard-response",23,543353,"0.0-3.4-0.4","q79w2jphvfdcrv0",956,"22.csv","","62.300000071525574","resources/trios/L4T1A2.jpg","39","restless",0.4,0.9,0.7,0.499924840445324,"true"
"image-keyboard-response",24,543765,"0.0-3.4-1.4","q79w2jphvfdcrv0",956,"22.csv","","null","resources/maskTrios/BBA2.jpg","null","",NA,NA,NA,NA,""
"image-keyboard-response",25,544976,"0.0-3.4-2.4","q79w2jphvfdcrv0",956,"22.csv","","null","resources/images/coin2.png","null","",NA,NA,NA,NA,""
"image-keyboard-response",26,546445,"0.0-3.5-0.5","q79w2jphvfdcrv0",956,"22.csv","","1467.1999999284744","resources/trios/L1T1A1.jpg","39","restless",0.3,0.9,0.7,0.109166037855075,"true"
"image-keyboard-response",27,546861,"0.0-3.5-1.5","q79w2jphvfdcrv0",956,"22.csv","","null","resources/maskTrios/BBA1.jpg","null","",NA,NA,NA,NA,""
"image-keyboard-response",28,548068,"0.0-3.5-2.5","q79w2jphvfdcrv0",956,"22.csv","","null","resources/images/coin2.png","null","",NA,NA,NA,NA,""
"image-keyboard-response",29,550096,"0.0-3.6-0.6","q79w2jphvfdcrv0",956,"22.csv","","2026.6000000238419","resources/trios/L4T2A1.jpg","39","restless",0.3,0.9,0.7,0.437658290429902,"true"
"image-keyboard-response",30,550514,"0.0-3.6-1.6","q79w2jphvfdcrv0",956,"22.csv","","null","resources/maskTrios/BBA1.jpg","null","",NA,NA,NA,NA,""
"image-keyboard-response",31,551725,"0.0-3.6-2.6","q79w2jphvfdcrv0",956,"22.csv","","null","resources/images/coin2.png","null","",NA,NA,NA,NA,""
"image-keyboard-response",32,553230,"0.0-3.7-0.7","q79w2jphvfdcrv0",956,"22.csv","","1503.3999999761581","resources/trios/L1T1A2.jpg","39","restless",0.3,0.9,0.6,0.0094338918866137,"true"
"image-keyboard-response",33,553645,"0.0-3.7-1.7","q79w2jphvfdcrv0",956,"22.csv","","null","resources/maskTrios/BBA2.jpg","null","",NA,NA,NA,NA,""
"image-keyboard-response",34,554864,"0.0-3.7-2.7","q79w2jphvfdcrv0",956,"22.csv","","null","resources/images/coin2.png","null","",NA,NA,NA,NA,""
"image-keyboard-response",35,559949,"0.0-3.8-0.8","q79w2jphvfdcrv0",956,"22.csv","","5082.800000071526","resources/trios/L4T2A2.jpg","39","restless",0.3,0.8,0.7,0.926391174455595,"false"
"image-keyboard-response",36,560362,"0.0-3.8-1.8","q79w2jphvfdcrv0",956,"22.csv","","null","resources/maskTrios/BBA2.jpg","null","",NA,NA,NA,NA,""
"image-keyboard-response",37,561572,"0.0-3.8-2.8","q79w2jphvfdcrv0",956,"22.csv","","null","resources/images/fishbone.png","null","",NA,NA,NA,NA,""
"image-keyboard-response",38,561956,"0.0-3.9-0.9","q79w2jphvfdcrv0",956,"22.csv","","382.10000002384186","resources/trios/L4T1A2.jpg","39","restless",0.3,0.8,0.7,0.943025322366516,"false"
"image-keyboard-response",39,562371,"0.0-3.9-1.9","q79w2jphvfdcrv0",956,"22.csv","","null","resources/maskTrios/BBA2.jpg","null","",NA,NA,NA,NA,""
"image-keyboard-response",40,563586,"0.0-3.9-2.9","q79w2jphvfdcrv0",956,"22.csv","","null","resources/images/fishbone.png","null","",NA,NA,NA,NA,""
"image-keyboard-response",41,563906,"0.0-3.10-0.10","q79w2jphvfdcrv0",956,"22.csv","","318.2000000476837","resources/trios/L4T1A1.jpg","39","restless",0.3,0.8,0.7,0.520470811596887,"true"
"image-keyboard-response",42,564323,"0.0-3.10-1.10","q79w2jphvfdcrv0",956,"22.csv","","null","resources/maskTrios/BBA1.jpg","null","",NA,NA,NA,NA,""
"image-keyboard-response",43,565539,"0.0-3.10-2.10","q79w2jphvfdcrv0",956,"22.csv","","null","resources/images/coin2.png","null","",NA,NA,NA,NA,""
"image-keyboard-response",44,566394,"0.0-3.11-0.11","q79w2jphvfdcrv0",956,"22.csv","","854.3999999761581","resources/trios/L1T2A2.jpg","37","restless",0.3,0.8,0.7,0.337125034152865,"false"
"image-keyboard-response",45,566814,"0.0-3.11-1.11","q79w2jphvfdcrv0",956,"22.csv","","null","resources/maskTrios/L1BB.jpg","null","",NA,NA,NA,NA,""
"image-keyboard-response",46,568025,"0.0-3.11-2.11","q79w2jphvfdcrv0",956,"22.csv","","null","resources/images/fishbone.png","null","",NA,NA,NA,NA,""
"image-keyboard-response",47,568429,"0.0-3.12-0.12","q79w2jphvfdcrv0",956,"22.csv","","402.39999997615814","resources/trios/L1T1A1.jpg","39","restless",0.3,0.8,0.7,0.625050372036216,"true"
"image-keyboard-response",48,568836,"0.0-3.12-1.12","q79w2jphvfdcrv0",956,"22.csv","","null","resources/maskTrios/BBA1.jpg","null","",NA,NA,NA,NA,""
"image-keyboard-response",49,570057,"0.0-3.12-2.12","q79w2jphvfdcrv0",956,"22.csv","","null","resources/images/coin2.png","null","",NA,NA,NA,NA,""
"image-keyboard-response",50,570397,"0.0-3.13-0.13","q79w2jphvfdcrv0",956,"22.csv","","338.10000002384186","resources/trios/L1T1A1.jpg","39","restless",0.3,0.8,0.6,0.111411541831115,"true"
"image-keyboard-response",51,570806,"0.0-3.13-1.13","q79w2jphvfdcrv0",956,"22.csv","","null","resources/maskTrios/BBA1.jpg","null","",NA,NA,NA,NA,""
"image-keyboard-response",52,572025,"0.0-3.13-2.13","q79w2jphvfdcrv0",956,"22.csv","","null","resources/images/coin2.png","null","",NA,NA,NA,NA,""
"image-keyboard-response",53,572117,"0.0-3.14-0.14","q79w2jphvfdcrv0",956,"22.csv","","89.89999997615814","resources/trios/L1T2A1.jpg","39","restless",0.3,0.8,0.6,0.696353509264143,"false"
"image-keyboard-response",54,572528,"0.0-3.14-1.14","q79w2jphvfdcrv0",956,"22.csv","","null","resources/maskTrios/BBA1.jpg","null","",NA,NA,NA,NA,""
"image-keyboard-response",55,573746,"0.0-3.14-2.14","q79w2jphvfdcrv0",956,"22.csv","","null","resources/images/fishbone.png","null","",NA,NA,NA,NA,""
"image-keyboard-response",56,573748,"0.0-3.15-0.15","q79w2jphvfdcrv0",956,"22.csv","","0.3999999761581421","resources/trios/L4T1A2.jpg","39","restless",0.3,0.8,0.6,0.313000934045533,"true"
"image-keyboard-response",57,574158,"0.0-3.15-1.15","q79w2jphvfdcrv0",956,"22.csv","","null","resources/maskTrios/BBA2.jpg","null","",NA,NA,NA,NA,""
"image-keyboard-response",58,575366,"0.0-3.15-2.15","q79w2jphvfdcrv0",956,"22.csv","","null","resources/images/coin2.png","null","",NA,NA,NA,NA,""
"image-keyboard-response",59,577746,"0.0-3.16-0.16","q79w2jphvfdcrv0",956,"22.csv","","2378.1999999284744","resources/trios/L4T2A1.jpg","39","restless",0.3,0.8,0.6,0.997079144389691,"false"
"image-keyboard-response",60,578159,"0.0-3.16-1.16","q79w2jphvfdcrv0",956,"22.csv","","null","resources/maskTrios/BBA1.jpg","null","",NA,NA,NA,NA,""
"image-keyboard-response",61,579376,"0.0-3.16-2.16","q79w2jphvfdcrv0",956,"22.csv","","null","resources/images/fishbone.png","null","",NA,NA,NA,NA,""
"image-keyboard-response",62,581272,"0.0-3.17-0.17","q79w2jphvfdcrv0",956,"22.csv","","1893.6999999284744","resources/trios/L4T1A1.jpg","39","restless",0.3,0.8,0.6,0.420334503102285,"true"
"image-keyboard-response",63,581687,"0.0-3.17-1.17","q79w2jphvfdcrv0",956,"22.csv","","null","resources/maskTrios/BBA1.jpg","null","",NA,NA,NA,NA,""
"image-keyboard-response",64,582896,"0.0-3.17-2.17","q79w2jphvfdcrv0",956,"22.csv","","null","resources/images/coin2.png","null","",NA,NA,NA,NA,""
"image-keyboard-response",65,582904,"0.0-3.18-0.18","q79w2jphvfdcrv0",956,"22.csv","","7.200000047683716","resources/trios/L1T1A2.jpg","39","restless",0.3,0.8,0.6,0.558771097942385,"true"
"image-keyboard-response",66,583306,"0.0-3.18-1.18","q79w2jphvfdcrv0",956,"22.csv","","null","resources/maskTrios/BBA2.jpg","null","",NA,NA,NA,NA,""
"image-keyboard-response",67,584529,"0.0-3.18-2.18","q79w2jphvfdcrv0",956,"22.csv","","null","resources/images/coin2.png","null","",NA,NA,NA,NA,""
"image-keyboard-response",68,584876,"0.0-3.19-0.19","q79w2jphvfdcrv0",956,"22.csv","","344.8000000715256","resources/trios/L1T1A1.jpg","37","restless",0.3,0.8,0.5,0.996533406770144,"false"
"image-keyboard-response",69,585283,"0.0-3.19-1.19","q79w2jphvfdcrv0",956,"22.csv","","null","resources/maskTrios/L1BB.jpg","null","",NA,NA,NA,NA,""
"image-keyboard-response",70,586505,"0.0-3.19-2.19","q79w2jphvfdcrv0",956,"22.csv","","null","resources/images/fishbone.png","null","",NA,NA,NA,NA,""
"image-keyboard-response",71,586718,"0.0-3.20-0.20","q79w2jphvfdcrv0",956,"22.csv","","211.19999992847443","resources/trios/L4T1A2.jpg","39","restless",0.3,0.8,0.5,0.217158747030986,"true"
"image-keyboard-response",72,587137,"0.0-3.20-1.20","q79w2jphvfdcrv0",956,"22.csv","","null","resources/maskTrios/BBA2.jpg","null","",NA,NA,NA,NA,""
"image-keyboard-response",73,588341,"0.0-3.20-2.20","q79w2jphvfdcrv0",956,"22.csv","","null","resources/images/coin2.png","null","",NA,NA,NA,NA,""
"image-keyboard-response",74,588553,"0.0-3.21-0.21","q79w2jphvfdcrv0",956,"22.csv","","211.09999990463257","resources/trios/L4T1A2.jpg","39","restless",0.2,0.8,0.5,0.975915682097487,"false"
"image-keyboard-response",75,588962,"0.0-3.21-1.21","q79w2jphvfdcrv0",956,"22.csv","","null","resources/maskTrios/BBA2.jpg","null","",NA,NA,NA,NA,""
"image-keyboard-response",76,590172,"0.0-3.21-2.21","q79w2jphvfdcrv0",956,"22.csv","","null","resources/images/fishbone.png","null","",NA,NA,NA,NA,""
"image-keyboard-response",77,590174,"0.0-3.22-0.22","q79w2jphvfdcrv0",956,"22.csv","","0.2999999523162842","resources/trios/L4T1A2.jpg","39","restless",0.2,0.8,0.5,0.901845317630868,"false"
"image-keyboard-response",78,590590,"0.0-3.22-1.22","q79w2jphvfdcrv0",956,"22.csv","","null","resources/maskTrios/BBA2.jpg","null","",NA,NA,NA,NA,""
"image-keyboard-response",79,591805,"0.0-3.22-2.22","q79w2jphvfdcrv0",956,"22.csv","","null","resources/images/fishbone.png","null","",NA,NA,NA,NA,""
"image-keyboard-response",80,591870,"0.0-3.23-0.23","q79w2jphvfdcrv0",956,"22.csv","","63.799999952316284","resources/trios/L4T1A1.jpg","39","restless",0.2,0.8,0.5,0.0116971857326358,"true"
"image-keyboard-response",81,592284,"0.0-3.23-1.23","q79w2jphvfdcrv0",956,"22.csv","","null","resources/maskTrios/BBA1.jpg","null","",NA,NA,NA,NA,""
"image-keyboard-response",82,593489,"0.0-3.23-2.23","q79w2jphvfdcrv0",956,"22.csv","","null","resources/images/coin2.png","null","",NA,NA,NA,NA,""
"image-keyboard-response",83,593528,"0.0-3.24-0.24","q79w2jphvfdcrv0",956,"22.csv","","36.89999997615814","resources/trios/L1T2A1.jpg","39","restless",0.2,0.8,0.5,0.143340231394833,"true"
"image-keyboard-response",84,593940,"0.0-3.24-1.24","q79w2jphvfdcrv0",956,"22.csv","","null","resources/maskTrios/BBA1.jpg","null","",NA,NA,NA,NA,""
"image-keyboard-response",85,595151,"0.0-3.24-2.24","q79w2jphvfdcrv0",956,"22.csv","","null","resources/images/coin2.png","null","",NA,NA,NA,NA,""
"image-keyboard-response",86,595414,"0.0-3.25-0.25","q79w2jphvfdcrv0",956,"22.csv","","262","resources/trios/L4T2A1.jpg","39","restless",0.2,0.8,0.5,0.38004863022321,"true"
"image-keyboard-response",87,595825,"0.0-3.25-1.25","q79w2jphvfdcrv0",956,"22.csv","","null","resources/maskTrios/BBA1.jpg","null","",NA,NA,NA,NA,""
"image-keyboard-response",88,597046,"0.0-3.25-2.25","q79w2jphvfdcrv0",956,"22.csv","","null","resources/images/coin2.png","null","",NA,NA,NA,NA,""
"image-keyboard-response",89,597084,"0.0-3.26-0.26","q79w2jphvfdcrv0",956,"22.csv","","37","resources/trios/L4T1A1.jpg","39","restless",0.2,0.8,0.5,0.845044285284495,"false"
"image-keyboard-response",90,597497,"0.0-3.26-1.26","q79w2jphvfdcrv0",956,"22.csv","","null","resources/maskTrios/BBA1.jpg","null","",NA,NA,NA,NA,""
"image-keyboard-response",91,598710,"0.0-3.26-2.26","q79w2jphvfdcrv0",956,"22.csv","","null","resources/images/fishbone.png","null","",NA,NA,NA,NA,""
"image-keyboard-response",92,598718,"0.0-3.27-0.27","q79w2jphvfdcrv0",956,"22.csv","","6.600000023841858","resources/trios/L1T1A2.jpg","38","restless",0.2,0.8,0.5,0.72321870018151,"true"
"image-keyboard-response",93,599122,"0.0-3.27-1.27","q79w2jphvfdcrv0",956,"22.csv","","null","resources/maskTrios/BT1B.jpg","null","",NA,NA,NA,NA,""
"image-keyboard-response",94,600340,"0.0-3.27-2.27","q79w2jphvfdcrv0",956,"22.csv","","null","resources/images/coin2.png","null","",NA,NA,NA,NA,""
"image-keyboard-response",95,600806,"0.0-3.28-0.28","q79w2jphvfdcrv0",956,"22.csv","","464","resources/trios/L4T1A1.jpg","38","restless",0.2,0.8,0.5,0.462893860081258,"true"
"image-keyboard-response",96,601211,"0.0-3.28-1.28","q79w2jphvfdcrv0",956,"22.csv","","null","resources/maskTrios/BT1B.jpg","null","",NA,NA,NA,NA,""
"image-keyboard-response",97,602431,"0.0-3.28-2.28","q79w2jphvfdcrv0",956,"22.csv","","null","resources/images/coin2.png","null","",NA,NA,NA,NA,""
"image-keyboard-response",98,602441,"0.0-3.29-0.29","q79w2jphvfdcrv0",956,"22.csv","","9.200000047683716","resources/trios/L4T1A1.jpg","39","restless",0.2,0.8,0.5,0.732489611762026,"false"
"image-keyboard-response",99,602848,"0.0-3.29-1.29","q79w2jphvfdcrv0",956,"22.csv","","null","resources/maskTrios/BBA1.jpg","null","",NA,NA,NA,NA,""
"image-keyboard-response",100,604062,"0.0-3.29-2.29","q79w2jphvfdcrv0",956,"22.csv","","null","resources/images/fishbone.png","null","",NA,NA,NA,NA,""
"image-keyboard-response",101,604244,"0.0-3.30-0.30","q79w2jphvfdcrv0",956,"22.csv","","180","resources/trios/L4T2A2.jpg","39","restless",0.2,0.8,0.5,0.569260553030793,"false"
"image-keyboard-response",102,604656,"0.0-3.30-1.30","q79w2jphvfdcrv0",956,"22.csv","","null","resources/maskTrios/BBA2.jpg","null","",NA,NA,NA,NA,""
"image-keyboard-response",103,605866,"0.0-3.30-2.30","q79w2jphvfdcrv0",956,"22.csv","","null","resources/images/fishbone.png","null","",NA,NA,NA,NA,""
"image-keyboard-response",104,605974,"0.0-3.31-0.31","q79w2jphvfdcrv0",956,"22.csv","","106.10000002384186","resources/trios/L4T1A2.jpg","39","restless",0.2,0.8,0.5,0.066933545826581,"true"
"image-keyboard-response",105,606387,"0.0-3.31-1.31","q79w2jphvfdcrv0",956,"22.csv","","null","resources/maskTrios/BBA2.jpg","null","",NA,NA,NA,NA,""
"image-keyboard-response",106,607607,"0.0-3.31-2.31","q79w2jphvfdcrv0",956,"22.csv","","null","resources/images/coin2.png","null","",NA,NA,NA,NA,""
"image-keyboard-response",107,607722,"0.0-3.32-0.32","q79w2jphvfdcrv0",956,"22.csv","","114.10000002384186","resources/trios/L4T2A1.jpg","37","restless",0.2,0.8,0.5,0.529140136643753,"false"
"image-keyboard-response",108,608140,"0.0-3.32-1.32","q79w2jphvfdcrv0",956,"22.csv","","null","resources/maskTrios/L4BB.jpg","null","",NA,NA,NA,NA,""
"image-keyboard-response",109,609359,"0.0-3.32-2.32","q79w2jphvfdcrv0",956,"22.csv","","null","resources/images/fishbone.png","null","",NA,NA,NA,NA,""
"image-keyboard-response",110,609447,"0.0-3.33-0.33","q79w2jphvfdcrv0",956,"22.csv","","85.90000009536743","resources/trios/L1T2A1.jpg","39","restless",0.2,0.8,0.4,0.0648152505058448,"true"
"image-keyboard-response",111,609861,"0.0-3.33-1.33","q79w2jphvfdcrv0",956,"22.csv","","null","resources/maskTrios/BBA1.jpg","null","",NA,NA,NA,NA,""
"image-keyboard-response",112,611071,"0.0-3.33-2.33","q79w2jphvfdcrv0",956,"22.csv","","null","resources/images/coin2.png","null","",NA,NA,NA,NA,""
"image-keyboard-response",113,611733,"0.0-3.34-0.34","q79w2jphvfdcrv0",956,"22.csv","","659.5999999046326","resources/trios/L4T2A2.jpg","39","restless",0.2,0.8,0.4,0.109116145663617,"true"
"image-keyboard-response",114,612144,"0.0-3.34-1.34","q79w2jphvfdcrv0",956,"22.csv","","null","resources/maskTrios/BBA2.jpg","null","",NA,NA,NA,NA,""
"image-keyboard-response",115,613354,"0.0-3.34-2.34","q79w2jphvfdcrv0",956,"22.csv","","null","resources/images/coin2.png","null","",NA,NA,NA,NA,""
"image-keyboard-response",116,614040,"0.0-3.35-0.35","q79w2jphvfdcrv0",956,"22.csv","","684.1000000238419","resources/trios/L4T2A1.jpg","37","restless",0.1,0.8,0.4,0.700448632900406,"false"
"image-keyboard-response",117,614464,"0.0-3.35-1.35","q79w2jphvfdcrv0",956,"22.csv","","null","resources/maskTrios/L4BB.jpg","null","",NA,NA,NA,NA,""
"image-keyboard-response",118,615683,"0.0-3.35-2.35","q79w2jphvfdcrv0",956,"22.csv","","null","resources/images/fishbone.png","null","",NA,NA,NA,NA,""
"image-keyboard-response",119,617086,"0.0-3.36-0.36","q79w2jphvfdcrv0",956,"22.csv","","1401.1999999284744","resources/trios/L4T1A1.jpg","39","restless",0.1,0.7,0.4,0.987228123264338,"false"
"image-keyboard-response",120,617494,"0.0-3.36-1.36","q79w2jphvfdcrv0",956,"22.csv","","null","resources/maskTrios/BBA1.jpg","null","",NA,NA,NA,NA,""
"image-keyboard-response",121,618702,"0.0-3.36-2.36","q79w2jphvfdcrv0",956,"22.csv","","null","resources/images/fishbone.png","null","",NA,NA,NA,NA,""
"image-keyboard-response",122,619078,"0.0-3.37-0.37","q79w2jphvfdcrv0",956,"22.csv","","375","resources/trios/L1T1A1.jpg","37","restless",0.1,0.7,0.4,0.878871259876466,"false"
"image-keyboard-response",123,619486,"0.0-3.37-1.37","q79w2jphvfdcrv0",956,"22.csv","","null","resources/maskTrios/L1BB.jpg","null","",NA,NA,NA,NA,""
"image-keyboard-response",124,620698,"0.0-3.37-2.37","q79w2jphvfdcrv0",956,"22.csv","","null","resources/images/fishbone.png","null","",NA,NA,NA,NA,""
"image-keyboard-response",125,623249,"0.0-3.38-0.38","q79w2jphvfdcrv0",956,"22.csv","","2549.899999976158","resources/trios/L1T1A1.jpg","38","restless",0.1,0.7,0.4,0.886522702377462,"false"
"image-keyboard-response",126,623664,"0.0-3.38-1.38","q79w2jphvfdcrv0",956,"22.csv","","null","resources/maskTrios/BT1B.jpg","null","",NA,NA,NA,NA,""
"image-keyboard-response",127,624887,"0.0-3.38-2.38","q79w2jphvfdcrv0",956,"22.csv","","null","resources/images/fishbone.png","null","",NA,NA,NA,NA,""
"image-keyboard-response",128,625374,"0.0-3.39-0.39","q79w2jphvfdcrv0",956,"22.csv","","485.1999999284744","resources/trios/L1T1A2.jpg","39","restless",0.1,0.7,0.4,0.896156710926988,"false"
"image-keyboard-response",129,625786,"0.0-3.39-1.39","q79w2jphvfdcrv0",956,"22.csv","","null","resources/maskTrios/BBA2.jpg","null","",NA,NA,NA,NA,""
"image-keyboard-response",130,627006,"0.0-3.39-2.39","q79w2jphvfdcrv0",956,"22.csv","","null","resources/images/fishbone.png","null","",NA,NA,NA,NA,""
"image-keyboard-response",131,627331,"0.0-3.40-0.40","q79w2jphvfdcrv0",956,"22.csv","","322.8000000715256","resources/trios/L4T1A2.jpg","37","restless",0.1,0.7,0.4,0.111015102700043,"false"
"image-keyboard-response",132,627742,"0.0-3.40-1.40","q79w2jphvfdcrv0",956,"22.csv","","null","resources/maskTrios/L4BB.jpg","null","",NA,NA,NA,NA,""
"image-keyboard-response",133,628953,"0.0-3.40-2.40","q79w2jphvfdcrv0",956,"22.csv","","null","resources/images/fishbone.png","null","",NA,NA,NA,NA,""
"image-keyboard-response",134,629276,"0.0-3.41-0.41","q79w2jphvfdcrv0",956,"22.csv","","322","resources/trios/L1T1A2.jpg","39","restless",0.1,0.7,0.4,0.195011435994868,"true"
"image-keyboard-response",135,629685,"0.0-3.41-1.41","q79w2jphvfdcrv0",956,"22.csv","","null","resources/maskTrios/BBA2.jpg","null","",NA,NA,NA,NA,""
"image-keyboard-response",136,630889,"0.0-3.41-2.41","q79w2jphvfdcrv0",956,"22.csv","","null","resources/images/coin2.png","null","",NA,NA,NA,NA,""
"image-keyboard-response",137,631603,"0.0-3.42-0.42","q79w2jphvfdcrv0",956,"22.csv","","712.3999999761581","resources/trios/L1T1A1.jpg","39","restless",0.2,0.7,0.4,0.666079041606546,"false"
"image-keyboard-response",138,632016,"0.0-3.42-1.42","q79w2jphvfdcrv0",956,"22.csv","","null","resources/maskTrios/BBA1.jpg","null","",NA,NA,NA,NA,""
"image-keyboard-response",139,633231,"0.0-3.42-2.42","q79w2jphvfdcrv0",956,"22.csv","","null","resources/images/fishbone.png","null","",NA,NA,NA,NA,""
"image-keyboard-response",140,634243,"0.0-3.43-0.43","q79w2jphvfdcrv0",956,"22.csv","","1010.6000000238419","resources/trios/L4T2A1.jpg","39","restless",0.2,0.7,0.4,0.598818014629783,"false"
"image-keyboard-response",141,634653,"0.0-3.43-1.43","q79w2jphvfdcrv0",956,"22.csv","","null","resources/maskTrios/BBA1.jpg","null","",NA,NA,NA,NA,""
"image-keyboard-response",142,635861,"0.0-3.43-2.43","q79w2jphvfdcrv0",956,"22.csv","","null","resources/images/fishbone.png","null","",NA,NA,NA,NA,""
"image-keyboard-response",143,636224,"0.0-3.44-0.44","q79w2jphvfdcrv0",956,"22.csv","","361.10000002384186","resources/trios/L1T1A2.jpg","37","restless",0.2,0.7,0.4,0.00726626542754261,"true"
"image-keyboard-response",144,636637,"0.0-3.44-1.44","q79w2jphvfdcrv0",956,"22.csv","","null","resources/maskTrios/L1BB.jpg","null","",NA,NA,NA,NA,""
"image-keyboard-response",145,637844,"0.0-3.44-2.44","q79w2jphvfdcrv0",956,"22.csv","","null","resources/images/coin2.png","null","",NA,NA,NA,NA,""
"image-keyboard-response",146,638673,"0.0-3.45-0.45","q79w2jphvfdcrv0",956,"22.csv","","826.7999999523163","resources/trios/L4T2A1.jpg","39","restless",0.2,0.7,0.4,0.902493401050689,"false"
"image-keyboard-response",147,639082,"0.0-3.45-1.45","q79w2jphvfdcrv0",956,"22.csv","","null","resources/maskTrios/BBA1.jpg","null","",NA,NA,NA,NA,""
"image-keyboard-response",148,640292,"0.0-3.45-2.45","q79w2jphvfdcrv0",956,"22.csv","","null","resources/images/fishbone.png","null","",NA,NA,NA,NA,""
"image-keyboard-response",149,640698,"0.0-3.46-0.46","q79w2jphvfdcrv0",956,"22.csv","","404.39999997615814","resources/trios/L1T2A1.jpg","37","restless",0.2,0.7,0.4,0.868716722941002,"false"
"image-keyboard-response",150,641113,"0.0-3.46-1.46","q79w2jphvfdcrv0",956,"22.csv","","null","resources/maskTrios/L1BB.jpg","null","",NA,NA,NA,NA,""
"image-keyboard-response",151,642326,"0.0-3.46-2.46","q79w2jphvfdcrv0",956,"22.csv","","null","resources/images/fishbone.png","null","",NA,NA,NA,NA,""
"image-keyboard-response",152,642513,"0.0-3.47-0.47","q79w2jphvfdcrv0",956,"22.csv","","186.10000002384186","resources/trios/L4T2A1.jpg","37","restless",0.2,0.7,0.4,0.353225496001254,"false"
"image-keyboard-response",153,642933,"0.0-3.47-1.47","q79w2jphvfdcrv0",956,"22.csv","","null","resources/maskTrios/L4BB.jpg","null","",NA,NA,NA,NA,""
"image-keyboard-response",154,644151,"0.0-3.47-2.47","q79w2jphvfdcrv0",956,"22.csv","","null","resources/images/fishbone.png","null","",NA,NA,NA,NA,""
"image-keyboard-response",155,644478,"0.0-3.48-0.48","q79w2jphvfdcrv0",956,"22.csv","","325.60000002384186","resources/trios/L1T2A2.jpg","39","restless",0.2,0.7,0.4,0.957226232557961,"false"
"image-keyboard-response",156,644882,"0.0-3.48-1.48","q79w2jphvfdcrv0",956,"22.csv","","null","resources/maskTrios/BBA2.jpg","null","",NA,NA,NA,NA,""
"image-keyboard-response",157,646098,"0.0-3.48-2.48","q79w2jphvfdcrv0",956,"22.csv","","null","resources/images/fishbone.png","null","",NA,NA,NA,NA,""
"image-keyboard-response",158,646470,"0.0-3.49-0.49","q79w2jphvfdcrv0",956,"22.csv","","370.6999999284744","resources/trios/L4T1A1.jpg","39","restless",0.2,0.7,0.4,0.0583185039073071,"true"
"image-keyboard-response",159,646887,"0.0-3.49-1.49","q79w2jphvfdcrv0",956,"22.csv","","null","resources/maskTrios/BBA1.jpg","null","",NA,NA,NA,NA,""
"image-keyboard-response",160,648109,"0.0-3.49-2.49","q79w2jphvfdcrv0",956,"22.csv","","null","resources/images/coin2.png","null","",NA,NA,NA,NA,""
"image-keyboard-response",161,648253,"0.0-3.50-0.50","q79w2jphvfdcrv0",956,"22.csv","","142.29999995231628","resources/trios/L4T2A2.jpg","37","restless",0.3,0.7,0.4,0.295559853341605,"true"
"image-keyboard-response",162,648672,"0.0-3.50-1.50","q79w2jphvfdcrv0",956,"22.csv","","null","resources/maskTrios/L4BB.jpg","null","",NA,NA,NA,NA,""
"image-keyboard-response",163,649892,"0.0-3.50-2.50","q79w2jphvfdcrv0",956,"22.csv","","null","resources/images/coin2.png","null","",NA,NA,NA,NA,""
"image-keyboard-response",164,650266,"0.0-3.51-0.51","q79w2jphvfdcrv0",956,"22.csv","","372.40000009536743","resources/trios/L1T2A1.jpg","37","restless",0.2,0.7,0.4,0.879138418766207,"false"
"image-keyboard-response",165,650676,"0.0-3.51-1.51","q79w2jphvfdcrv0",956,"22.csv","","null","resources/maskTrios/L1BB.jpg","null","",NA,NA,NA,NA,""
"image-keyboard-response",166,651879,"0.0-3.51-2.51","q79w2jphvfdcrv0",956,"22.csv","","null","resources/images/fishbone.png","null","",NA,NA,NA,NA,""
"image-keyboard-response",167,652273,"0.0-3.52-0.52","q79w2jphvfdcrv0",956,"22.csv","","392.2999999523163","resources/trios/L4T1A2.jpg","37","restless",0.3,0.7,0.4,0.0587274213161688,"true"
"image-keyboard-response",168,652681,"0.0-3.52-1.52","q79w2jphvfdcrv0",956,"22.csv","","null","resources/maskTrios/L4BB.jpg","null","",NA,NA,NA,NA,""
"image-keyboard-response",169,653897,"0.0-3.52-2.52","q79w2jphvfdcrv0",956,"22.csv","","null","resources/images/coin2.png","null","",NA,NA,NA,NA,""
"image-keyboard-response",170,653971,"0.0-3.53-0.53","q79w2jphvfdcrv0",956,"22.csv","","71.70000004768372","resources/trios/L1T2A1.jpg","37","restless",0.3,0.7,0.4,0.559967840904074,"false"
"image-keyboard-response",171,654379,"0.0-3.53-1.53","q79w2jphvfdcrv0",956,"22.csv","","null","resources/maskTrios/L1BB.jpg","null","",NA,NA,NA,NA,""
"image-keyboard-response",172,655590,"0.0-3.53-2.53","q79w2jphvfdcrv0",956,"22.csv","","null","resources/images/fishbone.png","null","",NA,NA,NA,NA,""
"image-keyboard-response",173,655782,"0.0-3.54-0.54","q79w2jphvfdcrv0",956,"22.csv","","190.20000004768372","resources/trios/L1T1A2.jpg","37","restless",0.3,0.7,0.4,0.219271418641046,"true"
"image-keyboard-response",174,656188,"0.0-3.54-1.54","q79w2jphvfdcrv0",956,"22.csv","","null","resources/maskTrios/L1BB.jpg","null","",NA,NA,NA,NA,""
"image-keyboard-response",175,657394,"0.0-3.54-2.54","q79w2jphvfdcrv0",956,"22.csv","","null","resources/images/coin2.png","null","",NA,NA,NA,NA,""
"image-keyboard-response",176,657587,"0.0-3.55-0.55","q79w2jphvfdcrv0",956,"22.csv","","191.20000004768372","resources/trios/L4T2A1.jpg","37","restless",0.3,0.7,0.4,0.239431820156006,"true"
"image-keyboard-response",177,657998,"0.0-3.55-1.55","q79w2jphvfdcrv0",956,"22.csv","","null","resources/maskTrios/L4BB.jpg","null","",NA,NA,NA,NA,""
"image-keyboard-response",178,659212,"0.0-3.55-2.55","q79w2jphvfdcrv0",956,"22.csv","","null","resources/images/coin2.png","null","",NA,NA,NA,NA,""
"image-keyboard-response",179,659268,"0.0-3.56-0.56","q79w2jphvfdcrv0",956,"22.csv","","54.300000071525574","resources/trios/L4T2A2.jpg","37","restless",0.3,0.7,0.4,0.22767014466755,"true"
"image-keyboard-response",180,659687,"0.0-3.56-1.56","q79w2jphvfdcrv0",956,"22.csv","","null","resources/maskTrios/L4BB.jpg","null","",NA,NA,NA,NA,""
"image-keyboard-response",181,660910,"0.0-3.56-2.56","q79w2jphvfdcrv0",956,"22.csv","","null","resources/images/coin2.png","null","",NA,NA,NA,NA,""
"image-keyboard-response",182,661011,"0.0-3.57-0.57","q79w2jphvfdcrv0",956,"22.csv","","99.60000002384186","resources/trios/L4T2A2.jpg","37","restless",0.3,0.7,0.4,0.775880151426265,"false"
"image-keyboard-response",183,661429,"0.0-3.57-1.57","q79w2jphvfdcrv0",956,"22.csv","","null","resources/maskTrios/L4BB.jpg","null","",NA,NA,NA,NA,""
"image-keyboard-response",184,662635,"0.0-3.57-2.57","q79w2jphvfdcrv0",956,"22.csv","","null","resources/images/fishbone.png","null","",NA,NA,NA,NA,""
"image-keyboard-response",185,663081,"0.0-3.58-0.58","q79w2jphvfdcrv0",956,"22.csv","","444.6999999284744","resources/trios/L1T1A1.jpg","39","restless",0.3,0.7,0.4,0.288950197789716,"true"
"image-keyboard-response",186,663497,"0.0-3.58-1.58","q79w2jphvfdcrv0",956,"22.csv","","null","resources/maskTrios/BBA1.jpg","null","",NA,NA,NA,NA,""
"image-keyboard-response",187,664710,"0.0-3.58-2.58","q79w2jphvfdcrv0",956,"22.csv","","null","resources/images/coin2.png","null","",NA,NA,NA,NA,""
"image-keyboard-response",188,664756,"0.0-3.59-0.59","q79w2jphvfdcrv0",956,"22.csv","","44","resources/trios/L1T2A1.jpg","39","restless",0.3,0.8,0.4,0.413246996540102,"false"
"image-keyboard-response",189,665173,"0.0-3.59-1.59","q79w2jphvfdcrv0",956,"22.csv","","null","resources/maskTrios/BBA1.jpg","null","",NA,NA,NA,NA,""
"image-keyboard-response",190,666383,"0.0-3.59-2.59","q79w2jphvfdcrv0",956,"22.csv","","null","resources/images/fishbone.png","null","",NA,NA,NA,NA,""
"image-keyboard-response",191,666409,"0.0-3.60-0.60","q79w2jphvfdcrv0",956,"22.csv","","24.800000071525574","resources/trios/L1T2A1.jpg","37","restless",0.3,0.8,0.4,0.852309528657166,"false"
"image-keyboard-response",192,666831,"0.0-3.60-1.60","q79w2jphvfdcrv0",956,"22.csv","","null","resources/maskTrios/L1BB.jpg","null","",NA,NA,NA,NA,""
"image-keyboard-response",193,668046,"0.0-3.60-2.60","q79w2jphvfdcrv0",956,"22.csv","","null","resources/images/fishbone.png","null","",NA,NA,NA,NA,""
"image-keyboard-response",194,668139,"0.0-3.61-0.61","q79w2jphvfdcrv0",956,"22.csv","","91.5","resources/trios/L4T2A2.jpg","37","restless",0.3,0.8,0.4,0.826083484369903,"false"
"image-keyboard-response",195,668545,"0.0-3.61-1.61","q79w2jphvfdcrv0",956,"22.csv","","null","resources/maskTrios/L4BB.jpg","null","",NA,NA,NA,NA,""
"image-keyboard-response",196,669767,"0.0-3.61-2.61","q79w2jphvfdcrv0",956,"22.csv","","null","resources/images/fishbone.png","null","",NA,NA,NA,NA,""
"image-keyboard-response",197,669804,"0.0-3.62-0.62","q79w2jphvfdcrv0",956,"22.csv","","34.299999952316284","resources/trios/L4T2A2.jpg","37","restless",0.3,0.8,0.4,0.177640374151363,"true"
"image-keyboard-response",198,670210,"0.0-3.62-1.62","q79w2jphvfdcrv0",956,"22.csv","","null","resources/maskTrios/L4BB.jpg","null","",NA,NA,NA,NA,""
"image-keyboard-response",199,671422,"0.0-3.62-2.62","q79w2jphvfdcrv0",956,"22.csv","","null","resources/images/coin2.png","null","",NA,NA,NA,NA,""
"image-keyboard-response",200,671528,"0.0-3.63-0.63","q79w2jphvfdcrv0",956,"22.csv","","104","resources/trios/L4T1A2.jpg","39","restless",0.4,0.8,0.4,0.747136981414472,"false"
"image-keyboard-response",201,671942,"0.0-3.63-1.63","q79w2jphvfdcrv0",956,"22.csv","","null","resources/maskTrios/BBA2.jpg","null","",NA,NA,NA,NA,""
"image-keyboard-response",202,673144,"0.0-3.63-2.63","q79w2jphvfdcrv0",956,"22.csv","","null","resources/images/fishbone.png","null","",NA,NA,NA,NA,""
"image-keyboard-response",203,673353,"0.0-3.64-0.64","q79w2jphvfdcrv0",956,"22.csv","","207.60000002384186","resources/trios/L1T2A1.jpg","39","restless",0.4,0.7,0.4,0.175481399302461,"true"
"image-keyboard-response",204,673773,"0.0-3.64-1.64","q79w2jphvfdcrv0",956,"22.csv","","null","resources/maskTrios/BBA1.jpg","null","",NA,NA,NA,NA,""
"image-keyboard-response",205,674987,"0.0-3.64-2.64","q79w2jphvfdcrv0",956,"22.csv","","null","resources/images/coin2.png","null","",NA,NA,NA,NA,""
"image-keyboard-response",206,675075,"0.0-3.65-0.65","q79w2jphvfdcrv0",956,"22.csv","","87.20000004768372","resources/trios/L4T1A1.jpg","37","restless",0.4,0.7,0.3,0.560410890857182,"false"
"image-keyboard-response",207,675486,"0.0-3.65-1.65","q79w2jphvfdcrv0",956,"22.csv","","null","resources/maskTrios/L4BB.jpg","null","",NA,NA,NA,NA,""
"image-keyboard-response",208,676694,"0.0-3.65-2.65","q79w2jphvfdcrv0",956,"22.csv","","null","resources/images/fishbone.png","null","",NA,NA,NA,NA,""
"image-keyboard-response",209,676703,"0.0-3.66-0.66","q79w2jphvfdcrv0",956,"22.csv","","7","resources/trios/L1T1A1.jpg","37","restless",0.4,0.7,0.3,0.308904138341324,"true"
"image-keyboard-response",210,677104,"0.0-3.66-1.66","q79w2jphvfdcrv0",956,"22.csv","","null","resources/maskTrios/L1BB.jpg","null","",NA,NA,NA,NA,""
"image-keyboard-response",211,678315,"0.0-3.66-2.66","q79w2jphvfdcrv0",956,"22.csv","","null","resources/images/coin2.png","null","",NA,NA,NA,NA,""
"image-keyboard-response",212,678431,"0.0-3.67-0.67","q79w2jphvfdcrv0",956,"22.csv","","114.29999995231628","resources/trios/L4T2A2.jpg","39","restless",0.4,0.8,0.3,0.676683236864316,"false"
"image-keyboard-response",213,678854,"0.0-3.67-1.67","q79w2jphvfdcrv0",956,"22.csv","","null","resources/maskTrios/BBA2.jpg","null","",NA,NA,NA,NA,""
"image-keyboard-response",214,680061,"0.0-3.67-2.67","q79w2jphvfdcrv0",956,"22.csv","","null","resources/images/fishbone.png","null","",NA,NA,NA,NA,""
"image-keyboard-response",215,680365,"0.0-3.68-0.68","q79w2jphvfdcrv0",956,"22.csv","","303","resources/trios/L4T1A2.jpg","39","restless",0.4,0.8,0.3,0.160012157467904,"true"
"image-keyboard-response",216,680778,"0.0-3.68-1.68","q79w2jphvfdcrv0",956,"22.csv","","null","resources/maskTrios/BBA2.jpg","null","",NA,NA,NA,NA,""
"image-keyboard-response",217,681988,"0.0-3.68-2.68","q79w2jphvfdcrv0",956,"22.csv","","null","resources/images/coin2.png","null","",NA,NA,NA,NA,""
"image-keyboard-response",218,681995,"0.0-3.69-0.69","q79w2jphvfdcrv0",956,"22.csv","","5.399999976158142","resources/trios/L4T1A1.jpg","37","restless",0.4,0.8,0.3,0.588036814965101,"false"
"image-keyboard-response",219,682399,"0.0-3.69-1.69","q79w2jphvfdcrv0",956,"22.csv","","null","resources/maskTrios/L4BB.jpg","null","",NA,NA,NA,NA,""
"image-keyboard-response",220,683613,"0.0-3.69-2.69","q79w2jphvfdcrv0",956,"22.csv","","null","resources/images/fishbone.png","null","",NA,NA,NA,NA,""
"image-keyboard-response",221,683787,"0.0-3.70-0.70","q79w2jphvfdcrv0",956,"22.csv","","171.89999997615814","resources/trios/L4T1A1.jpg","39","restless",0.4,0.8,0.3,0.448456774259952,"false"
"image-keyboard-response",222,684200,"0.0-3.70-1.70","q79w2jphvfdcrv0",956,"22.csv","","null","resources/maskTrios/BBA1.jpg","null","",NA,NA,NA,NA,""
"image-keyboard-response",223,685416,"0.0-3.70-2.70","q79w2jphvfdcrv0",956,"22.csv","","null","resources/images/fishbone.png","null","",NA,NA,NA,NA,""
"image-keyboard-response",224,685441,"0.0-3.71-0.71","q79w2jphvfdcrv0",956,"22.csv","","23.799999952316284","resources/trios/L4T1A1.jpg","37","restless",0.4,0.8,0.3,0.875445662941976,"false"
"image-keyboard-response",225,685855,"0.0-3.71-1.71","q79w2jphvfdcrv0",956,"22.csv","","null","resources/maskTrios/L4BB.jpg","null","",NA,NA,NA,NA,""
"image-keyboard-response",226,687061,"0.0-3.71-2.71","q79w2jphvfdcrv0",956,"22.csv","","null","resources/images/fishbone.png","null","",NA,NA,NA,NA,""
"image-keyboard-response",227,687110,"0.0-3.72-0.72","q79w2jphvfdcrv0",956,"22.csv","","48.200000047683716","resources/trios/L1T1A2.jpg","37","restless",0.4,0.8,0.3,0.555261159204511,"false"
"image-keyboard-response",228,687514,"0.0-3.72-1.72","q79w2jphvfdcrv0",956,"22.csv","","null","resources/maskTrios/L1BB.jpg","null","",NA,NA,NA,NA,""
"image-keyboard-response",229,688731,"0.0-3.72-2.72","q79w2jphvfdcrv0",956,"22.csv","","null","resources/images/fishbone.png","null","",NA,NA,NA,NA,""
"image-keyboard-response",230,688966,"0.0-3.73-0.73","q79w2jphvfdcrv0",956,"22.csv","","234.19999992847443","resources/trios/L4T1A1.jpg","39","restless",0.4,0.8,0.3,0.686083406382993,"false"
"image-keyboard-response",231,689377,"0.0-3.73-1.73","q79w2jphvfdcrv0",956,"22.csv","","null","resources/maskTrios/BBA1.jpg","null","",NA,NA,NA,NA,""
"image-keyboard-response",232,690596,"0.0-3.73-2.73","q79w2jphvfdcrv0",956,"22.csv","","null","resources/images/fishbone.png","null","",NA,NA,NA,NA,""
"image-keyboard-response",233,690758,"0.0-3.74-0.74","q79w2jphvfdcrv0",956,"22.csv","","160.89999997615814","resources/trios/L1T1A1.jpg","39","restless",0.4,0.8,0.3,0.246764053413752,"true"
"image-keyboard-response",234,691172,"0.0-3.74-1.74","q79w2jphvfdcrv0",956,"22.csv","","null","resources/maskTrios/BBA1.jpg","null","",NA,NA,NA,NA,""
"image-keyboard-response",235,692391,"0.0-3.74-2.74","q79w2jphvfdcrv0",956,"22.csv","","null","resources/images/coin2.png","null","",NA,NA,NA,NA,""
"image-keyboard-response",236,692573,"0.0-3.75-0.75","q79w2jphvfdcrv0",956,"22.csv","","180.70000004768372","resources/trios/L4T2A1.jpg","39","restless",0.4,0.8,0.4,0.909075316028971,"false"
"image-keyboard-response",237,692989,"0.0-3.75-1.75","q79w2jphvfdcrv0",956,"22.csv","","null","resources/maskTrios/BBA1.jpg","null","",NA,NA,NA,NA,""
"image-keyboard-response",238,694197,"0.0-3.75-2.75","q79w2jphvfdcrv0",956,"22.csv","","null","resources/images/fishbone.png","null","",NA,NA,NA,NA,""
"image-keyboard-response",239,694265,"0.0-3.76-0.76","q79w2jphvfdcrv0",956,"22.csv","","66.60000002384186","resources/trios/L1T1A1.jpg","39","restless",0.4,0.8,0.4,0.893955636704078,"false"
"image-keyboard-response",240,694679,"0.0-3.76-1.76","q79w2jphvfdcrv0",956,"22.csv","","null","resources/maskTrios/BBA1.jpg","null","",NA,NA,NA,NA,""
"image-keyboard-response",241,695880,"0.0-3.76-2.76","q79w2jphvfdcrv0",956,"22.csv","","null","resources/images/fishbone.png","null","",NA,NA,NA,NA,""
"image-keyboard-response",242,696034,"0.0-3.77-0.77","q79w2jphvfdcrv0",956,"22.csv","","152.29999995231628","resources/trios/L1T1A2.jpg","39","restless",0.4,0.8,0.4,0.0558523781860412,"true"
"image-keyboard-response",243,696446,"0.0-3.77-1.77","q79w2jphvfdcrv0",956,"22.csv","","null","resources/maskTrios/BBA2.jpg","null","",NA,NA,NA,NA,""
"image-keyboard-response",244,697651,"0.0-3.77-2.77","q79w2jphvfdcrv0",956,"22.csv","","null","resources/images/coin2.png","null","",NA,NA,NA,NA,""
"image-keyboard-response",245,697784,"0.0-3.78-0.78","q79w2jphvfdcrv0",956,"22.csv","","131.69999992847443","resources/trios/L4T2A1.jpg","39","restless",0.4,0.8,0.5,0.921511443923418,"false"
"image-keyboard-response",246,698194,"0.0-3.78-1.78","q79w2jphvfdcrv0",956,"22.csv","","null","resources/maskTrios/BBA1.jpg","null","",NA,NA,NA,NA,""
"image-keyboard-response",247,699404,"0.0-3.78-2.78","q79w2jphvfdcrv0",956,"22.csv","","null","resources/images/fishbone.png","null","",NA,NA,NA,NA,""
"image-keyboard-response",248,699560,"0.0-3.79-0.79","q79w2jphvfdcrv0",956,"22.csv","","154.89999997615814","resources/trios/L1T1A1.jpg","37","restless",0.4,0.8,0.5,0.35330639307755,"true"
"image-keyboard-response",249,699973,"0.0-3.79-1.79","q79w2jphvfdcrv0",956,"22.csv","","null","resources/maskTrios/L1BB.jpg","null","",NA,NA,NA,NA,""
"image-keyboard-response",250,701190,"0.0-3.79-2.79","q79w2jphvfdcrv0",956,"22.csv","","null","resources/images/coin2.png","null","",NA,NA,NA,NA,""
"image-keyboard-response",251,701250,"0.0-3.80-0.80","q79w2jphvfdcrv0",956,"22.csv","","58.799999952316284","resources/trios/L4T1A2.jpg","37","restless",0.4,0.8,0.5,0.709369208799024,"false"
"image-keyboard-response",252,701671,"0.0-3.80-1.80","q79w2jphvfdcrv0",956,"22.csv","","null","resources/maskTrios/L4BB.jpg","null","",NA,NA,NA,NA,""
"image-keyboard-response",253,702873,"0.0-3.80-2.80","q79w2jphvfdcrv0",956,"22.csv","","null","resources/images/fishbone.png","null","",NA,NA,NA,NA,""
"image-keyboard-response",254,703108,"0.0-3.81-0.81","q79w2jphvfdcrv0",956,"22.csv","","233.10000002384186","resources/trios/L1T2A2.jpg","37","restless",0.4,0.7,0.5,0.00355800660098149,"true"
"image-keyboard-response",255,703524,"0.0-3.81-1.81","q79w2jphvfdcrv0",956,"22.csv","","null","resources/maskTrios/L1BB.jpg","null","",NA,NA,NA,NA,""
"image-keyboard-response",256,704736,"0.0-3.81-2.81","q79w2jphvfdcrv0",956,"22.csv","","null","resources/images/coin2.png","null","",NA,NA,NA,NA,""
"image-keyboard-response",257,704927,"0.0-3.82-0.82","q79w2jphvfdcrv0",956,"22.csv","","190.29999995231628","resources/trios/L1T2A1.jpg","37","restless",0.5,0.7,0.5,0.733995025485019,"false"
"image-keyboard-response",258,705342,"0.0-3.82-1.82","q79w2jphvfdcrv0",956,"22.csv","","null","resources/maskTrios/L1BB.jpg","null","",NA,NA,NA,NA,""
"image-keyboard-response",259,706559,"0.0-3.82-2.82","q79w2jphvfdcrv0",956,"22.csv","","null","resources/images/fishbone.png","null","",NA,NA,NA,NA,""
"image-keyboard-response",260,707200,"0.0-3.83-0.83","q79w2jphvfdcrv0",956,"22.csv","","638.8000000715256","resources/trios/L1T2A2.jpg","37","restless",0.5,0.7,0.5,0.400051217857188,"true"
"image-keyboard-response",261,707614,"0.0-3.83-1.83","q79w2jphvfdcrv0",956,"22.csv","","null","resources/maskTrios/L1BB.jpg","null","",NA,NA,NA,NA,""
"image-keyboard-response",262,708841,"0.0-3.83-2.83","q79w2jphvfdcrv0",956,"22.csv","","null","resources/images/coin2.png","null","",NA,NA,NA,NA,""
"image-keyboard-response",263,709086,"0.0-3.84-0.84","q79w2jphvfdcrv0",956,"22.csv","","244.39999997615814","resources/trios/L4T2A2.jpg","37","restless",0.5,0.7,0.5,0.96346283626489,"false"
"image-keyboard-response",264,709492,"0.0-3.84-1.84","q79w2jphvfdcrv0",956,"22.csv","","null","resources/maskTrios/L4BB.jpg","null","",NA,NA,NA,NA,""
"image-keyboard-response",265,710704,"0.0-3.84-2.84","q79w2jphvfdcrv0",956,"22.csv","","null","resources/images/fishbone.png","null","",NA,NA,NA,NA,""
"image-keyboard-response",266,710773,"0.0-3.85-0.85","q79w2jphvfdcrv0",956,"22.csv","","67.60000002384186","resources/trios/L4T2A2.jpg","37","restless",0.5,0.8,0.5,0.0902719997058985,"true"
"image-keyboard-response",267,711189,"0.0-3.85-1.85","q79w2jphvfdcrv0",956,"22.csv","","null","resources/maskTrios/L4BB.jpg","null","",NA,NA,NA,NA,""
"image-keyboard-response",268,712395,"0.0-3.85-2.85","q79w2jphvfdcrv0",956,"22.csv","","null","resources/images/coin2.png","null","",NA,NA,NA,NA,""
"image-keyboard-response",269,712529,"0.0-3.86-0.86","q79w2jphvfdcrv0",956,"22.csv","","132.59999990463257","resources/trios/L4T1A2.jpg","37","restless",0.5,0.8,0.5,0.861775884270513,"false"
"image-keyboard-response",270,712945,"0.0-3.86-1.86","q79w2jphvfdcrv0",956,"22.csv","","null","resources/maskTrios/L4BB.jpg","null","",NA,NA,NA,NA,""
"image-keyboard-response",271,714150,"0.0-3.86-2.86","q79w2jphvfdcrv0",956,"22.csv","","null","resources/images/fishbone.png","null","",NA,NA,NA,NA,""
"image-keyboard-response",272,714270,"0.0-3.87-0.87","q79w2jphvfdcrv0",956,"22.csv","","119.10000002384186","resources/trios/L1T1A1.jpg","37","restless",0.5,0.8,0.5,0.840131818973391,"false"
"image-keyboard-response",273,714681,"0.0-3.87-1.87","q79w2jphvfdcrv0",956,"22.csv","","null","resources/maskTrios/L1BB.jpg","null","",NA,NA,NA,NA,""
"image-keyboard-response",274,715901,"0.0-3.87-2.87","q79w2jphvfdcrv0",956,"22.csv","","null","resources/images/fishbone.png","null","",NA,NA,NA,NA,""
"image-keyboard-response",275,716022,"0.0-3.88-0.88","q79w2jphvfdcrv0",956,"22.csv","","119","resources/trios/L1T1A1.jpg","37","restless",0.4,0.7,0.5,0.218728135059444,"true"
"image-keyboard-response",276,716427,"0.0-3.88-1.88","q79w2jphvfdcrv0",956,"22.csv","","null","resources/maskTrios/L1BB.jpg","null","",NA,NA,NA,NA,""
"image-keyboard-response",277,717636,"0.0-3.88-2.88","q79w2jphvfdcrv0",956,"22.csv","","null","resources/images/coin2.png","null","",NA,NA,NA,NA,""
"image-keyboard-response",278,717709,"0.0-3.89-0.89","q79w2jphvfdcrv0",956,"22.csv","","70.90000009536743","resources/trios/L1T2A1.jpg","37","restless",0.3,0.7,0.5,0.450911690862767,"false"
"image-keyboard-response",279,718126,"0.0-3.89-1.89","q79w2jphvfdcrv0",956,"22.csv","","null","resources/maskTrios/L1BB.jpg","null","",NA,NA,NA,NA,""
"image-keyboard-response",280,719341,"0.0-3.89-2.89","q79w2jphvfdcrv0",956,"22.csv","","null","resources/images/fishbone.png","null","",NA,NA,NA,NA,""
"image-keyboard-response",281,719545,"0.0-3.90-0.90","q79w2jphvfdcrv0",956,"22.csv","","202.10000002384186","resources/trios/L4T2A1.jpg","37","restless",0.3,0.7,0.5,0.63772457605017,"false"
"image-keyboard-response",282,719957,"0.0-3.90-1.90","q79w2jphvfdcrv0",956,"22.csv","","null","resources/maskTrios/L4BB.jpg","null","",NA,NA,NA,NA,""
"image-keyboard-response",283,721170,"0.0-3.90-2.90","q79w2jphvfdcrv0",956,"22.csv","","null","resources/images/fishbone.png","null","",NA,NA,NA,NA,""
"image-keyboard-response",284,721561,"0.0-3.91-0.91","q79w2jphvfdcrv0",956,"22.csv","","389.39999997615814","resources/trios/L1T2A1.jpg","39","restless",0.3,0.7,0.5,0.0939837208851093,"true"
"image-keyboard-response",285,721981,"0.0-3.91-1.91","q79w2jphvfdcrv0",956,"22.csv","","null","resources/maskTrios/BBA1.jpg","null","",NA,NA,NA,NA,""
"image-keyboard-response",286,723184,"0.0-3.91-2.91","q79w2jphvfdcrv0",956,"22.csv","","null","resources/images/coin2.png","null","",NA,NA,NA,NA,""
"image-keyboard-response",287,723592,"0.0-3.92-0.92","q79w2jphvfdcrv0",956,"22.csv","","406.5","resources/trios/L1T1A2.jpg","39","restless",0.4,0.7,0.5,0.0466193371385697,"true"
"image-keyboard-response",288,724009,"0.0-3.92-1.92","q79w2jphvfdcrv0",956,"22.csv","","null","resources/maskTrios/BBA2.jpg","null","",NA,NA,NA,NA,""
"image-keyboard-response",289,725225,"0.0-3.92-2.92","q79w2jphvfdcrv0",956,"22.csv","","null","resources/images/coin2.png","null","",NA,NA,NA,NA,""
"image-keyboard-response",290,725729,"0.0-3.93-0.93","q79w2jphvfdcrv0",956,"22.csv","","502.90000009536743","resources/trios/L4T2A1.jpg","37","restless",0.4,0.7,0.5,0.224576902849631,"true"
"image-keyboard-response",291,726145,"0.0-3.93-1.93","q79w2jphvfdcrv0",956,"22.csv","","null","resources/maskTrios/L4BB.jpg","null","",NA,NA,NA,NA,""
"image-keyboard-response",292,727359,"0.0-3.93-2.93","q79w2jphvfdcrv0",956,"22.csv","","null","resources/images/coin2.png","null","",NA,NA,NA,NA,""
"image-keyboard-response",293,728407,"0.0-3.94-0.94","q79w2jphvfdcrv0",956,"22.csv","","1046.6999999284744","resources/trios/L4T2A1.jpg","37","restless",0.4,0.7,0.5,0.821050448518056,"false"
"image-keyboard-response",294,728822,"0.0-3.94-1.94","q79w2jphvfdcrv0",956,"22.csv","","null","resources/maskTrios/L4BB.jpg","null","",NA,NA,NA,NA,""
"image-keyboard-response",295,730028,"0.0-3.94-2.94","q79w2jphvfdcrv0",956,"22.csv","","null","resources/images/fishbone.png","null","",NA,NA,NA,NA,""
"image-keyboard-response",296,730492,"0.0-3.95-0.95","q79w2jphvfdcrv0",956,"22.csv","","462.5","resources/trios/L1T2A1.jpg","39","restless",0.4,0.7,0.5,0.618190101504616,"false"
"image-keyboard-response",297,730914,"0.0-3.95-1.95","q79w2jphvfdcrv0",956,"22.csv","","null","resources/maskTrios/BBA1.jpg","null","",NA,NA,NA,NA,""
"image-keyboard-response",298,732124,"0.0-3.95-2.95","q79w2jphvfdcrv0",956,"22.csv","","null","resources/images/fishbone.png","null","",NA,NA,NA,NA,""
"image-keyboard-response",299,732443,"0.0-3.96-0.96","q79w2jphvfdcrv0",956,"22.csv","","317.10000002384186","resources/trios/L1T2A2.jpg","39","restless",0.4,0.7,0.5,0.299238425063664,"true"
"image-keyboard-response",300,732855,"0.0-3.96-1.96","q79w2jphvfdcrv0",956,"22.csv","","null","resources/maskTrios/BBA2.jpg","null","",NA,NA,NA,NA,""
"image-keyboard-response",301,734060,"0.0-3.96-2.96","q79w2jphvfdcrv0",956,"22.csv","","null","resources/images/coin2.png","null","",NA,NA,NA,NA,""
"image-keyboard-response",302,734972,"0.0-3.97-0.97","q79w2jphvfdcrv0",956,"22.csv","","910.2999999523163","resources/trios/L1T2A1.jpg","39","restless",0.4,0.7,0.5,0.802332248650889,"false"
"image-keyboard-response",303,735392,"0.0-3.97-1.97","q79w2jphvfdcrv0",956,"22.csv","","null","resources/maskTrios/BBA1.jpg","null","",NA,NA,NA,NA,""
"image-keyboard-response",304,736598,"0.0-3.97-2.97","q79w2jphvfdcrv0",956,"22.csv","","null","resources/images/fishbone.png","null","",NA,NA,NA,NA,""
"image-keyboard-response",305,736971,"0.0-3.98-0.98","q79w2jphvfdcrv0",956,"22.csv","","371.60000002384186","resources/trios/L1T1A1.jpg","37","restless",0.4,0.7,0.5,0.644709355420289,"false"
"image-keyboard-response",306,737388,"0.0-3.98-1.98","q79w2jphvfdcrv0",956,"22.csv","","null","resources/maskTrios/L1BB.jpg","null","",NA,NA,NA,NA,""
"image-keyboard-response",307,738604,"0.0-3.98-2.98","q79w2jphvfdcrv0",956,"22.csv","","null","resources/images/fishbone.png","null","",NA,NA,NA,NA,""
"image-keyboard-response",308,739112,"0.0-3.99-0.99","q79w2jphvfdcrv0",956,"22.csv","","506.2999999523163","resources/trios/L1T2A1.jpg","39","restless",0.4,0.7,0.5,0.412342663757891,"true"
"image-keyboard-response",309,739524,"0.0-3.99-1.99","q79w2jphvfdcrv0",956,"22.csv","","null","resources/maskTrios/BBA1.jpg","null","",NA,NA,NA,NA,""
"image-keyboard-response",310,740737,"0.0-3.99-2.99","q79w2jphvfdcrv0",956,"22.csv","","null","resources/images/coin2.png","null","",NA,NA,NA,NA,""
"image-keyboard-response",311,741061,"0.0-3.100-0.100","q79w2jphvfdcrv0",956,"22.csv","","321.6999999284744","resources/trios/L4T1A1.jpg","39","restless",0.4,0.7,0.5,0.0180638481781774,"true"
"image-keyboard-response",312,741471,"0.0-3.100-1.100","q79w2jphvfdcrv0",956,"22.csv","","null","resources/maskTrios/BBA1.jpg","null","",NA,NA,NA,NA,""
"image-keyboard-response",313,742682,"0.0-3.100-2.100","q79w2jphvfdcrv0",956,"22.csv","","null","resources/images/coin2.png","null","",NA,NA,NA,NA,""
"image-keyboard-response",314,745057,"0.0-3.101-0.101","q79w2jphvfdcrv0",956,"22.csv","","2373.600000023842","resources/trios/L1T1A1.jpg","39","restless",0.4,0.7,0.5,0.116081054545071,"true"
"image-keyboard-response",315,745471,"0.0-3.101-1.101","q79w2jphvfdcrv0",956,"22.csv","","null","resources/maskTrios/BBA1.jpg","null","",NA,NA,NA,NA,""
"image-keyboard-response",316,746688,"0.0-3.101-2.101","q79w2jphvfdcrv0",956,"22.csv","","null","resources/images/coin2.png","null","",NA,NA,NA,NA,""
"image-keyboard-response",317,747795,"0.0-3.102-0.102","q79w2jphvfdcrv0",956,"22.csv","","1105.3999999761581","resources/trios/L1T2A1.jpg","37","restless",0.4,0.7,0.5,0.37860325022347,"true"
"image-keyboard-response",318,748213,"0.0-3.102-1.102","q79w2jphvfdcrv0",956,"22.csv","","null","resources/maskTrios/L1BB.jpg","null","",NA,NA,NA,NA,""
"image-keyboard-response",319,749432,"0.0-3.102-2.102","q79w2jphvfdcrv0",956,"22.csv","","null","resources/images/coin2.png","null","",NA,NA,NA,NA,""
"image-keyboard-response",320,750082,"0.0-3.103-0.103","q79w2jphvfdcrv0",956,"22.csv","","648.1000000238419","resources/trios/L1T1A2.jpg","37","restless",0.5,0.7,0.5,0.431396044970648,"true"
"image-keyboard-response",321,750500,"0.0-3.103-1.103","q79w2jphvfdcrv0",956,"22.csv","","null","resources/maskTrios/L1BB.jpg","null","",NA,NA,NA,NA,""
"image-keyboard-response",322,751707,"0.0-3.103-2.103","q79w2jphvfdcrv0",956,"22.csv","","null","resources/images/coin2.png","null","",NA,NA,NA,NA,""
"image-keyboard-response",323,752400,"0.0-3.104-0.104","q79w2jphvfdcrv0",956,"22.csv","","691.2000000476837","resources/trios/L1T1A1.jpg","37","restless",0.5,0.7,0.6,0.35733763420602,"true"
"image-keyboard-response",324,752815,"0.0-3.104-1.104","q79w2jphvfdcrv0",956,"22.csv","","null","resources/maskTrios/L1BB.jpg","null","",NA,NA,NA,NA,""
"image-keyboard-response",325,754024,"0.0-3.104-2.104","q79w2jphvfdcrv0",956,"22.csv","","null","resources/images/coin2.png","null","",NA,NA,NA,NA,""
"image-keyboard-response",326,754526,"0.0-3.105-0.105","q79w2jphvfdcrv0",956,"22.csv","","500.40000009536743","resources/trios/L4T2A1.jpg","39","restless",0.5,0.7,0.6,0.375078147812943,"true"
"image-keyboard-response",327,754945,"0.0-3.105-1.105","q79w2jphvfdcrv0",956,"22.csv","","null","resources/maskTrios/BBA1.jpg","null","",NA,NA,NA,NA,""
"image-keyboard-response",328,756162,"0.0-3.105-2.105","q79w2jphvfdcrv0",956,"22.csv","","null","resources/images/coin2.png","null","",NA,NA,NA,NA,""
"image-keyboard-response",329,756470,"0.0-3.106-0.106","q79w2jphvfdcrv0",956,"22.csv","","307","resources/trios/L1T2A1.jpg","39","restless",0.6,0.7,0.6,0.679619658939301,"false"
"image-keyboard-response",330,756876,"0.0-3.106-1.106","q79w2jphvfdcrv0",956,"22.csv","","null","resources/maskTrios/BBA1.jpg","null","",NA,NA,NA,NA,""
"image-keyboard-response",331,758090,"0.0-3.106-2.106","q79w2jphvfdcrv0",956,"22.csv","","null","resources/images/fishbone.png","null","",NA,NA,NA,NA,""
"image-keyboard-response",332,758833,"0.0-3.107-0.107","q79w2jphvfdcrv0",956,"22.csv","","740.8999999761581","resources/trios/L4T1A1.jpg","37","restless",0.7,0.7,0.6,0.361119998303938,"true"
"image-keyboard-response",333,759239,"0.0-3.107-1.107","q79w2jphvfdcrv0",956,"22.csv","","null","resources/maskTrios/L4BB.jpg","null","",NA,NA,NA,NA,""
"image-keyboard-response",334,760444,"0.0-3.107-2.107","q79w2jphvfdcrv0",956,"22.csv","","null","resources/images/coin2.png","null","",NA,NA,NA,NA,""
"image-keyboard-response",335,760775,"0.0-3.108-0.108","q79w2jphvfdcrv0",956,"22.csv","","328.7999999523163","resources/trios/L4T2A2.jpg","37","restless",0.7,0.7,0.6,0.786541940242084,"false"
"image-keyboard-response",336,761179,"0.0-3.108-1.108","q79w2jphvfdcrv0",956,"22.csv","","null","resources/maskTrios/L4BB.jpg","null","",NA,NA,NA,NA,""
"image-keyboard-response",337,762392,"0.0-3.108-2.108","q79w2jphvfdcrv0",956,"22.csv","","null","resources/images/fishbone.png","null","",NA,NA,NA,NA,""
"image-keyboard-response",338,762647,"0.0-3.109-0.109","q79w2jphvfdcrv0",956,"22.csv","","253","resources/trios/L1T1A2.jpg","39","restless",0.7,0.7,0.6,0.907088932957788,"false"
"image-keyboard-response",339,763066,"0.0-3.109-1.109","q79w2jphvfdcrv0",956,"22.csv","","null","resources/maskTrios/BBA2.jpg","null","",NA,NA,NA,NA,""
"image-keyboard-response",340,764278,"0.0-3.109-2.109","q79w2jphvfdcrv0",956,"22.csv","","null","resources/images/fishbone.png","null","",NA,NA,NA,NA,""
"image-keyboard-response",341,764675,"0.0-3.110-0.110","q79w2jphvfdcrv0",956,"22.csv","","395.7999999523163","resources/trios/L1T2A1.jpg","39","restless",0.7,0.8,0.5,0.0096459091773895,"true"
"image-keyboard-response",342,765097,"0.0-3.110-1.110","q79w2jphvfdcrv0",956,"22.csv","","null","resources/maskTrios/BBA1.jpg","null","",NA,NA,NA,NA,""
"image-keyboard-response",343,766314,"0.0-3.110-2.110","q79w2jphvfdcrv0",956,"22.csv","","null","resources/images/coin2.png","null","",NA,NA,NA,NA,""
"image-keyboard-response",344,766621,"0.0-3.111-0.111","q79w2jphvfdcrv0",956,"22.csv","","305.39999997615814","resources/trios/L1T2A2.jpg","39","restless",0.7,0.8,0.5,0.737479653446432,"false"
"image-keyboard-response",345,767032,"0.0-3.111-1.111","q79w2jphvfdcrv0",956,"22.csv","","null","resources/maskTrios/BBA2.jpg","null","",NA,NA,NA,NA,""
"image-keyboard-response",346,768241,"0.0-3.111-2.111","q79w2jphvfdcrv0",956,"22.csv","","null","resources/images/fishbone.png","null","",NA,NA,NA,NA,""
"image-keyboard-response",347,768570,"0.0-3.112-0.112","q79w2jphvfdcrv0",956,"22.csv","","327.10000002384186","resources/trios/L1T2A1.jpg","37","restless",0.7,0.8,0.5,0.0054128867420582,"true"
"image-keyboard-response",348,768986,"0.0-3.112-1.112","q79w2jphvfdcrv0",956,"22.csv","","null","resources/maskTrios/L1BB.jpg","null","",NA,NA,NA,NA,""
"image-keyboard-response",349,770195,"0.0-3.112-2.112","q79w2jphvfdcrv0",956,"22.csv","","null","resources/images/coin2.png","null","",NA,NA,NA,NA,""
"image-keyboard-response",350,770501,"0.0-3.113-0.113","q79w2jphvfdcrv0",956,"22.csv","","304.60000002384186","resources/trios/L4T2A1.jpg","37","restless",0.7,0.7,0.5,0.23302347362998,"true"
"image-keyboard-response",351,770921,"0.0-3.113-1.113","q79w2jphvfdcrv0",956,"22.csv","","null","resources/maskTrios/L4BB.jpg","null","",NA,NA,NA,NA,""
"image-keyboard-response",352,772131,"0.0-3.113-2.113","q79w2jphvfdcrv0",956,"22.csv","","null","resources/images/coin2.png","null","",NA,NA,NA,NA,""
"image-keyboard-response",353,772518,"0.0-3.114-0.114","q79w2jphvfdcrv0",956,"22.csv","","385.2000000476837","resources/trios/L1T2A1.jpg","39","restless",0.7,0.7,0.5,0.0828164959436295,"true"
"image-keyboard-response",354,772931,"0.0-3.114-1.114","q79w2jphvfdcrv0",956,"22.csv","","null","resources/maskTrios/BBA1.jpg","null","",NA,NA,NA,NA,""
"image-keyboard-response",355,774152,"0.0-3.114-2.114","q79w2jphvfdcrv0",956,"22.csv","","null","resources/images/coin2.png","null","",NA,NA,NA,NA,""
"image-keyboard-response",356,774740,"0.0-3.115-0.115","q79w2jphvfdcrv0",956,"22.csv","","586.3999999761581","resources/trios/L4T2A2.jpg","37","restless",0.8,0.6,0.5,0.617841735368868,"true"
"image-keyboard-response",357,775151,"0.0-3.115-1.115","q79w2jphvfdcrv0",956,"22.csv","","null","resources/maskTrios/L4BB.jpg","null","",NA,NA,NA,NA,""
"image-keyboard-response",358,776367,"0.0-3.115-2.115","q79w2jphvfdcrv0",956,"22.csv","","null","resources/images/coin2.png","null","",NA,NA,NA,NA,""
"image-keyboard-response",359,776854,"0.0-3.116-0.116","q79w2jphvfdcrv0",956,"22.csv","","486","resources/trios/L4T2A2.jpg","37","restless",0.9,0.6,0.5,0.670239225372717,"true"
"image-keyboard-response",360,777260,"0.0-3.116-1.116","q79w2jphvfdcrv0",956,"22.csv","","null","resources/maskTrios/L4BB.jpg","null","",NA,NA,NA,NA,""
"image-keyboard-response",361,778468,"0.0-3.116-2.116","q79w2jphvfdcrv0",956,"22.csv","","null","resources/images/coin2.png","null","",NA,NA,NA,NA,""
"image-keyboard-response",362,778873,"0.0-3.117-0.117","q79w2jphvfdcrv0",956,"22.csv","","403.7999999523163","resources/trios/L4T1A2.jpg","39","restless",0.9,0.5,0.4,0.836428964757059,"false"
"image-keyboard-response",363,779294,"0.0-3.117-1.117","q79w2jphvfdcrv0",956,"22.csv","","null","resources/maskTrios/BBA2.jpg","null","",NA,NA,NA,NA,""
"image-keyboard-response",364,780499,"0.0-3.117-2.117","q79w2jphvfdcrv0",956,"22.csv","","null","resources/images/fishbone.png","null","",NA,NA,NA,NA,""
"image-keyboard-response",365,780962,"0.0-3.118-0.118","q79w2jphvfdcrv0",956,"22.csv","","461.5","resources/trios/L4T2A1.jpg","37","restless",0.9,0.5,0.3,0.706379871658726,"true"
"image-keyboard-response",366,781371,"0.0-3.118-1.118","q79w2jphvfdcrv0",956,"22.csv","","null","resources/maskTrios/L4BB.jpg","null","",NA,NA,NA,NA,""
"image-keyboard-response",367,782592,"0.0-3.118-2.118","q79w2jphvfdcrv0",956,"22.csv","","null","resources/images/coin2.png","null","",NA,NA,NA,NA,""
"image-keyboard-response",368,782711,"0.0-3.119-0.119","q79w2jphvfdcrv0",956,"22.csv","","117.20000004768372","resources/trios/L4T2A2.jpg","37","restless",0.9,0.5,0.3,0.727754060836176,"true"
"image-keyboard-response",369,783128,"0.0-3.119-1.119","q79w2jphvfdcrv0",956,"22.csv","","null","resources/maskTrios/L4BB.jpg","null","",NA,NA,NA,NA,""
"image-keyboard-response",370,784339,"0.0-3.119-2.119","q79w2jphvfdcrv0",956,"22.csv","","null","resources/images/coin2.png","null","",NA,NA,NA,NA,""
"image-keyboard-response",371,784550,"0.0-3.120-0.120","q79w2jphvfdcrv0",956,"22.csv","","209.89999997615814","resources/trios/L1T1A1.jpg","39","restless",0.9,0.5,0.3,0.00043593044947543,"true"
"image-keyboard-response",372,784961,"0.0-3.120-1.120","q79w2jphvfdcrv0",956,"22.csv","","null","resources/maskTrios/BBA1.jpg","null","",NA,NA,NA,NA,""
"image-keyboard-response",373,786163,"0.0-3.120-2.120","q79w2jphvfdcrv0",956,"22.csv","","null","resources/images/coin2.png","null","",NA,NA,NA,NA,""
"image-keyboard-response",374,786673,"0.0-3.121-0.121","q79w2jphvfdcrv0",956,"22.csv","","508.89999997615814","resources/trios/L1T1A1.jpg","39","restless",0.8,0.5,0.3,0.247299708452663,"true"
"image-keyboard-response",375,787089,"0.0-3.121-1.121","q79w2jphvfdcrv0",956,"22.csv","","null","resources/maskTrios/BBA1.jpg","null","",NA,NA,NA,NA,""
"image-keyboard-response",376,788303,"0.0-3.121-2.121","q79w2jphvfdcrv0",956,"22.csv","","null","resources/images/coin2.png","null","",NA,NA,NA,NA,""
"image-keyboard-response",377,788558,"0.0-3.122-0.122","q79w2jphvfdcrv0",956,"22.csv","","252.80000007152557","resources/trios/L1T1A2.jpg","37","restless",0.8,0.5,0.3,0.656981206307719,"true"
"image-keyboard-response",378,788971,"0.0-3.122-1.122","q79w2jphvfdcrv0",956,"22.csv","","null","resources/maskTrios/L1BB.jpg","null","",NA,NA,NA,NA,""
"image-keyboard-response",379,790186,"0.0-3.122-2.122","q79w2jphvfdcrv0",956,"22.csv","","null","resources/images/coin2.png","null","",NA,NA,NA,NA,""
"image-keyboard-response",380,790248,"0.0-3.123-0.123","q79w2jphvfdcrv0",956,"22.csv","","60.699999928474426","resources/trios/L4T2A2.jpg","37","restless",0.7,0.5,0.3,0.528842883034801,"true"
"image-keyboard-response",381,790657,"0.0-3.123-1.123","q79w2jphvfdcrv0",956,"22.csv","","null","resources/maskTrios/L4BB.jpg","null","",NA,NA,NA,NA,""
"image-keyboard-response",382,791868,"0.0-3.123-2.123","q79w2jphvfdcrv0",956,"22.csv","","null","resources/images/coin2.png","null","",NA,NA,NA,NA,""
"image-keyboard-response",383,792078,"0.0-3.124-0.124","q79w2jphvfdcrv0",956,"22.csv","","208.29999995231628","resources/trios/L4T2A2.jpg","37","restless",0.8,0.5,0.3,0.659451208530997,"true"
"image-keyboard-response",384,792490,"0.0-3.124-1.124","q79w2jphvfdcrv0",956,"22.csv","","null","resources/maskTrios/L4BB.jpg","null","",NA,NA,NA,NA,""
"image-keyboard-response",385,793701,"0.0-3.124-2.124","q79w2jphvfdcrv0",956,"22.csv","","null","resources/images/coin2.png","null","",NA,NA,NA,NA,""
"image-keyboard-response",386,793868,"0.0-3.125-0.125","q79w2jphvfdcrv0",956,"22.csv","","165","resources/trios/L4T2A2.jpg","39","restless",0.8,0.5,0.3,0.0738859425475167,"true"
"image-keyboard-response",387,794269,"0.0-3.125-1.125","q79w2jphvfdcrv0",956,"22.csv","","null","resources/maskTrios/BBA2.jpg","null","",NA,NA,NA,NA,""
"image-keyboard-response",388,795485,"0.0-3.125-2.125","q79w2jphvfdcrv0",956,"22.csv","","null","resources/images/coin2.png","null","",NA,NA,NA,NA,""
"image-keyboard-response",389,795906,"0.0-3.126-0.126","q79w2jphvfdcrv0",956,"22.csv","","419.89999997615814","resources/trios/L1T2A1.jpg","39","restless",0.8,0.5,0.2,0.184915663369545,"true"
"image-keyboard-response",390,796322,"0.0-3.126-1.126","q79w2jphvfdcrv0",956,"22.csv","","null","resources/maskTrios/BBA1.jpg","null","",NA,NA,NA,NA,""
"image-keyboard-response",391,797538,"0.0-3.126-2.126","q79w2jphvfdcrv0",956,"22.csv","","null","resources/images/coin2.png","null","",NA,NA,NA,NA,""
"image-keyboard-response",392,798001,"0.0-3.127-0.127","q79w2jphvfdcrv0",956,"22.csv","","461.39999997615814","resources/trios/L1T1A1.jpg","37","restless",0.8,0.5,0.2,0.679363002574492,"true"
"image-keyboard-response",393,798415,"0.0-3.127-1.127","q79w2jphvfdcrv0",956,"22.csv","","null","resources/maskTrios/L1BB.jpg","null","",NA,NA,NA,NA,""
"image-keyboard-response",394,799617,"0.0-3.127-2.127","q79w2jphvfdcrv0",956,"22.csv","","null","resources/images/coin2.png","null","",NA,NA,NA,NA,""
"image-keyboard-response",395,800289,"0.0-3.128-0.128","q79w2jphvfdcrv0",956,"22.csv","","670.6000000238419","resources/trios/L4T1A1.jpg","37","restless",0.8,0.5,0.2,0.626080978687258,"true"
"image-keyboard-response",396,800702,"0.0-3.128-1.128","q79w2jphvfdcrv0",956,"22.csv","","null","resources/maskTrios/L4BB.jpg","null","",NA,NA,NA,NA,""
"image-keyboard-response",397,801918,"0.0-3.128-2.128","q79w2jphvfdcrv0",956,"22.csv","","null","resources/images/coin2.png","null","",NA,NA,NA,NA,""
"image-keyboard-response",398,802268,"0.0-3.129-0.129","q79w2jphvfdcrv0",956,"22.csv","","347.60000002384186","resources/trios/L1T2A1.jpg","39","restless",0.8,0.4,0.2,0.124557559584878,"true"
"image-keyboard-response",399,802681,"0.0-3.129-1.129","q79w2jphvfdcrv0",956,"22.csv","","null","resources/maskTrios/BBA1.jpg","null","",NA,NA,NA,NA,""
"image-keyboard-response",400,803895,"0.0-3.129-2.129","q79w2jphvfdcrv0",956,"22.csv","","null","resources/images/coin2.png","null","",NA,NA,NA,NA,""
"image-keyboard-response",401,804226,"0.0-3.130-0.130","q79w2jphvfdcrv0",956,"22.csv","","329.3000000715256","resources/trios/L4T1A1.jpg","39","restless",0.8,0.4,0.2,0.970546377887364,"false"
"image-keyboard-response",402,804645,"0.0-3.130-1.130","q79w2jphvfdcrv0",956,"22.csv","","null","resources/maskTrios/BBA1.jpg","null","",NA,NA,NA,NA,""
"image-keyboard-response",403,805864,"0.0-3.130-2.130","q79w2jphvfdcrv0",956,"22.csv","","null","resources/images/fishbone.png","null","",NA,NA,NA,NA,""
"image-keyboard-response",404,806179,"0.0-3.131-0.131","q79w2jphvfdcrv0",956,"22.csv","","313.60000002384186","resources/trios/L4T1A2.jpg","37","restless",0.8,0.4,0.2,0.943516943262008,"false"
"image-keyboard-response",405,806593,"0.0-3.131-1.131","q79w2jphvfdcrv0",956,"22.csv","","null","resources/maskTrios/L4BB.jpg","null","",NA,NA,NA,NA,""
"image-keyboard-response",406,807795,"0.0-3.131-2.131","q79w2jphvfdcrv0",956,"22.csv","","null","resources/images/fishbone.png","null","",NA,NA,NA,NA,""
"image-keyboard-response",407,807955,"0.0-3.132-0.132","q79w2jphvfdcrv0",956,"22.csv","","158.60000002384186","resources/trios/L4T2A2.jpg","39","restless",0.8,0.4,0.2,0.943277905445113,"false"
"image-keyboard-response",408,808378,"0.0-3.132-1.132","q79w2jphvfdcrv0",956,"22.csv","","null","resources/maskTrios/BBA2.jpg","null","",NA,NA,NA,NA,""
"image-keyboard-response",409,809593,"0.0-3.132-2.132","q79w2jphvfdcrv0",956,"22.csv","","null","resources/images/fishbone.png","null","",NA,NA,NA,NA,""
"image-keyboard-response",410,809896,"0.0-3.133-0.133","q79w2jphvfdcrv0",956,"22.csv","","301.5","resources/trios/L4T1A2.jpg","39","restless",0.8,0.4,0.2,0.8943015117555,"false"
"image-keyboard-response",411,810301,"0.0-3.133-1.133","q79w2jphvfdcrv0",956,"22.csv","","null","resources/maskTrios/BBA2.jpg","null","",NA,NA,NA,NA,""
"image-keyboard-response",412,811519,"0.0-3.133-2.133","q79w2jphvfdcrv0",956,"22.csv","","null","resources/images/fishbone.png","null","",NA,NA,NA,NA,""
"image-keyboard-response",413,811822,"0.0-3.134-0.134","q79w2jphvfdcrv0",956,"22.csv","","301.2999999523163","resources/trios/L4T2A1.jpg","39","restless",0.8,0.4,0.2,0.19427674488866,"true"
"image-keyboard-response",414,812235,"0.0-3.134-1.134","q79w2jphvfdcrv0",956,"22.csv","","null","resources/maskTrios/BBA1.jpg","null","",NA,NA,NA,NA,""
"image-keyboard-response",415,813443,"0.0-3.134-2.134","q79w2jphvfdcrv0",956,"22.csv","","null","resources/images/coin2.png","null","",NA,NA,NA,NA,""
"image-keyboard-response",416,813764,"0.0-3.135-0.135","q79w2jphvfdcrv0",956,"22.csv","","318.89999997615814","resources/trios/L4T2A2.jpg","39","restless",0.8,0.4,0.2,0.0410556432966127,"true"
"image-keyboard-response",417,814172,"0.0-3.135-1.135","q79w2jphvfdcrv0",956,"22.csv","","null","resources/maskTrios/BBA2.jpg","null","",NA,NA,NA,NA,""
"image-keyboard-response",418,815388,"0.0-3.135-2.135","q79w2jphvfdcrv0",956,"22.csv","","null","resources/images/coin2.png","null","",NA,NA,NA,NA,""
"image-keyboard-response",419,815674,"0.0-3.136-0.136","q79w2jphvfdcrv0",956,"22.csv","","283.7000000476837","resources/trios/L1T1A2.jpg","39","restless",0.9,0.4,0.2,0.402978800539965,"false"
"image-keyboard-response",420,816083,"0.0-3.136-1.136","q79w2jphvfdcrv0",956,"22.csv","","null","resources/maskTrios/BBA2.jpg","null","",NA,NA,NA,NA,""
"image-keyboard-response",421,817292,"0.0-3.136-2.136","q79w2jphvfdcrv0",956,"22.csv","","null","resources/images/fishbone.png","null","",NA,NA,NA,NA,""
"image-keyboard-response",422,817855,"0.0-3.137-0.137","q79w2jphvfdcrv0",956,"22.csv","","561.1999999284744","resources/trios/L1T1A1.jpg","37","restless",0.9,0.4,0.2,0.442861258747209,"true"
"image-keyboard-response",423,818268,"0.0-3.137-1.137","q79w2jphvfdcrv0",956,"22.csv","","null","resources/maskTrios/L1BB.jpg","null","",NA,NA,NA,NA,""
"image-keyboard-response",424,819486,"0.0-3.137-2.137","q79w2jphvfdcrv0",956,"22.csv","","null","resources/images/coin2.png","null","",NA,NA,NA,NA,""
"image-keyboard-response",425,819566,"0.0-3.138-0.138","q79w2jphvfdcrv0",956,"22.csv","","79","resources/trios/L4T1A2.jpg","37","restless",0.9,0.4,0.2,0.458491773501503,"true"
"image-keyboard-response",426,819979,"0.0-3.138-1.138","q79w2jphvfdcrv0",956,"22.csv","","null","resources/maskTrios/L4BB.jpg","null","",NA,NA,NA,NA,""
"image-keyboard-response",427,821199,"0.0-3.138-2.138","q79w2jphvfdcrv0",956,"22.csv","","null","resources/images/coin2.png","null","",NA,NA,NA,NA,""
"image-keyboard-response",428,821576,"0.0-3.139-0.139","q79w2jphvfdcrv0",956,"22.csv","","375.7999999523163","resources/trios/L1T1A1.jpg","39","restless",0.9,0.4,0.2,0.643254721956065,"false"
"image-keyboard-response",429,821983,"0.0-3.139-1.139","q79w2jphvfdcrv0",956,"22.csv","","null","resources/maskTrios/BBA1.jpg","null","",NA,NA,NA,NA,""
"image-keyboard-response",430,823197,"0.0-3.139-2.139","q79w2jphvfdcrv0",956,"22.csv","","null","resources/images/fishbone.png","null","",NA,NA,NA,NA,""
"image-keyboard-response",431,823483,"0.0-3.140-0.140","q79w2jphvfdcrv0",956,"22.csv","","283.89999997615814","resources/trios/L1T2A2.jpg","37","restless",0.9,0.4,0.2,0.691290736856075,"true"
"image-keyboard-response",432,823895,"0.0-3.140-1.140","q79w2jphvfdcrv0",956,"22.csv","","null","resources/maskTrios/L1BB.jpg","null","",NA,NA,NA,NA,""
"image-keyboard-response",433,825102,"0.0-3.140-2.140","q79w2jphvfdcrv0",956,"22.csv","","null","resources/images/coin2.png","null","",NA,NA,NA,NA,""
"image-keyboard-response",434,825324,"0.0-3.141-0.141","q79w2jphvfdcrv0",956,"22.csv","","220","resources/trios/L4T2A2.jpg","37","restless",0.8,0.4,0.2,0.59431525564612,"true"
"image-keyboard-response",435,825740,"0.0-3.141-1.141","q79w2jphvfdcrv0",956,"22.csv","","null","resources/maskTrios/L4BB.jpg","null","",NA,NA,NA,NA,""
"image-keyboard-response",436,826960,"0.0-3.141-2.141","q79w2jphvfdcrv0",956,"22.csv","","null","resources/images/coin2.png","null","",NA,NA,NA,NA,""
"image-keyboard-response",437,827078,"0.0-3.142-0.142","q79w2jphvfdcrv0",956,"22.csv","","115.89999997615814","resources/trios/L1T2A2.jpg","37","restless",0.8,0.4,0.2,0.330364689124972,"true"
"image-keyboard-response",438,827485,"0.0-3.142-1.142","q79w2jphvfdcrv0",956,"22.csv","","null","resources/maskTrios/L1BB.jpg","null","",NA,NA,NA,NA,""
"image-keyboard-response",439,828689,"0.0-3.142-2.142","q79w2jphvfdcrv0",956,"22.csv","","null","resources/images/coin2.png","null","",NA,NA,NA,NA,""
"image-keyboard-response",440,830111,"0.0-3.143-0.143","q79w2jphvfdcrv0",956,"22.csv","","1421.3999999761581","resources/trios/L4T2A1.jpg","39","restless",0.8,0.4,0.2,0.0728647565091356,"true"
"image-keyboard-response",441,830526,"0.0-3.143-1.143","q79w2jphvfdcrv0",956,"22.csv","","null","resources/maskTrios/BBA1.jpg","null","",NA,NA,NA,NA,""
"image-keyboard-response",442,831730,"0.0-3.143-2.143","q79w2jphvfdcrv0",956,"22.csv","","null","resources/images/coin2.png","null","",NA,NA,NA,NA,""
"image-keyboard-response",443,832243,"0.0-3.144-0.144","q79w2jphvfdcrv0",956,"22.csv","","511.59999990463257","resources/trios/L1T2A1.jpg","39","restless",0.8,0.4,0.2,0.482350032690847,"false"
"image-keyboard-response",444,832657,"0.0-3.144-1.144","q79w2jphvfdcrv0",956,"22.csv","","null","resources/maskTrios/BBA1.jpg","null","",NA,NA,NA,NA,""
"image-keyboard-response",445,833879,"0.0-3.144-2.144","q79w2jphvfdcrv0",956,"22.csv","","null","resources/images/fishbone.png","null","",NA,NA,NA,NA,""
"image-keyboard-response",446,835759,"0.0-3.145-0.145","q79w2jphvfdcrv0",956,"22.csv","","1879.1000000238419","resources/trios/L1T2A1.jpg","37","restless",0.8,0.4,0.2,0.824588123353389,"false"
"image-keyboard-response",447,836164,"0.0-3.145-1.145","q79w2jphvfdcrv0",956,"22.csv","","null","resources/maskTrios/L1BB.jpg","null","",NA,NA,NA,NA,""
"image-keyboard-response",448,837377,"0.0-3.145-2.145","q79w2jphvfdcrv0",956,"22.csv","","null","resources/images/fishbone.png","null","",NA,NA,NA,NA,""
"image-keyboard-response",449,838592,"0.0-3.146-0.146","q79w2jphvfdcrv0",956,"22.csv","","1213.5","resources/trios/L4T2A1.jpg","39","restless",0.7,0.4,0.2,0.0555561043688517,"true"
"image-keyboard-response",450,839009,"0.0-3.146-1.146","q79w2jphvfdcrv0",956,"22.csv","","null","resources/maskTrios/BBA1.jpg","null","",NA,NA,NA,NA,""
"image-keyboard-response",451,840225,"0.0-3.146-2.146","q79w2jphvfdcrv0",956,"22.csv","","null","resources/images/coin2.png","null","",NA,NA,NA,NA,""
"image-keyboard-response",452,840265,"0.0-3.147-0.147","q79w2jphvfdcrv0",956,"22.csv","","37.700000047683716","resources/trios/L1T1A1.jpg","39","restless",0.7,0.3,0.2,0.439290647209885,"false"
"image-keyboard-response",453,840671,"0.0-3.147-1.147","q79w2jphvfdcrv0",956,"22.csv","","null","resources/maskTrios/BBA1.jpg","null","",NA,NA,NA,NA,""
"image-keyboard-response",454,841885,"0.0-3.147-2.147","q79w2jphvfdcrv0",956,"22.csv","","null","resources/images/fishbone.png","null","",NA,NA,NA,NA,""
"image-keyboard-response",455,842071,"0.0-3.148-0.148","q79w2jphvfdcrv0",956,"22.csv","","184.09999990463257","resources/trios/L1T2A1.jpg","39","restless",0.6,0.3,0.2,0.821682468511763,"false"
"image-keyboard-response",456,842481,"0.0-3.148-1.148","q79w2jphvfdcrv0",956,"22.csv","","null","resources/maskTrios/BBA1.jpg","null","",NA,NA,NA,NA,""
"image-keyboard-response",457,843696,"0.0-3.148-2.148","q79w2jphvfdcrv0",956,"22.csv","","null","resources/images/fishbone.png","null","",NA,NA,NA,NA,""
"image-keyboard-response",458,844237,"0.0-3.149-0.149","q79w2jphvfdcrv0",956,"22.csv","","539.6000000238419","resources/trios/L4T2A2.jpg","37","restless",0.6,0.3,0.2,0.189253745073168,"true"
"image-keyboard-response",459,844654,"0.0-3.149-1.149","q79w2jphvfdcrv0",956,"22.csv","","null","resources/maskTrios/L4BB.jpg","null","",NA,NA,NA,NA,""
"image-keyboard-response",460,845873,"0.0-3.149-2.149","q79w2jphvfdcrv0",956,"22.csv","","null","resources/images/coin2.png","null","",NA,NA,NA,NA,""
"image-keyboard-response",461,847058,"0.0-3.150-0.150","q79w2jphvfdcrv0",956,"22.csv","","1183","resources/trios/L1T1A2.jpg","37","restless",0.6,0.3,0.2,0.875470825862134,"false"
"image-keyboard-response",462,847469,"0.0-3.150-1.150","q79w2jphvfdcrv0",956,"22.csv","","null","resources/maskTrios/L1BB.jpg","null","",NA,NA,NA,NA,""
"image-keyboard-response",463,848684,"0.0-3.150-2.150","q79w2jphvfdcrv0",956,"22.csv","","null","resources/images/fishbone.png","null","",NA,NA,NA,NA,""
"image-keyboard-response",464,849423,"0.0-3.151-0.151","q79w2jphvfdcrv0",956,"22.csv","","737.3999999761581","resources/trios/L4T1A2.jpg","39","restless",0.6,0.3,0.2,0.410802639921472,"false"
"image-keyboard-response",465,849838,"0.0-3.151-1.151","q79w2jphvfdcrv0",956,"22.csv","","null","resources/maskTrios/BBA2.jpg","null","",NA,NA,NA,NA,""
"image-keyboard-response",466,851046,"0.0-3.151-2.151","q79w2jphvfdcrv0",956,"22.csv","","null","resources/images/fishbone.png","null","",NA,NA,NA,NA,""
"image-keyboard-response",467,852220,"0.0-3.152-0.152","q79w2jphvfdcrv0",956,"22.csv","","1172.1000000238419","resources/trios/L4T1A2.jpg","37","restless",0.5,0.3,0.2,0.000331728635101669,"true"
"image-keyboard-response",468,852640,"0.0-3.152-1.152","q79w2jphvfdcrv0",956,"22.csv","","null","resources/maskTrios/L4BB.jpg","null","",NA,NA,NA,NA,""
"image-keyboard-response",469,853844,"0.0-3.152-2.152","q79w2jphvfdcrv0",956,"22.csv","","null","resources/images/coin2.png","null","",NA,NA,NA,NA,""
"image-keyboard-response",470,854672,"0.0-3.153-0.153","q79w2jphvfdcrv0",956,"22.csv","","826.5","resources/trios/L4T2A1.jpg","37","restless",0.5,0.3,0.2,0.0729723737634786,"true"
"image-keyboard-response",471,855075,"0.0-3.153-1.153","q79w2jphvfdcrv0",956,"22.csv","","null","resources/maskTrios/L4BB.jpg","null","",NA,NA,NA,NA,""
"image-keyboard-response",472,856289,"0.0-3.153-2.153","q79w2jphvfdcrv0",956,"22.csv","","null","resources/images/coin2.png","null","",NA,NA,NA,NA,""
"image-keyboard-response",473,856346,"0.0-3.154-0.154","q79w2jphvfdcrv0",956,"22.csv","","55.89999997615814","resources/trios/L4T1A1.jpg","37","restless",0.5,0.3,0.2,0.696444664757287,"false"
"image-keyboard-response",474,856766,"0.0-3.154-1.154","q79w2jphvfdcrv0",956,"22.csv","","null","resources/maskTrios/L4BB.jpg","null","",NA,NA,NA,NA,""
"image-keyboard-response",475,857977,"0.0-3.154-2.154","q79w2jphvfdcrv0",956,"22.csv","","null","resources/images/fishbone.png","null","",NA,NA,NA,NA,""
"image-keyboard-response",476,858351,"0.0-3.155-0.155","q79w2jphvfdcrv0",956,"22.csv","","372.1999999284744","resources/trios/L4T1A1.jpg","39","restless",0.5,0.3,0.2,0.714519737041391,"false"
"image-keyboard-response",477,858768,"0.0-3.155-1.155","q79w2jphvfdcrv0",956,"22.csv","","null","resources/maskTrios/BBA1.jpg","null","",NA,NA,NA,NA,""
"image-keyboard-response",478,859975,"0.0-3.155-2.155","q79w2jphvfdcrv0",956,"22.csv","","null","resources/images/fishbone.png","null","",NA,NA,NA,NA,""
"image-keyboard-response",479,860428,"0.0-3.156-0.156","q79w2jphvfdcrv0",956,"22.csv","","451.10000002384186","resources/trios/L1T2A2.jpg","37","restless",0.6,0.3,0.2,0.910400547017707,"false"
"image-keyboard-response",480,860842,"0.0-3.156-1.156","q79w2jphvfdcrv0",956,"22.csv","","null","resources/maskTrios/L1BB.jpg","null","",NA,NA,NA,NA,""
"image-keyboard-response",481,862059,"0.0-3.156-2.156","q79w2jphvfdcrv0",956,"22.csv","","null","resources/images/fishbone.png","null","",NA,NA,NA,NA,""
"image-keyboard-response",482,862393,"0.0-3.157-0.157","q79w2jphvfdcrv0",956,"22.csv","","332.60000002384186","resources/trios/L1T1A2.jpg","39","restless",0.6,0.3,0.2,0.74804568704245,"false"
"image-keyboard-response",483,862807,"0.0-3.157-1.157","q79w2jphvfdcrv0",956,"22.csv","","null","resources/maskTrios/BBA2.jpg","null","",NA,NA,NA,NA,""
"image-keyboard-response",484,864011,"0.0-3.157-2.157","q79w2jphvfdcrv0",956,"22.csv","","null","resources/images/fishbone.png","null","",NA,NA,NA,NA,""
"image-keyboard-response",485,864582,"0.0-3.158-0.158","q79w2jphvfdcrv0",956,"22.csv","","569.6000000238419","resources/trios/L1T2A1.jpg","37","restless",0.6,0.3,0.2,0.0811554917586172,"true"
"image-keyboard-response",486,864993,"0.0-3.158-1.158","q79w2jphvfdcrv0",956,"22.csv","","null","resources/maskTrios/L1BB.jpg","null","",NA,NA,NA,NA,""
"image-keyboard-response",487,866210,"0.0-3.158-2.158","q79w2jphvfdcrv0",956,"22.csv","","null","resources/images/coin2.png","null","",NA,NA,NA,NA,""
"image-keyboard-response",488,867157,"0.0-3.159-0.159","q79w2jphvfdcrv0",956,"22.csv","","945.6000000238419","resources/trios/L1T1A2.jpg","37","restless",0.6,0.3,0.2,0.138734629235665,"true"
"image-keyboard-response",489,867574,"0.0-3.159-1.159","q79w2jphvfdcrv0",956,"22.csv","","null","resources/maskTrios/L1BB.jpg","null","",NA,NA,NA,NA,""
"image-keyboard-response",490,868790,"0.0-3.159-2.159","q79w2jphvfdcrv0",956,"22.csv","","null","resources/images/coin2.png","null","",NA,NA,NA,NA,""
"image-keyboard-response",491,869723,"0.0-3.160-0.160","q79w2jphvfdcrv0",956,"22.csv","","932.2999999523163","resources/trios/L1T1A1.jpg","37","restless",0.6,0.3,0.3,0.194798997952245,"true"
"image-keyboard-response",492,870132,"0.0-3.160-1.160","q79w2jphvfdcrv0",956,"22.csv","","null","resources/maskTrios/L1BB.jpg","null","",NA,NA,NA,NA,""
"image-keyboard-response",493,871339,"0.0-3.160-2.160","q79w2jphvfdcrv0",956,"22.csv","","null","resources/images/coin2.png","null","",NA,NA,NA,NA,""
"image-keyboard-response",494,872234,"0.0-3.161-0.161","q79w2jphvfdcrv0",956,"22.csv","","893.3000000715256","resources/trios/L4T2A2.jpg","38","restless",0.5,0.3,0.3,0.907149477283366,"false"
"image-keyboard-response",495,872655,"0.0-3.161-1.161","q79w2jphvfdcrv0",956,"22.csv","","null","resources/maskTrios/BT2B.jpg","null","",NA,NA,NA,NA,""
"image-keyboard-response",496,873874,"0.0-3.161-2.161","q79w2jphvfdcrv0",956,"22.csv","","null","resources/images/fishbone.png","null","",NA,NA,NA,NA,""
"image-keyboard-response",497,874119,"0.0-3.162-0.162","q79w2jphvfdcrv0",956,"22.csv","","243.69999992847443","resources/trios/L1T2A1.jpg","38","restless",0.5,0.3,0.3,0.0905890189357335,"true"
"image-keyboard-response",498,874534,"0.0-3.162-1.162","q79w2jphvfdcrv0",956,"22.csv","","null","resources/maskTrios/BT2B.jpg","null","",NA,NA,NA,NA,""
"image-keyboard-response",499,875743,"0.0-3.162-2.162","q79w2jphvfdcrv0",956,"22.csv","","null","resources/images/coin2.png","null","",NA,NA,NA,NA,""
"image-keyboard-response",500,876138,"0.0-3.163-0.163","q79w2jphvfdcrv0",956,"22.csv","","393.5","resources/trios/L1T1A1.jpg","38","restless",0.5,0.3,0.3,0.54646277192619,"false"
"image-keyboard-response",501,876548,"0.0-3.163-1.163","q79w2jphvfdcrv0",956,"22.csv","","null","resources/maskTrios/BT1B.jpg","null","",NA,NA,NA,NA,""
"image-keyboard-response",502,877761,"0.0-3.163-2.163","q79w2jphvfdcrv0",956,"22.csv","","null","resources/images/fishbone.png","null","",NA,NA,NA,NA,""
"image-keyboard-response",503,878308,"0.0-3.164-0.164","q79w2jphvfdcrv0",956,"22.csv","","545.2000000476837","resources/trios/L1T2A1.jpg","39","restless",0.5,0.3,0.4,0.88644114975347,"false"
"image-keyboard-response",504,878727,"0.0-3.164-1.164","q79w2jphvfdcrv0",956,"22.csv","","null","resources/maskTrios/BBA1.jpg","null","",NA,NA,NA,NA,""
"image-keyboard-response",505,879931,"0.0-3.164-2.164","q79w2jphvfdcrv0",956,"22.csv","","null","resources/images/fishbone.png","null","",NA,NA,NA,NA,""
"image-keyboard-response",506,880290,"0.0-3.165-0.165","q79w2jphvfdcrv0",956,"22.csv","","357.7999999523163","resources/trios/L4T1A2.jpg","37","restless",0.4,0.2,0.4,0.240111236217719,"true"
"image-keyboard-response",507,880699,"0.0-3.165-1.165","q79w2jphvfdcrv0",956,"22.csv","","null","resources/maskTrios/L4BB.jpg","null","",NA,NA,NA,NA,""
"image-keyboard-response",508,881915,"0.0-3.165-2.165","q79w2jphvfdcrv0",956,"22.csv","","null","resources/images/coin2.png","null","",NA,NA,NA,NA,""
"image-keyboard-response",509,882403,"0.0-3.166-0.166","q79w2jphvfdcrv0",956,"22.csv","","486.89999997615814","resources/trios/L1T1A2.jpg","39","restless",0.4,0.2,0.4,0.194271120846229,"true"
"image-keyboard-response",510,882823,"0.0-3.166-1.166","q79w2jphvfdcrv0",956,"22.csv","","null","resources/maskTrios/BBA2.jpg","null","",NA,NA,NA,NA,""
"image-keyboard-response",511,884029,"0.0-3.166-2.166","q79w2jphvfdcrv0",956,"22.csv","","null","resources/images/coin2.png","null","",NA,NA,NA,NA,""
"image-keyboard-response",512,884952,"0.0-3.167-0.167","q79w2jphvfdcrv0",956,"22.csv","","922.6000000238419","resources/trios/L4T2A2.jpg","37","restless",0.4,0.2,0.4,0.649739033353943,"false"
"image-keyboard-response",513,885359,"0.0-3.167-1.167","q79w2jphvfdcrv0",956,"22.csv","","null","resources/maskTrios/L4BB.jpg","null","",NA,NA,NA,NA,""
"image-keyboard-response",514,886563,"0.0-3.167-2.167","q79w2jphvfdcrv0",956,"22.csv","","null","resources/images/fishbone.png","null","",NA,NA,NA,NA,""
"image-keyboard-response",515,887208,"0.0-3.168-0.168","q79w2jphvfdcrv0",956,"22.csv","","643.5","resources/trios/L4T2A1.jpg","39","restless",0.4,0.2,0.4,0.349248206984085,"true"
"image-keyboard-response",516,887623,"0.0-3.168-1.168","q79w2jphvfdcrv0",956,"22.csv","","null","resources/maskTrios/BBA1.jpg","null","",NA,NA,NA,NA,""
"image-keyboard-response",517,888842,"0.0-3.168-2.168","q79w2jphvfdcrv0",956,"22.csv","","null","resources/images/coin2.png","null","",NA,NA,NA,NA,""
"image-keyboard-response",518,890123,"0.0-3.169-0.169","q79w2jphvfdcrv0",956,"22.csv","","1280","resources/trios/L1T2A1.jpg","39","restless",0.5,0.2,0.5,0.234725989064658,"true"
"image-keyboard-response",519,890538,"0.0-3.169-1.169","q79w2jphvfdcrv0",956,"22.csv","","null","resources/maskTrios/BBA1.jpg","null","",NA,NA,NA,NA,""
"image-keyboard-response",520,891759,"0.0-3.169-2.169","q79w2jphvfdcrv0",956,"22.csv","","null","resources/images/coin2.png","null","",NA,NA,NA,NA,""
"image-keyboard-response",521,892357,"0.0-3.170-0.170","q79w2jphvfdcrv0",956,"22.csv","","596","resources/trios/L1T1A2.jpg","39","restless",0.5,0.2,0.5,0.6907918293851,"false"
"image-keyboard-response",522,892777,"0.0-3.170-1.170","q79w2jphvfdcrv0",956,"22.csv","","null","resources/maskTrios/BBA2.jpg","null","",NA,NA,NA,NA,""
"image-keyboard-response",523,893987,"0.0-3.170-2.170","q79w2jphvfdcrv0",956,"22.csv","","null","resources/images/fishbone.png","null","",NA,NA,NA,NA,""
"image-keyboard-response",524,894387,"0.0-3.171-0.171","q79w2jphvfdcrv0",956,"22.csv","","398.7000000476837","resources/trios/L1T1A2.jpg","38","restless",0.5,0.2,0.5,0.411941946015866,"false"
"image-keyboard-response",525,894807,"0.0-3.171-1.171","q79w2jphvfdcrv0",956,"22.csv","","null","resources/maskTrios/BT1B.jpg","null","",NA,NA,NA,NA,""
"image-keyboard-response",526,896025,"0.0-3.171-2.171","q79w2jphvfdcrv0",956,"22.csv","","null","resources/images/fishbone.png","null","",NA,NA,NA,NA,""
"image-keyboard-response",527,896487,"0.0-3.172-0.172","q79w2jphvfdcrv0",956,"22.csv","","460.09999990463257","resources/trios/L1T1A1.jpg","37","restless",0.5,0.2,0.5,0.759667736786001,"false"
"image-keyboard-response",528,896891,"0.0-3.172-1.172","q79w2jphvfdcrv0",956,"22.csv","","null","resources/maskTrios/L1BB.jpg","null","",NA,NA,NA,NA,""
"image-keyboard-response",529,898104,"0.0-3.172-2.172","q79w2jphvfdcrv0",956,"22.csv","","null","resources/images/fishbone.png","null","",NA,NA,NA,NA,""
"image-keyboard-response",530,898731,"0.0-3.173-0.173","q79w2jphvfdcrv0",956,"22.csv","","625.7999999523163","resources/trios/L4T1A2.jpg","38","restless",0.5,0.2,0.5,0.571129627302444,"false"
"image-keyboard-response",531,899152,"0.0-3.173-1.173","q79w2jphvfdcrv0",956,"22.csv","","null","resources/maskTrios/BT1B.jpg","null","",NA,NA,NA,NA,""
"image-keyboard-response",532,900361,"0.0-3.173-2.173","q79w2jphvfdcrv0",956,"22.csv","","null","resources/images/fishbone.png","null","",NA,NA,NA,NA,""
"image-keyboard-response",533,901107,"0.0-3.174-0.174","q79w2jphvfdcrv0",956,"22.csv","","745","resources/trios/L4T1A1.jpg","37","restless",0.5,0.2,0.5,0.996373841755306,"false"
"image-keyboard-response",534,901522,"0.0-3.174-1.174","q79w2jphvfdcrv0",956,"22.csv","","null","resources/maskTrios/L4BB.jpg","null","",NA,NA,NA,NA,""
"image-keyboard-response",535,902745,"0.0-3.174-2.174","q79w2jphvfdcrv0",956,"22.csv","","null","resources/images/fishbone.png","null","",NA,NA,NA,NA,""
"image-keyboard-response",536,903496,"0.0-3.175-0.175","q79w2jphvfdcrv0",956,"22.csv","","750.3999999761581","resources/trios/L4T2A1.jpg","39","restless",0.5,0.1,0.5,0.546211573983923,"false"
"image-keyboard-response",537,903901,"0.0-3.175-1.175","q79w2jphvfdcrv0",956,"22.csv","","null","resources/maskTrios/BBA1.jpg","null","",NA,NA,NA,NA,""
"image-keyboard-response",538,905119,"0.0-3.175-2.175","q79w2jphvfdcrv0",956,"22.csv","","null","resources/images/fishbone.png","null","",NA,NA,NA,NA,""
"image-keyboard-response",539,905489,"0.0-3.176-0.176","q79w2jphvfdcrv0",956,"22.csv","","368.60000002384186","resources/trios/L4T2A1.jpg","38","restless",0.5,0.2,0.5,0.731116723401271,"false"
"image-keyboard-response",540,905900,"0.0-3.176-1.176","q79w2jphvfdcrv0",956,"22.csv","","null","resources/maskTrios/BT2B.jpg","null","",NA,NA,NA,NA,""
"image-keyboard-response",541,907118,"0.0-3.176-2.176","q79w2jphvfdcrv0",956,"22.csv","","null","resources/images/fishbone.png","null","",NA,NA,NA,NA,""
"image-keyboard-response",542,907509,"0.0-3.177-0.177","q79w2jphvfdcrv0",956,"22.csv","","388.7000000476837","resources/trios/L1T1A2.jpg","39","restless",0.6,0.3,0.5,0.127251246963869,"true"
"image-keyboard-response",543,907931,"0.0-3.177-1.177","q79w2jphvfdcrv0",956,"22.csv","","null","resources/maskTrios/BBA2.jpg","null","",NA,NA,NA,NA,""
"image-keyboard-response",544,909145,"0.0-3.177-2.177","q79w2jphvfdcrv0",956,"22.csv","","null","resources/images/coin2.png","null","",NA,NA,NA,NA,""
"image-keyboard-response",545,909546,"0.0-3.178-0.178","q79w2jphvfdcrv0",956,"22.csv","","399.6999999284744","resources/trios/L1T2A1.jpg","39","restless",0.6,0.3,0.6,0.0321153413445927,"true"
"image-keyboard-response",546,909961,"0.0-3.178-1.178","q79w2jphvfdcrv0",956,"22.csv","","null","resources/maskTrios/BBA1.jpg","null","",NA,NA,NA,NA,""
"image-keyboard-response",547,911163,"0.0-3.178-2.178","q79w2jphvfdcrv0",956,"22.csv","","null","resources/images/coin2.png","null","",NA,NA,NA,NA,""
"image-keyboard-response",548,911276,"0.0-3.179-0.179","q79w2jphvfdcrv0",956,"22.csv","","111.5","resources/trios/L1T2A2.jpg","39","restless",0.6,0.3,0.6,0.12036180810735,"true"
"image-keyboard-response",549,911692,"0.0-3.179-1.179","q79w2jphvfdcrv0",956,"22.csv","","null","resources/maskTrios/BBA2.jpg","null","",NA,NA,NA,NA,""
"image-keyboard-response",550,912912,"0.0-3.179-2.179","q79w2jphvfdcrv0",956,"22.csv","","null","resources/images/coin2.png","null","",NA,NA,NA,NA,""
"image-keyboard-response",551,914240,"0.0-3.180-0.180","q79w2jphvfdcrv0",956,"22.csv","","1327.6000000238419","resources/trios/L4T2A2.jpg","37","restless",0.6,0.3,0.6,0.249994042011187,"true"
"image-keyboard-response",552,914654,"0.0-3.180-1.180","q79w2jphvfdcrv0",956,"22.csv","","null","resources/maskTrios/L4BB.jpg","null","",NA,NA,NA,NA,""
"image-keyboard-response",553,915863,"0.0-3.180-2.180","q79w2jphvfdcrv0",956,"22.csv","","null","resources/images/coin2.png","null","",NA,NA,NA,NA,""
"image-keyboard-response",554,916243,"0.0-3.181-0.181","q79w2jphvfdcrv0",956,"22.csv","","378.6999999284744","resources/trios/L4T2A1.jpg","39","restless",0.6,0.2,0.7,0.108917892942783,"true"
"image-keyboard-response",555,916657,"0.0-3.181-1.181","q79w2jphvfdcrv0",956,"22.csv","","null","resources/maskTrios/BBA1.jpg","null","",NA,NA,NA,NA,""
"image-keyboard-response",556,917860,"0.0-3.181-2.181","q79w2jphvfdcrv0",956,"22.csv","","null","resources/images/coin2.png","null","",NA,NA,NA,NA,""
"image-keyboard-response",557,918165,"0.0-3.182-0.182","q79w2jphvfdcrv0",956,"22.csv","","303.60000002384186","resources/trios/L1T1A2.jpg","39","restless",0.6,0.2,0.7,0.519794083665407,"true"
"image-keyboard-response",558,918576,"0.0-3.182-1.182","q79w2jphvfdcrv0",956,"22.csv","","null","resources/maskTrios/BBA2.jpg","null","",NA,NA,NA,NA,""
"image-keyboard-response",559,919793,"0.0-3.182-2.182","q79w2jphvfdcrv0",956,"22.csv","","null","resources/images/coin2.png","null","",NA,NA,NA,NA,""
"image-keyboard-response",560,919959,"0.0-3.183-0.183","q79w2jphvfdcrv0",956,"22.csv","","164.5","resources/trios/L1T1A2.jpg","39","restless",0.7,0.2,0.7,0.892948288415534,"false"
"image-keyboard-response",561,920360,"0.0-3.183-1.183","q79w2jphvfdcrv0",956,"22.csv","","null","resources/maskTrios/BBA2.jpg","null","",NA,NA,NA,NA,""
"image-keyboard-response",562,921573,"0.0-3.183-2.183","q79w2jphvfdcrv0",956,"22.csv","","null","resources/images/fishbone.png","null","",NA,NA,NA,NA,""
"image-keyboard-response",563,922319,"0.0-3.184-0.184","q79w2jphvfdcrv0",956,"22.csv","","744.5","resources/trios/L4T1A2.jpg","39","restless",0.7,0.2,0.7,0.646501133820421,"true"
"image-keyboard-response",564,922734,"0.0-3.184-1.184","q79w2jphvfdcrv0",956,"22.csv","","null","resources/maskTrios/BBA2.jpg","null","",NA,NA,NA,NA,""
"image-keyboard-response",565,923940,"0.0-3.184-2.184","q79w2jphvfdcrv0",956,"22.csv","","null","resources/images/coin2.png","null","",NA,NA,NA,NA,""
"image-keyboard-response",566,924200,"0.0-3.185-0.185","q79w2jphvfdcrv0",956,"22.csv","","258.2999999523163","resources/trios/L1T2A2.jpg","39","restless",0.7,0.2,0.7,0.243714039488967,"true"
"image-keyboard-response",567,924617,"0.0-3.185-1.185","q79w2jphvfdcrv0",956,"22.csv","","null","resources/maskTrios/BBA2.jpg","null","",NA,NA,NA,NA,""
"image-keyboard-response",568,925823,"0.0-3.185-2.185","q79w2jphvfdcrv0",956,"22.csv","","null","resources/images/coin2.png","null","",NA,NA,NA,NA,""
"image-keyboard-response",569,925844,"0.0-3.186-0.186","q79w2jphvfdcrv0",956,"22.csv","","19.399999976158142","resources/trios/L1T2A2.jpg","39","restless",0.7,0.3,0.7,0.725162332741556,"false"
"image-keyboard-response",570,926254,"0.0-3.186-1.186","q79w2jphvfdcrv0",956,"22.csv","","null","resources/maskTrios/BBA2.jpg","null","",NA,NA,NA,NA,""
"image-keyboard-response",571,927472,"0.0-3.186-2.186","q79w2jphvfdcrv0",956,"22.csv","","null","resources/images/fishbone.png","null","",NA,NA,NA,NA,""
"image-keyboard-response",572,927608,"0.0-3.187-0.187","q79w2jphvfdcrv0",956,"22.csv","","134.89999997615814","resources/trios/L4T1A1.jpg","39","restless",0.7,0.3,0.7,0.506319502148153,"true"
"image-keyboard-response",573,928020,"0.0-3.187-1.187","q79w2jphvfdcrv0",956,"22.csv","","null","resources/maskTrios/BBA1.jpg","null","",NA,NA,NA,NA,""
"image-keyboard-response",574,929234,"0.0-3.187-2.187","q79w2jphvfdcrv0",956,"22.csv","","null","resources/images/coin2.png","null","",NA,NA,NA,NA,""
"image-keyboard-response",575,929806,"0.0-3.188-0.188","q79w2jphvfdcrv0",956,"22.csv","","569.6000000238419","resources/trios/L1T1A2.jpg","39","restless",0.7,0.3,0.7,0.509340922829564,"true"
"image-keyboard-response",576,930223,"0.0-3.188-1.188","q79w2jphvfdcrv0",956,"22.csv","","null","resources/maskTrios/BBA2.jpg","null","",NA,NA,NA,NA,""
"image-keyboard-response",577,931434,"0.0-3.188-2.188","q79w2jphvfdcrv0",956,"22.csv","","null","resources/images/coin2.png","null","",NA,NA,NA,NA,""
"image-keyboard-response",578,931474,"0.0-3.189-0.189","q79w2jphvfdcrv0",956,"22.csv","","38.10000002384186","resources/trios/L1T1A1.jpg","37","restless",0.7,0.3,0.8,0.447311713149485,"true"
"image-keyboard-response",579,931892,"0.0-3.189-1.189","q79w2jphvfdcrv0",956,"22.csv","","null","resources/maskTrios/L1BB.jpg","null","",NA,NA,NA,NA,""
"image-keyboard-response",580,933101,"0.0-3.189-2.189","q79w2jphvfdcrv0",956,"22.csv","","null","resources/images/coin2.png","null","",NA,NA,NA,NA,""
"image-keyboard-response",581,933414,"0.0-3.190-0.190","q79w2jphvfdcrv0",956,"22.csv","","311.8000000715256","resources/trios/L4T1A2.jpg","37","restless",0.6,0.2,0.8,0.03522940836358,"true"
"image-keyboard-response",582,933825,"0.0-3.190-1.190","q79w2jphvfdcrv0",956,"22.csv","","null","resources/maskTrios/L4BB.jpg","null","",NA,NA,NA,NA,""
"image-keyboard-response",583,935027,"0.0-3.190-2.190","q79w2jphvfdcrv0",956,"22.csv","","null","resources/images/coin2.png","null","",NA,NA,NA,NA,""
"image-keyboard-response",584,935064,"0.0-3.191-0.191","q79w2jphvfdcrv0",956,"22.csv","","36.5","resources/trios/L1T1A2.jpg","37","restless",0.6,0.2,0.8,0.523453326315984,"true"
"image-keyboard-response",585,935467,"0.0-3.191-1.191","q79w2jphvfdcrv0",956,"22.csv","","null","resources/maskTrios/L1BB.jpg","null","",NA,NA,NA,NA,""
"image-keyboard-response",586,936686,"0.0-3.191-2.191","q79w2jphvfdcrv0",956,"22.csv","","null","resources/images/coin2.png","null","",NA,NA,NA,NA,""
"image-keyboard-response",587,937003,"0.0-3.192-0.192","q79w2jphvfdcrv0",956,"22.csv","","314.89999997615814","resources/trios/L1T1A1.jpg","39","restless",0.6,0.2,0.8,0.0702608732181598,"true"
"image-keyboard-response",588,937415,"0.0-3.192-1.192","q79w2jphvfdcrv0",956,"22.csv","","null","resources/maskTrios/BBA1.jpg","null","",NA,NA,NA,NA,""
"image-keyboard-response",589,938623,"0.0-3.192-2.192","q79w2jphvfdcrv0",956,"22.csv","","null","resources/images/coin2.png","null","",NA,NA,NA,NA,""
"image-keyboard-response",590,938900,"0.0-3.193-0.193","q79w2jphvfdcrv0",956,"22.csv","","275.6999999284744","resources/trios/L1T1A2.jpg","37","restless",0.6,0.2,0.8,0.558846456118008,"true"
"image-keyboard-response",591,939309,"0.0-3.193-1.193","q79w2jphvfdcrv0",956,"22.csv","","null","resources/maskTrios/L1BB.jpg","null","",NA,NA,NA,NA,""
"image-keyboard-response",592,940523,"0.0-3.193-2.193","q79w2jphvfdcrv0",956,"22.csv","","null","resources/images/coin2.png","null","",NA,NA,NA,NA,""
"image-keyboard-response",593,940625,"0.0-3.194-0.194","q79w2jphvfdcrv0",956,"22.csv","","100.59999990463257","resources/trios/L1T2A2.jpg","39","restless",0.6,0.2,0.8,0.847057259695858,"false"
"image-keyboard-response",594,941038,"0.0-3.194-1.194","q79w2jphvfdcrv0",956,"22.csv","","null","resources/maskTrios/BBA2.jpg","null","",NA,NA,NA,NA,""
"image-keyboard-response",595,942244,"0.0-3.194-2.194","q79w2jphvfdcrv0",956,"22.csv","","null","resources/images/fishbone.png","null","",NA,NA,NA,NA,""
"image-keyboard-response",596,942359,"0.0-3.195-0.195","q79w2jphvfdcrv0",956,"22.csv","","113.79999995231628","resources/trios/L4T1A2.jpg","37","restless",0.6,0.2,0.8,0.386054690149579,"true"
"image-keyboard-response",597,942765,"0.0-3.195-1.195","q79w2jphvfdcrv0",956,"22.csv","","null","resources/maskTrios/L4BB.jpg","null","",NA,NA,NA,NA,""
"image-keyboard-response",598,943975,"0.0-3.195-2.195","q79w2jphvfdcrv0",956,"22.csv","","null","resources/images/coin2.png","null","",NA,NA,NA,NA,""
"image-keyboard-response",599,944808,"0.0-3.196-0.196","q79w2jphvfdcrv0",956,"22.csv","","831.1000000238419","resources/trios/L1T2A2.jpg","37","restless",0.6,0.2,0.8,0.320735245279078,"true"
"image-keyboard-response",600,945225,"0.0-3.196-1.196","q79w2jphvfdcrv0",956,"22.csv","","null","resources/maskTrios/L1BB.jpg","null","",NA,NA,NA,NA,""
"image-keyboard-response",601,946442,"0.0-3.196-2.196","q79w2jphvfdcrv0",956,"22.csv","","null","resources/images/coin2.png","null","",NA,NA,NA,NA,""
"image-keyboard-response",602,946597,"0.0-3.197-0.197","q79w2jphvfdcrv0",956,"22.csv","","152.69999992847443","resources/trios/L1T1A2.jpg","37","restless",0.6,0.3,0.7,0.187237287728273,"true"
"image-keyboard-response",603,947003,"0.0-3.197-1.197","q79w2jphvfdcrv0",956,"22.csv","","null","resources/maskTrios/L1BB.jpg","null","",NA,NA,NA,NA,""
"image-keyboard-response",604,948206,"0.0-3.197-2.197","q79w2jphvfdcrv0",956,"22.csv","","null","resources/images/coin2.png","null","",NA,NA,NA,NA,""
"image-keyboard-response",605,948272,"0.0-3.198-0.198","q79w2jphvfdcrv0",956,"22.csv","","63.5","resources/trios/L4T2A2.jpg","39","restless",0.6,0.3,0.7,0.107112133874598,"true"
"image-keyboard-response",606,948683,"0.0-3.198-1.198","q79w2jphvfdcrv0",956,"22.csv","","null","resources/maskTrios/BBA2.jpg","null","",NA,NA,NA,NA,""
"image-keyboard-response",607,949904,"0.0-3.198-2.198","q79w2jphvfdcrv0",956,"22.csv","","null","resources/images/coin2.png","null","",NA,NA,NA,NA,""
"image-keyboard-response",608,950559,"0.0-3.199-0.199","q79w2jphvfdcrv0",956,"22.csv","","653.8999999761581","resources/trios/L4T2A2.jpg","39","restless",0.6,0.3,0.7,0.629168300419721,"true"
