"trial_type","trial_index","time_elapsed","internal_node_id","subject","participantCode","walkNumber","success","rt","stimulus","key_press","test_part","leftProb","midProb","rightProb","generatedNum","correct"
"pavlovia",0,1328,"0.0-0.0","s03zx64ty2uaehk",665,"144.csv","","","","","",NA,NA,NA,NA,""
"fullscreen",1,10447,"0.0-1.0","s03zx64ty2uaehk",665,"144.csv","true","","","","",NA,NA,NA,NA,""
"html-keyboard-response",2,20417,"0.0-2.0-0.0","s03zx64ty2uaehk",665,"144.csv","","9959.199999809265","<p><font size='6'>Arrrgh!</p></font><p>Can you be the best pirate? Try to find lots of gold! But beware, some islands have more gold than others, and over time, the island with the most gold may change. Can YOU figure it out? </p><font size='6'>GOOD LUCK, CAPTAIN!!!</font><p>Press any key to begin</p>","77","",NA,NA,NA,NA,""
"image-keyboard-response",3,23418,"0.0-2.0-1.0","s03zx64ty2uaehk",665,"144.csv","","null","resources/image_sets/111.png","null","",NA,NA,NA,NA,""
"image-keyboard-response",4,32744,"0.0-2.0-2.0","s03zx64ty2uaehk",665,"144.csv","","9324.800000190735","resources/image_sets/left_highlight.png","37","",NA,NA,NA,NA,""
"image-keyboard-response",5,37103,"0.0-2.0-3.0","s03zx64ty2uaehk",665,"144.csv","","4356.699999809265","resources/image_sets/mid_highlight.png","38","",NA,NA,NA,NA,""
"image-keyboard-response",6,39401,"0.0-2.0-4.0","s03zx64ty2uaehk",665,"144.csv","","2297.4000005722046","resources/image_sets/right_highlight.png","39","",NA,NA,NA,NA,""
"image-keyboard-response",7,43277,"0.0-2.0-5.0","s03zx64ty2uaehk",665,"144.csv","","3875","resources/image_sets/111.png","13","",NA,NA,NA,NA,""
"image-keyboard-response",8,53609,"0.0-2.0-6.0","s03zx64ty2uaehk",665,"144.csv","","10330.900000572205","resources/images/coin2.png","13","",NA,NA,NA,NA,""
"image-keyboard-response",9,57125,"0.0-2.0-7.0","s03zx64ty2uaehk",665,"144.csv","","3516","resources/images/fishbone.png","13","",NA,NA,NA,NA,""
"html-keyboard-response",10,66112,"0.0-2.0-8.0","s03zx64ty2uaehk",665,"144.csv","","8986.5","<p>Your first journey will be a long one, but you will get a well deserved break at the end</p><p>After the break you will have four more journeys, but each will be much shorter than the first, and you will have breaks in between each</p><p>Press Enter to begin</p>","13","",NA,NA,NA,NA,""
"image-keyboard-response",11,69354,"0.0-3.0-0.0","s03zx64ty2uaehk",665,"144.csv","","3239.7000007629395","resources/trios/L2T1A1.jpg","37","restless",0.9,0.3,0.7,0.339659823710171,"true"
"image-keyboard-response",12,69765,"0.0-3.0-1.0","s03zx64ty2uaehk",665,"144.csv","","null","resources/maskTrios/L2BB.jpg","null","",NA,NA,NA,NA,""
"image-keyboard-response",13,70968,"0.0-3.0-2.0","s03zx64ty2uaehk",665,"144.csv","","null","resources/images/coin2.png","null","",NA,NA,NA,NA,""
"image-keyboard-response",14,73417,"0.0-3.1-0.1","s03zx64ty2uaehk",665,"144.csv","","2447.3999996185303","resources/trios/L2T2A3.jpg","37","restless",0.9,0.3,0.7,0.198031775192102,"true"
"image-keyboard-response",15,73820,"0.0-3.1-1.1","s03zx64ty2uaehk",665,"144.csv","","null","resources/maskTrios/L2BB.jpg","null","",NA,NA,NA,NA,""
"image-keyboard-response",16,75022,"0.0-3.1-2.1","s03zx64ty2uaehk",665,"144.csv","","null","resources/images/coin2.png","null","",NA,NA,NA,NA,""
"image-keyboard-response",17,76061,"0.0-3.2-0.2","s03zx64ty2uaehk",665,"144.csv","","1037.6999998092651","resources/trios/L2T2A1.jpg","37","restless",0.9,0.3,0.8,0.224065868903714,"true"
"image-keyboard-response",18,76464,"0.0-3.2-1.2","s03zx64ty2uaehk",665,"144.csv","","null","resources/maskTrios/L2BB.jpg","null","",NA,NA,NA,NA,""
"image-keyboard-response",19,77667,"0.0-3.2-2.2","s03zx64ty2uaehk",665,"144.csv","","null","resources/images/coin2.png","null","",NA,NA,NA,NA,""
"image-keyboard-response",20,79398,"0.0-3.3-0.3","s03zx64ty2uaehk",665,"144.csv","","1730.6999998092651","resources/trios/L2T1A1.jpg","38","restless",0.9,0.3,0.8,0.752646928368778,"false"
"image-keyboard-response",21,79801,"0.0-3.3-1.3","s03zx64ty2uaehk",665,"144.csv","","null","resources/maskTrios/BT1B.jpg","null","",NA,NA,NA,NA,""
"image-keyboard-response",22,81003,"0.0-3.3-2.3","s03zx64ty2uaehk",665,"144.csv","","null","resources/images/fishbone.png","null","",NA,NA,NA,NA,""
"image-keyboard-response",23,83634,"0.0-3.4-0.4","s03zx64ty2uaehk",665,"144.csv","","2629.5","resources/trios/L4T2A1.jpg","38","restless",0.8,0.3,0.8,0.617525861093595,"false"
"image-keyboard-response",24,84036,"0.0-3.4-1.4","s03zx64ty2uaehk",665,"144.csv","","null","resources/maskTrios/BT2B.jpg","null","",NA,NA,NA,NA,""
"image-keyboard-response",25,85238,"0.0-3.4-2.4","s03zx64ty2uaehk",665,"144.csv","","null","resources/images/fishbone.png","null","",NA,NA,NA,NA,""
"image-keyboard-response",26,85948,"0.0-3.5-0.5","s03zx64ty2uaehk",665,"144.csv","","708.0999994277954","resources/trios/L2T2A3.jpg","37","restless",0.8,0.3,0.7,0.706731643965099,"true"
"image-keyboard-response",27,86446,"0.0-3.5-1.5","s03zx64ty2uaehk",665,"144.csv","","null","resources/maskTrios/L2BB.jpg","null","",NA,NA,NA,NA,""
"image-keyboard-response",28,87649,"0.0-3.5-2.5","s03zx64ty2uaehk",665,"144.csv","","null","resources/images/coin2.png","null","",NA,NA,NA,NA,""
"image-keyboard-response",29,89329,"0.0-3.6-0.6","s03zx64ty2uaehk",665,"144.csv","","1679.5","resources/trios/L4T2A3.jpg","37","restless",0.8,0.3,0.7,0.687943711043915,"true"
"image-keyboard-response",30,89731,"0.0-3.6-1.6","s03zx64ty2uaehk",665,"144.csv","","null","resources/maskTrios/L4BB.jpg","null","",NA,NA,NA,NA,""
"image-keyboard-response",31,90933,"0.0-3.6-2.6","s03zx64ty2uaehk",665,"144.csv","","null","resources/images/coin2.png","null","",NA,NA,NA,NA,""
"image-keyboard-response",32,91601,"0.0-3.7-0.7","s03zx64ty2uaehk",665,"144.csv","","665.8999996185303","resources/trios/L2T1A3.jpg","37","restless",0.8,0.3,0.7,0.723532532283352,"true"
"image-keyboard-response",33,92004,"0.0-3.7-1.7","s03zx64ty2uaehk",665,"144.csv","","null","resources/maskTrios/L2BB.jpg","null","",NA,NA,NA,NA,""
"image-keyboard-response",34,93206,"0.0-3.7-2.7","s03zx64ty2uaehk",665,"144.csv","","null","resources/images/coin2.png","null","",NA,NA,NA,NA,""
"image-keyboard-response",35,93641,"0.0-3.8-0.8","s03zx64ty2uaehk",665,"144.csv","","433.19999980926514","resources/trios/L4T2A3.jpg","37","restless",0.8,0.3,0.7,0.0907580438586859,"true"
"image-keyboard-response",36,94043,"0.0-3.8-1.8","s03zx64ty2uaehk",665,"144.csv","","null","resources/maskTrios/L4BB.jpg","null","",NA,NA,NA,NA,""
"image-keyboard-response",37,95245,"0.0-3.8-2.8","s03zx64ty2uaehk",665,"144.csv","","null","resources/images/coin2.png","null","",NA,NA,NA,NA,""
"image-keyboard-response",38,95574,"0.0-3.9-0.9","s03zx64ty2uaehk",665,"144.csv","","327.69999980926514","resources/trios/L4T1A3.jpg","37","restless",0.8,0.3,0.8,0.949304184035449,"false"
"image-keyboard-response",39,95976,"0.0-3.9-1.9","s03zx64ty2uaehk",665,"144.csv","","null","resources/maskTrios/L4BB.jpg","null","",NA,NA,NA,NA,""
"image-keyboard-response",40,97178,"0.0-3.9-2.9","s03zx64ty2uaehk",665,"144.csv","","null","resources/images/fishbone.png","null","",NA,NA,NA,NA,""
"image-keyboard-response",41,98494,"0.0-3.10-0.10","s03zx64ty2uaehk",665,"144.csv","","1314.6999998092651","resources/trios/L4T2A1.jpg","39","restless",0.8,0.3,0.8,0.757957945723308,"true"
"image-keyboard-response",42,98896,"0.0-3.10-1.10","s03zx64ty2uaehk",665,"144.csv","","null","resources/maskTrios/BBA1.jpg","null","",NA,NA,NA,NA,""
"image-keyboard-response",43,100098,"0.0-3.10-2.10","s03zx64ty2uaehk",665,"144.csv","","null","resources/images/coin2.png","null","",NA,NA,NA,NA,""
"image-keyboard-response",44,100762,"0.0-3.11-0.11","s03zx64ty2uaehk",665,"144.csv","","662","resources/trios/L4T2A3.jpg","39","restless",0.8,0.3,0.8,0.880523113478708,"false"
"image-keyboard-response",45,101164,"0.0-3.11-1.11","s03zx64ty2uaehk",665,"144.csv","","null","resources/maskTrios/BBA3.jpg","null","",NA,NA,NA,NA,""
"image-keyboard-response",46,102366,"0.0-3.11-2.11","s03zx64ty2uaehk",665,"144.csv","","null","resources/images/fishbone.png","null","",NA,NA,NA,NA,""
"image-keyboard-response",47,104651,"0.0-3.12-0.12","s03zx64ty2uaehk",665,"144.csv","","2283.5999994277954","resources/trios/L4T1A1.jpg","38","restless",0.8,0.3,0.8,0.0403139123032534,"true"
"image-keyboard-response",48,105053,"0.0-3.12-1.12","s03zx64ty2uaehk",665,"144.csv","","null","resources/maskTrios/BT1B.jpg","null","",NA,NA,NA,NA,""
"image-keyboard-response",49,106256,"0.0-3.12-2.12","s03zx64ty2uaehk",665,"144.csv","","null","resources/images/coin2.png","null","",NA,NA,NA,NA,""
"image-keyboard-response",50,107465,"0.0-3.13-0.13","s03zx64ty2uaehk",665,"144.csv","","1207.5999994277954","resources/trios/L2T2A1.jpg","37","restless",0.8,0.3,0.8,0.864093709379484,"false"
"image-keyboard-response",51,107867,"0.0-3.13-1.13","s03zx64ty2uaehk",665,"144.csv","","null","resources/maskTrios/L2BB.jpg","null","",NA,NA,NA,NA,""
"image-keyboard-response",52,109069,"0.0-3.13-2.13","s03zx64ty2uaehk",665,"144.csv","","null","resources/images/fishbone.png","null","",NA,NA,NA,NA,""
"image-keyboard-response",53,109912,"0.0-3.14-0.14","s03zx64ty2uaehk",665,"144.csv","","841.3999996185303","resources/trios/L2T2A1.jpg","38","restless",0.8,0.2,0.8,0.57011687560748,"false"
"image-keyboard-response",54,110314,"0.0-3.14-1.14","s03zx64ty2uaehk",665,"144.csv","","null","resources/maskTrios/BT2B.jpg","null","",NA,NA,NA,NA,""
"image-keyboard-response",55,111516,"0.0-3.14-2.14","s03zx64ty2uaehk",665,"144.csv","","null","resources/images/fishbone.png","null","",NA,NA,NA,NA,""
"image-keyboard-response",56,114187,"0.0-3.15-0.15","s03zx64ty2uaehk",665,"144.csv","","2670.199999809265","resources/trios/L4T2A1.jpg","37","restless",0.8,0.2,0.8,0.464138598219024,"true"
"image-keyboard-response",57,114590,"0.0-3.15-1.15","s03zx64ty2uaehk",665,"144.csv","","null","resources/maskTrios/L4BB.jpg","null","",NA,NA,NA,NA,""
"image-keyboard-response",58,115792,"0.0-3.15-2.15","s03zx64ty2uaehk",665,"144.csv","","null","resources/images/coin2.png","null","",NA,NA,NA,NA,""
"image-keyboard-response",59,117536,"0.0-3.16-0.16","s03zx64ty2uaehk",665,"144.csv","","1742","resources/trios/L2T1A3.jpg","37","restless",0.8,0.2,0.8,0.562668340374577,"true"
"image-keyboard-response",60,117938,"0.0-3.16-1.16","s03zx64ty2uaehk",665,"144.csv","","null","resources/maskTrios/L2BB.jpg","null","",NA,NA,NA,NA,""
"image-keyboard-response",61,119139,"0.0-3.16-2.16","s03zx64ty2uaehk",665,"144.csv","","null","resources/images/coin2.png","null","",NA,NA,NA,NA,""
"image-keyboard-response",62,119856,"0.0-3.17-0.17","s03zx64ty2uaehk",665,"144.csv","","715","resources/trios/L2T1A1.jpg","37","restless",0.8,0.1,0.8,0.153395335483007,"true"
"image-keyboard-response",63,120340,"0.0-3.17-1.17","s03zx64ty2uaehk",665,"144.csv","","null","resources/maskTrios/L2BB.jpg","null","",NA,NA,NA,NA,""
"image-keyboard-response",64,121542,"0.0-3.17-2.17","s03zx64ty2uaehk",665,"144.csv","","null","resources/images/coin2.png","null","",NA,NA,NA,NA,""
"image-keyboard-response",65,122085,"0.0-3.18-0.18","s03zx64ty2uaehk",665,"144.csv","","541.9000005722046","resources/trios/L2T1A3.jpg","37","restless",0.8,0.1,0.7,0.227616284041062,"true"
"image-keyboard-response",66,122628,"0.0-3.18-1.18","s03zx64ty2uaehk",665,"144.csv","","null","resources/maskTrios/L2BB.jpg","null","",NA,NA,NA,NA,""
"image-keyboard-response",67,123830,"0.0-3.18-2.18","s03zx64ty2uaehk",665,"144.csv","","null","resources/images/coin2.png","null","",NA,NA,NA,NA,""
"image-keyboard-response",68,124366,"0.0-3.19-0.19","s03zx64ty2uaehk",665,"144.csv","","534.7000007629395","resources/trios/L2T1A3.jpg","37","restless",0.7,0.2,0.7,0.80812671282513,"false"
"image-keyboard-response",69,124769,"0.0-3.19-1.19","s03zx64ty2uaehk",665,"144.csv","","null","resources/maskTrios/L2BB.jpg","null","",NA,NA,NA,NA,""
"image-keyboard-response",70,125970,"0.0-3.19-2.19","s03zx64ty2uaehk",665,"144.csv","","null","resources/images/fishbone.png","null","",NA,NA,NA,NA,""
"image-keyboard-response",71,128696,"0.0-3.20-0.20","s03zx64ty2uaehk",665,"144.csv","","2724.5999994277954","resources/trios/L2T2A3.jpg","38","restless",0.7,0.2,0.7,0.879237619863529,"false"
"image-keyboard-response",72,129099,"0.0-3.20-1.20","s03zx64ty2uaehk",665,"144.csv","","null","resources/maskTrios/BT2B.jpg","null","",NA,NA,NA,NA,""
"image-keyboard-response",73,130300,"0.0-3.20-2.20","s03zx64ty2uaehk",665,"144.csv","","null","resources/images/fishbone.png","null","",NA,NA,NA,NA,""
"image-keyboard-response",74,131022,"0.0-3.21-0.21","s03zx64ty2uaehk",665,"144.csv","","720.9000005722046","resources/trios/L4T2A3.jpg","39","restless",0.7,0.2,0.6,0.710862321477338,"false"
"image-keyboard-response",75,131425,"0.0-3.21-1.21","s03zx64ty2uaehk",665,"144.csv","","null","resources/maskTrios/BBA3.jpg","null","",NA,NA,NA,NA,""
"image-keyboard-response",76,132626,"0.0-3.21-2.21","s03zx64ty2uaehk",665,"144.csv","","null","resources/images/fishbone.png","null","",NA,NA,NA,NA,""
"image-keyboard-response",77,133632,"0.0-3.22-0.22","s03zx64ty2uaehk",665,"144.csv","","1004.1999998092651","resources/trios/L2T2A3.jpg","37","restless",0.7,0.2,0.6,0.535657131578877,"true"
"image-keyboard-response",78,134033,"0.0-3.22-1.22","s03zx64ty2uaehk",665,"144.csv","","null","resources/maskTrios/L2BB.jpg","null","",NA,NA,NA,NA,""
"image-keyboard-response",79,135235,"0.0-3.22-2.22","s03zx64ty2uaehk",665,"144.csv","","null","resources/images/coin2.png","null","",NA,NA,NA,NA,""
"image-keyboard-response",80,137861,"0.0-3.23-0.23","s03zx64ty2uaehk",665,"144.csv","","2624.800000190735","resources/trios/L2T2A3.jpg","39","restless",0.7,0.2,0.6,0.0844591989777177,"true"
"image-keyboard-response",81,138263,"0.0-3.23-1.23","s03zx64ty2uaehk",665,"144.csv","","null","resources/maskTrios/BBA3.jpg","null","",NA,NA,NA,NA,""
"image-keyboard-response",82,139465,"0.0-3.23-2.23","s03zx64ty2uaehk",665,"144.csv","","null","resources/images/coin2.png","null","",NA,NA,NA,NA,""
"image-keyboard-response",83,141755,"0.0-3.24-0.24","s03zx64ty2uaehk",665,"144.csv","","2289.2999992370605","resources/trios/L2T1A3.jpg","37","restless",0.7,0.2,0.5,0.394639815432942,"true"
"image-keyboard-response",84,142157,"0.0-3.24-1.24","s03zx64ty2uaehk",665,"144.csv","","null","resources/maskTrios/L2BB.jpg","null","",NA,NA,NA,NA,""
"image-keyboard-response",85,143358,"0.0-3.24-2.24","s03zx64ty2uaehk",665,"144.csv","","null","resources/images/coin2.png","null","",NA,NA,NA,NA,""
"image-keyboard-response",86,144012,"0.0-3.25-0.25","s03zx64ty2uaehk",665,"144.csv","","652.6999998092651","resources/trios/L2T2A1.jpg","39","restless",0.7,0.2,0.5,0.915973333859868,"false"
"image-keyboard-response",87,144414,"0.0-3.25-1.25","s03zx64ty2uaehk",665,"144.csv","","null","resources/maskTrios/BBA1.jpg","null","",NA,NA,NA,NA,""
"image-keyboard-response",88,145615,"0.0-3.25-2.25","s03zx64ty2uaehk",665,"144.csv","","null","resources/images/fishbone.png","null","",NA,NA,NA,NA,""
"image-keyboard-response",89,146476,"0.0-3.26-0.26","s03zx64ty2uaehk",665,"144.csv","","859.5","resources/trios/L2T1A1.jpg","37","restless",0.7,0.2,0.5,0.876604547658397,"false"
"image-keyboard-response",90,146878,"0.0-3.26-1.26","s03zx64ty2uaehk",665,"144.csv","","null","resources/maskTrios/L2BB.jpg","null","",NA,NA,NA,NA,""
"image-keyboard-response",91,148079,"0.0-3.26-2.26","s03zx64ty2uaehk",665,"144.csv","","null","resources/images/fishbone.png","null","",NA,NA,NA,NA,""
"image-keyboard-response",92,148691,"0.0-3.27-0.27","s03zx64ty2uaehk",665,"144.csv","","610.6999998092651","resources/trios/L2T2A1.jpg","39","restless",0.7,0.2,0.5,0.592810252303802,"false"
"image-keyboard-response",93,149093,"0.0-3.27-1.27","s03zx64ty2uaehk",665,"144.csv","","null","resources/maskTrios/BBA1.jpg","null","",NA,NA,NA,NA,""
"image-keyboard-response",94,150295,"0.0-3.27-2.27","s03zx64ty2uaehk",665,"144.csv","","null","resources/images/fishbone.png","null","",NA,NA,NA,NA,""
"image-keyboard-response",95,150691,"0.0-3.28-0.28","s03zx64ty2uaehk",665,"144.csv","","394.69999980926514","resources/trios/L2T2A3.jpg","37","restless",0.7,0.2,0.5,0.103882794506454,"true"
"image-keyboard-response",96,151093,"0.0-3.28-1.28","s03zx64ty2uaehk",665,"144.csv","","null","resources/maskTrios/L2BB.jpg","null","",NA,NA,NA,NA,""
"image-keyboard-response",97,152295,"0.0-3.28-2.28","s03zx64ty2uaehk",665,"144.csv","","null","resources/images/coin2.png","null","",NA,NA,NA,NA,""
"image-keyboard-response",98,154045,"0.0-3.29-0.29","s03zx64ty2uaehk",665,"144.csv","","1749.4000005722046","resources/trios/L4T1A3.jpg","39","restless",0.7,0.2,0.5,0.534016224263261,"false"
"image-keyboard-response",99,154447,"0.0-3.29-1.29","s03zx64ty2uaehk",665,"144.csv","","null","resources/maskTrios/BBA3.jpg","null","",NA,NA,NA,NA,""
"image-keyboard-response",100,155650,"0.0-3.29-2.29","s03zx64ty2uaehk",665,"144.csv","","null","resources/images/fishbone.png","null","",NA,NA,NA,NA,""
"image-keyboard-response",101,156106,"0.0-3.30-0.30","s03zx64ty2uaehk",665,"144.csv","","454.1000003814697","resources/trios/L4T2A3.jpg","37","restless",0.7,0.2,0.5,0.2165731999487,"true"
"image-keyboard-response",102,156508,"0.0-3.30-1.30","s03zx64ty2uaehk",665,"144.csv","","null","resources/maskTrios/L4BB.jpg","null","",NA,NA,NA,NA,""
"image-keyboard-response",103,157710,"0.0-3.30-2.30","s03zx64ty2uaehk",665,"144.csv","","null","resources/images/coin2.png","null","",NA,NA,NA,NA,""
"image-keyboard-response",104,158817,"0.0-3.31-0.31","s03zx64ty2uaehk",665,"144.csv","","1106","resources/trios/L4T1A1.jpg","39","restless",0.7,0.2,0.5,0.827239937550333,"false"
"image-keyboard-response",105,159219,"0.0-3.31-1.31","s03zx64ty2uaehk",665,"144.csv","","null","resources/maskTrios/BBA1.jpg","null","",NA,NA,NA,NA,""
"image-keyboard-response",106,160421,"0.0-3.31-2.31","s03zx64ty2uaehk",665,"144.csv","","null","resources/images/fishbone.png","null","",NA,NA,NA,NA,""
"image-keyboard-response",107,160711,"0.0-3.32-0.32","s03zx64ty2uaehk",665,"144.csv","","288.69999980926514","resources/trios/L2T2A3.jpg","37","restless",0.7,0.2,0.5,0.434457317751526,"true"
"image-keyboard-response",108,161113,"0.0-3.32-1.32","s03zx64ty2uaehk",665,"144.csv","","null","resources/maskTrios/L2BB.jpg","null","",NA,NA,NA,NA,""
"image-keyboard-response",109,162314,"0.0-3.32-2.32","s03zx64ty2uaehk",665,"144.csv","","null","resources/images/coin2.png","null","",NA,NA,NA,NA,""
"image-keyboard-response",110,163080,"0.0-3.33-0.33","s03zx64ty2uaehk",665,"144.csv","","764.6000003814697","resources/trios/L4T2A1.jpg","37","restless",0.7,0.2,0.5,0.635954733198917,"true"
"image-keyboard-response",111,163482,"0.0-3.33-1.33","s03zx64ty2uaehk",665,"144.csv","","null","resources/maskTrios/L4BB.jpg","null","",NA,NA,NA,NA,""
"image-keyboard-response",112,164684,"0.0-3.33-2.33","s03zx64ty2uaehk",665,"144.csv","","null","resources/images/coin2.png","null","",NA,NA,NA,NA,""
"image-keyboard-response",113,165515,"0.0-3.34-0.34","s03zx64ty2uaehk",665,"144.csv","","829.8000001907349","resources/trios/L2T2A1.jpg","37","restless",0.7,0.2,0.5,0.487035203974012,"true"
"image-keyboard-response",114,165918,"0.0-3.34-1.34","s03zx64ty2uaehk",665,"144.csv","","null","resources/maskTrios/L2BB.jpg","null","",NA,NA,NA,NA,""
"image-keyboard-response",115,167120,"0.0-3.34-2.34","s03zx64ty2uaehk",665,"144.csv","","null","resources/images/coin2.png","null","",NA,NA,NA,NA,""
"image-keyboard-response",116,167619,"0.0-3.35-0.35","s03zx64ty2uaehk",665,"144.csv","","497.4000005722046","resources/trios/L2T1A1.jpg","37","restless",0.7,0.3,0.5,0.571582683732962,"true"
"image-keyboard-response",117,168021,"0.0-3.35-1.35","s03zx64ty2uaehk",665,"144.csv","","null","resources/maskTrios/L2BB.jpg","null","",NA,NA,NA,NA,""
"image-keyboard-response",118,169222,"0.0-3.35-2.35","s03zx64ty2uaehk",665,"144.csv","","null","resources/images/coin2.png","null","",NA,NA,NA,NA,""
"image-keyboard-response",119,170856,"0.0-3.36-0.36","s03zx64ty2uaehk",665,"144.csv","","1632.5","resources/trios/L4T1A3.jpg","37","restless",0.7,0.4,0.5,0.211761473290936,"true"
"image-keyboard-response",120,171258,"0.0-3.36-1.36","s03zx64ty2uaehk",665,"144.csv","","null","resources/maskTrios/L4BB.jpg","null","",NA,NA,NA,NA,""
"image-keyboard-response",121,172460,"0.0-3.36-2.36","s03zx64ty2uaehk",665,"144.csv","","null","resources/images/coin2.png","null","",NA,NA,NA,NA,""
"image-keyboard-response",122,172998,"0.0-3.37-0.37","s03zx64ty2uaehk",665,"144.csv","","537","resources/trios/L2T2A1.jpg","37","restless",0.7,0.4,0.5,0.724895620727102,"false"
"image-keyboard-response",123,173400,"0.0-3.37-1.37","s03zx64ty2uaehk",665,"144.csv","","null","resources/maskTrios/L2BB.jpg","null","",NA,NA,NA,NA,""
"image-keyboard-response",124,174601,"0.0-3.37-2.37","s03zx64ty2uaehk",665,"144.csv","","null","resources/images/fishbone.png","null","",NA,NA,NA,NA,""
"image-keyboard-response",125,175463,"0.0-3.38-0.38","s03zx64ty2uaehk",665,"144.csv","","859.8000001907349","resources/trios/L4T2A3.jpg","37","restless",0.7,0.4,0.5,0.601157454970554,"true"
"image-keyboard-response",126,175865,"0.0-3.38-1.38","s03zx64ty2uaehk",665,"144.csv","","null","resources/maskTrios/L4BB.jpg","null","",NA,NA,NA,NA,""
"image-keyboard-response",127,177067,"0.0-3.38-2.38","s03zx64ty2uaehk",665,"144.csv","","null","resources/images/coin2.png","null","",NA,NA,NA,NA,""
"image-keyboard-response",128,177703,"0.0-3.39-0.39","s03zx64ty2uaehk",665,"144.csv","","634.2000007629395","resources/trios/L4T2A1.jpg","37","restless",0.7,0.4,0.5,0.149163909300022,"true"
"image-keyboard-response",129,178104,"0.0-3.39-1.39","s03zx64ty2uaehk",665,"144.csv","","null","resources/maskTrios/L4BB.jpg","null","",NA,NA,NA,NA,""
"image-keyboard-response",130,179307,"0.0-3.39-2.39","s03zx64ty2uaehk",665,"144.csv","","null","resources/images/coin2.png","null","",NA,NA,NA,NA,""
"image-keyboard-response",131,179722,"0.0-3.40-0.40","s03zx64ty2uaehk",665,"144.csv","","413.80000019073486","resources/trios/L4T2A3.jpg","39","restless",0.7,0.4,0.5,0.607979504633504,"false"
"image-keyboard-response",132,180124,"0.0-3.40-1.40","s03zx64ty2uaehk",665,"144.csv","","null","resources/maskTrios/BBA3.jpg","null","",NA,NA,NA,NA,""
"image-keyboard-response",133,181326,"0.0-3.40-2.40","s03zx64ty2uaehk",665,"144.csv","","null","resources/images/fishbone.png","null","",NA,NA,NA,NA,""
"image-keyboard-response",134,181974,"0.0-3.41-0.41","s03zx64ty2uaehk",665,"144.csv","","647.3999996185303","resources/trios/L2T1A1.jpg","37","restless",0.7,0.5,0.5,0.799029319566384,"false"
"image-keyboard-response",135,182376,"0.0-3.41-1.41","s03zx64ty2uaehk",665,"144.csv","","null","resources/maskTrios/L2BB.jpg","null","",NA,NA,NA,NA,""
"image-keyboard-response",136,183578,"0.0-3.41-2.41","s03zx64ty2uaehk",665,"144.csv","","null","resources/images/fishbone.png","null","",NA,NA,NA,NA,""
"image-keyboard-response",137,184415,"0.0-3.42-0.42","s03zx64ty2uaehk",665,"144.csv","","836.3000001907349","resources/trios/L4T2A1.jpg","39","restless",0.7,0.5,0.5,0.616869736767393,"false"
"image-keyboard-response",138,184817,"0.0-3.42-1.42","s03zx64ty2uaehk",665,"144.csv","","null","resources/maskTrios/BBA1.jpg","null","",NA,NA,NA,NA,""
"image-keyboard-response",139,186019,"0.0-3.42-2.42","s03zx64ty2uaehk",665,"144.csv","","null","resources/images/fishbone.png","null","",NA,NA,NA,NA,""
"image-keyboard-response",140,186526,"0.0-3.43-0.43","s03zx64ty2uaehk",665,"144.csv","","505.69999980926514","resources/trios/L4T1A3.jpg","37","restless",0.7,0.5,0.5,0.134184240244075,"true"
"image-keyboard-response",141,186928,"0.0-3.43-1.43","s03zx64ty2uaehk",665,"144.csv","","null","resources/maskTrios/L4BB.jpg","null","",NA,NA,NA,NA,""
"image-keyboard-response",142,188130,"0.0-3.43-2.43","s03zx64ty2uaehk",665,"144.csv","","null","resources/images/coin2.png","null","",NA,NA,NA,NA,""
"image-keyboard-response",143,188858,"0.0-3.44-0.44","s03zx64ty2uaehk",665,"144.csv","","726.8999996185303","resources/trios/L2T2A3.jpg","37","restless",0.7,0.5,0.5,0.928120295106316,"false"
"image-keyboard-response",144,189260,"0.0-3.44-1.44","s03zx64ty2uaehk",665,"144.csv","","null","resources/maskTrios/L2BB.jpg","null","",NA,NA,NA,NA,""
"image-keyboard-response",145,190462,"0.0-3.44-2.44","s03zx64ty2uaehk",665,"144.csv","","null","resources/images/fishbone.png","null","",NA,NA,NA,NA,""
"image-keyboard-response",146,191185,"0.0-3.45-0.45","s03zx64ty2uaehk",665,"144.csv","","721.1999998092651","resources/trios/L2T1A3.jpg","39","restless",0.7,0.5,0.5,0.0218236694586535,"true"
"image-keyboard-response",147,191693,"0.0-3.45-1.45","s03zx64ty2uaehk",665,"144.csv","","null","resources/maskTrios/BBA3.jpg","null","",NA,NA,NA,NA,""
"image-keyboard-response",148,192895,"0.0-3.45-2.45","s03zx64ty2uaehk",665,"144.csv","","null","resources/images/coin2.png","null","",NA,NA,NA,NA,""
"image-keyboard-response",149,194141,"0.0-3.46-0.46","s03zx64ty2uaehk",665,"144.csv","","1244.3999996185303","resources/trios/L4T2A1.jpg","37","restless",0.7,0.6,0.5,0.02840937765426,"true"
"image-keyboard-response",150,194543,"0.0-3.46-1.46","s03zx64ty2uaehk",665,"144.csv","","null","resources/maskTrios/L4BB.jpg","null","",NA,NA,NA,NA,""
"image-keyboard-response",151,195745,"0.0-3.46-2.46","s03zx64ty2uaehk",665,"144.csv","","null","resources/images/coin2.png","null","",NA,NA,NA,NA,""
"image-keyboard-response",152,196235,"0.0-3.47-0.47","s03zx64ty2uaehk",665,"144.csv","","489.1000003814697","resources/trios/L4T2A1.jpg","37","restless",0.7,0.6,0.5,0.553188280839112,"true"
"image-keyboard-response",153,196637,"0.0-3.47-1.47","s03zx64ty2uaehk",665,"144.csv","","null","resources/maskTrios/L4BB.jpg","null","",NA,NA,NA,NA,""
"image-keyboard-response",154,197839,"0.0-3.47-2.47","s03zx64ty2uaehk",665,"144.csv","","null","resources/images/coin2.png","null","",NA,NA,NA,NA,""
"image-keyboard-response",155,199414,"0.0-3.48-0.48","s03zx64ty2uaehk",665,"144.csv","","1573.2999992370605","resources/trios/L4T1A1.jpg","37","restless",0.7,0.6,0.5,0.785242335627641,"false"
"image-keyboard-response",156,199815,"0.0-3.48-1.48","s03zx64ty2uaehk",665,"144.csv","","null","resources/maskTrios/L4BB.jpg","null","",NA,NA,NA,NA,""
"image-keyboard-response",157,201018,"0.0-3.48-2.48","s03zx64ty2uaehk",665,"144.csv","","null","resources/images/fishbone.png","null","",NA,NA,NA,NA,""
"image-keyboard-response",158,203496,"0.0-3.49-0.49","s03zx64ty2uaehk",665,"144.csv","","2476.5","resources/trios/L4T2A3.jpg","37","restless",0.7,0.6,0.5,0.779790652532322,"false"
"image-keyboard-response",159,203898,"0.0-3.49-1.49","s03zx64ty2uaehk",665,"144.csv","","null","resources/maskTrios/L4BB.jpg","null","",NA,NA,NA,NA,""
"image-keyboard-response",160,205101,"0.0-3.49-2.49","s03zx64ty2uaehk",665,"144.csv","","null","resources/images/fishbone.png","null","",NA,NA,NA,NA,""
"image-keyboard-response",161,205971,"0.0-3.50-0.50","s03zx64ty2uaehk",665,"144.csv","","868.5","resources/trios/L2T1A3.jpg","37","restless",0.7,0.6,0.5,0.45442121334094,"true"
"image-keyboard-response",162,206421,"0.0-3.50-1.50","s03zx64ty2uaehk",665,"144.csv","","null","resources/maskTrios/L2BB.jpg","null","",NA,NA,NA,NA,""
"image-keyboard-response",163,207622,"0.0-3.50-2.50","s03zx64ty2uaehk",665,"144.csv","","null","resources/images/coin2.png","null","",NA,NA,NA,NA,""
"image-keyboard-response",164,208124,"0.0-3.51-0.51","s03zx64ty2uaehk",665,"144.csv","","501.19999980926514","resources/trios/L2T1A3.jpg","37","restless",0.7,0.6,0.5,0.48184190107632,"true"
"image-keyboard-response",165,208526,"0.0-3.51-1.51","s03zx64ty2uaehk",665,"144.csv","","null","resources/maskTrios/L2BB.jpg","null","",NA,NA,NA,NA,""
"image-keyboard-response",166,209728,"0.0-3.51-2.51","s03zx64ty2uaehk",665,"144.csv","","null","resources/images/coin2.png","null","",NA,NA,NA,NA,""
"image-keyboard-response",167,210252,"0.0-3.52-0.52","s03zx64ty2uaehk",665,"144.csv","","522.1999998092651","resources/trios/L2T2A1.jpg","37","restless",0.7,0.6,0.5,0.809269197890073,"false"
"image-keyboard-response",168,210655,"0.0-3.52-1.52","s03zx64ty2uaehk",665,"144.csv","","null","resources/maskTrios/L2BB.jpg","null","",NA,NA,NA,NA,""
"image-keyboard-response",169,211856,"0.0-3.52-2.52","s03zx64ty2uaehk",665,"144.csv","","null","resources/images/fishbone.png","null","",NA,NA,NA,NA,""
"image-keyboard-response",170,212287,"0.0-3.53-0.53","s03zx64ty2uaehk",665,"144.csv","","428.69999980926514","resources/trios/L2T1A1.jpg","39","restless",0.7,0.7,0.5,0.211476327058429,"true"
"image-keyboard-response",171,212689,"0.0-3.53-1.53","s03zx64ty2uaehk",665,"144.csv","","null","resources/maskTrios/BBA1.jpg","null","",NA,NA,NA,NA,""
"image-keyboard-response",172,213891,"0.0-3.53-2.53","s03zx64ty2uaehk",665,"144.csv","","null","resources/images/coin2.png","null","",NA,NA,NA,NA,""
"image-keyboard-response",173,214314,"0.0-3.54-0.54","s03zx64ty2uaehk",665,"144.csv","","422.29999923706055","resources/trios/L2T2A3.jpg","39","restless",0.7,0.7,0.5,0.295466890164612,"true"
"image-keyboard-response",174,214717,"0.0-3.54-1.54","s03zx64ty2uaehk",665,"144.csv","","null","resources/maskTrios/BBA3.jpg","null","",NA,NA,NA,NA,""
"image-keyboard-response",175,215918,"0.0-3.54-2.54","s03zx64ty2uaehk",665,"144.csv","","null","resources/images/coin2.png","null","",NA,NA,NA,NA,""
"image-keyboard-response",176,216343,"0.0-3.55-0.55","s03zx64ty2uaehk",665,"144.csv","","424.1000003814697","resources/trios/L4T1A1.jpg","39","restless",0.7,0.7,0.5,0.841065154556246,"false"
"image-keyboard-response",177,216744,"0.0-3.55-1.55","s03zx64ty2uaehk",665,"144.csv","","null","resources/maskTrios/BBA1.jpg","null","",NA,NA,NA,NA,""
"image-keyboard-response",178,217946,"0.0-3.55-2.55","s03zx64ty2uaehk",665,"144.csv","","null","resources/images/fishbone.png","null","",NA,NA,NA,NA,""
"image-keyboard-response",179,219108,"0.0-3.56-0.56","s03zx64ty2uaehk",665,"144.csv","","1160.5","resources/trios/L2T2A3.jpg","37","restless",0.7,0.7,0.5,0.185811930400828,"true"
"image-keyboard-response",180,219510,"0.0-3.56-1.56","s03zx64ty2uaehk",665,"144.csv","","null","resources/maskTrios/L2BB.jpg","null","",NA,NA,NA,NA,""
"image-keyboard-response",181,220713,"0.0-3.56-2.56","s03zx64ty2uaehk",665,"144.csv","","null","resources/images/coin2.png","null","",NA,NA,NA,NA,""
"image-keyboard-response",182,221276,"0.0-3.57-0.57","s03zx64ty2uaehk",665,"144.csv","","561.3000001907349","resources/trios/L2T2A3.jpg","37","restless",0.7,0.7,0.5,0.83757167978948,"false"
"image-keyboard-response",183,221678,"0.0-3.57-1.57","s03zx64ty2uaehk",665,"144.csv","","null","resources/maskTrios/L2BB.jpg","null","",NA,NA,NA,NA,""
"image-keyboard-response",184,222878,"0.0-3.57-2.57","s03zx64ty2uaehk",665,"144.csv","","null","resources/images/fishbone.png","null","",NA,NA,NA,NA,""
"image-keyboard-response",185,224086,"0.0-3.58-0.58","s03zx64ty2uaehk",665,"144.csv","","1206.1000003814697","resources/trios/L4T1A1.jpg","37","restless",0.7,0.7,0.5,0.831229858339884,"false"
"image-keyboard-response",186,224488,"0.0-3.58-1.58","s03zx64ty2uaehk",665,"144.csv","","null","resources/maskTrios/L4BB.jpg","null","",NA,NA,NA,NA,""
"image-keyboard-response",187,225689,"0.0-3.58-2.58","s03zx64ty2uaehk",665,"144.csv","","null","resources/images/fishbone.png","null","",NA,NA,NA,NA,""
"image-keyboard-response",188,226143,"0.0-3.59-0.59","s03zx64ty2uaehk",665,"144.csv","","452.9000005722046","resources/trios/L4T2A1.jpg","39","restless",0.7,0.7,0.5,0.859068172639005,"false"
"image-keyboard-response",189,226545,"0.0-3.59-1.59","s03zx64ty2uaehk",665,"144.csv","","null","resources/maskTrios/BBA1.jpg","null","",NA,NA,NA,NA,""
"image-keyboard-response",190,227746,"0.0-3.59-2.59","s03zx64ty2uaehk",665,"144.csv","","null","resources/images/fishbone.png","null","",NA,NA,NA,NA,""
"image-keyboard-response",191,228356,"0.0-3.60-0.60","s03zx64ty2uaehk",665,"144.csv","","608.7999992370605","resources/trios/L4T1A3.jpg","39","restless",0.7,0.7,0.6,0.782449753517712,"false"
"image-keyboard-response",192,228759,"0.0-3.60-1.60","s03zx64ty2uaehk",665,"144.csv","","null","resources/maskTrios/BBA3.jpg","null","",NA,NA,NA,NA,""
"image-keyboard-response",193,229961,"0.0-3.60-2.60","s03zx64ty2uaehk",665,"144.csv","","null","resources/images/fishbone.png","null","",NA,NA,NA,NA,""
"image-keyboard-response",194,231333,"0.0-3.61-0.61","s03zx64ty2uaehk",665,"144.csv","","1371.3999996185303","resources/trios/L2T2A1.jpg","37","restless",0.7,0.7,0.6,0.425983081193783,"true"
"image-keyboard-response",195,231735,"0.0-3.61-1.61","s03zx64ty2uaehk",665,"144.csv","","null","resources/maskTrios/L2BB.jpg","null","",NA,NA,NA,NA,""
"image-keyboard-response",196,232936,"0.0-3.61-2.61","s03zx64ty2uaehk",665,"144.csv","","null","resources/images/coin2.png","null","",NA,NA,NA,NA,""
"image-keyboard-response",197,235093,"0.0-3.62-0.62","s03zx64ty2uaehk",665,"144.csv","","2155.300000190735","resources/trios/L4T1A1.jpg","38","restless",0.8,0.7,0.6,0.0559696050117369,"true"
"image-keyboard-response",198,235495,"0.0-3.62-1.62","s03zx64ty2uaehk",665,"144.csv","","null","resources/maskTrios/BT1B.jpg","null","",NA,NA,NA,NA,""
"image-keyboard-response",199,236697,"0.0-3.62-2.62","s03zx64ty2uaehk",665,"144.csv","","null","resources/images/coin2.png","null","",NA,NA,NA,NA,""
"image-keyboard-response",200,237883,"0.0-3.63-0.63","s03zx64ty2uaehk",665,"144.csv","","1184.3999996185303","resources/trios/L2T1A1.jpg","37","restless",0.8,0.6,0.6,0.0746271496749997,"true"
"image-keyboard-response",201,238284,"0.0-3.63-1.63","s03zx64ty2uaehk",665,"144.csv","","null","resources/maskTrios/L2BB.jpg","null","",NA,NA,NA,NA,""
"image-keyboard-response",202,239486,"0.0-3.63-2.63","s03zx64ty2uaehk",665,"144.csv","","null","resources/images/coin2.png","null","",NA,NA,NA,NA,""
"image-keyboard-response",203,240145,"0.0-3.64-0.64","s03zx64ty2uaehk",665,"144.csv","","657.5","resources/trios/L2T1A3.jpg","37","restless",0.7,0.6,0.6,0.139628523664614,"true"
"image-keyboard-response",204,240641,"0.0-3.64-1.64","s03zx64ty2uaehk",665,"144.csv","","null","resources/maskTrios/L2BB.jpg","null","",NA,NA,NA,NA,""
"image-keyboard-response",205,241842,"0.0-3.64-2.64","s03zx64ty2uaehk",665,"144.csv","","null","resources/images/coin2.png","null","",NA,NA,NA,NA,""
"image-keyboard-response",206,243801,"0.0-3.65-0.65","s03zx64ty2uaehk",665,"144.csv","","1957.8999996185303","resources/trios/L4T2A1.jpg","37","restless",0.7,0.6,0.6,0.288426790207452,"true"
"image-keyboard-response",207,244204,"0.0-3.65-1.65","s03zx64ty2uaehk",665,"144.csv","","null","resources/maskTrios/L4BB.jpg","null","",NA,NA,NA,NA,""
"image-keyboard-response",208,245406,"0.0-3.65-2.65","s03zx64ty2uaehk",665,"144.csv","","null","resources/images/coin2.png","null","",NA,NA,NA,NA,""
"image-keyboard-response",209,247279,"0.0-3.66-0.66","s03zx64ty2uaehk",665,"144.csv","","1871.8000001907349","resources/trios/L2T2A3.jpg","39","restless",0.7,0.6,0.6,0.130852217040074,"true"
"image-keyboard-response",210,247682,"0.0-3.66-1.66","s03zx64ty2uaehk",665,"144.csv","","null","resources/maskTrios/BBA3.jpg","null","",NA,NA,NA,NA,""
"image-keyboard-response",211,248884,"0.0-3.66-2.66","s03zx64ty2uaehk",665,"144.csv","","null","resources/images/coin2.png","null","",NA,NA,NA,NA,""
"image-keyboard-response",212,249548,"0.0-3.67-0.67","s03zx64ty2uaehk",665,"144.csv","","662.1999998092651","resources/trios/L2T1A3.jpg","39","restless",0.7,0.6,0.6,0.235297176424822,"true"
"image-keyboard-response",213,249950,"0.0-3.67-1.67","s03zx64ty2uaehk",665,"144.csv","","null","resources/maskTrios/BBA3.jpg","null","",NA,NA,NA,NA,""
"image-keyboard-response",214,251151,"0.0-3.67-2.67","s03zx64ty2uaehk",665,"144.csv","","null","resources/images/coin2.png","null","",NA,NA,NA,NA,""
"image-keyboard-response",215,251888,"0.0-3.68-0.68","s03zx64ty2uaehk",665,"144.csv","","735.6000003814697","resources/trios/L4T2A1.jpg","39","restless",0.7,0.6,0.6,0.732591588111039,"false"
"image-keyboard-response",216,252290,"0.0-3.68-1.68","s03zx64ty2uaehk",665,"144.csv","","null","resources/maskTrios/BBA1.jpg","null","",NA,NA,NA,NA,""
"image-keyboard-response",217,253491,"0.0-3.68-2.68","s03zx64ty2uaehk",665,"144.csv","","null","resources/images/fishbone.png","null","",NA,NA,NA,NA,""
"image-keyboard-response",218,254401,"0.0-3.69-0.69","s03zx64ty2uaehk",665,"144.csv","","908.1000003814697","resources/trios/L2T1A3.jpg","37","restless",0.7,0.6,0.6,0.026152900642709,"true"
"image-keyboard-response",219,254855,"0.0-3.69-1.69","s03zx64ty2uaehk",665,"144.csv","","null","resources/maskTrios/L2BB.jpg","null","",NA,NA,NA,NA,""
"image-keyboard-response",220,256057,"0.0-3.69-2.69","s03zx64ty2uaehk",665,"144.csv","","null","resources/images/coin2.png","null","",NA,NA,NA,NA,""
"image-keyboard-response",221,258391,"0.0-3.70-0.70","s03zx64ty2uaehk",665,"144.csv","","2333.199999809265","resources/trios/L4T2A1.jpg","37","restless",0.7,0.6,0.6,0.462137497116229,"true"
"image-keyboard-response",222,258793,"0.0-3.70-1.70","s03zx64ty2uaehk",665,"144.csv","","null","resources/maskTrios/L4BB.jpg","null","",NA,NA,NA,NA,""
"image-keyboard-response",223,259995,"0.0-3.70-2.70","s03zx64ty2uaehk",665,"144.csv","","null","resources/images/coin2.png","null","",NA,NA,NA,NA,""
"image-keyboard-response",224,260500,"0.0-3.71-0.71","s03zx64ty2uaehk",665,"144.csv","","503.9000005722046","resources/trios/L2T1A1.jpg","37","restless",0.7,0.7,0.7,0.0537559415167164,"true"
"image-keyboard-response",225,260902,"0.0-3.71-1.71","s03zx64ty2uaehk",665,"144.csv","","null","resources/maskTrios/L2BB.jpg","null","",NA,NA,NA,NA,""
"image-keyboard-response",226,262104,"0.0-3.71-2.71","s03zx64ty2uaehk",665,"144.csv","","null","resources/images/coin2.png","null","",NA,NA,NA,NA,""
"image-keyboard-response",227,262519,"0.0-3.72-0.72","s03zx64ty2uaehk",665,"144.csv","","414.19999980926514","resources/trios/L4T2A1.jpg","37","restless",0.6,0.7,0.6,0.278312861203779,"true"
"image-keyboard-response",228,262921,"0.0-3.72-1.72","s03zx64ty2uaehk",665,"144.csv","","null","resources/maskTrios/L4BB.jpg","null","",NA,NA,NA,NA,""
"image-keyboard-response",229,264123,"0.0-3.72-2.72","s03zx64ty2uaehk",665,"144.csv","","null","resources/images/coin2.png","null","",NA,NA,NA,NA,""
"image-keyboard-response",230,264488,"0.0-3.73-0.73","s03zx64ty2uaehk",665,"144.csv","","364.1000003814697","resources/trios/L4T1A3.jpg","37","restless",0.6,0.7,0.6,0.630118098944163,"false"
"image-keyboard-response",231,264891,"0.0-3.73-1.73","s03zx64ty2uaehk",665,"144.csv","","null","resources/maskTrios/L4BB.jpg","null","",NA,NA,NA,NA,""
"image-keyboard-response",232,266093,"0.0-3.73-2.73","s03zx64ty2uaehk",665,"144.csv","","null","resources/images/fishbone.png","null","",NA,NA,NA,NA,""
"image-keyboard-response",233,267208,"0.0-3.74-0.74","s03zx64ty2uaehk",665,"144.csv","","1113.5999994277954","resources/trios/L2T1A1.jpg","37","restless",0.6,0.7,0.6,0.220758609623004,"true"
"image-keyboard-response",234,267610,"0.0-3.74-1.74","s03zx64ty2uaehk",665,"144.csv","","null","resources/maskTrios/L2BB.jpg","null","",NA,NA,NA,NA,""
"image-keyboard-response",235,268813,"0.0-3.74-2.74","s03zx64ty2uaehk",665,"144.csv","","null","resources/images/coin2.png","null","",NA,NA,NA,NA,""
"image-keyboard-response",236,270183,"0.0-3.75-0.75","s03zx64ty2uaehk",665,"144.csv","","1369.2999992370605","resources/trios/L2T1A3.jpg","37","restless",0.7,0.7,0.6,0.0533310063758403,"true"
"image-keyboard-response",237,270585,"0.0-3.75-1.75","s03zx64ty2uaehk",665,"144.csv","","null","resources/maskTrios/L2BB.jpg","null","",NA,NA,NA,NA,""
"image-keyboard-response",238,271788,"0.0-3.75-2.75","s03zx64ty2uaehk",665,"144.csv","","null","resources/images/coin2.png","null","",NA,NA,NA,NA,""
"image-keyboard-response",239,273141,"0.0-3.76-0.76","s03zx64ty2uaehk",665,"144.csv","","1351.3999996185303","resources/trios/L2T1A1.jpg","37","restless",0.7,0.7,0.6,0.216648086196136,"true"
"image-keyboard-response",240,273543,"0.0-3.76-1.76","s03zx64ty2uaehk",665,"144.csv","","null","resources/maskTrios/L2BB.jpg","null","",NA,NA,NA,NA,""
"image-keyboard-response",241,274745,"0.0-3.76-2.76","s03zx64ty2uaehk",665,"144.csv","","null","resources/images/coin2.png","null","",NA,NA,NA,NA,""
"image-keyboard-response",242,276418,"0.0-3.77-0.77","s03zx64ty2uaehk",665,"144.csv","","1671.5999994277954","resources/trios/L4T1A1.jpg","38","restless",0.7,0.7,0.6,0.292122139177771,"true"
"image-keyboard-response",243,276820,"0.0-3.77-1.77","s03zx64ty2uaehk",665,"144.csv","","null","resources/maskTrios/BT1B.jpg","null","",NA,NA,NA,NA,""
"image-keyboard-response",244,278022,"0.0-3.77-2.77","s03zx64ty2uaehk",665,"144.csv","","null","resources/images/coin2.png","null","",NA,NA,NA,NA,""
"image-keyboard-response",245,278995,"0.0-3.78-0.78","s03zx64ty2uaehk",665,"144.csv","","972.9000005722046","resources/trios/L4T1A1.jpg","38","restless",0.7,0.8,0.6,0.957982034689641,"false"
"image-keyboard-response",246,279397,"0.0-3.78-1.78","s03zx64ty2uaehk",665,"144.csv","","null","resources/maskTrios/BT1B.jpg","null","",NA,NA,NA,NA,""
"image-keyboard-response",247,280600,"0.0-3.78-2.78","s03zx64ty2uaehk",665,"144.csv","","null","resources/images/fishbone.png","null","",NA,NA,NA,NA,""
"image-keyboard-response",248,281667,"0.0-3.79-0.79","s03zx64ty2uaehk",665,"144.csv","","1066.2000007629395","resources/trios/L2T2A3.jpg","37","restless",0.7,0.8,0.6,0.178604527777215,"true"
"image-keyboard-response",249,282070,"0.0-3.79-1.79","s03zx64ty2uaehk",665,"144.csv","","null","resources/maskTrios/L2BB.jpg","null","",NA,NA,NA,NA,""
"image-keyboard-response",250,283271,"0.0-3.79-2.79","s03zx64ty2uaehk",665,"144.csv","","null","resources/images/coin2.png","null","",NA,NA,NA,NA,""
"image-keyboard-response",251,283827,"0.0-3.80-0.80","s03zx64ty2uaehk",665,"144.csv","","555","resources/trios/L2T1A3.jpg","37","restless",0.7,0.8,0.6,0.0694858890843622,"true"
"image-keyboard-response",252,284230,"0.0-3.80-1.80","s03zx64ty2uaehk",665,"144.csv","","null","resources/maskTrios/L2BB.jpg","null","",NA,NA,NA,NA,""
"image-keyboard-response",253,285432,"0.0-3.80-2.80","s03zx64ty2uaehk",665,"144.csv","","null","resources/images/coin2.png","null","",NA,NA,NA,NA,""
"image-keyboard-response",254,287266,"0.0-3.81-0.81","s03zx64ty2uaehk",665,"144.csv","","1833.1000003814697","resources/trios/L2T2A1.jpg","37","restless",0.7,0.8,0.6,0.208260251004484,"true"
"image-keyboard-response",255,287668,"0.0-3.81-1.81","s03zx64ty2uaehk",665,"144.csv","","null","resources/maskTrios/L2BB.jpg","null","",NA,NA,NA,NA,""
"image-keyboard-response",256,288871,"0.0-3.81-2.81","s03zx64ty2uaehk",665,"144.csv","","null","resources/images/coin2.png","null","",NA,NA,NA,NA,""
"image-keyboard-response",257,289683,"0.0-3.82-0.82","s03zx64ty2uaehk",665,"144.csv","","810.8000001907349","resources/trios/L2T1A1.jpg","37","restless",0.7,0.8,0.6,0.38183220979213,"true"
"image-keyboard-response",258,290085,"0.0-3.82-1.82","s03zx64ty2uaehk",665,"144.csv","","null","resources/maskTrios/L2BB.jpg","null","",NA,NA,NA,NA,""
"image-keyboard-response",259,291287,"0.0-3.82-2.82","s03zx64ty2uaehk",665,"144.csv","","null","resources/images/coin2.png","null","",NA,NA,NA,NA,""
"image-keyboard-response",260,291880,"0.0-3.83-0.83","s03zx64ty2uaehk",665,"144.csv","","591.3000001907349","resources/trios/L4T1A1.jpg","37","restless",0.7,0.9,0.6,0.869635201037146,"false"
"image-keyboard-response",261,292283,"0.0-3.83-1.83","s03zx64ty2uaehk",665,"144.csv","","null","resources/maskTrios/L4BB.jpg","null","",NA,NA,NA,NA,""
"image-keyboard-response",262,293485,"0.0-3.83-2.83","s03zx64ty2uaehk",665,"144.csv","","null","resources/images/fishbone.png","null","",NA,NA,NA,NA,""
"image-keyboard-response",263,294350,"0.0-3.84-0.84","s03zx64ty2uaehk",665,"144.csv","","863.9000005722046","resources/trios/L2T2A3.jpg","39","restless",0.7,0.9,0.6,0.361929783804905,"true"
"image-keyboard-response",264,294752,"0.0-3.84-1.84","s03zx64ty2uaehk",665,"144.csv","","null","resources/maskTrios/BBA3.jpg","null","",NA,NA,NA,NA,""
"image-keyboard-response",265,295955,"0.0-3.84-2.84","s03zx64ty2uaehk",665,"144.csv","","null","resources/images/coin2.png","null","",NA,NA,NA,NA,""
"image-keyboard-response",266,297199,"0.0-3.85-0.85","s03zx64ty2uaehk",665,"144.csv","","1242.6999998092651","resources/trios/L4T2A1.jpg","37","restless",0.7,0.8,0.6,0.362161181680335,"true"
"image-keyboard-response",267,297602,"0.0-3.85-1.85","s03zx64ty2uaehk",665,"144.csv","","null","resources/maskTrios/L4BB.jpg","null","",NA,NA,NA,NA,""
"image-keyboard-response",268,298804,"0.0-3.85-2.85","s03zx64ty2uaehk",665,"144.csv","","null","resources/images/coin2.png","null","",NA,NA,NA,NA,""
"image-keyboard-response",269,300019,"0.0-3.86-0.86","s03zx64ty2uaehk",665,"144.csv","","1214.0999994277954","resources/trios/L2T1A1.jpg","37","restless",0.8,0.8,0.6,0.272596110131039,"true"
"image-keyboard-response",270,300421,"0.0-3.86-1.86","s03zx64ty2uaehk",665,"144.csv","","null","resources/maskTrios/L2BB.jpg","null","",NA,NA,NA,NA,""
"image-keyboard-response",271,301624,"0.0-3.86-2.86","s03zx64ty2uaehk",665,"144.csv","","null","resources/images/coin2.png","null","",NA,NA,NA,NA,""
"image-keyboard-response",272,303061,"0.0-3.87-0.87","s03zx64ty2uaehk",665,"144.csv","","1436","resources/trios/L4T2A3.jpg","39","restless",0.8,0.8,0.6,0.583657360921385,"true"
"image-keyboard-response",273,303464,"0.0-3.87-1.87","s03zx64ty2uaehk",665,"144.csv","","null","resources/maskTrios/BBA3.jpg","null","",NA,NA,NA,NA,""
"image-keyboard-response",274,304665,"0.0-3.87-2.87","s03zx64ty2uaehk",665,"144.csv","","null","resources/images/coin2.png","null","",NA,NA,NA,NA,""
"image-keyboard-response",275,305768,"0.0-3.88-0.88","s03zx64ty2uaehk",665,"144.csv","","1101.7999992370605","resources/trios/L4T1A3.jpg","37","restless",0.8,0.8,0.5,0.417476376854312,"true"
"image-keyboard-response",276,306170,"0.0-3.88-1.88","s03zx64ty2uaehk",665,"144.csv","","null","resources/maskTrios/L4BB.jpg","null","",NA,NA,NA,NA,""
"image-keyboard-response",277,307371,"0.0-3.88-2.88","s03zx64ty2uaehk",665,"144.csv","","null","resources/images/coin2.png","null","",NA,NA,NA,NA,""
"image-keyboard-response",278,308062,"0.0-3.89-0.89","s03zx64ty2uaehk",665,"144.csv","","689.3999996185303","resources/trios/L2T2A3.jpg","37","restless",0.8,0.8,0.5,0.31113502360345,"true"
"image-keyboard-response",279,308465,"0.0-3.89-1.89","s03zx64ty2uaehk",665,"144.csv","","null","resources/maskTrios/L2BB.jpg","null","",NA,NA,NA,NA,""
"image-keyboard-response",280,309667,"0.0-3.89-2.89","s03zx64ty2uaehk",665,"144.csv","","null","resources/images/coin2.png","null","",NA,NA,NA,NA,""
"image-keyboard-response",281,310596,"0.0-3.90-0.90","s03zx64ty2uaehk",665,"144.csv","","927.8999996185303","resources/trios/L2T2A1.jpg","37","restless",0.8,0.8,0.5,0.655360014718165,"true"
"image-keyboard-response",282,310999,"0.0-3.90-1.90","s03zx64ty2uaehk",665,"144.csv","","null","resources/maskTrios/L2BB.jpg","null","",NA,NA,NA,NA,""
"image-keyboard-response",283,312200,"0.0-3.90-2.90","s03zx64ty2uaehk",665,"144.csv","","null","resources/images/coin2.png","null","",NA,NA,NA,NA,""
"image-keyboard-response",284,312784,"0.0-3.91-0.91","s03zx64ty2uaehk",665,"144.csv","","582.1000003814697","resources/trios/L2T1A3.jpg","39","restless",0.8,0.8,0.4,0.986101096161516,"false"
"image-keyboard-response",285,313186,"0.0-3.91-1.91","s03zx64ty2uaehk",665,"144.csv","","null","resources/maskTrios/BBA3.jpg","null","",NA,NA,NA,NA,""
"image-keyboard-response",286,314389,"0.0-3.91-2.91","s03zx64ty2uaehk",665,"144.csv","","null","resources/images/fishbone.png","null","",NA,NA,NA,NA,""
"image-keyboard-response",287,315678,"0.0-3.92-0.92","s03zx64ty2uaehk",665,"144.csv","","1287.1999998092651","resources/trios/L4T1A3.jpg","38","restless",0.8,0.9,0.4,0.137162154492121,"true"
"image-keyboard-response",288,316080,"0.0-3.92-1.92","s03zx64ty2uaehk",665,"144.csv","","null","resources/maskTrios/BT1B.jpg","null","",NA,NA,NA,NA,""
"image-keyboard-response",289,317281,"0.0-3.92-2.92","s03zx64ty2uaehk",665,"144.csv","","null","resources/images/coin2.png","null","",NA,NA,NA,NA,""
"image-keyboard-response",290,317768,"0.0-3.93-0.93","s03zx64ty2uaehk",665,"144.csv","","485.5","resources/trios/L4T1A1.jpg","38","restless",0.7,0.8,0.4,0.687827583488661,"true"
"image-keyboard-response",291,318171,"0.0-3.93-1.93","s03zx64ty2uaehk",665,"144.csv","","null","resources/maskTrios/BT1B.jpg","null","",NA,NA,NA,NA,""
"image-keyboard-response",292,319373,"0.0-3.93-2.93","s03zx64ty2uaehk",665,"144.csv","","null","resources/images/coin2.png","null","",NA,NA,NA,NA,""
"image-keyboard-response",293,319927,"0.0-3.94-0.94","s03zx64ty2uaehk",665,"144.csv","","552.8000001907349","resources/trios/L4T1A1.jpg","38","restless",0.7,0.8,0.4,0.4200152931763,"true"
"image-keyboard-response",294,320329,"0.0-3.94-1.94","s03zx64ty2uaehk",665,"144.csv","","null","resources/maskTrios/BT1B.jpg","null","",NA,NA,NA,NA,""
"image-keyboard-response",295,321531,"0.0-3.94-2.94","s03zx64ty2uaehk",665,"144.csv","","null","resources/images/coin2.png","null","",NA,NA,NA,NA,""
"image-keyboard-response",296,322216,"0.0-3.95-0.95","s03zx64ty2uaehk",665,"144.csv","","684.3000001907349","resources/trios/L4T1A3.jpg","38","restless",0.7,0.8,0.4,0.651893565548191,"true"
"image-keyboard-response",297,322618,"0.0-3.95-1.95","s03zx64ty2uaehk",665,"144.csv","","null","resources/maskTrios/BT1B.jpg","null","",NA,NA,NA,NA,""
"image-keyboard-response",298,323821,"0.0-3.95-2.95","s03zx64ty2uaehk",665,"144.csv","","null","resources/images/coin2.png","null","",NA,NA,NA,NA,""
"image-keyboard-response",299,324688,"0.0-3.96-0.96","s03zx64ty2uaehk",665,"144.csv","","866.1000003814697","resources/trios/L2T2A1.jpg","37","restless",0.7,0.8,0.4,0.493404445617607,"true"
"image-keyboard-response",300,325090,"0.0-3.96-1.96","s03zx64ty2uaehk",665,"144.csv","","null","resources/maskTrios/L2BB.jpg","null","",NA,NA,NA,NA,""
"image-keyboard-response",301,326292,"0.0-3.96-2.96","s03zx64ty2uaehk",665,"144.csv","","null","resources/images/coin2.png","null","",NA,NA,NA,NA,""
"image-keyboard-response",302,327577,"0.0-3.97-0.97","s03zx64ty2uaehk",665,"144.csv","","1283.9000005722046","resources/trios/L4T2A3.jpg","37","restless",0.7,0.8,0.4,0.131746562863267,"true"
"image-keyboard-response",303,327978,"0.0-3.97-1.97","s03zx64ty2uaehk",665,"144.csv","","null","resources/maskTrios/L4BB.jpg","null","",NA,NA,NA,NA,""
"image-keyboard-response",304,329181,"0.0-3.97-2.97","s03zx64ty2uaehk",665,"144.csv","","null","resources/images/coin2.png","null","",NA,NA,NA,NA,""
"image-keyboard-response",305,330600,"0.0-3.98-0.98","s03zx64ty2uaehk",665,"144.csv","","1417.6999998092651","resources/trios/L2T1A3.jpg","37","restless",0.7,0.8,0.4,0.268506487559861,"true"
"image-keyboard-response",306,331002,"0.0-3.98-1.98","s03zx64ty2uaehk",665,"144.csv","","null","resources/maskTrios/L2BB.jpg","null","",NA,NA,NA,NA,""
"image-keyboard-response",307,332204,"0.0-3.98-2.98","s03zx64ty2uaehk",665,"144.csv","","null","resources/images/coin2.png","null","",NA,NA,NA,NA,""
"image-keyboard-response",308,332730,"0.0-3.99-0.99","s03zx64ty2uaehk",665,"144.csv","","524.6999998092651","resources/trios/L2T1A1.jpg","37","restless",0.7,0.8,0.4,0.093973716628704,"true"
"image-keyboard-response",309,333132,"0.0-3.99-1.99","s03zx64ty2uaehk",665,"144.csv","","null","resources/maskTrios/L2BB.jpg","null","",NA,NA,NA,NA,""
"image-keyboard-response",310,334334,"0.0-3.99-2.99","s03zx64ty2uaehk",665,"144.csv","","null","resources/images/coin2.png","null","",NA,NA,NA,NA,""
"image-keyboard-response",311,335533,"0.0-3.100-0.100","s03zx64ty2uaehk",665,"144.csv","","1196.7000007629395","resources/trios/L4T2A1.jpg","37","restless",0.7,0.8,0.4,0.339639240013387,"true"
"image-keyboard-response",312,335937,"0.0-3.100-1.100","s03zx64ty2uaehk",665,"144.csv","","null","resources/maskTrios/L4BB.jpg","null","",NA,NA,NA,NA,""
"image-keyboard-response",313,337139,"0.0-3.100-2.100","s03zx64ty2uaehk",665,"144.csv","","null","resources/images/coin2.png","null","",NA,NA,NA,NA,""
"image-keyboard-response",314,338401,"0.0-3.101-0.101","s03zx64ty2uaehk",665,"144.csv","","1260.5","resources/trios/L4T1A3.jpg","38","restless",0.7,0.8,0.4,0.750161268008478,"true"
"image-keyboard-response",315,338804,"0.0-3.101-1.101","s03zx64ty2uaehk",665,"144.csv","","null","resources/maskTrios/BT1B.jpg","null","",NA,NA,NA,NA,""
"image-keyboard-response",316,340006,"0.0-3.101-2.101","s03zx64ty2uaehk",665,"144.csv","","null","resources/images/coin2.png","null","",NA,NA,NA,NA,""
"image-keyboard-response",317,340885,"0.0-3.102-0.102","s03zx64ty2uaehk",665,"144.csv","","877.3000001907349","resources/trios/L2T1A3.jpg","37","restless",0.7,0.8,0.4,0.452070647540534,"true"
"image-keyboard-response",318,341287,"0.0-3.102-1.102","s03zx64ty2uaehk",665,"144.csv","","null","resources/maskTrios/L2BB.jpg","null","",NA,NA,NA,NA,""
"image-keyboard-response",319,342489,"0.0-3.102-2.102","s03zx64ty2uaehk",665,"144.csv","","null","resources/images/coin2.png","null","",NA,NA,NA,NA,""
"image-keyboard-response",320,343282,"0.0-3.103-0.103","s03zx64ty2uaehk",665,"144.csv","","791.5","resources/trios/L2T1A3.jpg","37","restless",0.7,0.8,0.4,0.450979568206209,"true"
"image-keyboard-response",321,343684,"0.0-3.103-1.103","s03zx64ty2uaehk",665,"144.csv","","null","resources/maskTrios/L2BB.jpg","null","",NA,NA,NA,NA,""
"image-keyboard-response",322,344886,"0.0-3.103-2.103","s03zx64ty2uaehk",665,"144.csv","","null","resources/images/coin2.png","null","",NA,NA,NA,NA,""
"image-keyboard-response",323,346304,"0.0-3.104-0.104","s03zx64ty2uaehk",665,"144.csv","","1415.8000001907349","resources/trios/L4T2A3.jpg","37","restless",0.7,0.8,0.4,0.454968820207611,"true"
"image-keyboard-response",324,346705,"0.0-3.104-1.104","s03zx64ty2uaehk",665,"144.csv","","null","resources/maskTrios/L4BB.jpg","null","",NA,NA,NA,NA,""
"image-keyboard-response",325,347907,"0.0-3.104-2.104","s03zx64ty2uaehk",665,"144.csv","","null","resources/images/coin2.png","null","",NA,NA,NA,NA,""
"image-keyboard-response",326,349140,"0.0-3.105-0.105","s03zx64ty2uaehk",665,"144.csv","","1231.6000003814697","resources/trios/L2T2A1.jpg","37","restless",0.7,0.8,0.4,0.0914302824578639,"true"
"image-keyboard-response",327,349632,"0.0-3.105-1.105","s03zx64ty2uaehk",665,"144.csv","","null","resources/maskTrios/L2BB.jpg","null","",NA,NA,NA,NA,""
"image-keyboard-response",328,350835,"0.0-3.105-2.105","s03zx64ty2uaehk",665,"144.csv","","null","resources/images/coin2.png","null","",NA,NA,NA,NA,""
"image-keyboard-response",329,355906,"0.0-3.106-0.106","s03zx64ty2uaehk",665,"144.csv","","5069.60000038147","resources/trios/L4T1A3.jpg","37","restless",0.7,0.9,0.4,0.216674744945101,"true"
"image-keyboard-response",330,356307,"0.0-3.106-1.106","s03zx64ty2uaehk",665,"144.csv","","null","resources/maskTrios/L4BB.jpg","null","",NA,NA,NA,NA,""
"image-keyboard-response",331,357509,"0.0-3.106-2.106","s03zx64ty2uaehk",665,"144.csv","","null","resources/images/coin2.png","null","",NA,NA,NA,NA,""
"image-keyboard-response",332,359092,"0.0-3.107-0.107","s03zx64ty2uaehk",665,"144.csv","","1581.8999996185303","resources/trios/L4T2A1.jpg","37","restless",0.7,0.9,0.4,0.403969820426972,"true"
"image-keyboard-response",333,359495,"0.0-3.107-1.107","s03zx64ty2uaehk",665,"144.csv","","null","resources/maskTrios/L4BB.jpg","null","",NA,NA,NA,NA,""
"image-keyboard-response",334,360697,"0.0-3.107-2.107","s03zx64ty2uaehk",665,"144.csv","","null","resources/images/coin2.png","null","",NA,NA,NA,NA,""
"image-keyboard-response",335,361142,"0.0-3.108-0.108","s03zx64ty2uaehk",665,"144.csv","","442.1000003814697","resources/trios/L2T1A3.jpg","37","restless",0.7,0.9,0.4,0.942759309273097,"false"
"image-keyboard-response",336,361545,"0.0-3.108-1.108","s03zx64ty2uaehk",665,"144.csv","","null","resources/maskTrios/L2BB.jpg","null","",NA,NA,NA,NA,""
"image-keyboard-response",337,362746,"0.0-3.108-2.108","s03zx64ty2uaehk",665,"144.csv","","null","resources/images/fishbone.png","null","",NA,NA,NA,NA,""
"image-keyboard-response",338,363569,"0.0-3.109-0.109","s03zx64ty2uaehk",665,"144.csv","","821.8999996185303","resources/trios/L2T2A3.jpg","39","restless",0.7,0.9,0.4,0.224658645685212,"true"
"image-keyboard-response",339,363971,"0.0-3.109-1.109","s03zx64ty2uaehk",665,"144.csv","","null","resources/maskTrios/BBA3.jpg","null","",NA,NA,NA,NA,""
"image-keyboard-response",340,365173,"0.0-3.109-2.109","s03zx64ty2uaehk",665,"144.csv","","null","resources/images/coin2.png","null","",NA,NA,NA,NA,""
"image-keyboard-response",341,365591,"0.0-3.110-0.110","s03zx64ty2uaehk",665,"144.csv","","416.0999994277954","resources/trios/L2T2A1.jpg","39","restless",0.7,0.9,0.4,0.936435150370882,"false"
"image-keyboard-response",342,365992,"0.0-3.110-1.110","s03zx64ty2uaehk",665,"144.csv","","null","resources/maskTrios/BBA1.jpg","null","",NA,NA,NA,NA,""
"image-keyboard-response",343,367194,"0.0-3.110-2.110","s03zx64ty2uaehk",665,"144.csv","","null","resources/images/fishbone.png","null","",NA,NA,NA,NA,""
"image-keyboard-response",344,367609,"0.0-3.111-0.111","s03zx64ty2uaehk",665,"144.csv","","413.0999994277954","resources/trios/L2T2A3.jpg","37","restless",0.7,0.9,0.4,0.0728214363229478,"true"
"image-keyboard-response",345,368011,"0.0-3.111-1.111","s03zx64ty2uaehk",665,"144.csv","","null","resources/maskTrios/L2BB.jpg","null","",NA,NA,NA,NA,""
"image-keyboard-response",346,369212,"0.0-3.111-2.111","s03zx64ty2uaehk",665,"144.csv","","null","resources/images/coin2.png","null","",NA,NA,NA,NA,""
"image-keyboard-response",347,370326,"0.0-3.112-0.112","s03zx64ty2uaehk",665,"144.csv","","1112","resources/trios/L4T2A3.jpg","37","restless",0.7,0.9,0.4,0.499084292025976,"true"
"image-keyboard-response",348,370727,"0.0-3.112-1.112","s03zx64ty2uaehk",665,"144.csv","","null","resources/maskTrios/L4BB.jpg","null","",NA,NA,NA,NA,""
"image-keyboard-response",349,371929,"0.0-3.112-2.112","s03zx64ty2uaehk",665,"144.csv","","null","resources/images/coin2.png","null","",NA,NA,NA,NA,""
"image-keyboard-response",350,372779,"0.0-3.113-0.113","s03zx64ty2uaehk",665,"144.csv","","848.8000001907349","resources/trios/L2T1A3.jpg","37","restless",0.7,0.9,0.4,0.832399780897225,"false"
"image-keyboard-response",351,373181,"0.0-3.113-1.113","s03zx64ty2uaehk",665,"144.csv","","null","resources/maskTrios/L2BB.jpg","null","",NA,NA,NA,NA,""
"image-keyboard-response",352,374382,"0.0-3.113-2.113","s03zx64ty2uaehk",665,"144.csv","","null","resources/images/fishbone.png","null","",NA,NA,NA,NA,""
"image-keyboard-response",353,374907,"0.0-3.114-0.114","s03zx64ty2uaehk",665,"144.csv","","523","resources/trios/L2T1A1.jpg","39","restless",0.7,0.9,0.4,0.754834166339115,"false"
"image-keyboard-response",354,375308,"0.0-3.114-1.114","s03zx64ty2uaehk",665,"144.csv","","null","resources/maskTrios/BBA1.jpg","null","",NA,NA,NA,NA,""
"image-keyboard-response",355,376510,"0.0-3.114-2.114","s03zx64ty2uaehk",665,"144.csv","","null","resources/images/fishbone.png","null","",NA,NA,NA,NA,""
"image-keyboard-response",356,377588,"0.0-3.115-0.115","s03zx64ty2uaehk",665,"144.csv","","1076.3999996185303","resources/trios/L2T2A1.jpg","37","restless",0.7,0.9,0.4,0.437156094609273,"true"
"image-keyboard-response",357,377990,"0.0-3.115-1.115","s03zx64ty2uaehk",665,"144.csv","","null","resources/maskTrios/L2BB.jpg","null","",NA,NA,NA,NA,""
"image-keyboard-response",358,379193,"0.0-3.115-2.115","s03zx64ty2uaehk",665,"144.csv","","null","resources/images/coin2.png","null","",NA,NA,NA,NA,""
"image-keyboard-response",359,379883,"0.0-3.116-0.116","s03zx64ty2uaehk",665,"144.csv","","689","resources/trios/L2T2A3.jpg","38","restless",0.7,0.9,0.4,0.394683833718084,"true"
"image-keyboard-response",360,380285,"0.0-3.116-1.116","s03zx64ty2uaehk",665,"144.csv","","null","resources/maskTrios/BT2B.jpg","null","",NA,NA,NA,NA,""
"image-keyboard-response",361,381487,"0.0-3.116-2.116","s03zx64ty2uaehk",665,"144.csv","","null","resources/images/coin2.png","null","",NA,NA,NA,NA,""
"image-keyboard-response",362,381780,"0.0-3.117-0.117","s03zx64ty2uaehk",665,"144.csv","","291.20000076293945","resources/trios/L2T1A1.jpg","39","restless",0.7,0.9,0.4,0.395918478213207,"true"
"image-keyboard-response",363,382182,"0.0-3.117-1.117","s03zx64ty2uaehk",665,"144.csv","","null","resources/maskTrios/BBA1.jpg","null","",NA,NA,NA,NA,""
"image-keyboard-response",364,383384,"0.0-3.117-2.117","s03zx64ty2uaehk",665,"144.csv","","null","resources/images/coin2.png","null","",NA,NA,NA,NA,""
"image-keyboard-response",365,383874,"0.0-3.118-0.118","s03zx64ty2uaehk",665,"144.csv","","489.3999996185303","resources/trios/L2T1A3.jpg","37","restless",0.7,0.9,0.3,0.635157838096032,"true"
"image-keyboard-response",366,384277,"0.0-3.118-1.118","s03zx64ty2uaehk",665,"144.csv","","null","resources/maskTrios/L2BB.jpg","null","",NA,NA,NA,NA,""
"image-keyboard-response",367,385479,"0.0-3.118-2.118","s03zx64ty2uaehk",665,"144.csv","","null","resources/images/coin2.png","null","",NA,NA,NA,NA,""
"image-keyboard-response",368,385981,"0.0-3.119-0.119","s03zx64ty2uaehk",665,"144.csv","","501.4000005722046","resources/trios/L2T2A3.jpg","39","restless",0.7,0.9,0.3,0.467631138581191,"false"
"image-keyboard-response",369,386384,"0.0-3.119-1.119","s03zx64ty2uaehk",665,"144.csv","","null","resources/maskTrios/BBA3.jpg","null","",NA,NA,NA,NA,""
"image-keyboard-response",370,387586,"0.0-3.119-2.119","s03zx64ty2uaehk",665,"144.csv","","null","resources/images/fishbone.png","null","",NA,NA,NA,NA,""
"image-keyboard-response",371,387944,"0.0-3.120-0.120","s03zx64ty2uaehk",665,"144.csv","","356.8999996185303","resources/trios/L2T1A3.jpg","37","restless",0.7,0.9,0.3,0.858419949548034,"false"
"image-keyboard-response",372,388347,"0.0-3.120-1.120","s03zx64ty2uaehk",665,"144.csv","","null","resources/maskTrios/L2BB.jpg","null","",NA,NA,NA,NA,""
"image-keyboard-response",373,389548,"0.0-3.120-2.120","s03zx64ty2uaehk",665,"144.csv","","null","resources/images/fishbone.png","null","",NA,NA,NA,NA,""
"image-keyboard-response",374,390013,"0.0-3.121-0.121","s03zx64ty2uaehk",665,"144.csv","","463.70000076293945","resources/trios/L2T2A1.jpg","37","restless",0.6,0.9,0.3,0.842542020754501,"false"
"image-keyboard-response",375,390415,"0.0-3.121-1.121","s03zx64ty2uaehk",665,"144.csv","","null","resources/maskTrios/L2BB.jpg","null","",NA,NA,NA,NA,""
"image-keyboard-response",376,391617,"0.0-3.121-2.121","s03zx64ty2uaehk",665,"144.csv","","null","resources/images/fishbone.png","null","",NA,NA,NA,NA,""
"image-keyboard-response",377,391954,"0.0-3.122-0.122","s03zx64ty2uaehk",665,"144.csv","","335.4000005722046","resources/trios/L4T2A1.jpg","39","restless",0.6,0.9,0.4,0.365644773207292,"true"
"image-keyboard-response",378,392356,"0.0-3.122-1.122","s03zx64ty2uaehk",665,"144.csv","","null","resources/maskTrios/BBA1.jpg","null","",NA,NA,NA,NA,""
"image-keyboard-response",379,393558,"0.0-3.122-2.122","s03zx64ty2uaehk",665,"144.csv","","null","resources/images/coin2.png","null","",NA,NA,NA,NA,""
"image-keyboard-response",380,394076,"0.0-3.123-0.123","s03zx64ty2uaehk",665,"144.csv","","516.7999992370605","resources/trios/L4T2A1.jpg","39","restless",0.6,0.9,0.4,0.811024156396056,"false"
"image-keyboard-response",381,394479,"0.0-3.123-1.123","s03zx64ty2uaehk",665,"144.csv","","null","resources/maskTrios/BBA1.jpg","null","",NA,NA,NA,NA,""
"image-keyboard-response",382,395680,"0.0-3.123-2.123","s03zx64ty2uaehk",665,"144.csv","","null","resources/images/fishbone.png","null","",NA,NA,NA,NA,""
"image-keyboard-response",383,396148,"0.0-3.124-0.124","s03zx64ty2uaehk",665,"144.csv","","466.69999980926514","resources/trios/L2T2A1.jpg","37","restless",0.6,0.9,0.4,0.80927522782895,"false"
"image-keyboard-response",384,396550,"0.0-3.124-1.124","s03zx64ty2uaehk",665,"144.csv","","null","resources/maskTrios/L2BB.jpg","null","",NA,NA,NA,NA,""
"image-keyboard-response",385,397752,"0.0-3.124-2.124","s03zx64ty2uaehk",665,"144.csv","","null","resources/images/fishbone.png","null","",NA,NA,NA,NA,""
"image-keyboard-response",386,398265,"0.0-3.125-0.125","s03zx64ty2uaehk",665,"144.csv","","511.5999994277954","resources/trios/L2T2A3.jpg","39","restless",0.6,0.9,0.4,0.94400175284894,"false"
"image-keyboard-response",387,398816,"0.0-3.125-1.125","s03zx64ty2uaehk",665,"144.csv","","null","resources/maskTrios/BBA3.jpg","null","",NA,NA,NA,NA,""
"image-keyboard-response",388,400018,"0.0-3.125-2.125","s03zx64ty2uaehk",665,"144.csv","","null","resources/images/fishbone.png","null","",NA,NA,NA,NA,""
"image-keyboard-response",389,400302,"0.0-3.126-0.126","s03zx64ty2uaehk",665,"144.csv","","283","resources/trios/L2T1A3.jpg","38","restless",0.5,0.8,0.4,0.0247621804235909,"true"
"image-keyboard-response",390,400727,"0.0-3.126-1.126","s03zx64ty2uaehk",665,"144.csv","","null","resources/maskTrios/BT1B.jpg","null","",NA,NA,NA,NA,""
"image-keyboard-response",391,401929,"0.0-3.126-2.126","s03zx64ty2uaehk",665,"144.csv","","null","resources/images/coin2.png","null","",NA,NA,NA,NA,""
"image-keyboard-response",392,402476,"0.0-3.127-0.127","s03zx64ty2uaehk",665,"144.csv","","546","resources/trios/L2T1A3.jpg","38","restless",0.5,0.8,0.4,0.369019338945977,"true"
"image-keyboard-response",393,402878,"0.0-3.127-1.127","s03zx64ty2uaehk",665,"144.csv","","null","resources/maskTrios/BT1B.jpg","null","",NA,NA,NA,NA,""
"image-keyboard-response",394,404080,"0.0-3.127-2.127","s03zx64ty2uaehk",665,"144.csv","","null","resources/images/coin2.png","null","",NA,NA,NA,NA,""
"image-keyboard-response",395,405678,"0.0-3.128-0.128","s03zx64ty2uaehk",665,"144.csv","","1595.6999998092651","resources/trios/L2T2A3.jpg","38","restless",0.5,0.8,0.5,0.367209020079686,"true"
"image-keyboard-response",396,406079,"0.0-3.128-1.128","s03zx64ty2uaehk",665,"144.csv","","null","resources/maskTrios/BT2B.jpg","null","",NA,NA,NA,NA,""
"image-keyboard-response",397,407281,"0.0-3.128-2.128","s03zx64ty2uaehk",665,"144.csv","","null","resources/images/coin2.png","null","",NA,NA,NA,NA,""
"image-keyboard-response",398,408578,"0.0-3.129-0.129","s03zx64ty2uaehk",665,"144.csv","","1295.1999998092651","resources/trios/L4T1A1.jpg","38","restless",0.4,0.8,0.5,0.25941960989437,"true"
"image-keyboard-response",399,408980,"0.0-3.129-1.129","s03zx64ty2uaehk",665,"144.csv","","null","resources/maskTrios/BT1B.jpg","null","",NA,NA,NA,NA,""
"image-keyboard-response",400,410182,"0.0-3.129-2.129","s03zx64ty2uaehk",665,"144.csv","","null","resources/images/coin2.png","null","",NA,NA,NA,NA,""
"image-keyboard-response",401,410738,"0.0-3.130-0.130","s03zx64ty2uaehk",665,"144.csv","","555.0999994277954","resources/trios/L2T1A3.jpg","38","restless",0.4,0.8,0.5,0.929357824569497,"false"
"image-keyboard-response",402,411140,"0.0-3.130-1.130","s03zx64ty2uaehk",665,"144.csv","","null","resources/maskTrios/BT1B.jpg","null","",NA,NA,NA,NA,""
"image-keyboard-response",403,412341,"0.0-3.130-2.130","s03zx64ty2uaehk",665,"144.csv","","null","resources/images/fishbone.png","null","",NA,NA,NA,NA,""
"image-keyboard-response",404,412912,"0.0-3.131-0.131","s03zx64ty2uaehk",665,"144.csv","","569","resources/trios/L2T2A1.jpg","37","restless",0.4,0.8,0.5,0.7767977220448,"false"
"image-keyboard-response",405,413314,"0.0-3.131-1.131","s03zx64ty2uaehk",665,"144.csv","","null","resources/maskTrios/L2BB.jpg","null","",NA,NA,NA,NA,""
"image-keyboard-response",406,414516,"0.0-3.131-2.131","s03zx64ty2uaehk",665,"144.csv","","null","resources/images/fishbone.png","null","",NA,NA,NA,NA,""
"image-keyboard-response",407,415068,"0.0-3.132-0.132","s03zx64ty2uaehk",665,"144.csv","","550.1000003814697","resources/trios/L2T2A1.jpg","38","restless",0.3,0.8,0.6,0.990338864251791,"false"
"image-keyboard-response",408,415470,"0.0-3.132-1.132","s03zx64ty2uaehk",665,"144.csv","","null","resources/maskTrios/BT2B.jpg","null","",NA,NA,NA,NA,""
"image-keyboard-response",409,416672,"0.0-3.132-2.132","s03zx64ty2uaehk",665,"144.csv","","null","resources/images/fishbone.png","null","",NA,NA,NA,NA,""
"image-keyboard-response",410,416980,"0.0-3.133-0.133","s03zx64ty2uaehk",665,"144.csv","","306.1000003814697","resources/trios/L2T1A1.jpg","39","restless",0.4,0.8,0.6,0.53849047517834,"true"
"image-keyboard-response",411,417383,"0.0-3.133-1.133","s03zx64ty2uaehk",665,"144.csv","","null","resources/maskTrios/BBA1.jpg","null","",NA,NA,NA,NA,""
"image-keyboard-response",412,418584,"0.0-3.133-2.133","s03zx64ty2uaehk",665,"144.csv","","null","resources/images/coin2.png","null","",NA,NA,NA,NA,""
"image-keyboard-response",413,419016,"0.0-3.134-0.134","s03zx64ty2uaehk",665,"144.csv","","430.69999980926514","resources/trios/L2T1A3.jpg","39","restless",0.4,0.8,0.6,0.678139076248896,"false"
"image-keyboard-response",414,419419,"0.0-3.134-1.134","s03zx64ty2uaehk",665,"144.csv","","null","resources/maskTrios/BBA3.jpg","null","",NA,NA,NA,NA,""
"image-keyboard-response",415,420620,"0.0-3.134-2.134","s03zx64ty2uaehk",665,"144.csv","","null","resources/images/fishbone.png","null","",NA,NA,NA,NA,""
"image-keyboard-response",416,421445,"0.0-3.135-0.135","s03zx64ty2uaehk",665,"144.csv","","823.1999998092651","resources/trios/L2T1A1.jpg","37","restless",0.4,0.7,0.6,0.966774194605444,"false"
"image-keyboard-response",417,421847,"0.0-3.135-1.135","s03zx64ty2uaehk",665,"144.csv","","null","resources/maskTrios/L2BB.jpg","null","",NA,NA,NA,NA,""
"image-keyboard-response",418,423048,"0.0-3.135-2.135","s03zx64ty2uaehk",665,"144.csv","","null","resources/images/fishbone.png","null","",NA,NA,NA,NA,""
"image-keyboard-response",419,423299,"0.0-3.136-0.136","s03zx64ty2uaehk",665,"144.csv","","249.5","resources/trios/L2T2A3.jpg","38","restless",0.4,0.7,0.7,0.700649352518437,"false"
"image-keyboard-response",420,423701,"0.0-3.136-1.136","s03zx64ty2uaehk",665,"144.csv","","null","resources/maskTrios/BT2B.jpg","null","",NA,NA,NA,NA,""
"image-keyboard-response",421,424903,"0.0-3.136-2.136","s03zx64ty2uaehk",665,"144.csv","","null","resources/images/fishbone.png","null","",NA,NA,NA,NA,""
"image-keyboard-response",422,426039,"0.0-3.137-0.137","s03zx64ty2uaehk",665,"144.csv","","1134.5","resources/trios/L4T1A1.jpg","38","restless",0.4,0.7,0.7,0.58449557764647,"true"
"image-keyboard-response",423,426441,"0.0-3.137-1.137","s03zx64ty2uaehk",665,"144.csv","","null","resources/maskTrios/BT1B.jpg","null","",NA,NA,NA,NA,""
"image-keyboard-response",424,427643,"0.0-3.137-2.137","s03zx64ty2uaehk",665,"144.csv","","null","resources/images/coin2.png","null","",NA,NA,NA,NA,""
"image-keyboard-response",425,428328,"0.0-3.138-0.138","s03zx64ty2uaehk",665,"144.csv","","683.5999994277954","resources/trios/L4T1A1.jpg","38","restless",0.4,0.7,0.7,0.155407410355947,"true"
"image-keyboard-response",426,428729,"0.0-3.138-1.138","s03zx64ty2uaehk",665,"144.csv","","null","resources/maskTrios/BT1B.jpg","null","",NA,NA,NA,NA,""
"image-keyboard-response",427,429931,"0.0-3.138-2.138","s03zx64ty2uaehk",665,"144.csv","","null","resources/images/coin2.png","null","",NA,NA,NA,NA,""
"image-keyboard-response",428,430893,"0.0-3.139-0.139","s03zx64ty2uaehk",665,"144.csv","","960.7000007629395","resources/trios/L2T2A3.jpg","37","restless",0.4,0.7,0.7,0.162771290388889,"true"
"image-keyboard-response",429,431294,"0.0-3.139-1.139","s03zx64ty2uaehk",665,"144.csv","","null","resources/maskTrios/L2BB.jpg","null","",NA,NA,NA,NA,""
"image-keyboard-response",430,432495,"0.0-3.139-2.139","s03zx64ty2uaehk",665,"144.csv","","null","resources/images/coin2.png","null","",NA,NA,NA,NA,""
"image-keyboard-response",431,432871,"0.0-3.140-0.140","s03zx64ty2uaehk",665,"144.csv","","374.4000005722046","resources/trios/L2T2A1.jpg","37","restless",0.4,0.7,0.6,0.0503376178061914,"true"
"image-keyboard-response",432,433273,"0.0-3.140-1.140","s03zx64ty2uaehk",665,"144.csv","","null","resources/maskTrios/L2BB.jpg","null","",NA,NA,NA,NA,""
"image-keyboard-response",433,434475,"0.0-3.140-2.140","s03zx64ty2uaehk",665,"144.csv","","null","resources/images/coin2.png","null","",NA,NA,NA,NA,""
"image-keyboard-response",434,434802,"0.0-3.141-0.141","s03zx64ty2uaehk",665,"144.csv","","325.8999996185303","resources/trios/L2T2A3.jpg","37","restless",0.4,0.7,0.6,0.193539339412749,"true"
"image-keyboard-response",435,435341,"0.0-3.141-1.141","s03zx64ty2uaehk",665,"144.csv","","null","resources/maskTrios/L2BB.jpg","null","",NA,NA,NA,NA,""
"image-keyboard-response",436,436542,"0.0-3.141-2.141","s03zx64ty2uaehk",665,"144.csv","","null","resources/images/coin2.png","null","",NA,NA,NA,NA,""
"image-keyboard-response",437,438134,"0.0-3.142-0.142","s03zx64ty2uaehk",665,"144.csv","","1590.5","resources/trios/L2T2A1.jpg","37","restless",0.4,0.7,0.6,0.183782417365929,"true"
"image-keyboard-response",438,438536,"0.0-3.142-1.142","s03zx64ty2uaehk",665,"144.csv","","null","resources/maskTrios/L2BB.jpg","null","",NA,NA,NA,NA,""
"image-keyboard-response",439,439738,"0.0-3.142-2.142","s03zx64ty2uaehk",665,"144.csv","","null","resources/images/coin2.png","null","",NA,NA,NA,NA,""
"image-keyboard-response",440,440846,"0.0-3.143-0.143","s03zx64ty2uaehk",665,"144.csv","","1106.1999998092651","resources/trios/L2T1A1.jpg","38","restless",0.4,0.7,0.6,0.0886627236747857,"true"
"image-keyboard-response",441,441248,"0.0-3.143-1.143","s03zx64ty2uaehk",665,"144.csv","","null","resources/maskTrios/BT1B.jpg","null","",NA,NA,NA,NA,""
"image-keyboard-response",442,442450,"0.0-3.143-2.143","s03zx64ty2uaehk",665,"144.csv","","null","resources/images/coin2.png","null","",NA,NA,NA,NA,""
"image-keyboard-response",443,444118,"0.0-3.144-0.144","s03zx64ty2uaehk",665,"144.csv","","1666.7999992370605","resources/trios/L4T2A3.jpg","37","restless",0.4,0.7,0.6,0.19046964572721,"true"
"image-keyboard-response",444,444521,"0.0-3.144-1.144","s03zx64ty2uaehk",665,"144.csv","","null","resources/maskTrios/L4BB.jpg","null","",NA,NA,NA,NA,""
"image-keyboard-response",445,445723,"0.0-3.144-2.144","s03zx64ty2uaehk",665,"144.csv","","null","resources/images/coin2.png","null","",NA,NA,NA,NA,""
"image-keyboard-response",446,447115,"0.0-3.145-0.145","s03zx64ty2uaehk",665,"144.csv","","1390.6999998092651","resources/trios/L2T1A3.jpg","37","restless",0.4,0.7,0.6,0.582117966890098,"false"
"image-keyboard-response",447,447517,"0.0-3.145-1.145","s03zx64ty2uaehk",665,"144.csv","","null","resources/maskTrios/L2BB.jpg","null","",NA,NA,NA,NA,""
"image-keyboard-response",448,448717,"0.0-3.145-2.145","s03zx64ty2uaehk",665,"144.csv","","null","resources/images/fishbone.png","null","",NA,NA,NA,NA,""
"image-keyboard-response",449,449145,"0.0-3.146-0.146","s03zx64ty2uaehk",665,"144.csv","","426.19999980926514","resources/trios/L2T2A3.jpg","39","restless",0.4,0.7,0.6,0.176063554625912,"true"
"image-keyboard-response",450,449750,"0.0-3.146-1.146","s03zx64ty2uaehk",665,"144.csv","","null","resources/maskTrios/BBA3.jpg","null","",NA,NA,NA,NA,""
"image-keyboard-response",451,450952,"0.0-3.146-2.146","s03zx64ty2uaehk",665,"144.csv","","null","resources/images/coin2.png","null","",NA,NA,NA,NA,""
"image-keyboard-response",452,452555,"0.0-3.147-0.147","s03zx64ty2uaehk",665,"144.csv","","1602","resources/trios/L2T2A1.jpg","37","restless",0.5,0.7,0.6,0.783222360141871,"false"
"image-keyboard-response",453,452957,"0.0-3.147-1.147","s03zx64ty2uaehk",665,"144.csv","","null","resources/maskTrios/L2BB.jpg","null","",NA,NA,NA,NA,""
"image-keyboard-response",454,454159,"0.0-3.147-2.147","s03zx64ty2uaehk",665,"144.csv","","null","resources/images/fishbone.png","null","",NA,NA,NA,NA,""
"image-keyboard-response",455,454836,"0.0-3.148-0.148","s03zx64ty2uaehk",665,"144.csv","","675.8999996185303","resources/trios/L2T1A3.jpg","38","restless",0.5,0.7,0.6,0.0210013995878384,"true"
"image-keyboard-response",456,455238,"0.0-3.148-1.148","s03zx64ty2uaehk",665,"144.csv","","null","resources/maskTrios/BT1B.jpg","null","",NA,NA,NA,NA,""
"image-keyboard-response",457,456440,"0.0-3.148-2.148","s03zx64ty2uaehk",665,"144.csv","","null","resources/images/coin2.png","null","",NA,NA,NA,NA,""
"image-keyboard-response",458,457268,"0.0-3.149-0.149","s03zx64ty2uaehk",665,"144.csv","","825.8999996185303","resources/trios/L4T2A3.jpg","37","restless",0.5,0.7,0.6,0.0624854638197727,"true"
"image-keyboard-response",459,457670,"0.0-3.149-1.149","s03zx64ty2uaehk",665,"144.csv","","null","resources/maskTrios/L4BB.jpg","null","",NA,NA,NA,NA,""
"image-keyboard-response",460,458872,"0.0-3.149-2.149","s03zx64ty2uaehk",665,"144.csv","","null","resources/images/coin2.png","null","",NA,NA,NA,NA,""
"image-keyboard-response",461,459485,"0.0-3.150-0.150","s03zx64ty2uaehk",665,"144.csv","","611.6000003814697","resources/trios/L4T2A1.jpg","37","restless",0.5,0.7,0.6,0.100825217710564,"true"
"image-keyboard-response",462,459888,"0.0-3.150-1.150","s03zx64ty2uaehk",665,"144.csv","","null","resources/maskTrios/L4BB.jpg","null","",NA,NA,NA,NA,""
"image-keyboard-response",463,461091,"0.0-3.150-2.150","s03zx64ty2uaehk",665,"144.csv","","null","resources/images/coin2.png","null","",NA,NA,NA,NA,""
"image-keyboard-response",464,461565,"0.0-3.151-0.151","s03zx64ty2uaehk",665,"144.csv","","472.9000005722046","resources/trios/L4T1A1.jpg","37","restless",0.5,0.7,0.6,0.433605083135772,"true"
"image-keyboard-response",465,461967,"0.0-3.151-1.151","s03zx64ty2uaehk",665,"144.csv","","null","resources/maskTrios/L4BB.jpg","null","",NA,NA,NA,NA,""
"image-keyboard-response",466,463170,"0.0-3.151-2.151","s03zx64ty2uaehk",665,"144.csv","","null","resources/images/coin2.png","null","",NA,NA,NA,NA,""
"image-keyboard-response",467,464115,"0.0-3.152-0.152","s03zx64ty2uaehk",665,"144.csv","","943.5","resources/trios/L2T2A3.jpg","37","restless",0.5,0.7,0.6,0.0665191371445799,"true"
"image-keyboard-response",468,464522,"0.0-3.152-1.152","s03zx64ty2uaehk",665,"144.csv","","null","resources/maskTrios/L2BB.jpg","null","",NA,NA,NA,NA,""
"image-keyboard-response",469,465723,"0.0-3.152-2.152","s03zx64ty2uaehk",665,"144.csv","","null","resources/images/coin2.png","null","",NA,NA,NA,NA,""
"image-keyboard-response",470,467333,"0.0-3.153-0.153","s03zx64ty2uaehk",665,"144.csv","","1608.6999998092651","resources/trios/L4T1A3.jpg","38","restless",0.5,0.7,0.6,0.859166086592554,"false"
"image-keyboard-response",471,467736,"0.0-3.153-1.153","s03zx64ty2uaehk",665,"144.csv","","null","resources/maskTrios/BT1B.jpg","null","",NA,NA,NA,NA,""
"image-keyboard-response",472,468938,"0.0-3.153-2.153","s03zx64ty2uaehk",665,"144.csv","","null","resources/images/fishbone.png","null","",NA,NA,NA,NA,""
"image-keyboard-response",473,469545,"0.0-3.154-0.154","s03zx64ty2uaehk",665,"144.csv","","605.5999994277954","resources/trios/L4T1A1.jpg","37","restless",0.5,0.7,0.6,0.633608347871607,"false"
"image-keyboard-response",474,469950,"0.0-3.154-1.154","s03zx64ty2uaehk",665,"144.csv","","null","resources/maskTrios/L4BB.jpg","null","",NA,NA,NA,NA,""
"image-keyboard-response",475,471153,"0.0-3.154-2.154","s03zx64ty2uaehk",665,"144.csv","","null","resources/images/fishbone.png","null","",NA,NA,NA,NA,""
"image-keyboard-response",476,471341,"0.0-3.155-0.155","s03zx64ty2uaehk",665,"144.csv","","187.10000038146973","resources/trios/L2T1A1.jpg","39","restless",0.5,0.7,0.6,0.382032537301082,"true"
"image-keyboard-response",477,471743,"0.0-3.155-1.155","s03zx64ty2uaehk",665,"144.csv","","null","resources/maskTrios/BBA1.jpg","null","",NA,NA,NA,NA,""
"image-keyboard-response",478,472945,"0.0-3.155-2.155","s03zx64ty2uaehk",665,"144.csv","","null","resources/images/coin2.png","null","",NA,NA,NA,NA,""
"image-keyboard-response",479,473752,"0.0-3.156-0.156","s03zx64ty2uaehk",665,"144.csv","","805","resources/trios/L2T2A3.jpg","37","restless",0.5,0.6,0.6,0.122301577217319,"true"
"image-keyboard-response",480,474154,"0.0-3.156-1.156","s03zx64ty2uaehk",665,"144.csv","","null","resources/maskTrios/L2BB.jpg","null","",NA,NA,NA,NA,""
"image-keyboard-response",481,475355,"0.0-3.156-2.156","s03zx64ty2uaehk",665,"144.csv","","null","resources/images/coin2.png","null","",NA,NA,NA,NA,""
"image-keyboard-response",482,476576,"0.0-3.157-0.157","s03zx64ty2uaehk",665,"144.csv","","1219","resources/trios/L2T1A3.jpg","37","restless",0.5,0.6,0.6,0.198560595193516,"true"
"image-keyboard-response",483,476978,"0.0-3.157-1.157","s03zx64ty2uaehk",665,"144.csv","","null","resources/maskTrios/L2BB.jpg","null","",NA,NA,NA,NA,""
"image-keyboard-response",484,478180,"0.0-3.157-2.157","s03zx64ty2uaehk",665,"144.csv","","null","resources/images/coin2.png","null","",NA,NA,NA,NA,""
"image-keyboard-response",485,478953,"0.0-3.158-0.158","s03zx64ty2uaehk",665,"144.csv","","771.5","resources/trios/L4T2A3.jpg","37","restless",0.5,0.6,0.6,0.242275371758145,"true"
"image-keyboard-response",486,479355,"0.0-3.158-1.158","s03zx64ty2uaehk",665,"144.csv","","null","resources/maskTrios/L4BB.jpg","null","",NA,NA,NA,NA,""
"image-keyboard-response",487,480557,"0.0-3.158-2.158","s03zx64ty2uaehk",665,"144.csv","","null","resources/images/coin2.png","null","",NA,NA,NA,NA,""
"image-keyboard-response",488,480745,"0.0-3.159-0.159","s03zx64ty2uaehk",665,"144.csv","","187.39999961853027","resources/trios/L2T2A3.jpg","37","restless",0.5,0.6,0.6,0.0330160434248699,"true"
"image-keyboard-response",489,481148,"0.0-3.159-1.159","s03zx64ty2uaehk",665,"144.csv","","null","resources/maskTrios/L2BB.jpg","null","",NA,NA,NA,NA,""
"image-keyboard-response",490,482350,"0.0-3.159-2.159","s03zx64ty2uaehk",665,"144.csv","","null","resources/images/coin2.png","null","",NA,NA,NA,NA,""
"image-keyboard-response",491,482970,"0.0-3.160-0.160","s03zx64ty2uaehk",665,"144.csv","","618.5999994277954","resources/trios/L4T2A3.jpg","37","restless",0.5,0.5,0.6,0.000661614481169748,"true"
"image-keyboard-response",492,483372,"0.0-3.160-1.160","s03zx64ty2uaehk",665,"144.csv","","null","resources/maskTrios/L4BB.jpg","null","",NA,NA,NA,NA,""
"image-keyboard-response",493,484573,"0.0-3.160-2.160","s03zx64ty2uaehk",665,"144.csv","","null","resources/images/coin2.png","null","",NA,NA,NA,NA,""
"image-keyboard-response",494,484839,"0.0-3.161-0.161","s03zx64ty2uaehk",665,"144.csv","","264.8999996185303","resources/trios/L2T2A1.jpg","37","restless",0.5,0.5,0.5,0.446946123668254,"true"
"image-keyboard-response",495,485242,"0.0-3.161-1.161","s03zx64ty2uaehk",665,"144.csv","","null","resources/maskTrios/L2BB.jpg","null","",NA,NA,NA,NA,""
"image-keyboard-response",496,486443,"0.0-3.161-2.161","s03zx64ty2uaehk",665,"144.csv","","null","resources/images/coin2.png","null","",NA,NA,NA,NA,""
"image-keyboard-response",497,486506,"0.0-3.162-0.162","s03zx64ty2uaehk",665,"144.csv","","61.80000019073486","resources/trios/L2T1A1.jpg","37","restless",0.5,0.5,0.5,0.554376605214944,"false"
"image-keyboard-response",498,486909,"0.0-3.162-1.162","s03zx64ty2uaehk",665,"144.csv","","null","resources/maskTrios/L2BB.jpg","null","",NA,NA,NA,NA,""
"image-keyboard-response",499,488111,"0.0-3.162-2.162","s03zx64ty2uaehk",665,"144.csv","","null","resources/images/fishbone.png","null","",NA,NA,NA,NA,""
"image-keyboard-response",500,488429,"0.0-3.163-0.163","s03zx64ty2uaehk",665,"144.csv","","316.70000076293945","resources/trios/L2T2A1.jpg","39","restless",0.5,0.5,0.5,0.262345478705484,"true"
"image-keyboard-response",501,488831,"0.0-3.163-1.163","s03zx64ty2uaehk",665,"144.csv","","null","resources/maskTrios/BBA1.jpg","null","",NA,NA,NA,NA,""
"image-keyboard-response",502,490033,"0.0-3.163-2.163","s03zx64ty2uaehk",665,"144.csv","","null","resources/images/coin2.png","null","",NA,NA,NA,NA,""
"image-keyboard-response",503,490322,"0.0-3.164-0.164","s03zx64ty2uaehk",665,"144.csv","","288.19999980926514","resources/trios/L2T1A3.jpg","37","restless",0.5,0.5,0.5,0.865413587699002,"false"
"image-keyboard-response",504,490724,"0.0-3.164-1.164","s03zx64ty2uaehk",665,"144.csv","","null","resources/maskTrios/L2BB.jpg","null","",NA,NA,NA,NA,""
"image-keyboard-response",505,491926,"0.0-3.164-2.164","s03zx64ty2uaehk",665,"144.csv","","null","resources/images/fishbone.png","null","",NA,NA,NA,NA,""
"image-keyboard-response",506,492815,"0.0-3.165-0.165","s03zx64ty2uaehk",665,"144.csv","","887.7000007629395","resources/trios/L4T2A3.jpg","37","restless",0.5,0.6,0.5,0.270598840040513,"true"
"image-keyboard-response",507,493217,"0.0-3.165-1.165","s03zx64ty2uaehk",665,"144.csv","","null","resources/maskTrios/L4BB.jpg","null","",NA,NA,NA,NA,""
"image-keyboard-response",508,494419,"0.0-3.165-2.165","s03zx64ty2uaehk",665,"144.csv","","null","resources/images/coin2.png","null","",NA,NA,NA,NA,""
"image-keyboard-response",509,495048,"0.0-3.166-0.166","s03zx64ty2uaehk",665,"144.csv","","626.8000001907349","resources/trios/L2T1A1.jpg","37","restless",0.5,0.5,0.5,0.963596617600661,"false"
"image-keyboard-response",510,495450,"0.0-3.166-1.166","s03zx64ty2uaehk",665,"144.csv","","null","resources/maskTrios/L2BB.jpg","null","",NA,NA,NA,NA,""
"image-keyboard-response",511,496652,"0.0-3.166-2.166","s03zx64ty2uaehk",665,"144.csv","","null","resources/images/fishbone.png","null","",NA,NA,NA,NA,""
"image-keyboard-response",512,497277,"0.0-3.167-0.167","s03zx64ty2uaehk",665,"144.csv","","623.8999996185303","resources/trios/L4T2A3.jpg","39","restless",0.5,0.5,0.5,0.680679002549929,"false"
"image-keyboard-response",513,497679,"0.0-3.167-1.167","s03zx64ty2uaehk",665,"144.csv","","null","resources/maskTrios/BBA3.jpg","null","",NA,NA,NA,NA,""
"image-keyboard-response",514,498882,"0.0-3.167-2.167","s03zx64ty2uaehk",665,"144.csv","","null","resources/images/fishbone.png","null","",NA,NA,NA,NA,""
"image-keyboard-response",515,499817,"0.0-3.168-0.168","s03zx64ty2uaehk",665,"144.csv","","933.8999996185303","resources/trios/L4T2A3.jpg","37","restless",0.5,0.5,0.5,0.021813120179992,"true"
"image-keyboard-response",516,500219,"0.0-3.168-1.168","s03zx64ty2uaehk",665,"144.csv","","null","resources/maskTrios/L4BB.jpg","null","",NA,NA,NA,NA,""
"image-keyboard-response",517,501421,"0.0-3.168-2.168","s03zx64ty2uaehk",665,"144.csv","","null","resources/images/coin2.png","null","",NA,NA,NA,NA,""
"image-keyboard-response",518,501868,"0.0-3.169-0.169","s03zx64ty2uaehk",665,"144.csv","","445.20000076293945","resources/trios/L4T1A1.jpg","37","restless",0.5,0.5,0.5,0.487234714275724,"true"
"image-keyboard-response",519,502270,"0.0-3.169-1.169","s03zx64ty2uaehk",665,"144.csv","","null","resources/maskTrios/L4BB.jpg","null","",NA,NA,NA,NA,""
"image-keyboard-response",520,503472,"0.0-3.169-2.169","s03zx64ty2uaehk",665,"144.csv","","null","resources/images/coin2.png","null","",NA,NA,NA,NA,""
"image-keyboard-response",521,503756,"0.0-3.170-0.170","s03zx64ty2uaehk",665,"144.csv","","282.79999923706055","resources/trios/L2T2A3.jpg","37","restless",0.5,0.5,0.5,0.274981816435558,"true"
"image-keyboard-response",522,504158,"0.0-3.170-1.170","s03zx64ty2uaehk",665,"144.csv","","null","resources/maskTrios/L2BB.jpg","null","",NA,NA,NA,NA,""
"image-keyboard-response",523,505360,"0.0-3.170-2.170","s03zx64ty2uaehk",665,"144.csv","","null","resources/images/coin2.png","null","",NA,NA,NA,NA,""
"image-keyboard-response",524,507024,"0.0-3.171-0.171","s03zx64ty2uaehk",665,"144.csv","","1662","resources/trios/L4T1A3.jpg","38","restless",0.5,0.5,0.5,0.409892368280026,"true"
"image-keyboard-response",525,507425,"0.0-3.171-1.171","s03zx64ty2uaehk",665,"144.csv","","null","resources/maskTrios/BT1B.jpg","null","",NA,NA,NA,NA,""
"image-keyboard-response",526,508627,"0.0-3.171-2.171","s03zx64ty2uaehk",665,"144.csv","","null","resources/images/coin2.png","null","",NA,NA,NA,NA,""
"image-keyboard-response",527,509002,"0.0-3.172-0.172","s03zx64ty2uaehk",665,"144.csv","","374","resources/trios/L4T1A3.jpg","38","restless",0.5,0.5,0.5,0.946046444142455,"false"
"image-keyboard-response",528,509404,"0.0-3.172-1.172","s03zx64ty2uaehk",665,"144.csv","","null","resources/maskTrios/BT1B.jpg","null","",NA,NA,NA,NA,""
"image-keyboard-response",529,510605,"0.0-3.172-2.172","s03zx64ty2uaehk",665,"144.csv","","null","resources/images/fishbone.png","null","",NA,NA,NA,NA,""
"image-keyboard-response",530,510938,"0.0-3.173-0.173","s03zx64ty2uaehk",665,"144.csv","","331","resources/trios/L4T2A3.jpg","37","restless",0.4,0.4,0.5,0.411241486419136,"false"
"image-keyboard-response",531,511340,"0.0-3.173-1.173","s03zx64ty2uaehk",665,"144.csv","","null","resources/maskTrios/L4BB.jpg","null","",NA,NA,NA,NA,""
"image-keyboard-response",532,512541,"0.0-3.173-2.173","s03zx64ty2uaehk",665,"144.csv","","null","resources/images/fishbone.png","null","",NA,NA,NA,NA,""
"image-keyboard-response",533,512669,"0.0-3.174-0.174","s03zx64ty2uaehk",665,"144.csv","","126.5","resources/trios/L4T1A1.jpg","39","restless",0.3,0.4,0.5,0.968567955910193,"false"
"image-keyboard-response",534,513071,"0.0-3.174-1.174","s03zx64ty2uaehk",665,"144.csv","","null","resources/maskTrios/BBA1.jpg","null","",NA,NA,NA,NA,""
"image-keyboard-response",535,514273,"0.0-3.174-2.174","s03zx64ty2uaehk",665,"144.csv","","null","resources/images/fishbone.png","null","",NA,NA,NA,NA,""
"image-keyboard-response",536,514481,"0.0-3.175-0.175","s03zx64ty2uaehk",665,"144.csv","","206.80000019073486","resources/trios/L4T1A3.jpg","38","restless",0.3,0.5,0.5,0.203803961082299,"true"
"image-keyboard-response",537,514884,"0.0-3.175-1.175","s03zx64ty2uaehk",665,"144.csv","","null","resources/maskTrios/BT1B.jpg","null","",NA,NA,NA,NA,""
"image-keyboard-response",538,516086,"0.0-3.175-2.175","s03zx64ty2uaehk",665,"144.csv","","null","resources/images/coin2.png","null","",NA,NA,NA,NA,""
"image-keyboard-response",539,516591,"0.0-3.176-0.176","s03zx64ty2uaehk",665,"144.csv","","503.3999996185303","resources/trios/L2T2A3.jpg","37","restless",0.3,0.5,0.5,0.551375057373988,"false"
"image-keyboard-response",540,516994,"0.0-3.176-1.176","s03zx64ty2uaehk",665,"144.csv","","null","resources/maskTrios/L2BB.jpg","null","",NA,NA,NA,NA,""
"image-keyboard-response",541,518195,"0.0-3.176-2.176","s03zx64ty2uaehk",665,"144.csv","","null","resources/images/fishbone.png","null","",NA,NA,NA,NA,""
"image-keyboard-response",542,519478,"0.0-3.177-0.177","s03zx64ty2uaehk",665,"144.csv","","1281.0999994277954","resources/trios/L4T2A1.jpg","39","restless",0.3,0.5,0.5,0.645771156357382,"false"
"image-keyboard-response",543,519880,"0.0-3.177-1.177","s03zx64ty2uaehk",665,"144.csv","","null","resources/maskTrios/BBA1.jpg","null","",NA,NA,NA,NA,""
"image-keyboard-response",544,521082,"0.0-3.177-2.177","s03zx64ty2uaehk",665,"144.csv","","null","resources/images/fishbone.png","null","",NA,NA,NA,NA,""
"image-keyboard-response",545,521392,"0.0-3.178-0.178","s03zx64ty2uaehk",665,"144.csv","","309.0999994277954","resources/trios/L4T2A1.jpg","37","restless",0.3,0.5,0.5,0.43891929671995,"false"
"image-keyboard-response",546,521854,"0.0-3.178-1.178","s03zx64ty2uaehk",665,"144.csv","","null","resources/maskTrios/L4BB.jpg","null","",NA,NA,NA,NA,""
"image-keyboard-response",547,523056,"0.0-3.178-2.178","s03zx64ty2uaehk",665,"144.csv","","null","resources/images/fishbone.png","null","",NA,NA,NA,NA,""
"image-keyboard-response",548,523406,"0.0-3.179-0.179","s03zx64ty2uaehk",665,"144.csv","","349.69999980926514","resources/trios/L2T2A3.jpg","38","restless",0.3,0.5,0.5,0.0462995672847883,"true"
"image-keyboard-response",549,523808,"0.0-3.179-1.179","s03zx64ty2uaehk",665,"144.csv","","null","resources/maskTrios/BT2B.jpg","null","",NA,NA,NA,NA,""
"image-keyboard-response",550,525010,"0.0-3.179-2.179","s03zx64ty2uaehk",665,"144.csv","","null","resources/images/coin2.png","null","",NA,NA,NA,NA,""
"image-keyboard-response",551,525421,"0.0-3.180-0.180","s03zx64ty2uaehk",665,"144.csv","","409.1000003814697","resources/trios/L2T2A3.jpg","38","restless",0.3,0.5,0.5,0.417645587563073,"true"
"image-keyboard-response",552,525823,"0.0-3.180-1.180","s03zx64ty2uaehk",665,"144.csv","","null","resources/maskTrios/BT2B.jpg","null","",NA,NA,NA,NA,""
"image-keyboard-response",553,527025,"0.0-3.180-2.180","s03zx64ty2uaehk",665,"144.csv","","null","resources/images/coin2.png","null","",NA,NA,NA,NA,""
"image-keyboard-response",554,527286,"0.0-3.181-0.181","s03zx64ty2uaehk",665,"144.csv","","260","resources/trios/L4T1A3.jpg","38","restless",0.3,0.5,0.5,0.862198343406456,"false"
"image-keyboard-response",555,527689,"0.0-3.181-1.181","s03zx64ty2uaehk",665,"144.csv","","null","resources/maskTrios/BT1B.jpg","null","",NA,NA,NA,NA,""
"image-keyboard-response",556,528890,"0.0-3.181-2.181","s03zx64ty2uaehk",665,"144.csv","","null","resources/images/fishbone.png","null","",NA,NA,NA,NA,""
"image-keyboard-response",557,529224,"0.0-3.182-0.182","s03zx64ty2uaehk",665,"144.csv","","332.29999923706055","resources/trios/L4T1A1.jpg","37","restless",0.3,0.5,0.5,0.118561110688115,"true"
"image-keyboard-response",558,529693,"0.0-3.182-1.182","s03zx64ty2uaehk",665,"144.csv","","null","resources/maskTrios/L4BB.jpg","null","",NA,NA,NA,NA,""
"image-keyboard-response",559,530895,"0.0-3.182-2.182","s03zx64ty2uaehk",665,"144.csv","","null","resources/images/coin2.png","null","",NA,NA,NA,NA,""
"image-keyboard-response",560,531886,"0.0-3.183-0.183","s03zx64ty2uaehk",665,"144.csv","","989.8000001907349","resources/trios/L2T1A3.jpg","37","restless",0.3,0.5,0.5,0.819066419115146,"false"
"image-keyboard-response",561,532288,"0.0-3.183-1.183","s03zx64ty2uaehk",665,"144.csv","","null","resources/maskTrios/L2BB.jpg","null","",NA,NA,NA,NA,""
"image-keyboard-response",562,533490,"0.0-3.183-2.183","s03zx64ty2uaehk",665,"144.csv","","null","resources/images/fishbone.png","null","",NA,NA,NA,NA,""
"image-keyboard-response",563,534308,"0.0-3.184-0.184","s03zx64ty2uaehk",665,"144.csv","","816.8000001907349","resources/trios/L2T1A3.jpg","38","restless",0.3,0.5,0.4,0.556816766531394,"false"
"image-keyboard-response",564,534710,"0.0-3.184-1.184","s03zx64ty2uaehk",665,"144.csv","","null","resources/maskTrios/BT1B.jpg","null","",NA,NA,NA,NA,""
"image-keyboard-response",565,535912,"0.0-3.184-2.184","s03zx64ty2uaehk",665,"144.csv","","null","resources/images/fishbone.png","null","",NA,NA,NA,NA,""
"image-keyboard-response",566,536286,"0.0-3.185-0.185","s03zx64ty2uaehk",665,"144.csv","","372.1000003814697","resources/trios/L2T1A1.jpg","39","restless",0.3,0.6,0.4,0.330749531856255,"true"
"image-keyboard-response",567,536687,"0.0-3.185-1.185","s03zx64ty2uaehk",665,"144.csv","","null","resources/maskTrios/BBA1.jpg","null","",NA,NA,NA,NA,""
"image-keyboard-response",568,537889,"0.0-3.185-2.185","s03zx64ty2uaehk",665,"144.csv","","null","resources/images/coin2.png","null","",NA,NA,NA,NA,""
"image-keyboard-response",569,538156,"0.0-3.186-0.186","s03zx64ty2uaehk",665,"144.csv","","265.6000003814697","resources/trios/L4T2A1.jpg","39","restless",0.3,0.6,0.4,0.87943203564756,"false"
"image-keyboard-response",570,538559,"0.0-3.186-1.186","s03zx64ty2uaehk",665,"144.csv","","null","resources/maskTrios/BBA1.jpg","null","",NA,NA,NA,NA,""
"image-keyboard-response",571,539760,"0.0-3.186-2.186","s03zx64ty2uaehk",665,"144.csv","","null","resources/images/fishbone.png","null","",NA,NA,NA,NA,""
"image-keyboard-response",572,539809,"0.0-3.187-0.187","s03zx64ty2uaehk",665,"144.csv","","47.30000019073486","resources/trios/L4T2A1.jpg","37","restless",0.3,0.7,0.3,0.510594766449336,"false"
"image-keyboard-response",573,540211,"0.0-3.187-1.187","s03zx64ty2uaehk",665,"144.csv","","null","resources/maskTrios/L4BB.jpg","null","",NA,NA,NA,NA,""
"image-keyboard-response",574,541414,"0.0-3.187-2.187","s03zx64ty2uaehk",665,"144.csv","","null","resources/images/fishbone.png","null","",NA,NA,NA,NA,""
"image-keyboard-response",575,541466,"0.0-3.188-0.188","s03zx64ty2uaehk",665,"144.csv","","51.30000019073486","resources/trios/L2T1A3.jpg","38","restless",0.2,0.7,0.3,0.408291128037468,"true"
"image-keyboard-response",576,541868,"0.0-3.188-1.188","s03zx64ty2uaehk",665,"144.csv","","null","resources/maskTrios/BT1B.jpg","null","",NA,NA,NA,NA,""
"image-keyboard-response",577,543069,"0.0-3.188-2.188","s03zx64ty2uaehk",665,"144.csv","","null","resources/images/coin2.png","null","",NA,NA,NA,NA,""
"image-keyboard-response",578,543348,"0.0-3.189-0.189","s03zx64ty2uaehk",665,"144.csv","","277.5999994277954","resources/trios/L4T2A3.jpg","38","restless",0.2,0.7,0.3,0.126625699766865,"true"
"image-keyboard-response",579,543750,"0.0-3.189-1.189","s03zx64ty2uaehk",665,"144.csv","","null","resources/maskTrios/BT2B.jpg","null","",NA,NA,NA,NA,""
"image-keyboard-response",580,544952,"0.0-3.189-2.189","s03zx64ty2uaehk",665,"144.csv","","null","resources/images/coin2.png","null","",NA,NA,NA,NA,""
"image-keyboard-response",581,545266,"0.0-3.190-0.190","s03zx64ty2uaehk",665,"144.csv","","313","resources/trios/L2T2A1.jpg","38","restless",0.2,0.7,0.3,0.0163733367653038,"true"
"image-keyboard-response",582,545668,"0.0-3.190-1.190","s03zx64ty2uaehk",665,"144.csv","","null","resources/maskTrios/BT2B.jpg","null","",NA,NA,NA,NA,""
"image-keyboard-response",583,546870,"0.0-3.190-2.190","s03zx64ty2uaehk",665,"144.csv","","null","resources/images/coin2.png","null","",NA,NA,NA,NA,""
"image-keyboard-response",584,547130,"0.0-3.191-0.191","s03zx64ty2uaehk",665,"144.csv","","259.3999996185303","resources/trios/L2T1A3.jpg","38","restless",0.2,0.7,0.3,0.0263309194382682,"true"
"image-keyboard-response",585,547532,"0.0-3.191-1.191","s03zx64ty2uaehk",665,"144.csv","","null","resources/maskTrios/BT1B.jpg","null","",NA,NA,NA,NA,""
"image-keyboard-response",586,548735,"0.0-3.191-2.191","s03zx64ty2uaehk",665,"144.csv","","null","resources/images/coin2.png","null","",NA,NA,NA,NA,""
"image-keyboard-response",587,549333,"0.0-3.192-0.192","s03zx64ty2uaehk",665,"144.csv","","596.8000001907349","resources/trios/L4T2A3.jpg","38","restless",0.2,0.7,0.2,0.432945668634604,"true"
"image-keyboard-response",588,549735,"0.0-3.192-1.192","s03zx64ty2uaehk",665,"144.csv","","null","resources/maskTrios/BT2B.jpg","null","",NA,NA,NA,NA,""
"image-keyboard-response",589,550937,"0.0-3.192-2.192","s03zx64ty2uaehk",665,"144.csv","","null","resources/images/coin2.png","null","",NA,NA,NA,NA,""
"image-keyboard-response",590,551130,"0.0-3.193-0.193","s03zx64ty2uaehk",665,"144.csv","","191.5","resources/trios/L2T1A3.jpg","38","restless",0.2,0.7,0.2,0.6611086255916,"true"
"image-keyboard-response",591,551532,"0.0-3.193-1.193","s03zx64ty2uaehk",665,"144.csv","","null","resources/maskTrios/BT1B.jpg","null","",NA,NA,NA,NA,""
"image-keyboard-response",592,552733,"0.0-3.193-2.193","s03zx64ty2uaehk",665,"144.csv","","null","resources/images/coin2.png","null","",NA,NA,NA,NA,""
"image-keyboard-response",593,552918,"0.0-3.194-0.194","s03zx64ty2uaehk",665,"144.csv","","183.0999994277954","resources/trios/L2T2A3.jpg","38","restless",0.2,0.7,0.1,0.371547031887808,"true"
"image-keyboard-response",594,553319,"0.0-3.194-1.194","s03zx64ty2uaehk",665,"144.csv","","null","resources/maskTrios/BT2B.jpg","null","",NA,NA,NA,NA,""
"image-keyboard-response",595,554521,"0.0-3.194-2.194","s03zx64ty2uaehk",665,"144.csv","","null","resources/images/coin2.png","null","",NA,NA,NA,NA,""
"image-keyboard-response",596,554795,"0.0-3.195-0.195","s03zx64ty2uaehk",665,"144.csv","","272.5","resources/trios/L2T1A3.jpg","38","restless",0.2,0.7,0.1,0.218707641681862,"true"
"image-keyboard-response",597,555197,"0.0-3.195-1.195","s03zx64ty2uaehk",665,"144.csv","","null","resources/maskTrios/BT1B.jpg","null","",NA,NA,NA,NA,""
"image-keyboard-response",598,556399,"0.0-3.195-2.195","s03zx64ty2uaehk",665,"144.csv","","null","resources/images/coin2.png","null","",NA,NA,NA,NA,""
"image-keyboard-response",599,557042,"0.0-3.196-0.196","s03zx64ty2uaehk",665,"144.csv","","640.7000007629395","resources/trios/L2T2A1.jpg","38","restless",0.2,0.7,0.1,0.588244571713844,"true"
"image-keyboard-response",600,557443,"0.0-3.196-1.196","s03zx64ty2uaehk",665,"144.csv","","null","resources/maskTrios/BT2B.jpg","null","",NA,NA,NA,NA,""
"image-keyboard-response",601,558645,"0.0-3.196-2.196","s03zx64ty2uaehk",665,"144.csv","","null","resources/images/coin2.png","null","",NA,NA,NA,NA,""
"image-keyboard-response",602,558894,"0.0-3.197-0.197","s03zx64ty2uaehk",665,"144.csv","","247.69999980926514","resources/trios/L4T1A3.jpg","38","restless",0.2,0.7,0.1,0.951336050300118,"false"
"image-keyboard-response",603,559297,"0.0-3.197-1.197","s03zx64ty2uaehk",665,"144.csv","","null","resources/maskTrios/BT1B.jpg","null","",NA,NA,NA,NA,""
"image-keyboard-response",604,560499,"0.0-3.197-2.197","s03zx64ty2uaehk",665,"144.csv","","null","resources/images/fishbone.png","null","",NA,NA,NA,NA,""
"image-keyboard-response",605,560779,"0.0-3.198-0.198","s03zx64ty2uaehk",665,"144.csv","","278.5","resources/trios/L4T2A3.jpg","37","restless",0.2,0.7,0.1,0.230757926209518,"false"
"image-keyboard-response",606,561181,"0.0-3.198-1.198","s03zx64ty2uaehk",665,"144.csv","","null","resources/maskTrios/L4BB.jpg","null","",NA,NA,NA,NA,""
