"trial_type","trial_index","time_elapsed","internal_node_id","subject","participantCode","walkNumber","success","rt","stimulus","key_press","test_part","leftProb","midProb","rightProb","generatedNum","correct"
"pavlovia",0,1098,"0.0-0.0","ymtw10krcdgrg7j",75,"92.csv","","","","","",NA,NA,NA,NA,""
"fullscreen",1,4466,"0.0-1.0","ymtw10krcdgrg7j",75,"92.csv","true","","","","",NA,NA,NA,NA,""
"html-keyboard-response",2,25143,"0.0-2.0-0.0","ymtw10krcdgrg7j",75,"92.csv","","20674.900000095367","<p><font size='6'>Arrrgh!</p></font><p>Can you be the best pirate? Try to find lots of gold! But beware, some islands have more gold than others, and over time, the island with the most gold may change. Can YOU figure it out? </p><font size='6'>GOOD LUCK, CAPTAIN!!!</font><p>Press any key to begin</p>","32","",NA,NA,NA,NA,""
"image-keyboard-response",3,28148,"0.0-2.0-1.0","ymtw10krcdgrg7j",75,"92.csv","","null","resources/image_sets/111.png","null","",NA,NA,NA,NA,""
"image-keyboard-response",4,33154,"0.0-2.0-2.0","ymtw10krcdgrg7j",75,"92.csv","","5003.300000190735","resources/image_sets/left_highlight.png","37","",NA,NA,NA,NA,""
"image-keyboard-response",5,35535,"0.0-2.0-3.0","ymtw10krcdgrg7j",75,"92.csv","","2378.9000000953674","resources/image_sets/mid_highlight.png","38","",NA,NA,NA,NA,""
"image-keyboard-response",6,38296,"0.0-2.0-4.0","ymtw10krcdgrg7j",75,"92.csv","","2759.300000190735","resources/image_sets/right_highlight.png","39","",NA,NA,NA,NA,""
"image-keyboard-response",7,46459,"0.0-2.0-5.0","ymtw10krcdgrg7j",75,"92.csv","","8161.200000047684","resources/image_sets/111.png","13","",NA,NA,NA,NA,""
"image-keyboard-response",8,49411,"0.0-2.0-6.0","ymtw10krcdgrg7j",75,"92.csv","","2951.0999999046326","resources/images/coin2.png","13","",NA,NA,NA,NA,""
"image-keyboard-response",9,51202,"0.0-2.0-7.0","ymtw10krcdgrg7j",75,"92.csv","","1788.7999999523163","resources/images/fishbone.png","13","",NA,NA,NA,NA,""
"html-keyboard-response",10,60180,"0.0-2.0-8.0","ymtw10krcdgrg7j",75,"92.csv","","8976.400000095367","<p>Your first journey will be a long one, but you will get a well deserved break at the end</p><p>After the break you will have four more journeys, but each will be much shorter than the first, and you will have breaks in between each</p><p>Press Enter to begin</p>","13","",NA,NA,NA,NA,""
"image-keyboard-response",11,61583,"0.0-3.0-0.0","ymtw10krcdgrg7j",75,"92.csv","","1401.2000000476837","resources/trios/L4T1A2.jpg","38","restless",0.9,0.7,0.3,0.19508792576744,"true"
"image-keyboard-response",12,61992,"0.0-3.0-1.0","ymtw10krcdgrg7j",75,"92.csv","","null","resources/maskTrios/BT1B.jpg","null","",NA,NA,NA,NA,""
"image-keyboard-response",13,63195,"0.0-3.0-2.0","ymtw10krcdgrg7j",75,"92.csv","","null","resources/images/coin2.png","null","",NA,NA,NA,NA,""
"image-keyboard-response",14,64480,"0.0-3.1-0.1","ymtw10krcdgrg7j",75,"92.csv","","1281.5","resources/trios/L4T1A2.jpg","38","restless",0.9,0.7,0.3,0.835838023054099,"false"
"image-keyboard-response",15,64886,"0.0-3.1-1.1","ymtw10krcdgrg7j",75,"92.csv","","null","resources/maskTrios/BT1B.jpg","null","",NA,NA,NA,NA,""
"image-keyboard-response",16,66093,"0.0-3.1-2.1","ymtw10krcdgrg7j",75,"92.csv","","null","resources/images/fishbone.png","null","",NA,NA,NA,NA,""
"image-keyboard-response",17,67243,"0.0-3.2-0.2","ymtw10krcdgrg7j",75,"92.csv","","1147.8000001907349","resources/trios/L2T2A2.jpg","37","restless",0.9,0.7,0.3,0.104691562804683,"true"
"image-keyboard-response",18,67648,"0.0-3.2-1.2","ymtw10krcdgrg7j",75,"92.csv","","null","resources/maskTrios/L2BB.jpg","null","",NA,NA,NA,NA,""
"image-keyboard-response",19,68852,"0.0-3.2-2.2","ymtw10krcdgrg7j",75,"92.csv","","null","resources/images/coin2.png","null","",NA,NA,NA,NA,""
"image-keyboard-response",20,69485,"0.0-3.3-0.3","ymtw10krcdgrg7j",75,"92.csv","","631","resources/trios/L2T2A3.jpg","39","restless",0.9,0.7,0.3,0.113490294187816,"true"
"image-keyboard-response",21,69888,"0.0-3.3-1.3","ymtw10krcdgrg7j",75,"92.csv","","null","resources/maskTrios/BBA3.jpg","null","",NA,NA,NA,NA,""
"image-keyboard-response",22,71095,"0.0-3.3-2.3","ymtw10krcdgrg7j",75,"92.csv","","null","resources/images/coin2.png","null","",NA,NA,NA,NA,""
"image-keyboard-response",23,71706,"0.0-3.4-0.4","ymtw10krcdgrg7j",75,"92.csv","","608.7999999523163","resources/trios/L4T2A2.jpg","38","restless",0.9,0.7,0.3,0.403537069491708,"true"
"image-keyboard-response",24,72114,"0.0-3.4-1.4","ymtw10krcdgrg7j",75,"92.csv","","null","resources/maskTrios/BT2B.jpg","null","",NA,NA,NA,NA,""
"image-keyboard-response",25,73320,"0.0-3.4-2.4","ymtw10krcdgrg7j",75,"92.csv","","null","resources/images/coin2.png","null","",NA,NA,NA,NA,""
"image-keyboard-response",26,73673,"0.0-3.5-0.5","ymtw10krcdgrg7j",75,"92.csv","","351.2000000476837","resources/trios/L2T1A2.jpg","37","restless",0.8,0.7,0.3,0.767032542849711,"true"
"image-keyboard-response",27,74078,"0.0-3.5-1.5","ymtw10krcdgrg7j",75,"92.csv","","null","resources/maskTrios/L2BB.jpg","null","",NA,NA,NA,NA,""
"image-keyboard-response",28,75285,"0.0-3.5-2.5","ymtw10krcdgrg7j",75,"92.csv","","null","resources/images/coin2.png","null","",NA,NA,NA,NA,""
"image-keyboard-response",29,75592,"0.0-3.6-0.6","ymtw10krcdgrg7j",75,"92.csv","","304.19999980926514","resources/trios/L4T2A3.jpg","39","restless",0.8,0.7,0.3,0.837465773984863,"false"
"image-keyboard-response",30,75999,"0.0-3.6-1.6","ymtw10krcdgrg7j",75,"92.csv","","null","resources/maskTrios/BBA3.jpg","null","",NA,NA,NA,NA,""
"image-keyboard-response",31,77202,"0.0-3.6-2.6","ymtw10krcdgrg7j",75,"92.csv","","null","resources/images/fishbone.png","null","",NA,NA,NA,NA,""
"image-keyboard-response",32,87722,"0.0-3.7-0.7","ymtw10krcdgrg7j",75,"92.csv","","10518","resources/trios/L2T1A2.jpg","38","restless",0.8,0.7,0.3,0.212969431554944,"true"
"image-keyboard-response",33,88124,"0.0-3.7-1.7","ymtw10krcdgrg7j",75,"92.csv","","null","resources/maskTrios/BT1B.jpg","null","",NA,NA,NA,NA,""
"image-keyboard-response",34,89331,"0.0-3.7-2.7","ymtw10krcdgrg7j",75,"92.csv","","null","resources/images/coin2.png","null","",NA,NA,NA,NA,""
"image-keyboard-response",35,89625,"0.0-3.8-0.8","ymtw10krcdgrg7j",75,"92.csv","","291.5","resources/trios/L4T2A3.jpg","37","restless",0.8,0.7,0.3,0.918263169361864,"false"
"image-keyboard-response",36,90032,"0.0-3.8-1.8","ymtw10krcdgrg7j",75,"92.csv","","null","resources/maskTrios/L4BB.jpg","null","",NA,NA,NA,NA,""
"image-keyboard-response",37,91238,"0.0-3.8-2.8","ymtw10krcdgrg7j",75,"92.csv","","null","resources/images/fishbone.png","null","",NA,NA,NA,NA,""
"image-keyboard-response",38,91472,"0.0-3.9-0.9","ymtw10krcdgrg7j",75,"92.csv","","232","resources/trios/L2T2A3.jpg","38","restless",0.7,0.7,0.3,0.113847543570516,"true"
"image-keyboard-response",39,91879,"0.0-3.9-1.9","ymtw10krcdgrg7j",75,"92.csv","","null","resources/maskTrios/BT2B.jpg","null","",NA,NA,NA,NA,""
"image-keyboard-response",40,93082,"0.0-3.9-2.9","ymtw10krcdgrg7j",75,"92.csv","","null","resources/images/coin2.png","null","",NA,NA,NA,NA,""
"image-keyboard-response",41,93545,"0.0-3.10-0.10","ymtw10krcdgrg7j",75,"92.csv","","460.60000014305115","resources/trios/L2T1A3.jpg","38","restless",0.7,0.7,0.2,0.0572973294261172,"true"
"image-keyboard-response",42,93951,"0.0-3.10-1.10","ymtw10krcdgrg7j",75,"92.csv","","null","resources/maskTrios/BT1B.jpg","null","",NA,NA,NA,NA,""
"image-keyboard-response",43,95158,"0.0-3.10-2.10","ymtw10krcdgrg7j",75,"92.csv","","null","resources/images/coin2.png","null","",NA,NA,NA,NA,""
"image-keyboard-response",44,96352,"0.0-3.11-0.11","ymtw10krcdgrg7j",75,"92.csv","","1193.2000000476837","resources/trios/L4T2A3.jpg","39","restless",0.6,0.7,0.2,0.131071470103462,"true"
"image-keyboard-response",45,96759,"0.0-3.11-1.11","ymtw10krcdgrg7j",75,"92.csv","","null","resources/maskTrios/BBA3.jpg","null","",NA,NA,NA,NA,""
"image-keyboard-response",46,97964,"0.0-3.11-2.11","ymtw10krcdgrg7j",75,"92.csv","","null","resources/images/coin2.png","null","",NA,NA,NA,NA,""
"image-keyboard-response",47,98253,"0.0-3.12-0.12","ymtw10krcdgrg7j",75,"92.csv","","287.19999980926514","resources/trios/L4T2A2.jpg","38","restless",0.6,0.7,0.2,0.774711590175749,"false"
"image-keyboard-response",48,98659,"0.0-3.12-1.12","ymtw10krcdgrg7j",75,"92.csv","","null","resources/maskTrios/BT2B.jpg","null","",NA,NA,NA,NA,""
"image-keyboard-response",49,99864,"0.0-3.12-2.12","ymtw10krcdgrg7j",75,"92.csv","","null","resources/images/fishbone.png","null","",NA,NA,NA,NA,""
"image-keyboard-response",50,100343,"0.0-3.13-0.13","ymtw10krcdgrg7j",75,"92.csv","","477.5","resources/trios/L4T2A2.jpg","37","restless",0.6,0.7,0.2,0.966233379548959,"false"
"image-keyboard-response",51,100747,"0.0-3.13-1.13","ymtw10krcdgrg7j",75,"92.csv","","null","resources/maskTrios/L4BB.jpg","null","",NA,NA,NA,NA,""
"image-keyboard-response",52,101951,"0.0-3.13-2.13","ymtw10krcdgrg7j",75,"92.csv","","null","resources/images/fishbone.png","null","",NA,NA,NA,NA,""
"image-keyboard-response",53,101962,"0.0-3.14-0.14","ymtw10krcdgrg7j",75,"92.csv","","9.200000047683716","resources/trios/L4T2A3.jpg","39","restless",0.6,0.7,0.2,0.50032883211031,"false"
"image-keyboard-response",54,102367,"0.0-3.14-1.14","ymtw10krcdgrg7j",75,"92.csv","","null","resources/maskTrios/BBA3.jpg","null","",NA,NA,NA,NA,""
"image-keyboard-response",55,103574,"0.0-3.14-2.14","ymtw10krcdgrg7j",75,"92.csv","","null","resources/images/fishbone.png","null","",NA,NA,NA,NA,""
"image-keyboard-response",56,103586,"0.0-3.15-0.15","ymtw10krcdgrg7j",75,"92.csv","","10.099999904632568","resources/trios/L2T2A2.jpg","38","restless",0.6,0.7,0.2,0.896383263464045,"false"
"image-keyboard-response",57,103993,"0.0-3.15-1.15","ymtw10krcdgrg7j",75,"92.csv","","null","resources/maskTrios/BT2B.jpg","null","",NA,NA,NA,NA,""
"image-keyboard-response",58,105199,"0.0-3.15-2.15","ymtw10krcdgrg7j",75,"92.csv","","null","resources/images/fishbone.png","null","",NA,NA,NA,NA,""
"image-keyboard-response",59,105588,"0.0-3.16-0.16","ymtw10krcdgrg7j",75,"92.csv","","386.7999999523163","resources/trios/L4T2A2.jpg","37","restless",0.6,0.7,0.2,0.487050496232061,"true"
"image-keyboard-response",60,105995,"0.0-3.16-1.16","ymtw10krcdgrg7j",75,"92.csv","","null","resources/maskTrios/L4BB.jpg","null","",NA,NA,NA,NA,""
"image-keyboard-response",61,107202,"0.0-3.16-2.16","ymtw10krcdgrg7j",75,"92.csv","","null","resources/images/coin2.png","null","",NA,NA,NA,NA,""
"image-keyboard-response",62,107508,"0.0-3.17-0.17","ymtw10krcdgrg7j",75,"92.csv","","303.7999999523163","resources/trios/L2T2A3.jpg","39","restless",0.6,0.7,0.2,0.67173580348206,"false"
"image-keyboard-response",63,107915,"0.0-3.17-1.17","ymtw10krcdgrg7j",75,"92.csv","","null","resources/maskTrios/BBA3.jpg","null","",NA,NA,NA,NA,""
"image-keyboard-response",64,109121,"0.0-3.17-2.17","ymtw10krcdgrg7j",75,"92.csv","","null","resources/images/fishbone.png","null","",NA,NA,NA,NA,""
"image-keyboard-response",65,109220,"0.0-3.18-0.18","ymtw10krcdgrg7j",75,"92.csv","","96.20000004768372","resources/trios/L4T2A2.jpg","38","restless",0.5,0.7,0.2,0.552858115276247,"true"
"image-keyboard-response",66,109626,"0.0-3.18-1.18","ymtw10krcdgrg7j",75,"92.csv","","null","resources/maskTrios/BT2B.jpg","null","",NA,NA,NA,NA,""
"image-keyboard-response",67,110833,"0.0-3.18-2.18","ymtw10krcdgrg7j",75,"92.csv","","null","resources/images/coin2.png","null","",NA,NA,NA,NA,""
"image-keyboard-response",68,111119,"0.0-3.19-0.19","ymtw10krcdgrg7j",75,"92.csv","","283.59999990463257","resources/trios/L4T2A2.jpg","37","restless",0.5,0.7,0.2,0.117548901545124,"true"
"image-keyboard-response",69,111526,"0.0-3.19-1.19","ymtw10krcdgrg7j",75,"92.csv","","null","resources/maskTrios/L4BB.jpg","null","",NA,NA,NA,NA,""
"image-keyboard-response",70,112733,"0.0-3.19-2.19","ymtw10krcdgrg7j",75,"92.csv","","null","resources/images/coin2.png","null","",NA,NA,NA,NA,""
"image-keyboard-response",71,112942,"0.0-3.20-0.20","ymtw10krcdgrg7j",75,"92.csv","","206.79999995231628","resources/trios/L4T2A2.jpg","38","restless",0.4,0.7,0.2,0.634329791869083,"true"
"image-keyboard-response",72,113349,"0.0-3.20-1.20","ymtw10krcdgrg7j",75,"92.csv","","null","resources/maskTrios/BT2B.jpg","null","",NA,NA,NA,NA,""
"image-keyboard-response",73,114555,"0.0-3.20-2.20","ymtw10krcdgrg7j",75,"92.csv","","null","resources/images/coin2.png","null","",NA,NA,NA,NA,""
"image-keyboard-response",74,115058,"0.0-3.21-0.21","ymtw10krcdgrg7j",75,"92.csv","","500.59999990463257","resources/trios/L2T2A2.jpg","38","restless",0.4,0.7,0.2,0.278811374025906,"true"
"image-keyboard-response",75,115462,"0.0-3.21-1.21","ymtw10krcdgrg7j",75,"92.csv","","null","resources/maskTrios/BT2B.jpg","null","",NA,NA,NA,NA,""
"image-keyboard-response",76,116664,"0.0-3.21-2.21","ymtw10krcdgrg7j",75,"92.csv","","null","resources/images/coin2.png","null","",NA,NA,NA,NA,""
"image-keyboard-response",77,119537,"0.0-3.22-0.22","ymtw10krcdgrg7j",75,"92.csv","","2870.7000000476837","resources/trios/L4T2A3.jpg","38","restless",0.4,0.7,0.2,0.834024136639976,"false"
"image-keyboard-response",78,119941,"0.0-3.22-1.22","ymtw10krcdgrg7j",75,"92.csv","","null","resources/maskTrios/BT2B.jpg","null","",NA,NA,NA,NA,""
"image-keyboard-response",79,121148,"0.0-3.22-2.22","ymtw10krcdgrg7j",75,"92.csv","","null","resources/images/fishbone.png","null","",NA,NA,NA,NA,""
"image-keyboard-response",80,121418,"0.0-3.23-0.23","ymtw10krcdgrg7j",75,"92.csv","","267.39999985694885","resources/trios/L2T2A3.jpg","39","restless",0.4,0.7,0.2,0.32389498894431,"false"
"image-keyboard-response",81,121825,"0.0-3.23-1.23","ymtw10krcdgrg7j",75,"92.csv","","null","resources/maskTrios/BBA3.jpg","null","",NA,NA,NA,NA,""
"image-keyboard-response",82,123027,"0.0-3.23-2.23","ymtw10krcdgrg7j",75,"92.csv","","null","resources/images/fishbone.png","null","",NA,NA,NA,NA,""
"image-keyboard-response",83,123488,"0.0-3.24-0.24","ymtw10krcdgrg7j",75,"92.csv","","458.30000019073486","resources/trios/L2T2A3.jpg","37","restless",0.4,0.7,0.2,0.510184083153727,"false"
"image-keyboard-response",84,123895,"0.0-3.24-1.24","ymtw10krcdgrg7j",75,"92.csv","","null","resources/maskTrios/L2BB.jpg","null","",NA,NA,NA,NA,""
"image-keyboard-response",85,125100,"0.0-3.24-2.24","ymtw10krcdgrg7j",75,"92.csv","","null","resources/images/fishbone.png","null","",NA,NA,NA,NA,""
"image-keyboard-response",86,125130,"0.0-3.25-0.25","ymtw10krcdgrg7j",75,"92.csv","","28.09999990463257","resources/trios/L2T1A3.jpg","38","restless",0.4,0.7,0.1,0.453343895356158,"true"
"image-keyboard-response",87,125537,"0.0-3.25-1.25","ymtw10krcdgrg7j",75,"92.csv","","null","resources/maskTrios/BT1B.jpg","null","",NA,NA,NA,NA,""
"image-keyboard-response",88,126740,"0.0-3.25-2.25","ymtw10krcdgrg7j",75,"92.csv","","null","resources/images/coin2.png","null","",NA,NA,NA,NA,""
"image-keyboard-response",89,126806,"0.0-3.26-0.26","ymtw10krcdgrg7j",75,"92.csv","","64.60000014305115","resources/trios/L2T2A3.jpg","38","restless",0.4,0.6,0.1,0.253798330407868,"true"
"image-keyboard-response",90,127210,"0.0-3.26-1.26","ymtw10krcdgrg7j",75,"92.csv","","null","resources/maskTrios/BT2B.jpg","null","",NA,NA,NA,NA,""
"image-keyboard-response",91,128416,"0.0-3.26-2.26","ymtw10krcdgrg7j",75,"92.csv","","null","resources/images/coin2.png","null","",NA,NA,NA,NA,""
"image-keyboard-response",92,128662,"0.0-3.27-0.27","ymtw10krcdgrg7j",75,"92.csv","","243.20000004768372","resources/trios/L4T2A3.jpg","39","restless",0.4,0.6,0.1,0.027780327361588,"true"
"image-keyboard-response",93,129065,"0.0-3.27-1.27","ymtw10krcdgrg7j",75,"92.csv","","null","resources/maskTrios/BBA3.jpg","null","",NA,NA,NA,NA,""
"image-keyboard-response",94,130270,"0.0-3.27-2.27","ymtw10krcdgrg7j",75,"92.csv","","null","resources/images/coin2.png","null","",NA,NA,NA,NA,""
"image-keyboard-response",95,130581,"0.0-3.28-0.28","ymtw10krcdgrg7j",75,"92.csv","","309.60000014305115","resources/trios/L4T1A2.jpg","37","restless",0.4,0.6,0.1,0.929060881202876,"false"
"image-keyboard-response",96,130988,"0.0-3.28-1.28","ymtw10krcdgrg7j",75,"92.csv","","null","resources/maskTrios/L4BB.jpg","null","",NA,NA,NA,NA,""
"image-keyboard-response",97,132195,"0.0-3.28-2.28","ymtw10krcdgrg7j",75,"92.csv","","null","resources/images/fishbone.png","null","",NA,NA,NA,NA,""
"image-keyboard-response",98,132398,"0.0-3.29-0.29","ymtw10krcdgrg7j",75,"92.csv","","201.40000009536743","resources/trios/L4T1A2.jpg","38","restless",0.4,0.6,0.1,0.643761299835295,"false"
"image-keyboard-response",99,132805,"0.0-3.29-1.29","ymtw10krcdgrg7j",75,"92.csv","","null","resources/maskTrios/BT1B.jpg","null","",NA,NA,NA,NA,""
"image-keyboard-response",100,134012,"0.0-3.29-2.29","ymtw10krcdgrg7j",75,"92.csv","","null","resources/images/fishbone.png","null","",NA,NA,NA,NA,""
"image-keyboard-response",101,134078,"0.0-3.30-0.30","ymtw10krcdgrg7j",75,"92.csv","","63.799999952316284","resources/trios/L4T1A2.jpg","39","restless",0.4,0.6,0.1,0.434978562781329,"false"
"image-keyboard-response",102,134485,"0.0-3.30-1.30","ymtw10krcdgrg7j",75,"92.csv","","null","resources/maskTrios/BBA2.jpg","null","",NA,NA,NA,NA,""
"image-keyboard-response",103,135690,"0.0-3.30-2.30","ymtw10krcdgrg7j",75,"92.csv","","null","resources/images/fishbone.png","null","",NA,NA,NA,NA,""
"image-keyboard-response",104,135962,"0.0-3.31-0.31","ymtw10krcdgrg7j",75,"92.csv","","270.10000014305115","resources/trios/L4T2A2.jpg","38","restless",0.4,0.6,0.1,0.567288967920483,"true"
"image-keyboard-response",105,136369,"0.0-3.31-1.31","ymtw10krcdgrg7j",75,"92.csv","","null","resources/maskTrios/BT2B.jpg","null","",NA,NA,NA,NA,""
"image-keyboard-response",106,137575,"0.0-3.31-2.31","ymtw10krcdgrg7j",75,"92.csv","","null","resources/images/coin2.png","null","",NA,NA,NA,NA,""
"image-keyboard-response",107,138033,"0.0-3.32-0.32","ymtw10krcdgrg7j",75,"92.csv","","455.90000009536743","resources/trios/L4T1A3.jpg","37","restless",0.4,0.6,0.2,0.948641917675846,"false"
"image-keyboard-response",108,138440,"0.0-3.32-1.32","ymtw10krcdgrg7j",75,"92.csv","","null","resources/maskTrios/L4BB.jpg","null","",NA,NA,NA,NA,""
"image-keyboard-response",109,139646,"0.0-3.32-2.32","ymtw10krcdgrg7j",75,"92.csv","","null","resources/images/fishbone.png","null","",NA,NA,NA,NA,""
"image-keyboard-response",110,140097,"0.0-3.33-0.33","ymtw10krcdgrg7j",75,"92.csv","","446.80000019073486","resources/trios/L4T2A3.jpg","39","restless",0.4,0.6,0.2,0.404331400289628,"false"
"image-keyboard-response",111,140499,"0.0-3.33-1.33","ymtw10krcdgrg7j",75,"92.csv","","null","resources/maskTrios/BBA3.jpg","null","",NA,NA,NA,NA,""
"image-keyboard-response",112,141705,"0.0-3.33-2.33","ymtw10krcdgrg7j",75,"92.csv","","null","resources/images/fishbone.png","null","",NA,NA,NA,NA,""
"image-keyboard-response",113,142027,"0.0-3.34-0.34","ymtw10krcdgrg7j",75,"92.csv","","320.09999990463257","resources/trios/L4T1A2.jpg","38","restless",0.4,0.6,0.2,0.470216327845879,"true"
"image-keyboard-response",114,142430,"0.0-3.34-1.34","ymtw10krcdgrg7j",75,"92.csv","","null","resources/maskTrios/BT1B.jpg","null","",NA,NA,NA,NA,""
"image-keyboard-response",115,143637,"0.0-3.34-2.34","ymtw10krcdgrg7j",75,"92.csv","","null","resources/images/coin2.png","null","",NA,NA,NA,NA,""
"image-keyboard-response",116,144638,"0.0-3.35-0.35","ymtw10krcdgrg7j",75,"92.csv","","1000","resources/trios/L2T1A2.jpg","38","restless",0.4,0.6,0.2,0.0609976749606109,"true"
"image-keyboard-response",117,145044,"0.0-3.35-1.35","ymtw10krcdgrg7j",75,"92.csv","","null","resources/maskTrios/BT1B.jpg","null","",NA,NA,NA,NA,""
"image-keyboard-response",118,146248,"0.0-3.35-2.35","ymtw10krcdgrg7j",75,"92.csv","","null","resources/images/coin2.png","null","",NA,NA,NA,NA,""
"image-keyboard-response",119,146895,"0.0-3.36-0.36","ymtw10krcdgrg7j",75,"92.csv","","644.8999998569489","resources/trios/L4T1A2.jpg","38","restless",0.5,0.6,0.3,0.0354093838955414,"true"
"image-keyboard-response",120,147301,"0.0-3.36-1.36","ymtw10krcdgrg7j",75,"92.csv","","null","resources/maskTrios/BT1B.jpg","null","",NA,NA,NA,NA,""
"image-keyboard-response",121,148507,"0.0-3.36-2.36","ymtw10krcdgrg7j",75,"92.csv","","null","resources/images/coin2.png","null","",NA,NA,NA,NA,""
"image-keyboard-response",122,149534,"0.0-3.37-0.37","ymtw10krcdgrg7j",75,"92.csv","","1025.2999999523163","resources/trios/L2T2A3.jpg","37","restless",0.5,0.6,0.3,0.587656625169577,"false"
"image-keyboard-response",123,149940,"0.0-3.37-1.37","ymtw10krcdgrg7j",75,"92.csv","","null","resources/maskTrios/L2BB.jpg","null","",NA,NA,NA,NA,""
"image-keyboard-response",124,151146,"0.0-3.37-2.37","ymtw10krcdgrg7j",75,"92.csv","","null","resources/images/fishbone.png","null","",NA,NA,NA,NA,""
"image-keyboard-response",125,151763,"0.0-3.38-0.38","ymtw10krcdgrg7j",75,"92.csv","","615.8000001907349","resources/trios/L4T1A2.jpg","38","restless",0.5,0.6,0.3,0.990275030490918,"false"
"image-keyboard-response",126,152170,"0.0-3.38-1.38","ymtw10krcdgrg7j",75,"92.csv","","null","resources/maskTrios/BT1B.jpg","null","",NA,NA,NA,NA,""
"image-keyboard-response",127,153376,"0.0-3.38-2.38","ymtw10krcdgrg7j",75,"92.csv","","null","resources/images/fishbone.png","null","",NA,NA,NA,NA,""
"image-keyboard-response",128,154313,"0.0-3.39-0.39","ymtw10krcdgrg7j",75,"92.csv","","934.7000000476837","resources/trios/L4T1A3.jpg","39","restless",0.5,0.6,0.3,0.210962130241876,"true"
"image-keyboard-response",129,154715,"0.0-3.39-1.39","ymtw10krcdgrg7j",75,"92.csv","","null","resources/maskTrios/BBA3.jpg","null","",NA,NA,NA,NA,""
"image-keyboard-response",130,155921,"0.0-3.39-2.39","ymtw10krcdgrg7j",75,"92.csv","","null","resources/images/coin2.png","null","",NA,NA,NA,NA,""
"image-keyboard-response",131,156587,"0.0-3.40-0.40","ymtw10krcdgrg7j",75,"92.csv","","663.9000000953674","resources/trios/L4T2A2.jpg","39","restless",0.5,0.6,0.3,0.67601713486338,"false"
"image-keyboard-response",132,156994,"0.0-3.40-1.40","ymtw10krcdgrg7j",75,"92.csv","","null","resources/maskTrios/BBA2.jpg","null","",NA,NA,NA,NA,""
"image-keyboard-response",133,158200,"0.0-3.40-2.40","ymtw10krcdgrg7j",75,"92.csv","","null","resources/images/fishbone.png","null","",NA,NA,NA,NA,""
"image-keyboard-response",134,158459,"0.0-3.41-0.41","ymtw10krcdgrg7j",75,"92.csv","","258","resources/trios/L4T2A3.jpg","37","restless",0.5,0.6,0.3,0.252887002418083,"true"
"image-keyboard-response",135,158866,"0.0-3.41-1.41","ymtw10krcdgrg7j",75,"92.csv","","null","resources/maskTrios/L4BB.jpg","null","",NA,NA,NA,NA,""
"image-keyboard-response",136,160073,"0.0-3.41-2.41","ymtw10krcdgrg7j",75,"92.csv","","null","resources/images/coin2.png","null","",NA,NA,NA,NA,""
"image-keyboard-response",137,160312,"0.0-3.42-0.42","ymtw10krcdgrg7j",75,"92.csv","","237.20000004768372","resources/trios/L2T2A3.jpg","38","restless",0.5,0.6,0.3,0.528708144923319,"true"
"image-keyboard-response",138,160718,"0.0-3.42-1.42","ymtw10krcdgrg7j",75,"92.csv","","null","resources/maskTrios/BT2B.jpg","null","",NA,NA,NA,NA,""
"image-keyboard-response",139,161925,"0.0-3.42-2.42","ymtw10krcdgrg7j",75,"92.csv","","null","resources/images/coin2.png","null","",NA,NA,NA,NA,""
"image-keyboard-response",140,162292,"0.0-3.43-0.43","ymtw10krcdgrg7j",75,"92.csv","","365.09999990463257","resources/trios/L2T2A3.jpg","38","restless",0.5,0.6,0.3,0.157971765581525,"true"
"image-keyboard-response",141,162694,"0.0-3.43-1.43","ymtw10krcdgrg7j",75,"92.csv","","null","resources/maskTrios/BT2B.jpg","null","",NA,NA,NA,NA,""
"image-keyboard-response",142,163901,"0.0-3.43-2.43","ymtw10krcdgrg7j",75,"92.csv","","null","resources/images/coin2.png","null","",NA,NA,NA,NA,""
"image-keyboard-response",143,164175,"0.0-3.44-0.44","ymtw10krcdgrg7j",75,"92.csv","","273.2000000476837","resources/trios/L2T2A2.jpg","38","restless",0.5,0.6,0.2,0.0184461592383764,"true"
"image-keyboard-response",144,164581,"0.0-3.44-1.44","ymtw10krcdgrg7j",75,"92.csv","","null","resources/maskTrios/BT2B.jpg","null","",NA,NA,NA,NA,""
"image-keyboard-response",145,165786,"0.0-3.44-2.44","ymtw10krcdgrg7j",75,"92.csv","","null","resources/images/coin2.png","null","",NA,NA,NA,NA,""
"image-keyboard-response",146,166082,"0.0-3.45-0.45","ymtw10krcdgrg7j",75,"92.csv","","295.10000014305115","resources/trios/L4T1A2.jpg","38","restless",0.5,0.6,0.2,0.818445531844497,"false"
"image-keyboard-response",147,166489,"0.0-3.45-1.45","ymtw10krcdgrg7j",75,"92.csv","","null","resources/maskTrios/BT1B.jpg","null","",NA,NA,NA,NA,""
"image-keyboard-response",148,167695,"0.0-3.45-2.45","ymtw10krcdgrg7j",75,"92.csv","","null","resources/images/fishbone.png","null","",NA,NA,NA,NA,""
"image-keyboard-response",149,167920,"0.0-3.46-0.46","ymtw10krcdgrg7j",75,"92.csv","","222.30000019073486","resources/trios/L2T2A3.jpg","39","restless",0.5,0.6,0.2,0.674360989707279,"false"
"image-keyboard-response",150,168327,"0.0-3.46-1.46","ymtw10krcdgrg7j",75,"92.csv","","null","resources/maskTrios/BBA3.jpg","null","",NA,NA,NA,NA,""
"image-keyboard-response",151,169533,"0.0-3.46-2.46","ymtw10krcdgrg7j",75,"92.csv","","null","resources/images/fishbone.png","null","",NA,NA,NA,NA,""
"image-keyboard-response",152,169627,"0.0-3.47-0.47","ymtw10krcdgrg7j",75,"92.csv","","91.69999980926514","resources/trios/L2T2A2.jpg","37","restless",0.5,0.5,0.2,0.293382329135873,"true"
"image-keyboard-response",153,170030,"0.0-3.47-1.47","ymtw10krcdgrg7j",75,"92.csv","","null","resources/maskTrios/L2BB.jpg","null","",NA,NA,NA,NA,""
"image-keyboard-response",154,171237,"0.0-3.47-2.47","ymtw10krcdgrg7j",75,"92.csv","","null","resources/images/coin2.png","null","",NA,NA,NA,NA,""
"image-keyboard-response",155,171488,"0.0-3.48-0.48","ymtw10krcdgrg7j",75,"92.csv","","250","resources/trios/L4T1A2.jpg","38","restless",0.5,0.5,0.2,0.041982431268613,"true"
"image-keyboard-response",156,171893,"0.0-3.48-1.48","ymtw10krcdgrg7j",75,"92.csv","","null","resources/maskTrios/BT1B.jpg","null","",NA,NA,NA,NA,""
"image-keyboard-response",157,173099,"0.0-3.48-2.48","ymtw10krcdgrg7j",75,"92.csv","","null","resources/images/coin2.png","null","",NA,NA,NA,NA,""
"image-keyboard-response",158,173390,"0.0-3.49-0.49","ymtw10krcdgrg7j",75,"92.csv","","289.2000000476837","resources/trios/L4T2A2.jpg","39","restless",0.5,0.5,0.2,0.450994760107189,"false"
"image-keyboard-response",159,173797,"0.0-3.49-1.49","ymtw10krcdgrg7j",75,"92.csv","","null","resources/maskTrios/BBA2.jpg","null","",NA,NA,NA,NA,""
"image-keyboard-response",160,175001,"0.0-3.49-2.49","ymtw10krcdgrg7j",75,"92.csv","","null","resources/images/fishbone.png","null","",NA,NA,NA,NA,""
"image-keyboard-response",161,175071,"0.0-3.50-0.50","ymtw10krcdgrg7j",75,"92.csv","","68.79999995231628","resources/trios/L4T2A2.jpg","37","restless",0.5,0.5,0.3,0.592793804205091,"false"
"image-keyboard-response",162,175478,"0.0-3.50-1.50","ymtw10krcdgrg7j",75,"92.csv","","null","resources/maskTrios/L4BB.jpg","null","",NA,NA,NA,NA,""
"image-keyboard-response",163,176685,"0.0-3.50-2.50","ymtw10krcdgrg7j",75,"92.csv","","null","resources/images/fishbone.png","null","",NA,NA,NA,NA,""
"image-keyboard-response",164,177107,"0.0-3.51-0.51","ymtw10krcdgrg7j",75,"92.csv","","420.2000000476837","resources/trios/L2T2A3.jpg","38","restless",0.5,0.5,0.4,0.445459539643825,"true"
"image-keyboard-response",165,177510,"0.0-3.51-1.51","ymtw10krcdgrg7j",75,"92.csv","","null","resources/maskTrios/BT2B.jpg","null","",NA,NA,NA,NA,""
"image-keyboard-response",166,178715,"0.0-3.51-2.51","ymtw10krcdgrg7j",75,"92.csv","","null","resources/images/coin2.png","null","",NA,NA,NA,NA,""
"image-keyboard-response",167,179140,"0.0-3.52-0.52","ymtw10krcdgrg7j",75,"92.csv","","423.39999985694885","resources/trios/L2T1A3.jpg","39","restless",0.5,0.6,0.4,0.305693342412577,"true"
"image-keyboard-response",168,179547,"0.0-3.52-1.52","ymtw10krcdgrg7j",75,"92.csv","","null","resources/maskTrios/BBA3.jpg","null","",NA,NA,NA,NA,""
"image-keyboard-response",169,180750,"0.0-3.52-2.52","ymtw10krcdgrg7j",75,"92.csv","","null","resources/images/coin2.png","null","",NA,NA,NA,NA,""
"image-keyboard-response",170,181507,"0.0-3.53-0.53","ymtw10krcdgrg7j",75,"92.csv","","754.5999999046326","resources/trios/L2T2A2.jpg","38","restless",0.5,0.6,0.4,0.794003514792981,"false"
"image-keyboard-response",171,181914,"0.0-3.53-1.53","ymtw10krcdgrg7j",75,"92.csv","","null","resources/maskTrios/BT2B.jpg","null","",NA,NA,NA,NA,""
"image-keyboard-response",172,183120,"0.0-3.53-2.53","ymtw10krcdgrg7j",75,"92.csv","","null","resources/images/fishbone.png","null","",NA,NA,NA,NA,""
"image-keyboard-response",173,183475,"0.0-3.54-0.54","ymtw10krcdgrg7j",75,"92.csv","","353.2000000476837","resources/trios/L4T1A3.jpg","37","restless",0.6,0.6,0.4,0.940822891377493,"false"
"image-keyboard-response",174,183882,"0.0-3.54-1.54","ymtw10krcdgrg7j",75,"92.csv","","null","resources/maskTrios/L4BB.jpg","null","",NA,NA,NA,NA,""
"image-keyboard-response",175,185089,"0.0-3.54-2.54","ymtw10krcdgrg7j",75,"92.csv","","null","resources/images/fishbone.png","null","",NA,NA,NA,NA,""
"image-keyboard-response",176,185541,"0.0-3.55-0.55","ymtw10krcdgrg7j",75,"92.csv","","450.7000000476837","resources/trios/L4T2A3.jpg","39","restless",0.6,0.7,0.4,0.0834472054810675,"true"
"image-keyboard-response",177,185948,"0.0-3.55-1.55","ymtw10krcdgrg7j",75,"92.csv","","null","resources/maskTrios/BBA3.jpg","null","",NA,NA,NA,NA,""
"image-keyboard-response",178,187150,"0.0-3.55-2.55","ymtw10krcdgrg7j",75,"92.csv","","null","resources/images/coin2.png","null","",NA,NA,NA,NA,""
"image-keyboard-response",179,187661,"0.0-3.56-0.56","ymtw10krcdgrg7j",75,"92.csv","","509.10000014305115","resources/trios/L2T1A3.jpg","37","restless",0.6,0.7,0.4,0.945633202657041,"false"
"image-keyboard-response",180,188068,"0.0-3.56-1.56","ymtw10krcdgrg7j",75,"92.csv","","null","resources/maskTrios/L2BB.jpg","null","",NA,NA,NA,NA,""
"image-keyboard-response",181,189270,"0.0-3.56-2.56","ymtw10krcdgrg7j",75,"92.csv","","null","resources/images/fishbone.png","null","",NA,NA,NA,NA,""
"image-keyboard-response",182,189610,"0.0-3.57-0.57","ymtw10krcdgrg7j",75,"92.csv","","338.30000019073486","resources/trios/L4T2A2.jpg","38","restless",0.6,0.7,0.4,0.840019717388404,"false"
"image-keyboard-response",183,190013,"0.0-3.57-1.57","ymtw10krcdgrg7j",75,"92.csv","","null","resources/maskTrios/BT2B.jpg","null","",NA,NA,NA,NA,""
"image-keyboard-response",184,191219,"0.0-3.57-2.57","ymtw10krcdgrg7j",75,"92.csv","","null","resources/images/fishbone.png","null","",NA,NA,NA,NA,""
"image-keyboard-response",185,191546,"0.0-3.58-0.58","ymtw10krcdgrg7j",75,"92.csv","","324.69999980926514","resources/trios/L4T2A2.jpg","37","restless",0.6,0.7,0.3,0.529018568325785,"true"
"image-keyboard-response",186,191953,"0.0-3.58-1.58","ymtw10krcdgrg7j",75,"92.csv","","null","resources/maskTrios/L4BB.jpg","null","",NA,NA,NA,NA,""
"image-keyboard-response",187,193159,"0.0-3.58-2.58","ymtw10krcdgrg7j",75,"92.csv","","null","resources/images/coin2.png","null","",NA,NA,NA,NA,""
"image-keyboard-response",188,193426,"0.0-3.59-0.59","ymtw10krcdgrg7j",75,"92.csv","","264.30000019073486","resources/trios/L2T2A2.jpg","37","restless",0.6,0.7,0.3,0.196030982937393,"true"
"image-keyboard-response",189,193830,"0.0-3.59-1.59","ymtw10krcdgrg7j",75,"92.csv","","null","resources/maskTrios/L2BB.jpg","null","",NA,NA,NA,NA,""
"image-keyboard-response",190,195037,"0.0-3.59-2.59","ymtw10krcdgrg7j",75,"92.csv","","null","resources/images/coin2.png","null","",NA,NA,NA,NA,""
"image-keyboard-response",191,195341,"0.0-3.60-0.60","ymtw10krcdgrg7j",75,"92.csv","","302.2999999523163","resources/trios/L2T2A2.jpg","37","restless",0.6,0.7,0.3,0.930459788359256,"false"
"image-keyboard-response",192,195748,"0.0-3.60-1.60","ymtw10krcdgrg7j",75,"92.csv","","null","resources/maskTrios/L2BB.jpg","null","",NA,NA,NA,NA,""
"image-keyboard-response",193,196954,"0.0-3.60-2.60","ymtw10krcdgrg7j",75,"92.csv","","null","resources/images/fishbone.png","null","",NA,NA,NA,NA,""
"image-keyboard-response",194,197715,"0.0-3.61-0.61","ymtw10krcdgrg7j",75,"92.csv","","758.1999998092651","resources/trios/L2T1A3.jpg","38","restless",0.6,0.7,0.3,0.0513452575974862,"true"
"image-keyboard-response",195,198122,"0.0-3.61-1.61","ymtw10krcdgrg7j",75,"92.csv","","null","resources/maskTrios/BT1B.jpg","null","",NA,NA,NA,NA,""
"image-keyboard-response",196,199328,"0.0-3.61-2.61","ymtw10krcdgrg7j",75,"92.csv","","null","resources/images/coin2.png","null","",NA,NA,NA,NA,""
"image-keyboard-response",197,199700,"0.0-3.62-0.62","ymtw10krcdgrg7j",75,"92.csv","","369.7000000476837","resources/trios/L4T2A2.jpg","38","restless",0.6,0.7,0.3,0.481956285980097,"true"
"image-keyboard-response",198,200106,"0.0-3.62-1.62","ymtw10krcdgrg7j",75,"92.csv","","null","resources/maskTrios/BT2B.jpg","null","",NA,NA,NA,NA,""
"image-keyboard-response",199,201310,"0.0-3.62-2.62","ymtw10krcdgrg7j",75,"92.csv","","null","resources/images/coin2.png","null","",NA,NA,NA,NA,""
"image-keyboard-response",200,201643,"0.0-3.63-0.63","ymtw10krcdgrg7j",75,"92.csv","","331","resources/trios/L4T1A2.jpg","39","restless",0.6,0.7,0.3,0.492740324095246,"false"
"image-keyboard-response",201,202049,"0.0-3.63-1.63","ymtw10krcdgrg7j",75,"92.csv","","null","resources/maskTrios/BBA2.jpg","null","",NA,NA,NA,NA,""
"image-keyboard-response",202,203252,"0.0-3.63-2.63","ymtw10krcdgrg7j",75,"92.csv","","null","resources/images/fishbone.png","null","",NA,NA,NA,NA,""
"image-keyboard-response",203,203618,"0.0-3.64-0.64","ymtw10krcdgrg7j",75,"92.csv","","364.09999990463257","resources/trios/L2T1A3.jpg","37","restless",0.7,0.7,0.3,0.560150164798012,"true"
"image-keyboard-response",204,204020,"0.0-3.64-1.64","ymtw10krcdgrg7j",75,"92.csv","","null","resources/maskTrios/L2BB.jpg","null","",NA,NA,NA,NA,""
"image-keyboard-response",205,205227,"0.0-3.64-2.64","ymtw10krcdgrg7j",75,"92.csv","","null","resources/images/coin2.png","null","",NA,NA,NA,NA,""
"image-keyboard-response",206,205582,"0.0-3.65-0.65","ymtw10krcdgrg7j",75,"92.csv","","353.7000000476837","resources/trios/L2T1A3.jpg","37","restless",0.7,0.7,0.3,0.505727867669758,"true"
"image-keyboard-response",207,205987,"0.0-3.65-1.65","ymtw10krcdgrg7j",75,"92.csv","","null","resources/maskTrios/L2BB.jpg","null","",NA,NA,NA,NA,""
"image-keyboard-response",208,207190,"0.0-3.65-2.65","ymtw10krcdgrg7j",75,"92.csv","","null","resources/images/coin2.png","null","",NA,NA,NA,NA,""
"image-keyboard-response",209,207422,"0.0-3.66-0.66","ymtw10krcdgrg7j",75,"92.csv","","230.59999990463257","resources/trios/L2T1A2.jpg","37","restless",0.6,0.7,0.3,0.693395350542758,"false"
"image-keyboard-response",210,207829,"0.0-3.66-1.66","ymtw10krcdgrg7j",75,"92.csv","","null","resources/maskTrios/L2BB.jpg","null","",NA,NA,NA,NA,""
"image-keyboard-response",211,209035,"0.0-3.66-2.66","ymtw10krcdgrg7j",75,"92.csv","","null","resources/images/fishbone.png","null","",NA,NA,NA,NA,""
"image-keyboard-response",212,209288,"0.0-3.67-0.67","ymtw10krcdgrg7j",75,"92.csv","","251.10000014305115","resources/trios/L4T2A3.jpg","39","restless",0.6,0.7,0.3,0.281324620873771,"true"
"image-keyboard-response",213,209695,"0.0-3.67-1.67","ymtw10krcdgrg7j",75,"92.csv","","null","resources/maskTrios/BBA3.jpg","null","",NA,NA,NA,NA,""
"image-keyboard-response",214,210902,"0.0-3.67-2.67","ymtw10krcdgrg7j",75,"92.csv","","null","resources/images/coin2.png","null","",NA,NA,NA,NA,""
"image-keyboard-response",215,211181,"0.0-3.68-0.68","ymtw10krcdgrg7j",75,"92.csv","","277.2000000476837","resources/trios/L4T1A3.jpg","39","restless",0.6,0.7,0.4,0.521649314109156,"false"
"image-keyboard-response",216,211588,"0.0-3.68-1.68","ymtw10krcdgrg7j",75,"92.csv","","null","resources/maskTrios/BBA3.jpg","null","",NA,NA,NA,NA,""
"image-keyboard-response",217,212794,"0.0-3.68-2.68","ymtw10krcdgrg7j",75,"92.csv","","null","resources/images/fishbone.png","null","",NA,NA,NA,NA,""
"image-keyboard-response",218,213057,"0.0-3.69-0.69","ymtw10krcdgrg7j",75,"92.csv","","261.39999985694885","resources/trios/L2T2A2.jpg","38","restless",0.6,0.7,0.4,0.90661726087246,"false"
"image-keyboard-response",219,213463,"0.0-3.69-1.69","ymtw10krcdgrg7j",75,"92.csv","","null","resources/maskTrios/BT2B.jpg","null","",NA,NA,NA,NA,""
"image-keyboard-response",220,214669,"0.0-3.69-2.69","ymtw10krcdgrg7j",75,"92.csv","","null","resources/images/fishbone.png","null","",NA,NA,NA,NA,""
"image-keyboard-response",221,215088,"0.0-3.70-0.70","ymtw10krcdgrg7j",75,"92.csv","","417","resources/trios/L2T2A2.jpg","38","restless",0.6,0.7,0.4,0.485630652644196,"true"
"image-keyboard-response",222,215494,"0.0-3.70-1.70","ymtw10krcdgrg7j",75,"92.csv","","null","resources/maskTrios/BT2B.jpg","null","",NA,NA,NA,NA,""
"image-keyboard-response",223,216699,"0.0-3.70-2.70","ymtw10krcdgrg7j",75,"92.csv","","null","resources/images/coin2.png","null","",NA,NA,NA,NA,""
"image-keyboard-response",224,216934,"0.0-3.71-0.71","ymtw10krcdgrg7j",75,"92.csv","","233.10000014305115","resources/trios/L2T1A3.jpg","38","restless",0.6,0.7,0.4,0.190362884868635,"true"
"image-keyboard-response",225,217338,"0.0-3.71-1.71","ymtw10krcdgrg7j",75,"92.csv","","null","resources/maskTrios/BT1B.jpg","null","",NA,NA,NA,NA,""
"image-keyboard-response",226,218540,"0.0-3.71-2.71","ymtw10krcdgrg7j",75,"92.csv","","null","resources/images/coin2.png","null","",NA,NA,NA,NA,""
"image-keyboard-response",227,219029,"0.0-3.72-0.72","ymtw10krcdgrg7j",75,"92.csv","","487.59999990463257","resources/trios/L4T1A3.jpg","38","restless",0.6,0.7,0.4,0.255233901247621,"true"
"image-keyboard-response",228,219436,"0.0-3.72-1.72","ymtw10krcdgrg7j",75,"92.csv","","null","resources/maskTrios/BT1B.jpg","null","",NA,NA,NA,NA,""
"image-keyboard-response",229,220640,"0.0-3.72-2.72","ymtw10krcdgrg7j",75,"92.csv","","null","resources/images/coin2.png","null","",NA,NA,NA,NA,""
"image-keyboard-response",230,221129,"0.0-3.73-0.73","ymtw10krcdgrg7j",75,"92.csv","","487.59999990463257","resources/trios/L2T2A2.jpg","37","restless",0.6,0.7,0.4,0.399596154943761,"true"
"image-keyboard-response",231,221535,"0.0-3.73-1.73","ymtw10krcdgrg7j",75,"92.csv","","null","resources/maskTrios/L2BB.jpg","null","",NA,NA,NA,NA,""
"image-keyboard-response",232,222741,"0.0-3.73-2.73","ymtw10krcdgrg7j",75,"92.csv","","null","resources/images/coin2.png","null","",NA,NA,NA,NA,""
"image-keyboard-response",233,223265,"0.0-3.74-0.74","ymtw10krcdgrg7j",75,"92.csv","","522.9000000953674","resources/trios/L2T1A3.jpg","37","restless",0.6,0.7,0.4,0.509462861209667,"true"
"image-keyboard-response",234,223670,"0.0-3.74-1.74","ymtw10krcdgrg7j",75,"92.csv","","null","resources/maskTrios/L2BB.jpg","null","",NA,NA,NA,NA,""
"image-keyboard-response",235,224877,"0.0-3.74-2.74","ymtw10krcdgrg7j",75,"92.csv","","null","resources/images/coin2.png","null","",NA,NA,NA,NA,""
"image-keyboard-response",236,225188,"0.0-3.75-0.75","ymtw10krcdgrg7j",75,"92.csv","","309.7999999523163","resources/trios/L2T2A2.jpg","37","restless",0.6,0.7,0.4,0.0151112353011009,"true"
"image-keyboard-response",237,225596,"0.0-3.75-1.75","ymtw10krcdgrg7j",75,"92.csv","","null","resources/maskTrios/L2BB.jpg","null","",NA,NA,NA,NA,""
"image-keyboard-response",238,226797,"0.0-3.75-2.75","ymtw10krcdgrg7j",75,"92.csv","","null","resources/images/coin2.png","null","",NA,NA,NA,NA,""
"image-keyboard-response",239,227069,"0.0-3.76-0.76","ymtw10krcdgrg7j",75,"92.csv","","269.69999980926514","resources/trios/L2T2A3.jpg","37","restless",0.6,0.7,0.4,0.0266702780421093,"true"
"image-keyboard-response",240,227475,"0.0-3.76-1.76","ymtw10krcdgrg7j",75,"92.csv","","null","resources/maskTrios/L2BB.jpg","null","",NA,NA,NA,NA,""
"image-keyboard-response",241,228680,"0.0-3.76-2.76","ymtw10krcdgrg7j",75,"92.csv","","null","resources/images/coin2.png","null","",NA,NA,NA,NA,""
"image-keyboard-response",242,229047,"0.0-3.77-0.77","ymtw10krcdgrg7j",75,"92.csv","","364.7999999523163","resources/trios/L2T1A2.jpg","37","restless",0.6,0.7,0.4,0.350058160181995,"true"
"image-keyboard-response",243,229454,"0.0-3.77-1.77","ymtw10krcdgrg7j",75,"92.csv","","null","resources/maskTrios/L2BB.jpg","null","",NA,NA,NA,NA,""
"image-keyboard-response",244,230661,"0.0-3.77-2.77","ymtw10krcdgrg7j",75,"92.csv","","null","resources/images/coin2.png","null","",NA,NA,NA,NA,""
"image-keyboard-response",245,230992,"0.0-3.78-0.78","ymtw10krcdgrg7j",75,"92.csv","","329.89999985694885","resources/trios/L2T1A2.jpg","38","restless",0.5,0.7,0.4,0.225193811421931,"true"
"image-keyboard-response",246,231395,"0.0-3.78-1.78","ymtw10krcdgrg7j",75,"92.csv","","null","resources/maskTrios/BT1B.jpg","null","",NA,NA,NA,NA,""
"image-keyboard-response",247,232602,"0.0-3.78-2.78","ymtw10krcdgrg7j",75,"92.csv","","null","resources/images/coin2.png","null","",NA,NA,NA,NA,""
"image-keyboard-response",248,232944,"0.0-3.79-0.79","ymtw10krcdgrg7j",75,"92.csv","","341","resources/trios/L2T2A2.jpg","38","restless",0.5,0.8,0.4,0.756111419894356,"true"
"image-keyboard-response",249,233350,"0.0-3.79-1.79","ymtw10krcdgrg7j",75,"92.csv","","null","resources/maskTrios/BT2B.jpg","null","",NA,NA,NA,NA,""
"image-keyboard-response",250,234557,"0.0-3.79-2.79","ymtw10krcdgrg7j",75,"92.csv","","null","resources/images/coin2.png","null","",NA,NA,NA,NA,""
"image-keyboard-response",251,234890,"0.0-3.80-0.80","ymtw10krcdgrg7j",75,"92.csv","","331.2000000476837","resources/trios/L2T1A3.jpg","39","restless",0.5,0.8,0.4,0.996263132302924,"false"
"image-keyboard-response",252,235293,"0.0-3.80-1.80","ymtw10krcdgrg7j",75,"92.csv","","null","resources/maskTrios/BBA3.jpg","null","",NA,NA,NA,NA,""
"image-keyboard-response",253,236499,"0.0-3.80-2.80","ymtw10krcdgrg7j",75,"92.csv","","null","resources/images/fishbone.png","null","",NA,NA,NA,NA,""
"image-keyboard-response",254,236753,"0.0-3.81-0.81","ymtw10krcdgrg7j",75,"92.csv","","252.09999990463257","resources/trios/L4T2A3.jpg","38","restless",0.5,0.8,0.4,0.92323875557394,"false"
"image-keyboard-response",255,237157,"0.0-3.81-1.81","ymtw10krcdgrg7j",75,"92.csv","","null","resources/maskTrios/BT2B.jpg","null","",NA,NA,NA,NA,""
"image-keyboard-response",256,238363,"0.0-3.81-2.81","ymtw10krcdgrg7j",75,"92.csv","","null","resources/images/fishbone.png","null","",NA,NA,NA,NA,""
"image-keyboard-response",257,238508,"0.0-3.82-0.82","ymtw10krcdgrg7j",75,"92.csv","","142.60000014305115","resources/trios/L4T2A3.jpg","39","restless",0.5,0.8,0.4,0.802822843830084,"false"
"image-keyboard-response",258,238915,"0.0-3.82-1.82","ymtw10krcdgrg7j",75,"92.csv","","null","resources/maskTrios/BBA3.jpg","null","",NA,NA,NA,NA,""
"image-keyboard-response",259,240121,"0.0-3.82-2.82","ymtw10krcdgrg7j",75,"92.csv","","null","resources/images/fishbone.png","null","",NA,NA,NA,NA,""
"image-keyboard-response",260,240433,"0.0-3.83-0.83","ymtw10krcdgrg7j",75,"92.csv","","309.39999985694885","resources/trios/L2T1A2.jpg","37","restless",0.5,0.8,0.4,0.480942170441809,"true"
"image-keyboard-response",261,240839,"0.0-3.83-1.83","ymtw10krcdgrg7j",75,"92.csv","","null","resources/maskTrios/L2BB.jpg","null","",NA,NA,NA,NA,""
"image-keyboard-response",262,242044,"0.0-3.83-2.83","ymtw10krcdgrg7j",75,"92.csv","","null","resources/images/coin2.png","null","",NA,NA,NA,NA,""
"image-keyboard-response",263,242341,"0.0-3.84-0.84","ymtw10krcdgrg7j",75,"92.csv","","294.90000009536743","resources/trios/L2T1A3.jpg","37","restless",0.5,0.9,0.4,0.953812528089846,"false"
"image-keyboard-response",264,242747,"0.0-3.84-1.84","ymtw10krcdgrg7j",75,"92.csv","","null","resources/maskTrios/L2BB.jpg","null","",NA,NA,NA,NA,""
"image-keyboard-response",265,243953,"0.0-3.84-2.84","ymtw10krcdgrg7j",75,"92.csv","","null","resources/images/fishbone.png","null","",NA,NA,NA,NA,""
"image-keyboard-response",266,244081,"0.0-3.85-0.85","ymtw10krcdgrg7j",75,"92.csv","","126.09999990463257","resources/trios/L4T1A2.jpg","39","restless",0.5,0.9,0.4,0.744026681237108,"false"
"image-keyboard-response",267,244487,"0.0-3.85-1.85","ymtw10krcdgrg7j",75,"92.csv","","null","resources/maskTrios/BBA2.jpg","null","",NA,NA,NA,NA,""
"image-keyboard-response",268,245690,"0.0-3.85-2.85","ymtw10krcdgrg7j",75,"92.csv","","null","resources/images/fishbone.png","null","",NA,NA,NA,NA,""
"image-keyboard-response",269,246010,"0.0-3.86-0.86","ymtw10krcdgrg7j",75,"92.csv","","318.60000014305115","resources/trios/L2T2A3.jpg","38","restless",0.5,0.8,0.4,0.48840883745772,"true"
"image-keyboard-response",270,246417,"0.0-3.86-1.86","ymtw10krcdgrg7j",75,"92.csv","","null","resources/maskTrios/BT2B.jpg","null","",NA,NA,NA,NA,""
"image-keyboard-response",271,247624,"0.0-3.86-2.86","ymtw10krcdgrg7j",75,"92.csv","","null","resources/images/coin2.png","null","",NA,NA,NA,NA,""
"image-keyboard-response",272,248453,"0.0-3.87-0.87","ymtw10krcdgrg7j",75,"92.csv","","828.1000001430511","resources/trios/L2T1A2.jpg","38","restless",0.5,0.8,0.4,0.873424806907071,"false"
"image-keyboard-response",273,248857,"0.0-3.87-1.87","ymtw10krcdgrg7j",75,"92.csv","","null","resources/maskTrios/BT1B.jpg","null","",NA,NA,NA,NA,""
"image-keyboard-response",274,250059,"0.0-3.87-2.87","ymtw10krcdgrg7j",75,"92.csv","","null","resources/images/fishbone.png","null","",NA,NA,NA,NA,""
"image-keyboard-response",275,250446,"0.0-3.88-0.88","ymtw10krcdgrg7j",75,"92.csv","","384.7000000476837","resources/trios/L4T2A2.jpg","37","restless",0.5,0.8,0.4,0.484660811782729,"true"
"image-keyboard-response",276,250853,"0.0-3.88-1.88","ymtw10krcdgrg7j",75,"92.csv","","null","resources/maskTrios/L4BB.jpg","null","",NA,NA,NA,NA,""
"image-keyboard-response",277,252058,"0.0-3.88-2.88","ymtw10krcdgrg7j",75,"92.csv","","null","resources/images/coin2.png","null","",NA,NA,NA,NA,""
"image-keyboard-response",278,252646,"0.0-3.89-0.89","ymtw10krcdgrg7j",75,"92.csv","","585.7000000476837","resources/trios/L2T2A3.jpg","39","restless",0.4,0.8,0.4,0.544026311105272,"false"
"image-keyboard-response",279,253052,"0.0-3.89-1.89","ymtw10krcdgrg7j",75,"92.csv","","null","resources/maskTrios/BBA3.jpg","null","",NA,NA,NA,NA,""
"image-keyboard-response",280,254259,"0.0-3.89-2.89","ymtw10krcdgrg7j",75,"92.csv","","null","resources/images/fishbone.png","null","",NA,NA,NA,NA,""
"image-keyboard-response",281,254784,"0.0-3.90-0.90","ymtw10krcdgrg7j",75,"92.csv","","522.8000001907349","resources/trios/L2T2A2.jpg","37","restless",0.4,0.8,0.4,0.27725200445949,"true"
"image-keyboard-response",282,255187,"0.0-3.90-1.90","ymtw10krcdgrg7j",75,"92.csv","","null","resources/maskTrios/L2BB.jpg","null","",NA,NA,NA,NA,""
"image-keyboard-response",283,256395,"0.0-3.90-2.90","ymtw10krcdgrg7j",75,"92.csv","","null","resources/images/coin2.png","null","",NA,NA,NA,NA,""
"image-keyboard-response",284,256849,"0.0-3.91-0.91","ymtw10krcdgrg7j",75,"92.csv","","452.7000000476837","resources/trios/L4T2A3.jpg","37","restless",0.5,0.8,0.4,0.0329263594750626,"true"
"image-keyboard-response",285,257256,"0.0-3.91-1.91","ymtw10krcdgrg7j",75,"92.csv","","null","resources/maskTrios/L4BB.jpg","null","",NA,NA,NA,NA,""
"image-keyboard-response",286,258459,"0.0-3.91-2.91","ymtw10krcdgrg7j",75,"92.csv","","null","resources/images/coin2.png","null","",NA,NA,NA,NA,""
"image-keyboard-response",287,258893,"0.0-3.92-0.92","ymtw10krcdgrg7j",75,"92.csv","","431.7000000476837","resources/trios/L2T2A2.jpg","38","restless",0.5,0.8,0.5,0.936098012131753,"false"
"image-keyboard-response",288,259300,"0.0-3.92-1.92","ymtw10krcdgrg7j",75,"92.csv","","null","resources/maskTrios/BT2B.jpg","null","",NA,NA,NA,NA,""
"image-keyboard-response",289,260506,"0.0-3.92-2.92","ymtw10krcdgrg7j",75,"92.csv","","null","resources/images/fishbone.png","null","",NA,NA,NA,NA,""
"image-keyboard-response",290,260973,"0.0-3.93-0.93","ymtw10krcdgrg7j",75,"92.csv","","464.39999985694885","resources/trios/L2T1A2.jpg","37","restless",0.5,0.8,0.5,0.63543863655533,"false"
"image-keyboard-response",291,261375,"0.0-3.93-1.93","ymtw10krcdgrg7j",75,"92.csv","","null","resources/maskTrios/L2BB.jpg","null","",NA,NA,NA,NA,""
"image-keyboard-response",292,262581,"0.0-3.93-2.93","ymtw10krcdgrg7j",75,"92.csv","","null","resources/images/fishbone.png","null","",NA,NA,NA,NA,""
"image-keyboard-response",293,263628,"0.0-3.94-0.94","ymtw10krcdgrg7j",75,"92.csv","","1045.1000001430511","resources/trios/L4T1A3.jpg","38","restless",0.5,0.8,0.5,0.00150727896120473,"true"
"image-keyboard-response",294,264035,"0.0-3.94-1.94","ymtw10krcdgrg7j",75,"92.csv","","null","resources/maskTrios/BT1B.jpg","null","",NA,NA,NA,NA,""
"image-keyboard-response",295,265242,"0.0-3.94-2.94","ymtw10krcdgrg7j",75,"92.csv","","null","resources/images/coin2.png","null","",NA,NA,NA,NA,""
"image-keyboard-response",296,265637,"0.0-3.95-0.95","ymtw10krcdgrg7j",75,"92.csv","","392.90000009536743","resources/trios/L2T2A3.jpg","38","restless",0.5,0.8,0.5,0.787824541344208,"true"
"image-keyboard-response",297,266044,"0.0-3.95-1.95","ymtw10krcdgrg7j",75,"92.csv","","null","resources/maskTrios/BT2B.jpg","null","",NA,NA,NA,NA,""
"image-keyboard-response",298,267251,"0.0-3.95-2.95","ymtw10krcdgrg7j",75,"92.csv","","null","resources/images/coin2.png","null","",NA,NA,NA,NA,""
"image-keyboard-response",299,267710,"0.0-3.96-0.96","ymtw10krcdgrg7j",75,"92.csv","","457.2999999523163","resources/trios/L4T1A2.jpg","38","restless",0.5,0.8,0.5,0.802102863126151,"false"
"image-keyboard-response",300,268117,"0.0-3.96-1.96","ymtw10krcdgrg7j",75,"92.csv","","null","resources/maskTrios/BT1B.jpg","null","",NA,NA,NA,NA,""
"image-keyboard-response",301,269320,"0.0-3.96-2.96","ymtw10krcdgrg7j",75,"92.csv","","null","resources/images/fishbone.png","null","",NA,NA,NA,NA,""
"image-keyboard-response",302,269971,"0.0-3.97-0.97","ymtw10krcdgrg7j",75,"92.csv","","648.9000000953674","resources/trios/L4T2A2.jpg","39","restless",0.4,0.8,0.5,0.0631378853417182,"true"
"image-keyboard-response",303,270376,"0.0-3.97-1.97","ymtw10krcdgrg7j",75,"92.csv","","null","resources/maskTrios/BBA2.jpg","null","",NA,NA,NA,NA,""
"image-keyboard-response",304,271583,"0.0-3.97-2.97","ymtw10krcdgrg7j",75,"92.csv","","null","resources/images/coin2.png","null","",NA,NA,NA,NA,""
"image-keyboard-response",305,272072,"0.0-3.98-0.98","ymtw10krcdgrg7j",75,"92.csv","","487.09999990463257","resources/trios/L2T1A3.jpg","39","restless",0.4,0.8,0.5,0.441347435528523,"true"
"image-keyboard-response",306,272479,"0.0-3.98-1.98","ymtw10krcdgrg7j",75,"92.csv","","null","resources/maskTrios/BBA3.jpg","null","",NA,NA,NA,NA,""
"image-keyboard-response",307,273685,"0.0-3.98-2.98","ymtw10krcdgrg7j",75,"92.csv","","null","resources/images/coin2.png","null","",NA,NA,NA,NA,""
"image-keyboard-response",308,274162,"0.0-3.99-0.99","ymtw10krcdgrg7j",75,"92.csv","","474.59999990463257","resources/trios/L2T2A2.jpg","39","restless",0.4,0.8,0.5,0.371931853631758,"true"
"image-keyboard-response",309,274569,"0.0-3.99-1.99","ymtw10krcdgrg7j",75,"92.csv","","null","resources/maskTrios/BBA2.jpg","null","",NA,NA,NA,NA,""
"image-keyboard-response",310,275776,"0.0-3.99-2.99","ymtw10krcdgrg7j",75,"92.csv","","null","resources/images/coin2.png","null","",NA,NA,NA,NA,""
"image-keyboard-response",311,276173,"0.0-3.100-0.100","ymtw10krcdgrg7j",75,"92.csv","","395.7999999523163","resources/trios/L4T1A2.jpg","37","restless",0.4,0.8,0.5,0.605352956204892,"false"
"image-keyboard-response",312,276580,"0.0-3.100-1.100","ymtw10krcdgrg7j",75,"92.csv","","null","resources/maskTrios/L4BB.jpg","null","",NA,NA,NA,NA,""
"image-keyboard-response",313,277784,"0.0-3.100-2.100","ymtw10krcdgrg7j",75,"92.csv","","null","resources/images/fishbone.png","null","",NA,NA,NA,NA,""
"image-keyboard-response",314,278204,"0.0-3.101-0.101","ymtw10krcdgrg7j",75,"92.csv","","418.7000000476837","resources/trios/L4T2A2.jpg","38","restless",0.4,0.8,0.5,0.969824115889988,"false"
"image-keyboard-response",315,278611,"0.0-3.101-1.101","ymtw10krcdgrg7j",75,"92.csv","","null","resources/maskTrios/BT2B.jpg","null","",NA,NA,NA,NA,""
"image-keyboard-response",316,279815,"0.0-3.101-2.101","ymtw10krcdgrg7j",75,"92.csv","","null","resources/images/fishbone.png","null","",NA,NA,NA,NA,""
"image-keyboard-response",317,280224,"0.0-3.102-0.102","ymtw10krcdgrg7j",75,"92.csv","","407.09999990463257","resources/trios/L4T1A2.jpg","39","restless",0.4,0.8,0.5,0.0766514014047794,"true"
"image-keyboard-response",318,280630,"0.0-3.102-1.102","ymtw10krcdgrg7j",75,"92.csv","","null","resources/maskTrios/BBA2.jpg","null","",NA,NA,NA,NA,""
"image-keyboard-response",319,281835,"0.0-3.102-2.102","ymtw10krcdgrg7j",75,"92.csv","","null","resources/images/coin2.png","null","",NA,NA,NA,NA,""
"image-keyboard-response",320,282385,"0.0-3.103-0.103","ymtw10krcdgrg7j",75,"92.csv","","547.9000000953674","resources/trios/L2T1A2.jpg","37","restless",0.4,0.8,0.5,0.628538051524055,"false"
"image-keyboard-response",321,282791,"0.0-3.103-1.103","ymtw10krcdgrg7j",75,"92.csv","","null","resources/maskTrios/L2BB.jpg","null","",NA,NA,NA,NA,""
"image-keyboard-response",322,283997,"0.0-3.103-2.103","ymtw10krcdgrg7j",75,"92.csv","","null","resources/images/fishbone.png","null","",NA,NA,NA,NA,""
"image-keyboard-response",323,284456,"0.0-3.104-0.104","ymtw10krcdgrg7j",75,"92.csv","","456.89999985694885","resources/trios/L2T1A3.jpg","38","restless",0.4,0.8,0.5,0.561625953008364,"true"
"image-keyboard-response",324,284863,"0.0-3.104-1.104","ymtw10krcdgrg7j",75,"92.csv","","null","resources/maskTrios/BT1B.jpg","null","",NA,NA,NA,NA,""
"image-keyboard-response",325,286070,"0.0-3.104-2.104","ymtw10krcdgrg7j",75,"92.csv","","null","resources/images/coin2.png","null","",NA,NA,NA,NA,""
"image-keyboard-response",326,286633,"0.0-3.105-0.105","ymtw10krcdgrg7j",75,"92.csv","","561.5","resources/trios/L4T2A2.jpg","39","restless",0.4,0.8,0.5,0.17665965290595,"true"
"image-keyboard-response",327,287040,"0.0-3.105-1.105","ymtw10krcdgrg7j",75,"92.csv","","null","resources/maskTrios/BBA2.jpg","null","",NA,NA,NA,NA,""
"image-keyboard-response",328,288242,"0.0-3.105-2.105","ymtw10krcdgrg7j",75,"92.csv","","null","resources/images/coin2.png","null","",NA,NA,NA,NA,""
"image-keyboard-response",329,288558,"0.0-3.106-0.106","ymtw10krcdgrg7j",75,"92.csv","","313.7999999523163","resources/trios/L2T1A2.jpg","38","restless",0.4,0.8,0.5,0.442645757844405,"true"
"image-keyboard-response",330,288960,"0.0-3.106-1.106","ymtw10krcdgrg7j",75,"92.csv","","null","resources/maskTrios/BT1B.jpg","null","",NA,NA,NA,NA,""
"image-keyboard-response",331,290167,"0.0-3.106-2.106","ymtw10krcdgrg7j",75,"92.csv","","null","resources/images/coin2.png","null","",NA,NA,NA,NA,""
"image-keyboard-response",332,290883,"0.0-3.107-0.107","ymtw10krcdgrg7j",75,"92.csv","","714.1999998092651","resources/trios/L2T2A3.jpg","37","restless",0.4,0.8,0.6,0.827183501885065,"false"
"image-keyboard-response",333,291290,"0.0-3.107-1.107","ymtw10krcdgrg7j",75,"92.csv","","null","resources/maskTrios/L2BB.jpg","null","",NA,NA,NA,NA,""
"image-keyboard-response",334,292497,"0.0-3.107-2.107","ymtw10krcdgrg7j",75,"92.csv","","null","resources/images/fishbone.png","null","",NA,NA,NA,NA,""
"image-keyboard-response",335,292879,"0.0-3.108-0.108","ymtw10krcdgrg7j",75,"92.csv","","380.7999999523163","resources/trios/L2T1A2.jpg","39","restless",0.4,0.8,0.6,0.654869032390896,"false"
"image-keyboard-response",336,293283,"0.0-3.108-1.108","ymtw10krcdgrg7j",75,"92.csv","","null","resources/maskTrios/BBA2.jpg","null","",NA,NA,NA,NA,""
"image-keyboard-response",337,294490,"0.0-3.108-2.108","ymtw10krcdgrg7j",75,"92.csv","","null","resources/images/fishbone.png","null","",NA,NA,NA,NA,""
"image-keyboard-response",338,294788,"0.0-3.109-0.109","ymtw10krcdgrg7j",75,"92.csv","","297","resources/trios/L4T1A3.jpg","38","restless",0.4,0.8,0.6,0.209267235516943,"true"
"image-keyboard-response",339,295190,"0.0-3.109-1.109","ymtw10krcdgrg7j",75,"92.csv","","null","resources/maskTrios/BT1B.jpg","null","",NA,NA,NA,NA,""
"image-keyboard-response",340,296397,"0.0-3.109-2.109","ymtw10krcdgrg7j",75,"92.csv","","null","resources/images/coin2.png","null","",NA,NA,NA,NA,""
"image-keyboard-response",341,296740,"0.0-3.110-0.110","ymtw10krcdgrg7j",75,"92.csv","","341.2000000476837","resources/trios/L2T1A2.jpg","38","restless",0.4,0.8,0.6,0.332652629935627,"true"
"image-keyboard-response",342,297142,"0.0-3.110-1.110","ymtw10krcdgrg7j",75,"92.csv","","null","resources/maskTrios/BT1B.jpg","null","",NA,NA,NA,NA,""
"image-keyboard-response",343,298349,"0.0-3.110-2.110","ymtw10krcdgrg7j",75,"92.csv","","null","resources/images/coin2.png","null","",NA,NA,NA,NA,""
"image-keyboard-response",344,298752,"0.0-3.111-0.111","ymtw10krcdgrg7j",75,"92.csv","","401.59999990463257","resources/trios/L4T2A2.jpg","38","restless",0.4,0.8,0.6,0.258917957357245,"true"
"image-keyboard-response",345,299158,"0.0-3.111-1.111","ymtw10krcdgrg7j",75,"92.csv","","null","resources/maskTrios/BT2B.jpg","null","",NA,NA,NA,NA,""
"image-keyboard-response",346,300365,"0.0-3.111-2.111","ymtw10krcdgrg7j",75,"92.csv","","null","resources/images/coin2.png","null","",NA,NA,NA,NA,""
"image-keyboard-response",347,300815,"0.0-3.112-0.112","ymtw10krcdgrg7j",75,"92.csv","","448.5","resources/trios/L4T1A3.jpg","38","restless",0.4,0.8,0.6,0.776389696212237,"true"
"image-keyboard-response",348,301222,"0.0-3.112-1.112","ymtw10krcdgrg7j",75,"92.csv","","null","resources/maskTrios/BT1B.jpg","null","",NA,NA,NA,NA,""
"image-keyboard-response",349,302426,"0.0-3.112-2.112","ymtw10krcdgrg7j",75,"92.csv","","null","resources/images/coin2.png","null","",NA,NA,NA,NA,""
"image-keyboard-response",350,303021,"0.0-3.113-0.113","ymtw10krcdgrg7j",75,"92.csv","","592.8000001907349","resources/trios/L4T1A2.jpg","38","restless",0.4,0.8,0.6,0.63944853310697,"true"
"image-keyboard-response",351,303426,"0.0-3.113-1.113","ymtw10krcdgrg7j",75,"92.csv","","null","resources/maskTrios/BT1B.jpg","null","",NA,NA,NA,NA,""
"image-keyboard-response",352,304630,"0.0-3.113-2.113","ymtw10krcdgrg7j",75,"92.csv","","null","resources/images/coin2.png","null","",NA,NA,NA,NA,""
"image-keyboard-response",353,305491,"0.0-3.114-0.114","ymtw10krcdgrg7j",75,"92.csv","","858.7999999523163","resources/trios/L4T2A2.jpg","37","restless",0.4,0.9,0.6,0.892107901370764,"false"
"image-keyboard-response",354,305896,"0.0-3.114-1.114","ymtw10krcdgrg7j",75,"92.csv","","null","resources/maskTrios/L4BB.jpg","null","",NA,NA,NA,NA,""
"image-keyboard-response",355,307102,"0.0-3.114-2.114","ymtw10krcdgrg7j",75,"92.csv","","null","resources/images/fishbone.png","null","",NA,NA,NA,NA,""
"image-keyboard-response",356,308457,"0.0-3.115-0.115","ymtw10krcdgrg7j",75,"92.csv","","1352.7999999523163","resources/trios/L4T2A3.jpg","37","restless",0.4,0.8,0.6,0.0160752515024947,"true"
"image-keyboard-response",357,308863,"0.0-3.115-1.115","ymtw10krcdgrg7j",75,"92.csv","","null","resources/maskTrios/L4BB.jpg","null","",NA,NA,NA,NA,""
"image-keyboard-response",358,310070,"0.0-3.115-2.115","ymtw10krcdgrg7j",75,"92.csv","","null","resources/images/coin2.png","null","",NA,NA,NA,NA,""
"image-keyboard-response",359,310793,"0.0-3.116-0.116","ymtw10krcdgrg7j",75,"92.csv","","721.2999999523163","resources/trios/L4T1A2.jpg","38","restless",0.4,0.8,0.6,0.978568543707846,"false"
"image-keyboard-response",360,311199,"0.0-3.116-1.116","ymtw10krcdgrg7j",75,"92.csv","","null","resources/maskTrios/BT1B.jpg","null","",NA,NA,NA,NA,""
"image-keyboard-response",361,312406,"0.0-3.116-2.116","ymtw10krcdgrg7j",75,"92.csv","","null","resources/images/fishbone.png","null","",NA,NA,NA,NA,""
"image-keyboard-response",362,312729,"0.0-3.117-0.117","ymtw10krcdgrg7j",75,"92.csv","","321.59999990463257","resources/trios/L2T2A2.jpg","39","restless",0.4,0.8,0.6,0.471396237346881,"true"
"image-keyboard-response",363,313133,"0.0-3.117-1.117","ymtw10krcdgrg7j",75,"92.csv","","null","resources/maskTrios/BBA2.jpg","null","",NA,NA,NA,NA,""
"image-keyboard-response",364,314339,"0.0-3.117-2.117","ymtw10krcdgrg7j",75,"92.csv","","null","resources/images/coin2.png","null","",NA,NA,NA,NA,""
"image-keyboard-response",365,314797,"0.0-3.118-0.118","ymtw10krcdgrg7j",75,"92.csv","","455.39999985694885","resources/trios/L2T1A3.jpg","37","restless",0.4,0.7,0.7,0.651936186166769,"false"
"image-keyboard-response",366,315203,"0.0-3.118-1.118","ymtw10krcdgrg7j",75,"92.csv","","null","resources/maskTrios/L2BB.jpg","null","",NA,NA,NA,NA,""
"image-keyboard-response",367,316409,"0.0-3.118-2.118","ymtw10krcdgrg7j",75,"92.csv","","null","resources/images/fishbone.png","null","",NA,NA,NA,NA,""
"image-keyboard-response",368,316994,"0.0-3.119-0.119","ymtw10krcdgrg7j",75,"92.csv","","582.7000000476837","resources/trios/L4T1A3.jpg","38","restless",0.4,0.6,0.6,0.021908394692991,"true"
"image-keyboard-response",369,317400,"0.0-3.119-1.119","ymtw10krcdgrg7j",75,"92.csv","","null","resources/maskTrios/BT1B.jpg","null","",NA,NA,NA,NA,""
"image-keyboard-response",370,318606,"0.0-3.119-2.119","ymtw10krcdgrg7j",75,"92.csv","","null","resources/images/coin2.png","null","",NA,NA,NA,NA,""
"image-keyboard-response",371,319871,"0.0-3.120-0.120","ymtw10krcdgrg7j",75,"92.csv","","1262.3999998569489","resources/trios/L4T2A2.jpg","38","restless",0.4,0.6,0.6,0.735828230604358,"false"
"image-keyboard-response",372,320276,"0.0-3.120-1.120","ymtw10krcdgrg7j",75,"92.csv","","null","resources/maskTrios/BT2B.jpg","null","",NA,NA,NA,NA,""
"image-keyboard-response",373,321482,"0.0-3.120-2.120","ymtw10krcdgrg7j",75,"92.csv","","null","resources/images/fishbone.png","null","",NA,NA,NA,NA,""
"image-keyboard-response",374,321586,"0.0-3.121-0.121","ymtw10krcdgrg7j",75,"92.csv","","102.09999990463257","resources/trios/L4T2A3.jpg","38","restless",0.4,0.6,0.6,0.993091624821312,"false"
"image-keyboard-response",375,321991,"0.0-3.121-1.121","ymtw10krcdgrg7j",75,"92.csv","","null","resources/maskTrios/BT2B.jpg","null","",NA,NA,NA,NA,""
"image-keyboard-response",376,323195,"0.0-3.121-2.121","ymtw10krcdgrg7j",75,"92.csv","","null","resources/images/fishbone.png","null","",NA,NA,NA,NA,""
"image-keyboard-response",377,323660,"0.0-3.122-0.122","ymtw10krcdgrg7j",75,"92.csv","","462.7999999523163","resources/trios/L4T1A3.jpg","39","restless",0.4,0.5,0.6,0.855232283891852,"false"
"image-keyboard-response",378,324065,"0.0-3.122-1.122","ymtw10krcdgrg7j",75,"92.csv","","null","resources/maskTrios/BBA3.jpg","null","",NA,NA,NA,NA,""
"image-keyboard-response",379,325269,"0.0-3.122-2.122","ymtw10krcdgrg7j",75,"92.csv","","null","resources/images/fishbone.png","null","",NA,NA,NA,NA,""
"image-keyboard-response",380,325595,"0.0-3.123-0.123","ymtw10krcdgrg7j",75,"92.csv","","324.59999990463257","resources/trios/L2T2A2.jpg","39","restless",0.4,0.4,0.6,0.727932194056848,"false"
"image-keyboard-response",381,325999,"0.0-3.123-1.123","ymtw10krcdgrg7j",75,"92.csv","","null","resources/maskTrios/BBA2.jpg","null","",NA,NA,NA,NA,""
"image-keyboard-response",382,327205,"0.0-3.123-2.123","ymtw10krcdgrg7j",75,"92.csv","","null","resources/images/fishbone.png","null","",NA,NA,NA,NA,""
"image-keyboard-response",383,327542,"0.0-3.124-0.124","ymtw10krcdgrg7j",75,"92.csv","","334.90000009536743","resources/trios/L4T2A3.jpg","39","restless",0.5,0.4,0.6,0.137180393001688,"true"
"image-keyboard-response",384,327945,"0.0-3.124-1.124","ymtw10krcdgrg7j",75,"92.csv","","null","resources/maskTrios/BBA3.jpg","null","",NA,NA,NA,NA,""
"image-keyboard-response",385,329150,"0.0-3.124-2.124","ymtw10krcdgrg7j",75,"92.csv","","null","resources/images/coin2.png","null","",NA,NA,NA,NA,""
"image-keyboard-response",386,329603,"0.0-3.125-0.125","ymtw10krcdgrg7j",75,"92.csv","","450.7999999523163","resources/trios/L4T1A3.jpg","38","restless",0.6,0.4,0.6,0.879912914779327,"false"
"image-keyboard-response",387,330005,"0.0-3.125-1.125","ymtw10krcdgrg7j",75,"92.csv","","null","resources/maskTrios/BT1B.jpg","null","",NA,NA,NA,NA,""
"image-keyboard-response",388,331208,"0.0-3.125-2.125","ymtw10krcdgrg7j",75,"92.csv","","null","resources/images/fishbone.png","null","",NA,NA,NA,NA,""
"image-keyboard-response",389,331286,"0.0-3.126-0.126","ymtw10krcdgrg7j",75,"92.csv","","75.70000004768372","resources/trios/L2T1A3.jpg","37","restless",0.6,0.4,0.6,0.734272782105417,"false"
"image-keyboard-response",390,331692,"0.0-3.126-1.126","ymtw10krcdgrg7j",75,"92.csv","","null","resources/maskTrios/L2BB.jpg","null","",NA,NA,NA,NA,""
"image-keyboard-response",391,332898,"0.0-3.126-2.126","ymtw10krcdgrg7j",75,"92.csv","","null","resources/images/fishbone.png","null","",NA,NA,NA,NA,""
"image-keyboard-response",392,333241,"0.0-3.127-0.127","ymtw10krcdgrg7j",75,"92.csv","","341.2999999523163","resources/trios/L2T2A3.jpg","38","restless",0.6,0.4,0.6,0.315835044361441,"true"
"image-keyboard-response",393,333648,"0.0-3.127-1.127","ymtw10krcdgrg7j",75,"92.csv","","null","resources/maskTrios/BT2B.jpg","null","",NA,NA,NA,NA,""
"image-keyboard-response",394,334853,"0.0-3.127-2.127","ymtw10krcdgrg7j",75,"92.csv","","null","resources/images/coin2.png","null","",NA,NA,NA,NA,""
"image-keyboard-response",395,335140,"0.0-3.128-0.128","ymtw10krcdgrg7j",75,"92.csv","","284.7000000476837","resources/trios/L2T1A2.jpg","38","restless",0.6,0.4,0.6,0.0846886226329615,"true"
"image-keyboard-response",396,335546,"0.0-3.128-1.128","ymtw10krcdgrg7j",75,"92.csv","","null","resources/maskTrios/BT1B.jpg","null","",NA,NA,NA,NA,""
"image-keyboard-response",397,336749,"0.0-3.128-2.128","ymtw10krcdgrg7j",75,"92.csv","","null","resources/images/coin2.png","null","",NA,NA,NA,NA,""
"image-keyboard-response",398,337101,"0.0-3.129-0.129","ymtw10krcdgrg7j",75,"92.csv","","349.89999985694885","resources/trios/L4T2A2.jpg","38","restless",0.6,0.4,0.5,0.849912515288449,"false"
"image-keyboard-response",399,337506,"0.0-3.129-1.129","ymtw10krcdgrg7j",75,"92.csv","","null","resources/maskTrios/BT2B.jpg","null","",NA,NA,NA,NA,""
"image-keyboard-response",400,338710,"0.0-3.129-2.129","ymtw10krcdgrg7j",75,"92.csv","","null","resources/images/fishbone.png","null","",NA,NA,NA,NA,""
"image-keyboard-response",401,338993,"0.0-3.130-0.130","ymtw10krcdgrg7j",75,"92.csv","","281.5","resources/trios/L4T2A3.jpg","37","restless",0.6,0.4,0.5,0.265497876310442,"true"
"image-keyboard-response",402,339400,"0.0-3.130-1.130","ymtw10krcdgrg7j",75,"92.csv","","null","resources/maskTrios/L4BB.jpg","null","",NA,NA,NA,NA,""
"image-keyboard-response",403,340602,"0.0-3.130-2.130","ymtw10krcdgrg7j",75,"92.csv","","null","resources/images/coin2.png","null","",NA,NA,NA,NA,""
"image-keyboard-response",404,341061,"0.0-3.131-0.131","ymtw10krcdgrg7j",75,"92.csv","","456.7000000476837","resources/trios/L2T2A2.jpg","37","restless",0.6,0.4,0.5,0.477574179252745,"true"
"image-keyboard-response",405,341466,"0.0-3.131-1.131","ymtw10krcdgrg7j",75,"92.csv","","null","resources/maskTrios/L2BB.jpg","null","",NA,NA,NA,NA,""
"image-keyboard-response",406,342670,"0.0-3.131-2.131","ymtw10krcdgrg7j",75,"92.csv","","null","resources/images/coin2.png","null","",NA,NA,NA,NA,""
"image-keyboard-response",407,344506,"0.0-3.132-0.132","ymtw10krcdgrg7j",75,"92.csv","","1833.5","resources/trios/L2T1A3.jpg","38","restless",0.6,0.4,0.5,0.287014002597365,"true"
"image-keyboard-response",408,344907,"0.0-3.132-1.132","ymtw10krcdgrg7j",75,"92.csv","","null","resources/maskTrios/BT1B.jpg","null","",NA,NA,NA,NA,""
"image-keyboard-response",409,346111,"0.0-3.132-2.132","ymtw10krcdgrg7j",75,"92.csv","","null","resources/images/coin2.png","null","",NA,NA,NA,NA,""
"image-keyboard-response",410,348756,"0.0-3.133-0.133","ymtw10krcdgrg7j",75,"92.csv","","2643.300000190735","resources/trios/L2T1A3.jpg","39","restless",0.6,0.4,0.5,0.93218248092948,"false"
"image-keyboard-response",411,349163,"0.0-3.133-1.133","ymtw10krcdgrg7j",75,"92.csv","","null","resources/maskTrios/BBA3.jpg","null","",NA,NA,NA,NA,""
"image-keyboard-response",412,350367,"0.0-3.133-2.133","ymtw10krcdgrg7j",75,"92.csv","","null","resources/images/fishbone.png","null","",NA,NA,NA,NA,""
"image-keyboard-response",413,352627,"0.0-3.134-0.134","ymtw10krcdgrg7j",75,"92.csv","","2258.9000000953674","resources/trios/L4T1A3.jpg","39","restless",0.6,0.4,0.5,0.0347282464133343,"true"
"image-keyboard-response",414,353035,"0.0-3.134-1.134","ymtw10krcdgrg7j",75,"92.csv","","null","resources/maskTrios/BBA3.jpg","null","",NA,NA,NA,NA,""
"image-keyboard-response",415,354241,"0.0-3.134-2.134","ymtw10krcdgrg7j",75,"92.csv","","null","resources/images/coin2.png","null","",NA,NA,NA,NA,""
"image-keyboard-response",416,355446,"0.0-3.135-0.135","ymtw10krcdgrg7j",75,"92.csv","","1202.6000001430511","resources/trios/L2T2A3.jpg","39","restless",0.6,0.4,0.5,0.205722175905121,"true"
"image-keyboard-response",417,355851,"0.0-3.135-1.135","ymtw10krcdgrg7j",75,"92.csv","","null","resources/maskTrios/BBA3.jpg","null","",NA,NA,NA,NA,""
"image-keyboard-response",418,357058,"0.0-3.135-2.135","ymtw10krcdgrg7j",75,"92.csv","","null","resources/images/coin2.png","null","",NA,NA,NA,NA,""
"image-keyboard-response",419,360854,"0.0-3.136-0.136","ymtw10krcdgrg7j",75,"92.csv","","3794.0999999046326","resources/trios/L4T1A3.jpg","38","restless",0.6,0.4,0.5,0.86717399451872,"false"
"image-keyboard-response",420,361261,"0.0-3.136-1.136","ymtw10krcdgrg7j",75,"92.csv","","null","resources/maskTrios/BT1B.jpg","null","",NA,NA,NA,NA,""
"image-keyboard-response",421,362464,"0.0-3.136-2.136","ymtw10krcdgrg7j",75,"92.csv","","null","resources/images/fishbone.png","null","",NA,NA,NA,NA,""
"image-keyboard-response",422,362803,"0.0-3.137-0.137","ymtw10krcdgrg7j",75,"92.csv","","337.40000009536743","resources/trios/L4T2A3.jpg","37","restless",0.6,0.4,0.5,0.53950074918181,"true"
"image-keyboard-response",423,363210,"0.0-3.137-1.137","ymtw10krcdgrg7j",75,"92.csv","","null","resources/maskTrios/L4BB.jpg","null","",NA,NA,NA,NA,""
"image-keyboard-response",424,364417,"0.0-3.137-2.137","ymtw10krcdgrg7j",75,"92.csv","","null","resources/images/coin2.png","null","",NA,NA,NA,NA,""
"image-keyboard-response",425,364680,"0.0-3.138-0.138","ymtw10krcdgrg7j",75,"92.csv","","261.09999990463257","resources/trios/L2T1A2.jpg","39","restless",0.6,0.4,0.5,0.084170629208661,"true"
"image-keyboard-response",426,365086,"0.0-3.138-1.138","ymtw10krcdgrg7j",75,"92.csv","","null","resources/maskTrios/BBA2.jpg","null","",NA,NA,NA,NA,""
"image-keyboard-response",427,366288,"0.0-3.138-2.138","ymtw10krcdgrg7j",75,"92.csv","","null","resources/images/coin2.png","null","",NA,NA,NA,NA,""
"image-keyboard-response",428,367362,"0.0-3.139-0.139","ymtw10krcdgrg7j",75,"92.csv","","1071.7999999523163","resources/trios/L2T1A3.jpg","38","restless",0.6,0.5,0.5,0.950348047041034,"false"
"image-keyboard-response",429,367768,"0.0-3.139-1.139","ymtw10krcdgrg7j",75,"92.csv","","null","resources/maskTrios/BT1B.jpg","null","",NA,NA,NA,NA,""
"image-keyboard-response",430,368972,"0.0-3.139-2.139","ymtw10krcdgrg7j",75,"92.csv","","null","resources/images/fishbone.png","null","",NA,NA,NA,NA,""
"image-keyboard-response",431,370815,"0.0-3.140-0.140","ymtw10krcdgrg7j",75,"92.csv","","1840.5","resources/trios/L2T1A3.jpg","37","restless",0.6,0.5,0.5,0.73331578062788,"false"
"image-keyboard-response",432,371220,"0.0-3.140-1.140","ymtw10krcdgrg7j",75,"92.csv","","null","resources/maskTrios/L2BB.jpg","null","",NA,NA,NA,NA,""
"image-keyboard-response",433,372422,"0.0-3.140-2.140","ymtw10krcdgrg7j",75,"92.csv","","null","resources/images/fishbone.png","null","",NA,NA,NA,NA,""
"image-keyboard-response",434,373168,"0.0-3.141-0.141","ymtw10krcdgrg7j",75,"92.csv","","742.3999998569489","resources/trios/L2T1A2.jpg","39","restless",0.6,0.5,0.5,0.426182894855473,"true"
"image-keyboard-response",435,373575,"0.0-3.141-1.141","ymtw10krcdgrg7j",75,"92.csv","","null","resources/maskTrios/BBA2.jpg","null","",NA,NA,NA,NA,""
"image-keyboard-response",436,374782,"0.0-3.141-2.141","ymtw10krcdgrg7j",75,"92.csv","","null","resources/images/coin2.png","null","",NA,NA,NA,NA,""
"image-keyboard-response",437,375541,"0.0-3.142-0.142","ymtw10krcdgrg7j",75,"92.csv","","757.6000001430511","resources/trios/L4T2A2.jpg","38","restless",0.6,0.5,0.5,0.208169981878465,"true"
"image-keyboard-response",438,375948,"0.0-3.142-1.142","ymtw10krcdgrg7j",75,"92.csv","","null","resources/maskTrios/BT2B.jpg","null","",NA,NA,NA,NA,""
"image-keyboard-response",439,377152,"0.0-3.142-2.142","ymtw10krcdgrg7j",75,"92.csv","","null","resources/images/coin2.png","null","",NA,NA,NA,NA,""
"image-keyboard-response",440,378003,"0.0-3.143-0.143","ymtw10krcdgrg7j",75,"92.csv","","849.6000001430511","resources/trios/L4T1A3.jpg","37","restless",0.6,0.5,0.5,0.251387017944546,"true"
"image-keyboard-response",441,378408,"0.0-3.143-1.143","ymtw10krcdgrg7j",75,"92.csv","","null","resources/maskTrios/L4BB.jpg","null","",NA,NA,NA,NA,""
"image-keyboard-response",442,379615,"0.0-3.143-2.143","ymtw10krcdgrg7j",75,"92.csv","","null","resources/images/coin2.png","null","",NA,NA,NA,NA,""
"image-keyboard-response",443,381309,"0.0-3.144-0.144","ymtw10krcdgrg7j",75,"92.csv","","1692.1000001430511","resources/trios/L2T2A3.jpg","38","restless",0.6,0.5,0.5,0.705914543605703,"false"
"image-keyboard-response",444,381715,"0.0-3.144-1.144","ymtw10krcdgrg7j",75,"92.csv","","null","resources/maskTrios/BT2B.jpg","null","",NA,NA,NA,NA,""
"image-keyboard-response",445,382918,"0.0-3.144-2.144","ymtw10krcdgrg7j",75,"92.csv","","null","resources/images/fishbone.png","null","",NA,NA,NA,NA,""
"image-keyboard-response",446,383385,"0.0-3.145-0.145","ymtw10krcdgrg7j",75,"92.csv","","465.19999980926514","resources/trios/L2T2A3.jpg","39","restless",0.6,0.4,0.5,0.0787303598000606,"true"
"image-keyboard-response",447,383791,"0.0-3.145-1.145","ymtw10krcdgrg7j",75,"92.csv","","null","resources/maskTrios/BBA3.jpg","null","",NA,NA,NA,NA,""
"image-keyboard-response",448,384995,"0.0-3.145-2.145","ymtw10krcdgrg7j",75,"92.csv","","null","resources/images/coin2.png","null","",NA,NA,NA,NA,""
"image-keyboard-response",449,385318,"0.0-3.146-0.146","ymtw10krcdgrg7j",75,"92.csv","","321.60000014305115","resources/trios/L2T1A2.jpg","39","restless",0.6,0.4,0.5,0.142561415094227,"true"
"image-keyboard-response",450,385724,"0.0-3.146-1.146","ymtw10krcdgrg7j",75,"92.csv","","null","resources/maskTrios/BBA2.jpg","null","",NA,NA,NA,NA,""
"image-keyboard-response",451,386928,"0.0-3.146-2.146","ymtw10krcdgrg7j",75,"92.csv","","null","resources/images/coin2.png","null","",NA,NA,NA,NA,""
"image-keyboard-response",452,387529,"0.0-3.147-0.147","ymtw10krcdgrg7j",75,"92.csv","","598.8999998569489","resources/trios/L4T2A2.jpg","39","restless",0.6,0.4,0.5,0.345466534401326,"true"
"image-keyboard-response",453,387932,"0.0-3.147-1.147","ymtw10krcdgrg7j",75,"92.csv","","null","resources/maskTrios/BBA2.jpg","null","",NA,NA,NA,NA,""
"image-keyboard-response",454,389138,"0.0-3.147-2.147","ymtw10krcdgrg7j",75,"92.csv","","null","resources/images/coin2.png","null","",NA,NA,NA,NA,""
"image-keyboard-response",455,389722,"0.0-3.148-0.148","ymtw10krcdgrg7j",75,"92.csv","","582.2999999523163","resources/trios/L4T2A3.jpg","39","restless",0.6,0.4,0.5,0.913323667443169,"false"
"image-keyboard-response",456,390128,"0.0-3.148-1.148","ymtw10krcdgrg7j",75,"92.csv","","null","resources/maskTrios/BBA3.jpg","null","",NA,NA,NA,NA,""
"image-keyboard-response",457,391335,"0.0-3.148-2.148","ymtw10krcdgrg7j",75,"92.csv","","null","resources/images/fishbone.png","null","",NA,NA,NA,NA,""
"image-keyboard-response",458,391726,"0.0-3.149-0.149","ymtw10krcdgrg7j",75,"92.csv","","389.10000014305115","resources/trios/L4T2A3.jpg","37","restless",0.6,0.4,0.6,0.66820112382902,"false"
"image-keyboard-response",459,392133,"0.0-3.149-1.149","ymtw10krcdgrg7j",75,"92.csv","","null","resources/maskTrios/L4BB.jpg","null","",NA,NA,NA,NA,""
"image-keyboard-response",460,393339,"0.0-3.149-2.149","ymtw10krcdgrg7j",75,"92.csv","","null","resources/images/fishbone.png","null","",NA,NA,NA,NA,""
"image-keyboard-response",461,394040,"0.0-3.150-0.150","ymtw10krcdgrg7j",75,"92.csv","","699.2000000476837","resources/trios/L2T2A2.jpg","37","restless",0.5,0.4,0.6,0.829523657529607,"false"
"image-keyboard-response",462,394442,"0.0-3.150-1.150","ymtw10krcdgrg7j",75,"92.csv","","null","resources/maskTrios/L2BB.jpg","null","",NA,NA,NA,NA,""
"image-keyboard-response",463,395648,"0.0-3.150-2.150","ymtw10krcdgrg7j",75,"92.csv","","null","resources/images/fishbone.png","null","",NA,NA,NA,NA,""
"image-keyboard-response",464,396011,"0.0-3.151-0.151","ymtw10krcdgrg7j",75,"92.csv","","361.39999985694885","resources/trios/L2T2A3.jpg","38","restless",0.5,0.4,0.6,0.374126083985745,"true"
"image-keyboard-response",465,396418,"0.0-3.151-1.151","ymtw10krcdgrg7j",75,"92.csv","","null","resources/maskTrios/BT2B.jpg","null","",NA,NA,NA,NA,""
"image-keyboard-response",466,397623,"0.0-3.151-2.151","ymtw10krcdgrg7j",75,"92.csv","","null","resources/images/coin2.png","null","",NA,NA,NA,NA,""
"image-keyboard-response",467,398086,"0.0-3.152-0.152","ymtw10krcdgrg7j",75,"92.csv","","461.09999990463257","resources/trios/L2T2A2.jpg","38","restless",0.5,0.4,0.6,0.235070444024132,"true"
"image-keyboard-response",468,398491,"0.0-3.152-1.152","ymtw10krcdgrg7j",75,"92.csv","","null","resources/maskTrios/BT2B.jpg","null","",NA,NA,NA,NA,""
"image-keyboard-response",469,399698,"0.0-3.152-2.152","ymtw10krcdgrg7j",75,"92.csv","","null","resources/images/coin2.png","null","",NA,NA,NA,NA,""
"image-keyboard-response",470,400153,"0.0-3.153-0.153","ymtw10krcdgrg7j",75,"92.csv","","453.39999985694885","resources/trios/L4T2A3.jpg","38","restless",0.4,0.4,0.6,0.391767060118551,"true"
"image-keyboard-response",471,400560,"0.0-3.153-1.153","ymtw10krcdgrg7j",75,"92.csv","","null","resources/maskTrios/BT2B.jpg","null","",NA,NA,NA,NA,""
"image-keyboard-response",472,401763,"0.0-3.153-2.153","ymtw10krcdgrg7j",75,"92.csv","","null","resources/images/coin2.png","null","",NA,NA,NA,NA,""
"image-keyboard-response",473,402122,"0.0-3.154-0.154","ymtw10krcdgrg7j",75,"92.csv","","357.10000014305115","resources/trios/L4T2A2.jpg","38","restless",0.4,0.4,0.6,0.404929178947971,"false"
"image-keyboard-response",474,402529,"0.0-3.154-1.154","ymtw10krcdgrg7j",75,"92.csv","","null","resources/maskTrios/BT2B.jpg","null","",NA,NA,NA,NA,""
"image-keyboard-response",475,403731,"0.0-3.154-2.154","ymtw10krcdgrg7j",75,"92.csv","","null","resources/images/fishbone.png","null","",NA,NA,NA,NA,""
"image-keyboard-response",476,404069,"0.0-3.155-0.155","ymtw10krcdgrg7j",75,"92.csv","","335.7000000476837","resources/trios/L4T2A2.jpg","37","restless",0.4,0.4,0.6,0.760347440832384,"false"
"image-keyboard-response",477,404476,"0.0-3.155-1.155","ymtw10krcdgrg7j",75,"92.csv","","null","resources/maskTrios/L4BB.jpg","null","",NA,NA,NA,NA,""
"image-keyboard-response",478,405682,"0.0-3.155-2.155","ymtw10krcdgrg7j",75,"92.csv","","null","resources/images/fishbone.png","null","",NA,NA,NA,NA,""
"image-keyboard-response",479,406051,"0.0-3.156-0.156","ymtw10krcdgrg7j",75,"92.csv","","366.2999999523163","resources/trios/L2T2A3.jpg","37","restless",0.4,0.4,0.6,0.347527150263968,"true"
"image-keyboard-response",480,406457,"0.0-3.156-1.156","ymtw10krcdgrg7j",75,"92.csv","","null","resources/maskTrios/L2BB.jpg","null","",NA,NA,NA,NA,""
"image-keyboard-response",481,407661,"0.0-3.156-2.156","ymtw10krcdgrg7j",75,"92.csv","","null","resources/images/coin2.png","null","",NA,NA,NA,NA,""
"image-keyboard-response",482,408313,"0.0-3.157-0.157","ymtw10krcdgrg7j",75,"92.csv","","649.7000000476837","resources/trios/L4T2A3.jpg","37","restless",0.4,0.3,0.6,0.0753834592712772,"true"
"image-keyboard-response",483,408720,"0.0-3.157-1.157","ymtw10krcdgrg7j",75,"92.csv","","null","resources/maskTrios/L4BB.jpg","null","",NA,NA,NA,NA,""
"image-keyboard-response",484,409927,"0.0-3.157-2.157","ymtw10krcdgrg7j",75,"92.csv","","null","resources/images/coin2.png","null","",NA,NA,NA,NA,""
"image-keyboard-response",485,410545,"0.0-3.158-0.158","ymtw10krcdgrg7j",75,"92.csv","","616.3000001907349","resources/trios/L2T1A3.jpg","37","restless",0.4,0.3,0.6,0.825073960697423,"false"
"image-keyboard-response",486,410951,"0.0-3.158-1.158","ymtw10krcdgrg7j",75,"92.csv","","null","resources/maskTrios/L2BB.jpg","null","",NA,NA,NA,NA,""
"image-keyboard-response",487,412158,"0.0-3.158-2.158","ymtw10krcdgrg7j",75,"92.csv","","null","resources/images/fishbone.png","null","",NA,NA,NA,NA,""
"image-keyboard-response",488,413140,"0.0-3.159-0.159","ymtw10krcdgrg7j",75,"92.csv","","979.9000000953674","resources/trios/L4T1A3.jpg","39","restless",0.4,0.3,0.6,0.51854337364582,"true"
"image-keyboard-response",489,413547,"0.0-3.159-1.159","ymtw10krcdgrg7j",75,"92.csv","","null","resources/maskTrios/BBA3.jpg","null","",NA,NA,NA,NA,""
"image-keyboard-response",490,414751,"0.0-3.159-2.159","ymtw10krcdgrg7j",75,"92.csv","","null","resources/images/coin2.png","null","",NA,NA,NA,NA,""
"image-keyboard-response",491,415583,"0.0-3.160-0.160","ymtw10krcdgrg7j",75,"92.csv","","830.6000001430511","resources/trios/L4T2A2.jpg","39","restless",0.4,0.3,0.6,0.453277094506606,"true"
"image-keyboard-response",492,415986,"0.0-3.160-1.160","ymtw10krcdgrg7j",75,"92.csv","","null","resources/maskTrios/BBA2.jpg","null","",NA,NA,NA,NA,""
"image-keyboard-response",493,417193,"0.0-3.160-2.160","ymtw10krcdgrg7j",75,"92.csv","","null","resources/images/coin2.png","null","",NA,NA,NA,NA,""
"image-keyboard-response",494,418058,"0.0-3.161-0.161","ymtw10krcdgrg7j",75,"92.csv","","863.2999999523163","resources/trios/L2T2A2.jpg","38","restless",0.4,0.3,0.6,0.717417166108788,"false"
"image-keyboard-response",495,418461,"0.0-3.161-1.161","ymtw10krcdgrg7j",75,"92.csv","","null","resources/maskTrios/BT2B.jpg","null","",NA,NA,NA,NA,""
"image-keyboard-response",496,419668,"0.0-3.161-2.161","ymtw10krcdgrg7j",75,"92.csv","","null","resources/images/fishbone.png","null","",NA,NA,NA,NA,""
"image-keyboard-response",497,420411,"0.0-3.162-0.162","ymtw10krcdgrg7j",75,"92.csv","","742.2999999523163","resources/trios/L4T1A2.jpg","37","restless",0.4,0.3,0.6,0.480152694469253,"false"
"image-keyboard-response",498,420818,"0.0-3.162-1.162","ymtw10krcdgrg7j",75,"92.csv","","null","resources/maskTrios/L4BB.jpg","null","",NA,NA,NA,NA,""
"image-keyboard-response",499,422021,"0.0-3.162-2.162","ymtw10krcdgrg7j",75,"92.csv","","null","resources/images/fishbone.png","null","",NA,NA,NA,NA,""
"image-keyboard-response",500,422659,"0.0-3.163-0.163","ymtw10krcdgrg7j",75,"92.csv","","635.5","resources/trios/L2T1A2.jpg","39","restless",0.4,0.3,0.6,0.992406538421903,"false"
"image-keyboard-response",501,423065,"0.0-3.163-1.163","ymtw10krcdgrg7j",75,"92.csv","","null","resources/maskTrios/BBA2.jpg","null","",NA,NA,NA,NA,""
"image-keyboard-response",502,424268,"0.0-3.163-2.163","ymtw10krcdgrg7j",75,"92.csv","","null","resources/images/fishbone.png","null","",NA,NA,NA,NA,""
"image-keyboard-response",503,424910,"0.0-3.164-0.164","ymtw10krcdgrg7j",75,"92.csv","","639.1000001430511","resources/trios/L2T2A2.jpg","38","restless",0.4,0.3,0.6,0.161279019009881,"true"
"image-keyboard-response",504,425317,"0.0-3.164-1.164","ymtw10krcdgrg7j",75,"92.csv","","null","resources/maskTrios/BT2B.jpg","null","",NA,NA,NA,NA,""
"image-keyboard-response",505,426524,"0.0-3.164-2.164","ymtw10krcdgrg7j",75,"92.csv","","null","resources/images/coin2.png","null","",NA,NA,NA,NA,""
"image-keyboard-response",506,427445,"0.0-3.165-0.165","ymtw10krcdgrg7j",75,"92.csv","","919.5999999046326","resources/trios/L4T1A3.jpg","37","restless",0.4,0.3,0.6,0.822313743111786,"false"
"image-keyboard-response",507,427852,"0.0-3.165-1.165","ymtw10krcdgrg7j",75,"92.csv","","null","resources/maskTrios/L4BB.jpg","null","",NA,NA,NA,NA,""
"image-keyboard-response",508,429059,"0.0-3.165-2.165","ymtw10krcdgrg7j",75,"92.csv","","null","resources/images/fishbone.png","null","",NA,NA,NA,NA,""
"image-keyboard-response",509,430002,"0.0-3.166-0.166","ymtw10krcdgrg7j",75,"92.csv","","940.9000000953674","resources/trios/L4T2A2.jpg","38","restless",0.3,0.3,0.6,0.889305239860332,"false"
"image-keyboard-response",510,430410,"0.0-3.166-1.166","ymtw10krcdgrg7j",75,"92.csv","","null","resources/maskTrios/BT2B.jpg","null","",NA,NA,NA,NA,""
"image-keyboard-response",511,431616,"0.0-3.166-2.166","ymtw10krcdgrg7j",75,"92.csv","","null","resources/images/fishbone.png","null","",NA,NA,NA,NA,""
"image-keyboard-response",512,432123,"0.0-3.167-0.167","ymtw10krcdgrg7j",75,"92.csv","","504.2000000476837","resources/trios/L4T1A3.jpg","39","restless",0.3,0.3,0.6,0.288321729528418,"true"
"image-keyboard-response",513,432530,"0.0-3.167-1.167","ymtw10krcdgrg7j",75,"92.csv","","null","resources/maskTrios/BBA3.jpg","null","",NA,NA,NA,NA,""
"image-keyboard-response",514,433737,"0.0-3.167-2.167","ymtw10krcdgrg7j",75,"92.csv","","null","resources/images/coin2.png","null","",NA,NA,NA,NA,""
"image-keyboard-response",515,434159,"0.0-3.168-0.168","ymtw10krcdgrg7j",75,"92.csv","","419.90000009536743","resources/trios/L2T2A2.jpg","37","restless",0.3,0.3,0.6,0.85445417478631,"false"
"image-keyboard-response",516,434566,"0.0-3.168-1.168","ymtw10krcdgrg7j",75,"92.csv","","null","resources/maskTrios/L2BB.jpg","null","",NA,NA,NA,NA,""
"image-keyboard-response",517,435772,"0.0-3.168-2.168","ymtw10krcdgrg7j",75,"92.csv","","null","resources/images/fishbone.png","null","",NA,NA,NA,NA,""
"image-keyboard-response",518,436115,"0.0-3.169-0.169","ymtw10krcdgrg7j",75,"92.csv","","340.5","resources/trios/L4T1A3.jpg","38","restless",0.2,0.3,0.6,0.332164152970154,"false"
"image-keyboard-response",519,436521,"0.0-3.169-1.169","ymtw10krcdgrg7j",75,"92.csv","","null","resources/maskTrios/BT1B.jpg","null","",NA,NA,NA,NA,""
"image-keyboard-response",520,437728,"0.0-3.169-2.169","ymtw10krcdgrg7j",75,"92.csv","","null","resources/images/fishbone.png","null","",NA,NA,NA,NA,""
"image-keyboard-response",521,438448,"0.0-3.170-0.170","ymtw10krcdgrg7j",75,"92.csv","","718.0999999046326","resources/trios/L2T1A2.jpg","37","restless",0.2,0.3,0.6,0.601237078666652,"false"
"image-keyboard-response",522,438856,"0.0-3.170-1.170","ymtw10krcdgrg7j",75,"92.csv","","null","resources/maskTrios/L2BB.jpg","null","",NA,NA,NA,NA,""
"image-keyboard-response",523,440062,"0.0-3.170-2.170","ymtw10krcdgrg7j",75,"92.csv","","null","resources/images/fishbone.png","null","",NA,NA,NA,NA,""
"image-keyboard-response",524,440973,"0.0-3.171-0.171","ymtw10krcdgrg7j",75,"92.csv","","908.5","resources/trios/L4T2A3.jpg","39","restless",0.2,0.3,0.6,0.800135412403288,"false"
"image-keyboard-response",525,441380,"0.0-3.171-1.171","ymtw10krcdgrg7j",75,"92.csv","","null","resources/maskTrios/BBA3.jpg","null","",NA,NA,NA,NA,""
"image-keyboard-response",526,442587,"0.0-3.171-2.171","ymtw10krcdgrg7j",75,"92.csv","","null","resources/images/fishbone.png","null","",NA,NA,NA,NA,""
"image-keyboard-response",527,443653,"0.0-3.172-0.172","ymtw10krcdgrg7j",75,"92.csv","","1063.8000001907349","resources/trios/L4T1A2.jpg","38","restless",0.2,0.3,0.6,0.644304164505792,"false"
"image-keyboard-response",528,444056,"0.0-3.172-1.172","ymtw10krcdgrg7j",75,"92.csv","","null","resources/maskTrios/BT1B.jpg","null","",NA,NA,NA,NA,""
"image-keyboard-response",529,445263,"0.0-3.172-2.172","ymtw10krcdgrg7j",75,"92.csv","","null","resources/images/fishbone.png","null","",NA,NA,NA,NA,""
"image-keyboard-response",530,445844,"0.0-3.173-0.173","ymtw10krcdgrg7j",75,"92.csv","","578.7000000476837","resources/trios/L4T1A3.jpg","38","restless",0.2,0.3,0.6,0.825656911093883,"false"
"image-keyboard-response",531,446251,"0.0-3.173-1.173","ymtw10krcdgrg7j",75,"92.csv","","null","resources/maskTrios/BT1B.jpg","null","",NA,NA,NA,NA,""
"image-keyboard-response",532,447456,"0.0-3.173-2.173","ymtw10krcdgrg7j",75,"92.csv","","null","resources/images/fishbone.png","null","",NA,NA,NA,NA,""
"image-keyboard-response",533,449218,"0.0-3.174-0.174","ymtw10krcdgrg7j",75,"92.csv","","1760.6999998092651","resources/trios/L2T1A3.jpg","38","restless",0.1,0.3,0.6,0.291510138603761,"true"
"image-keyboard-response",534,449625,"0.0-3.174-1.174","ymtw10krcdgrg7j",75,"92.csv","","null","resources/maskTrios/BT1B.jpg","null","",NA,NA,NA,NA,""
"image-keyboard-response",535,450827,"0.0-3.174-2.174","ymtw10krcdgrg7j",75,"92.csv","","null","resources/images/coin2.png","null","",NA,NA,NA,NA,""
"image-keyboard-response",536,451587,"0.0-3.175-0.175","ymtw10krcdgrg7j",75,"92.csv","","758.1000001430511","resources/trios/L4T1A2.jpg","37","restless",0.1,0.4,0.6,0.48365560706888,"false"
"image-keyboard-response",537,451992,"0.0-3.175-1.175","ymtw10krcdgrg7j",75,"92.csv","","null","resources/maskTrios/L4BB.jpg","null","",NA,NA,NA,NA,""
"image-keyboard-response",538,453197,"0.0-3.175-2.175","ymtw10krcdgrg7j",75,"92.csv","","null","resources/images/fishbone.png","null","",NA,NA,NA,NA,""
"image-keyboard-response",539,454042,"0.0-3.176-0.176","ymtw10krcdgrg7j",75,"92.csv","","843.5","resources/trios/L2T1A3.jpg","39","restless",0.1,0.4,0.6,0.42361721888453,"true"
"image-keyboard-response",540,454447,"0.0-3.176-1.176","ymtw10krcdgrg7j",75,"92.csv","","null","resources/maskTrios/BBA3.jpg","null","",NA,NA,NA,NA,""
"image-keyboard-response",541,455651,"0.0-3.176-2.176","ymtw10krcdgrg7j",75,"92.csv","","null","resources/images/coin2.png","null","",NA,NA,NA,NA,""
"image-keyboard-response",542,456643,"0.0-3.177-0.177","ymtw10krcdgrg7j",75,"92.csv","","989.6999998092651","resources/trios/L4T2A2.jpg","38","restless",0.1,0.4,0.6,0.539896223036958,"false"
"image-keyboard-response",543,457049,"0.0-3.177-1.177","ymtw10krcdgrg7j",75,"92.csv","","null","resources/maskTrios/BT2B.jpg","null","",NA,NA,NA,NA,""
"image-keyboard-response",544,458251,"0.0-3.177-2.177","ymtw10krcdgrg7j",75,"92.csv","","null","resources/images/fishbone.png","null","",NA,NA,NA,NA,""
"image-keyboard-response",545,460580,"0.0-3.178-0.178","ymtw10krcdgrg7j",75,"92.csv","","2327.2000000476837","resources/trios/L2T1A3.jpg","39","restless",0.1,0.4,0.6,0.0957541813826794,"true"
"image-keyboard-response",546,460987,"0.0-3.178-1.178","ymtw10krcdgrg7j",75,"92.csv","","null","resources/maskTrios/BBA3.jpg","null","",NA,NA,NA,NA,""
"image-keyboard-response",547,462194,"0.0-3.178-2.178","ymtw10krcdgrg7j",75,"92.csv","","null","resources/images/coin2.png","null","",NA,NA,NA,NA,""
"image-keyboard-response",548,463249,"0.0-3.179-0.179","ymtw10krcdgrg7j",75,"92.csv","","1053.5999999046326","resources/trios/L2T1A2.jpg","37","restless",0.1,0.4,0.7,0.426191516070962,"false"
"image-keyboard-response",549,463651,"0.0-3.179-1.179","ymtw10krcdgrg7j",75,"92.csv","","null","resources/maskTrios/L2BB.jpg","null","",NA,NA,NA,NA,""
"image-keyboard-response",550,464857,"0.0-3.179-2.179","ymtw10krcdgrg7j",75,"92.csv","","null","resources/images/fishbone.png","null","",NA,NA,NA,NA,""
"image-keyboard-response",551,465378,"0.0-3.180-0.180","ymtw10krcdgrg7j",75,"92.csv","","519.4000000953674","resources/trios/L4T1A3.jpg","38","restless",0.1,0.4,0.7,0.276402941931744,"true"
"image-keyboard-response",552,465780,"0.0-3.180-1.180","ymtw10krcdgrg7j",75,"92.csv","","null","resources/maskTrios/BT1B.jpg","null","",NA,NA,NA,NA,""
"image-keyboard-response",553,466987,"0.0-3.180-2.180","ymtw10krcdgrg7j",75,"92.csv","","null","resources/images/coin2.png","null","",NA,NA,NA,NA,""
"image-keyboard-response",554,467578,"0.0-3.181-0.181","ymtw10krcdgrg7j",75,"92.csv","","589.8000001907349","resources/trios/L2T2A2.jpg","37","restless",0.1,0.4,0.7,0.276171404186982,"false"
"image-keyboard-response",555,467981,"0.0-3.181-1.181","ymtw10krcdgrg7j",75,"92.csv","","null","resources/maskTrios/L2BB.jpg","null","",NA,NA,NA,NA,""
"image-keyboard-response",556,469188,"0.0-3.181-2.181","ymtw10krcdgrg7j",75,"92.csv","","null","resources/images/fishbone.png","null","",NA,NA,NA,NA,""
"image-keyboard-response",557,469697,"0.0-3.182-0.182","ymtw10krcdgrg7j",75,"92.csv","","507.2999999523163","resources/trios/L4T1A3.jpg","38","restless",0.1,0.4,0.7,0.237419502331984,"true"
"image-keyboard-response",558,470101,"0.0-3.182-1.182","ymtw10krcdgrg7j",75,"92.csv","","null","resources/maskTrios/BT1B.jpg","null","",NA,NA,NA,NA,""
"image-keyboard-response",559,471308,"0.0-3.182-2.182","ymtw10krcdgrg7j",75,"92.csv","","null","resources/images/coin2.png","null","",NA,NA,NA,NA,""
"image-keyboard-response",560,471691,"0.0-3.183-0.183","ymtw10krcdgrg7j",75,"92.csv","","381","resources/trios/L4T1A3.jpg","38","restless",0.1,0.4,0.7,0.884386959980131,"false"
"image-keyboard-response",561,472098,"0.0-3.183-1.183","ymtw10krcdgrg7j",75,"92.csv","","null","resources/maskTrios/BT1B.jpg","null","",NA,NA,NA,NA,""
"image-keyboard-response",562,473304,"0.0-3.183-2.183","ymtw10krcdgrg7j",75,"92.csv","","null","resources/images/fishbone.png","null","",NA,NA,NA,NA,""
"image-keyboard-response",563,473469,"0.0-3.184-0.184","ymtw10krcdgrg7j",75,"92.csv","","162.70000004768372","resources/trios/L4T1A3.jpg","39","restless",0.2,0.4,0.8,0.839603243031937,"false"
"image-keyboard-response",564,473871,"0.0-3.184-1.184","ymtw10krcdgrg7j",75,"92.csv","","null","resources/maskTrios/BBA3.jpg","null","",NA,NA,NA,NA,""
"image-keyboard-response",565,475078,"0.0-3.184-2.184","ymtw10krcdgrg7j",75,"92.csv","","null","resources/images/fishbone.png","null","",NA,NA,NA,NA,""
"image-keyboard-response",566,475431,"0.0-3.185-0.185","ymtw10krcdgrg7j",75,"92.csv","","350.2999999523163","resources/trios/L2T1A3.jpg","37","restless",0.2,0.4,0.9,0.256812126946411,"false"
"image-keyboard-response",567,475837,"0.0-3.185-1.185","ymtw10krcdgrg7j",75,"92.csv","","null","resources/maskTrios/L2BB.jpg","null","",NA,NA,NA,NA,""
"image-keyboard-response",568,477041,"0.0-3.185-2.185","ymtw10krcdgrg7j",75,"92.csv","","null","resources/images/fishbone.png","null","",NA,NA,NA,NA,""
"image-keyboard-response",569,477654,"0.0-3.186-0.186","ymtw10krcdgrg7j",75,"92.csv","","610.9000000953674","resources/trios/L2T2A2.jpg","38","restless",0.2,0.5,0.9,0.210098122186916,"true"
"image-keyboard-response",570,478060,"0.0-3.186-1.186","ymtw10krcdgrg7j",75,"92.csv","","null","resources/maskTrios/BT2B.jpg","null","",NA,NA,NA,NA,""
"image-keyboard-response",571,479267,"0.0-3.186-2.186","ymtw10krcdgrg7j",75,"92.csv","","null","resources/images/coin2.png","null","",NA,NA,NA,NA,""
"image-keyboard-response",572,479660,"0.0-3.187-0.187","ymtw10krcdgrg7j",75,"92.csv","","390.59999990463257","resources/trios/L2T2A3.jpg","38","restless",0.2,0.5,0.9,0.0602603769606591,"true"
"image-keyboard-response",573,480063,"0.0-3.187-1.187","ymtw10krcdgrg7j",75,"92.csv","","null","resources/maskTrios/BT2B.jpg","null","",NA,NA,NA,NA,""
"image-keyboard-response",574,481270,"0.0-3.187-2.187","ymtw10krcdgrg7j",75,"92.csv","","null","resources/images/coin2.png","null","",NA,NA,NA,NA,""
"image-keyboard-response",575,481692,"0.0-3.188-0.188","ymtw10krcdgrg7j",75,"92.csv","","420.5","resources/trios/L2T2A3.jpg","38","restless",0.2,0.5,0.9,0.278350681741783,"true"
"image-keyboard-response",576,482099,"0.0-3.188-1.188","ymtw10krcdgrg7j",75,"92.csv","","null","resources/maskTrios/BT2B.jpg","null","",NA,NA,NA,NA,""
"image-keyboard-response",577,483306,"0.0-3.188-2.188","ymtw10krcdgrg7j",75,"92.csv","","null","resources/images/coin2.png","null","",NA,NA,NA,NA,""
"image-keyboard-response",578,483709,"0.0-3.189-0.189","ymtw10krcdgrg7j",75,"92.csv","","401.2000000476837","resources/trios/L2T1A3.jpg","38","restless",0.3,0.5,0.9,0.409536596225662,"true"
"image-keyboard-response",579,484115,"0.0-3.189-1.189","ymtw10krcdgrg7j",75,"92.csv","","null","resources/maskTrios/BT1B.jpg","null","",NA,NA,NA,NA,""
"image-keyboard-response",580,485321,"0.0-3.189-2.189","ymtw10krcdgrg7j",75,"92.csv","","null","resources/images/coin2.png","null","",NA,NA,NA,NA,""
"image-keyboard-response",581,485843,"0.0-3.190-0.190","ymtw10krcdgrg7j",75,"92.csv","","519.6000001430511","resources/trios/L2T2A2.jpg","38","restless",0.3,0.5,0.9,0.72976630235302,"false"
"image-keyboard-response",582,486250,"0.0-3.190-1.190","ymtw10krcdgrg7j",75,"92.csv","","null","resources/maskTrios/BT2B.jpg","null","",NA,NA,NA,NA,""
"image-keyboard-response",583,487457,"0.0-3.190-2.190","ymtw10krcdgrg7j",75,"92.csv","","null","resources/images/fishbone.png","null","",NA,NA,NA,NA,""
"image-keyboard-response",584,487946,"0.0-3.191-0.191","ymtw10krcdgrg7j",75,"92.csv","","487.5","resources/trios/L4T1A2.jpg","37","restless",0.3,0.5,0.9,0.813779004542572,"false"
"image-keyboard-response",585,488353,"0.0-3.191-1.191","ymtw10krcdgrg7j",75,"92.csv","","null","resources/maskTrios/L4BB.jpg","null","",NA,NA,NA,NA,""
"image-keyboard-response",586,489558,"0.0-3.191-2.191","ymtw10krcdgrg7j",75,"92.csv","","null","resources/images/fishbone.png","null","",NA,NA,NA,NA,""
"image-keyboard-response",587,489978,"0.0-3.192-0.192","ymtw10krcdgrg7j",75,"92.csv","","418.10000014305115","resources/trios/L4T2A3.jpg","39","restless",0.3,0.5,0.9,0.398060398720776,"true"
"image-keyboard-response",588,490381,"0.0-3.192-1.192","ymtw10krcdgrg7j",75,"92.csv","","null","resources/maskTrios/BBA3.jpg","null","",NA,NA,NA,NA,""
"image-keyboard-response",589,491586,"0.0-3.192-2.192","ymtw10krcdgrg7j",75,"92.csv","","null","resources/images/coin2.png","null","",NA,NA,NA,NA,""
"image-keyboard-response",590,493585,"0.0-3.193-0.193","ymtw10krcdgrg7j",75,"92.csv","","1997.0999999046326","resources/trios/L2T2A3.jpg","39","restless",0.3,0.4,0.8,0.565061626760254,"true"
"image-keyboard-response",591,493989,"0.0-3.193-1.193","ymtw10krcdgrg7j",75,"92.csv","","null","resources/maskTrios/BBA3.jpg","null","",NA,NA,NA,NA,""
"image-keyboard-response",592,495196,"0.0-3.193-2.193","ymtw10krcdgrg7j",75,"92.csv","","null","resources/images/coin2.png","null","",NA,NA,NA,NA,""
"image-keyboard-response",593,497363,"0.0-3.194-0.194","ymtw10krcdgrg7j",75,"92.csv","","2165.7000000476837","resources/trios/L2T1A2.jpg","38","restless",0.3,0.4,0.8,0.699690317796944,"false"
"image-keyboard-response",594,497770,"0.0-3.194-1.194","ymtw10krcdgrg7j",75,"92.csv","","null","resources/maskTrios/BT1B.jpg","null","",NA,NA,NA,NA,""
"image-keyboard-response",595,498973,"0.0-3.194-2.194","ymtw10krcdgrg7j",75,"92.csv","","null","resources/images/fishbone.png","null","",NA,NA,NA,NA,""
"image-keyboard-response",596,499833,"0.0-3.195-0.195","ymtw10krcdgrg7j",75,"92.csv","","858.4000000953674","resources/trios/L2T1A2.jpg","38","restless",0.4,0.4,0.8,0.0640188839194689,"true"
"image-keyboard-response",597,500240,"0.0-3.195-1.195","ymtw10krcdgrg7j",75,"92.csv","","null","resources/maskTrios/BT1B.jpg","null","",NA,NA,NA,NA,""
"image-keyboard-response",598,501447,"0.0-3.195-2.195","ymtw10krcdgrg7j",75,"92.csv","","null","resources/images/coin2.png","null","",NA,NA,NA,NA,""
"image-keyboard-response",599,501527,"0.0-3.196-0.196","ymtw10krcdgrg7j",75,"92.csv","","78.70000004768372","resources/trios/L4T1A2.jpg","38","restless",0.4,0.4,0.8,0.457888963461229,"false"
"image-keyboard-response",600,501934,"0.0-3.196-1.196","ymtw10krcdgrg7j",75,"92.csv","","null","resources/maskTrios/BT1B.jpg","null","",NA,NA,NA,NA,""
"image-keyboard-response",601,503141,"0.0-3.196-2.196","ymtw10krcdgrg7j",75,"92.csv","","null","resources/images/fishbone.png","null","",NA,NA,NA,NA,""
"image-keyboard-response",602,503525,"0.0-3.197-0.197","ymtw10krcdgrg7j",75,"92.csv","","382.60000014305115","resources/trios/L2T1A3.jpg","37","restless",0.4,0.4,0.8,0.201298066623155,"true"
"image-keyboard-response",603,503932,"0.0-3.197-1.197","ymtw10krcdgrg7j",75,"92.csv","","null","resources/maskTrios/L2BB.jpg","null","",NA,NA,NA,NA,""
"image-keyboard-response",604,505138,"0.0-3.197-2.197","ymtw10krcdgrg7j",75,"92.csv","","null","resources/images/coin2.png","null","",NA,NA,NA,NA,""
"image-keyboard-response",605,505673,"0.0-3.198-0.198","ymtw10krcdgrg7j",75,"92.csv","","532.5","resources/trios/L2T1A3.jpg","39","restless",0.4,0.4,0.8,0.936200261587474,"false"
"image-keyboard-response",606,506079,"0.0-3.198-1.198","ymtw10krcdgrg7j",75,"92.csv","","null","resources/maskTrios/BBA3.jpg","null","",NA,NA,NA,NA,""
"image-keyboard-response",607,507285,"0.0-3.198-2.198","ymtw10krcdgrg7j",75,"92.csv","","null","resources/images/fishbone.png","null","",NA,NA,NA,NA,""
"image-keyboard-response",608,508308,"0.0-3.199-0.199","ymtw10krcdgrg7j",75,"92.csv","","1020.4000000953674","resources/trios/L4T2A2.jpg","38","restless",0.4,0.4,0.9,0.723585539713038,"false"
"image-keyboard-response",609,508715,"0.0-3.199-1.199","ymtw10krcdgrg7j",75,"92.csv","","null","resources/maskTrios/BT2B.jpg","null","",NA,NA,NA,NA,""
"image-keyboard-response",610,509921,"0.0-3.199-2.199","ymtw10krcdgrg7j",75,"92.csv","","null","resources/images/fishbone.png","null","",NA,NA,NA,NA,""
"image-keyboard-response",611,510529,"0.0-3.200-0.200","ymtw10krcdgrg7j",75,"92.csv","","605.6000001430511","resources/trios/L2T1A3.jpg","37","restless",0.4,0.5,0.9,0.897932113690332,"false"
